AcclX,AcclY,AcclZ,MagX,MagY,MagZ,GyroX,GyroY,GyroZ,Roll,Pitch,Yaw,Time(s)
-0.1621,0.974,0.0596,-0.4153,0.202,-0.0293,-2.6688,1.085,-14.4637,0,0,0,1.6196182163539756
-0.1626,0.9491,0.0605,-0.4115,0.2034,-0.029,-2.5375,1.0762,-14.2975,0,0,0,1.6317819649219418
-0.1571,0.9506,0.0653,-0.4115,0.2034,-0.029,-2.6863,1.4262,-15.0762,0,0,0,1.643905367034185
-0.1618,0.9761,0.0584,-0.4154,0.201,-0.0275,-3.325,1.2687,-14.5075,0,0,0,1.656077963509108
-0.1647,0.9763,0.059,-0.4154,0.201,-0.0275,-2.905,0.9713,-14.0262,0,0,0,1.6682388807468482
-0.1654,0.9757,0.059,-0.4168,0.2008,-0.028,-2.8438,1.1812,-14.2275,0,0,0,1.680379978673005
-0.1634,0.9758,0.0629,-0.4168,0.2008,-0.028,-2.1963,1.3125,-14.525,0,0,0,1.692538418496797
-0.1654,0.9744,0.0563,-0.4136,0.2019,-0.0324,-2.1263,1.4525,-14.2537,0,0,0,1.7048398404970115
-0.1649,0.9752,0.0562,-0.4152,0.2027,-0.0319,-1.9775,1.3475,-14.4725,0,0,0,1.7169094473349573
-0.1601,0.9754,0.0536,-0.4152,0.2027,-0.0319,-2.6513,1.1287,-14.4462,0,0,0,1.7290877064703327
-0.1627,0.9745,0.0591,-0.4142,0.2047,-0.0284,-2.9225,1.2775,-14.3062,0,0,0,1.741112719857216
-0.1638,0.9759,0.0562,-0.4142,0.2047,-0.0284,-3.36,0.9625,-14.0525,0,0,0,1.7505951987009856
-0.1633,0.9758,0.0578,-0.4143,0.2035,-0.0271,-2.6688,0.84,-14.3238,0,0,0,1.7627957545618922
-0.1647,0.9759,0.0551,-0.4129,0.2007,-0.0261,-2.415,0.7263,-14.4725,0,0,0,1.7749655197065892
-0.1606,0.9764,0.0605,-0.4129,0.2007,-0.0261,-2.7213,0.84,-14.8137,0,0,0,1.7871384700977906
-0.1615,0.9764,0.0572,-0.4177,0.2044,-0.0291,-3.1588,0.6825,-14.6475,0,0,0,1.7992413450658937
-0.1642,0.9773,0.0541,-0.4177,0.2044,-0.0291,-3.1675,1.68,-14.245,0,0,0,1.8114634898197752
-0.1623,0.9766,0.0591,-0.4131,0.2027,-0.0266,-3.15,1.12,-14.2712,0,0,0,1.8236056494947668
-0.1628,0.9753,0.0523,-0.4145,0.2028,-0.0278,-3.2725,0.9363,-14.315,0,0,0,1.835792756537099
-0.1642,0.9757,0.055,-0.4145,0.2028,-0.0278,-2.6075,1.26,-14.28,0,0,0,1.847906956826107
-0.1638,0.9768,0.0523,-0.4128,0.2035,-0.0266,-3.43,1.19,-14.2712,0,0,0,1.8600841542126476
-0.1618,0.9751,0.0583,-0.4128,0.2035,-0.0266,-3.5,1.05,-14.0175,0,0,0,1.8721880909295858
-0.1622,0.9756,0.0557,-0.4148,0.2018,-0.029,-3.2462,1.0937,-14.2275,0,0,0,1.88168401859193
-0.1652,0.9759,0.0578,-0.4152,0.2033,-0.0272,-3.22,1.1812,-14.5425,0,0,0,1.893797157132103
-0.1615,0.9758,0.0595,-0.4152,0.2033,-0.0272,-2.975,0.945,-14.4987,0,0,0,1.9059679840256347
-0.1619,0.9743,0.0584,-0.4153,0.2036,-0.0277,-3.1763,1.1025,-14.5862,0,0,0,1.9181826965376725
-0.1652,0.9762,0.0581,-0.4153,0.2036,-0.0277,-2.94,1.2337,-14.2012,0,0,0,1.9303124691429243
-0.1631,0.9757,0.0612,-0.4151,0.2041,-0.0305,-3.08,1.1725,-14.2712,0,0,0,1.942503823180596
-0.1651,0.9745,0.0544,-0.4142,0.2039,-0.0287,-3.1063,1.2512,-14.21,0,0,0,1.9545798005115504
-0.1624,0.9765,0.0575,-0.4142,0.2039,-0.0287,-2.7738,1.05,-14.1662,0,0,0,1.9668146862514497
-0.1618,0.9765,0.0581,-0.4146,0.2018,-0.0281,-2.5725,1.12,-14.385,0,0,0,1.9789936532193817
-0.1657,0.9761,0.0534,-0.4146,0.2018,-0.0281,-2.485,1.0937,-14.2187,0,0,0,1.9911662496943048
-0.1637,0.9763,0.0622,-0.4149,0.2015,-0.0328,-2.3538,1.2337,-14.5162,0,0,0,2.000515656017444
-0.1667,0.9773,0.0521,-0.4141,0.204,-0.0282,-3.6312,1.0412,-14.3413,0,0,0,2.012693561236541
-0.166,0.9766,0.0533,-0.4141,0.204,-0.0282,-2.835,0.9538,-14.7788,0,0,0,2.0248693429579685
-0.1629,0.9764,0.0598,-0.4121,0.2042,-0.0283,-2.835,0.9363,-14.2362,0,0,0,2.037055742167744
-0.1626,0.9771,0.0528,-0.4121,0.2042,-0.0283,-2.6163,1.0412,-14.525,0,0,0,2.049140921321934
-0.1621,0.9762,0.0597,-0.413,0.203,-0.0296,-3.0275,1.0237,-14.6825,0,0,0,2.061602313479928
-0.1643,0.9776,0.0551,-0.4153,0.2034,-0.0279,-2.7738,0.805,-14.1837,0,0,0,2.0735292920577293
-0.1621,0.9756,0.0572,-0.4153,0.2034,-0.0279,-2.8087,1.47,-14.2012,0,0,0,2.0856778222257297
-0.1635,0.9775,0.0577,-0.4131,0.203,-0.0282,-2.9663,1.0412,-14.3937,0,0,0,2.097863513602949
-0.1605,0.9778,0.0548,-0.4131,0.203,-0.0282,-3.4388,1.0237,-14.0,0,0,0,2.1100077967756103
-0.1623,0.9769,0.0594,-0.4133,0.2031,-0.0312,-3.0888,1.3037,-14.2012,0,0,0,2.122138277213419
-0.1661,0.9751,0.0626,-0.412,0.2037,-0.0283,-2.7037,1.1287,-14.77,0,0,0,2.131599521080492
-0.1637,0.9755,0.0591,-0.412,0.2037,-0.0283,-2.8,1.1025,-14.5425,0,0,0,2.1437466355833794
-0.1646,0.9758,0.0508,-0.4121,0.2047,-0.0298,-2.3625,1.0675,-14.2275,0,0,0,2.1561457384763973
-0.1617,0.9767,0.06,-0.4121,0.2047,-0.0298,-1.995,0.9275,-14.5775,0,0,0,2.1680691778914163
-0.161,0.9748,0.0602,-0.4141,0.2026,-0.0295,-2.3363,1.1638,-15.1112,0,0,0,2.1802134610640773
-0.1623,0.9758,0.0564,-0.4138,0.2023,-0.0278,-2.6163,1.2512,-14.4287,0,0,0,2.1924090620970884
-0.1652,0.9765,0.0541,-0.4138,0.2023,-0.0278,-3.185,1.1638,-14.2887,0,0,0,2.2045091057349655
-0.162,0.9747,0.0567,-0.4149,0.2027,-0.0262,-2.6338,1.3125,-14.4112,0,0,0,2.2167400983958037
-0.1652,0.9761,0.0574,-0.4149,0.2027,-0.0262,-3.01,1.1987,-14.6825,0,0,0,2.228887212898691
-0.1621,0.9756,0.0576,-0.4137,0.2034,-0.028,-2.87,1.1812,-14.5425,0,0,0,2.241063702452675
-0.1627,0.9752,0.0559,-0.414,0.2026,-0.0277,-2.4325,0.8138,-14.0087,0,0,0,2.253210109123006
-0.1692,0.9758,0.0575,-0.414,0.2026,-0.0277,-3.1325,1.2337,-14.4637,0,0,0,2.262548897957797
-0.1612,0.9749,0.0553,-0.4138,0.2034,-0.0318,-3.0625,1.2075,-14.4025,0,0,0,2.274761840888443
-0.1669,0.9756,0.0595,-0.4138,0.2034,-0.0318,-3.1675,0.8312,-14.3937,0,0,0,2.286954964507506
-0.1638,0.9771,0.0619,-0.4126,0.2039,-0.0252,-3.08,1.26,-14.14,0,0,0,2.2991264992335942
-0.1662,0.978,0.055,-0.4135,0.2014,-0.0279,-2.8175,0.9887,-14.84,0,0,0,2.311235390778428
-0.1651,0.9771,0.0581,-0.4135,0.2014,-0.0279,-2.5725,1.085,-14.4987,0,0,0,2.32338569052782
-0.161,0.9762,0.0628,-0.413,0.2021,-0.0282,-3.0888,1.1025,-14.3062,0,0,0,2.3355855385561703
-0.1631,0.975,0.0515,-0.413,0.2021,-0.0282,-3.2638,1.3912,-14.14,0,0,0,2.3477574271985366
-0.1653,0.9772,0.0613,-0.4139,0.2039,-0.0337,-3.2025,1.1287,-14.5513,0,0,0,2.3598702118224315
-0.1624,0.9773,0.0569,-0.416,0.2046,-0.0289,-2.8875,1.1462,-14.7175,0,0,0,2.372074306846121
-0.1616,0.977,0.0561,-0.416,0.2046,-0.0289,-2.8875,1.4437,-14.4987,0,0,0,2.3841516998421888
-0.1633,0.9768,0.0592,-0.4153,0.2033,-0.0304,-2.905,1.47,-14.2625,0,0,0,2.3936409030952457
-0.1623,0.9762,0.0507,-0.4153,0.2014,-0.028,-2.9225,1.1287,-14.1575,0,0,0,2.4058393354584826
-0.1648,0.9765,0.0587,-0.4139,0.2014,-0.028,-2.7562,1.2075,-13.7462,0,0,0,2.4179415025940294
-0.1618,0.9776,0.0568,-0.4134,0.2035,-0.0293,-2.7037,1.1375,-14.4812,0,0,0,2.4301746187525373
-0.1648,0.9773,0.0592,-0.4134,0.2035,-0.0293,-2.975,1.1375,-14.3675,0,0,0,2.4422852798787624
-0.1661,0.9761,0.0561,-0.4145,0.2046,-0.0318,-2.87,1.015,-14.6037,0,0,0,2.4544553989397375
-0.1627,0.9762,0.055,-0.4161,0.2026,-0.0314,-2.9138,1.1987,-14.7525,0,0,0,2.4666513538890267
-0.1627,0.9781,0.0557,-0.4161,0.2026,-0.0314,-3.3688,1.3125,-14.6212,0,0,0,2.4787765255826613
-0.1629,0.9752,0.0568,-0.4157,0.2022,-0.0286,-3.1325,1.0587,-14.1487,0,0,0,2.4909537229692016
-0.1649,0.9768,0.0623,-0.4157,0.2022,-0.0286,-3.4125,1.4787,-14.3762,0,0,0,2.503121010699951
-0.1639,0.9778,0.0581,-0.4162,0.2027,-0.0298,-2.8438,0.9625,-14.8575,0,0,0,2.51255641867871
-0.1648,0.9767,0.0575,-0.4138,0.2018,-0.0275,-2.9138,1.3037,-14.385,0,0,0,2.524659647563092
-0.1638,0.9771,0.0556,-0.4138,0.2018,-0.0275,-2.7738,1.54,-14.8925,0,0,0,2.5368499398519284
-0.1633,0.9758,0.0551,-0.4126,0.2022,-0.0278,-2.9138,0.56,-14.4112,0,0,0,2.549027137238469
-0.1655,0.9784,0.0628,-0.4126,0.2022,-0.0278,-2.6338,0.805,-14.3325,0,0,0,2.5612326479272713
-0.1602,0.9757,0.0571,-0.4139,0.2034,-0.027,-2.8,1.1375,-14.49,0,0,0,2.573314995751235
-0.1672,0.9769,0.0607,-0.412,0.2027,-0.0326,-2.8525,1.2687,-14.3062,0,0,0,2.5854918392214974
-0.1606,0.976,0.0586,-0.412,0.2027,-0.0326,-2.7738,0.9625,-14.455,0,0,0,2.597652402542959
-0.1617,0.9754,0.0559,-0.4136,0.202,-0.0277,-2.8438,1.12,-14.4725,0,0,0,2.6097970396318986
-0.1651,0.9759,0.0542,-0.4136,0.202,-0.0277,-3.2288,1.0325,-14.7875,0,0,0,2.6219484011301253
-0.1629,0.9769,0.0624,-0.4135,0.2042,-0.0303,-3.0363,0.7263,-14.7962,0,0,0,2.6341319690096747
-0.1645,0.9765,0.0523,-0.4134,0.2038,-0.029,-3.185,0.8838,-14.8137,0,0,0,2.6435985216209223
-0.1612,0.9763,0.0621,-0.4134,0.2038,-0.029,-2.94,0.875,-14.5338,0,0,0,2.655710952328539
-0.1672,0.9756,0.0605,-0.4126,0.2028,-0.0274,-3.0888,1.0937,-14.5775,0,0,0,2.6679384058265945
-0.1624,0.9765,0.0603,-0.4126,0.2028,-0.0274,-2.9225,1.2862,-14.4287,0,0,0,2.6798377789346906
-0.1663,0.9774,0.0523,-0.4154,0.2038,-0.0278,-2.9225,1.5137,-14.2887,0,0,0,2.6917753750008404
-0.165,0.9767,0.0614,-0.4137,0.2027,-0.0265,-2.2925,1.33,-14.5425,0,0,0,2.703988671847765
-0.1629,0.9744,0.057,-0.4137,0.2027,-0.0265,-2.7388,1.19,-14.455,0,0,0,2.7162242654202204
-0.1632,0.9766,0.0587,-0.4154,0.2056,-0.0279,-2.7738,1.7675,-14.6125,0,0,0,2.728489234043773
-0.1651,0.9762,0.0556,-0.4154,0.2056,-0.0279,-2.6863,1.2862,-14.5862,0,0,0,2.7406586452721915
-0.1632,0.9767,0.0562,-0.4162,0.2036,-0.0281,-2.9838,1.2775,-14.735,0,0,0,2.752882205691186
-0.1635,0.9769,0.0525,-0.4139,0.2027,-0.0278,-2.5113,0.805,-14.28,0,0,0,2.7650944407892757
-0.1648,0.9761,0.0583,-0.4139,0.2027,-0.0278,-2.7125,0.9275,-14.315,0,0,0,2.7739455329926064
-0.1634,0.9772,0.0587,-0.4146,0.2032,-0.0272,-3.0013,1.1112,-14.735,0,0,0,2.786165908165096
-0.1631,0.9759,0.0573,-0.4146,0.2032,-0.0272,-2.8175,1.1112,-14.4725,0,0,0,2.798385929421308
-0.1633,0.9762,0.0581,-0.4142,0.2036,-0.0352,-2.7475,1.0062,-14.0262,0.1369607574692358,-2.994072701261527,0.31959335919620996,20.976099325895664
-0.1632,0.9765,0.0564,-0.4144,0.2042,-0.0277,-2.7037,0.98,-14.07,0.14298233749833766,-5.169095904181949,0.6794112125821159,20.97784236356616
-0.1614,0.9773,0.0574,-0.4144,0.2042,-0.0277,-2.5375,1.015,-14.245,0.6061371621913126,-6.86678057872327,0.8767573657512453,20.97923183887466
-0.1668,0.9764,0.0559,-0.4153,0.2038,-0.0273,-2.8525,1.1375,-14.2975,0.9481827792177127,-8.056092570334789,1.1692357076884412,20.980472315430006
-0.1636,0.9757,0.0583,-0.4153,0.2038,-0.0273,-2.7562,1.19,-14.4112,1.0671983281082702,-8.718932402558808,1.615196318740491,20.981768356841044
-0.1646,0.9753,0.0611,-0.4152,0.2004,-0.0294,-2.625,1.0237,-14.385,1.2549863025136405,-9.098459446629786,1.753143691388713,20.98300494031733
-0.1629,0.9769,0.0619,-0.4144,0.2023,-0.0274,-2.9488,1.0237,-14.2537,1.71873457454786,-9.241255695919312,1.8782726936522076,20.984626584704376
-0.1652,0.9778,0.0566,-0.4144,0.2023,-0.0274,-2.7913,1.4,-14.56,1.8445628098757225,-9.407183475837707,2.680154073038201,20.985880510078296
-0.165,0.9767,0.0559,-0.4129,0.2042,-0.0293,-2.73,1.05,-14.7262,1.8786445647557086,-9.49651637087922,2.7098536953253833,20.987100459489504
-0.1632,0.9771,0.0618,-0.4129,0.2042,-0.0293,-2.6075,1.2687,-14.1662,2.034130971555248,-9.484198036142029,3.182588095367977,20.988332442054173
-0.1657,0.9755,0.0595,-0.4141,0.2054,-0.0301,-2.485,1.1638,-13.8775,2.297326688631428,-9.517229906857846,3.397355250637431,20.989555576711883
-0.1628,0.9771,0.0611,-0.4134,0.2024,-0.0267,-2.4325,1.0762,-14.0525,2.5720887018413507,-9.492351121916515,3.4220151035836306,20.990811625583476
-0.1649,0.9756,0.0576,-0.4134,0.2024,-0.0267,-2.2225,1.4437,-14.6475,2.834883278077257,-9.53653156534163,3.8584222293354657,20.992056349134163
-0.1612,0.9777,0.0601,-0.4142,0.2011,-0.0278,-2.4237,1.54,-14.455,2.9850178384943438,-9.446403270938703,4.2905640202807,20.99327594462909
-0.1635,0.9769,0.0612,-0.4142,0.2011,-0.0278,-2.7825,1.0675,-14.7087,3.027840599422162,-9.465963821437443,4.296154690053611,20.99448952354729
-0.1648,0.975,0.0589,-0.4136,0.2034,-0.0258,-2.9313,1.1987,-14.6387,3.1068741995394453,-9.523281287848073,4.371841029690966,20.99570274854921
-0.1646,0.9756,0.0594,-0.413,0.2037,-0.0281,-2.1788,1.2512,-14.2887,3.237061214103654,-9.53836387394208,4.5104284847742955,20.996924821458087
-0.164,0.9773,0.0523,-0.413,0.2037,-0.0281,-2.765,1.295,-14.28,3.2273162954394383,-9.527637817278135,4.612644954786472,20.99813946212512
-0.1615,0.9753,0.0612,-0.4145,0.2047,-0.0287,-3.0625,0.9275,-14.4112,3.3228680383907654,-9.461860738785393,4.70086732411422,20.999419577303634
-0.1648,0.977,0.0538,-0.4145,0.2047,-0.0287,-2.9488,1.2163,-14.7175,3.289422309022479,-9.514569213092855,4.761725439899563,21.00112757726258
-0.162,0.9776,0.0602,-0.414,0.2048,-0.0284,-2.485,1.1025,-14.1837,3.331780191720163,-9.467555573278386,4.782824649519942,21.00259632981741
-0.1654,0.9744,0.0528,-0.4158,0.2015,-0.0274,-2.4413,0.8925,-14.0875,3.2836741807907885,-9.519907648182132,4.804504431895776,21.00391856103304
-0.1645,0.9763,0.0549,-0.4158,0.2015,-0.0274,-2.66,0.9013,-14.2275,3.2808319451065318,-9.531630246646039,4.829692376028999,21.005211063281294
-0.1627,0.9766,0.0598,-0.4156,0.2018,-0.0295,-2.4588,1.0325,-14.245,3.3250096478086912,-9.494995028078897,4.8454838034624546,21.007327128709086
-0.1631,0.9747,0.056,-0.4156,0.2018,-0.0295,-2.835,1.0762,-14.3413,3.320796055778773,-9.490249162283174,4.851989668964796,21.009415234750897
-0.1648,0.9761,0.0547,-0.4113,0.203,-0.029,-2.5113,1.155,-14.6387,3.3023576315617915,-9.530737854749926,4.885755029720907,21.011520328774065
-0.1634,0.9762,0.0594,-0.4142,0.2042,-0.0281,-2.8788,1.3387,-14.2362,3.3288853300187617,-9.512389000450849,4.960651165951284,21.013581891095008
-0.1646,0.9757,0.0584,-0.4142,0.2042,-0.0281,-2.66,1.19,-14.3937,3.3330913950195797,-9.533432485056668,4.988256862284887,21.01563920642061
-0.1641,0.979,0.054,-0.4142,0.2033,-0.0255,-2.5288,1.1287,-14.4462,3.306656313889856,-9.518368692936562,4.97281923988191,21.017634586397513
-0.1644,0.9753,0.0615,-0.4142,0.2033,-0.0255,-2.7037,1.4787,-14.0525,3.307229271830387,-9.528550238520527,4.965149867970003,21.019644830858102
-0.1656,0.9756,0.0506,-0.4152,0.2015,-0.0233,-2.6338,1.3037,-14.0525,3.284571081503352,-9.558856940245771,4.845777768524314,21.02167029371866
-0.162,0.976,0.0608,-0.4139,0.2026,-0.0266,-2.6863,1.2163,-14.2537,3.289875122849585,-9.496630681738921,4.876010281412193,21.023703542737337
-0.1644,0.977,0.0635,-0.4139,0.2026,-0.0266,-2.2838,1.435,-14.4462,3.417094405682947,-9.513179574564523,4.947159657190327,21.02501515646462
-0.1636,0.9772,0.058,-0.413,0.2026,-0.0262,-2.7562,1.085,-14.1487,3.416112516471396,-9.50380634006981,4.94726149267019,21.026265542675755
-0.1645,0.9755,0.0625,-0.413,0.2026,-0.0262,-2.7738,1.0937,-13.6588,3.432060347665522,-9.508007335914789,4.951156516526089,21.02748195292418
-0.1626,0.9752,0.0565,-0.4142,0.2018,-0.0266,-2.5813,1.3037,-14.2537,3.4192097443698946,-9.484575062318118,4.950873745119711,21.028696239674936
-0.1645,0.9743,0.0569,-0.413,0.2037,-0.0275,-2.9575,1.2687,-14.7,3.403740420140532,-9.528608746125581,4.976252674255828,21.029911588174524
-0.1601,0.9771,0.0557,-0.413,0.2037,-0.0275,-3.4388,1.4787,-14.5162,3.344050184869987,-9.412522198822995,5.0037574948175525,21.03111915051599
-0.1642,0.9756,0.0564,-0.4146,0.2045,-0.0276,-3.395,0.8838,-14.3325,3.329591915810483,-9.467065223099413,5.015762757712816,21.032491991759414
-0.1648,0.9775,0.0601,-0.4146,0.2045,-0.0298,-2.8175,1.1112,-14.7437,3.3485835286115333,-9.5130189446967,5.036847197087693,21.03400286035136
-0.1617,0.9774,0.0562,-0.4151,0.2033,-0.0298,-2.6688,0.9538,-14.7962,3.3465342886524017,-9.438861434323965,5.06723825251615,21.03557460254317
-0.1627,0.9764,0.061,-0.415,0.2027,-0.0282,-2.9575,1.015,-14.6037,3.392478699662015,-9.440635345082264,5.076173932350988,21.037580246092144
-0.1632,0.9765,0.0579,-0.415,0.2027,-0.0282,-2.555,1.0325,-14.6825,3.3925846814166327,-9.457020446400822,5.079259599224577,21.039543419687725
-0.1648,0.976,0.0548,-0.415,0.204,-0.0307,-2.9575,0.98,-14.5338,3.3565795208791354,-9.51230142071407,5.105646916466023,21.041784063645473
-0.1606,0.9774,0.0609,-0.4134,0.2041,-0.027,-3.2288,1.0325,-14.0175,3.428301433836133,-9.450280814020577,5.106626455755987,21.04402612326833
-0.1642,0.9741,0.0625,-0.4134,0.2041,-0.027,-2.5463,0.9975,-13.9125,3.4616745155418505,-9.47573378849053,5.111179456523452,21.046142542612404
-0.1614,0.9759,0.0541,-0.4137,0.2043,-0.0288,-3.01,1.3387,-14.4725,3.394309320762847,-9.428636100027749,5.128125253889261,21.048247282719295
-0.1639,0.9759,0.0574,-0.4137,0.2043,-0.0288,-2.2313,1.1812,-14.56,3.3852392992213973,-9.47299852488053,5.143671979031529,21.050331495682045
-0.1676,0.9769,0.0551,-0.4156,0.2036,-0.0306,-2.66,1.1375,-14.4637,3.3783912595795638,-9.589897860268762,5.162497248921716,21.05258488062581
-0.1601,0.9772,0.0612,-0.4162,0.2026,-0.0288,-2.8875,1.0937,-14.28,3.4099786349125356,-9.4633824053967,5.168009203840495,21.054442941086744
-0.1624,0.9759,0.0557,-0.4162,0.2026,-0.0288,-2.66,1.3737,-14.4112,3.4037270246443287,-9.449437050137822,5.17380516033104,21.05585294353938
-0.1632,0.977,0.0541,-0.413,0.2017,-0.0272,-2.7475,0.9887,-14.4112,3.394305891856208,-9.458406110588358,5.160202412001094,21.057193224485204
-0.1638,0.9754,0.0614,-0.413,0.2017,-0.0272,-2.7913,0.945,-14.2887,3.4106942661196427,-9.481885491326787,5.160941186837536,21.058526073189178
-0.1643,0.9761,0.0514,-0.4128,0.2041,-0.031,-2.695,1.3475,-14.1225,3.4065352992495104,-9.503289066349016,5.215273703535868,21.059811851028144
-0.1645,0.9743,0.0626,-0.4154,0.2026,-0.0326,-2.6775,1.68,-14.7613,3.413908772368312,-9.536381822571592,5.4650685873285765,21.06112806566704
-0.166,0.9737,0.0533,-0.4154,0.2026,-0.0326,-2.9313,1.6013,-14.6912,3.362224332150646,-9.602289502343105,5.520134827914258,21.062453128212898
-0.1623,0.9764,0.056,-0.4137,0.2039,-0.0274,-2.8,1.4525,-14.2625,3.355349511575897,-9.528336154266269,5.3895412623667625,21.0638783490655
-0.1631,0.978,0.062,-0.4137,0.2039,-0.0274,-2.87,1.1725,-13.9737,3.3937582340803383,-9.505417074144642,5.3717818728433295,21.065192794123007
-0.164,0.9761,0.0567,-0.4156,0.2034,-0.029,-2.7037,1.0587,-14.2362,3.3936265774478027,-9.51197816728993,5.371456229673449,21.066490605115437
-0.1606,0.9761,0.0586,-0.4154,0.2034,-0.0327,-3.325,1.2075,-14.0087,3.4096880660039943,-9.455029439948497,5.424163056884867,21.068281775399775
-0.1649,0.9743,0.058,-0.4154,0.2034,-0.0327,-2.8963,1.1025,-13.9912,3.409224336266634,-9.495271279650494,5.43757571667033,21.069814586800977
-0.1642,0.9772,0.0552,-0.4142,0.2018,-0.029,-2.7388,1.4962,-13.9912,3.4035650409509612,-9.503702656445263,5.371445017236725,21.07120087686297
-0.1613,0.9757,0.0589,-0.4142,0.2018,-0.029,-2.5638,1.4612,-14.3325,3.4099003952912064,-9.445767291745264,5.357649494662014,21.072525585492546
-0.163,0.9764,0.0528,-0.4129,0.2024,-0.0266,-2.6163,1.4437,-14.4812,3.384110525845664,-9.454472750584332,5.221991135303183,21.074190053749266
-0.1624,0.9748,0.0569,-0.412,0.2045,-0.029,-3.0363,1.225,-14.2275,3.3733021392442435,-9.449790334582053,5.2344764686078165,21.076327354153758
-0.1667,0.9752,0.0557,-0.412,0.2045,-0.029,-3.1675,1.365,-14.1925,3.340341496542767,-9.540460368647826,5.243072190272245,21.078499338353517
-0.1668,0.9774,0.0543,-0.4194,0.203,-0.0266,-2.8525,0.98,-14.6562,3.319782981046532,-9.608061805519549,5.2122290769428625,21.080711315092724
-0.1618,0.9759,0.0597,-0.4194,0.203,-0.0266,-2.6163,1.4088,-14.665,3.334612306889209,-9.497228027808625,5.153384753277712,21.082832689264695
-0.1621,0.9771,0.0558,-0.4145,0.2021,-0.0287,-2.6163,1.5312,-14.7437,3.3291909344731705,-9.44704112282635,5.167642131732533,21.08464084753039
-0.1617,0.9762,0.0622,-0.4118,0.2031,-0.0289,-3.2813,1.5137,-14.8662,3.4448508789286447,-9.41281039861377,5.250243271184807,21.08611384708056
-0.1659,0.9761,0.0602,-0.4118,0.2031,-0.0289,-3.4213,1.05,-14.4112,3.480032744393193,-9.511461076295397,5.251634872361163,21.087445634035703
-0.1625,0.9753,0.0544,-0.411,0.2016,-0.0274,-3.08,1.0675,-14.6737,3.4017118734257314,-9.476536699402383,5.250313722643059,21.088736366702566
-0.1645,0.9753,0.0609,-0.411,0.2016,-0.0274,-2.7037,0.8487,-14.1138,3.4020374674118545,-9.504523056119998,5.241754316002515,21.09002851503454
-0.1606,0.9756,0.0561,-0.414,0.2036,-0.0307,-2.905,0.7788,-14.4725,3.383587677417995,-9.422832114466656,5.294556862437728,21.09160238072402
-0.1642,0.9776,0.0606,-0.4135,0.2029,-0.0282,-2.1963,0.9625,-14.105,3.4387783247191996,-9.455730591568399,5.292596934219793,21.09297345238605
-0.1612,0.977,0.0581,-0.4135,0.2029,-0.0282,-2.7738,1.225,-14.1925,3.4365097086593877,-9.416055037818781,5.281266760032731,21.09444114319205
-0.1621,0.9758,0.059,-0.4142,0.2024,-0.0278,-3.0013,0.8312,-14.5425,3.441887498646596,-9.415516126859162,5.261109763287141,21.09583451157961
-0.1638,0.9759,0.0575,-0.4142,0.2024,-0.0278,-2.8788,1.1287,-14.7962,3.431565352855295,-9.468659218767089,5.252926306441231,21.09716842203242
-0.1631,0.9773,0.06,-0.412,0.2033,-0.0227,-3.1412,0.8138,-14.5687,3.4563313231625674,-9.46291646435278,5.116969724282355,21.09848463667132
-0.1652,0.9761,0.057,-0.4145,0.2033,-0.0289,-2.5288,1.4088,-14.3413,3.439158486897043,-9.51845592404901,5.153468475808746,21.100010015830676
-0.1655,0.9751,0.0528,-0.4145,0.2033,-0.0289,-2.4237,1.4175,-13.9737,3.3644512524532058,-9.547638584484229,5.152010189440633,21.10138356490665
-0.1631,0.9765,0.059,-0.413,0.2044,-0.0285,-2.835,1.1462,-13.5275,3.375123402764392,-9.544696414133906,5.162543848292876,21.10271252053157
-0.1634,0.9753,0.0554,-0.413,0.2044,-0.0285,-3.0625,1.085,-14.2187,3.3424971727288413,-9.52538916044379,5.163214035767137,21.10405209364483
-0.168,0.9753,0.061,-0.4146,0.2046,-0.0276,-3.57,1.1812,-14.3762,3.4520988557309216,-9.628193822509433,5.167281712402289,21.10541714873013
-0.1641,0.9757,0.0516,-0.4148,0.202,-0.0284,-2.8438,1.155,-14.7788,3.4005179438527047,-9.576526391777659,5.156687095422339,21.106848740075744
-0.1631,0.9746,0.0558,-0.4148,0.202,-0.0284,-2.7037,0.9625,-14.6212,3.4002829274004394,-9.52960639673501,5.156723605513925,21.108122130844972
-0.1667,0.9782,0.0563,-0.4143,0.2018,-0.0282,-2.695,1.1812,-14.3587,3.399167802120388,-9.585320489968494,5.154863012038672,21.10934208025618
-0.162,0.9763,0.0542,-0.4143,0.2018,-0.0282,-3.2025,0.9363,-14.6212,3.3256031888656907,-9.493792791997329,5.14801629971355,21.110557782672046
-0.1659,0.9761,0.0532,-0.4118,0.203,-0.0302,-3.29,0.6125,-14.0963,3.2496506516414674,-9.541737698283885,5.211888047889035,21.111783394743707
-0.1624,0.9776,0.0578,-0.4123,0.2034,-0.0292,-2.7213,1.0412,-14.4812,3.2517212289940014,-9.481488523345366,5.214575435104365,21.112988479671227
-0.1623,0.9775,0.0607,-0.4123,0.2034,-0.0292,-2.8263,0.7962,-14.2187,3.284205215896514,-9.45296179780274,5.258629582998468,21.11419639592897
-0.1632,0.9768,0.0529,-0.4159,0.2026,-0.027,-3.1937,1.4088,-14.3062,3.223755206249496,-9.460865040434129,5.163328471504725,21.115417761005293
-0.1635,0.9763,0.0579,-0.4159,0.2026,-0.027,-3.0888,0.9013,-14.9537,3.270914241029321,-9.478196948618757,5.143684451053362,21.116626385095596
-0.1629,0.9762,0.0602,-0.4149,0.2039,-0.0286,-2.415,1.3387,-14.7875,3.328988802272847,-9.466043353088747,5.179147646001916,21.117835717018455
-0.1651,0.9761,0.0581,-0.4143,0.2021,-0.0266,-2.5638,1.5487,-14.2362,3.338599512976924,-9.513291437736479,5.116453064277916,21.1190436332762
-0.1656,0.9765,0.0566,-0.4143,0.2021,-0.0266,-3.1325,1.3562,-14.5425,3.332218986964542,-9.560671552870316,5.077869787402788,21.120251549533947
-0.1643,0.974,0.0567,-0.4133,0.201,-0.027,-2.5113,0.735,-13.79,3.3321232977181277,-9.560357514375664,5.061436597965393,21.121454510963797
-0.1626,0.9762,0.052,-0.4133,0.201,-0.027,-3.045,1.3212,-14.2012,3.2604159933002514,-9.514888177957367,5.025439215024494,21.12265888805876
-0.1645,0.9755,0.0612,-0.4106,0.2036,-0.0294,-2.8263,1.1725,-14.4637,3.2958966460846324,-9.53311386854095,5.071379108017079,21.123866450400225
-0.1648,0.976,0.0565,-0.4131,0.2018,-0.0275,-2.7475,1.3912,-14.595,3.2965891175125335,-9.55102549148489,5.071954030865681,21.125071889244026
-0.1613,0.9761,0.0572,-0.4131,0.2018,-0.0275,-3.36,1.3562,-14.56,3.3191907691144626,-9.459480472638537,5.077710633023303,21.126279097669215
-0.1645,0.9755,0.0553,-0.4166,0.2027,-0.0322,-3.0188,1.2512,-14.1575,3.3013915910474556,-9.495689860912055,5.162536987887895,21.127496215750195
-0.1617,0.9763,0.0578,-0.4166,0.2027,-0.0322,-2.6338,1.505,-14.1138,3.307202761086859,-9.45755327493586,5.321174689677275,21.128709440752115
-0.1663,0.9757,0.0603,-0.4158,0.2021,-0.0292,-2.7388,1.0237,-14.3937,3.3145694189955375,-9.546858556314966,5.32261419230477,21.12991381784708
-0.162,0.9791,0.0603,-0.4148,0.1991,-0.0293,-2.7825,1.1812,-13.8863,3.329540546575576,-9.505630861846182,5.327645495303614,21.131160310979155
-0.1668,0.9753,0.0605,-0.4148,0.1991,-0.0293,-2.8438,1.3475,-14.385,3.356263646187476,-9.587283684975295,5.337673616435478,21.132429454753044
-0.1632,0.9761,0.0584,-0.411,0.2028,-0.0311,-2.9575,1.0762,-13.8337,3.3698771381962445,-9.56351451857273,5.341806113040121,21.133673470471173
-0.1623,0.9768,0.0637,-0.411,0.2028,-0.0311,-2.5725,1.1375,-14.5862,3.4123144943308503,-9.488031937029149,5.37160032806097,21.134905099119564
-0.1651,0.9766,0.0589,-0.4154,0.202,-0.0304,-2.4063,1.0587,-14.0525,3.421318424330592,-9.517659758140871,5.371904362811521,21.136134250354004
-0.165,0.9763,0.0554,-0.4157,0.2022,-0.0267,-2.8263,1.0237,-14.4462,3.4026263895902127,-9.545711908485453,5.355266899685177,21.137359508509387
-0.1625,0.9769,0.058,-0.4157,0.2022,-0.0267,-2.9925,1.3912,-14.4812,3.401538533782484,-9.489391289378492,5.2636367938434825,21.138581935334543
-0.1651,0.9759,0.055,-0.414,0.1996,-0.0226,-2.625,1.435,-14.0,3.388420709090587,-9.519087137755365,5.023398812531203,21.139804716075975
-0.1594,0.9762,0.0569,-0.414,0.2036,-0.0279,-3.2113,0.84,-13.9825,3.370760635609729,-9.442230678907846,5.04517333819639,21.141028912482522
-0.165,0.9771,0.056,-0.409,0.2036,-0.0279,-3.1238,1.3125,-14.0437,3.3440483929973057,-9.483466071855917,5.069687115211238,21.1422541706379
-0.1631,0.9766,0.0535,-0.4159,0.2032,-0.0298,-2.9575,0.9625,-14.1138,3.3021136471979187,-9.477774300838364,5.087458398635891,21.143478367044448
-0.164,0.975,0.0583,-0.4159,0.2032,-0.0298,-2.7388,0.805,-14.7175,3.305962937834308,-9.506467405058872,5.150126825327402,21.144701501702162
-0.1645,0.9765,0.0617,-0.4132,0.2026,-0.0301,-2.4588,1.0675,-14.2625,3.3672194913714186,-9.52169688503452,5.152527302101986,21.146003913606204
-0.1646,0.9769,0.0566,-0.4128,0.2028,-0.0314,-2.8788,0.6563,-14.2537,3.359645892852257,-9.53256722249765,5.277817350258691,21.1472468675755
-0.1635,0.9749,0.0573,-0.4128,0.2028,-0.0314,-3.1238,0.9713,-14.4725,3.3608426907404603,-9.51913742015133,5.305283663621197,21.148457615163473
-0.1627,0.9754,0.0581,-0.4142,0.2054,-0.0283,-2.8438,1.4875,-14.4637,3.3666670822900095,-9.488057290321159,5.283051530211957,21.149665531421217
-0.1631,0.9789,0.057,-0.4142,0.2054,-0.0283,-2.8087,0.9538,-14.2887,3.36347300743421,-9.46945577598879,5.274610630835604,21.15087238593013
-0.1641,0.9772,0.0563,-0.4163,0.2022,-0.0246,-2.555,1.0412,-14.1575,3.354820756351633,-9.487217548405098,5.26246695983772,21.152078886522762
-0.1639,0.9764,0.0603,-0.4155,0.2027,-0.0273,-2.5988,1.1112,-14.3762,3.372106743733769,-9.497931089823137,5.256051184843161,21.15328220186889
-0.1638,0.9759,0.0637,-0.4155,0.2027,-0.0273,-2.3275,1.4175,-14.3325,3.4715552778734917,-9.502365111472658,5.245941034539133,21.15448127021968
-0.1617,0.976,0.055,-0.416,0.2038,-0.0274,-2.2138,1.1462,-14.1837,3.390387573437984,-9.46034108390687,5.22705125384053,21.155683523816972
-0.1657,0.9765,0.0553,-0.416,0.2038,-0.0274,-2.625,1.3037,-14.4462,3.37926280556192,-9.533055202771234,5.183878896833974,21.15688082258637
-0.1606,0.9759,0.0615,-0.4134,0.2039,-0.0292,-3.2375,1.1375,-13.93,3.457968360927944,-9.477910618605147,5.202028683435448,21.158078121355768
-0.1622,0.9767,0.0536,-0.4142,0.2021,-0.0278,-2.9225,1.1812,-14.245,3.4015023410454517,-9.452482533737776,5.183406930837561,21.15928497586468
-0.164,0.9759,0.0622,-0.4142,0.2021,-0.0278,-2.9663,1.2163,-14.7875,3.452241921017791,-9.489879191959123,5.192764265648651,21.16049997044799
-0.1624,0.9773,0.0619,-0.4126,0.2034,-0.0275,-2.73,1.2337,-14.49,3.4563358093836687,-9.45447624074669,5.1987998637882455,21.161892984919273
-0.1654,0.9741,0.0578,-0.4126,0.2034,-0.0275,-2.4675,1.2337,-13.9475,3.444687800795003,-9.500357982599132,5.187882729396082,21.163171330516395
-0.1639,0.9742,0.0603,-0.4127,0.2046,-0.0297,-2.9575,0.805,-14.1138,3.46425100156373,-9.511623656553173,5.248073806005476,21.16440614441129
-0.1656,0.9753,0.0591,-0.4135,0.2032,-0.0349,-2.2925,1.2687,-13.965,3.4652584420172907,-9.54239826273767,5.393738303495558,21.165629279069
-0.1646,0.9765,0.058,-0.4135,0.2032,-0.0349,-2.4063,1.2163,-14.2537,3.4500264936481138,-9.54606331557246,5.484107432097734,21.1668509980616
-0.1643,0.9762,0.0578,-0.4151,0.2029,-0.0277,-2.555,1.2775,-14.2187,3.4419706003002126,-9.542587107247915,5.419026235031259,21.16807519446815
-0.1624,0.9753,0.0551,-0.4151,0.2029,-0.0277,-2.8087,1.505,-14.0437,3.42248801847533,-9.50902274928689,5.305736643035233,21.169329473758346
-0.1648,0.9772,0.0594,-0.4134,0.2033,-0.0341,-2.4763,1.1375,-14.0175,3.4329353791021373,-9.523439002214229,5.35499098249383,21.17054659183933
-0.1595,0.9787,0.0561,-0.4122,0.2028,-0.0296,-2.52,1.225,-14.1662,3.409096616408104,-9.417453185889329,5.354966113101412,21.171761940338918
-0.1651,0.9787,0.0624,-0.4122,0.2028,-0.0296,-2.4675,1.0412,-14.2187,3.4550657474220494,-9.472325035001436,5.358098789609641,21.172975873173396
-0.1639,0.9761,0.0572,-0.4139,0.2013,-0.0294,-2.5725,1.4612,-14.91,3.4431618690197037,-9.497246247611296,5.348942795839256,21.17419440691949
-0.1654,0.9759,0.0601,-0.4139,0.2013,-0.0294,-2.765,1.0937,-14.35,3.447697658219904,-9.54310395541092,5.35054411327746,21.175412232833025
-0.1632,0.9758,0.0571,-0.415,0.2032,-0.0208,-2.7562,0.875,-14.455,3.4429399215561776,-9.512803135507019,5.172500501859122,21.176654832886044
-0.1634,0.9769,0.0575,-0.4154,0.2044,-0.0278,-2.5375,0.9975,-14.3675,3.4322305232670094,-9.497971446372738,5.169836857733407,21.17790805042741
-0.1631,0.975,0.0564,-0.4154,0.2044,-0.0278,-2.555,0.9713,-14.2537,3.416316838869403,-9.491073555902396,5.164213596208091,21.1791396790758
-0.163,0.9756,0.0573,-0.4118,0.2024,-0.0281,-3.2987,1.2775,-14.5775,3.3958332584162574,-9.480044112654797,5.169472863890998,21.180365998980015
-0.1665,0.9762,0.0565,-0.4118,0.2024,-0.0281,-3.5438,1.26,-14.2625,3.357806990340007,-9.555379527708375,5.168982307937721,21.18159656587957
-0.161,0.9761,0.06,-0.414,0.2029,-0.0285,-3.1412,1.0325,-14.7262,3.406260326414929,-9.444379708375866,5.172573845874624,21.182882697634813
-0.1637,0.9763,0.053,-0.4141,0.202,-0.027,-2.73,1.1375,-14.595,3.399141596462226,-9.475003208820182,5.153872464504471,21.184132022097117
-0.1642,0.9764,0.0526,-0.4141,0.202,-0.027,-2.3712,1.33,-14.2975,3.3200716008977005,-9.499309247634182,5.099401233482045,21.185366835992014
-0.1642,0.9772,0.0582,-0.4147,0.2024,-0.0278,-3.0538,1.365,-14.4287,3.3428817530002157,-9.509737847480526,5.109254383860338,21.186589616733446
-0.1627,0.977,0.0572,-0.4147,0.2024,-0.0278,-2.6425,1.3125,-14.4987,3.343342659943259,-9.475497747122139,5.110975243717527,21.18786690058173
-0.164,0.9753,0.052,-0.4121,0.2031,-0.0258,-3.4825,1.05,-14.4725,3.215937624923529,-9.502334589467607,5.106940224760411,21.189107023220803
-0.1638,0.976,0.0573,-0.413,0.2042,-0.0287,-2.9575,0.8225,-14.6037,3.2449089781783624,-9.50673354875205,5.137544778564736,21.190331573543627
-0.1653,0.9775,0.0564,-0.413,0.2042,-0.0287,-3.1675,1.225,-14.49,3.2630113242216443,-9.543173243371998,5.151574280369916,21.191547983792052
-0.1641,0.9756,0.0589,-0.4134,0.2023,-0.027,-3.2725,1.2075,-14.315,3.3324468183209754,-9.537945157697214,5.14165749577124,21.192813588403155
-0.1663,0.9754,0.0571,-0.4134,0.2023,-0.027,-3.0013,1.0762,-14.805,3.33651575402464,-9.605153979047172,5.139935055560883,21.194041323972485
-0.1643,0.9758,0.0589,-0.4138,0.2037,-0.0263,-3.0013,1.1987,-14.4112,3.363378441608189,-9.575497410397574,5.121458686666063,21.19525914988602
-0.1602,0.9753,0.056,-0.4169,0.2002,-0.0282,-2.6775,1.2775,-14.21,3.3612690944627914,-9.472483934358412,5.1187766302565025,21.19648511587396
-0.1637,0.9755,0.0581,-0.4169,0.2002,-0.0282,-2.6338,0.9187,-14.7175,3.364430873495255,-9.492350329479773,5.123385015205706,21.197722053266524
-0.1647,0.9757,0.0546,-0.4161,0.2026,-0.0277,-2.8875,0.7613,-14.4287,3.3395742319057944,-9.526779875825122,5.09963415858105,21.198943064426565
-0.1634,0.9777,0.059,-0.4161,0.2026,-0.0277,-2.555,1.1375,-14.2712,3.3544686558827292,-9.503710310425308,5.102182202752143,21.200179293986572
-0.1623,0.9751,0.0579,-0.4125,0.2045,-0.0325,-2.345,1.19,-14.0,3.3660453308497122,-9.482448670969797,5.179675966014505,21.201413046132632
-0.1631,0.9759,0.0581,-0.4158,0.2042,-0.0282,-3.0625,1.225,-14.3675,3.3768359487372632,-9.477599515507947,5.181329215552211,21.202644674781023
-0.1634,0.9768,0.0551,-0.4158,0.2042,-0.0282,-3.01,0.8487,-14.21,3.342233542429304,-9.47923252846619,5.168846907026459,21.203886567001483
-0.1635,0.9779,0.0641,-0.4142,0.2041,-0.0279,-2.8175,1.2425,-14.3325,3.383298882230248,-9.476011163836539,5.193062043842853,21.20512315047777
-0.1643,0.9748,0.0554,-0.4142,0.2041,-0.0279,-2.485,1.2512,-14.455,3.3597033397582696,-9.511806285255217,5.177964700402572,21.206350886047098
-0.167,0.9776,0.0548,-0.4138,0.2012,-0.0255,-2.6338,0.77,-14.3937,3.349566601145215,-9.587664690711847,5.0825338547543035,21.207568711960636
-0.1625,0.975,0.0579,-0.4139,0.2038,-0.0274,-2.625,0.455,-14.105,3.353216369631342,-9.537958698983212,5.090992088384781,21.208812373762488
-0.1641,0.9753,0.0617,-0.4139,0.2038,-0.0274,-2.5725,1.05,-14.3062,3.384538031470287,-9.535502678805386,5.092263151275198,21.210043294578323
-0.1612,0.9765,0.0572,-0.4119,0.2034,-0.0294,-2.9313,1.2075,-14.3937,3.3786125545876446,-9.45506783319081,5.127053072556302,21.21128554071506
-0.1665,0.9765,0.055,-0.4119,0.2034,-0.0294,-2.7037,0.6737,-14.14,3.3783181593602634,-9.53037472194423,5.174900629487866,21.212519646777398
-0.1613,0.9767,0.0602,-0.4162,0.2048,-0.0165,-2.905,1.0237,-14.1575,3.4030406834255826,-9.467028099986777,5.122992531304441,21.21375056759323
-0.1646,0.9763,0.0548,-0.4144,0.2037,-0.0273,-3.0013,1.2687,-14.3413,3.359592566697382,-9.505514894272018,5.101638458405176,21.214985735404404
-0.1664,0.9764,0.0557,-0.4144,0.2037,-0.0273,-2.8263,0.7788,-14.77,3.3494023057786633,-9.587841252877128,5.08360017510315,21.216209577894674
-0.1636,0.9778,0.0587,-0.4146,0.2032,-0.0278,-2.9225,1.085,-14.1662,3.3647478808076636,-9.547958913367621,5.085375721729957,21.217452531863966
-0.1631,0.9759,0.054,-0.4146,0.2032,-0.0278,-2.485,1.54,-14.2625,3.329035049662333,-9.517475147629714,5.070501539730663,21.2186915927542
-0.0442,0.9831,0.1121,-0.1394,0.1508,-0.0353,1.3825,6.8162,-15.6538,5.880944360703382,-4.810639686607092,17.523644982461335,21.221299601808795
-0.0395,0.9965,0.1115,-0.1418,0.1506,-0.0357,1.0937,6.2913,-16.0825,6.2794685052484285,-2.982094237427846,19.188275075722462,21.222508225899098
-0.0423,1.0002,0.1124,-0.1418,0.1506,-0.0357,1.4262,6.055,-16.38,6.386059355484808,-2.5573996032414237,19.43625347459234,21.223817716128707
-0.0539,1.0039,0.1042,-0.1385,0.1521,-0.0422,0.8225,5.7312,-17.0362,6.0274506329250395,-2.945197817973712,21.16729301346497,21.22505783876778
-0.0573,1.0073,0.1054,-0.141,0.1521,-0.0353,0.3938,5.1013,-18.1562,5.986640022170708,-3.185722980791977,19.31804041702653,21.22626469327669
-0.0666,1.0133,0.0949,-0.141,0.1521,-0.0353,-0.7088,4.3575,-19.005,5.562702881509844,-3.657373962630232,18.430921568775798,21.227478272194887
-0.0752,1.0192,0.0935,-0.1374,0.1518,-0.037,-1.3562,3.5525,-20.1075,5.37825363962848,-4.130010005548972,18.787708286014944,21.228681233624737
-0.0836,1.0243,0.0925,-0.1374,0.1518,-0.037,-2.0388,3.185,-21.7175,5.290994016139934,-4.590626913368418,18.75006400522714,21.229886318552257
-0.0891,1.0274,0.0922,-0.1387,0.1534,-0.0376,-1.8637,2.8087,-23.0475,5.216514618273208,-4.903745071008899,18.725791429040445,21.231093526977446
-0.0993,1.0351,0.0864,-0.1362,0.1521,-0.0372,-2.2313,2.17,-24.4562,5.0733244737610725,-5.414045124627615,18.540076953367972,21.232298965821244
-0.1068,1.0449,0.089,-0.1362,0.1521,-0.0372,-3.0275,1.9775,-25.0862,5.023435949246309,-5.783040356864037,18.45642899133424,21.233506174246433
-0.1296,1.0546,0.1016,-0.1338,0.1519,-0.0366,-3.64,1.96,-25.9962,5.255029700442216,-6.885325396872323,18.567576076660785,21.234719399248352
-0.1463,1.0541,0.0972,-0.1338,0.1519,-0.0366,-4.41,1.2512,-26.3113,5.263470833384939,-7.797183180297321,18.517531342912495,21.23592943900377
-0.1674,1.0517,0.0976,-0.1313,0.1565,-0.029,-5.1975,0.2538,-26.7488,5.29095507519094,-8.920676788773598,17.281341137622064,21.237137709177794
-0.1766,1.0451,0.1091,-0.1291,0.1554,-0.036,-7.1575,-0.8663,-25.8563,5.8369804508286816,-9.493683004576615,18.30104920404849,21.238360489919227
-0.19,1.04,0.1188,-0.1291,0.1554,-0.036,-8.2512,-4.2,-24.7537,6.41285128872538,-10.222704070633549,19.00655737496371,21.239649453004695
-0.1902,1.0264,0.118,-0.1279,0.157,-0.0362,-8.435,-6.7288,-23.31,6.536612019564314,-10.41169581946503,19.330821933211432,21.24093381517855
-0.184,1.0211,0.1239,-0.1279,0.157,-0.0362,-9.0387,-9.66,-21.8838,6.866364541955128,-10.17104951325508,19.734549377064592,21.24219163363153
-0.1806,1.0134,0.1232,-0.1263,0.1554,-0.0342,-9.5987,-11.6812,-19.8275,6.92323721936843,-10.05145802240581,19.328969707595856,21.24345051383335
-0.1818,1.0081,0.1231,-0.1245,0.1568,-0.0311,-8.8462,-13.5887,-18.3575,6.956547703926546,-10.13216032649568,18.526125719918962,21.244697714797983
-0.1727,1.0095,0.1167,-0.1245,0.1568,-0.0311,-9.1525,-15.6712,-17.7275,6.642878032043043,-9.73925448948399,18.27181492325886,21.24597252123232
-0.1613,1.0064,0.1196,-0.1266,0.1566,-0.0254,-10.325,-17.6225,-16.695,6.761627355523565,-9.211587967469391,16.444861452034946,21.24725405207595
-0.1565,0.9988,0.1135,-0.1214,0.1554,-0.0268,-11.9787,-19.1975,-15.19,6.510188562905883,-8.987177525837932,17.106686439199155,21.248550093486987
-0.1475,0.9912,0.1155,-0.1214,0.1554,-0.0268,-11.83,-22.12,-11.2525,6.632983132577206,-8.582852053380103,17.401871837502657,21.249827377335272
-0.1327,0.9725,0.1147,-0.1248,0.1546,-0.0238,-13.8075,-23.7038,-8.82,6.718851493954952,-7.867990427551638,16.223399511838558,21.261691358815543
-0.1149,0.9656,0.1164,-0.1248,0.1546,-0.0238,-14.9975,-25.6025,-5.7488,6.862010009130755,-6.8658110406811,16.55603793883329,21.27399030340181
-0.1008,0.96,0.1168,-0.1239,0.1532,-0.0185,-15.5575,-27.16,-4.4363,6.931486245529089,-6.0408996113886095,14.9360014710448,21.28638622104832
-0.0845,0.9578,0.1253,-0.1254,0.1507,-0.015,-16.3187,-28.98,-3.6837,7.417446530341641,-5.0950939062982,14.056739101632699,21.29855315486279
-0.072,0.9469,0.1316,-0.1254,0.1507,-0.015,-16.7125,-30.3537,-2.73,7.879301137621619,-4.373617260960147,14.640717264551466,21.311562409419555
-0.0715,0.9385,0.1404,-0.1262,0.1484,-0.0106,-16.905,-32.3838,-2.6075,8.466986155187342,-4.314329830954897,13.382358214252468,21.323884004647628
-0.0814,0.9272,0.132,-0.1262,0.1493,-0.0069,-16.905,-34.7375,-3.5525,8.12640234405273,-4.908068387470377,11.438171998842714,21.336060140285333
-0.0813,0.9319,0.1407,-0.1276,0.1493,-0.0069,-16.9312,-37.73,-3.8763,8.555605292212338,-4.92824385716337,11.760704404091943,21.34848649473178
-0.0838,0.9259,0.1434,-0.1292,0.1473,-0.0004,-17.6312,-44.695,-2.3625,8.78822819322937,-5.095973641939716,9.25390021399063,21.360654490295087
-0.0763,0.9213,0.1455,-0.1292,0.1473,-0.0004,-18.095,-48.9125,-2.5813,8.963174740454221,-4.711600200230166,9.433111696515125,21.372692952500543
-0.075,0.9254,0.1402,-0.1313,0.1457,0.0081,-18.4188,-53.5763,-2.555,8.635751983261738,-4.5922549593121635,5.608463074193728,21.384912973756755
-0.0787,0.9435,0.1491,-0.1315,0.1444,0.011,-19.25,-58.1087,-2.5813,8.960482790962304,-4.700159517779235,4.685817171259843,21.39712804018507
-0.0943,0.9816,0.1555,-0.1315,0.1444,0.011,-19.74,-63.6125,-3.4213,8.999413337411049,-5.355629815985098,4.639660645307166,21.409429816101564
-0.2017,0.9956,0.1602,-0.1336,0.1442,0.0199,-21.1662,-70.805,-5.5825,9.133720114612666,-10.647932697373657,1.2185011615338126,21.421678150660036
-0.268,1.0116,0.1558,-0.1336,0.1442,0.0199,-23.0125,-80.3338,-8.085,8.77327530296508,-14.051722918717914,0.7922503965801015,21.433978510911416
-0.3091,1.018,0.1556,-0.1323,0.1426,0.031,-25.27,-93.59,-10.6312,8.693846768555668,-16.031981857315586,3.0485238919962723,21.446141551646825
-0.328,1.0109,0.1366,-0.1334,0.1438,0.0434,-28.4813,-109.6638,-12.88,7.732882219840108,-16.760520758689662,7.801884417853566,21.458523312642207
-0.2855,0.9907,0.1049,-0.1334,0.1438,0.0434,-35.6037,-143.1763,-17.2375,6.094042376797903,-16.15578734530553,9.407774996909827,21.47076987761929
-0.2553,0.9936,0.1035,-0.133,0.1426,0.0612,-39.9,-157.9462,-18.69,5.950716481131358,-14.632890823206136,15.521381775815396,21.48312367922869
-0.227,1.0002,0.0882,-0.1355,0.1416,0.0749,-42.7875,-171.7012,-19.7925,5.061623688946049,-13.001128531553402,20.64898349009645,21.49543394913586
-0.2078,1.0051,0.0717,-0.1355,0.1416,0.0749,-46.5587,-183.6013,-20.3175,4.102227784045748,-11.826256773594796,21.707462376057485,21.507729354559345
-0.1923,0.9759,0.0418,-0.1386,0.1447,0.0985,-49.91,-194.9588,-20.8862,2.4868298019100212,-11.220092210512165,29.202523720541812,21.52007713959201
-0.1864,0.9558,0.034,-0.1386,0.1447,0.0985,-51.8263,-205.5637,-22.3125,2.0462526466076385,-11.04815643500656,29.576202022694993,21.532371129350384
-0.195,0.9559,0.0085,-0.1421,0.1454,0.1192,-53.6025,-217.4987,-23.4675,0.5390811158894754,-11.485333352297411,34.95577966865196,21.544675736597103
-0.2061,0.9403,-0.0295,-0.1524,0.1489,0.1458,-56.3237,-241.15,-23.5987,-1.7541788829738203,-12.278000580420056,39.90045485670019,21.557069530745945
-0.182,0.9502,-0.0525,-0.1524,0.1489,0.1458,-57.995,-253.505,-21.5513,-3.1374451618901595,-10.988377055404824,41.12613211443603,21.569391833806577
-0.152,0.9446,-0.0832,-0.1661,0.1495,0.1729,-59.6575,-265.825,-19.5125,-5.000880380758821,-9.37753099313164,45.01239913247084,21.5817778417973
-0.0802,0.9553,-0.1024,-0.1793,0.1525,0.1981,-62.2562,-275.9225,-18.7162,-6.099802987352202,-5.520396598177823,48.35406936373888,21.594066876727776
0.0342,0.9321,-0.1144,-0.1793,0.1525,0.1981,-65.2225,-282.73,-17.4037,-6.982996912631766,0.5138903382808806,50.94530566371124,21.60642386358368
0.0492,0.9229,-0.1148,-0.1988,0.1554,0.2238,-66.7188,-284.4013,-16.4325,-7.0889741623796105,2.3782079393677438,51.509728679754,21.61873413349085
0.04,0.8999,-0.1196,-0.1988,0.1554,0.2533,-68.5563,-284.48,-15.4437,-7.563251023425997,2.472664947842344,54.54679004186345,21.631092536011867
0.0652,0.8788,-0.1354,-0.2246,0.1585,0.2533,-67.48,-284.48,-15.54,-8.740721854755398,3.6153570295577944,51.89093803490806,21.643614093937167
0.2326,0.9145,-0.1576,-0.2539,0.1633,0.2719,-66.71,-284.48,-17.8762,-9.762043973929922,12.102865571131085,53.545874635734734,21.655729709891286
0.2803,0.9376,-0.1701,-0.2539,0.1633,0.2719,-67.13,-284.48,-18.935,-10.274837194804682,15.718216295085764,54.4568195287609,21.671144179475192
0.4882,0.9568,-0.1555,-0.2854,0.1677,0.2892,-68.0225,-284.48,-20.7987,-9.24679242126604,25.393898190056046,57.189197698199564,21.683515676898505
0.5156,0.9911,-0.1395,-0.3155,0.1734,0.3082,-72.0475,-284.4713,-21.4112,-8.029458988393513,27.044942424526667,56.08132080969064,21.695781707270893
0.6243,0.9626,-0.0856,-0.3155,0.1734,0.3082,-75.3988,-282.0913,-20.4487,-5.1217079163665264,32.12482121414955,59.9868258650766,21.708167361345335
0.6303,0.9302,-0.0579,-0.3444,0.1791,0.3233,-78.785,-270.725,-21.6125,-3.5820003915660927,33.85500749005845,59.53057261922818,21.720438700461898
0.6405,0.9037,-0.0286,-0.3707,0.187,0.335,-80.465,-256.1213,-23.0562,-1.835137917033043,35.17465652098743,59.51764578358769,21.73278506982945
0.6423,0.9026,0.0015,-0.3707,0.187,0.335,-80.4125,-228.5937,-24.4913,0.07069192638596394,35.41411688444982,59.990741965666565,21.74506738035064
0.6589,0.8896,0.0456,-0.3966,0.1946,0.3442,-78.6713,-215.2762,-26.7663,2.8971487414907737,36.414511790189614,59.989071940769335,21.75731005224866
0.6798,0.8832,0.0685,-0.3966,0.1946,0.3442,-77.6825,-202.2738,-28.805,4.414677995196958,37.43551220818633,61.20389958910949,21.76959023927218
0.6918,0.8891,0.0969,-0.423,0.2045,0.3518,-77.385,-188.5012,-31.1063,6.19606984370179,37.70683743620165,60.29969308282595,21.7818948465189
0.7254,0.8773,0.1278,-0.4388,0.2087,0.3577,-76.1775,-173.3287,-31.5525,8.26012539558682,39.20726945874405,61.44951475847594,21.794192021523774
0.656,0.8122,0.1883,-0.4388,0.2087,0.3577,-76.9563,-158.2962,-32.6637,12.989131954174626,38.24647475771505,60.692265322117706,21.806421952435777
0.6093,0.7785,0.2088,-0.4568,0.2158,0.3639,-75.9413,-143.6662,-33.2062,14.986565262757292,37.143314004671105,58.41275263409768,21.818719835273207
0.5816,0.7441,0.2347,-0.4568,0.2158,0.3844,-73.1413,-131.6613,-34.8862,17.470765951803585,36.72119869413629,59.993244600807756,21.830981972566533
0.5544,0.7274,0.2506,-0.471,0.2234,0.3702,-64.7238,-112.5688,-36.6975,18.98516443388571,35.815709008362944,55.8744367911029,21.84328870331092
0.5183,0.7132,0.2693,-0.4825,0.2305,0.373,-59.675,-104.685,-36.435,20.656888441644647,34.2779226064551,52.7442841524981,21.85552783604616
0.4991,0.7129,0.2706,-0.4825,0.2305,0.373,-53.165,-97.51,-36.0587,20.783078072002365,33.251666684426425,51.39814121331496,21.867733700651243
0.4729,0.7097,0.2768,-0.4936,0.2356,0.3768,-47.0925,-91.4113,-34.72,21.2954319595148,31.89575956895369,48.94758186616314,21.87687854336554
0.4388,0.7234,0.2735,-0.5031,0.2386,0.3744,-41.2562,-86.4413,-32.7337,20.72518200569656,29.685151724019192,45.44473791888868,21.88914351198909
0.4136,0.73,0.2672,-0.5031,0.2386,0.3744,-36.1987,-82.5738,-32.1212,20.122018671363676,28.10077059155517,44.087775412317626,21.901403525784747
0.3775,0.7735,0.2521,-0.5109,0.2407,0.3758,-31.3425,-80.1938,-31.115,18.121733854828214,25.065123824435247,41.65962956370326,21.913584970166628
0.39,0.7935,0.241,-0.5109,0.2407,0.3758,-26.3463,-78.1463,-30.0912,16.94427131228858,25.179788302864143,42.33317833532491,21.925789419106597
0.4054,0.8083,0.2219,-0.519,0.2403,0.3777,-22.1025,-76.2213,-29.1812,15.42915263158457,25.772860603967658,42.953947827461846,21.9375355464662
0.415,0.8331,0.2127,-0.5274,0.2441,0.3731,-19.0925,-70.4725,-27.51,14.385967569324462,25.76515999874064,42.21409247563591,21.949811840410657
0.4179,0.8536,0.1849,-0.5274,0.2441,0.3731,-17.4125,-66.43,-26.7663,12.35989420528072,25.583781151879343,42.732254337940674,21.962054866224957
0.423,0.8545,0.1728,-0.5366,0.2457,0.3718,-16.5287,-62.2913,-27.4137,11.494950782539274,25.862735747745237,42.42841903763657,21.974328328839185
0.4302,0.846,0.1549,-0.5366,0.2457,0.3718,-16.38,-58.4588,-28.7437,10.452021397711809,26.53004290765571,43.22758899299485,21.98662019509989
0.4393,0.8586,0.153,-0.5407,0.2459,0.3716,-16.4937,-53.8213,-30.9837,10.127425447769099,26.72381460835389,43.11676003582272,21.99934383922008
0.4143,0.8592,0.1507,-0.5458,0.2462,0.3713,-16.2138,-48.8162,-32.1738,9.960593627822103,25.472287305879927,41.82559937874115,22.011600667769233
0.3619,0.8256,0.1418,-0.5458,0.2462,0.3713,-16.4062,-44.6688,-34.8775,9.760303145917765,23.459830435558732,40.51265952563655,22.02354357257956
0.3487,0.8192,0.1405,-0.5471,0.2467,0.3694,-16.2838,-41.4837,-38.5438,9.733981903062856,22.786634286066324,39.8632332095505,22.035780935733406
0.3461,0.8447,0.1421,-0.5497,0.2456,0.3671,-14.8225,-39.5763,-42.0438,9.563283233020904,22.027998083289546,39.063204876094055,22.048082003817342
0.3437,0.873,0.1413,-0.5497,0.2456,0.3671,-13.8425,-38.0363,-43.2075,9.224348468706706,21.263996409658954,38.71274398252576,22.060319720887467
0.3737,0.965,0.1355,-0.5512,0.2465,0.369,-12.3462,-35.7788,-41.3525,8.108633031204926,20.991226921604103,38.99555824857276,22.072566993697105
0.3787,1.0241,0.1315,-0.5512,0.2465,0.369,-10.6575,-35.6388,-38.5962,7.405476356592739,20.174492152837264,38.74258559950819,22.085082181129398
0.356,1.0399,0.1269,-0.5535,0.2485,0.3658,-8.4612,-36.3825,-36.6362,7.023777406009258,18.827171965741176,37.75304662550383,22.097081712544245
0.3093,0.9714,0.1132,-0.5565,0.2452,0.363,-7.2625,-36.7325,-36.2425,6.714688886821282,17.60432651144412,36.79730681605682,22.10664559213202
0.2534,0.8966,0.1085,-0.5565,0.2452,0.363,-7.8138,-38.3075,-37.135,6.869634403980933,15.75147127589841,35.85675224508545,22.118744574021058
0.1472,0.7249,0.0911,-0.5564,0.2439,0.3641,-9.345,-38.8675,-36.9425,7.1245567775205405,11.570175374327087,34.141938582021176,22.130904429509965
0.1434,0.7073,0.0862,-0.5564,0.2439,0.3641,-10.5787,-39.6725,-38.6662,6.968323681233902,11.3863120827836,34.16667859089049,22.14314427007776
0.1439,0.7304,0.0935,-0.5578,0.2446,0.3628,-10.9637,-38.8325,-37.7912,7.259603463692315,11.07046319309174,33.76097764148927,22.15534447202239
0.1418,0.7587,0.0984,-0.5623,0.2455,0.3603,-11.8737,-37.1875,-35.63,7.37695648483685,10.525116569950063,33.09650621888742,22.16755422970653
0.1454,0.8039,0.0892,-0.5623,0.2455,0.3603,-10.8587,-35.8925,-33.845,6.44579619057261,10.206636534304053,33.33096132951783,22.179779559706915
0.1624,0.8444,0.0886,-0.5643,0.2466,0.3599,-3.1675,-36.365,-29.6975,6.301762748361007,10.792208234284734,33.53561992210735,22.191866862358776
0.1914,0.9174,0.0734,-0.5643,0.2466,0.3599,2.1175,-38.8063,-28.7612,4.87105419097295,11.689226691264002,34.3073892722213,22.204046891075542
0.235,0.995,0.0659,-0.5666,0.245,0.3616,7.4988,-41.0288,-25.9263,3.8857849303825125,13.143026305570716,35.10345541383,22.216117559662322
0.276,1.0634,0.0537,-0.5701,0.2402,0.353,9.4675,-41.195,-23.7825,2.9664143430693097,14.408232757316851,34.948083409630684,22.22819530657467
0.3167,1.1261,0.0409,-0.5701,0.2402,0.353,7.5687,-38.6662,-21.6387,2.158687087354358,15.555917571004162,35.59176281147623,22.23760133950233
0.355,1.1449,0.0325,-0.574,0.2391,0.3505,4.6813,-34.825,-20.1163,1.6895183878089934,17.000169328977194,35.89512819392383,22.249746684423826
0.3325,1.0967,0.0295,-0.574,0.2391,0.3505,1.05,-29.82,-19.6612,1.5720885557496094,16.880285039211667,35.78216811624148,22.261855929884938
0.301,1.0435,0.0278,-0.5791,0.2394,0.3442,-2.3275,-25.4538,-21.5163,1.5594605418776601,16.17376801669708,34.74565518862648,22.273951372611197
0.2719,1.0163,0.0341,-0.5814,0.237,0.3482,-4.235,-22.3038,-22.785,1.778505810636918,15.087807758495364,34.37165221399888,22.286159714630227
0.2633,1.0163,0.0387,-0.5814,0.237,0.3482,-3.3775,-20.9125,-25.6637,1.940150312235593,14.558356765604266,34.133647220072405,22.298301166472662
0.2715,1.0341,0.0422,-0.5812,0.2386,0.3462,-3.64,-19.8712,-29.6975,2.1317753116497333,14.69091053684676,34.021797595155036,22.310506677161463
0.2615,1.0375,0.0407,-0.5812,0.2386,0.3462,-5.5913,-18.5675,-33.0488,2.216974671858856,14.163282969450439,33.84693290461418,22.32262901752487
0.2469,1.0207,0.0481,-0.5783,0.2378,0.3491,-8.4612,-16.8962,-40.32,2.62683029224553,13.604599252069276,33.88753252676709,22.334789580846333
0.2257,1.0029,0.0503,-0.5788,0.237,0.3479,-16.1087,-12.1887,-38.8937,2.8542691152265753,12.703148174326826,33.432718352528084,22.347112237823247
0.1992,0.9193,0.0716,-0.5788,0.237,0.3479,-19.2938,-10.1412,-38.92,4.362584031829519,12.209859599206013,32.82831637439272,22.35663683270413
0.1544,0.8656,0.0739,-0.5762,0.2392,0.348,-21.875,-9.45,-38.5788,4.85411325848645,10.159728238745274,32.15814498010589,22.368671047914248
0.1369,0.8255,0.0916,-0.5762,0.2392,0.348,-22.8113,-9.94,-38.64,6.261797727804951,9.390428611921722,31.45411643631069,22.380797989189272
0.1232,0.799,0.0938,-0.5736,0.239,0.355,-22.1725,-10.9112,-39.375,6.674490592234291,8.732195721823995,31.724353913492177,22.393078884045348
0.1036,0.7826,0.0924,-0.5736,0.241,0.3523,-21.3412,-12.6175,-38.2025,6.730611819211783,7.537972737997647,31.187602094258807,22.405273423329525
0.0855,0.7946,0.098,-0.5736,0.241,0.3523,-20.4487,-13.8162,-35.9975,7.014903295128325,6.157189702435335,30.67909701236242,22.4178979708918
0.0991,0.8189,0.1053,-0.5737,0.241,0.3528,-19.0575,-16.03,-32.7513,7.309288479989606,6.810301403201162,30.778663797683322,22.429649760911857
0.125,0.8291,0.1021,-0.5737,0.241,0.3528,-18.2175,-17.9375,-28.805,7.037873927134058,8.405663486264228,31.359066143510944,22.442121770558202
0.152,0.8377,0.1104,-0.5709,0.2414,0.3557,-17.8325,-18.1475,-25.83,7.478577688423969,10.062954839420588,32.092773183173186,22.45412342547072
0.1795,0.8539,0.1127,-0.5746,0.2423,0.3536,-16.6688,-17.7975,-24.5088,7.515919932043041,11.629102848820482,32.30488321171787,22.4663455702246
0.2,0.9135,0.1135,-0.5746,0.2423,0.3536,-15.4787,-16.8262,-23.6775,7.114019619630116,12.201411017564086,32.622829111965984,22.478556743573854
0.2297,0.9991,0.1219,-0.5764,0.2438,0.3523,-15.5662,-16.2138,-22.4088,6.967646677861724,12.789116593235907,32.70156246690741,22.49076366992777
0.2435,1.114,0.138,-0.5747,0.2446,0.356,-15.1025,-15.8638,-19.635,7.0546851332755836,12.316962443367405,32.826634124438314,22.50318436171376
0.2713,1.1228,0.1392,-0.5747,0.2446,0.356,-15.2337,-14.6737,-19.705,7.066300951280606,13.320972026684885,33.27100307014604,22.515227424830837
0.3224,1.212,0.1417,-0.5762,0.246,0.3555,-16.0037,-13.0375,-22.8812,6.696244133113028,14.656424475461236,33.798133847380264,22.527396836059257
0.296,1.1107,0.1331,-0.5762,0.246,0.3555,-17.6662,-11.48,-22.3825,6.824821851570381,14.804330244446827,33.79049623568127,22.53964870978051
0.2843,1.0699,0.1451,-0.5758,0.2461,0.3551,-19.11,-9.5725,-27.2213,7.671714987313733,14.755564987389036,33.47956332718079,22.551731411520755
0.2429,0.9997,0.1584,-0.5774,0.2477,0.3566,-21.4288,-7.6388,-27.9475,8.936001378251593,13.57657537241923,32.63220365864038,22.561196902383166
0.2128,0.9515,0.1761,-0.5774,0.2477,0.3566,-22.9512,-4.34,-27.3875,10.41250945519672,12.48182061541162,31.718681353938532,22.572846056682522
0.1964,0.9345,0.1904,-0.575,0.2472,0.3594,-23.0475,0.1925,-26.3113,11.46440949985633,11.698014472929737,31.48109311545996,22.58510217739912
0.1962,0.9373,0.1896,-0.575,0.2472,0.3594,-22.6362,1.7062,-25.515,11.437034318591778,11.602424682991943,31.38049100368299,22.59712188204183
0.1961,0.9277,0.1833,-0.5722,0.251,0.3622,-22.0937,2.7388,-24.29,11.189608719704177,11.705937807821327,31.597758680951856,22.609360660860787
0.19,0.9124,0.1959,-0.5723,0.2527,0.3618,-21.9888,3.2725,-24.3775,12.072146121494251,11.524965995675199,31.329140008973134,22.62158528302862
0.1783,0.8781,0.1874,-0.5723,0.2527,0.3618,-21.2012,3.745,-24.0625,12.048354864551301,11.257194213340629,31.185423821032394,22.63375009334542
0.1599,0.7958,0.1849,-0.5687,0.2516,0.365,-19.6175,3.5263,-21.7175,13.022684687788141,11.093795422850372,31.11745650394428,22.645907825336653
0.1659,0.769,0.1845,-0.5687,0.2516,0.365,-17.955,3.8763,-18.2525,13.462654634750084,11.715224040634928,31.188403571357533,22.6547797986004
0.1886,0.7517,0.1911,-0.5674,0.255,0.3645,-15.0762,4.165,-13.79,14.203866952862963,12.074252747612622,31.515001525067632,22.666969029140404
0.2211,0.763,0.1948,-0.5702,0.2556,0.3696,-11.375,3.85,-9.5462,14.309890379494632,14.964056134752688,32.471728844276036,22.679129592461866
0.2569,0.7866,0.1862,-0.5702,0.2556,0.3696,-8.2862,4.9875,-6.93,13.468419161182362,17.28160312257189,33.86332182134523,22.691283431374043
0.2908,0.8117,0.1874,-0.5686,0.257,0.369,-4.83,6.615,-6.3525,13.1501185546174,19.004124780733918,35.03793471593755,22.7033625939515
0.3419,0.8773,0.194,-0.5686,0.257,0.369,-2.9138,8.6187,-6.825,13.032804260411723,20.596789954126255,36.21650236943694,22.7121506890573
0.367,0.8942,0.1893,-0.5711,0.2574,0.3661,-1.155,11.0513,-8.925,12.376294440244472,21.649703580087007,36.72321342460647,22.724302050555526
0.38,0.9019,0.1964,-0.5711,0.2574,0.3661,-0.2625,14.6737,-10.395,12.311572231841875,22.201972649987542,36.938129514219,22.736466860872326
0.392,0.9074,0.2076,-0.5688,0.2557,0.3662,-0.0438,19.145,-10.3337,12.729609354967671,22.68695627648471,37.14622371800375,22.74865184441699
0.3986,0.9129,0.2109,-0.5659,0.2582,0.371,-0.1575,30.7912,-6.2562,12.929802002484916,23.002901016129236,37.883983415416516,22.76083965929188
0.4142,0.9126,0.209,-0.5659,0.2582,0.371,0.1925,37.2313,-5.1538,12.907055302201258,23.773649598381052,38.483363995002435,22.773106043580544
0.426,0.9148,0.2111,-0.5595,0.2578,0.3749,-0.14,44.8263,-5.3025,12.96973038751008,24.33792223108798,39.62156162705478,22.782414749531682
0.4256,0.9096,0.2069,-0.5595,0.2578,0.3749,0.5513,52.7537,-5.6525,12.851050759641636,24.503614734447048,39.79414831041728,22.79435836217456
0.4136,0.8943,0.2036,-0.5547,0.2585,0.3808,1.435,60.0513,-8.3212,12.830540141785429,24.309763810148922,40.506991092226116,22.806338074277825
0.3952,0.8719,0.2088,-0.5469,0.2591,0.3776,2.2838,67.6813,-10.4038,13.361065974628964,23.913292637759593,40.189546689059675,22.81853296747828
0.37,0.8508,0.1997,-0.5469,0.2591,0.3776,3.22,74.5675,-12.1012,13.231266219909873,23.339115386852438,39.694197955192124,22.83058735591626
0.3393,0.8433,0.1963,-0.5362,0.2576,0.3816,5.2413,81.27,-12.9325,13.117988760834999,22.587653324131246,39.78815357946056,22.839625669830795
0.2806,0.8216,0.1972,-0.5362,0.2576,0.3816,7.5775,86.7913,-12.5037,13.463216015486372,20.417124452701298,37.75491810787762,22.85164820580373
0.2652,0.8141,0.2012,-0.5231,0.2575,0.3817,10.0537,91.8838,-10.1937,13.851687686637838,18.205360248265595,37.95856501876481,22.863820448362375
0.2487,0.8236,0.1889,-0.5231,0.2575,0.3817,12.285,95.9525,-8.0675,12.976271159760648,16.678257875747487,37.70434252375798,22.87588651603754
0.2373,0.8335,0.1871,-0.5117,0.2564,0.393,14.525,99.6888,-4.585,12.669555770883742,15.64035991693884,39.06608251277737,22.888005671154442
0.2261,0.84,0.1842,-0.4984,0.2533,0.3876,16.6863,102.5238,-1.8463,12.38314602936171,14.802303800214952,39.17748198404194,22.90010394521093
0.2191,0.8382,0.1818,-0.4984,0.2533,0.3876,18.1037,105.0,0.4025,12.244204234395921,14.361525714073192,39.013974982039166,22.910615258675637
0.2105,0.8367,0.1949,-0.484,0.253,0.3886,20.3875,107.17,2.9575,13.076546511034756,13.801486085871101,39.425220034111604,22.97094028830728
0.205,0.8267,0.1959,-0.484,0.253,0.3886,22.1375,108.9638,6.6763,13.321409920494206,13.576795421668413,39.22817984963837,22.97550863962723
0.2098,0.8318,0.2001,-0.4742,0.2499,0.3911,23.7388,110.915,10.745,13.518747937224198,13.770657646680068,40.18410496190367,22.979941087096318
0.2275,0.8547,0.2015,-0.4585,0.2498,0.3862,27.0812,113.1725,14.0437,13.27377567557095,14.498101559307917,41.444433490457705,22.984482894695397
0.2546,0.9025,0.1997,-0.4585,0.2498,0.3862,32.1037,117.4863,20.0462,12.499287334740355,15.373776158461864,42.29120180758911,22.987940656734125
0.3107,0.9855,0.1925,-0.4494,0.2452,0.387,33.145,120.3563,20.3875,11.091810326917432,17.141249177554773,44.685663002973264,22.990464079798212
0.3487,1.0512,0.1944,-0.4494,0.2452,0.387,33.5475,123.5238,20.02,10.493915825240654,18.038839195549095,45.44983516953551,22.992962020890264
0.3805,1.119,0.1964,-0.4357,0.2416,0.3834,33.67,127.2075,19.53,9.969233699922517,18.50252693361773,46.688025931918474,23.002806910002985
0.3802,1.1105,0.1874,-0.4212,0.241,0.3812,33.2325,131.5737,18.0425,9.589155596807993,18.64977223790919,47.949725424576876,23.01503259391965
0.3354,0.9984,0.1665,-0.4212,0.241,0.3812,31.9375,136.255,14.4725,9.471307550694013,18.344102116147763,47.77054522842121,23.027249429929356
0.162,0.789,0.1109,-0.4046,0.235,0.3803,32.6287,140.1313,9.8,8.041413381110425,11.774162469091983,45.37896578314438,23.039412470664764
0.0969,0.7659,0.0889,-0.4046,0.235,0.3803,36.155,142.3275,6.4837,6.656480469016738,7.382113453145414,43.718502294863974,23.051544366767686
0.0785,0.7945,0.084,-0.3866,0.2316,0.3716,39.9437,142.0475,3.9375,6.049513965399796,5.707366461664337,43.92251755002987,23.063658213140418
0.105,0.852,0.0716,-0.3866,0.2316,0.3716,44.5112,141.5662,3.15,4.829547762522013,6.92820110286851,44.92004825602181,23.072524169827435
0.1648,0.9233,0.0645,-0.3711,0.2254,0.3698,48.0375,142.38,2.205,4.012190979609308,9.907158731589625,47.677068286371814,23.084727557018567
0.2111,0.9735,0.047,-0.3537,0.2194,0.362,50.3037,145.0487,1.7237,2.787169406583029,12.079088865735537,49.881736691808634,23.096847773884306
0.202,1.041,0.021,-0.3537,0.2194,0.362,51.3275,149.4675,0.8663,1.1853117504803894,11.050536609833717,49.62027265095093,23.108961266340756
0.1571,1.0405,0.0062,-0.3366,0.2144,0.354,50.9162,154.5425,2.7913,0.3568528525707916,8.727818880592936,49.570133907472716,23.12111935224827
0.1135,1.0348,-0.0085,-0.3366,0.2144,0.354,49.6388,158.69,7.1225,-0.4551134112737223,6.372976061202776,48.79566575369349,23.133293718304586
0.0797,1.0338,-0.0188,-0.3188,0.209,0.3486,47.3987,161.6125,19.565,-1.0303474153952445,4.465309147435192,49.369206805281365,23.142194004870596
0.0645,1.0228,-0.0217,-0.3064,0.2056,0.337,42.77,162.7238,24.8325,-1.2114381786847634,3.6293795296195417,49.32374533304901,23.154383943243154
0.1049,1.033,-0.0016,-0.3064,0.2056,0.337,41.8775,161.5513,26.5212,-0.11337420113056826,5.745645275417216,49.88998452756106,23.166631216052792
0.1238,1.0415,0.0112,-0.2939,0.1976,0.3265,41.335,160.3262,26.6,0.5999227079504265,6.753295028530191,50.419840759565574,23.178806289941665
0.133,1.0325,0.012,-0.2939,0.1976,0.3265,41.72,160.09,20.7987,0.6644254569031312,7.3229849790672645,50.65346593955228,23.191006137970014
0.1212,1.0021,0.0104,-0.2802,0.1946,0.3215,42.7262,159.9412,13.44,0.5961097403389544,6.911085715110079,51.46233749335713,23.203211294742538
0.0972,0.9698,0.0045,-0.265,0.1862,0.3062,43.0937,159.8625,5.705,0.2729148356881645,5.781995010326751,51.26119286674144,23.215330095943163
0.0658,0.9557,0.0064,-0.265,0.1862,0.3062,44.1087,159.67,-1.82,0.38136807280789653,4.083162310712657,50.49743228777312,23.227484288771617
0.0021,0.9545,-0.011,-0.2475,0.1857,0.2931,45.78,160.1163,-5.9588,-0.6392185911941037,0.5858685494815093,50.07347108564486,23.236480132732762
-0.0312,0.952,-0.0207,-0.2475,0.1857,0.2931,46.2438,159.18,-7.8488,-1.233485385865573,-1.509969997591263,49.5569806454808,23.24867219460299
-0.059,0.953,-0.0224,-0.2348,0.1798,0.2795,46.9087,157.8062,-7.2537,-1.3442411044239362,-3.2637697816558293,49.1779334045451,23.260891861942923
-0.0784,0.9549,-0.0204,-0.2222,0.1768,0.265,46.2262,155.2425,-4.6725,-1.226262924654233,-4.548115667893842,48.77728118951008,23.2731271015991
-0.0697,0.9696,-0.0152,-0.2222,0.1768,0.265,45.0187,152.9237,3.9988,-0.9048621266165013,-4.134688253306549,48.84604996633508,23.285370835245956
-0.0425,0.9811,-0.0157,-0.2084,0.1714,0.2522,43.4,146.2212,7.6737,-0.9165410708208342,-2.554514328878149,49.789521865685884,23.29759085650217
-0.0162,0.9835,-0.0126,-0.2084,0.1714,0.2522,41.1688,143.6138,12.3812,-0.7380661601886008,-1.0033844769030003,50.30243462750517,23.30980910817699
0.013,0.9844,-0.0102,-0.2014,0.1675,0.2413,39.0075,141.8638,14.0612,-0.5970379958486726,0.6950830203448273,50.65625222999624,23.322056734902905
0.0344,0.988,-0.0139,-0.1957,0.1618,0.2258,37.625,140.4375,14.7962,-0.8009745500744933,1.9496742402836533,50.19503600546378,23.334294805889307
0.0687,0.9897,-0.0096,-0.1957,0.1618,0.2258,36.155,139.2037,15.155,-0.5618985645066081,3.9026285385165145,50.98407733137875,23.346495361750215
0.0808,0.9993,-0.0065,-0.1905,0.1585,0.2136,34.4225,138.1975,14.7962,-0.3776409427295346,4.598066868135935,50.457082303970815,23.358689193201833
0.0883,0.9986,-0.0087,-0.1905,0.1585,0.2136,32.6375,137.13,13.5625,-0.4958158457468441,5.036803513795428,50.696520709707436,23.37090638312782
0.0874,0.9891,-0.0055,-0.1863,0.1557,0.2042,30.7125,136.8412,13.3612,-0.3237452613810537,5.0491830473762604,50.02062545559612,23.37978224947063
0.0955,0.9812,0.0028,-0.1806,0.149,0.1887,29.5837,136.885,13.895,0.14886483828971275,5.541138893384187,48.733215505593726,23.39197395742458
0.1195,0.9755,0.0082,-0.1806,0.149,0.1887,28.8663,137.1125,15.5662,0.47139803644420114,6.935886667473294,49.343579198461114,23.40417380545293
0.1366,0.9756,0.006,-0.176,0.1462,0.1752,28.8838,137.9263,16.5375,0.35602053662281147,7.937121867510379,48.56602058571629,23.416353834169698
0.1391,0.9748,0.0098,-0.176,0.1462,0.1752,28.7262,140.2975,16.2225,0.5692121213267891,8.114684543754112,48.56669792295739,23.428555451779438
0.1375,0.9607,0.0079,-0.1771,0.1432,0.1602,28.8663,141.89,15.05,0.4741532204988112,8.143840378559068,45.78233835526053,23.440733356998535
0.1196,0.9457,0.008,-0.1753,0.1393,0.1491,27.265,143.815,13.5625,0.4843333781090647,7.240804486892518,43.44145516991353,23.452908076971127
0.1035,0.9932,0.0263,-0.1753,0.1393,0.1491,26.8625,144.7337,11.2262,1.48306416426344,5.99732991346752,42.34859519472441,23.465030771250817
0.1019,1.0567,0.0439,-0.1732,0.1365,0.1371,26.1187,144.7687,9.9663,2.3489136629033434,5.523548022359465,39.6115262440588,23.47389141919366
0.1271,1.1426,0.0587,-0.1732,0.1365,0.1371,25.4188,143.99,10.2112,2.9206040572936423,6.306139394549948,39.73008389350086,23.486125243184723
0.1452,1.2104,0.0891,-0.1722,0.1337,0.1228,24.2025,142.6512,11.1212,4.1638613192098095,6.80215599068844,36.1984636653979,23.498281559510847
0.1433,1.19,0.0936,-0.1714,0.1304,0.1109,23.135,141.05,12.4512,4.484941274013996,6.843956169445099,33.16677105374157,23.510491671111264
0.1053,1.1236,0.0936,-0.1714,0.1304,0.1109,21.9888,139.65,12.9675,4.75117260230182,5.390342641459794,32.30288057358496,23.52265188051645
-0.017,0.8829,0.0759,-0.1725,0.1273,0.1001,22.5837,137.8212,12.5212,4.90727626188877,-0.8594400210069804,26.9425933118771,23.53488818192146
-0.0489,0.8617,0.0818,-0.1725,0.1273,0.1001,23.135,134.9425,11.3662,5.4035544520697325,-3.1418968179893207,25.975088836673983,23.547120236331136
-0.0551,0.8602,0.0896,-0.1766,0.1254,0.091,23.4762,131.8363,11.5237,5.926610649918363,-3.626097974862123,22.784225549789348,23.55933353317806
-0.0257,0.8678,0.1034,-0.1786,0.1228,0.0749,22.6362,128.59,13.37,6.761903573250035,-1.7539257220609121,18.203426992620415,23.568177900972103
0.0101,0.8856,0.1103,-0.1786,0.1228,0.0749,20.6413,126.8925,17.675,7.085666719601904,0.5738884791600668,18.465914090993206,23.5803151058192
0.1033,0.9756,0.149,-0.1839,0.1199,0.0674,14.3238,126.6038,19.3113,8.594862180268569,5.815933540529212,15.995082571093606,23.592525925252176
0.1471,1.0232,0.1634,-0.1839,0.1199,0.0674,12.1712,126.9538,21.0788,9.04311055603657,8.016526792495902,16.204858806586778,23.604731435940977
0.1812,1.041,0.1622,-0.1876,0.1181,0.0574,10.885,128.3275,21.6125,8.868958506905498,9.710567966395681,13.27601227396009,23.616917127318196
0.1868,0.9977,0.161,-0.1933,0.113,0.0495,10.115,130.305,20.4925,9.145305898488381,10.450593283111694,10.410335713282308,23.629108835272145
0.1804,0.9372,0.1572,-0.1933,0.113,0.0495,11.2262,131.95,18.7337,9.496580775578689,10.739955435598038,10.191702848986361,23.64128992573775
0.169,0.9346,0.1559,-0.1972,0.1119,0.0392,12.5825,132.93,17.745,9.47189014503728,10.132422363011433,6.680459035961374,23.653447303812705
0.1915,0.9841,0.1572,-0.1972,0.1119,0.0392,14.2975,134.2337,16.87,9.097748006628947,10.853553711598432,6.992260386528009,23.66233024848108
0.2272,1.0361,0.1671,-0.205,0.1104,0.0314,14.3062,136.6925,16.8875,9.158103721933982,12.171965587244419,4.374238973083257,23.674526911262927
0.2501,1.0889,0.1801,-0.2098,0.108,0.0226,12.5913,139.6675,16.6863,9.377165929698434,12.748695905571099,1.5059896587010442,23.686683935421605
0.2391,1.0787,0.1942,-0.2098,0.108,0.0226,10.325,143.8325,16.4937,10.146669411726478,12.320448526353204,0.9844176929465592,23.698881659952285
0.2111,0.9846,0.2106,-0.2165,0.106,0.0126,7.7,146.9825,13.2388,11.90437607097553,11.858328172724702,2.939491196273575,23.71106168866905
0.1061,0.9313,0.2185,-0.2165,0.106,0.0126,7.8225,149.31,9.0125,13.091102950332505,6.563607579634938,3.3567336856065855,23.723152530483695
0.0517,0.8965,0.2108,-0.2216,0.1034,-0.0022,8.5487,149.5287,5.285,13.220474939156045,3.3818758185681026,6.801927721435913,23.73194097950577
0.0086,0.8603,0.2189,-0.2216,0.1034,-0.0022,11.8212,146.8862,1.4787,14.207785898215429,0.7312536923450356,7.135853756734705,23.74412419346904
-0.0203,0.8475,0.2103,-0.227,0.1023,-0.0002,20.7112,139.405,-5.2937,13.94711605405409,-1.109232721575234,6.189010893298064,23.75639411692049
-0.035,0.8386,0.2076,-0.23,0.1032,-0.0158,25.795,133.91,-8.2075,13.905794234625425,-2.1295163150990724,9.7179446456482,23.76866580995333
-0.056,0.8799,0.2131,-0.23,0.1032,-0.0158,29.3825,128.5988,-10.2637,13.622949325831916,-3.2116976121831664,9.556697545841022,23.78091662192575
-0.0603,0.8933,0.2051,-0.2322,0.1037,-0.0262,32.06,123.2438,-11.0075,12.950243170042116,-3.608806993605594,11.559836513555457,23.79320247160972
-0.0542,0.9101,0.2067,-0.2393,0.1047,-0.037,33.1012,118.6238,-9.87,12.800025712344395,-3.3844417240982487,13.617341418231605,23.80544549742402
-0.0462,0.9243,0.1943,-0.2393,0.1047,-0.037,31.9988,114.73,-7.9538,11.897481152830228,-2.8887244033812687,13.336143408984197,23.81775010467074
-0.0213,0.9429,0.1952,-0.2455,0.1056,-0.0466,30.1875,111.65,-5.04,11.702139475656127,-1.4374673997630003,15.13858557341595,23.82995243011304
-0.0136,0.951,0.1925,-0.2455,0.1056,-0.0466,27.2388,108.9288,-1.8637,11.451481675787415,-0.8529839865868448,15.10748984918357,23.842205011666852
-0.0115,0.933,0.195,-0.2504,0.1026,-0.0534,24.5088,106.6713,0.8312,11.792536708441387,-0.7017527695129488,16.232285068685165,23.85442290942539
-0.0075,0.9161,0.1968,-0.2573,0.1024,-0.0622,21.9188,104.7638,2.7125,12.11128112967108,-0.4726745815648556,17.683033815381783,23.866669474402475
-0.0007,0.9181,0.1993,-0.2573,0.1024,-0.0622,19.705,99.1638,1.7675,12.241846617880816,-0.06901811693071146,17.77414053116023,23.878830037723937
0.0315,0.955,0.2063,-0.2658,0.1021,-0.0676,18.0163,96.9063,-0.2713,12.192176602290736,1.7125884592983682,18.42792641277154,23.887644322634326
0.0435,0.9554,0.2058,-0.2658,0.1021,-0.0676,17.4387,95.4188,-2.3712,12.157878708232383,2.479980746714081,18.501167388067792,23.899957423871726
0.0498,0.9492,0.2084,-0.2698,0.1041,-0.0739,15.6538,94.6313,-4.9175,12.371375476903387,2.886522846825153,19.61175172395603,23.912120464607135
0.0512,0.9386,0.2012,-0.2766,0.1038,-0.0818,14.7788,93.8525,-6.2737,12.113665293849893,3.0330331941812414,20.517886993508956,23.924250591128665
0.0443,0.9334,0.2036,-0.2766,0.1038,-0.0818,13.615,92.9513,-7.42,12.29398423715046,2.707856934451817,20.53509159305656,23.93640195262689
0.0353,0.9527,0.2139,-0.2826,0.1027,-0.0838,13.6763,92.8025,-5.7925,12.633469180047557,2.1431472546134693,20.460753685098485,23.948594722329677
0.0424,0.9383,0.2153,-0.2826,0.1027,-0.0838,12.8275,93.4063,-2.8087,12.90571455724564,2.4896615233173525,20.575673425840403,23.960784660702235
0.0454,0.9373,0.2131,-0.2895,0.1019,-0.0875,12.6175,94.78,0.315,12.814697415011645,2.689749605509982,20.71051509235268,23.972983800898028
0.0493,0.9326,0.2156,-0.2895,0.1224,-0.0952,12.3812,96.4075,3.3425,13.004470718604187,2.933944660212776,22.931561684982242,23.981731903464382
0.0442,0.9135,0.2022,-0.2969,0.103,-0.0952,13.265,97.7025,4.7425,12.511829913797811,2.71662037363811,21.493750084097965,23.993889635455616
0.0285,0.8902,0.1883,-0.3053,0.1043,-0.0974,13.9475,99.085,4.3925,11.97566258728641,1.8427109878126353,21.123145445340608,24.006075680749113
0.0277,0.9327,0.1814,-0.3053,0.1043,-0.0974,15.5662,99.7938,2.4325,11.05632188640467,1.6800117209630654,20.889116202830163,24.018217486507826
0.0477,0.9728,0.1773,-0.3139,0.1051,-0.1049,17.2812,99.4525,1.0762,10.36385111266367,2.6925923316836493,21.516913797165753,24.03036495492699
0.0755,1.0372,0.1746,-0.3139,0.1051,-0.1049,19.11,98.875,-0.5338,9.590891294977757,4.005053081274923,21.49891205738466,24.039213569716374
0.107,1.1193,0.1711,-0.3231,0.1054,-0.1083,21.2975,98.5863,-0.6212,8.727133490664725,5.2983712283653395,21.42630451189503,24.051399615009874
0.1175,1.1664,0.1688,-0.3309,0.1055,-0.1122,20.6675,98.1925,0.3063,8.254814207607449,5.666929672908612,21.484535942959845,24.063553807838325
0.0864,1.0365,0.1221,-0.3309,0.1055,-0.1122,19.3113,97.3875,-0.4025,6.785243640744777,4.79842679442463,21.01832870616131,24.075753301950396
-0.0066,0.9747,0.1097,-0.339,0.1078,-0.1167,18.7862,95.9263,-2.5113,6.4376449950358365,0.04455873262152289,20.65811148294899,24.087941470741566
-0.0387,0.9515,0.1008,-0.339,0.1078,-0.1167,19.3375,92.12,-2.835,6.064186894093351,-2.11487927741461,20.404374165981118,24.1001724634024
-0.0499,0.9503,0.0924,-0.3446,0.1093,-0.123,19.81,87.8238,-1.7937,5.575266456735582,-2.9230812941737647,20.846030392840294,24.112406995226024
-0.0473,0.9685,0.0845,-0.3547,0.1103,-0.125,19.6262,82.9325,0.0963,5.011575397879541,-2.7948360127840988,20.48407852727948,24.12459304051952
-0.035,0.9809,0.0721,-0.3547,0.1103,-0.125,20.1338,77.6038,1.4262,4.23778422280501,-2.0853668776933056,20.34380497100965,24.133445548387964
-0.0019,0.9965,0.073,-0.3621,0.1092,-0.1293,19.6175,71.7238,2.7825,4.191855682192792,-0.22288579926982569,20.699840558429816,24.145629470183792
0.0113,0.9965,0.0702,-0.3621,0.1092,-0.1293,18.9,66.9025,2.6775,4.036809750184377,0.5975683704955128,20.736028553125077,24.157728098156557
0.0217,0.9918,0.067,-0.3689,0.11,-0.1307,18.4188,62.2562,2.4763,3.8724639505325817,1.2122301800510233,20.60454523294647,24.169929715766298
0.0289,0.9841,0.0641,-0.3754,0.1125,-0.136,17.1238,57.47,2.59,3.733730142651126,1.6513788149497104,21.012469811960887,24.18205736487388
0.037,0.974,0.0577,-0.3754,0.1125,-0.136,15.1375,53.5587,2.9488,3.408482095646235,2.1419749898070806,20.991305022088714,24.19423916317204
0.0293,0.9488,0.0499,-0.3834,0.1124,-0.1366,14.6912,49.7175,1.6013,3.0321983157227854,1.7895909976947093,20.541822875322637,24.203026196529002
0.0346,0.9369,0.0512,-0.3834,0.1124,-0.1366,14.7175,45.6225,-0.07,3.1228056201554195,2.0896086066743074,20.594631299108425,24.215213303571336
0.0329,0.9295,0.0368,-0.388,0.1163,-0.1366,13.8775,37.4238,-0.4462,2.315882652458602,2.0301092661010918,20.19365704238818,24.22741598292991
0.0303,0.9255,0.0446,-0.388,0.1163,-0.1423,13.1687,32.7687,-1.155,2.7327013795913087,1.8846867850559457,21.006194840753665,24.24001823376666
0.0373,0.9204,0.0315,-0.3946,0.1179,-0.1423,11.3662,28.9975,-2.4237,2.0113987535202535,2.283533980064934,20.585284035455793,24.252089610185994
0.0306,0.9198,0.0386,-0.3954,0.1156,-0.144,9.9837,24.745,-3.71,2.374434705484933,1.9387335392008203,20.789605053968586,24.264176558921577
0.0579,0.9554,0.0406,-0.3954,0.1156,-0.144,7.8663,20.1863,-5.1887,2.4282466317246927,3.302149832786525,20.966727459594132,24.27619661748056
0.0716,0.9664,0.0531,-0.3992,0.1159,-0.1478,5.5913,16.8262,-7.91,3.067924088383271,4.091342682297516,21.49723355275881,24.285432416678375
0.0719,0.9678,0.0629,-0.3992,0.1159,-0.1478,3.0975,13.3525,-10.4038,3.622940074960619,4.20420489912102,21.64959293456088,24.297689953060086
0.0601,0.9518,0.0683,-0.3984,0.1181,-0.1438,1.1112,10.0887,-14.0,4.004477031362211,4.022084274510643,21.27713184234741,24.309594634912354
0.0476,0.9379,0.0722,-0.397,0.1192,-0.1462,0.4638,5.775,-18.4013,4.306638440880438,3.0896009393337818,21.55275739474071,24.32169255505256
0.0198,0.9582,0.0694,-0.397,0.1192,-0.1462,0.14,0.28,-22.4875,4.185222621352233,1.3730594810854875,21.472168224042424,24.333809232755517
-0.0013,0.9676,0.0681,-0.3976,0.1184,-0.1459,0.0875,-5.5825,-25.7337,4.067871553291229,0.03330592161019698,21.18962313711372,24.345899012821324
-0.0055,0.9664,0.0784,-0.3976,0.1184,-0.1459,-0.3763,-11.7512,-27.3087,4.466761790982073,-0.30070949548604775,21.262564422512437,24.35828431297949
0.0066,0.9667,0.0779,-0.394,0.1193,-0.1493,-0.3063,-18.9175,-27.0725,4.565840385282296,0.3423055954520907,21.906552279975116,24.370464695612537
0.0205,0.9713,0.0659,-0.389,0.1176,-0.1466,-1.2687,-31.08,-27.3262,4.162271024598705,1.1477865511119973,21.750450376702553,24.382680469873407
0.0193,0.9479,0.0727,-0.389,0.1176,-0.1466,-2.5375,-35.8662,-27.3262,4.194434137604743,1.1619805705440895,21.85683589996256,24.394830061790245
0.0203,0.9689,0.0814,-0.3814,0.1188,-0.1469,-2.3625,-40.6875,-28.7875,4.349717509521358,1.1939499577530157,22.396780884493015,24.404218398903993
0.0182,0.9939,0.0784,-0.3814,0.1188,-0.1469,-3.92,-45.7975,-29.925,4.4377382502325124,1.0543508009878526,22.326035956207413,24.416457177722954
0.0234,1.0099,0.0706,-0.3759,0.1198,-0.1426,-5.8975,-49.7875,-30.3275,4.103604321961597,1.3089236044666954,21.980065411624285,24.428711882774437
0.0201,1.0009,0.0673,-0.3684,0.12,-0.1472,-6.965,-53.3312,-30.3625,3.895585939840172,1.1569131374279504,22.91748369296803,24.440923410039968
0.0252,0.9939,0.0689,-0.3684,0.12,-0.1472,-7.7962,-56.77,-29.96,3.9540741254392597,1.4321412685045432,22.998012115040165,24.453272964654026
0.0259,0.9843,0.0647,-0.3648,0.1186,-0.1454,-8.6712,-60.4012,-28.0613,3.788508939357935,1.4993989246014274,22.905251813563282,24.465337616664076
0.0387,0.9828,0.065,-0.3552,0.1167,-0.1435,-8.8375,-64.1988,-26.7138,3.7845399565354136,2.197022415517004,23.272603085147086,24.47757002499003
0.0611,1.0139,0.0674,-0.3552,0.1167,-0.1435,-8.6363,-67.305,-25.97,3.80050566969844,3.348232593838764,23.435068686776507,24.489802079399702
0.1296,1.0973,0.0709,-0.3503,0.119,-0.1442,-7.9713,-72.38,-22.8375,3.7134532882365376,6.393587298333635,24.327385907266926,24.501972552376955
0.1468,1.0987,0.0786,-0.3503,0.119,-0.1442,-8.4263,-73.9288,-22.5487,4.035603767316965,7.471232360975057,24.58324751300544,24.514252739400472
0.1438,1.055,0.0712,-0.344,0.1186,-0.1346,-9.1437,-74.375,-22.645,3.884415076010686,7.71727517264332,23.582887218703863,24.526489394721764
0.1294,0.9962,0.0592,-0.3342,0.1198,-0.1432,-8.5575,-73.8063,-23.8175,3.4714230966919937,7.417286433936758,25.298212217167496,24.53872109521516
0.1088,0.9478,0.0536,-0.3342,0.1198,-0.1432,-8.505,-73.1938,-23.695,3.2712588863061107,6.617077539758417,25.124627312077237,24.550955980955056
0.1007,0.9101,0.0593,-0.328,0.1193,-0.1388,-9.6337,-73.2813,-23.66,3.670380805206433,6.329196496755907,24.982211406400932,24.56317564829499
0.1085,0.906,0.0635,-0.328,0.1193,-0.1388,-9.8962,-72.0125,-22.8725,3.967839703577004,6.7656160899799636,25.1448349114769,24.575405225290716
0.1243,0.9245,0.0731,-0.322,0.1169,-0.1366,-11.5325,-70.3325,-23.205,4.464671744115401,7.552398754217807,25.474951700545077,24.587686120146792
0.1351,0.9399,0.0835,-0.3164,0.1168,-0.1349,-12.6087,-68.8188,-24.815,5.020644107082979,8.099324635629793,25.864421862321176,24.600357030741524
0.1232,0.9174,0.0903,-0.3164,0.1168,-0.1349,-13.6237,-65.0825,-28.3062,5.571116907998621,7.64322364950679,25.905228784665226,24.612239415868263
0.0927,0.9085,0.091,-0.3065,0.1183,-0.1289,-13.8075,-66.2025,-29.3125,5.707660179211096,5.907496219578859,25.452104978216784,24.624627193440375
0.0645,0.9121,0.1004,-0.3065,0.1181,-0.1239,-12.6525,-67.655,-29.4612,6.229153312397473,4.132447216148719,24.52301256709555,24.636808991738533
0.0393,0.9144,0.0998,-0.2999,0.1181,-0.1239,-10.08,-70.0175,-29.1375,6.228803702112704,2.5482200351250888,24.73078484598192,24.64906865161791
0.0317,0.9532,0.0938,-0.2914,0.1179,-0.1256,-7.2888,-73.22,-27.9387,5.729139054999424,1.9380493023709413,25.37524225419371,24.661251511664904
0.0364,0.9836,0.095,-0.2914,0.1179,-0.1256,-6.2125,-77.07,-27.2125,5.563869501985542,2.0978558457774596,25.386799837593056,24.673515418539623
0.0503,1.0099,0.082,-0.2829,0.1182,-0.1246,-5.6525,-81.1125,-28.945,4.875578476328721,2.7966010290134156,25.753364300809245,24.685749596446964
0.045,1.0319,0.0832,-0.2769,0.117,-0.1196,-6.58,-84.6563,-32.5062,4.664222540256277,2.50438293169344,25.313092054113433,24.697930332996286
0.0482,1.0436,0.0775,-0.2769,0.117,-0.1196,-9.0387,-88.2613,-36.6712,4.303993335736741,2.631640676986931,25.219959630164695,24.70727018357991
0.0564,1.0701,0.0954,-0.265,0.1187,-0.1152,-12.4512,-91.7438,-44.52,5.0209179224951495,2.993419346847833,25.810233857194923,24.719514625059325
0.0489,1.0687,0.0823,-0.265,0.1187,-0.1152,-18.9263,-96.355,-47.7487,4.439471054080042,2.6229429357083265,25.518651433363942,24.73183834378507
0.0333,1.0549,0.0809,-0.2532,0.1189,-0.1113,-21.9538,-98.665,-51.5025,4.388083889752047,1.8238276655394452,25.686256708951305,24.74416383209221
0.0184,1.0358,0.0786,-0.2368,0.1213,-0.1026,-25.1387,-101.395,-54.1012,4.341554691518974,1.0342589076640873,25.405276667724724,24.756392701255375
-0.0049,0.9872,0.0859,-0.2368,0.1213,-0.1026,-28.4113,-104.2738,-55.5013,4.94935207681778,-0.25263020573527956,25.405207447412106,24.771644723267553
-0.0104,0.9617,0.0859,-0.2279,0.1215,-0.1007,-29.8375,-107.485,-56.63,5.098667331373069,-0.6088544950327857,25.869048935317974,24.784100806681373
-0.0071,0.9511,0.0975,-0.2135,0.1214,-0.0879,-30.0387,-109.9963,-56.385,5.826481689145808,-0.4296623803663855,24.98181711171473,24.79644292905359
0.0052,0.9266,0.1042,-0.2135,0.1214,-0.0879,-31.2375,-111.5888,-55.3175,6.396223022381285,0.30199812848734814,25.360088105667252,24.8087655860305
0.0418,0.9215,0.1101,-0.2009,0.1234,-0.0762,-31.5,-112.5688,-53.5325,6.799350277855397,2.5233092158652592,24.787209168209532,24.821097090914368
0.047,0.9065,0.1115,-0.2009,0.1234,-0.0762,-30.3975,-111.7988,-53.0775,7.004773078736472,2.93541023037251,24.962089877430795,24.833412315649436
0.0515,0.8874,0.1254,-0.1895,0.1244,-0.067,-30.5725,-110.74,-51.7038,8.007330429569624,3.279786779130047,24.63384483698052,24.845774611249514
0.0702,0.8708,0.1408,-0.1782,0.1259,-0.0559,-29.5487,-108.9288,-49.1487,9.142401751030182,4.515396714565912,24.07994971266578,24.858107177882214
0.0839,0.8793,0.1477,-0.1782,0.1259,-0.0559,-27.0988,-106.5488,-46.76,9.519746938084552,5.350463482819613,24.506250358557782,24.87039019623596
0.1012,0.8812,0.1442,-0.17,0.1298,-0.0486,-25.1912,-102.97,-45.0363,9.303170649204883,6.431723742805007,23.92721400484643,24.88272063937099
0.1099,0.8843,0.1536,-0.161,0.1311,-0.0365,-22.785,-99.155,-44.835,9.827654840951121,6.963854641709768,21.974302401154592,24.89500047247823
0.1089,0.894,0.1643,-0.161,0.1311,-0.0365,-21.07,-94.6313,-46.3225,10.383396033713549,6.835707301944784,22.29738816780456,24.907330561696988
0.1026,0.8966,0.1648,-0.1546,0.1318,-0.0282,-18.6987,-84.0088,-46.6375,10.413166881004459,6.433599830661912,20.281938284085125,24.919534302804397
0.0889,0.9228,0.1716,-0.1546,0.1318,-0.0282,-17.8937,-78.47,-46.305,10.526685232998833,5.440869156440992,20.028673697170813,24.931825107316264
0.0763,0.9575,0.1779,-0.1464,0.1338,-0.0194,-17.3337,-73.5175,-43.5662,10.525415899207921,4.510741060496643,17.778414083481117,24.94411024916768
0.0593,0.9621,0.1749,-0.1408,0.135,-0.0151,-18.0163,-69.055,-39.7687,10.316893650218079,3.5085335186114186,16.402472189086815,24.956464758609634
0.0561,1.0052,0.1751,-0.1408,0.135,-0.0151,-16.87,-65.1,-36.9687,9.910157220535725,3.1618712665786695,15.9212652492468,24.968650449986853
0.0794,1.1244,0.1901,-0.1346,0.1392,-0.0044,-17.08,-60.8475,-33.9675,9.616559676096646,3.944562781993882,12.501645259115334,24.98093488400571
0.1418,1.3712,0.2223,-0.1328,0.1394,0.0022,-17.0187,-57.575,-31.535,9.235349375314486,5.729266096908338,9.723287557981529,24.99316764624794
0.2004,1.6075,0.2417,-0.1328,0.1394,0.0022,-17.465,-55.685,-27.5888,8.594245198121758,6.941517600034165,9.18150505784509,25.005430491373822
0.0571,1.1168,0.1646,-0.1315,0.1388,0.0041,-25.305,-49.5075,-27.7725,8.393100336344816,3.1616920630154843,7.447908208319553,25.017611935755703
-0.0558,0.9526,0.1478,-0.1315,0.1388,0.0041,-28.2012,-48.1075,-30.2838,8.803278714062332,-2.947415350964248,7.061535132515835,25.029892830611775
-0.1452,0.8547,0.1592,-0.1266,0.1402,0.0066,-28.8137,-49.0525,-26.6875,10.486756771904304,-9.01889313209448,7.390299056671165,25.042209824928236
-0.1603,0.8317,0.152,-0.1252,0.1408,0.0193,-27.335,-51.345,-21.2887,10.362037586268364,-10.538915143858873,2.517286296670428,25.054460636900657
-0.0503,0.8505,0.1595,-0.1252,0.1408,0.0193,-25.8825,-53.585,-14.1837,10.61094933850863,-7.781134395182486,2.991891896876973,25.06668879823127
0.0049,0.8613,0.1638,-0.1254,0.1422,0.0265,-24.0012,-53.6813,-10.9725,10.760755474023286,-1.935118677345291,0.294702132697343,25.07894385719903
0.0375,0.8552,0.167,-0.1254,0.1422,0.0265,-23.1262,-52.9637,-10.7887,11.035963316363183,1.2991561512845125,0.5934317013292446,25.091124239832073
0.0513,0.843,0.1718,-0.1272,0.1419,0.0334,-23.1525,-51.485,-12.2937,11.496388657634336,2.481826327995995,2.0749401612963374,25.100552569485266
0.0629,0.8283,0.1779,-0.1256,0.141,0.039,-21.665,-48.8512,-15.4612,12.090352891980128,3.637061835289466,4.215856216428721,25.112884428285415
0.0723,0.8532,0.1856,-0.1256,0.141,0.039,-19.1887,-43.33,-19.2325,12.26215680752349,4.569048107195686,4.116843875668027,25.124918289579256
0.077,0.8667,0.1862,-0.1238,0.1414,0.0462,-16.8612,-39.4362,-20.0287,12.134051855407536,4.911344339062407,7.873975233463404,25.13724767096545
0.0858,0.8827,0.1966,-0.1226,0.1428,0.0474,-15.89,-36.2337,-19.8013,12.526527726893905,5.349562695862783,8.024877675628764,25.14939230805439
0.0977,0.8922,0.1972,-0.1226,0.1428,0.0474,-14.5075,-33.2325,-17.99,12.468437095898857,5.964213330210572,8.292945020153025,25.161620115468725
0.1067,0.9116,0.2111,-0.1237,0.143,0.0526,-11.4275,-29.2863,-16.9837,12.979609132265054,6.382864087627976,10.114274492574706,25.173818547831964
0.1078,0.9085,0.2092,-0.1237,0.143,0.0526,-9.7037,-25.9525,-16.3537,12.968960278348224,6.539663235809573,10.290229288223594,25.186245964027243
0.1057,0.9176,0.211,-0.1214,0.1428,0.0629,-7.5075,-22.3913,-16.7912,12.953199996773908,6.437107661101683,15.574130771251541,25.198192761916626
0.0992,0.9328,0.2116,-0.1224,0.1434,0.052,-5.8275,-19.18,-17.9288,12.822702116481038,6.017266441377091,10.39900495775315,25.210385531619412
0.0863,0.9501,0.2148,-0.1224,0.1434,0.052,-3.815,-16.0212,-18.6025,12.778863347090843,5.221036382473102,10.000143458457202,25.222595289303552
0.0528,0.954,0.2164,-0.1214,0.1442,0.0566,-2.1788,-12.3375,-19.285,12.779387341474592,3.406695395776397,11.538382755243743,25.234733909815763
0.0291,0.9445,0.2145,-0.1214,0.1442,0.0566,-1.3825,-9.205,-19.8187,12.788330019336886,1.9533153858038652,11.291556073995881,25.246869345081468
0.0118,0.9425,0.2037,-0.1199,0.144,0.0533,0.5862,-3.2113,-20.4662,12.333709570004924,0.8595874354858363,10.574577465502754,25.25611151477229
-0.0128,0.934,0.2051,-0.121,0.1473,0.0544,0.945,-1.0325,-19.4425,12.374114000092373,-0.5304122200036493,10.136792600009741,25.26823279338686
-0.026,0.9033,0.1975,-0.121,0.1473,0.0544,2.9225,-0.245,-18.5587,12.339392362063244,-1.430459059769483,9.954720320245919,25.280446798066343
-0.0157,0.8866,0.1912,-0.1187,0.1485,0.055,5.5037,-0.0438,-17.4913,12.188182400072607,-1.0807566303598715,10.231307195447227,25.292399258616182
0.0043,0.92,0.1756,-0.1187,0.1485,0.055,7.6038,-0.28,-17.4387,10.928257163378587,-0.012656535230838047,11.538305205522665,25.304489392598267
0.0079,0.9475,0.1615,-0.1194,0.147,0.055,9.4675,1.2163,-16.3625,9.768309313704417,0.3435890859518326,11.872395677418718,25.31655510635715
-0.011,0.9603,0.1496,-0.1194,0.1473,0.0555,9.8175,2.6863,-14.63,8.922194483769454,-0.16814579111081973,13.728265238749485,25.325725077127206
-0.0294,0.9707,0.1306,-0.1185,0.1473,0.0555,8.995,3.0275,-12.495,7.761848826061171,-0.9698137915319589,15.256804026534939,25.33768178467238
-0.026,0.9672,0.1299,-0.1198,0.1463,0.0516,7.9538,2.625,-10.0975,7.658997132027348,-1.401602628559017,14.702394651205207,25.349821113017146
0.0126,0.9727,0.1243,-0.1198,0.1463,0.0516,6.545,3.045,-9.4325,7.319031249712283,0.3196122698705504,15.220282269689797,25.361820644431994
0.032,0.9681,0.1227,-0.1203,0.1468,0.0509,6.3612,3.4125,-9.6075,7.232837717598212,1.563764523340422,15.440965132246317,25.373833624665416
0.034,0.9834,0.1194,-0.1203,0.1468,0.0509,6.7375,4.7775,-11.7425,6.952407526781934,1.823292096127763,15.82835135876541,25.38290308321244
0.0332,0.994,0.1274,-0.1202,0.1472,0.0517,6.6675,5.915,-13.8687,7.2698557991569785,1.8405927391781018,15.805677251147912,25.394942253250456
0.0271,0.9994,0.1153,-0.1206,0.1479,0.0436,6.2737,6.93,-15.2775,6.650095241130259,1.6527181748747348,13.198325644199919,25.406980715455912
0.0235,0.9959,0.1182,-0.1206,0.1479,0.0436,6.3088,7.4812,-17.5175,6.756747444402278,1.4049940273896657,12.563870145517422,25.419038643056677
0.0165,0.9722,0.1029,-0.119,0.1475,0.0436,5.6175,7.735,-18.865,6.118511884395009,1.0364511198806658,13.329566580025727,25.428308064300925
-0.0124,0.9848,0.1028,-0.119,0.1475,0.0436,6.2825,7.8575,-20.0637,5.9752699826660605,-0.4836099206348594,13.09803331373431,25.440216639232258
-0.0294,0.9894,0.0958,-0.1178,0.1477,0.0462,5.6875,7.8138,-20.0025,5.577851844312148,-1.5313747035012346,14.372860292880942,25.45220873840526
-0.0395,0.9824,0.0912,-0.1178,0.1477,0.0462,3.8937,7.3763,-17.745,5.3398522649779565,-2.1456905102246764,14.61098404616451,25.46436753214533
-0.0383,0.9685,0.0935,-0.1198,0.1485,0.036,3.1588,5.9675,-14.2187,5.488891101441306,-2.1885813213032077,10.562584410142478,25.476494827336634
-0.0291,0.993,0.0971,-0.1199,0.1502,0.041,1.645,3.5438,-12.5387,5.566942857183984,-1.9262903351736347,11.512423213568004,25.48849046567242
-0.0127,0.995,0.1015,-0.1199,0.1502,0.041,1.4175,1.9687,-11.4362,5.774304755726857,-1.1106970164798455,11.668878792065666,25.497700428981922
0.0157,0.9895,0.0985,-0.118,0.1475,0.0395,1.0675,0.7263,-12.145,5.703546576075642,0.07165534240883552,11.76652914012193,25.509766496657083
0.0123,0.967,0.1016,-0.118,0.1475,0.0395,1.4088,-0.3588,-12.5387,5.940347997570416,0.4023795190270928,11.68070317678443,25.521800357950923
0.0033,0.9454,0.0933,-0.1178,0.1482,0.0454,2.0388,-1.505,-13.2825,5.689128348993729,0.35763842464551626,13.807353029684045,25.533847668063338
-0.0079,0.9397,0.0953,-0.118,0.1463,0.0402,1.785,-1.8288,-13.195,5.772341697622368,0.13181394237640598,12.425893367731817,25.546019202789427
-0.0139,0.9451,0.0956,-0.118,0.1463,0.0402,1.2425,-2.24,-13.5275,5.775269907386957,0.09712517119992106,12.003758503760547,25.55813906573889
-0.0256,0.9098,0.0936,-0.1192,0.1485,0.0386,0.4462,-2.3538,-14.0175,5.850151802864758,-0.4329507868382233,10.954983594940883,25.567355753457672
-0.0224,0.9223,0.0988,-0.1192,0.1485,0.0386,0.1138,-2.4763,-14.2275,6.0452193192620705,-0.8118304513854373,10.529232211011939,25.579524810769815
-0.0195,0.9207,0.0999,-0.1178,0.1473,0.0362,-0.7613,-2.4675,-14.8225,6.142555434550328,-1.0315609893881315,9.677371190986513,25.591758988677157
-0.0183,0.9093,0.1076,-0.1197,0.1492,0.0376,-1.6625,-2.2225,-17.2287,6.45196376771662,-1.1206445674226202,9.28682337083282,25.603814084947693
-0.0268,0.9223,0.1155,-0.1197,0.1492,0.0376,-2.4325,-0.9538,-19.18,6.599134032400171,-1.5712784440562897,8.830190325586896,25.6168551919695
0.057,1.2323,0.1742,-0.1183,0.1498,0.0392,-3.1238,0.3325,-19.9237,7.025818073117898,2.0524457047480267,8.953483665093348,25.627930647981774
0.0375,1.1491,0.1687,-0.1183,0.1498,0.0392,-2.6163,0.49,-17.99,7.134538797063852,1.88676878698086,8.805976577523442,25.640019720215026
0.0293,1.0311,0.1515,-0.1166,0.1494,0.0422,-3.29,1.6712,-23.065,7.586059372204811,1.6367308859544052,9.304143353677523,25.648829758130077
-0.0139,1.1066,0.1638,-0.1166,0.1494,0.0422,-1.5575,1.8025,-23.1963,8.031691877718519,-0.4909906614688639,9.39519499364154,25.66101014076312
-0.0479,1.0604,0.172,-0.1161,0.149,0.0434,-1.2425,0.84,-23.17,8.733578697241684,-2.358627730616733,9.284487920740304,25.673226268940272
-0.0514,1.0225,0.1498,-0.1133,0.149,0.0402,-0.8838,0.1575,-22.6625,8.476087470216548,-2.799025194903735,8.940060893251594,25.685509287294018
-0.0802,0.9527,0.1663,-0.1133,0.149,0.0402,-0.9187,0.7962,-20.23,9.39008918352082,-4.487283786945799,8.397150226609009,25.697590219452866
-0.0693,0.9799,0.1677,-0.1138,0.151,0.0391,-1.4525,0.6563,-19.8625,9.568853659039954,-4.056005322504098,7.7059684742273085,25.709776618662644
-0.0597,0.9728,0.1725,-0.1138,0.151,0.0391,-2.6775,1.0587,-16.59,9.582152351111608,-3.6065449493869357,7.700292873874144,25.721971865779377
-0.0569,0.9712,0.1738,-0.113,0.1511,0.0422,-3.4825,1.9425,-15.4525,9.828636975981722,-3.406577080228088,7.365197064861014,25.734176314719342
-0.0573,0.9559,0.1712,-0.1146,0.1505,0.0376,-3.4388,2.6163,-14.2187,9.966241786456022,-3.394802801182127,5.834023784787483,25.742990953546013
-0.0533,0.9194,0.1699,-0.1146,0.1505,0.0376,-3.7625,2.7125,-12.1275,10.225000418337391,-3.316935631573839,4.982297971502614,25.75516850484883
-0.0408,0.9039,0.1706,-0.1138,0.1496,0.0385,-3.5438,2.0388,-9.5637,10.43618942286072,-2.6950954542239565,4.884383689031914,25.76732375942612
-0.0193,0.8955,0.1681,-0.1138,0.1496,0.0385,-2.9925,1.3737,-7.9713,10.479760310791862,-1.4381883469240355,4.911807180717698,25.779466273017388
-0.0016,0.8919,0.1676,-0.1148,0.1496,0.0374,-3.0625,0.3325,-6.58,10.522574617730328,-0.26848536420876185,4.753220806320978,25.791668598459687
0.0212,0.8897,0.1677,-0.1171,0.1481,0.0396,-2.6075,-0.3063,-4.6638,10.53614483267156,1.1787875555435816,5.344779170773701,25.803798724981217
0.0406,0.8918,0.1623,-0.1171,0.1481,0.0396,-2.1175,-0.6212,-3.045,10.454049981648707,2.4442768599829763,6.034956863577641,25.81262858220785
0.0764,0.9024,0.1638,-0.1191,0.1482,0.0386,-1.6538,-1.2862,-3.0363,10.368971585235842,4.560820401667925,6.148706327603618,25.82476543313867
0.0826,0.9049,0.1534,-0.1191,0.1482,0.0386,0.0963,-0.875,-6.7463,9.818028572067167,5.068173190969333,6.852497401683631,25.83690157623693
0.0874,0.9199,0.1599,-0.1215,0.1454,0.0362,1.2687,-0.7175,-10.0362,9.852211636601647,5.285961769136783,6.142010804340897,25.849033118423574
0.0853,0.9504,0.1573,-0.1215,0.1454,0.0355,1.3387,-0.0088,-14.0087,9.487874367717,5.216524712706463,6.053561158712591,25.861197928740374
0.0806,0.9766,0.1569,-0.1191,0.1458,0.0355,0.8312,0.5425,-18.06,9.206631546101683,4.760066418349726,6.166588613781236,25.869975406357824
0.0839,0.99,0.1687,-0.1207,0.1486,0.0379,-0.2975,1.2512,-21.7437,9.534423173234908,4.7738931061636505,6.231910352230263,25.882138447093233
0.0644,0.9945,0.1755,-0.1207,0.1486,0.0379,-2.135,2.8175,-25.1562,9.706467371696835,3.7382048295624375,6.03892439426732,25.894381472907533
0.0572,0.9873,0.1713,-0.1181,0.1474,0.0369,-3.4388,3.9638,-28.6562,9.764237129760284,3.296345557356845,5.884167548779062,25.906464882480332
0.0397,0.9905,0.1809,-0.1181,0.1474,0.0369,-4.655,5.0225,-31.36,10.151491088495979,2.3131704316853945,5.184492374305239,25.91856846528099
0.0216,0.9845,0.1806,-0.1145,0.15,0.0365,-4.8562,6.5538,-33.6875,10.317681158499212,1.2872332146403884,4.643786157301761,25.93077008289073
0.001,0.9706,0.1797,-0.1122,0.1519,0.0365,-5.0138,7.1487,-35.0175,10.437319701315289,0.11278998195257744,4.2665157985287285,25.939643471819593
-0.0124,0.9593,0.1803,-0.1122,0.1519,0.0365,-4.6287,7.0437,-35.4637,10.573646411935586,-0.6911174088763484,3.965384573074178,25.952320045074778
-0.0342,0.9432,0.1778,-0.1084,0.1525,0.0364,-3.5963,6.2475,-34.8162,10.621579124190376,-1.9800476652580143,3.8076126046642735,25.964346828043052
-0.0347,0.9511,0.1785,-0.1084,0.1525,0.0364,-2.345,5.7925,-33.705,10.623671912647128,-2.050152836100734,3.833432479305757,25.976468106657627
-0.0335,0.9505,0.1731,-0.105,0.1536,0.0333,-0.8312,5.6613,-31.3337,10.42648805425148,-1.9893189110258374,2.9175406739754037,25.98859717143032
-0.0342,0.9426,0.1671,-0.1034,0.1558,0.038,0.5513,4.9788,-29.19,10.14051173817551,-2.042643106055046,4.859077060476499,26.00060661250096
-0.0411,0.9287,0.1579,-0.1034,0.1558,0.038,0.9713,4.9,-28.3937,9.754332797595204,-2.4694109653271767,5.665247722972042,26.009928767270672
-0.0342,0.9382,0.1578,-0.0982,0.1572,0.0365,2.0825,3.9638,-27.1688,9.583208311352537,-2.086891679288545,5.507331800185379,26.021981386127262
-0.0294,0.937,0.1562,-0.0982,0.1572,0.0365,4.4275,2.1963,-26.0487,9.478925003821056,-1.796017498333409,5.568808702298874,26.034040729393137
-0.0301,0.9274,0.1518,-0.0993,0.1605,0.0332,4.8738,1.5925,-25.305,9.31726326028527,-1.8315362292810018,4.93588018006763,26.046107504900856
-0.0337,0.936,0.1487,-0.0993,0.1605,0.0332,4.655,1.6538,-24.7012,9.061717225916189,-2.019598160901377,4.640257569656953,26.058118715552887
-0.0325,0.952,0.1533,-0.0969,0.1596,0.027,4.76,1.645,-23.1788,9.137610648982891,-1.9387972106654507,3.195116726376967,26.070173103990868
-0.0296,0.9628,0.1419,-0.0977,0.1586,0.0303,5.1538,0.9887,-23.1175,8.469103731212495,-1.7607573582444076,3.2376130629188884,26.079509769327988
-0.0307,0.9755,0.1343,-0.0977,0.1586,0.0303,4.6988,-0.1488,-21.7875,7.913800243994706,-1.7830224341364567,4.021468789718927,26.09181968531888
-0.0282,0.9819,0.124,-0.0939,0.1602,0.0306,3.745,-0.9625,-20.2737,7.293675209336913,-1.6516917370481803,5.320588413877295,26.103673049310803
-0.0128,0.9945,0.1175,-0.0939,0.1602,0.0306,2.7738,-1.9162,-19.9237,6.823970139105105,-0.8572393970014212,6.493209609225789,26.116400940426335
-0.0061,0.995,0.1135,-0.0973,0.1616,0.0242,2.7037,-3.2113,-18.2962,6.556978952139609,-0.4376671540794579,3.934580960375436,26.128256781832203
0.0012,0.9906,0.1057,-0.0918,0.1615,0.03,1.9687,-3.7275,-17.6575,6.172780637205547,-0.030472148222557314,7.2071212945560115,26.139732517155206
0.0149,0.9908,0.0978,-0.0918,0.1615,0.03,1.1812,-4.3313,-17.36,5.746874546510686,0.6722522627574018,8.63533406809859,26.151850610523276
0.0354,0.9912,0.0987,-0.0946,0.1622,0.0294,0.2625,-5.39,-17.3687,5.701755825475901,1.7516156863552599,8.47798161505574,26.160450068252754
0.0462,0.9819,0.0914,-0.0946,0.1622,0.0294,-1.2075,-6.1863,-16.94,5.471645004429737,2.4695883580049767,9.214029549125293,26.17267327475547
0.0553,0.9752,0.0952,-0.0958,0.1624,0.0331,-2.5025,-5.67,-16.765,5.489195107671838,3.0491460615823263,10.979385541381038,26.18562731837282
0.0578,0.9607,0.0935,-0.0917,0.161,0.0305,-2.765,-5.8362,-16.8525,5.493097403036332,3.3387772385474483,10.32608228323591,26.197685245973585
0.0532,0.9332,0.0914,-0.0917,0.161,0.0305,-3.885,-5.9675,-17.3425,5.5476226915830456,3.2664378853387808,10.128060529040912,26.209713444606972
0.0528,0.9109,0.0885,-0.092,0.1621,0.0326,-3.8675,-7.175,-17.3425,5.54849708671679,3.294481844209604,11.359188190377784,26.221828352728537
0.0642,0.9131,0.0858,-0.092,0.1621,0.0326,-3.7625,-7.4637,-18.5587,5.455788550937878,3.8858496828353686,12.070316389358565,26.233942553017545
0.0763,0.9155,0.0871,-0.0906,0.1623,0.031,-4.1125,-6.8775,-19.3725,5.443473704810028,4.616959846190043,11.491558697053014,26.24330045333136
0.0822,0.9272,0.0952,-0.092,0.1646,0.0349,-4.7863,-6.1425,-21.1925,5.726338315473276,4.9908776280966505,12.903653805031691,26.25543907384357
0.0698,0.9302,0.0984,-0.092,0.1646,0.0349,-5.4075,-4.6112,-23.3887,5.954177021270908,4.334397996786499,12.450688119831357,26.267503018021063
0.0493,0.9064,0.1117,-0.0894,0.1649,0.0354,-6.125,-3.465,-24.5875,6.7830171411221025,3.1934816868138043,10.90866337668692,26.279577225770627
0.022,0.901,0.1168,-0.0894,0.1649,0.0354,-7.0175,-2.4413,-24.3775,7.272707490820052,1.5400423135799577,9.625615062602206,26.291736727343253
0.0295,0.9007,0.121,-0.0897,0.1652,0.0377,-7.5425,-1.3737,-22.7588,7.586441175749713,1.8278997901636278,10.136954298006973,26.303864730367113
0.0351,0.9085,0.1218,-0.0897,0.1652,0.0377,-8.365,-0.63,-22.225,7.62851491165002,2.155141879207868,10.36434972488711,26.316002996963046
0.0372,0.9021,0.1292,-0.0865,0.1653,0.0399,-9.59,0.7875,-23.4937,8.084341228139655,2.32085889321787,10.59105791615704,26.325399474151194
0.008,0.9033,0.1317,-0.083,0.1677,0.0378,-10.4737,2.0213,-25.515,8.271155194478823,0.6425526393892929,9.913338662807789,26.33739334290559
-0.0499,0.9184,0.1638,-0.083,0.1677,0.0378,-10.78,3.185,-26.8887,9.909654201642045,-2.8031966484685884,6.452785678082252,26.349543642654982
-0.0508,0.9366,0.1815,-0.0812,0.1698,0.0351,-11.7687,4.165,-27.1425,10.862096438630136,-3.0312211076338165,2.6064093945789275,26.36169217282298
-0.0406,0.9518,0.1915,-0.0812,0.1698,0.0351,-13.685,5.0487,-25.0775,11.3330119041312,-2.4454773324554724,0.9985479921895076,26.37382513067474
-0.0206,0.9437,0.203,-0.0798,0.1694,0.0455,-16.31,9.905,-27.0287,12.084691614112721,-1.3071014500638503,5.540287677167062,26.386003389810114
-0.0245,0.921,0.1972,-0.0786,0.1706,0.041,-18.0513,13.3437,-29.68,12.085366066324571,-1.4793499203433773,3.201397188734975,26.398223764982603
-0.0769,0.9078,0.2054,-0.0786,0.1706,0.041,-18.2262,16.4675,-33.7137,12.708970189602331,-4.569775312894053,1.5522139108233177,26.41049368843405
-0.1194,0.9215,0.2176,-0.0743,0.1751,0.0425,-18.4975,18.5412,-36.6975,13.251878121385468,-7.078786183875767,0.7154514156999563,26.422637617690434
-0.1476,0.9494,0.2327,-0.0743,0.1756,0.0458,-17.7275,20.7637,-38.4562,13.73937082765731,-8.528397134686532,1.4878287077935426,26.434864009439654
-0.1749,0.9673,0.237,-0.0725,0.1756,0.0458,-16.7125,22.5837,-39.6463,13.765105968032714,-9.90772160177621,1.501812666701585,26.44711411357952
-0.2156,0.9174,0.243,-0.0678,0.1794,0.0436,-14.98,23.7737,-40.5213,14.7550945307283,-12.695659833493709,1.8788978730071406,26.459364571635664
-0.243,0.9141,0.2359,-0.0678,0.1794,0.0436,-12.7487,24.4475,-40.9412,14.496256410473752,-14.373416098184109,1.3618638432827812,26.471511332222274
-0.27,0.9104,0.2314,-0.0632,0.1846,0.0372,-9.6162,24.5613,-41.4925,14.290831731476368,-15.978935976982129,4.6391379899039515,26.481034511438043
-0.2919,0.9158,0.2234,-0.0593,0.1849,0.045,-5.8713,24.255,-40.635,13.848654945070614,-17.161834858809847,0.24110641327623628,26.493116859262006
-0.3124,0.9261,0.2161,-0.0593,0.1849,0.045,1.2425,19.8712,-39.2788,13.278916010908272,-18.147221943161885,0.8368404686918304,26.505238845709137
-0.3213,1.0088,0.1953,-0.0564,0.1872,0.036,3.4913,16.8437,-38.4038,11.279378719540837,-17.394323577389816,0.06539115540933038,26.5173618939051
-0.3263,1.0325,0.1868,-0.0564,0.1872,0.036,5.5475,14.3675,-37.6075,10.365732126376757,-17.279453578536174,1.0073261377972267,26.52939363170127
-0.3199,1.0365,0.1811,-0.0523,0.1907,0.0289,6.195,12.3112,-36.8812,9.95677201878537,-16.925954562533093,2.0750892969343275,26.541529420883254
-0.3226,1.0346,0.1773,-0.049,0.1937,0.0359,6.4488,11.13,-35.455,9.747239333285725,-17.07692724080094,1.1396209646464968,26.55364822208388
-0.3101,1.0356,0.1873,-0.049,0.1937,0.0359,6.02,9.695,-33.915,10.199892282182784,-16.448964578700814,0.5450046182879026,26.565713935842766
-0.2964,1.0251,0.1723,-0.0466,0.1966,0.0302,5.8625,9.5637,-33.2938,9.610005201025382,-15.94086972103711,1.3898765643123006,26.57515429864942
-0.2871,1.0121,0.1552,-0.0466,0.1966,0.0302,5.6788,9.7125,-32.1388,8.813126758809407,-15.677170408154339,0.11699226519847945,26.587015448799463
-0.2976,1.0133,0.1604,-0.0451,0.1962,0.0315,5.4425,9.695,-32.0425,8.975103828122403,-16.15085913285861,0.21533244593490988,26.599074792065338
-0.3028,1.0094,0.1468,-0.0451,0.1962,0.0315,6.3,9.8437,-32.3488,8.34468318367795,-16.514541546599858,1.5347357088118967,26.611132365749825
-0.3145,1.0068,0.1484,-0.0418,0.1993,0.0235,7.1312,9.205,-33.6087,8.381179911234375,-17.141780954841355,2.820355474014308,26.623227454559803
-0.3184,0.9955,0.1393,-0.04,0.203,0.0238,7.7175,8.19,-34.265,8.002034453517265,-17.55576818637444,2.641040774735598,26.632428569962347
-0.3091,0.9975,0.1263,-0.04,0.203,0.0238,8.645,7.3675,-34.825,7.279821868567944,-17.109479411971165,1.311326099268698,26.64406462935941
-0.2908,1.0003,0.1156,-0.0355,0.2027,0.0224,9.1262,6.405,-34.2737,6.645752836318443,-16.154348610911338,0.748639544721239,26.65612892745318
-0.2703,1.0083,0.1147,-0.0355,0.2027,0.0224,9.8875,5.8013,-33.1275,6.501301719736936,-14.975136386169744,0.4869863125744971,26.668312495332728
-0.244,1.0155,0.1089,-0.0344,0.2074,0.025,9.5637,5.11,-33.5913,6.1495515103895855,-13.509625880941401,1.4401036174043447,26.68044474535193
-0.2278,1.0232,0.1086,-0.0326,0.2082,0.0232,7.9012,5.5738,-33.705,6.066394599632633,-12.531976472839661,0.9278273500418557,26.692604600840834
-0.2144,1.0045,0.1087,-0.0326,0.2082,0.0232,6.4138,6.0025,-35.1662,6.165274950515797,-12.004890698230714,0.5773016461134929,26.70165990273673
-0.2188,0.9902,0.1067,-0.0269,0.2118,0.0166,4.4363,6.825,-36.2425,6.152081000449106,-12.374383346270735,4.1090521434725105,26.7137730412769
-0.2392,0.9986,0.1064,-0.0269,0.2118,0.0166,2.6688,7.455,-38.5175,6.09288593388237,-13.358058875464218,4.44806085618798,26.7258971512217
-0.2513,1.0085,0.1113,-0.0248,0.2144,0.0163,0.5075,7.9975,-39.4012,6.249152363519757,-13.890367652422803,5.3835675405187855,26.73797808338055
-0.2718,1.0127,0.1144,-0.0248,0.2144,0.0129,-0.805,7.5075,-37.7388,6.37755520533412,-14.891526601802342,7.717662622417428,26.75015174160431
-0.2816,1.0041,0.1227,-0.0202,0.2173,0.0129,-1.96,7.0437,-36.0325,6.629302627885682,-15.527788186769397,9.579959060663892,26.762326815493182
-0.2937,0.9931,0.1191,-0.0179,0.2193,0.0146,-3.1063,6.685,-32.69,6.689198586145858,-16.322607008839526,8.547733543430956,26.77446118901005
-0.2888,0.9565,0.1188,-0.0179,0.2193,0.0146,-3.7625,5.5125,-29.365,6.890024713882647,-16.658625040860844,8.831748444671273,26.783470835706048
-0.2718,0.9504,0.1201,-0.0164,0.2206,0.012,-4.2263,4.3663,-26.495,7.07833663024487,-15.898900930058288,11.049185100643033,26.79562078153916
-0.2464,0.959,0.1224,-0.0164,0.2206,0.012,-4.2788,2.975,-23.6338,7.197657710685938,-14.442976378814592,12.22534450804129,26.807809658162885
-0.2294,0.9728,0.1321,-0.0145,0.2208,0.0198,-4.9175,2.275,-21.9275,7.56639285861449,-13.29014165602521,10.39687029914346,26.820169830265293
-0.217,0.9851,0.1344,-0.015,0.2227,0.0147,-5.67,2.9838,-22.2337,7.717937585480178,-12.413434270770797,12.794754802999737,26.83209716275937
-0.2333,0.9776,0.1468,-0.015,0.2227,0.0147,-7.07,3.6312,-23.6075,8.386704101449338,-13.200454448653893,14.927098263451244,26.84427896105753
-0.2477,0.9634,0.1423,-0.0118,0.2239,0.0152,-7.5163,3.4388,-24.6225,8.399517137743514,-14.181859559595969,14.887238056989512,26.856463944602194
-0.2582,0.9496,0.1496,-0.0118,0.2239,0.0152,-8.9512,3.3863,-23.2138,8.87643523733556,-14.954272057053107,15.63004791331763,26.865468282554016
-0.2571,0.9398,0.1452,-0.0125,0.2249,0.0205,-9.3362,2.0038,-22.0587,8.795078575758549,-15.110465549935466,13.497050346710845,26.87763273895454
-0.2589,0.9379,0.1486,-0.0092,0.2247,0.0164,-8.995,1.1812,-21.1575,8.974522083341125,-15.2342372222848,13.721852100105634,26.889759326313285
-0.2533,0.9527,0.1477,-0.0092,0.2247,0.0164,-8.5925,1.05,-21.6125,8.836097049617333,-14.77774012169301,13.741299609059238,26.901946787271896
-0.2588,0.9578,0.1504,-0.0094,0.2245,0.0167,-9.3275,0.0788,-21.9538,8.912540845710744,-14.927715025604956,14.518928868999254,26.91412115332821
-0.2588,0.9622,0.1483,-0.0094,0.2245,0.0167,-9.8612,-0.4725,-21.0088,8.780303047939599,-14.891427636853242,14.71763917928662,26.926320293524004
-0.2647,0.9634,0.1501,-0.007,0.2268,0.0214,-9.5375,-0.3763,-19.8275,8.846004331283574,-15.147705330181196,12.954141454190959,26.93848828908731
-0.2643,0.9509,0.1523,-0.0087,0.2282,0.0192,-9.695,-0.1488,-19.4425,9.067720004798302,-15.317951189509657,13.513942641262684,26.950690968445887
-0.2694,0.9437,0.154,-0.0087,0.2282,0.0192,-10.6662,-0.2538,-19.0662,9.245877054711181,-15.670796288271992,13.911454288705952,26.9629516900741
-0.2633,0.948,0.1559,-0.0054,0.2262,0.0201,-10.6662,-0.245,-18.9,9.328418534453206,-15.38062960036101,14.265942269775062,26.97515118418617
-0.2693,0.9492,0.1622,-0.0054,0.2262,0.0201,-10.4212,-0.2975,-19.3463,9.654784077929657,-15.588219062221361,14.948802201212716,26.98432257062134
-0.2798,0.9362,0.1646,-0.0063,0.2293,0.0215,-10.3512,-0.4112,-21.035,9.935013828148538,-16.305879406885055,14.773369110992006,26.996490920100925
-0.3012,0.9347,0.1656,-0.0059,0.2298,0.0217,-9.03,0.1225,-20.7812,10.03152982697127,-17.446264949878426,14.388953766453747,27.008718373598978
-0.324,0.9359,0.1709,-0.0059,0.2298,0.0217,-8.3825,-0.315,-18.3663,10.301008628347253,-18.572263620886098,14.185951446753718,27.020873274259987
-0.322,0.937,0.1745,-0.0061,0.2291,0.025,-7.6125,-0.5775,-15.96,10.507425291223507,-18.639162980145006,13.044640686198674,27.033133641971922
-0.318,0.9416,0.1734,-0.0061,0.2291,0.025,-6.9038,-0.805,-14.1487,10.448430293730091,-18.541127601624094,12.490274778383771,27.045239348270254
-0.3131,0.9435,0.1754,-0.0059,0.2285,0.0245,-5.1887,-1.7062,-12.74,10.507484148167164,-18.32794565450894,12.850988465497514,27.057469279182257
-0.3025,0.9398,0.1769,-0.0042,0.2288,0.0229,-4.165,-1.435,-12.635,10.598069822687616,-17.95476083523418,14.507159730098074,27.069676205536172
-0.3023,0.9381,0.1771,-0.0042,0.2288,0.0229,-3.7975,-1.3912,-13.5012,10.646476911522965,-17.931862304549913,15.033204525826777,27.08188242405753
-0.3028,0.9407,0.1714,-0.0046,0.2287,0.0248,-2.5288,-0.9887,-14.1312,10.598370938170707,-17.801582294983056,13.464197160911004,27.09409713656957
-0.3081,0.9426,0.1717,-0.0046,0.2287,0.0248,-2.03,-0.8575,-14.6912,10.487569947199649,-17.814653589269746,12.851274587675713,27.106227617007377
-0.3093,0.9468,0.1707,-0.0064,0.2292,0.0266,-1.4962,-0.6475,-15.365,10.341187647858463,-17.819627924402806,11.503350531148595,27.11531937227993
-0.3193,0.9557,0.1671,-0.0061,0.2298,0.0237,-1.4962,-0.315,-14.8137,10.10935600207113,-18.04020226410299,11.663985928395574,27.12789649506092
-0.331,0.9383,0.1553,-0.0061,0.2298,0.0237,-1.6013,-0.3675,-14.2712,9.736019812859375,-18.51605254371652,10.589730873306987,27.139763307871416
-0.3312,0.9287,0.1524,-0.0066,0.2291,0.023,-1.19,-0.9275,-13.7462,9.484892620742052,-18.650076484906347,10.131761033376707,27.152078178690207
-0.3333,0.9275,0.1462,-0.0066,0.2291,0.023,-0.1925,-0.98,-13.4225,9.107776540021188,-18.76120504050956,9.276161445095862,27.164111686067766
-0.3277,0.9306,0.1487,-0.0059,0.2284,0.0228,-0.6563,-1.2512,-13.1512,9.088107975981515,-18.881924381307627,9.43150684708257,27.176314011510065
-0.3185,0.9327,0.138,-0.0066,0.2294,0.0238,-0.2713,-1.89,-13.4575,8.611904429648959,-18.860960442019998,7.726126354949883,27.188552790329027
-0.3004,0.9753,0.1447,-0.0066,0.2294,0.0238,-1.12,-1.6275,-13.9038,8.50593598771662,-18.375542925306817,7.813747184910858,27.200743082617862
-0.2964,0.9776,0.1434,-0.0032,0.2301,0.0295,-2.1175,-1.085,-14.5425,8.4463245827701,-17.546266436422354,4.8395441799782075,27.212918510423012
-0.3007,0.9633,0.1443,-0.0032,0.2301,0.0284,-3.5875,-0.0963,-13.58,8.480579641862425,-17.540341726713006,4.819973571191812,27.22512118978159
-0.3108,0.9433,0.1431,-0.005,0.2279,0.0284,-4.585,0.5775,-11.9962,8.575550916651231,-17.847446679793816,4.748015832277638,27.234166228105412
-0.311,0.9306,0.1422,-0.005,0.2258,0.0238,-4.6813,1.2075,-9.52,8.65011700349394,-18.19538276829971,5.154373384384486,27.246265209994455
-0.2702,0.937,0.1497,-0.005,0.2258,0.0238,-5.3987,0.9363,-7.1925,8.961526951388537,-16.206705132031313,5.7233081310933995,27.258333401167288
-0.2489,0.9553,0.1494,-0.0095,0.2256,0.0254,-5.845,0.5425,-4.3225,8.906161867835348,-14.608461967049248,6.653820047237577,27.270484408749237
-0.2269,0.9626,0.1518,-0.0095,0.2256,0.0254,-4.7775,-0.3763,-1.855,8.94356848214744,-13.225250466540158,8.276764842172975,27.28266903837762
-0.2095,0.9576,0.1499,-0.009,0.2242,0.0282,-4.1125,-0.1225,-1.645,8.916184448892672,-12.2761392753097,7.5161654494500265,27.29483455652698
-0.2061,0.9598,0.1512,-0.0114,0.224,0.0255,-4.2962,-0.14,-2.8087,8.938416412108662,-12.001408928032797,8.58877690481767,27.306969283960125
-0.1843,0.9612,0.1478,-0.0114,0.224,0.0255,-3.9725,0.3675,-3.6575,8.828468343966655,-10.847464456036752,8.938916512437732,27.31592371971671
-0.1751,0.9573,0.1566,-0.0116,0.2223,0.0253,-3.6488,0.5075,-3.8763,9.052705351426596,-10.289881164221429,10.051354007899379,27.32801916244297
-0.1659,0.9524,0.1462,-0.0116,0.2223,0.0253,-3.6488,0.4725,-3.5963,8.894697965981958,-9.816584985648827,10.039780269021943,27.340199545076015
-0.1587,0.9491,0.1502,-0.0144,0.2214,0.0281,-3.815,1.0675,-2.7913,8.946279964792483,-9.415315740609575,10.02582057426646,27.352268090165126
-0.1499,0.9463,0.1499,-0.016,0.218,0.0255,-3.395,0.945,-1.8112,8.968703072136494,-8.933181604737063,10.041390611027223,27.364412727254066
-0.1394,0.9412,0.1483,-0.016,0.218,0.0255,-2.45,0.98,-0.98,8.965747034794305,-8.368415942626852,10.069169341708227,27.373366809094374
-0.1112,0.923,0.1434,-0.0202,0.2174,0.0265,-1.9337,0.4638,0.98,8.907063589233214,-6.890628241104485,9.630226630176244,27.38549835128102
-0.0947,0.9171,0.1466,-0.0202,0.2174,0.0265,-1.5137,0.105,2.2662,9.002185516833157,-5.885572808367934,10.253061907128025,27.39756477287246
-0.0775,0.9231,0.1485,-0.0198,0.214,0.0237,-2.5375,0.315,3.395,9.021864384959128,-4.802316342735948,12.611599278811633,27.409621284808107
-0.0659,0.9251,0.1541,-0.0198,0.214,0.0237,-1.995,0.3413,3.99,9.202749368476116,-4.0616094714746325,15.15984620219172,27.421705048297184
-0.0438,0.9214,0.1515,-0.0231,0.2126,0.0201,-2.2225,0.7962,3.325,9.24655744434649,-2.7624954403135167,16.995448752013143,27.43065382139332
-0.0404,0.9264,0.1562,-0.0238,0.2097,0.0262,-2.4413,1.6187,2.17,9.314299936622195,-2.4802908317842456,16.41398980582522,27.44272484389638
-0.0347,0.9262,0.1591,-0.0238,0.2097,0.0262,-2.9138,2.8087,1.225,9.388859167310772,-2.1377927054023935,16.815090523571126,27.454776047087854
-0.0397,0.9173,0.1634,-0.0266,0.2074,0.0257,-3.0625,3.6138,-0.49,9.575969593231921,-2.4183512592892185,17.19066095072241,27.466898033534985
-0.0519,0.9196,0.1595,-0.0266,0.2074,0.0257,-2.8788,4.6112,-2.3888,9.614914369222348,-3.1200055094274552,15.371527772672065,27.479089387572657
-0.0643,0.9185,0.1666,-0.0286,0.2066,0.0239,-2.4938,5.355,-3.3163,9.731281532065925,-3.867461687339299,16.96204874001505,27.488036745003676
-0.0756,0.9223,0.1648,-0.0306,0.2063,0.027,-0.98,5.5563,-5.985,9.98428785073275,-4.526330033188103,12.591521298856353,27.50014952962757
-0.09,0.9224,0.1695,-0.0306,0.2063,0.027,0.5862,6.2475,-6.6937,10.312720863947497,-5.360223102801874,12.12899678824202,27.512198609321377
-0.0973,0.9234,0.1582,-0.0313,0.2069,0.0236,2.3712,6.8863,-7.7088,9.818977668667612,-5.846363402633913,12.457323642885196,27.524302546038314
-0.1197,0.9269,0.1549,-0.0313,0.2069,0.0236,3.3775,6.6413,-8.645,9.534195542120735,-7.020271374035275,10.96252737668391,27.536402235759912
-0.1483,0.9443,0.1555,-0.0332,0.2054,0.0192,4.3575,6.4488,-10.6312,9.373810282910028,-8.35389134372499,12.380662257762454,27.545366227256014
-0.1803,0.9648,0.1588,-0.0332,0.2054,0.0192,5.005,6.3088,-11.2525,9.349831117153888,-9.815604453148097,11.758812685591476,27.55744149675441
-0.2119,0.9581,0.1516,-0.0339,0.2051,0.0188,5.9675,6.2562,-11.0513,9.028416792866023,-11.609050287422559,10.230362654505164,27.56959462783403
-0.2276,0.9561,0.1432,-0.034,0.2052,0.0183,6.3525,5.5913,-9.5375,8.568894965606715,-12.921652653118311,8.988823049900153,27.581651847602235
-0.2224,0.9518,0.1326,-0.034,0.2052,0.0183,5.0838,5.5738,-7.0175,8.003675269209404,-13.016007701515973,7.6078903293029745,27.59377914279354
-0.1981,0.9703,0.1388,-0.0371,0.2039,0.0162,4.8038,6.265,-5.11,8.124728823173918,-11.594106575662028,9.185370228354227,27.602747381284978
-0.1929,0.9752,0.133,-0.0371,0.2039,0.0162,3.9813,6.9212,-2.8525,7.812854341349685,-11.132046919182567,8.720458385704454,27.61476673201141
-0.2084,0.9759,0.1354,-0.0358,0.2025,0.017,2.1,8.435,-2.3538,7.88416378740732,-11.876753981599393,8.192873908789215,27.62684766417026
-0.2199,0.9759,0.1408,-0.0358,0.2025,0.0178,1.9862,9.1962,-3.7888,8.152601432901827,-12.507866855620177,8.134425557746955,27.63891231618031
-0.2334,0.9858,0.1422,-0.0389,0.203,0.0178,1.2075,9.3625,-3.9638,8.196885091858908,-13.124316011148514,7.727435587157908,27.65101979206003
-0.2318,0.9726,0.1477,-0.0394,0.2014,0.0142,-0.0175,8.9862,-2.9575,8.516221505552057,-13.247108198937436,10.501451467677699,27.660036517081593
-0.2266,0.9521,0.1369,-0.0394,0.2014,0.0142,-0.6038,8.8025,-2.38,8.289974512283832,-13.255177367917748,9.885261591366895,27.671800694171388
-0.2075,0.9468,0.1339,-0.0434,0.198,0.0139,-0.0613,8.1375,-1.6975,8.115559727002607,-12.321996657588146,9.45459262238847,27.68409008301814
-0.1951,0.9569,0.1351,-0.0434,0.198,0.0139,-0.63,6.6062,-2.31,8.061999041504706,-11.487877367147712,9.632055138591605,27.69653625677617
-0.1767,0.9664,0.1382,-0.0453,0.1989,0.0106,-1.19,6.09,-2.7388,8.108030674179416,-10.363445673928256,11.99459593920316,27.70860303228389
-0.1765,0.9806,0.1369,-0.0482,0.1978,0.0134,-1.61,5.6963,-4.0775,8.024157732857471,-10.131947026089236,10.126543277311171,27.717893688504834
-0.1841,0.9562,0.1323,-0.0482,0.1978,0.0134,-2.905,6.0113,-4.41,7.999766485833292,-10.732013923713954,9.447353863036811,27.72990808440337
-0.1822,0.9863,0.1417,-0.0486,0.1967,0.0121,-4.5237,5.1013,-3.78,8.113232023654941,-10.396535378780039,10.604031102628731,27.741989724394777
-0.1722,0.9765,0.1382,-0.0486,0.1967,0.0121,-4.7425,4.5413,-4.6463,8.074400866729427,-9.953871986980003,10.758449224242435,27.75407030263735
-0.1738,0.9709,0.1415,-0.0496,0.1938,0.0096,-4.83,3.815,-6.6062,8.222333334010285,-10.03359301882432,12.11029418538387,27.7660811593731
-0.1909,0.97,0.1389,-0.0496,0.1938,0.0107,-5.1712,3.5438,-7.175,8.170246671645272,-10.890060486124222,11.423852960821069,27.778091662192576
-0.2019,0.9726,0.1311,-0.0493,0.1926,0.0107,-5.6963,2.8525,-6.9038,7.800463138087295,-11.529164472831672,10.418773029616583,27.787430451027365
-0.21,0.9487,0.1376,-0.0525,0.1925,0.0129,-7.07,1.8288,-3.64,8.168367713839167,-12.280513452565277,9.86120555419303,27.799661797604482
-0.1357,0.9925,0.1591,-0.0525,0.1925,0.0129,-7.8313,0.7875,-0.385,8.953907261069862,-8.012396859737926,10.503982933452122,27.811536750489378
-0.1357,0.9955,0.1671,-0.0559,0.1901,0.0146,-8.9162,-0.0875,1.0587,9.44887747690471,-7.679302549154778,11.27359508643484,27.823540528899564
-0.1178,0.9478,0.1559,-0.0559,0.1901,0.0146,-9.7825,-0.4288,2.8,9.35411376315241,-7.031421726749969,11.599510703289754,27.835640572537443
-0.1164,0.9384,0.1405,-0.0561,0.1906,0.0218,-7.6213,-0.2625,-0.5075,8.65704434000614,-6.996415366951667,7.736837710677357,27.847753711077615
-0.1301,0.9249,0.1518,-0.0579,0.1901,0.0163,-6.93,0.4112,-5.67,9.193605727747757,-7.800670603874238,8.623214627342385,27.857021362740472
-0.1418,0.9194,0.1458,-0.0579,0.1901,0.0163,-6.5012,-0.1575,-10.2112,9.04909704251479,-8.463487919972735,8.855417089154383,27.86915609017362
-0.1572,0.9496,0.1588,-0.0603,0.1895,0.0169,-5.495,-1.0675,-10.6662,9.376319724234897,-9.065498264859322,9.088831108471759,27.881365140025206
-0.1519,0.9639,0.1504,-0.0603,0.1895,0.0169,-3.7362,-1.2425,-10.0625,9.118589031788982,-8.897999812953824,8.346436074137198,27.893532073839676
-0.143,0.9584,0.1512,-0.0598,0.1856,0.0166,-2.9575,-1.4875,-10.815,9.087737179267872,-8.521177677266232,8.285292317261177,27.905753156844725
-0.1484,0.965,0.1491,-0.0596,0.1882,0.0174,-2.1263,-0.5425,-17.6138,8.976026332507987,-8.617772111027,7.822352811724382,27.917875497208133
-0.1524,0.9659,0.1517,-0.0596,0.1882,0.0174,-1.4437,0.385,-20.055,8.947955578328939,-8.82712824688222,7.804190976793365,27.93002013429707
-0.1747,0.9788,0.1656,-0.0598,0.1892,0.0178,-1.6625,0.945,-22.0412,9.282261398447758,-9.859134164199533,7.895875823771336,27.94204585551651
-0.19,0.9639,0.153,-0.0598,0.1892,0.0178,-1.54,1.5487,-22.0237,9.14073842759617,-10.894118996609535,7.684816245254988,27.95416147147063
-0.2014,0.9498,0.1568,-0.059,0.1892,0.0182,-1.0062,1.8463,-22.0937,9.287750944212537,-11.719774080916471,7.640718622986252,27.96352751185885
-0.2078,0.96,0.1509,-0.0574,0.1932,0.0164,0.28,1.0587,-21.0613,9.02207271541096,-12.028730244209399,7.642065167194152,27.97554721650156
-0.2104,0.9634,0.1516,-0.0574,0.1932,0.0164,1.4,1.1025,-20.0025,8.95824219782771,-12.154742389404193,7.661070031877417,27.98761116067905
-0.1888,0.9543,0.1412,-0.0553,0.1918,0.0157,1.8025,0.2538,-19.6,8.514873524548209,-11.227124134225791,7.738596253945561,27.999631573154318
-0.1789,0.9418,0.1451,-0.0553,0.1918,0.0157,2.8087,-0.6825,-19.8013,8.721105513975525,-10.715060925598078,8.330547626302058,28.01191317584295
-0.1695,0.9478,0.1471,-0.0558,0.1909,0.0125,3.3863,-1.2425,-21.525,8.807780122664482,-10.099178002102917,10.103940077857434,28.023857142402107
