AcclX,AcclY,AcclZ,MagX,MagY,MagZ,GyroX,GyroY,GyroZ,Roll,Pitch,Yaw,Time(s)
-0.1729,0.9756,0.05,-0.4506,0.2115,0.0118,-2.7037,0.4725,-14.4725,0,0,0,1.6210643182669993
-0.1744,0.9475,0.0538,-0.4506,0.2115,0.0118,-3.43,0.9013,-14.3062,0,0,0,1.6331484356723542
-0.171,0.9767,0.0555,-0.4518,0.2102,0.0114,-3.0275,1.1638,-13.6763,0,0,0,1.6452718377845974
-0.1756,0.9743,0.0569,-0.4518,0.2102,0.0114,-2.66,1.1812,-14.3675,0,0,0,1.654611688368223
-0.1743,0.9745,0.0528,-0.4502,0.2128,0.0108,-3.0888,1.1287,-14.7262,0,0,0,1.6667793300152502
-0.1727,0.9753,0.0562,-0.4502,0.2128,0.0108,-2.8438,0.9625,-14.2012,0,0,0,1.6789027321274934
-0.1739,0.9755,0.055,-0.4494,0.2102,0.01,-2.9663,1.4787,-14.4462,0,0,0,1.6909234985190373
-0.172,0.9749,0.0557,-0.4494,0.2102,0.01,-3.1588,1.1375,-13.895,0,0,0,1.703046192798724
-0.1725,0.973,0.0559,-0.4497,0.2114,0.0115,-3.2375,0.665,-14.3062,0,0,0,1.7151830437295414
-0.1765,0.975,0.0578,-0.4514,0.21,0.011,-3.0713,0.8575,-14.0437,0,0,0,1.7273078615068975
-0.1746,0.9747,0.0578,-0.4514,0.21,0.011,-3.0363,1.1638,-13.965,0,0,0,1.7393066850891885
-0.174,0.9739,0.0569,-0.4502,0.2106,0.0114,-3.2987,1.3125,-14.3675,0,0,0,1.7488149998212723
-0.1739,0.9753,0.058,-0.4502,0.2106,0.0114,-3.1937,1.0937,-14.6037,0,0,0,1.7608470915337209
-0.1754,0.9767,0.0522,-0.4495,0.2118,0.0094,-3.2725,0.9975,-14.0963,0,0,0,1.7730395073202272
-0.1761,0.9762,0.0545,-0.4495,0.2118,0.0117,-3.1238,0.98,-14.2712,0,0,0,1.7851462753673917
-0.174,0.9752,0.0531,-0.4515,0.2104,0.0117,-2.555,1.1375,-14.4375,0,0,0,1.7971617330147613
-0.1749,0.9756,0.0534,-0.4508,0.2101,0.0104,-2.9575,1.4875,-14.4987,0,0,0,1.8092918595362917
-0.1737,0.9738,0.0522,-0.4508,0.2101,0.0104,-2.8087,0.9887,-14.0,0,0,0,1.8213965040857865
-0.1749,0.9737,0.0562,-0.4505,0.2104,0.0121,-3.0538,1.3125,-14.5338,0,0,0,1.8307370625019685
-0.1725,0.974,0.0549,-0.4505,0.2104,0.0121,-2.9138,1.015,-14.3762,0,0,0,1.8428367522235674
-0.1738,0.9751,0.0528,-0.4508,0.2094,0.0141,-3.2375,1.0062,-14.6825,0,0,0,1.854928301870766
-0.1748,0.975,0.0547,-0.4512,0.2107,0.0113,-3.36,1.0325,-14.6825,0,0,0,1.8670481648202264
-0.1746,0.9754,0.0496,-0.4512,0.2107,0.0113,-3.325,0.8138,-14.5513,0,0,0,1.8793789618715375
-0.1726,0.9771,0.0559,-0.4492,0.2089,0.0103,-3.0625,1.2075,-14.6212,0,0,0,1.8913116031097914
-0.1726,0.9747,0.0531,-0.4492,0.2089,0.0103,-2.695,1.2775,-14.8837,0,0,0,1.9033727159570586
-0.1756,0.9742,0.0492,-0.4514,0.211,0.0119,-2.9488,1.0762,-15.0062,0,0,0,1.9155021346460324
-0.1729,0.975,0.0544,-0.451,0.2102,0.0118,-2.6425,1.19,-14.7087,0,0,0,1.924826412913414
-0.1763,0.9765,0.0522,-0.451,0.2102,0.0118,-2.3013,1.1812,-14.8312,0,0,0,1.9369752969976928
-0.1729,0.9752,0.0595,-0.4495,0.2098,0.0122,-2.8788,1.1987,-15.1112,0,0,0,1.94902614627289
-0.174,0.9753,0.0539,-0.4495,0.2098,0.0122,-2.38,1.4962,-14.805,0,0,0,1.9611633511199857
-0.1751,0.9749,0.0578,-0.4502,0.2107,0.009,-2.4588,1.5225,-14.7788,0,0,0,1.973237558869549
-0.1746,0.9742,0.0543,-0.4494,0.2105,0.0098,-2.5288,0.7613,-15.05,0,0,0,1.9853864429538277
-0.1738,0.9747,0.0549,-0.4494,0.2105,0.0098,-2.3538,1.1725,-14.6125,0,0,0,1.9974730377731305
-0.1749,0.9749,0.0512,-0.4502,0.2099,0.0112,-2.5113,1.4,-14.3937,0,0,0,2.006821736263713
-0.1737,0.9755,0.0548,-0.4502,0.2099,0.0112,-2.8,1.1112,-14.6737,0,0,0,2.018928858227156
-0.1749,0.9748,0.0517,-0.4502,0.2115,0.0059,-2.8087,1.33,-14.735,0,0,0,2.03105402992079
-0.1745,0.975,0.0537,-0.4502,0.2105,0.0102,-2.31,1.3562,-14.8137,0,0,0,2.0431703537074677
-0.175,0.9745,0.0515,-0.4502,0.2105,0.0102,-2.975,1.4,-14.7437,0,0,0,2.0552339439686826
-0.1717,0.9769,0.0581,-0.4522,0.209,0.0106,-2.9138,1.2687,-14.4462,0,0,0,2.067350621671639
-0.1745,0.9751,0.05,-0.4522,0.209,0.0106,-2.73,1.1375,-14.665,0,0,0,2.079483225607117
-0.1759,0.9765,0.0516,-0.4529,0.2101,0.0068,-2.6338,1.2075,-14.5075,0,0,0,2.0915673430124717
-0.175,0.9732,0.0559,-0.4506,0.2113,0.0119,-2.7388,0.7,-14.315,0,0,0,2.1009326755681332
-0.174,0.9744,0.0533,-0.4506,0.2113,0.0119,-3.0625,0.8838,-14.1662,0,0,0,2.113214986089321
-0.1713,0.9747,0.0551,-0.4531,0.2106,0.0117,-2.3712,0.7875,-14.4725,0,0,0,2.1251398411694526
-0.1743,0.9748,0.0504,-0.4531,0.2106,0.0117,-2.6075,1.19,-14.4637,0,0,0,2.137256518872409
-0.1737,0.9734,0.0555,-0.4502,0.2112,0.0102,-2.5988,1.0237,-14.5338,0,0,0,2.149447518993802
-0.1732,0.9744,0.0552,-0.4502,0.2112,0.0122,-2.8,1.12,-14.0437,0,0,0,2.16148385770159
-0.1731,0.9741,0.053,-0.4488,0.211,0.0122,-2.6163,1.3212,-14.175,0,0,0,2.1736139842231204
-0.1745,0.9745,0.0536,-0.4516,0.2109,0.0113,-2.87,1.4875,-14.3762,0,0,0,2.1829442790672324
-0.1773,0.9751,0.0545,-0.4516,0.2109,0.0113,-3.01,0.7962,-14.4812,0,0,0,2.1950652037655276
-0.1723,0.976,0.0578,-0.4515,0.2095,0.0134,-3.2113,1.2075,-14.4025,0,0,0,2.207265051793878
-0.1748,0.9737,0.0548,-0.4515,0.2095,0.0134,-3.4125,1.0762,-14.315,0,0,0,2.21921857409255
-0.1745,0.9762,0.0514,-0.451,0.2098,0.0107,-3.2813,0.8838,-14.6037,0,0,0,2.2313653346791593
-0.1729,0.9748,0.0562,-0.4502,0.2093,0.0113,-2.835,1.1112,-14.42,0,0,0,2.2434671478984276
-0.1745,0.9766,0.0537,-0.4502,0.2093,0.0113,-2.835,0.98,-14.3675,0,0,0,2.2555010091922676
-0.1726,0.975,0.0561,-0.4515,0.2129,0.0115,-2.7913,0.98,-14.3238,0,0,0,2.2649236761850093
-0.1745,0.9748,0.0517,-0.4515,0.2129,0.0115,-3.3688,1.3737,-15.0325,0,0,0,2.277021950241495
-0.1721,0.974,0.0527,-0.4514,0.2112,0.0142,-2.9488,1.3125,-14.2975,0,0,0,2.289186406642018
-0.1733,0.9756,0.0481,-0.4545,0.2097,0.014,-2.8175,1.4088,-14.4025,0,0,0,2.3013059156752
-0.1729,0.9762,0.0549,-0.4545,0.2097,0.014,-2.6075,1.2337,-14.2537,0,0,0,2.313313941080726
-0.1759,0.9753,0.0524,-0.4495,0.2106,0.0112,-2.52,0.8663,-14.7525,0,0,0,2.3254752122347444
-0.175,0.9761,0.0538,-0.4495,0.2106,0.0112,-3.0188,1.1725,-14.4375,0,0,0,2.337570654961004
-0.1732,0.9745,0.0571,-0.4514,0.2113,0.0114,-2.5988,0.8575,-14.5338,0,0,0,2.349700781482534
-0.1741,0.9753,0.0519,-0.4509,0.2109,0.0117,-2.7738,1.3125,-14.4637,0,0,0,2.3590516034707862
-0.1718,0.9744,0.054,-0.4509,0.2109,0.0117,-3.0888,1.2425,-14.875,0,0,0,2.371122272057567
-0.1754,0.9746,0.054,-0.451,0.2106,0.0126,-3.29,0.9275,-15.0062,0,0,0,2.3832502750814273
-0.1759,0.9777,0.0548,-0.451,0.2106,0.0126,-2.4675,1.12,-15.155,0,0,0,2.3953478413053566
-0.1732,0.9728,0.0519,-0.4509,0.2106,0.0135,-2.7125,1.3212,-14.98,0,0,0,2.407464872924591
-0.1746,0.9751,0.0497,-0.4518,0.2102,0.0138,-3.2025,1.3475,-14.6387,0,0,0,2.41953377192998
-0.171,0.9766,0.0534,-0.4518,0.2102,0.0138,-2.8438,1.1638,-14.5862,0,0,0,2.431684071679372
-0.1738,0.9756,0.0526,-0.4498,0.2108,0.0115,-3.6575,0.7525,-14.1487,0,0,0,2.441709104177734
-0.1732,0.9742,0.0542,-0.4498,0.2108,0.0115,-3.7538,0.5075,-14.3675,0,0,0,2.4531122866636914
-0.1743,0.9741,0.0526,-0.4511,0.2107,0.0042,-3.0625,1.1725,-15.015,0,0,0,2.465265771659588
-0.1736,0.9758,0.0532,-0.4508,0.2114,0.0094,-2.8525,0.945,-14.6562,0,0,0,2.4772982172883147
-0.1713,0.9747,0.0516,-0.4508,0.2114,0.0094,-3.0363,1.2512,-14.9888,0,0,0,2.489399322675027
-0.1729,0.975,0.0565,-0.4523,0.2102,0.0122,-3.115,1.1112,-15.05,0,0,0,2.5015648408243845
-0.1751,0.9729,0.0529,-0.4523,0.2102,0.0122,-2.6775,1.1987,-14.4812,0,0,0,2.5136316163321037
-0.1749,0.9746,0.0572,-0.4506,0.2099,0.0108,-2.38,0.9975,-14.63,0,0,0,2.5256973300909884
-0.1714,0.9757,0.0576,-0.4506,0.2099,0.0088,-2.7125,1.2512,-14.5162,0,0,0,2.5353656149808517
-0.1731,0.9752,0.0575,-0.4498,0.2106,0.0088,-3.08,1.3475,-14.2712,0,0,0,2.5472543706005997
-0.1751,0.9747,0.0551,-0.4524,0.2106,0.0118,-2.415,0.7875,-14.4725,0,0,0,2.559388390201191
-0.1718,0.9744,0.0513,-0.4524,0.2106,0.0118,-2.3187,1.2337,-14.525,0,0,0,2.571419420164805
-0.1731,0.9753,0.0553,-0.4506,0.212,0.0174,-2.8263,0.9538,-13.9562,0,0,0,2.583536805700317
-0.1717,0.9741,0.0547,-0.4506,0.212,0.0174,-2.2925,1.0675,-14.5425,0,0,0,2.5956602078125606
-0.1732,0.9744,0.0552,-0.45,0.2099,0.0135,-3.3775,1.0412,-13.6062,0,0,0,2.6077786550969075
-0.1759,0.9751,0.0581,-0.4518,0.2093,0.0112,-2.87,1.0762,-13.7725,0,0,0,2.6171294770851596
-0.1749,0.9758,0.0547,-0.4518,0.2093,0.0112,-2.485,1.2775,-13.8775,0,0,0,2.6294669985457584
-0.1722,0.9741,0.0544,-0.4502,0.2101,0.0095,-3.0713,0.98,-13.8512,0,0,0,2.6413338113562532
-0.1756,0.9763,0.0535,-0.4502,0.2101,0.0095,-2.6775,1.1987,-14.2362,0,0,0,2.653421467924391
-0.176,0.9761,0.0589,-0.451,0.2106,0.0145,-3.3513,1.015,-14.5338,0,0,0,2.6655416847901297
-0.1738,0.9764,0.0548,-0.451,0.211,0.011,-2.7562,1.0937,-14.3675,0,0,0,2.677613415125745
-0.1749,0.974,0.0556,-0.451,0.211,0.011,-2.8263,0.6125,-14.1575,0,0,0,2.689729384996144
-0.1754,0.9763,0.0534,-0.4511,0.2087,0.01,-3.0275,0.6475,-13.8687,0,0,0,2.7017505053039663
-0.1745,0.9765,0.0524,-0.4511,0.2087,0.01,-2.765,0.9363,-14.0875,0,0,0,2.7104016348100726
-0.1717,0.9748,0.0571,-0.4517,0.2129,0.0143,-2.7213,0.91,-14.2537,0,0,0,2.722595112345414
-0.1748,0.9748,0.0554,-0.4512,0.209,0.0118,-3.1588,1.3125,-14.3762,0,0,0,2.734819380596965
-0.1751,0.9756,0.0554,-0.4512,0.209,0.0118,-2.8963,1.155,-14.035,0,0,0,2.7470365705229502
-0.1743,0.9745,0.0529,-0.4511,0.2086,0.011,-2.9838,1.2163,-14.2625,0,0,0,2.7596059071458177
-0.1749,0.9748,0.0569,-0.4511,0.2086,0.011,-2.765,1.4875,-14.3413,0,0,0,2.77179301418815
-0.1728,0.9742,0.0531,-0.4506,0.211,0.013,-3.3338,1.2425,-14.6475,0,0,0,2.783899782235314
-0.1743,0.9753,0.0533,-0.449,0.2103,0.0082,-3.0275,1.0412,-14.6475,0.7617248286717044,-5.189066463900825,0.001422112230031058,11.247704587498191
-0.1706,0.9737,0.0559,-0.449,0.2103,0.0082,-2.5463,1.2337,-14.5425,1.1085581545835905,-7.492033436209977,0.07474749430035738,11.252751433626363
-0.1767,0.9761,0.055,-0.4513,0.211,0.0122,-2.5463,1.0237,-14.455,1.3993881465200444,-8.765174763780887,0.07243698033224288,11.257185296760568
-0.172,0.9742,0.0533,-0.4513,0.211,0.0122,-2.8,1.015,-14.6825,1.5487999508187034,-9.407528285664034,0.06807999318682766,11.262184364191175
-0.1748,0.9747,0.0504,-0.4502,0.2107,0.0144,-2.8525,1.4875,-14.77,1.7295517565961285,-9.810793043413295,0.08091472604418555,11.26676793391109
-0.1719,0.9769,0.0536,-0.4505,0.21,0.013,-3.01,1.295,-14.8312,2.0588184936936367,-9.896152604145875,0.09996163276077659,11.271226571184773
-0.1726,0.9761,0.0542,-0.4505,0.21,0.013,-2.4237,0.7525,-14.6387,2.304983124795784,-9.955642439755794,0.113440496657367,11.2741109888527
-0.1739,0.9755,0.0581,-0.4514,0.2096,0.0097,-2.2488,1.1725,-14.945,2.6509971617237222,-10.032998410912093,0.06313758479803779,11.276880737646463
-0.1725,0.9753,0.0553,-0.4514,0.2096,0.0097,-2.8438,1.0675,-14.9888,2.723146309598318,-10.022132603457615,0.05597898705577709,11.279479544877823
-0.1727,0.9759,0.0537,-0.451,0.2114,0.0068,-2.7738,1.2687,-15.05,2.750371337232918,-10.021218454396147,0.05941347612614274,11.28197005372803
-0.1725,0.9756,0.0551,-0.451,0.2102,0.0179,-2.7475,1.4088,-14.6387,2.769759191892158,-10.016226239091074,0.14782598249816434,11.284451360755002
-0.1743,0.9756,0.0508,-0.4506,0.2102,0.0179,-2.0825,0.9275,-14.9275,2.8507498068642114,-10.073303852982374,0.21923950842697149,11.286942223521487
-0.1756,0.9759,0.0565,-0.4484,0.2098,0.0126,-2.695,0.7962,-15.1462,2.8556048624154906,-10.140465117066892,0.18638063597034366,11.289476617990202
-0.173,0.9743,0.0542,-0.4484,0.2098,0.0126,-3.5875,1.1112,-14.6912,3.0095278153680516,-10.094961704637642,0.18169657614024395,11.292028708272829
-0.1718,0.9753,0.0527,-0.4511,0.2108,0.0148,-3.4125,1.12,-14.525,3.0440763269436113,-10.037607253363447,0.1973531706080791,11.29450824571841
-0.1734,0.9762,0.0565,-0.4511,0.2108,0.0148,-2.7913,1.1462,-14.2887,3.0652587848915407,-10.04504795834261,0.20763625516243486,11.297110946028829
-0.1704,0.9747,0.0502,-0.4516,0.2107,0.0081,-2.7825,1.3825,-14.7262,3.0569073913551743,-9.96992876721576,0.0726143241528954,11.29968073212537
-0.1772,0.9745,0.0513,-0.4512,0.2098,0.0109,-2.625,1.0062,-14.56,3.053662454465968,-10.128090838094934,0.0692755392151799,11.302229637161492
-0.1737,0.9751,0.0547,-0.4512,0.2098,0.0109,-2.2925,1.4525,-14.805,3.09958376846313,-10.104462356411695,0.01927888269143582,11.304177238440829
-0.1714,0.9742,0.0526,-0.4512,0.2101,0.0121,-2.1963,1.4,-14.2887,3.0965425531277924,-10.047011047635259,0.037804952787968575,11.305431871647306
-0.1726,0.9767,0.0556,-0.4512,0.2101,0.0121,-2.8963,1.6975,-13.9825,3.1224208306704786,-10.035502915451742,0.029440662492322092,11.306668455123592
-0.1749,0.9761,0.058,-0.4501,0.2096,0.0122,-2.9488,1.33,-14.0875,3.176824004024436,-10.070356854769528,0.016180519236579826,11.307910701260331
-0.1751,0.9747,0.0508,-0.4498,0.2102,0.0111,-2.8875,1.0937,-14.0087,3.1470674492518267,-10.099753263648036,0.016230298092494513,11.309204619173697
-0.1733,0.9747,0.0542,-0.4498,0.2102,0.0111,-2.6075,1.0587,-14.5075,3.1502562212916407,-10.08388683411248,0.015047901629829783,11.31041925984073
-0.1749,0.9767,0.0555,-0.4505,0.2108,0.0108,-2.9925,0.77,-14.4287,3.1730005563066106,-10.10780028223178,0.018434871206557367,11.311669646051868
-0.1744,0.9759,0.0611,-0.4505,0.2108,0.0108,-3.5263,1.3037,-14.1662,3.3576079860212977,-10.109618080445387,0.07332038163521783,11.312877208393337
-0.1708,0.9731,0.0546,-0.4509,0.21,0.0122,-3.7625,0.98,-14.385,3.2825132523267824,-10.034704257314962,0.06583330137843384,11.314098927385935
-0.1742,0.9756,0.0586,-0.4499,0.2094,0.0115,-3.0013,1.2337,-14.595,3.317854990616927,-10.07036816050884,0.07578717975744821,11.315335864778499
-0.1731,0.9742,0.0544,-0.4499,0.2094,0.0115,-2.8087,1.0587,-14.56,3.306477247562485,-10.065301140821415,0.07506532947401263,11.31654908978042
-0.1739,0.9755,0.0553,-0.4502,0.2112,0.0109,-2.4675,1.2512,-14.4987,3.2945698835020085,-10.077943951125926,0.08407968587861042,11.317760899117227
-0.1743,0.9755,0.0525,-0.4502,0.2112,0.0109,-2.3538,0.875,-14.91,3.238885754684088,-10.099693946846864,0.07993953680071428,11.319027565477166
-0.1724,0.9769,0.0573,-0.4517,0.2115,0.01,-3.5438,1.4437,-14.35,3.292668682100829,-10.053133005364902,0.13860959174867732,11.320261671539503
-0.1721,0.9753,0.0549,-0.4517,0.2078,0.0154,-2.7213,1.47,-14.175,3.2915735285996925,-10.030614813290011,0.03411863905271176,11.321490114941389
-0.1727,0.9755,0.0534,-0.4517,0.2078,0.0154,-2.6513,0.7875,-14.0875,3.2834218588189565,-10.028684975413428,0.12509347144243343,11.322683874548005
-0.174,0.974,0.052,-0.4507,0.2094,0.0111,-2.5638,0.9187,-14.2537,3.25517902895938,-10.062827974189863,0.11002297604914818,11.323914795363837
-0.175,0.9757,0.055,-0.4507,0.2094,0.0111,-2.8525,1.0675,-14.21,3.251484828901049,-10.097017478149402,0.10572678112143356,11.325166243323812
-0.1744,0.9749,0.0536,-0.4492,0.2106,0.011,-2.9925,1.4437,-14.4462,3.2281809924014353,-10.110985696997005,0.05588085336501662,11.326360710762984
-0.1731,0.9762,0.0522,-0.451,0.2084,0.0115,-2.905,1.3475,-14.4112,3.200361388029032,-10.079586071879016,0.052754855684886984,11.327554824285876
-0.1737,0.9751,0.0561,-0.451,0.2084,0.0115,-2.8087,1.295,-14.49,3.208995439804565,-10.081735689041697,0.030532305127848654,11.328794593008666
-0.1733,0.9759,0.0585,-0.4524,0.2089,0.0116,-3.0713,1.015,-14.7525,3.268300624172768,-10.065737349840782,0.026477401411974154,11.329987998699004
-0.1726,0.9744,0.054,-0.4524,0.2089,0.0116,-3.1325,1.26,-14.5513,3.2394937889376054,-10.048165791682816,0.02227310523408009,11.331163708575426
-0.1756,0.9764,0.0573,-0.453,0.2088,0.0125,-2.835,1.2862,-14.6562,3.2531340409555365,-10.11511764264611,0.023621947861096913,11.332354990768094
-0.1731,0.9755,0.0569,-0.453,0.2093,0.0136,-2.6513,1.3212,-15.0937,3.2575169028156763,-10.073373261810724,0.05422045709613342,11.333583434169979
-0.1729,0.9743,0.0534,-0.4491,0.2093,0.0136,-2.73,0.7437,-14.8137,3.25465063860226,-10.05955294220857,0.10053306144617008,11.334859302353154
-0.1743,0.9768,0.0551,-0.4511,0.2098,0.0097,-2.2838,0.665,-14.8225,3.2469097578511774,-10.082746079764739,0.0029707978660321547,11.336163837754867
-0.1748,0.9762,0.0515,-0.4511,0.2098,0.0097,-2.695,1.2075,-14.8925,3.2445275185033506,-10.114001664975545,0.020213043791200282,11.33741953271018
-0.1737,0.9723,0.0571,-0.4507,0.2114,0.0128,-2.905,1.0412,-15.05,3.26387967893289,-10.112751797910832,0.01997430225312888,11.338679828577112
-0.1757,0.9751,0.0515,-0.4507,0.2114,0.0128,-2.695,1.3125,-14.4287,3.2613550578828074,-10.152616146842679,0.025299701798032995,11.3399114572255
-0.174,0.9746,0.0567,-0.4508,0.2098,0.0122,-2.6513,1.1725,-14.5775,3.2648693425210804,-10.129461493807282,0.022358775616092598,11.341148040701787
-0.1718,0.9746,0.0549,-0.451,0.2072,0.0118,-2.7475,1.085,-14.07,3.263230352425629,-10.08186941991681,0.0220854250487761,11.342419307973344
-0.1732,0.9767,0.058,-0.451,0.2072,0.0118,-2.6163,1.2075,-14.3762,3.274315263893371,-10.062845980783404,0.01059298293996546,11.343688097830952
-0.1742,0.9742,0.054,-0.4495,0.2098,0.0112,-2.3187,1.0587,-15.0237,3.2459576311298113,-10.098169656366704,0.00974732745268662,11.344949455446718
-0.1725,0.9755,0.0565,-0.4495,0.2098,0.0112,-3.2375,0.9187,-14.315,3.26986478740251,-10.06194043948095,0.004064489477601317,11.346206212150866
-0.1696,0.9761,0.0535,-0.4527,0.2122,0.0161,-2.6075,0.735,-14.1138,3.25801618243347,-9.986920430004105,0.12226742872884377,11.347408819664437
-0.1754,0.9769,0.0509,-0.452,0.2118,0.011,-2.415,0.7962,-14.2975,3.1960052479551373,-10.06056947079132,0.09708182018956664,11.348627353410532
-0.1732,0.9761,0.0537,-0.452,0.2118,0.011,-2.3013,0.735,-14.2712,3.182456342004271,-10.055094018416288,0.05581122231806601,11.349855796812417
-0.1762,0.9756,0.0547,-0.4498,0.2098,0.0125,-2.7825,0.63,-14.0262,3.184359075084802,-10.105385451854167,0.06520007794165852,11.351138035488601
-0.1721,0.9756,0.0562,-0.4498,0.2098,0.0125,-3.0363,0.7263,-14.2887,3.2123301965099667,-10.057322933380927,0.061391724843726805,11.35240434793226
-0.1741,0.9753,0.0515,-0.4506,0.2094,0.0088,-3.1325,0.9887,-14.385,3.1555833222018657,-10.07943977286083,0.04384112668106331,11.353684109194496
-0.1745,0.9762,0.0594,-0.4497,0.2096,0.011,-2.8438,1.47,-14.525,3.1952219616176887,-10.0973033197304,0.03163076337822034,11.354919984838226
-0.176,0.9735,0.058,-0.4497,0.2096,0.011,-2.8263,0.875,-14.5513,3.218308357657783,-10.162233171457327,0.052783005470252164,11.356182758119104
-0.1737,0.9736,0.0564,-0.4552,0.2102,0.0102,-3.0538,1.0325,-14.5775,3.2433843064731604,-10.130953844072184,0.05497916888555573,11.357400230116363
-0.1743,0.9769,0.0525,-0.4552,0.2102,0.0102,-2.625,1.0675,-14.5425,3.2309135893336802,-10.116899807598815,0.05662736332354092,11.358598590634596
-0.1734,0.9766,0.0545,-0.4526,0.2113,0.0192,-2.8612,0.9363,-14.1225,3.2259604361863072,-10.094786398092674,0.03487355401987491,11.359800136399333
-0.1729,0.9749,0.0536,-0.4502,0.2105,0.0109,-3.4913,1.5137,-13.8687,3.191197846774145,-10.08344708172641,0.0018703892808053248,11.361019024061706
-0.1745,0.9737,0.0538,-0.4502,0.2105,0.0109,-3.2725,1.6362,-14.1662,3.1808357309754,-10.105888908623575,0.03352272527948411,11.36221703066366
-0.171,0.975,0.0542,-0.4501,0.2094,0.0103,-2.905,1.645,-14.1312,3.1809931981641886,-10.045379398926643,0.0809315384095693,11.363406897191213
-0.1734,0.9753,0.0548,-0.4501,0.2094,0.0103,-2.87,1.1725,-14.0175,3.1859278331668457,-10.051449532498543,0.09155341898077184,11.364601364630385
-0.1712,0.9733,0.0569,-0.4507,0.2096,0.011,-2.7213,1.1025,-14.6737,3.1883977145075617,-10.003680940025587,0.0947018226087243,11.366191156552388
-0.1753,0.974,0.0501,-0.4508,0.2098,0.0091,-2.4588,1.4088,-14.8137,3.1401280747777496,-10.105840774121853,0.12314613920113485,11.367454283749545
-0.1756,0.9745,0.0565,-0.4508,0.2098,0.0091,-3.3688,1.2425,-14.49,3.2111362000501185,-10.149388579149809,0.1629735401926133,11.368696529886282
-0.1723,0.975,0.0503,-0.4506,0.2105,0.0119,-3.15,1.1987,-14.2012,3.131794556711045,-10.0962674246581,0.12471581662944262,11.3699472700137
-0.1739,0.9748,0.0584,-0.4506,0.2105,0.0119,-3.0188,1.3125,-14.7962,3.2025529225041685,-10.096763369394457,0.11624826450931164,11.371157663685393
-0.1729,0.9737,0.0531,-0.4488,0.2122,0.0119,-3.1063,1.0675,-14.6737,3.179363441599997,-10.074791397648449,0.11280322938495711,11.372348591961783
-0.1762,0.9765,0.0518,-0.4488,0.2117,0.0113,-3.185,1.33,-14.6737,3.133068752105426,-10.147223755030252,0.08591775191001962,11.373559339549754
-0.1712,0.9736,0.057,-0.4486,0.2117,0.0113,-2.8087,1.1638,-14.28,3.1533985427110025,-10.069608912866505,0.09068810096146081,11.374750621742422
-0.1724,0.975,0.0527,-0.451,0.2116,0.0127,-2.975,1.1812,-14.4025,3.1407714737005756,-10.044359258585347,0.06178009972591914,11.375993575711716
-0.1709,0.9759,0.0547,-0.451,0.2116,0.0127,-2.695,1.2075,-15.2687,3.1414781320877987,-9.965055248661038,0.039158106715746904,11.377242192341464
-0.1755,0.9737,0.053,-0.4515,0.2106,0.0131,-2.8875,1.0675,-15.295,3.137499058680243,-10.114583844562647,0.03398101484126175,11.378448692934096
-0.1746,0.976,0.0572,-0.4515,0.2106,0.0131,-2.3187,1.2775,-14.8662,3.1979162589336534,-10.12071483195046,0.010585398797773864,11.379638205545373
-0.1729,0.9727,0.0576,-0.4497,0.211,0.0115,-2.73,1.3212,-15.1637,3.2024646466912516,-10.084816586448744,0.033973671811392915,11.38083550431477
-0.1743,0.9753,0.0515,-0.4535,0.2111,0.0101,-2.5638,1.1725,-14.8925,3.1801334685350406,-10.104008208803359,0.04415222590664931,11.38206500946549
-0.1738,0.9737,0.0522,-0.4535,0.2111,0.0101,-2.835,1.1638,-14.6825,3.167364801484378,-10.105140923661924,0.054768509419264436,11.383255229909324
-0.1728,0.9758,0.0549,-0.4497,0.211,0.0102,-2.2225,0.805,-14.6737,3.1845600700245607,-10.06438227134211,0.08273188347271329,11.38443447894853
-0.1724,0.9752,0.0518,-0.4497,0.211,0.0102,-2.0825,1.2687,-14.9975,3.1292713459516417,-10.033555193756383,0.0895907147053746,11.385625053308638
-0.1772,0.9761,0.0481,-0.4536,0.2109,0.0149,-2.4588,1.4088,-14.6212,3.068273863907453,-10.156943767865522,0.0765123771167689,11.386837570478002
-0.1733,0.9739,0.0528,-0.449,0.2102,0.0105,-3.0888,0.6038,-14.5338,3.0779644533108566,-10.11743103728545,0.020335544321846002,11.388022128261383
-0.1739,0.9765,0.0524,-0.449,0.2102,0.0105,-2.3275,1.19,-14.5162,3.076219588870766,-10.101135104504799,0.0059518660528434545,11.389216595700553
-0.1754,0.9756,0.0546,-0.4504,0.2094,0.0116,-2.6863,1.2425,-15.015,3.0786253207030088,-10.145390822186783,0.002626880546414098,11.390408939642056
-0.1737,0.9741,0.0522,-0.4504,0.2094,0.0116,-2.31,1.1025,-14.49,3.075451308691207,-10.122265601288865,0.004943871580224421,11.391614378485853
-0.172,0.975,0.0558,-0.4512,0.2102,0.0116,-2.7913,1.5487,-14.7,3.0912421937185344,-10.052096170016656,0.013846752477539035,11.392803537180852
-0.1748,0.9748,0.0577,-0.4499,0.2102,0.0109,-2.415,1.1375,-14.0,3.1579453199357927,-10.079979341348057,0.02825819457353382,11.394002959447919
-0.1714,0.975,0.0516,-0.4499,0.2102,0.0109,-2.45,1.05,-14.56,3.131785973776366,-10.019464065684746,0.028250584696010387,11.395202381714986
-0.174,0.9765,0.0561,-0.4502,0.2097,0.0128,-2.4588,1.0412,-14.8137,3.1627149095605724,-10.056596265033633,0.0278241103975941,11.396388355163479
-0.1717,0.9753,0.0537,-0.4502,0.2097,0.0128,-2.3013,1.2425,-14.7,3.1594925509149787,-10.010986118340771,0.0014458121728930405,11.397614675067695
-0.1743,0.9766,0.0509,-0.4504,0.2099,0.0149,-2.5375,0.98,-14.3325,3.1341699511696355,-10.0513080922951,0.0300774953350061,11.39881480516732
-0.1724,0.9762,0.0517,-0.4498,0.2078,0.0082,-2.835,0.6737,-14.6825,3.1224159555357556,-10.0254153541327,0.06874342360735168,11.400005733443708
-0.1742,0.9745,0.0514,-0.4498,0.2078,0.0082,-3.3688,0.84,-14.3675,3.0812858854761465,-10.06720166140684,0.11307208678558205,11.401201616547992
-0.1738,0.9746,0.0554,-0.4522,0.2107,0.0112,-2.9225,0.5338,-14.1487,3.1119648924284027,-10.077212118382485,0.10600577606477314,11.402397853568555
-0.1735,0.9773,0.0555,-0.4522,0.2107,0.0112,-2.9313,0.5688,-14.175,3.137434822774048,-10.067575102804723,0.1011112905690689,11.403598691500736
-0.1735,0.9764,0.0521,-0.4534,0.2121,0.0087,-3.1325,0.6125,-14.1225,3.1125821148850092,-10.065614511751255,0.16407964689285998,11.404822180074726
-0.1745,0.9758,0.0557,-0.4526,0.2122,0.012,-3.3425,0.7875,-14.2362,3.172655012521256,-10.087947434984319,0.1332299750875182,11.406029388499915
-0.1729,0.9726,0.0563,-0.4526,0.2122,0.012,-2.8,1.1375,-14.2975,3.18475437106595,-10.077946152088261,0.1247785780934481,11.407212176701904
-0.1724,0.9761,0.0573,-0.4494,0.2107,0.0134,-2.5813,1.3562,-14.4112,3.204083096653309,-10.042678135576613,0.0659260908655877,11.408402397145736
-0.1742,0.9759,0.0519,-0.4494,0.2107,0.0134,-3.1238,0.9713,-14.5075,3.1569422337209523,-10.073288933259967,0.04347378698485773,11.409594387170959
-0.1743,0.975,0.0556,-0.4504,0.211,0.0083,-2.8788,1.2425,-14.5687,3.1727164563438772,-10.096117080754123,0.10963505795501721,11.410805134758931
-0.1733,0.9763,0.0586,-0.4504,0.2107,0.0094,-2.7913,1.1987,-15.12,3.19341241885633,-10.066956890792516,0.14657158630813416,11.41201659017946
-0.1706,0.9744,0.0551,-0.45,0.2107,0.0094,-2.975,1.0412,-14.49,3.202555172514767,-9.995309486800876,0.14712610864080466,11.413275824297555
-0.1753,0.9767,0.0587,-0.4501,0.2113,0.0106,-2.5813,0.63,-14.4987,3.2287363642247997,-10.072209431545723,0.17727023559161695,11.414484094471579
-0.174,0.9737,0.0562,-0.4501,0.2113,0.0106,-2.7475,1.0412,-14.455,3.2317359472615337,-10.092143070282432,0.17731650216729736,11.41567254533402
-0.1749,0.9753,0.0525,-0.45,0.2099,0.0172,-2.4588,0.9713,-14.9537,3.2019443044410263,-10.126835351999867,0.11700364702368284,11.416850378708114
-0.1738,0.9757,0.0528,-0.45,0.2099,0.0172,-2.66,1.365,-14.4987,3.197390690640054,-10.107268536401731,0.08024620150412219,11.41804201481706
-0.1754,0.9714,0.059,-0.4512,0.21,0.0121,-3.1412,0.9887,-14.6737,3.2818393615954897,-10.16414105738138,0.0718469014235369,11.419237190088786
-0.1715,0.9739,0.0518,-0.4509,0.2087,0.0107,-3.4738,1.1725,-14.8487,3.178766468318021,-10.057998675082388,0.05831258936226184,11.420448999425593
-0.1718,0.978,0.0522,-0.4509,0.2087,0.0107,-3.1937,1.1725,-14.5513,3.13824293775861,-10.004860096872662,0.0457863698483404,11.421642051199653
-0.1645,0.9761,0.0526,-0.4517,0.2106,0.0109,-2.9575,0.84,-14.21,3.1274427164425678,-9.832521849373657,0.02891632028190898,11.422826608983032
-0.1724,0.9745,0.0523,-0.4517,0.2106,0.0109,-2.2838,1.4175,-14.6737,3.1110047373733307,-9.928960940642995,0.008078036049013994,11.424011874598968
-0.1755,0.9761,0.057,-0.4517,0.2106,0.0144,-2.3187,1.0062,-15.0937,3.1754535463423186,-10.076991738432621,0.01705648359767136,11.42519820196374
-0.1793,0.9747,0.0565,-0.4517,0.2099,0.0126,-3.1063,0.9275,-15.26,3.2160962287196426,-10.282669020101578,0.02065619569636159,11.42639054590524
-0.1695,0.9712,0.0509,-0.4517,0.2099,0.0126,-2.975,1.0762,-14.9275,3.1702550104866885,-10.056388223537384,0.0258132433670997,11.42758572117697
-0.1703,0.979,0.054,-0.451,0.2099,0.0124,-2.8612,0.7437,-14.7175,3.168489132023869,-9.948993738319507,0.04250480412491199,11.428849910122961
-0.1719,0.9809,0.057,-0.451,0.2099,0.0124,-1.9862,1.2337,-14.8662,3.2342716506823073,-9.934768986510443,0.039586320028743176,11.43005287155281
-0.1756,0.975,0.0573,-0.4516,0.2106,0.0075,-2.6163,0.8225,-14.9625,3.2448546767196356,-10.08362297731171,0.07292582855201739,11.431246985075704
-0.1779,0.9704,0.0542,-0.4502,0.2098,0.01,-2.9838,0.8838,-14.7087,3.2344031803931625,-10.235936969767096,0.09117065329156333,11.43243437418931
-0.1774,0.9755,0.0536,-0.4502,0.2098,0.01,-2.1613,0.91,-14.1925,3.2028999043697417,-10.256808831274524,0.10195011232910293,11.43363945911683
-0.1695,0.9789,0.0523,-0.451,0.2115,0.0106,-2.765,0.8575,-14.175,3.1947900906793594,-10.092676602343664,0.09901366377826736,11.434856223281532
-0.1735,0.9741,0.0548,-0.451,0.2115,0.0106,-3.115,1.0587,-14.875,3.2020833418032635,-10.08758405793168,0.0997711329489987,11.436062369957888
-0.1768,0.9704,0.055,-0.45,0.2103,0.0136,-2.625,1.2512,-14.7,3.2052040105351054,-10.204060297004617,0.04847150954239951,11.43728727419699
-0.1785,0.9734,0.052,-0.453,0.2097,0.0138,-2.4413,0.735,-14.35,3.1744080994798636,-10.27841266763378,0.03571144078254076,11.438486696464057
-0.173,0.9745,0.055,-0.453,0.2097,0.0138,-2.485,1.2425,-14.4025,3.184509804621934,-10.176792832847791,0.06824411389060425,11.439682579568343
-0.1696,0.9779,0.0572,-0.4515,0.2073,0.0118,-2.5025,1.12,-14.14,3.212037060332137,-10.051817905988631,0.060762392557661304,11.440864659937775
-0.1735,0.9755,0.0527,-0.4515,0.2073,0.0118,-3.1063,0.7962,-14.6562,3.177788829668327,-10.061510988515058,0.06289995720988678,11.442059481293224
-0.1789,0.9748,0.0532,-0.4494,0.2118,0.0057,-2.8087,1.1025,-15.0587,3.172746297582517,-10.253332140481703,0.0214116209338423,11.443289694276501
-0.1766,0.9748,0.0555,-0.455,0.2114,0.0127,-2.4413,0.9625,-14.3675,3.190694781035948,-10.252919363594993,0.025734749045293256,11.444533002162075
-0.1746,0.9734,0.0543,-0.455,0.2114,0.0127,-2.6338,1.1462,-14.105,3.190840509439144,-10.219367554424297,0.03321182311260704,11.445744457582602
-0.1699,0.9767,0.0538,-0.4478,0.2109,0.0121,-2.6163,1.015,-13.79,3.187726985880207,-10.159566611244063,0.03392619333510578,11.446930784947375
-0.172,0.9758,0.0505,-0.4478,0.2109,0.0121,-2.4675,1.1638,-14.5425,3.1444227364224204,-10.073891574052498,0.04541755142785322,11.448131976795834
-0.1732,0.9726,0.0565,-0.4522,0.2084,0.0127,-2.2575,0.805,-14.7525,3.2001998589231473,-10.077545988955347,0.05026707630455282,11.449318658076882
-0.1729,0.9734,0.0536,-0.4522,0.2098,0.009,-2.94,0.9625,-14.1312,3.191008049625455,-10.070434093393501,0.023394075958003566,11.45062248564604
-0.1746,0.9762,0.0534,-0.4506,0.2098,0.009,-2.9225,1.085,-14.1138,3.1803244680073086,-10.089316757460066,0.011103378857154239,11.451917465308242
-0.1711,0.9772,0.0534,-0.4507,0.2108,0.011,-2.9838,1.1725,-14.42,3.1689078930530914,-10.011342396227102,0.0028426374019491826,11.453224832040181
-0.1738,0.9749,0.0501,-0.4507,0.2108,0.011,-3.4825,1.1987,-14.455,3.0696271883300303,-10.050098730153028,0.00511452412294454,11.454434163963041
-0.1729,0.9757,0.0554,-0.453,0.211,0.0057,-3.5963,0.8663,-14.245,3.1544822805944674,-10.043366122950031,0.10837229400637072,11.455617659997586
-0.1756,0.9762,0.0515,-0.453,0.211,0.0057,-2.695,0.8487,-14.4375,3.1530698582756944,-10.107463331482727,0.19606030125605411,11.456802925613523
-0.1726,0.9769,0.057,-0.4518,0.211,0.0113,-2.4938,0.9625,-14.2975,3.1856196718682,-10.064356171401636,0.19028317238541934,11.458040570838643
-0.1709,0.9758,0.0551,-0.4514,0.2121,0.012,-2.6513,1.2512,-14.5425,3.188001346739325,-9.993358207856804,0.15725488618679978,11.459294496212564
-0.1716,0.9767,0.0537,-0.4514,0.2121,0.012,-2.87,1.2862,-14.2712,3.1822145377178024,-9.975893203251953,0.11885491690207604,11.460495688061023
-0.1728,0.9756,0.0554,-0.4506,0.209,0.0094,-3.08,1.3212,-14.1138,3.2007024179904757,-9.99381272423548,0.15679033168244422,11.461691571165307
-0.1747,0.9753,0.0514,-0.4506,0.209,0.0094,-2.7037,0.7788,-14.56,3.2003529254244514,-10.066397130195869,0.1642538881401779,11.462884976855644
-0.1754,0.9749,0.0548,-0.4529,0.2098,0.0115,-2.5813,1.2425,-14.735,3.202222331527453,-10.128822936459196,0.1428738016753444,11.46409890969012
-0.1726,0.973,0.0543,-0.451,0.2097,0.011,-2.73,1.505,-14.5687,3.2020308011949488,-10.08683323869679,0.12420081863452825,11.465292669296737
-0.1726,0.9759,0.0523,-0.451,0.2097,0.011,-2.5813,1.435,-14.4112,3.1871719371608522,-10.054844658491241,0.09729838423079307,11.466475457498724
-0.1704,0.977,0.0515,-0.4518,0.2116,0.0114,-2.835,1.085,-14.8225,3.167721520190282,-9.958525312254526,0.0924114621159649,11.467707440063393
-0.1733,0.9772,0.0526,-0.4518,0.2116,0.0114,-3.0538,1.0937,-14.9187,3.145350334627793,-10.006213499876523,0.08804948678069648,11.468899076172338
-0.1759,0.975,0.0537,-0.451,0.2112,0.0131,-2.6513,1.505,-14.4025,3.1457180851932587,-10.097985334339672,0.0053272524613986695,11.470120795164936
-0.1756,0.9747,0.0571,-0.4506,0.2114,0.0114,-2.8525,0.7962,-15.0325,3.172225648064914,-10.155575563436962,0.027574188127281875,11.471325526176178
-0.173,0.9739,0.054,-0.4506,0.2114,0.0114,-2.1525,0.98,-14.7613,3.172729061598773,-10.102824835434001,0.02822534417802938,11.472556093075735
-0.1737,0.9769,0.0547,-0.4509,0.2086,0.0122,-2.4325,0.6825,-14.63,3.1796178162041095,-10.084497325578546,0.004259797914046587,11.473748083100958
-0.1726,0.9747,0.054,-0.4509,0.2086,0.0122,-2.8263,0.9975,-14.9625,3.1786939786741475,-10.051157037131572,0.0006058437205204388,11.474972279507504
-0.1738,0.9728,0.0525,-0.45,0.2098,0.0151,-3.08,1.6187,-14.9275,3.1542981709455926,-10.087717727029215,0.1638051017306883,11.476196475914051
-0.1746,0.9745,0.055,-0.4508,0.2111,0.0113,-3.29,0.6563,-14.7175,3.1823313821102333,-10.116446670875781,0.0975263679795798,11.477379618032318
-0.1728,0.9725,0.0543,-0.4508,0.2111,0.0113,-2.625,1.3125,-14.6125,3.183337427370201,-10.088061197299533,0.06470166652359408,11.478559928820358
-0.1753,0.9823,0.0547,-0.4516,0.21,0.0117,-2.38,1.015,-14.9625,3.184300960970286,-10.096739617471984,0.06284828767518535,11.479750857096747
-0.1762,0.9769,0.0535,-0.4516,0.21,0.0117,-2.7825,1.05,-14.2275,3.180757494296133,-10.140376956139537,0.06264675413538077,11.480948155866145
-0.1691,0.9717,0.0493,-0.4501,0.2101,0.0091,-2.8,1.1375,-14.6475,3.1569255778521828,-9.996374147254368,0.04154744905019768,11.482132713649523
-0.1745,0.97,0.0557,-0.4501,0.2084,0.0127,-2.3625,1.1638,-14.42,3.1900180149848163,-10.080228473445624,0.04642041426844731,11.483311608772452
-0.176,0.9791,0.0558,-0.4501,0.2084,0.0127,-2.2838,1.0937,-14.4812,3.211319948592116,-10.124443632355888,0.04882861088755213,11.484493689141884
-0.1743,0.9783,0.0546,-0.4497,0.2077,0.0118,-2.5375,0.9013,-14.35,3.2088887856908257,-10.108243676096555,0.04581718558118563,11.48566869118575
-0.1799,0.9694,0.06,-0.4497,0.2077,0.0118,-2.9138,1.0325,-14.4287,3.266246367231066,-10.283502877357554,0.04372808856123714,11.486845462811008
-0.1989,0.9661,0.0605,-0.4516,0.2108,0.0146,-2.6775,1.05,-14.3762,3.274914622071272,-10.865999180094738,0.04435194474871092,11.488047716408301
-0.1945,0.9798,0.0487,-0.4516,0.21,0.0127,-2.7475,1.26,-13.3525,3.257646853803732,-10.933910750991538,0.08386875201202355,11.489231920275403
-0.2657,0.9431,0.0955,-0.4518,0.21,0.0127,-2.555,3.675,-12.4162,3.5880840624016748,-13.489493570613707,0.696157378278748,11.490583526542128
-0.292,0.9789,0.0672,-0.453,0.2113,0.0123,-2.45,3.255,-9.3187,3.6570991691861985,-15.988289493023188,0.39236049999895406,11.491776224399908
-0.1609,0.9736,0.0509,-0.453,0.2113,0.0123,-2.4325,1.3212,-9.7737,3.5145756019727394,-10.743981638533338,0.2751524101091216,11.492950872527496
-0.2843,0.9623,0.1072,-0.4525,0.2114,0.0137,-2.9575,0.1837,-6.5713,4.086409507689241,-15.663006495074102,0.6733379107662425,11.494114549250458
-0.3207,0.9683,0.1111,-0.4525,0.2114,0.0137,-0.3763,0.0788,-3.1588,5.806763424005304,-17.99027943175204,0.937664052251058,11.495279995554812
-0.3956,1.0051,0.1057,-0.4533,0.2096,0.0142,1.7325,-2.1438,-0.8225,5.967214742356628,-21.13115460736139,0.9060267076078341,11.496445087942886
-0.334,0.9672,0.1529,-0.4582,0.212,0.0103,4.4888,-5.95,20.9125,8.615210080913378,-18.89873748730217,2.4024066592687565,11.497609826414683
-0.2832,1.0264,0.1756,-0.4582,0.212,0.0103,12.7575,-17.5175,28.1487,9.641964793448226,-15.300623142636969,2.9180366097384587,11.498802524272463
-0.0232,0.9855,0.0938,-0.1415,0.1411,0.0318,-1.3212,-2.7738,-13.1425,7.20055168730896,-10.954316242055103,5.0977792279468,11.50068429712404
-0.0232,0.9855,0.0938,-0.1415,0.1411,0.0318,-1.3212,-2.7738,-13.1425,6.176642523367251,-7.961371201631957,6.761284726644719,11.502740904617085
-0.0182,0.9741,0.0936,-0.1416,0.1417,0.0307,-2.1088,-3.3425,-11.2262,5.919496981722888,-3.1126583736645097,6.730542726150374,11.503933602474865
0.0003,0.9775,0.0981,-0.1416,0.1417,0.0307,-2.5288,-4.5325,-10.1412,5.891162678700663,-0.6853588148993143,6.626048385837386,11.50510895843501
0.0181,0.9801,0.098,-0.1434,0.1391,0.0346,-2.8438,-5.6175,-10.9987,5.8691682448125775,0.5693965721183571,8.099793051803507,11.506295285799782
0.0335,0.9916,0.1034,-0.1429,0.1414,0.0334,-3.8063,-5.2588,-12.5825,5.913122378783752,1.251053697044574,7.719237324778618,11.507480905331997
0.0361,0.9949,0.1007,-0.1429,0.1414,0.0334,-3.8763,-4.2613,-13.8337,5.841099532594593,1.4085554398279305,7.83558375126942,11.508663693533984
0.0297,0.9939,0.1077,-0.1434,0.141,0.0336,-5.2937,-2.2488,-13.7637,6.088792406137438,1.4509329628875927,7.548955890379393,11.50984506607086
0.0172,0.9725,0.1128,-0.1434,0.141,0.0336,-7.4725,0.2275,-11.5675,6.524709765433665,1.1533156598543388,7.272585832651159,11.511012989789162
0.0178,0.9471,0.1138,-0.1443,0.1398,0.0373,-7.805,-0.0263,-10.8413,6.7980057635186535,1.0914748116085635,7.742077517590674,11.512198609321375
0.0179,0.9441,0.1157,-0.1457,0.1409,0.0369,-6.8425,-0.3237,-10.1675,6.950041339925455,1.0811409518000668,7.753717936442329,11.513383521021034
0.0211,0.9493,0.1297,-0.1457,0.1409,0.0369,-5.8538,-0.21,-10.5175,7.579907045431224,1.2173253230983354,7.332576075514407,11.51458117370671
0.046,0.9612,0.1396,-0.1449,0.1407,0.0372,-4.4975,0.035,-11.4975,8.018702934421967,2.229069956767265,7.095450783576904,11.515753698336628
0.0538,0.975,0.1354,-0.1449,0.1407,0.0372,-3.745,1.2862,-12.2675,7.961365758557911,2.7419471612319795,7.132696849909859,11.516914897645643
0.0513,0.9823,0.1416,-0.1456,0.14,0.0402,-4.2613,2.2488,-13.6237,8.108310270014018,2.7480672962752277,7.701091121375001,11.518077512619769
0.0487,0.9855,0.1412,-0.144,0.1382,0.0384,-4.41,3.8937,-15.785,8.136919663802674,2.7840685189098378,7.671195233249499,11.519240127593896
0.0352,0.9875,0.1365,-0.144,0.1382,0.0384,-4.06,4.9963,-17.2637,7.983371506275585,2.185425936572334,7.80276228436996,11.520404512149415
-0.0053,0.9791,0.1441,-0.1438,0.1392,0.0381,-5.0138,5.7838,-18.2087,8.254843974952184,0.1370952371445531,7.035073657840164,11.521584115104899
-0.0288,0.972,0.144,-0.1438,0.1392,0.0381,-5.3638,5.845,-17.0538,8.379917128545332,-1.271601492365456,6.7295006263356685,11.522783537371966
-0.0395,0.9675,0.1406,-0.1432,0.1407,0.0346,-5.6525,4.7688,-14.7262,8.296737787512743,-1.824764310884924,5.660468689913479,11.523957831583276
-0.0389,0.967,0.1487,-0.1637,0.1408,0.0308,-5.4862,3.3163,-12.5125,8.624338383909324,-2.05974983584511,3.8531598232836464,11.525142035450378
-0.0274,0.9637,0.1481,-0.145,0.1408,0.0308,-5.3987,1.1112,-10.6312,8.706333552034453,-1.7232583089270588,3.8298324319978154,11.526326593233758
-0.0156,0.9613,0.1507,-0.1452,0.1396,0.0379,-5.1013,-0.14,-9.2662,8.84971600017034,-1.0695292735064783,5.0735146411467085,11.527509381435745
0.0095,0.9588,0.1502,-0.1452,0.1396,0.0379,-4.9612,-1.12,-11.7163,8.8868146563004,-0.005577599597640049,5.902726387757872,11.528773570381738
0.0117,0.9561,0.1529,-0.1461,0.1402,0.0298,-4.865,-1.5487,-13.6588,9.022842610710873,0.036472085038938847,3.7280523453099605,11.529986795383657
0.0062,0.9517,0.1505,-0.1461,0.1402,0.0298,-3.5438,-2.2138,-14.3937,9.006147169477416,0.18401726189626624,3.1489897854244218,11.531171707083315
0.006,0.9481,0.1487,-0.1455,0.1392,0.0382,-3.1063,-1.8987,-15.9687,8.979687954576352,0.30658196762061846,5.561198089664107,11.540545887545933
0.0115,0.9537,0.1481,-0.1462,0.139,0.0395,-2.17,-1.6712,-16.8262,8.926415789435405,0.5937957115228629,6.602104533450446,11.552767678383537
0.0101,0.9659,0.1485,-0.1462,0.139,0.0395,-1.7237,-1.365,-17.9112,8.83424099785431,0.5924503589928899,6.9249402407136795,11.56505317415123
0.0128,0.9695,0.1512,-0.1462,0.1396,0.0386,-2.03,-0.5513,-18.095,8.846341793269612,0.7192130580883478,6.708330832967117,11.577595259220669
0.0135,0.9743,0.1495,-0.1462,0.1396,0.0386,-2.3275,0.5338,-18.1212,8.812672236455514,0.7728199894377142,6.71068275332559,11.586885561525337
0.0123,0.9689,0.157,-0.1442,0.1412,0.0447,-2.555,2.3187,-17.43,8.863916437402397,0.7293027889982668,7.771386464427496,11.598919776735455
0.0053,0.9587,0.1565,-0.1444,0.1418,0.0374,-2.7125,3.1063,-17.5613,8.866706479593951,0.39650748771083316,6.3055033141300525,11.610687139071755
-0.0019,0.9426,0.1523,-0.1444,0.1418,0.0374,-2.4763,3.9463,-17.4562,8.924811409664276,-0.008999905259308747,5.8147398849031635,11.622860443379235
-0.013,0.9425,0.1518,-0.1425,0.1397,0.0387,-1.5225,4.4538,-17.675,9.046600580706402,-0.6283850085418761,6.203993526914608,11.635019944951862
-0.0201,0.9543,0.1454,-0.1425,0.1397,0.0387,-0.4025,4.62,-18.2,8.779223684803526,-1.0921524246759042,6.630423420565735,11.647169536868697
-0.0207,0.9662,0.1461,-0.1427,0.1411,0.0422,0.0788,4.2175,-16.9575,8.646334283118406,-1.1857120353676271,7.714241342173141,11.659248699446156
-0.024,0.9745,0.1398,-0.1439,0.1394,0.04,-0.3413,3.4388,-14.6562,8.307261311921307,-1.2942534728307564,7.670677761876913,11.66830010826299
-0.0208,0.9769,0.1415,-0.1439,0.1394,0.04,-0.1138,2.4588,-12.6437,8.259983257178671,-1.2517981688222453,7.630148720416641,11.680487569221599
-0.0106,0.9808,0.1388,-0.1434,0.141,0.0374,-0.7,1.6362,-11.7687,8.123098043190305,-0.8391039191349372,7.320311465404161,11.692636807222156
-0.0041,0.9761,0.1321,-0.1434,0.141,0.0374,-1.0062,0.8225,-10.9287,7.861313773507374,-0.40232363352719613,7.2956334606340025,11.704772596404139
-0.0028,0.9784,0.1315,-0.1446,0.141,0.0395,-1.015,0.1837,-11.1912,7.731590004129536,-0.23296999955154463,7.619048381942374,11.716947316376732
0.0069,0.9823,0.1376,-0.145,0.141,0.0399,-2.2488,-0.6737,-11.9,7.807624232366237,0.16420273204859268,7.7902821863327905,11.729239890469989
0.0063,0.9822,0.1291,-0.145,0.141,0.0399,-1.9425,-0.7088,-12.5825,7.6692896242339375,0.26489040241934064,8.15618239673542,11.741383111893816
0.0081,0.9805,0.1337,-0.1449,0.1396,0.0357,-1.8375,-0.9013,-12.845,7.7137220055377655,0.3523342387350993,7.0975742848084575,11.750695357007737
0.0035,0.9735,0.1312,-0.1449,0.1396,0.0357,-2.6338,-1.3125,-13.2212,7.7111671665966774,0.3120386398584645,6.75596346266567,11.762787260571214
0.0029,0.9665,0.1339,-0.1443,0.1394,0.0357,-3.7275,-0.9275,-13.2912,7.800345801352277,0.2790359755445665,6.544347994218365,11.77492835849737
0.0027,0.9599,0.1347,-0.1443,0.1402,0.0414,-3.7888,-1.505,-12.7312,7.897915743679723,0.22369146626119946,7.951835969873171,11.787180232218626
0.0071,0.9594,0.1362,-0.1464,0.1402,0.0414,-3.4388,-1.7062,-12.81,7.97491384863927,0.3099150814500957,8.230110415733972,11.799079959243
0.0129,0.9581,0.1379,-0.1448,0.1397,0.0383,-2.7913,-1.575,-12.9937,7.991920450789013,0.4801930904059921,7.472691768476016,11.811212917094757
0.0146,0.9556,0.1349,-0.1448,0.1397,0.0383,-2.8525,-1.1462,-13.1862,7.997467159742644,0.5922938666619859,7.388768974247399,11.823335611374445
0.0192,0.9575,0.1403,-0.147,0.1405,0.0386,-3.0188,-1.12,-12.9762,8.078226219357278,0.8003014272949018,7.157406776467968,11.835420082696077
0.0194,0.9582,0.1345,-0.147,0.1405,0.0386,-1.5575,-0.665,-13.3,8.031206710714654,0.879580547684611,7.306327674090228,11.844820452963287
0.0192,0.9568,0.1379,-0.1456,0.1393,0.035,-1.7762,-0.2538,-14.0787,8.113165664921544,0.9638125487268021,6.51639819978159,11.85688050406172
0.0191,0.9551,0.1384,-0.146,0.139,0.0373,-1.7237,0.4638,-13.3787,8.17854471895219,0.9940065897573295,6.607834173672133,11.86892852200669
0.0184,0.9663,0.1357,-0.146,0.139,0.0373,-1.3737,0.8487,-13.1862,8.073091888257228,1.0190272733811916,6.673067286721431,11.881053339784048
0.0218,0.9681,0.137,-0.1461,0.1368,0.0374,-0.7,1.1112,-13.0375,8.060811280851276,1.1114289131240296,6.701120835141612,11.893077291422095
0.0254,0.9709,0.1356,-0.1461,0.1368,0.0374,-0.5075,1.3825,-12.8712,7.9851584162079225,1.2679069366090447,6.839827695026009,11.905035768548663
0.024,0.9718,0.1376,-0.1474,0.139,0.0308,-0.6212,2.2313,-13.4575,8.03512990767998,1.283932199586994,5.50241581468689,11.914383051374132
0.0196,0.9736,0.1307,-0.1466,0.1402,0.0366,-1.4088,2.4325,-13.7287,7.815369043759248,1.2672820026294314,6.3674330626391376,11.926683411625513
0.016,0.972,0.1352,-0.1466,0.1402,0.0366,-1.3037,2.695,-14.245,7.87569621126256,1.1359757593645297,6.57261074349217,11.938512355394233
0.017,0.9706,0.1311,-0.1461,0.1396,0.0365,-1.7762,2.275,-14.42,7.7874245831263025,1.071962918967221,6.7767811029865115,11.950583023981013
0.0102,0.9704,0.1324,-0.1461,0.1396,0.0365,-1.61,2.4063,-13.9825,7.777991549253318,0.9391519744347279,6.801524702194063,11.962627856679479
0.013,0.9721,0.1296,-0.1468,0.1375,0.0378,-2.4325,2.3275,-13.6412,7.738494385535532,0.9311648693224236,7.241928804232619,11.971885952602824
0.0121,0.975,0.1341,-0.1465,0.139,0.0342,-2.4063,2.4063,-13.9038,7.759858840342013,0.8776170833834229,6.464690951064459,11.983955913357049
0.0091,0.9786,0.134,-0.1465,0.139,0.0342,-2.7475,2.2313,-14.2975,7.761353895283267,0.7332562036524575,6.163210366232389,11.996016318371758
0.0115,0.9784,0.1359,-0.1466,0.1375,0.0368,-3.36,1.715,-14.1487,7.819281042278809,0.7096403955874188,6.457687254611912,12.008009125377319
0.0152,0.9737,0.138,-0.1466,0.1375,0.0368,-4.1388,1.855,-14.0,7.964991207777692,0.7603607965503755,6.597353641123538,12.020133943154676
0.0174,0.969,0.1397,-0.1466,0.1384,0.0402,-4.5325,1.8112,-14.0175,8.119298849568953,0.8369839998989859,7.171416296653656,12.032179837601976
0.0206,0.9658,0.1398,-0.1466,0.1384,0.0402,-5.3638,2.0825,-15.645,8.204377668857173,1.0872442450068238,7.5501437934225795,12.041535614418125
0.0135,0.9669,0.1409,-0.1515,0.1386,0.0366,-5.5563,1.8637,-15.8463,8.26848988632729,0.8824951269017749,6.9403293014485525,12.053550718149216
0.0176,0.9637,0.1476,-0.145,0.1371,0.0373,-5.5388,1.75,-15.295,8.593146405186467,0.9780297023990605,6.739546789925285,12.065541755573385
0.0094,0.9604,0.1493,-0.145,0.1371,0.0373,-5.285,1.3212,-15.505,8.768331415716387,0.6997739916009486,6.639302207759756,12.077598621425313
0.0132,0.9568,0.1513,-0.1456,0.1383,0.0381,-5.1275,1.26,-14.9537,8.922282524817689,0.746396300567684,6.591277023186641,12.089659380356302
0.0149,0.9584,0.1563,-0.1456,0.1383,0.0381,-4.3663,1.1287,-14.1138,9.134632315904833,0.7917371080827,6.553820463894679,12.1017183697059
0.0179,0.959,0.1533,-0.1466,0.1376,0.0349,-3.8063,0.9887,-13.8863,9.10711819296183,0.8513820511491962,6.474317953428023,12.110983897871087
0.0175,0.9563,0.1562,-0.1469,0.139,0.0399,-3.7625,0.98,-14.1312,9.194229375460312,0.9153820332159401,6.488578068586031,12.123057043871816
0.0162,0.9567,0.1512,-0.1469,0.139,0.0399,-3.1763,1.3475,-14.9187,9.125962931255268,0.939785941851706,6.604892776012459,12.135124173295813
0.0124,0.9565,0.1521,-0.1465,0.1388,0.0386,-2.8087,1.1287,-15.2862,9.117495745232684,0.8101567022188585,6.591991911345466,12.147163697250106
0.0105,0.9537,0.1506,-0.1465,0.1388,0.0386,-2.2575,0.8838,-15.1462,9.072953564306227,0.696391839986127,6.577310374711306,12.159252415567078
0.0109,0.9534,0.1535,-0.1474,0.1381,0.0368,-1.9687,0.6737,-15.2775,9.104065846329284,0.6652180970796439,6.321830223082488,12.168504494913693
0.0074,0.9512,0.152,-0.1474,0.1381,0.0368,-1.2775,0.6212,-15.2862,9.089323261333654,0.5237699881364603,6.130363268750758,12.18056348426329
0.007,0.954,0.1507,-0.1473,0.139,0.0363,-1.1375,0.3938,-14.595,9.020515481482835,0.4695028529449782,5.89461840966039,12.19293356602149
0.0083,0.9568,0.1518,-0.1476,0.1387,0.0386,-0.7962,-0.5163,-13.93,9.016933445464225,0.47486964778607504,6.1960243538250594,12.20471296151125
0.0193,0.9626,0.1483,-0.1476,0.1387,0.0386,-0.245,-0.2538,-13.2737,8.832992618623875,0.6353294029988906,6.486881651034402,12.216797078916604
0.0267,0.9635,0.1473,-0.146,0.1398,0.037,-0.3413,-0.3675,-13.2125,8.733967986771216,0.893529928956905,6.323795869903789,12.228918711447458
0.0296,0.9703,0.1468,-0.146,0.1398,0.037,-0.0438,0.3413,-14.0525,8.638931919184586,1.1554870872235918,6.3202637085465945,12.240964605894758
0.0325,0.9721,0.141,-0.1466,0.1405,0.0313,-0.7437,0.63,-14.4987,8.383307710893506,1.5066167989516037,5.745339058507234,12.250316843548124
0.0293,0.9672,0.1444,-0.1478,0.1398,0.0368,-0.3325,0.9013,-14.56,8.459330429629215,1.6095380634878313,5.810936873807365,12.262426442925515
0.0257,0.9628,0.139,-0.1478,0.1398,0.0368,-0.9363,1.435,-14.2975,8.303268928494592,1.569837404058026,6.009276510269734,12.274346697094028
0.0153,0.9538,0.1418,-0.1478,0.1372,0.0358,-0.5688,1.7413,-14.5687,8.407405058388331,1.2437775448469945,5.995533260646736,12.286391175876217
0.0096,0.9536,0.1324,-0.1478,0.1372,0.0358,-0.4638,1.7413,-14.5862,8.059660859212611,0.9089730435223923,6.188806808165328,12.298513162323347
0.0116,0.955,0.1383,-0.1468,0.1405,0.0413,0.1663,1.54,-14.7613,8.193500745822597,0.7903833865648634,6.83377067949036,12.307701182823592
0.01,0.9589,0.1313,-0.1468,0.1379,0.0328,0.7263,1.5312,-15.155,7.886382836286077,0.6694660961889368,6.371110785160286,12.319149312676892
0.0102,0.9653,0.1321,-0.1461,0.1379,0.0328,0.8838,1.3212,-14.5687,7.812914248984899,0.6350977877676601,6.171872527454848,12.331626631067408
0.0117,0.9661,0.1329,-0.1461,0.1378,0.0361,1.2687,1.2775,-14.56,7.828675736753969,0.6607758862051137,6.273151947388274,12.343494859543016
0.0104,0.9743,0.129,-0.1461,0.1378,0.0361,1.2862,1.505,-14.805,7.599629095276676,0.6309353246679434,6.4956041641589355,12.355608705915746
0.0102,0.9745,0.1301,-0.1462,0.1398,0.0334,0.245,0.91,-14.945,7.6030961361867435,0.6099530027295614,6.408653300017044,12.36490785612737
0.0095,0.9706,0.1222,-0.1462,0.1398,0.0334,-0.14,0.315,-14.7613,7.295687597291842,0.5811105407261492,6.311429079199816,12.43066373104911
0.0124,0.9667,0.1265,-0.1467,0.1385,0.0314,0.0,0.2888,-13.7987,7.412171717537735,0.606117181024084,5.829205774621178,12.43513121622975
0.0157,0.9667,0.1255,-0.1455,0.1393,0.0337,-0.42,-0.035,-14.2187,7.401579556950136,0.7277643651141614,6.007475222313844,12.439862015121427
0.0146,0.9724,0.1233,-0.1455,0.1393,0.0337,-0.4462,-0.7,-14.1575,7.2802297251647055,0.772996874668893,6.214018866048115,12.444381879911251
0.0196,0.9761,0.1266,-0.1465,0.137,0.0348,-0.9713,-0.77,-13.8863,7.349853508822939,0.8560350625951734,6.530264846049192,12.448895374208067
0.0148,0.9736,0.1225,-0.1465,0.137,0.0348,-0.77,-0.805,-14.2362,7.232167525159102,0.859183862584344,6.758733762401243,12.453355073230586
0.0142,0.9659,0.1257,-0.1461,0.1402,0.0312,-1.8025,-0.9887,-15.0062,7.318772847271688,0.8451576984043295,5.645419647263294,12.457908206150568
0.0109,0.9636,0.1199,-0.147,0.139,0.0338,-1.3475,-1.7937,-15.2425,7.188636339696107,0.7194289024373755,6.223363129265649,12.462506994270449
0.0079,0.9651,0.1253,-0.147,0.139,0.0338,-0.3413,-2.1088,-16.4587,7.3353444988347265,0.5309133096725596,6.14045296288132,12.471015849432689
0.0127,0.9723,0.1208,-0.1463,0.1383,0.0334,0.7088,-2.0475,-16.7912,7.1395617465223085,0.6921833087224689,6.3041303241685345,12.483027414000999
0.0197,0.9779,0.1155,-0.1463,0.1383,0.0334,0.175,-2.3275,-17.0012,6.840002894899704,1.0431012782883209,6.638818749994759,12.495097728671501
0.023,0.9823,0.1213,-0.1461,0.139,0.0355,0.0525,-2.73,-17.1763,6.986468424525963,1.268315267026077,7.133423177335235,12.507081687770103
0.0273,0.9822,0.116,-0.1461,0.139,0.0355,-0.91,-2.03,-16.94,6.825309910614253,1.5091400349892161,7.4822510551323465,12.516618669720728
0.0259,0.9817,0.1141,-0.1454,0.1381,0.0295,-1.3562,-1.8025,-16.5112,6.712883776278926,1.503206514892808,5.931617944678761,12.528585286921697
0.029,0.9838,0.1185,-0.1467,0.1407,0.0334,-3.1675,-1.26,-15.6887,6.761976965850955,1.6203822379183699,6.357405974505365,12.540682145313069
0.0289,0.9745,0.1172,-0.1467,0.1407,0.0334,-3.71,-0.63,-15.1375,6.8100149316042655,1.6605182085597703,6.48032375871942,12.552795283853243
0.0245,0.9669,0.1247,-0.1444,0.1402,0.0325,-3.9638,0.0788,-15.4875,7.110212930732835,1.5159501392975276,6.14655057133186,12.564873030765588
0.0171,0.9614,0.1156,-0.1444,0.1402,0.0325,-3.7975,0.5688,-15.8375,6.977733125517076,1.16719874752415,6.1792785549439815,12.576907245975706
0.0117,0.9628,0.1202,-0.1439,0.1398,0.0356,-3.5175,1.3737,-16.6688,7.039791150741748,0.8077818449852145,6.436555464720717,12.586167819313
0.0107,0.9649,0.1214,-0.1451,0.1394,0.0324,-3.3863,1.8375,-16.3013,7.0929537346406875,0.6782341874078293,6.184128678469018,12.59826715511832
0.0127,0.9625,0.1246,-0.1451,0.1394,0.0324,-3.01,2.4063,-15.75,7.159047212936713,0.727055871265703,5.891210667591779,12.610319773974908
0.012,0.9667,0.1266,-0.1453,0.1395,0.0338,-2.8175,2.4938,-15.2337,7.189439529554185,0.7134669588496126,6.028808339597159,12.622386903398905
0.0086,0.9676,0.1232,-0.1453,0.1395,0.0338,-2.8788,2.73,-14.875,7.199289466886372,0.5965054113842647,6.200946284536283,12.634414748116015
0.0037,0.9678,0.1247,-0.145,0.1404,0.0325,-2.9138,3.115,-13.7375,7.223889498054225,0.5491105183347735,5.829510248590784,12.6465048820981
0.0073,0.973,0.1264,-0.1437,0.1394,0.0334,-2.8087,3.0713,-13.0725,7.240507812287034,0.5069721569876766,5.9893866021179765,12.655979574783748
0.0073,0.9731,0.1249,-0.1437,0.1394,0.0334,-2.275,3.7538,-13.3875,7.262651789200808,0.4931294990190822,6.110233316289472,12.667856297250035
0.0095,0.97,0.1253,-0.1474,0.1404,0.0337,-2.8788,3.605,-12.7662,7.277087769787023,0.5218438793420744,6.056212379802151,12.679834239771909
0.0071,0.9644,0.1251,-0.1474,0.1404,0.0337,-2.8438,3.7013,-12.3112,7.290921090881984,0.46364724615797887,6.0089397984246515,12.691932867744672
0.008,0.9641,0.1317,-0.144,0.1387,0.0317,-2.6338,3.3075,-12.425,7.323598540491293,0.46763749523402914,5.34778953539218,12.703988671847764
0.0094,0.9633,0.1246,-0.144,0.1387,0.0317,-2.7037,3.325,-12.915,7.323686946645443,0.5027713457373126,5.429488514620934,12.715995989420735
0.0043,0.9686,0.123,-0.1453,0.1396,0.034,-2.135,3.1588,-12.075,7.292232195018377,0.3517243665282065,6.065924617348682,12.725359906311283
0.0109,0.9698,0.1284,-0.1461,0.1376,0.0317,-2.0038,2.7388,-12.0225,7.395236279183756,0.5269321667425406,5.573975391342948,12.737373594377262
0.0097,0.9705,0.123,-0.1461,0.1376,0.0317,-2.1,2.7913,-12.74,7.33030520170911,0.5459030432950082,5.580455847434392,12.749413118331553
0.011,0.9719,0.1247,-0.1466,0.1398,0.0334,-2.7913,2.4675,-13.23,7.328813819676283,0.5718972716583658,5.8494289587838,12.761482725169499
0.0125,0.971,0.1237,-0.1466,0.1398,0.0334,-2.7475,2.4237,-12.6787,7.3260490141088175,0.6482634558793408,5.993426968611023,12.773622407430542
0.011,0.9719,0.1171,-0.1453,0.1396,0.0331,-2.7738,1.7937,-12.88,7.296946752180389,0.646399905500352,6.17527858324888,12.782889351260843
0.0131,0.9727,0.1258,-0.1461,0.1386,0.0305,-2.7475,1.645,-12.9675,7.299852140952834,0.6921986391239432,5.713041652073082,12.794863046787377
0.0171,0.973,0.1202,-0.1461,0.1386,0.0305,-2.4588,1.6625,-13.16,7.248885776560493,0.7852290003362526,5.548446233507402,12.806916373476524
0.0156,0.973,0.1237,-0.147,0.137,0.0312,-3.1675,1.6362,-13.755,7.2477504892279185,0.8026345928363475,5.491702951162405,12.819359715904325
0.019,0.9704,0.1218,-0.147,0.137,0.0312,-3.6312,1.3825,-13.8687,7.2027259215793515,0.8693778696262426,5.494300330361779,12.831044969664067
0.011,0.9692,0.1258,-0.1455,0.1373,0.0342,-3.8763,1.8463,-13.16,7.306701967954139,0.8013485121370909,5.9148322406924105,12.842981857897659
0.0121,0.9674,0.128,-0.1455,0.1373,0.0342,-4.0687,1.6362,-12.53,7.439670590269108,0.7544563870336372,6.061649526856271,12.851785171403423
0.0153,0.9651,0.1233,-0.147,0.1378,0.0267,-3.6925,1.1987,-12.6875,7.360658795259064,0.8241281992947291,5.728797919183249,12.863917067506344
0.0144,0.9643,0.1254,-0.1475,0.1398,0.0338,-3.15,1.0587,-12.9237,7.375626567177296,0.8338738174847194,5.733633431364484,12.87611549986958
0.0183,0.9653,0.1253,-0.1475,0.1398,0.0338,-2.8175,1.1112,-13.125,7.377664789358,0.911585390736236,5.757652650521817,12.88824810380506
0.0188,0.9672,0.1215,-0.1465,0.1376,0.0324,-2.4938,1.0237,-13.5537,7.339622230289905,0.9191950156965297,5.761743420013082,12.900395572224225
0.0172,0.9687,0.1302,-0.1465,0.1376,0.0324,-3.1412,0.8487,-13.6588,7.435338048974829,0.9245553646735316,5.71338687595965,12.912520390001582
0.0187,0.9689,0.1224,-0.1478,0.1377,0.0233,-3.01,0.7437,-13.8337,7.380411910176516,0.957815210391173,4.926148369252468,12.921366527377016
0.0134,0.9722,0.1232,-0.1484,0.1385,0.0356,-3.1588,0.3675,-13.6412,7.3310690934844205,0.9500628700241497,5.751821255828582,12.93354124734961
0.0134,0.9706,0.1238,-0.1484,0.1385,0.0356,-3.2375,0.14,-13.4312,7.30945728781706,0.9268151416666475,6.309799257167614,12.94572233781521
0.0139,0.9697,0.1263,-0.1495,0.1379,0.0334,-3.0363,-0.0525,-13.4488,7.3371271080282625,0.9124986964490399,6.109291319608527,12.957879008057612
0.0202,0.9709,0.1251,-0.1495,0.1379,0.0334,-3.0713,-0.2187,-13.7375,7.338453497971044,0.9461931327560289,6.069772480297891,12.970051958448813
0.0193,0.9693,0.1263,-0.1499,0.1402,0.0332,-3.6225,-0.9187,-13.6937,7.379289516369256,0.9628543350592996,5.858010911148437,12.9822691483748
0.0176,0.9717,0.1217,-0.1499,0.1383,0.0335,-4.0513,-1.015,-14.175,7.24132634544589,0.9873713574959521,6.100539109528232,12.991048749489918
0.0153,0.9722,0.1239,-0.1497,0.1383,0.0335,-4.0425,-1.7062,-14.8662,7.253605257296271,0.9353209961318215,6.09643429007352,13.003259215006617
0.0126,0.9739,0.1258,-0.1467,0.1386,0.0332,-4.8475,-2.1525,-15.3912,7.326286325279001,0.8067132189807542,6.006401021580014,13.015430395816427
0.0135,0.9733,0.1281,-0.1467,0.1386,0.0332,-6.72,-3.2462,-16.3187,7.46362556510426,0.7929278797407118,5.879850505870997,13.02764793965869
0.012,0.9701,0.1297,-0.1466,0.1389,0.0377,-5.3638,-4.305,-16.1,7.573726813457637,0.7282650459526641,7.2095222172634665,13.039816643054552
0.0068,0.9729,0.1258,-0.1466,0.1389,0.0377,-5.3375,-4.83,-16.9487,7.4244281807738615,0.4731990584717977,7.5922242639328035,13.051991363027145
0.0105,0.9701,0.1314,-0.1461,0.1377,0.0385,-6.2913,-5.9675,-17.4125,7.650669696783697,0.5851813198544823,7.728078208820152,13.064187317976433
0.0081,0.9675,0.1274,-0.1463,0.1389,0.0371,-6.2388,-6.335,-17.1238,7.534426057591453,0.49977088227358674,7.371431329138619,13.076340095139773
0.0126,0.9625,0.1333,-0.1463,0.1389,0.0371,-6.5363,-6.335,-16.8787,7.812377495981022,0.6861633794722207,7.030433488887576,13.08521666931514
0.0148,0.9625,0.1322,-0.1454,0.1409,0.0337,-5.845,-7.5775,-16.6513,7.818672725090914,0.8267570871334735,5.810527750430013,13.097419702589994
0.0168,0.9643,0.1358,-0.1454,0.1409,0.0337,-5.3463,-7.91,-16.9575,7.96187818086009,0.9513139570898073,5.51803911840696,13.109574603251003
0.0204,0.9629,0.1344,-0.1482,0.1402,0.0338,-5.7663,-8.2163,-17.4387,7.9498461920793,1.1502782097452446,5.543229932217351,13.121791085344432
0.0163,0.9617,0.1327,-0.1461,0.1388,0.0391,-5.8013,-8.4962,-17.8675,7.879168349562396,0.9976340463224902,7.613740425960958,13.133963681819356
0.0165,0.9658,0.1358,-0.1461,0.1388,0.0391,-4.9525,-8.5312,-18.2962,7.965428898244375,0.9742114803837043,7.680801194449889,13.146136986126836
0.0141,0.9636,0.1385,-0.1451,0.139,0.04,-5.1275,-8.7587,-18.6287,8.116735819996357,0.8537342613564675,7.870209922000346,13.158396646006214
0.0085,0.9656,0.1395,-0.1451,0.139,0.04,-5.7312,-8.9337,-18.6462,8.194821647231432,0.5577603042609683,7.8097943763612205,13.16714828773535
0.0088,0.9631,0.1363,-0.1446,0.14,0.0378,-5.4775,-9.5375,-19.2588,8.092164662100148,0.5242565167113054,7.1474151571986475,13.17937644906596
0.003,0.9645,0.1365,-0.1433,0.1412,0.0432,-5.11,-10.5612,-19.7488,8.066085163688015,0.22507059583241057,8.983570736358564,13.192140085725601
-0.0066,0.9745,0.1356,-0.1433,0.1412,0.0432,-4.725,-11.7512,-19.6612,7.969547982430094,-0.29809956135349713,9.169984889081265,13.204287908061044
-0.0094,0.9787,0.133,-0.1433,0.1404,0.0443,-5.355,-12.3375,-19.355,7.8020135295430775,-0.5087108492827946,9.756596662512008,13.216485986508003
-0.0093,0.9782,0.1362,-0.1433,0.1404,0.0443,-6.4925,-13.1687,-18.97,7.90060171651391,-0.5346749716914513,9.62733406306918,13.22847560826706
-0.007,0.9714,0.1391,-0.1414,0.1409,0.0454,-6.6588,-14.5162,-19.6525,8.098925833038118,-0.4265514398796419,9.923804110270417,13.240725004574367
-0.0081,0.9661,0.1345,-0.1402,0.1414,0.0483,-6.7638,-16.3712,-20.02,7.959985382951524,-0.46915103299083233,11.256156244036333,13.253017932583903
-0.0123,0.9652,0.1369,-0.1402,0.1414,0.0483,-6.4138,-17.8937,-20.5625,8.048800006779539,-0.6910300865219683,11.14370636196245,13.26519796130067
-0.0157,0.9664,0.1314,-0.1395,0.1404,0.0483,-6.9475,-19.3725,-21.3062,7.801289861561792,-0.89571066921367,11.516233111724466,13.27744735760798
-0.0199,0.9722,0.1368,-0.1395,0.1404,0.0483,-6.86,-20.8775,-22.1725,7.9691899082738304,-1.1334715556064612,11.237731432007573,13.289688967757165
-0.0163,0.9794,0.1348,-0.1382,0.1444,0.0522,-6.6325,-22.3388,-23.065,7.863578327619932,-0.962614768421733,12.760864425646822,13.301911466427324
-0.0192,0.985,0.1365,-0.1372,0.143,0.0542,-7.7263,-25.0862,-22.8638,7.885381938555642,-1.0921475204153563,13.63439116605342,13.314160862734633
-0.0245,0.9844,0.1356,-0.1372,0.143,0.0542,-8.8112,-26.565,-23.0825,7.849025904466045,-1.38183406493061,13.641343282965174,13.326380883990845
-0.035,0.9805,0.1313,-0.1369,0.1438,0.0605,-9.8962,-28.945,-23.5287,7.6542617726420525,-1.9673534920212266,15.967601256275774,13.338703540967755
-0.0354,0.9774,0.137,-0.134,0.144,0.0632,-10.36,-30.7038,-24.1238,7.941511702736794,-2.046666219562576,16.968064398690558,13.35078978187078
-0.0345,0.9726,0.1379,-0.134,0.144,0.0632,-10.6925,-33.25,-24.0975,8.05560264226208,-2.0145020172723487,16.92282232548646,13.36307987855009
-0.0326,0.9728,0.1352,-0.1327,0.1448,0.0642,-11.0337,-34.6237,-24.29,7.927661510386846,-1.9107882534302907,17.574915364483218,13.37533069052251
-0.0387,0.9761,0.1328,-0.1327,0.1448,0.0642,-11.27,-36.9162,-24.9025,7.766439852997015,-2.2222053042821277,17.649339666833466,13.387627511611107
-0.0525,0.9791,0.1335,-0.1313,0.1452,0.071,-12.0925,-38.8587,-25.27,7.764580662956001,-2.97659829218509,19.959280223269662,13.400088903769102
-0.0675,0.9848,0.1321,-0.1293,0.1476,0.073,-12.5037,-41.0725,-25.3487,7.6515269160962065,-3.8149967719312188,20.678475727387827,13.412249821006842
-0.1016,0.9934,0.1291,-0.1293,0.1476,0.073,-14.5687,-48.125,-25.6812,7.423731946502769,-5.64024261108619,20.29712680969796,13.424803585313466
-0.1033,1.0016,0.1264,-0.13,0.1487,0.0801,-14.91,-53.1562,-26.67,7.2100998939537835,-5.828005661571214,22.671310218521825,13.4368017010632
-0.1045,1.0025,0.1279,-0.13,0.1487,0.0866,-16.2663,-58.0213,-27.2912,7.266424288993302,-5.898341152261044,24.70206728062165,13.449146300849364
-0.1005,1.0067,0.1279,-0.1282,0.1474,0.0866,-17.9288,-63.105,-27.8425,7.24216101061428,-5.671751209938639,25.19613459492171,13.458776716697452
-0.0941,1.0075,0.1283,-0.1282,0.1491,0.0926,-19.9325,-68.3463,-28.5163,7.256435951856168,-5.3171772824720165,27.124749387451168,13.47095462191655
-0.0902,1.0118,0.1338,-0.1282,0.1491,0.0926,-22.1725,-72.7038,-29.1375,7.51954560686657,-5.066715506361776,27.00534424812899,13.483229854112171
-0.08,1.0034,0.1387,-0.1267,0.1535,0.0998,-24.3687,-77.0525,-29.1025,7.85465418966034,-4.549107317678483,29.159590668661902,13.495527736949603
-0.0737,0.9967,0.1393,-0.1262,0.1531,0.111,-25.935,-81.1825,-29.3125,7.952000750772645,-4.209996675065629,32.688667664238324,13.507819603210303
-0.0717,0.9944,0.1388,-0.1262,0.1531,0.111,-27.545,-89.215,-29.8288,7.9463288813704125,-4.091916122786269,32.793195245007574,13.52001803557354
-0.0664,0.981,0.1434,-0.1272,0.1559,0.1207,-30.1262,-91.42,-30.1963,8.303422555780529,-3.846408987927034,34.97065414035223,13.53241678455028
-0.0536,0.9765,0.1494,-0.1272,0.1559,0.1207,-31.5175,-94.78,-29.6012,8.685284536058843,-3.1492928689405124,35.07210263552333,13.544656979034354
-0.0516,0.9667,0.1486,-0.128,0.1573,0.1329,-31.9813,-97.405,-29.5312,8.737260685359683,-3.0276328511085397,38.06331883195159,13.556891510857975
-0.0553,0.9658,0.1613,-0.1302,0.1606,0.1457,-32.0425,-100.0475,-29.4437,9.457027058306986,-3.220249921424804,39.873243992878606,13.56916603522104
-0.0464,0.965,0.1699,-0.1302,0.1606,0.1457,-32.025,-102.5938,-29.4962,9.96786155772296,-2.7413100326601336,39.815071852608426,13.581842254559945
-0.0296,0.9582,0.1632,-0.1303,0.1604,0.159,-32.4975,-105.3325,-28.945,9.675636646848279,-1.805252691396229,43.658521986865786,13.596569064815165
-0.0095,0.9665,0.1706,-0.135,0.1644,0.1722,-32.5325,-107.3713,-29.12,9.999489334040643,-0.6302673063007959,45.8358420972671,13.608995065345331
0.0038,0.9614,0.1677,-0.135,0.1644,0.1722,-34.895,-109.9,-28.385,9.89788417071729,0.16905231712945282,46.47702835591233,13.621141118099384
-0.0187,0.9445,0.1736,-0.1375,0.1667,0.1813,-33.3462,-111.335,-28.315,10.398440661903738,-1.0338428461936324,46.36135213138271,13.63354482190402
-0.0142,0.9449,0.1744,-0.1375,0.1667,0.1813,-34.0288,-112.7438,-27.8425,10.455559580190451,-0.8589548795902662,46.51563479602736,13.64589225302041
-0.0041,0.9406,0.1776,-0.1422,0.1672,0.1983,-33.285,-114.7913,-27.3437,10.684957234278183,-0.2870089410956353,48.85252954523837,13.658250655541426
0.0082,0.9503,0.1821,-0.1481,0.169,0.2068,-32.9175,-116.0688,-26.5387,10.842514827658551,0.43014642940751163,49.483938392579155,13.670479524704595
0.0379,0.9488,0.1831,-0.1481,0.169,0.2068,-33.1275,-117.1275,-26.9062,10.920150609987244,2.119191188855799,50.69772368416051,13.682771390965296
0.05,0.9445,0.1892,-0.1565,0.1726,0.2203,-33.705,-117.9413,-27.3087,11.314702489519128,2.913461110311922,51.41332870075871,13.695057240649266
0.0595,0.944,0.198,-0.1627,0.1758,0.2282,-34.755,-117.7488,-28.07,11.829756318601238,3.4901147988918493,51.505506820520445,13.707345921663462
0.0763,0.9378,0.2009,-0.1627,0.1758,0.2282,-34.2212,-116.2788,-29.9075,12.083371809300962,4.487480851832529,52.14739226623215,13.719578683905693
0.0978,0.9189,0.2107,-0.1702,0.1801,0.2429,-33.74,-115.255,-29.7062,12.8885002851012,5.838773175943445,53.45659294241119,13.731861702259437
0.0995,0.9182,0.2088,-0.1702,0.1801,0.2429,-33.1362,-114.4325,-30.3975,12.813735127729935,6.021017887014272,53.605569780417774,13.74413870403645
0.1025,0.9129,0.2178,-0.1755,0.1819,0.2506,-31.8412,-113.1638,-30.5988,13.398720481585935,6.2210514040076905,53.53675264553542,13.756472332417987
0.107,0.8981,0.2215,-0.1837,0.1845,0.2647,-31.8237,-111.7288,-30.6688,13.839335185502552,6.577448285846287,53.99701643301167,13.768581223962821
0.1211,0.8908,0.2296,-0.1837,0.1845,0.2647,-30.065,-110.3288,-30.3362,14.431529387517632,7.44748585827097,54.459575301031215,13.780887600790932
0.1326,0.8939,0.2406,-0.1928,0.1872,0.2724,-29.2863,-108.7188,-30.1262,15.041627731971412,8.111481166631144,54.104358155816726,13.793179467051633
0.1376,0.898,0.2427,-0.1998,0.1904,0.2828,-27.7025,-106.1725,-28.9275,15.120683962466527,8.395758324030023,54.38570540666075,13.805445143507741
0.1403,0.8943,0.2527,-0.1998,0.1904,0.2828,-26.7575,-104.0113,-28.42,15.752300126962899,8.573205159905793,54.23670271790048,13.815075205439552
0.1271,0.8755,0.2552,-0.2105,0.1928,0.2933,-23.975,-100.2488,-28.35,16.22851631910072,7.974963389731572,53.00023564345935,13.827665777039115
0.1286,0.8694,0.2582,-0.2105,0.1928,0.2933,-22.1375,-99.6538,-29.12,16.525425422649082,8.064776958962542,52.96233908923545,13.83945472826839
0.124,0.8722,0.2477,-0.2169,0.195,0.2992,-20.3175,-98.77,-30.4237,15.890316035166018,7.803071363873424,52.7438751898049,13.851825517859146
0.1118,0.8868,0.2538,-0.2247,0.1953,0.307,-18.2612,-97.9475,-31.5963,15.966119583062373,6.957784445855372,51.76046743348047,13.86343220220511
0.0812,0.9146,0.2501,-0.2247,0.1953,0.307,-16.8,-97.4488,-33.1275,15.338347871987825,4.995220165790411,50.61593749759817,13.875609399591651
0.0857,0.9124,0.2541,-0.2331,0.197,0.3137,-15.8287,-97.4575,-33.04,15.54646308047544,5.161743420632881,50.242203522157865,13.887631935564587
0.0975,0.9037,0.2505,-0.2331,0.197,0.3137,-15.1462,-97.965,-32.9525,15.497016131491764,5.897664018930989,50.805293297260754,13.899885932783512
0.1094,0.9024,0.2422,-0.2422,0.1989,0.32,-14.28,-97.7113,-33.9588,15.061479363419084,6.6417201857502635,50.99163317893955,13.912710443043014
0.1242,0.9114,0.2441,-0.2512,0.2003,0.3264,-13.16,-96.95,-34.1862,14.999537635370212,7.459275883802034,51.074347912473534,13.92488020818771
0.1235,0.9116,0.2394,-0.2512,0.2003,0.3264,-11.5587,-93.7475,-32.5675,14.743408741549004,7.464813131788668,51.17140357920723,13.937167119620517
0.123,0.9091,0.2397,-0.2598,0.2046,0.3291,-11.5062,-92.6188,-31.2812,14.768058340694603,7.454132958577405,50.28795278125503,13.949399881862746
0.1272,0.8974,0.2403,-0.2598,0.2046,0.3291,-9.9137,-90.965,-30.3187,14.963497303598063,7.777094533773402,50.42015854413999,13.96159088198414
0.1366,0.8918,0.2403,-0.2679,0.2038,0.3326,-8.2512,-88.8825,-29.8113,15.062598292164076,8.376026258910953,50.18055028389517,13.973635360766327
0.1508,0.8923,0.2341,-0.2742,0.202,0.3379,-6.4488,-86.7213,-28.7612,14.776895304322894,9.227819464139303,50.731676157180345,13.985837686208626
0.144,0.8874,0.2326,-0.2742,0.202,0.3379,-4.7075,-84.2888,-27.1863,14.717355417911588,8.94191424011891,50.493424125509875,13.998051690888106
0.138,0.8815,0.2338,-0.2899,0.2038,0.3426,-3.3513,-82.2588,-25.7075,14.771174424757504,8.63039965705268,48.83592430676783,14.010266757316423
0.1449,0.8775,0.2267,-0.2899,0.2038,0.3487,-0.84,-80.7538,-23.9662,14.585189962203144,9.043667357904921,49.890485625948365,14.019714198448643
0.1762,0.8922,0.2261,-0.2944,0.2044,0.3487,1.2775,-78.7763,-23.1612,14.293637063363377,10.667696065387924,50.663565542067786,14.03180397851445
0.2201,0.9272,0.2078,-0.3027,0.2035,0.3416,3.2375,-76.1688,-22.9337,12.871445689570452,12.81210599890924,51.07434725624539,14.043886326338415
0.2801,0.9588,0.2072,-0.3027,0.2035,0.3416,3.9025,-71.085,-23.7125,12.283300439061897,15.655385450868296,53.29399502324864,14.056018576357614
0.27,0.96,0.2001,-0.3099,0.2031,0.345,4.0425,-65.1438,-24.7537,11.839739981151913,15.41546235047154,52.516941408302976,14.068068363883976
0.2451,0.9518,0.1985,-0.3099,0.2031,0.345,2.5988,-51.3362,-22.9075,11.789734916456725,14.271622797396562,51.63329173891247,14.080297940879701
0.2352,0.9431,0.202,-0.3133,0.2006,0.3414,3.0275,-45.5088,-21.7962,12.044862538630918,13.766250862332726,50.476388688579156,14.092300303624775
0.232,0.9375,0.1953,-0.3177,0.201,0.3452,4.0075,-40.1362,-20.9913,11.803509316579872,13.63601994723445,50.379502522854025,14.101531501910971
0.2492,0.9544,0.198,-0.3177,0.201,0.3452,3.3425,-34.02,-19.5475,11.732134967124951,14.239769374334154,50.865668809220196,14.113666583260397
0.2461,0.9485,0.2008,-0.3236,0.2004,0.3444,3.675,-28.0438,-18.6375,11.923233464243118,14.242412900000895,50.031566469242904,14.125829270079528
0.2316,0.9349,0.2068,-0.3236,0.2004,0.3444,3.045,-22.8812,-19.0925,12.3915517242646,13.696791246230088,49.43420910048968,14.13789533775469
0.2073,0.9206,0.2058,-0.3242,0.2014,0.341,3.3863,-17.78,-19.3113,12.571703304402158,12.587993901360953,48.23803940053637,14.150036789597126
0.1898,0.9148,0.2089,-0.3267,0.1993,0.3436,4.27,-13.9475,-18.7862,12.826709721521993,11.62117898520305,47.52244000369596,14.162178949272118
0.1696,0.9245,0.1988,-0.3267,0.1993,0.3436,4.9175,-11.3662,-18.9962,12.215927816299965,10.394953940868684,47.01583877633438,14.174299520054134
0.1687,0.9303,0.1986,-0.3276,0.1973,0.343,5.005,-8.8287,-18.235,12.069567963325197,10.11647732078197,46.81515133232536,14.183456042005615
0.1667,0.9338,0.1887,-0.3276,0.1973,0.343,5.5475,-6.7463,-17.6225,11.494072973319733,9.963232025505192,46.92593565754749,14.195548653401648
0.1669,0.9398,0.1934,-0.3266,0.1976,0.3389,6.125,-4.7688,-16.5637,11.614801677140843,9.89172264175732,46.59009667421445,14.207585699941992
0.1657,0.9506,0.1815,-0.3277,0.1976,0.343,5.67,-2.9925,-15.7587,10.895393083870765,9.771441196347388,46.937595949054035,14.219696714984497
0.1667,0.9567,0.1834,-0.3277,0.1976,0.343,5.6788,-1.3212,-15.4787,10.856607911521513,9.731885310667113,46.98601395212271,14.231743671180633
0.1773,0.964,0.1744,-0.3256,0.1975,0.3397,5.2588,0.7,-14.7875,10.321779724378048,10.018363550330982,47.09310763100013,14.243812216269744
0.1637,0.9527,0.1839,-0.3256,0.1975,0.3397,2.4325,4.8562,-14.9713,10.827101533431588,9.762341203940029,46.85891541434489,14.25296555297472
0.1302,0.935,0.1903,-0.327,0.1972,0.3394,1.8375,6.5363,-14.9537,11.382083361456262,8.614700420037433,45.66379869852393,14.264920490938504
0.0944,0.9205,0.1975,-0.327,0.1972,0.3394,2.1963,5.705,-14.56,11.986360221631866,7.195822141398321,44.43319666072218,14.277007793590364
0.0808,0.9125,0.1978,-0.3243,0.1956,0.3391,3.22,3.3688,-14.98,12.195351092049702,5.889167175921816,44.120382198471326,14.289007325005212
0.0855,0.9152,0.201,-0.3273,0.1943,0.3369,4.13,1.155,-15.2075,12.362432337218822,5.472194231365362,44.06538058075806,14.298402386528247
0.1332,0.9492,0.1926,-0.3273,0.1943,0.3369,4.2875,-0.4025,-15.7762,11.581680439043916,7.0892808141262975,44.75564290121226,14.310224251971402
0.1421,0.958,0.1849,-0.3239,0.1934,0.3367,4.2263,-1.0675,-15.8725,11.007020507854179,7.921187569615248,45.59385543603998,14.322304830213975
0.1479,0.9657,0.1868,-0.3239,0.1934,0.3367,3.4038,-0.7613,-15.4962,10.956121483129655,8.334110928302161,45.9335937630137,14.334408413014634
0.1488,0.9631,0.1826,-0.3274,0.193,0.3294,2.7475,0.2013,-14.945,10.769798075988845,8.504926626173939,45.5821720483756,14.346363350978418
0.1347,0.9637,0.1819,-0.3277,0.1927,0.3338,1.365,0.9013,-13.8337,10.704870564867386,8.37290663808159,45.531377495117454,14.359719089571609
0.1333,0.9623,0.1854,-0.3277,0.1927,0.3338,0.6913,1.4437,-13.335,10.8596231138236,8.243645173629506,45.39728512585796,14.366960216625076
0.1347,0.9623,0.1738,-0.327,0.1921,0.3354,-0.98,1.5837,-12.2937,10.465919782993504,8.017147755503482,45.46044577494113,14.379156525490643
0.1633,0.9595,0.1717,-0.327,0.1921,0.3354,-1.8987,1.3212,-11.1037,10.322850671027458,9.082748946781564,45.67882475372455,14.391290191174956
0.1545,0.9517,0.1724,-0.3278,0.1919,0.336,-2.3625,1.645,-11.515,10.30877658016212,9.078071139239746,45.86626445245156,14.403478359966122
0.1355,0.9356,0.1875,-0.3278,0.1919,0.336,-3.325,2.6863,-11.9,10.700262347015393,8.451739798036762,45.50784399238726,14.415704043882787
0.1139,0.9149,0.1837,-0.3263,0.1925,0.3393,-3.8238,3.0363,-11.6112,11.044991418920276,7.459339051246981,45.28844867164761,14.425035400475734
0.1019,0.905,0.1905,-0.3259,0.1918,0.3345,-3.8675,1.995,-11.9,11.497556773067453,6.722438315117107,44.764391509527755,14.437172251406551
0.1049,0.9255,0.1912,-0.3259,0.1918,0.3345,-2.4063,0.1312,-11.62,11.537875026372546,6.46452276492989,44.55188840678182,14.449182400309747
0.1441,0.9416,0.1856,-0.3265,0.1911,0.3359,-1.1725,-1.365,-11.8125,11.30354601453859,7.7934203787435425,45.37341199144354,14.461317481659174
0.1559,0.9488,0.1891,-0.3265,0.1911,0.3359,-0.5425,-2.065,-12.6612,11.281702611277257,8.450377940508673,45.84498646615104,14.473453624757434
0.1606,0.9479,0.1839,-0.329,0.191,0.3358,-1.68,-1.8463,-12.3025,11.128657333619358,9.01013627192593,45.9548587348462,14.48618717853342
0.1611,0.9479,0.1825,-0.3296,0.191,0.3335,-1.8375,-1.4088,-12.3287,11.02140489075247,9.269712607849632,45.808939646602276,14.49761867432164
0.1621,0.9397,0.1858,-0.3296,0.191,0.3335,-1.7587,-0.7962,-12.425,11.10068725144608,9.450424976181637,45.750952829929524,14.506913577537924
0.1651,0.9354,0.1807,-0.329,0.1902,0.3339,-2.1,0.0875,-12.3987,11.037696193234076,9.658022696691157,45.886974586272416,14.518990616617714
0.1678,0.9349,0.1773,-0.329,0.1902,0.3339,-1.8375,1.0062,-13.0113,10.898607896647409,9.784315194388075,45.898092724442414,14.531069071362616
0.1693,0.9346,0.1713,-0.3303,0.1914,0.3364,-1.6538,1.715,-12.9675,10.635980223005374,9.907100369456298,46.129015916300546,14.543144694777293
0.1618,0.9332,0.1789,-0.3302,0.1913,0.3337,-1.3825,2.1263,-13.09,10.759169671629188,9.825461658293195,45.971210893846106,14.555238014005882
0.1498,0.9262,0.1832,-0.3302,0.1913,0.3337,-2.1525,2.8,-13.2737,10.912079893865112,9.62865571871014,45.58482768264753,14.567257364732313
0.1272,0.9191,0.1912,-0.3282,0.1905,0.3345,-1.6275,2.45,-13.6325,11.347620917294462,9.558974076123038,45.107525461019726,14.576530325139345
0.12,0.9191,0.1878,-0.3282,0.1905,0.3345,-0.9275,1.0762,-14.14,11.476063484703294,8.758169505872653,45.09296520041076,14.588576573502925
0.1319,0.9315,0.1857,-0.3314,0.1907,0.3332,-0.2538,0.07,-14.1575,11.332852488901157,8.451253365385815,44.8491944372643,14.600610080880486
0.1487,0.9381,0.1857,-0.3314,0.1907,0.3332,-0.14,-1.4262,-14.595,11.235195651900781,8.64485932758438,45.03028621768645,14.612794356592593
0.1566,0.9426,0.177,-0.3297,0.1892,0.3324,0.5688,-0.5775,-14.9625,10.775468781074371,9.00803917686123,45.39424715482925,14.62484732936546
0.1553,0.9436,0.1716,-0.3302,0.1876,0.3336,-0.3325,0.0175,-14.525,10.44587219812535,9.099531241970425,45.5808807960943,14.63689534731043
0.153,0.9412,0.169,-0.3302,0.1876,0.3336,-1.33,-0.3675,-14.2275,10.291594893171402,9.095936334941113,45.67986245174207,14.646178925205811
0.1441,0.9399,0.1713,-0.3301,0.189,0.3332,-0.5513,-0.2275,-11.8912,10.317131018721323,8.769107849921413,45.52706454513554,14.658246762462365
0.1457,0.9473,0.1634,-0.3301,0.189,0.3332,-1.54,-0.1488,-12.9237,10.031613111839961,8.708658879483794,45.57268214427559,14.67039670829548
0.1443,0.9586,0.1627,-0.3294,0.1902,0.3336,-1.1375,-0.2013,-13.2825,9.7881098338017,8.645128476744363,45.631786708217874,14.682513385998435
0.1529,0.9642,0.1599,-0.3303,0.1887,0.3329,-2.1788,0.35,-12.5387,9.659739643276264,8.771571213903682,45.709164887042434,14.694642804687408
0.148,0.9647,0.1567,-0.3303,0.1887,0.3329,-3.0275,0.6038,-12.46,9.554167397735675,8.686180757823262,45.71956968633893,14.70668657563704
0.1385,0.9511,0.1616,-0.3289,0.1879,0.333,-3.85,0.6825,-12.3987,9.6015486151713,8.404921422973613,45.67093415332294,14.715867163895442
0.1284,0.9412,0.164,-0.3289,0.1879,0.333,-5.4862,0.77,-11.5237,9.809512076228431,7.8988529795077564,45.57037072024258,14.727910934845074
0.1296,0.9332,0.1662,-0.3325,0.1883,0.3334,-5.5738,0.2013,-10.99,10.023657518404491,7.816962156962329,45.25691671495576,14.740002484492273
0.1459,0.933,0.1654,-0.3325,0.1899,0.3358,-5.2762,-0.8487,-10.64,10.044649332396936,8.51664932515173,45.48651638664826,14.752112083869664
0.1657,0.9337,0.172,-0.3324,0.1899,0.3358,-4.6463,-1.1638,-10.9812,10.303995755998605,9.517229055824588,45.89578432478457,14.764248226967924
0.1813,0.9475,0.1727,-0.3353,0.1898,0.3346,-4.62,-0.1575,-11.3662,10.320982113552931,10.30661789806328,46.01564500491829,14.776354995015089
0.177,0.9398,0.1738,-0.3353,0.1898,0.3346,-4.6287,1.8025,-11.5587,10.423957618060465,10.431051431378025,45.99910539959077,14.788433095843713
0.1721,0.9338,0.1818,-0.3329,0.1904,0.3344,-4.8038,3.2288,-11.48,10.825589346318102,10.310941404509453,45.923230140968386,14.797687652604274
0.1595,0.929,0.1796,-0.3329,0.1904,0.3344,-5.0575,3.8675,-11.6462,10.90712219773755,9.820189254013696,45.64615801918835,14.809948728148767
0.1596,0.9238,0.1812,-0.3337,0.1908,0.3302,-5.1275,4.1563,-11.4975,11.041843905892522,9.686059797848362,45.173347860517836,14.821810586131365
0.1686,0.9282,0.1798,-0.3331,0.1898,0.3357,-5.3463,3.71,-12.2062,10.984577398134748,9.933146323666291,45.7306467567445,14.833885501713485
0.1755,0.9387,0.1761,-0.3331,0.1898,0.3357,-4.8562,3.6575,-13.0025,10.739254937300576,10.111335713881548,46.079697324792065,14.84594519889564
0.1602,0.9359,0.1885,-0.3324,0.1896,0.3358,-4.865,4.97,-16.0387,11.182397610104227,9.695691613326288,45.66712502159539,14.85504438641004
0.1427,0.9313,0.1914,-0.3324,0.1896,0.3358,-5.11,5.11,-17.2112,11.486988764771027,8.787041934972553,45.10308876058702,14.868437286212448
0.1299,0.9254,0.1954,-0.3339,0.1919,0.3403,-4.6988,4.55,-17.1325,11.7773177122632,8.033317245585346,44.8436431100815,14.87883322297044
0.1277,0.9219,0.1994,-0.333,0.1912,0.3364,-3.9113,3.185,-16.6425,12.010904680663277,7.790067770062673,44.48201142139254,14.890992370626789
0.1363,0.922,0.1976,-0.333,0.1912,0.3364,-3.6312,2.0913,-16.3537,12.052026852766009,8.10932820212624,44.551416699239724,14.903199296980704
0.1502,0.9293,0.1939,-0.3326,0.1902,0.3358,-3.3688,1.9075,-15.0237,11.945856935903684,8.627900496931073,44.81301525691197,14.915365522962619
0.1506,0.9338,0.1888,-0.3326,0.1902,0.3358,-3.01,2.38,-14.1312,11.825531054791734,8.75184540180712,45.05682572831794,14.924675644578869
0.1439,0.9367,0.192,-0.331,0.1933,0.3373,-3.1588,2.3013,-13.7462,11.7501278193927,8.726408475011134,45.1659283564792,14.936755868905163
0.1385,0.9343,0.1967,-0.331,0.1933,0.3373,-3.1325,2.4413,-12.775,11.791665489249137,8.513484098584854,45.057740277721535,14.948867237863945
0.1393,0.924,0.1942,-0.333,0.1906,0.3369,-3.4038,1.82,-12.3375,11.823576351739675,8.446127281822855,44.96373472938506,14.960679547567587
0.1358,0.9192,0.1964,-0.3342,0.193,0.3362,-2.9838,1.4787,-12.285,11.875185269444067,8.318463990498966,44.81746133629099,14.97286842419131
0.1486,0.924,0.1965,-0.3342,0.193,0.3362,-2.3888,1.2075,-12.5125,11.906608903104573,8.641312569966605,44.82584913350816,14.985032880591833
0.152,0.9373,0.1943,-0.3324,0.1926,0.336,-1.2163,0.7525,-11.5237,11.789819178432337,8.898561937446797,44.9077634258253,14.994408122803286
0.1547,0.946,0.1928,-0.3324,0.1926,0.336,-1.1725,0.9538,-10.5875,11.626172849882586,9.052355662893817,44.940512860041366,15.006473128729613
0.1538,0.9496,0.1925,-0.3327,0.1922,0.3337,-1.5837,1.2075,-9.8525,11.538067506413523,9.026468387290295,44.95162052636058,15.018414263958546
0.1466,0.9391,0.1929,-0.3338,0.1894,0.3348,-2.0913,0.9887,-9.1525,11.564541411608607,8.755088605283909,44.944273597731616,15.030431137271028
0.1487,0.9262,0.1887,-0.3338,0.1894,0.3348,-2.0213,0.9275,-9.0387,11.54465372181378,8.906973113254907,44.94736418663077,15.042362716760449
0.1693,0.9321,0.1886,-0.3366,0.1898,0.3352,-2.59,1.0325,-8.33,11.533676797560524,9.904804358168942,44.95255394579623,15.051329185670497
0.1862,0.9407,0.1817,-0.3366,0.1898,0.3352,-2.6075,0.2538,-8.5575,11.479948534201338,10.816989786041393,45.42974716465234,15.063465682685035
0.1846,0.9509,0.1834,-0.3359,0.1906,0.3351,-2.59,1.7937,-9.1787,11.421570518028478,10.796765161658712,45.66772037550945,15.075470522844057
0.1779,0.9409,0.1922,-0.3359,0.1906,0.3351,-2.94,2.2488,-9.345,11.445030825830298,10.552484527397983,45.636767553102814,15.087560656826142
0.1754,0.9275,0.1914,-0.335,0.1905,0.3342,-2.8087,2.6075,-10.4737,11.465117391709365,10.507241959409372,45.59553351022507,15.096563225196574
0.1746,0.9195,0.1893,-0.34,0.191,0.3358,-2.975,2.9575,-11.025,11.500768682433364,10.527797175186933,45.3807475387873,15.10866539233212
0.177,0.9222,0.185,-0.34,0.191,0.3358,-2.9488,3.3163,-10.8062,11.469980619465186,10.623235850991868,45.41772166642469,15.120754110649093
0.182,0.9256,0.1849,-0.3383,0.1905,0.3357,-2.485,3.2462,-11.8562,11.438687841293927,10.807701926867914,45.644400810830454,15.132899809486867
0.1859,0.9241,0.1841,-0.3383,0.1905,0.3357,-2.24,3.4825,-11.725,11.384145336949608,11.03765567647016,45.82086898885167,15.145169379022038
0.1806,0.9207,0.1861,-0.3394,0.1899,0.3348,-1.9687,4.3838,-12.4775,11.40239706981623,10.956188627759147,45.56509607363119,15.157228368371635
0.1685,0.911,0.1978,-0.3367,0.19,0.3341,-2.275,4.8825,-13.2125,11.657566317050389,10.759704960202045,45.15510016319728,15.166462397988056
0.1514,0.9032,0.1942,-0.3367,0.19,0.3341,-1.3125,4.4275,-13.72,11.935267728873395,10.597925224159003,44.71583867300369,15.178553593718977
0.141,0.9059,0.1981,-0.335,0.1892,0.337,-0.4025,3.7625,-13.8863,12.214070799554085,10.157177822754926,44.650943254716154,15.19058887067793
0.1543,0.9167,0.1947,-0.335,0.1892,0.337,0.735,2.2838,-13.9912,12.041229496327688,9.92792990528202,44.91145620017291,15.202592649088118
0.1674,0.9234,0.1889,-0.3372,0.191,0.3316,1.47,1.5487,-14.2887,11.65417791060258,9.986619141915634,44.905427104689025,15.214619432056391
0.1756,0.9296,0.189,-0.3372,0.191,0.3316,1.8463,1.4962,-15.0675,11.521497919700339,10.284875598466316,44.97918793420895,15.223844967682135
0.1784,0.9303,0.185,-0.3363,0.1882,0.3309,1.5575,1.9337,-15.82,11.299273276560257,10.538128246095917,45.14832031598081,15.235842729515591
0.1735,0.9364,0.1823,-0.3379,0.1878,0.3334,0.805,2.1438,-15.3387,11.079301361814464,10.391673681866584,45.24185184461815,15.247819610288628
0.1717,0.9401,0.1853,-0.3379,0.1878,0.3334,1.575,2.52,-15.715,11.136972916754738,10.233667820837002,45.218968860561134,15.259975926614752
0.1718,0.948,0.177,-0.3366,0.1856,0.333,1.575,2.73,-15.1725,10.682118859598853,10.1524653121549,45.36660033375066,15.27174151936966
0.1758,0.9456,0.1769,-0.3366,0.1856,0.333,0.8575,3.045,-14.7087,10.615060136663956,10.25980176997077,45.50903469457709,15.28112171640901
0.1738,0.9451,0.1726,-0.3356,0.1894,0.3312,0.455,3.4913,-14.9625,10.413443817412576,10.256523698454714,45.52076503333557,15.293080901368134
0.1735,0.9521,0.1779,-0.3356,0.1894,0.3312,-0.4112,4.2875,-15.2163,10.532005864139366,10.194101256354752,45.425222050683104,15.305125026234045
0.1737,0.9526,0.1784,-0.3364,0.1864,0.3323,-1.5575,4.8038,-14.105,10.572252662841581,10.182942857029303,45.42461079499842,15.317198526151051
0.166,0.946,0.1811,-0.3355,0.1862,0.3314,-1.5137,5.6963,-13.6763,10.716458544592358,10.152434816932827,45.196989454146966,15.329190625324054
0.1574,0.9149,0.1918,-0.3355,0.1862,0.3314,-1.785,5.355,-12.9675,11.255027400249125,9.92324929225999,44.78265841528558,15.338449429079956
0.1574,0.9094,0.1959,-0.3329,0.1869,0.3309,-0.6125,5.1538,-12.8537,11.865190545646076,9.78715268422567,44.79524503798815,15.350521867248128
0.1555,0.9102,0.1917,-0.3329,0.1869,0.3309,0.5425,5.3113,-12.0487,11.886772262645904,9.607082087391362,44.826027280133864,15.362534139648993
0.1521,0.9211,0.1871,-0.3372,0.1858,0.3355,1.5662,5.3987,-11.8912,11.558849228486757,9.345625974596178,44.86280769766245,15.375106307602087
0.1471,0.9304,0.1889,-0.3347,0.1855,0.3306,1.3475,5.46,-11.69,11.493050514479409,8.992782693702221,44.510229446321354,15.386389158553431
0.1471,0.9318,0.1854,-0.3347,0.1855,0.3306,1.9075,4.41,-11.1387,11.295899099436653,8.856707021577801,44.50733489202073,15.395019760915398
0.1592,0.9298,0.1889,-0.3358,0.1855,0.3299,2.0913,3.6663,-10.99,11.451572713099807,9.339630471313612,44.586563289020724,15.407189172143816
0.168,0.932,0.1818,-0.3358,0.1855,0.3299,1.9425,2.5813,-10.885,11.111027757520725,9.846175550575627,44.857528103081215,15.419349381548999
0.1734,0.9309,0.1761,-0.338,0.1858,0.3266,1.9775,1.9775,-11.3575,10.782344364858286,10.209415324797973,44.81533511648564,15.431529764182045
0.1744,0.9337,0.174,-0.338,0.1858,0.3266,1.995,1.8812,-11.935,10.595941566714563,10.331393062674609,44.8262749810672,15.44012992974408
0.1778,0.9334,0.1742,-0.3358,0.181,0.3226,1.8288,1.995,-12.04,10.575889323796858,10.498506225301727,44.78836872075499,15.452305357549228
0.1673,0.9321,0.1698,-0.3357,0.1842,0.3266,1.5487,2.0825,-11.97,10.372197761376587,10.198670940971706,44.86604519684239,15.464482201019491
0.159,0.9308,0.171,-0.3357,0.1842,0.3266,1.05,2.2138,-13.16,10.401971030363802,9.998240157672866,44.76103439482042,15.477038442740062
0.1546,0.9208,0.1709,-0.3352,0.1831,0.3277,1.3562,1.3562,-13.1337,10.492209244989239,9.801195883086484,44.75032630876452,15.488993734620125
0.1698,0.9275,0.1672,-0.3352,0.1831,0.3277,1.505,0.3063,-12.985,10.271378329912386,9.957298065917275,44.95705241858953,15.498279082096897
0.178,0.9327,0.1647,-0.3378,0.1825,0.3251,2.1963,-0.665,-13.6412,10.057848237179774,9.98781179873379,44.987897597249464,15.510341256693
0.1833,0.9442,0.1565,-0.3378,0.1825,0.325,2.8,-0.6913,-14.1575,9.51055215641457,10.295422623935618,45.17626340180928,15.522359899586874
0.1842,0.9476,0.161,-0.3389,0.1834,0.325,1.5662,-0.315,-14.385,9.617583480363873,10.539617539469376,45.13876063463658,15.534366509327286
0.1772,0.9421,0.1559,-0.3364,0.1812,0.3258,0.6388,0.1663,-13.9038,9.447183396325684,10.533241770070278,45.23150334768583,15.546491681020921
0.1724,0.9327,0.1546,-0.3364,0.1812,0.3258,-0.6563,-2.2225,-14.2362,9.423209151123489,10.455545070357473,45.24050186000845,15.55844803464982
0.1765,0.9298,0.1573,-0.3358,0.1811,0.3255,-0.63,-0.8575,-14.84,9.543977885055666,10.536319300364449,45.31041156634279,15.567869285977448
0.1878,0.9309,0.1595,-0.3358,0.1811,0.3255,-0.2187,-0.6563,-14.5075,9.671390774428314,10.875060996652207,45.51850612529004,15.579946678973515
0.1928,0.9326,0.1553,-0.3376,0.1815,0.329,-0.49,-0.5075,-14.4462,9.521847401780898,11.174450411883436,45.83494632353515,15.592038228620714
0.1931,0.9364,0.1568,-0.3391,0.1821,0.3243,-0.6825,0.4112,-15.3037,9.511225108166405,11.377443666287347,45.663412247263544,15.60411986861212
0.1964,0.9401,0.1599,-0.3391,0.1821,0.3243,-0.945,1.0062,-16.38,9.60161910819177,11.568933764273813,45.654430022187235,15.616184166705892
0.2025,0.9357,0.1607,-0.337,0.1818,0.3246,-0.77,1.435,-17.0362,9.696212817768862,11.934213068621926,45.70762597748316,15.628250588297334
0.2076,0.9365,0.1588,-0.337,0.1818,0.3246,-0.8575,2.4063,-18.3487,9.649329629323212,12.259987225875205,45.89565254850139,15.637477893504467
0.2065,0.9406,0.1584,-0.335,0.1819,0.3221,-1.1638,3.8413,-18.9437,9.594597569374363,12.222576951072604,45.928139927387406,15.649575105812119
0.1914,0.9447,0.1555,-0.3338,0.1818,0.3233,-1.1112,5.1275,-19.8625,9.442566328050974,11.431413580337713,45.796078917820296,15.66160648969201
0.1722,0.9425,0.1579,-0.3338,0.1818,0.3233,-1.4875,6.195,-20.0025,9.4799388968156,10.378995274538317,45.26089297817764,15.67368388268808
0.1314,0.9367,0.1523,-0.332,0.1813,0.3243,-2.205,6.4313,-18.6375,9.398235597104904,8.29616368189371,44.53311056901218,15.685691908093604
0.1294,0.9389,0.1554,-0.332,0.1813,0.3243,-1.96,5.7137,-18.2087,9.398129504865498,7.84159805919829,44.32414519419526,15.697684361182887
0.1393,0.9431,0.1512,-0.3318,0.1812,0.3241,-2.1088,4.3925,-16.8787,9.289799946443903,8.191179743821039,44.56070784449957,15.707072698296637
0.1516,0.9531,0.1526,-0.3318,0.1812,0.3241,-2.2575,3.7538,-16.0912,9.229945471355324,8.715793281619812,44.831809225125326,15.719231845952985
0.1635,0.954,0.1525,-0.3323,0.1814,0.3198,-2.975,2.9138,-14.9012,9.198564569705685,9.219731290101603,44.80076766415568,15.731174750763309
0.1693,0.9548,0.1548,-0.3338,0.1822,0.3245,-3.8063,3.395,-14.14,9.204100608007732,9.469620570230635,45.1011911044405,15.743286827554646
0.1593,0.9332,0.1618,-0.3338,0.1822,0.3245,-4.795,3.7538,-13.965,9.631641795874598,9.49064638168869,44.91149488932765,15.755292021629947
0.1566,0.9235,0.1694,-0.3321,0.182,0.3244,-4.655,4.0075,-14.0262,10.1357584852525,9.484171924789388,44.80954038435774,15.764662662929782
0.1609,0.9179,0.1657,-0.3321,0.182,0.3244,-4.4713,3.6312,-13.1775,10.197758228770079,9.573429637014668,44.938581785965255,15.776652638605116
0.1675,0.9198,0.1599,-0.3313,0.1814,0.3231,-4.3488,3.2025,-13.4137,9.988942613951899,9.665074665201306,45.15143973959875,15.78861607055958
0.1747,0.9294,0.1655,-0.3327,0.1813,0.3246,-3.4825,3.0363,-13.6062,10.036157567284254,9.674403929419706,45.28254474918661,15.800709035871892
0.1759,0.9308,0.1606,-0.3327,0.1813,0.3246,-3.3775,3.1238,-13.4137,9.936997641187931,9.80844984265967,45.41456907305359,15.812745020663401
0.1753,0.9358,0.1623,-0.3333,0.1819,0.3248,-2.9488,3.71,-13.7637,9.917864532693073,9.902282189185541,45.38737522869665,15.824845772133836
0.1712,0.9361,0.1639,-0.3333,0.1819,0.3248,-2.9488,4.1213,-13.5975,9.920462470207301,9.903152122848061,45.26346195552002,15.834244726735932
0.1709,0.9347,0.1707,-0.3312,0.1823,0.3282,-3.115,3.8413,-13.7637,10.045120364958523,9.945558273716285,45.5344526618337,15.846496600457188
0.1684,0.9323,0.1602,-0.3312,0.1823,0.3248,-3.0538,4.0425,-14.2362,9.968924255618303,10.003579577328026,45.45482814415125,15.858351026197944
0.166,0.9333,0.1647,-0.3294,0.1816,0.3248,-3.6488,4.0513,-14.6912,9.987881187702408,9.967698634154711,45.446498900820906,15.869947093055561
0.1642,0.9367,0.1617,-0.3297,0.181,0.3247,-3.7538,3.7188,-14.385,9.88880635778898,9.893947219240406,45.41573863246775,15.882142340172294
0.1465,0.9372,0.1698,-0.3297,0.181,0.3247,-3.3075,3.815,-14.4112,10.031786179892157,9.37717840184433,44.908876418749564,15.894298656498416
0.1437,0.9346,0.1756,-0.3302,0.183,0.3242,-3.5263,3.2375,-14.7875,10.30645014248802,8.950633128284569,44.57195172046293,15.903078965446092
0.1434,0.931,0.1704,-0.3302,0.183,0.3242,-3.1937,2.59,-14.8487,10.327946243989878,8.764137339490429,44.541762900444326,15.915231388693153
0.1509,0.9342,0.1737,-0.3301,0.1811,0.3206,-2.6425,1.96,-14.42,10.34011668628088,8.88145584961491,44.43445374410389,15.927405046916912
0.1609,0.9362,0.1719,-0.3325,0.1818,0.3241,-2.3275,1.3912,-14.3675,10.35776726314606,9.192301885017994,44.51958813483585,15.93958259821973
0.1612,0.9367,0.1629,-0.3325,0.1818,0.3241,-3.3688,0.7788,-13.5712,10.161496160257352,9.202182293885057,44.61135841372432,15.95178633932714
0.1627,0.9347,0.172,-0.3309,0.1826,0.3245,-3.1937,0.9625,-13.3175,10.248486308850762,9.3133525433739,44.64207926652436,15.960474630042466
0.1602,0.9313,0.1668,-0.3309,0.1826,0.3245,-3.0713,1.0587,-14.245,10.22325684498137,9.430387804868761,44.64769559227662,15.972670938908033
0.1613,0.9285,0.1747,-0.3304,0.1819,0.323,-2.9575,0.7525,-13.4663,10.31028770840357,9.459747454525505,44.687391577864325,15.984848136294573
0.1601,0.9266,0.1726,-0.3315,0.1806,0.3242,-2.7125,0.4987,-13.7112,10.311941033331895,9.478586826188694,44.744857398190874,15.996974369737044
0.1629,0.9304,0.1696,-0.3315,0.1806,0.3242,-2.6075,0.2187,-14.105,10.313630931070513,9.578118998518287,44.855593363649156,16.009133871309672
0.1756,0.9376,0.1565,-0.3307,0.1814,0.3246,-2.4325,0.0,-13.9212,10.133985676509925,9.796744351918363,45.30308769862481,16.021298327710195
0.1782,0.9444,0.1717,-0.3307,0.1814,0.3246,-2.135,0.2013,-14.14,10.195865827677624,10.050949156992404,45.392384237436666,16.030120752694984
0.1787,0.9401,0.1692,-0.3306,0.1812,0.327,-2.7738,1.0325,-14.3325,10.19631561412557,10.282537302315983,45.39764008646899,16.042292287421073
0.1709,0.9385,0.1645,-0.3306,0.1812,0.327,-3.255,1.75,-14.4637,10.106065607970509,10.229611477803825,45.51665908237625,16.05443090793328
0.1673,0.9309,0.1696,-0.3317,0.1829,0.3293,-3.3513,2.1438,-14.7962,10.192133023305505,10.118887307218298,45.56660747777476,16.066618014975614
0.1535,0.9245,0.17,-0.3326,0.183,0.3239,-2.5988,2.2313,-15.1462,10.21405741479779,9.605385634167737,45.02449076788318,16.078740355339022
0.1544,0.9357,0.1684,-0.3326,0.183,0.3239,-2.1875,1.8375,-15.7062,10.210089721157242,9.346817494712008,44.8437710090091,16.090905873488378
0.1631,0.9253,0.1746,-0.3303,0.1818,0.3244,-1.5312,1.75,-15.5925,10.467030743332796,9.666642014936317,44.923605905450884,16.099669194454698
0.1692,0.9298,0.1697,-0.3303,0.1818,0.3244,-1.3125,1.7762,-15.9512,10.395028036666481,10.005597161205955,45.089014921217334,16.11184851533891
0.1735,0.9333,0.1656,-0.3315,0.182,0.3201,-1.015,1.7675,-15.9425,10.185494057646084,10.262991800128532,45.03607638109974,16.12433715905033
0.1724,0.9342,0.1649,-0.3294,0.1812,0.3269,-0.7525,2.1088,-15.8375,10.069710659432467,10.288689932994313,45.450891331661886,16.13655080981353
0.1646,0.9389,0.1662,-0.3294,0.1812,0.3269,-0.3763,3.08,-16.4325,10.047709345547071,9.923130810497003,45.53335017141199,16.148543262902813
0.1548,0.9343,0.1647,-0.3301,0.1817,0.3243,-0.7088,4.0338,-15.3825,10.014243819644026,9.502526048313143,45.12798816306537,16.15777233769134
0.1444,0.9345,0.1629,-0.3301,0.1817,0.3243,-1.2862,3.6837,-14.0175,9.940365318159145,9.250798094224349,44.83850572782165,16.16983911319906
0.1477,0.9374,0.1621,-0.3342,0.1814,0.3248,-1.1812,3.2375,-13.65,9.862158487703097,9.228491579197252,44.59950065275724,16.18189774863238
0.1534,0.9434,0.1522,-0.3342,0.1814,0.3248,-1.1987,3.36,-13.3962,9.442878041303686,9.210483191520387,44.76776268541302,16.194229607432526
0.1615,0.9457,0.1581,-0.3275,0.1809,0.3216,-1.855,3.185,-13.1687,9.464909951185717,9.315162610869159,45.12145589954935,16.205971487796788
0.1647,0.9501,0.1537,-0.3266,0.1807,0.3226,-1.085,3.7188,-12.8537,9.29445071997717,9.48351022778747,45.5033886851293,16.218032600644058
0.1688,0.9522,0.1559,-0.3266,0.1807,0.3226,-1.61,4.2,-12.6612,9.296471740370498,9.695769690120386,45.66676656128907,16.227440757069388
0.1662,0.9485,0.1602,-0.3282,0.18,0.3219,-1.9775,5.005,-12.5387,9.418746444595747,9.750647017398046,45.40370354581407,16.239456568633038
0.1674,0.9491,0.1592,-0.3282,0.18,0.3219,-2.835,5.3725,-12.4162,9.43057948098694,9.81398124772657,45.39270008550274,16.251547410447678
0.1674,0.9467,0.159,-0.3299,0.1816,0.3234,-3.4388,5.565,-12.3287,9.474309158929602,9.85751761888742,45.38399218156507,16.263469788113863
0.1667,0.9451,0.1562,-0.3302,0.1813,0.321,-3.1238,5.6175,-12.0925,9.447867737663291,9.866155862117868,45.189629652497764,16.27553691753786
0.1698,0.9393,0.1601,-0.3302,0.1813,0.321,-3.955,5.6788,-11.4625,9.572849872648606,10.028205294078093,45.17517523331607,16.287613248785092
0.1637,0.929,0.1654,-0.3294,0.1795,0.3222,-4.0163,6.4225,-11.515,9.869149025523233,9.902381872041888,45.116919121399626,16.29688514744329
0.1615,0.9256,0.1684,-0.3294,0.1795,0.3222,-3.2638,6.5012,-11.7775,10.027571517427747,9.798060117026154,45.0054896879434,16.308921840067356
0.1571,0.9159,0.1691,-0.3273,0.1803,0.3198,-3.7625,5.845,-11.7775,10.250054522818722,9.653674848246997,44.846296757812894,16.32096738059838
0.1579,0.9131,0.1739,-0.3273,0.1803,0.3198,-2.8525,5.5213,-13.0462,10.318296480395505,9.649196643676648,44.75804430335304,16.333051498003734
0.1575,0.9202,0.1754,-0.3275,0.1803,0.3211,-2.3013,4.6813,-12.425,10.454601570844964,9.592461350852275,44.79114758222978,16.345120043092844
0.1634,0.9245,0.1712,-0.3298,0.1799,0.3224,-2.2488,4.3488,-12.2587,10.466094861931051,9.744862290643855,44.9254311797842,16.35710364827517
0.1756,0.9302,0.1657,-0.3298,0.1799,0.3224,-1.6013,3.885,-13.2562,10.274166798392825,9.942996404955434,45.30168094879053,16.366462256421546
0.1706,0.9337,0.1668,-0.3262,0.1807,0.3225,-0.84,4.1912,-12.9762,10.17946756036082,10.039891706748465,45.54795599815512,16.37808345133492
0.1662,0.9333,0.1729,-0.3262,0.1807,0.3225,-0.9363,3.9463,-13.5887,10.381338002050013,10.039248247521185,45.416139030950944,16.390270204460972
0.1602,0.9314,0.1672,-0.3281,0.1805,0.3203,-0.63,4.13,-14.91,10.243464607965942,9.794639508711308,45.02353033745149,16.402378034256973
0.1563,0.9307,0.1685,-0.3265,0.1795,0.3212,-0.7962,3.9288,-15.435,10.255657195390075,9.5282001037858,45.012029159757645,16.41450851469478
0.1609,0.9354,0.1679,-0.3265,0.1795,0.3212,-0.35,3.3075,-15.225,10.199715609599528,9.578532396850795,45.107444910145965,16.423328108349345
0.1676,0.9471,0.1674,-0.327,0.1788,0.3216,-0.6563,3.3075,-15.4875,10.081294896863115,9.779132229485745,45.261131635275596,16.435560516675295
0.1746,0.9489,0.1599,-0.327,0.1788,0.3216,-1.4262,3.43,-15.5837,9.791561982243284,10.115169148810368,45.55243263884396,16.447633662676026
0.1746,0.9496,0.1587,-0.327,0.1807,0.3247,-1.0237,3.7625,-15.0325,9.601038221273054,10.211781172083077,45.887663880222206,16.459824662797416
0.1743,0.9478,0.1598,-0.3256,0.1792,0.3234,-1.7237,4.8213,-14.9362,9.585720453351875,10.249911289554195,45.9712221219266,16.471944525746878
0.1742,0.9457,0.1585,-0.3256,0.1792,0.3234,-2.2313,5.4862,-14.8225,9.562770900483903,10.275606693960148,46.01075125348403,16.484095887245104
0.1779,0.9444,0.1606,-0.3258,0.1801,0.3198,-2.6513,6.09,-13.8162,9.567321054781354,10.320000271604371,45.75848810305053,16.492883628434626
0.1735,0.9372,0.1607,-0.3258,0.1801,0.3198,-2.7738,6.825,-13.7637,9.577693077420076,10.32297944745364,45.61602673509478,16.50508206079786
0.1703,0.9345,0.1629,-0.3259,0.1796,0.3215,-2.5463,7.945,-13.055,9.620376904246255,10.272107886742614,45.62033503560598,16.517556193941875
0.1693,0.9319,0.1586,-0.3259,0.1796,0.3215,-2.345,8.1812,-12.2237,9.630513026866714,10.203716268320594,45.67340370361482,16.529600318807784
0.1717,0.9309,0.165,-0.325,0.1785,0.3248,-2.6863,8.3912,-12.1712,9.638479440955523,10.256476823308496,46.00834054491122,16.54167558830618
0.1789,0.9295,0.1654,-0.3243,0.179,0.3218,-2.905,8.3825,-11.165,9.713525534838851,10.591857629173873,46.03264056620593,16.553739178567398
0.1874,0.9281,0.164,-0.3243,0.179,0.3218,-2.4413,9.5288,-9.0037,9.777805426921192,11.128893987351875,46.29854128376723,16.56304292969064
0.2057,0.9229,0.1607,-0.3256,0.1787,0.3212,-1.7587,11.8912,-10.815,9.8263401957062,12.052292546178665,46.74992401235417,16.575094132882114
0.211,0.9279,0.1648,-0.3256,0.1787,0.3212,-1.9775,13.5362,-11.4537,9.929431722341613,12.439199093793517,46.85705022401244,16.587189575608374
0.2114,0.931,0.1656,-0.3227,0.1802,0.3182,-1.855,15.5925,-11.13,10.001350488798833,12.554836667716359,46.85389439348949,16.599319702129904
0.2038,0.9339,0.1607,-0.3218,0.1793,0.3202,-1.925,17.43,-10.57,9.89708061355508,12.241104117425364,46.97902073923505,16.611456906977
0.2042,0.9351,0.1652,-0.3218,0.1793,0.3202,-2.1525,18.9525,-10.395,9.940433718247155,12.161178008260052,46.91462065573187,16.62353111472656
0.2075,0.922,0.1598,-0.3199,0.1781,0.3194,-1.9862,20.6063,-10.2287,9.895382513441039,12.424652374076421,47.26300805848492,16.63288901504038
0.2224,0.9145,0.1633,-0.3199,0.1781,0.3194,-0.9187,22.61,-9.8,10.042258833663784,13.246874618005256,47.72327691197635,16.644998968334047
0.235,0.9129,0.1599,-0.3182,0.1781,0.3208,-0.28,25.2875,-10.5787,9.966256514419445,13.983786056691518,48.540755338376975,16.657119185199786
0.2435,0.9185,0.1582,-0.3169,0.1794,0.3194,0.7,28.7087,-11.4275,9.81654818420773,14.434024224319842,48.8662935162895,16.669095358140268
0.2542,0.9177,0.16,-0.3169,0.1794,0.3194,1.4525,31.5438,-11.7687,9.875796703000807,14.96984465702843,49.217478904512674,16.681129927266664
0.2563,0.9273,0.1629,-0.3142,0.1786,0.3166,1.1025,35.77,-12.1625,9.94530774615757,15.122060736084585,49.19053574847252,16.69321616816969
0.2268,0.9307,0.1695,-0.3142,0.1786,0.3166,1.3825,40.1712,-11.165,10.247676593895257,13.960101469683314,48.06162031685463,16.70249549906973
0.2094,0.9373,0.1673,-0.3091,0.1779,0.3143,1.3737,43.5138,-9.7212,10.145320249314906,12.723050159763146,47.78469554679293,16.714503878391536
0.199,0.9337,0.1682,-0.3091,0.1779,0.3143,0.5688,46.9612,-7.42,10.196352935247488,11.968496089211278,47.44072763202887,16.726445367536748
0.2005,0.9292,0.1782,-0.3067,0.1767,0.3134,0.8663,49.5513,-4.9788,10.711912845076395,11.965217713167503,47.46756295549261,16.73848029057942
0.202,0.9182,0.1739,-0.3021,0.1749,0.3101,1.0762,51.8875,-3.1763,10.721754812640938,12.176716181102272,47.79092771622895,16.750493270812843
0.21,0.9098,0.1764,-0.3021,0.1749,0.3101,1.7587,54.3112,-1.47,10.926905913035933,12.72258715949632,48.05288643038743,16.759720929936258
0.202,0.9133,0.1777,-0.2984,0.1766,0.3103,2.2662,58.9487,-0.4725,10.996439599356979,12.282618363375933,48.1884187678779,16.771749128569642
0.1935,0.9151,0.1842,-0.2984,0.1766,0.3103,5.9063,60.655,-0.49,11.340950730965481,11.751741415576586,47.76204724599202,16.783707251779934
0.1832,0.9134,0.1839,-0.297,0.1772,0.3054,6.755,62.02,-0.7525,11.37943092397135,11.169169555325404,47.04619418292786,16.79569085696226
0.1762,0.9139,0.1835,-0.297,0.1772,0.3054,7.7613,62.965,-1.1812,11.355605490648065,10.73883686978064,46.80657979424645,16.807662428991122
0.1717,0.9138,0.1843,-0.287,0.1752,0.3036,9.03,63.5163,-0.5513,11.399045802068235,10.457771805092394,47.57045372585582,16.8169753819376
0.1729,0.9137,0.178,-0.2852,0.1734,0.2994,10.15,63.8838,-0.0963,11.05092738474836,10.517705154419515,47.50535352027248,16.82912992868233
0.1846,0.9078,0.1785,-0.2852,0.1734,0.2994,11.8212,64.0675,-0.2975,11.119395733376786,11.230341902223612,47.90873181440159,16.841111410366985
0.2075,0.9015,0.1833,-0.2793,0.1704,0.2942,12.67,65.0475,-1.12,11.470325551820936,12.600871907959236,48.76735624624023,16.853088645056303
0.2132,0.891,0.1836,-0.2793,0.1704,0.2942,14.5425,66.675,-1.33,11.633945255865392,13.14529255520471,49.032463207589196,16.865178779038388
0.2084,0.8884,0.1774,-0.2751,0.1679,0.2912,16.6163,68.005,-2.9488,11.309366356543764,12.971165971783336,49.16021752090247,16.874459171687263
0.2003,0.8927,0.1767,-0.2692,0.166,0.2859,18.2787,70.3063,-3.4738,11.201475329480877,12.463337496488666,48.977687400782365,16.886419772311502
0.1977,0.8928,0.1727,-0.2692,0.166,0.2859,19.6525,71.5313,-3.71,10.958733689481498,12.28384955610211,48.961617659054546,16.898518046367986
0.2096,0.9033,0.1637,-0.265,0.1632,0.2786,21.2187,72.6425,-4.9788,10.299466848944897,12.801214072985351,49.1911736101689,16.910238691755556
0.2219,0.9062,0.1595,-0.265,0.1632,0.2786,23.0825,74.7513,-4.865,9.99420622735146,13.480801505262802,49.70528251689972,16.922430753625783
0.2381,0.9155,0.1554,-0.2549,0.1632,0.2705,24.9025,76.6238,-4.9612,9.646350314463731,14.287837089794069,50.71802427023596,16.93458246904029
0.2559,0.9234,0.1559,-0.2549,0.1632,0.2705,25.8388,79.9663,-5.7488,9.585166532757832,15.171003006113857,51.33945688899115,16.943235368127787
0.2718,0.9293,0.1477,-0.2528,0.1591,0.2631,26.0837,83.93,-5.25,9.049479815477238,16.010855159693566,51.352808033082475,16.955423536918953
0.2839,0.9357,0.1379,-0.2462,0.1559,0.2565,26.7138,88.8738,-6.055,8.405577088859816,16.62638108413338,51.960219036721796,16.967637895514713
0.2826,0.9425,0.1163,-0.2462,0.1559,0.2565,27.0725,94.1238,-5.88,7.079014551852388,16.57837730120248,52.163256534434744,16.97982606430588
0.2702,0.9462,0.1055,-0.2403,0.1529,0.2476,27.1338,107.31,-5.1625,6.385368975968733,15.922026440557778,51.516545360377336,16.992018834008665
0.2561,0.9452,0.0961,-0.2403,0.1529,0.2476,27.335,112.7,-3.7538,5.824088976551468,15.163103962718122,51.15958968005035,17.00422151336724
0.2345,0.939,0.0891,-0.2315,0.1522,0.2383,27.4487,118.125,-2.66,5.433418569954557,14.062311381088303,50.66332143134122,17.012974924677767
0.2251,0.9395,0.0906,-0.2214,0.1491,0.2286,28.2012,122.115,-1.4962,5.505899114895522,13.463361914225272,50.49094690482986,17.0251294714225
0.2169,0.9464,0.0921,-0.2214,0.1491,0.2286,27.8512,125.5975,0.8838,5.556641407507212,12.889339976156155,50.140394725271356,17.038024764937656
0.2027,0.9504,0.0935,-0.2155,0.1456,0.2176,27.1163,129.1763,2.1788,5.616645223198262,12.037419100913695,48.93867083408899,17.049941833859666
0.1901,0.9479,0.0969,-0.2155,0.1456,0.2176,27.5187,132.545,3.5525,5.829789147155542,11.324450332897014,48.464105359377584,17.061982419562792
0.173,0.9457,0.0934,-0.2097,0.1443,0.2102,27.0988,135.0213,4.3313,5.646549360763514,10.37076975046361,47.793012893106976,17.07405167248446
0.1521,0.934,0.0931,-0.2041,0.1426,0.193,27.0812,136.4913,3.8937,5.690883048059181,9.267563690692507,45.37301244011388,17.083348345282136
0.133,0.9238,0.0962,-0.2041,0.1426,0.193,28.315,136.4562,3.2288,5.937135155402471,8.21189116829625,44.69808801251996,17.095371943003908
0.1202,0.9201,0.0922,-0.1976,0.1394,0.1841,29.435,136.4212,3.0275,5.728789607765561,7.451900156138071,43.93909189389002,17.107397664223345
0.0976,0.9182,0.093,-0.1976,0.1394,0.1841,31.3512,135.5725,3.5263,5.781926671971666,6.114902826635261,43.22474442284104,17.119481073796145
0.0959,0.9219,0.0938,-0.1947,0.1382,0.1686,32.62,133.7088,3.78,5.808883090932193,5.919738828244715,40.87499248169795,17.13155280413176
0.0934,0.9374,0.0923,-0.1947,0.1382,0.1686,33.6087,131.495,3.3863,5.628405559858111,5.677100162464941,40.823816465065924,17.143503495100205
0.0969,0.941,0.0944,-0.1903,0.1358,0.1547,34.0112,129.6225,3.7975,5.726019598941008,5.8407723395809965,38.915293498696634,17.15295412147893
0.0985,0.9442,0.0909,-0.1901,0.1326,0.1454,34.1425,127.26,3.815,5.505028196613488,5.923644089402177,37.201460148521896,17.164936310996143
0.0744,0.9463,0.0934,-0.1901,0.1326,0.1454,34.6063,125.335,3.9375,5.633407333030313,4.552044897711992,36.479911175999625,17.1772533053126
0.0712,0.9519,0.0865,-0.1874,0.1294,0.1342,35.7962,118.3963,1.4,5.203425904084264,4.278393195571067,34.66905808978878,17.188989169100136
0.0703,0.9547,0.0854,-0.1874,0.1294,0.1342,34.8162,113.9688,0.0263,5.1140107055550095,4.200447507456569,34.66850302121531,17.201076117835715
0.0735,0.9662,0.0871,-0.1868,0.1291,0.1197,34.2388,109.9525,-2.1875,5.150139483937467,4.322021320240937,31.512786446495685,17.213138646348096
0.0769,0.9783,0.0853,-0.1843,0.1242,0.1093,32.41,106.47,-4.1825,4.98775913809451,4.462673235898389,29.526196986411,17.22258927272682
0.0774,0.976,0.0842,-0.1843,0.1242,0.1093,31.2725,103.2413,-6.5012,4.932357304067386,4.510764039136539,29.551151268343478,17.234669497053115
0.0814,0.9776,0.0903,-0.1833,0.1271,0.0995,29.3125,100.6075,-9.0212,5.266933160767674,4.698605421447962,27.031922669105942,17.246840323946646
0.0748,0.9638,0.0831,-0.1833,0.1271,0.0995,28.4375,98.4113,-10.36,4.938470742198873,4.4869065572594975,27.10623910603702,17.25884268669172
0.0761,0.9577,0.0875,-0.1818,0.1261,0.0954,27.44,96.53,-11.5062,5.2112705345764905,4.51231415178165,26.092753550803174,17.27096679663652
0.0703,0.9506,0.0817,-0.1797,0.1265,0.0776,27.2912,94.7013,-12.075,4.921902242488684,4.33241357080469,21.469977462782143,17.28311603463708
0.0622,0.9487,0.0747,-0.1797,0.1265,0.0776,27.3787,93.1613,-12.425,4.515646152577544,4.012823585013513,21.55491296151603,17.295175023986676
0.067,0.956,0.0611,-0.1822,0.1239,0.0702,28.105,90.825,-12.6087,3.6839166379249506,4.006858144639289,19.800943719878333,17.30452124506331
0.0756,0.9783,0.0636,-0.1822,0.1239,0.0702,28.63,88.4888,-13.4137,3.718502608030068,4.068575722593561,19.84694978774911,17.316640046263934
0.0897,0.9969,0.0639,-0.1775,0.1245,0.0622,28.7087,86.135,-14.2362,3.6691392714132203,4.483815171483159,18.14301373732401,17.328780436357537
0.092,1.0089,0.0556,-0.1775,0.1245,0.0458,27.4137,85.05,-15.3212,3.170894831821959,4.938878191308349,13.295987192801467,17.341237935436467
0.0912,1.0141,0.0533,-0.1778,0.1237,0.0458,26.0137,84.2975,-17.675,3.0140956092434465,5.093867384296726,13.314646488992752,17.35293946934501
0.0872,1.0152,0.0362,-0.1769,0.1274,0.0427,21.7437,83.9388,-19.11,2.080377532095269,4.935032993875769,12.99918434920921,17.365064641038646
0.0608,1.0041,0.0436,-0.1769,0.1274,0.0427,19.25,83.2125,-19.81,2.4686493592899152,3.66604512625596,12.415025086205274,17.377219541699656
0.0366,1.0,0.039,-0.177,0.1246,0.0342,17.325,80.7188,-21.35,2.2445894053927957,2.273995287824805,9.69200365971165,17.389171294416936
0.0132,1.0042,0.0342,-0.177,0.1246,0.0342,16.0475,77.7263,-22.26,1.9654511203480511,0.9100627638251422,9.690123756580016,17.398093877708476
-0.009,1.0218,0.0385,-0.175,0.1245,0.0271,13.7637,73.78,-23.415,2.1467934524612624,-0.37357688719769905,7.280165319334883,17.410412995522606
-0.022,1.0408,0.0407,-0.1726,0.1284,0.0211,10.7537,69.8163,-24.2725,2.23298030207972,-1.1383655872868408,5.2663085995387755,17.42226529776569
-0.0529,1.0518,0.0427,-0.1726,0.1284,0.0211,7.5775,64.9863,-25.4188,2.3166296262674755,-2.7413177080880464,5.074719491446217,17.43449381301258
-0.0625,1.0558,0.0526,-0.1713,0.1281,0.0188,3.2638,59.9637,-25.9,2.775285537794605,-3.335315885809979,3.990688552477298,17.446699677617662
-0.0794,1.0507,0.0511,-0.1713,0.1281,0.0188,-0.8487,54.215,-25.585,2.781172646162771,-4.240939869482594,3.978875131577296,17.459334842668287
-0.0966,1.031,0.065,-0.1695,0.127,0.0184,-4.5413,47.81,-25.2,3.316079598449176,-5.254818181046082,3.3003235918422975,17.47150814697577
-0.1104,1.0205,0.0715,-0.1694,0.1272,0.0127,-7.9275,41.9475,-23.7912,3.896628633304881,-6.07860115298103,1.2389255103342582,17.483696315766935
-0.1279,1.0099,0.0845,-0.1694,0.1272,0.0127,-10.22,35.1925,-21.7437,4.678801679722102,-7.071191550281147,0.655112880562122,17.495924477097546
-0.1254,1.005,0.0881,-0.1711,0.1267,0.0106,-12.7312,20.6063,-17.2725,4.979813944802703,-7.082434377642519,0.11649313950960102,17.508021689405197
-0.1164,0.9968,0.0932,-0.1711,0.1267,0.0106,-14.49,14.1575,-15.6012,5.313282512400267,-6.781691410294099,0.36604302284225876,17.51753637463029
-0.0978,0.9894,0.1032,-0.169,0.1283,0.0196,-15.4787,7.2975,-14.2712,5.90816681482944,-6.310884913037217,1.6377074841209263,17.529744008816763
-0.0832,0.9864,0.1208,-0.1689,0.1277,0.0166,-16.0475,1.7325,-13.7637,6.9071184458604495,-6.09037927448263,1.0947850347601995,17.541907757384728
-0.0437,0.9747,0.1232,-0.1689,0.1277,0.0166,-16.8262,-3.1588,-14.0,7.184237227220757,-5.068370733613555,0.33120325431840875,17.554105835831688
-0.0319,0.9692,0.1272,-0.1699,0.1284,0.0213,-16.625,-6.7288,-14.5425,7.45727855160096,-3.511601428114691,1.3239213566018262,17.56632408750651
-0.022,0.9658,0.1307,-0.1704,0.1296,0.0218,-16.2838,-10.15,-14.91,7.689792238415214,-2.2513045294446217,1.3898479115919893,17.578609229357923
-0.0159,0.966,0.1265,-0.1704,0.1296,0.0218,-16.1262,-13.16,-14.5862,7.476461870855108,-1.5959563387251692,1.576494313347845,17.590863934409402
0.0041,0.96,0.1271,-0.1681,0.1262,0.0246,-15.68,-16.03,-13.8687,7.537180477974519,-1.200522499284581,2.6125962591823466,17.60306909118193
0.0151,0.9582,0.1312,-0.1681,0.1262,0.0246,-15.5575,-17.8937,-14.1487,7.7779184371287435,-0.4536385616955358,2.5061651901793596,17.615279556698628
0.0258,0.9536,0.1315,-0.1687,0.1282,0.0253,-14.385,-20.9037,-14.0,7.845681508590898,0.11999184256950923,2.6127355601651243,17.627571422959328
0.0357,0.9531,0.1312,-0.1686,0.1271,0.0307,-13.755,-21.4638,-13.475,7.838502273291262,0.3343183130829989,4.486426402411948,17.639737295024965
0.047,0.9462,0.133,-0.1686,0.1271,0.0307,-13.0812,-21.9013,-14.0875,7.986900553106858,1.1535975730873347,4.485856263312738,17.65199695490434
0.0691,0.9475,0.1391,-0.1703,0.129,0.0332,-11.9087,-21.77,-14.3937,8.316022300831039,2.4742258969285142,5.00691573279446,17.664172028793214
0.0795,0.9471,0.1357,-0.1703,0.129,0.0332,-10.815,-21.525,-14.1837,8.17162193960693,3.317773198012031,5.233171343618806,17.676405498868
0.0845,0.9473,0.1384,-0.1691,0.1299,0.0382,-10.5175,-20.9562,-14.525,8.296134831190127,4.149764660323706,6.848909659770588,17.68863366019861
0.0903,0.9438,0.1429,-0.1691,0.1255,0.0378,-10.2987,-19.95,-15.225,8.57322163450366,4.927182789121324,6.791523815474373,17.700869607687345
0.0808,0.9345,0.1379,-0.1691,0.1255,0.0378,-9.1525,-18.06,-15.8463,8.418328378022926,4.900750875618417,6.902259071774322,17.71303371017159
0.0754,0.9384,0.1368,-0.1681,0.1276,0.0427,-8.0412,-17.1937,-16.2313,8.313754890713277,4.643530466452512,8.542516336641972,17.725097300432804
0.0731,0.9473,0.1338,-0.1681,0.1276,0.0427,-8.0325,-17.1238,-16.345,8.082828985577743,4.44248233886371,8.802646818851318,17.73462614230903
0.0773,0.9507,0.1365,-0.1672,0.128,0.0412,-7.0088,-17.6662,-17.8062,8.15404749795738,4.570928903078759,8.266932175653531,17.746896773593033
0.0811,0.9564,0.1297,-0.1675,0.1283,0.0435,-7.2013,-17.1325,-18.0513,7.801370298890991,4.760605892361538,9.366518721437133,17.758876485696295
0.0844,0.957,0.1413,-0.1675,0.1283,0.0435,-7.2625,-16.9662,-17.9025,8.291433475883641,4.94371762879139,8.916604352128596,17.77104483517588
0.0833,0.9575,0.1398,-0.1675,0.1278,0.045,-7.1225,-15.1287,-17.2112,8.303953548393174,4.925261771852656,9.481526540608424,17.783223802143812
0.0834,0.9565,0.1465,-0.1675,0.1278,0.045,-7.245,-14.1225,-16.3362,8.634975524810505,4.925821043365663,9.202434610320582,17.795438868572127
0.0845,0.952,0.1481,-0.1679,0.1276,0.0453,-7.9888,-12.425,-15.645,8.809444164407612,4.983971127657975,9.180131038841893,17.807577489084338
0.0825,0.9457,0.1469,-0.1678,0.1264,0.0485,-7.4812,-11.5062,-15.2425,8.825992338849995,4.948452940904082,10.28576270984424,17.81972318792211
0.0844,0.9425,0.1442,-0.1678,0.1264,0.0485,-6.5713,-10.5,-14.7613,8.7248195891037,5.007751972464028,10.485775814437362,17.831879858164513
0.0903,0.944,0.1485,-0.1669,0.1276,0.0488,-5.67,-8.7937,-14.3762,8.885645309229618,5.178998868163828,10.470026948493523,17.843993350620963
0.094,0.9446,0.1437,-0.1669,0.1276,0.0488,-5.3025,-7.6038,-13.7462,8.715487698154208,5.236860077338693,10.721253567428677,17.853345234358052
0.0937,0.9444,0.1457,-0.1679,0.1266,0.0514,-4.41,-6.195,-13.6588,8.7500466904384,5.258759048019093,11.449083522737228,17.86541413336344
0.0982,0.9411,0.1476,-0.1671,0.129,0.0508,-3.395,-4.6813,-14.035,8.816759256246755,5.4503872293008415,11.247471942661155,17.87768582639628
0.0938,0.9465,0.1468,-0.1671,0.129,0.0508,-2.3187,-2.17,-15.5662,8.816603509711214,5.54514085428101,11.241407667781564,17.889605726648515
0.0874,0.9517,0.143,-0.1665,0.1294,0.0514,-0.8225,-0.9538,-15.89,8.639329589366548,5.297179218961516,11.499973649248286,17.902516946396194
0.0859,0.9625,0.1382,-0.1665,0.1294,0.0514,-1.0062,-0.6388,-16.2663,8.344452436545211,5.116191719833452,11.761396586505672,17.91355736469692
0.077,0.9689,0.1355,-0.1674,0.1272,0.0511,-1.155,0.4987,-16.3362,8.111424522893758,4.664854360331361,11.813096645219263,17.92575296572993
0.0627,0.97,0.1308,-0.1666,0.1263,0.0527,-1.5312,0.8925,-16.4062,7.878273288299627,3.927564114552468,11.920546985065002,17.93435667045475
0.052,0.9806,0.1243,-0.1666,0.1263,0.0527,-2.1438,0.9975,-17.08,7.643005934204677,3.21568069948866,11.96299678351079,17.946605005013225
0.0453,0.9853,0.1237,-0.1654,0.1273,0.0505,-2.6075,-0.3413,-18.0338,7.599478276987405,2.7229018032270527,12.067120702527308,17.958773708409087
0.0468,0.9859,0.1286,-0.1654,0.1273,0.0505,-3.5875,-1.1725,-18.0513,7.5208334287419625,2.7000772174853824,11.97789358118843,17.97139684030625
0.0418,0.9859,0.1302,-0.17,0.1305,0.0612,-5.985,-2.52,-18.3137,7.522544326486828,2.4581541746932785,14.24179995800036,17.983557049711433
0.0432,0.9789,0.1301,-0.1666,0.1291,0.0518,-6.8162,-3.4738,-18.6287,7.561107157692334,2.4971468558808336,12.466109622766115,17.995700978967818
0.0413,0.973,0.1311,-0.1666,0.1291,0.0518,-7.2013,-4.48,-18.2612,7.653212682187032,2.424374265994162,12.048732427958395,18.00779996085686
0.0505,0.9595,0.1369,-0.1633,0.1274,0.0527,-7.1838,-4.97,-18.3663,8.034849099862722,2.8859113151095905,12.304738293679806,18.017041068798846
0.0561,0.9582,0.1415,-0.1633,0.1274,0.0527,-7.3063,-5.3288,-17.6662,8.335059011549786,3.230247686804813,12.198108724838745,18.029134741943714
0.0663,0.9537,0.1383,-0.1628,0.1288,0.0526,-6.9913,-5.9588,-17.71,8.267050330557009,3.797786637505269,12.343239957360362,18.041248234400168
0.07,0.9529,0.1454,-0.1633,0.1295,0.0506,-7.0963,-5.9675,-16.4675,8.599864106147503,4.061648505682424,11.400429340321566,18.053397472400725
0.0787,0.9496,0.1444,-0.1633,0.1295,0.0506,-6.2913,-4.6725,-17.115,8.636242701282862,4.546377570189977,11.391631111447145,18.06553043025248
0.0792,0.9513,0.1499,-0.1642,0.1292,0.0576,-6.58,-4.305,-17.5,8.889357216833503,4.669806189467144,13.223944431917833,18.077630119974078
0.0792,0.9477,0.1454,-0.1642,0.1292,0.0576,-6.825,-3.7538,-18.06,8.755122776513666,4.712573264795272,13.672814496463431,18.08978891371415
0.0769,0.9457,0.154,-0.1632,0.1298,0.0597,-5.8975,-2.8087,-18.515,9.131179172568594,4.609560357021032,14.002762763964967,18.09899816919109
0.0728,0.9444,0.1538,-0.1606,0.1301,0.0606,-6.1075,-1.75,-18.725,9.22276451010555,4.393084956054951,14.420833571090963,18.111196247638052
0.0664,0.9417,0.1549,-0.1606,0.1301,0.0606,-5.7137,-1.5137,-18.4975,9.311442722925003,4.04996966093614,14.40778267533306,18.123208166122637
0.0484,0.9454,0.1535,-0.1617,0.1294,0.0579,-5.495,-1.3387,-18.3312,9.245866777827967,3.0945988323345186,13.595770394070032,18.135363066783647
0.0638,0.9465,0.1596,-0.1617,0.1294,0.0579,-3.9638,-0.8487,-17.85,9.42715977969349,3.6679901760616658,13.306401206765706,18.147498148133074
0.0574,0.9515,0.1532,-0.1605,0.1303,0.051,-3.3863,-0.63,-17.15,9.313543961377016,3.4654160873180255,11.879609043760288,18.15963712256156
0.0597,0.9503,0.1507,-0.1605,0.1303,0.0587,-2.8438,-0.6563,-17.3775,9.276811782349608,3.5326912438248277,13.160331140197869,18.171823875687615
0.0609,0.9507,0.1555,-0.161,0.1314,0.0587,-2.1,0.0175,-16.8262,9.281504470257893,3.5973136194063846,13.377955110170642,18.180931203276415
0.0576,0.9606,0.153,-0.1606,0.1318,0.0589,-1.3387,0.1925,-15.9075,9.147690636601311,3.451794445288849,13.585529450448101,18.193018859844553
0.0637,0.9607,0.1529,-0.1606,0.1318,0.0589,-1.0937,0.7788,-15.3387,9.08311428729453,3.639084597499372,13.65513322759037,18.20508421968716
