AcclX,AcclY,AcclZ,MagX,MagY,MagZ,GyroX,GyroY,GyroZ,Roll,Pitch,Yaw,Time Elapsed(s)
-0.3963,0.9501,0.1636,0.187,0.2547,0.3176,-0.5075,-1.4787,-5.6613,0,0,0,0.004999999990104698
-0.3975,0.9507,0.162,0.185,0.2536,0.3155,-0.5075,-1.4787,-6.0025,0,0,0,0.00999999999476131
-0.3952,0.9499,0.1656,0.185,0.2536,0.3155,-0.1488,-1.47,-6.0025,0,0,0,0.014999999999417923
-0.3978,0.9492,0.1621,0.185,0.2536,0.3155,-0.7262,-1.6363,-5.88,0,0,0,0.02499999997962732
-0.3969,0.9492,0.1627,0.1864,0.253,0.3076,-0.4988,-1.225,-6.16,0,0,0,0.034999999988940544
-0.3969,0.9492,0.1612,0.1864,0.253,0.3076,-0.4988,-1.225,-6.16,0,0,0,0.03999999999359716
-0.3966,0.9518,0.1612,0.186,0.2522,0.3154,-0.3237,-1.295,-5.635,0,0,0,0.04999999998835847
-0.3962,0.9499,0.1609,0.186,0.2522,0.3154,-0.2362,-1.6888,-5.6788,0,0,0,0.05499999999301508
-0.3944,0.9501,0.1619,0.186,0.2522,0.3154,-0.3588,-1.47,-6.055,0,0,0,0.06499999998777639
-0.4003,0.9503,0.1648,0.186,0.2556,0.3273,-0.3588,-1.47,-6.055,0,0,0,0.07499999999708962
-0.3963,0.9511,0.1628,0.186,0.2556,0.3273,-0.0263,-1.3913,-5.9325,0,0,0,0.08000000000174623
-0.3963,0.9511,0.1628,0.186,0.2547,0.317,-0.5512,-1.5137,-5.8888,0,0,0,0.08999999998195563
-0.3964,0.949,0.1642,0.186,0.2547,0.317,-0.0613,-1.3125,-5.9412,0,0,0,0.09499999998661224
-0.3973,0.9524,0.1624,0.186,0.2547,0.317,-0.0613,-1.3125,-5.9412,0,0,0,0.10499999999592546
-0.3972,0.95,0.1659,0.1856,0.2556,0.3133,-0.0875,-1.33,-5.915,0,0,0,0.11499999999068677
-0.3994,0.9515,0.1642,0.1856,0.2556,0.3133,-0.1575,-1.365,-5.7838,0,0,0,0.11999999999534339
-0.3994,0.9515,0.1672,0.1834,0.253,0.3145,-0.3938,-1.1638,-5.9938,0,0,0,0.1299999999901047
-0.3961,0.9485,0.1672,0.1834,0.253,0.3145,-0.3938,-1.1638,-5.9938,0,0,0,0.1349999999947613
-0.3978,0.9502,0.1627,0.1872,0.2557,0.3142,-0.0263,-1.435,-5.565,0,0,0,0.14500000000407454
-0.3954,0.9517,0.1651,0.1872,0.2557,0.3142,0.0437,-1.1638,-5.705,0,0,0,0.15499999998428393
-0.3971,0.9516,0.1618,0.1872,0.2557,0.3142,-0.5688,-1.2163,-5.8187,0,0,0,0.15999999998894054
-0.3975,0.9513,0.1675,0.1862,0.2552,0.3137,-0.5688,-1.2163,-5.8187,0,0,0,0.16999999998370185
-0.3975,0.9513,0.1675,0.1862,0.2552,0.3137,-0.595,-1.295,-5.5738,0,0,0,0.17499999998835847
-0.3961,0.9498,0.1637,0.1862,0.2542,0.3145,-0.7613,-1.5925,-5.67,0,0,0,0.1849999999976717
-0.3977,0.9498,0.1621,0.1862,0.2542,0.3145,-0.7613,-1.5925,-5.9938,0,0,0,0.194999999992433
-0.3955,0.9513,0.1632,0.1862,0.2542,0.3145,-0.3938,-1.4175,-5.9938,0,0,0,0.19999999999708962
-0.3965,0.9503,0.157,0.1859,0.2566,0.3211,-0.2887,-1.2775,-5.8362,0,0,0,0.20999999999185093
-0.3965,0.9506,0.1635,0.1859,0.2566,0.3211,-0.2275,-1.3125,-5.8888,0,0,0,0.21499999999650754
-0.3986,0.9506,0.1635,0.1867,0.2546,0.3147,-0.2275,-1.3125,-5.8888,0,0,0,0.22499999999126885
-0.3966,0.9495,0.1634,0.1867,0.2546,0.3147,-0.8575,-1.5488,-5.9675,0,0,0,0.23499999998603016
-0.3991,0.9512,0.1634,0.1867,0.2546,0.3147,-0.5688,-1.365,-5.8888,0,0,0,0.23999999999068677
-0.3953,0.9502,0.1638,0.1862,0.2555,0.314,-0.7525,-1.6712,-5.7312,0,0,0,0.24999999998544808
-0.3986,0.9497,0.1584,0.1862,0.2555,0.314,-0.7525,-1.6712,-5.7312,0,0,0,0.2549999999901047
-0.3986,0.9497,0.1584,0.1866,0.2558,0.3202,-0.1312,-1.7587,-5.67,0,0,0,0.2649999999994179
-0.3977,0.9493,0.1634,0.1866,0.2558,0.3202,-0.6737,-1.8112,-5.7137,0,0,0,0.27499999999417923
-0.3953,0.952,0.1581,0.1866,0.2558,0.3202,-0.2887,-1.4,-5.6,0,0,0,0.27999999999883585
-0.3933,0.9506,0.1596,0.1851,0.2524,0.3156,-0.2887,-1.4,-5.6,0,0,0,0.28999999999359716
-0.3963,0.9487,0.1634,0.1851,0.2524,0.3156,-0.035,-1.05,-5.67,0,0,0,0.29499999998370185
-0.3963,0.9506,0.1623,0.1854,0.255,0.3164,-0.3413,-1.155,-5.67,0,0,0,0.3049999999930151
-0.3989,0.9506,0.1623,0.1854,0.255,0.3164,-0.1138,-1.5137,-5.9412,0,0,0,0.3149999999877764
-0.3971,0.9509,0.1638,0.1855,0.255,0.3181,-0.1138,-1.5137,-5.9412,0,0,0,0.319999999992433
-0.3974,0.9504,0.1599,0.1855,0.255,0.3181,-0.21,-1.505,-5.8538,0,0,0,0.33000000000174623
-0.397,0.9511,0.1629,0.1855,0.255,0.3181,-0.105,-1.4,-5.6962,0,0,0,0.3349999999918509
-0.3975,0.9475,0.1663,0.1858,0.2536,0.315,-0.4988,-1.4787,-5.8975,0,0,0,0.34500000000116415
-0.3975,0.9475,0.1663,0.1858,0.2536,0.315,-0.4988,-1.4787,-5.8975,0,0,0,0.35499999998137355
-0.3975,0.9506,0.1627,0.1867,0.255,0.315,-0.1925,-1.3913,-5.8975,0,0,0,0.35999999998603016
-0.3958,0.9511,0.1626,0.1867,0.255,0.315,-0.4462,-1.19,-5.5563,0,0,0,0.3699999999953434
-0.4002,0.9482,0.1623,0.1867,0.255,0.315,-0.4462,-1.2513,-5.6962,0,0,0,0.3749999999854481
-0.3956,0.9487,0.1632,0.1873,0.2557,0.3114,-0.4725,-1.2513,-5.6962,0,0,0,0.3849999999947613
-0.3981,0.9496,0.1588,0.1873,0.2557,0.3114,-0.0962,-1.8637,-5.9763,0,0,0,0.3949999999895226
-0.3981,0.9496,0.1588,0.1872,0.2545,0.3152,-0.525,-1.575,-5.7312,0,0,0,0.39999999999417923
-0.3987,0.9512,0.1633,0.1872,0.2545,0.3152,-0.525,-1.575,-5.7312,0,0,0,0.41000000000349246
-0.3987,0.9504,0.1662,0.1872,0.2545,0.3152,-0.5688,-1.2862,-5.705,0,0,0,0.41499999999359716
-0.3982,0.9492,0.1635,0.1849,0.2543,0.3113,-0.5512,-1.5662,-5.67,0,0,0,0.42499999998835847
-0.3964,0.9513,0.1638,0.1849,0.2543,0.3113,-0.2537,-1.12,-6.02,0,0,0,0.4349999999831198
-0.3964,0.9513,0.1638,0.1849,0.2562,0.3152,-0.2537,-1.12,-6.02,0,0,0,0.4399999999877764
-0.3965,0.9511,0.1638,0.1849,0.2562,0.3152,-0.2275,-1.2513,-6.1337,0,0,0,0.4499999999970896
-0.397,0.9509,0.1638,0.1849,0.2562,0.3151,-0.2975,-1.5225,-5.6525,0,0,0,0.4549999999871943
-0.3941,0.951,0.1655,0.1862,0.2562,0.3151,-0.1138,-1.715,-5.565,0,0,0,0.46499999999650754
-0.3942,0.9521,0.1589,0.1862,0.2562,0.3151,-0.1138,-1.715,-5.565,0,0,0,0.47499999999126885
-0.3961,0.9506,0.1642,0.1862,0.2542,0.3163,-0.1575,-1.6538,-5.5388,0,0,0,0.47999999999592546
-0.3961,0.9506,0.1642,0.1862,0.2542,0.3163,-0.1838,-1.4,-5.9412,0,0,0,0.4899999999906868
-0.3967,0.9509,0.1595,0.1869,0.2554,0.3118,-0.3938,-1.1725,-6.02,0,0,0,0.49499999998079147
-0.3985,0.9511,0.1626,0.1869,0.2554,0.3118,-0.3938,-1.1725,-6.02,0,0,0,0.5049999999901047
-0.3944,0.9498,0.1612,0.1869,0.2554,0.3118,-0.6125,-1.3038,-5.705,0,0,0,0.514999999984866
-0.3966,0.9511,0.1642,0.1843,0.2557,0.3062,-0.6475,-1.4963,-5.4338,0,0,0,0.5199999999895226
-0.3966,0.9511,0.1642,0.1843,0.2557,0.3062,-0.4725,-2.0125,-5.915,0,0,0,0.5299999999988358
-0.3946,0.9495,0.1654,0.1858,0.256,0.3146,-0.4725,-2.0125,-5.915,0,0,0,0.5349999999889405
-0.3948,0.95,0.1589,0.1858,0.256,0.3146,-0.7175,-1.7675,-6.09,0,0,0,0.5449999999982538
-0.3965,0.9499,0.1622,0.1858,0.256,0.3146,-0.5075,-1.8725,-5.8888,0,0,0,0.5549999999784632
-0.3975,0.9482,0.1618,0.1854,0.2566,0.3118,-0.5075,-1.7325,-5.81,0,0,0,0.5599999999831198
-0.3975,0.9503,0.1649,0.1854,0.2566,0.3118,-0.0962,-1.7325,-5.81,0,0,0,0.569999999992433
-0.3975,0.9503,0.1649,0.1848,0.2582,0.3141,-0.2713,-1.7237,-5.775,0,0,0,0.5749999999970896
-0.3971,0.9496,0.1604,0.1848,0.2582,0.3141,-0.21,-1.7413,-5.635,0,0,0,0.5849999999918509
-0.397,0.9506,0.1621,0.1848,0.2582,0.3141,-0.21,-1.7413,-5.635,0,0,0,0.5949999999866122
-0.3973,0.9507,0.1637,0.1858,0.2555,0.3124,-0.1575,-1.1988,-5.7663,0,0,0,0.5999999999912689
-0.401,0.9505,0.1664,0.1858,0.2555,0.3124,-0.5512,-1.12,-6.055,0,0,0,0.6100000000005821
-0.401,0.9505,0.1621,0.1868,0.2537,0.3174,-0.8138,-1.505,-6.02,0,0,0,0.6150000000052387
-0.3952,0.9513,0.1621,0.1868,0.2537,0.3174,-0.8138,-1.505,-6.02,0,0,0,0.6249999999854481
-0.3945,0.95,0.1593,0.1868,0.2563,0.3138,-0.4462,-1.3388,-6.0113,0,0,0,0.6349999999947613
-0.3969,0.9495,0.1683,0.1847,0.2563,0.3138,-0.4112,-1.26,-6.0113,0,0,0,0.639999999984866
-0.398,0.9495,0.1604,0.1847,0.2563,0.3138,-0.455,-1.1638,-6.125,0,0,0,0.6499999999941792
-0.3949,0.9519,0.1629,0.1862,0.2558,0.3132,-0.455,-1.1638,-6.125,0,0,0,0.6549999999988358
-0.3949,0.9519,0.1629,0.1862,0.2558,0.3132,-0.3237,-1.0938,-5.4075,0,0,0,0.6649999999935972
-0.3985,0.9496,0.1627,0.187,0.2577,0.3108,-0.6825,-1.575,-5.8888,0,0,0,0.6750000000029104
-0.3971,0.9495,0.1621,0.187,0.2577,0.3108,-0.5863,-1.155,-5.9325,0,0,0,0.6799999999930151
-0.3962,0.9507,0.1581,0.187,0.2577,0.3108,-0.5863,-1.155,-5.9325,0,0,0,0.6899999999877764
-0.3996,0.952,0.1667,0.1866,0.2554,0.3225,-0.0088,-1.435,-6.2737,0,0,0,0.694999999992433
-0.3996,0.952,0.1614,0.1866,0.2554,0.3225,-0.2362,-1.925,-5.8625,0,0,0,0.7049999999871943
-0.3974,0.9501,0.1614,0.1872,0.254,0.3141,-0.2187,-1.6363,-5.95,0,0,0,0.7149999999965075
-0.3983,0.9521,0.1639,0.1872,0.254,0.3141,-0.2187,-1.6363,-5.95,0,0,0,0.7199999999866122
-0.3951,0.9499,0.1625,0.1872,0.254,0.3141,-0.4375,-1.5662,-5.7312,0,0,0,0.7299999999959255
-0.3982,0.9482,0.1629,0.1857,0.2551,0.3164,-0.1488,-1.6363,-5.8275,0,0,0,0.7350000000005821
-0.3925,0.95,0.1643,0.1857,0.2551,0.3164,-0.3675,-1.5838,-5.7488,0,0,0,0.7449999999953434
-0.3925,0.95,0.1643,0.1868,0.2553,0.3126,-0.3675,-1.5838,-5.7488,0,0,0,0.7549999999901047
-0.3955,0.9505,0.1641,0.1868,0.2553,0.3126,-0.6388,-1.4525,-6.0813,0,0,0,0.7599999999802094
-0.3954,0.9503,0.1625,0.1868,0.2553,0.3126,-0.7875,-1.2425,-5.985,0,0,0,0.7699999999895226
-0.3994,0.9497,0.1658,0.1855,0.2563,0.3128,-0.7875,-1.2425,-5.74,0,0,0,0.7749999999941792
-0.3991,0.9503,0.1619,0.1855,0.2563,0.3128,-0.5688,-0.9975,-5.74,0,0,0,0.7849999999889405
-0.3991,0.9489,0.1622,0.1858,0.2547,0.3174,-0.07,-1.33,-5.88,0,0,0,0.7949999999982538
-0.3949,0.9489,0.1622,0.1858,0.2547,0.3174,0.0787,-1.4612,-5.8888,2.9634816484457205,-6.372752431350261,0.0,0.7999999999883585
-0.3971,0.9511,0.1654,0.1869,0.2548,0.3102,0.0787,-1.4612,-5.8888,5.07206056182126,-10.940466386111554,-0.0015986916014888938,0.8150000000023283
-0.3958,0.9499,0.1636,0.1869,0.2548,0.3102,-0.1138,-1.505,-5.8625,6.00425348589123,-14.037431252402643,-0.0030821190825065688,0.8249999999825377
-0.3997,0.9508,0.165,0.1869,0.2548,0.3102,0.1312,-1.2075,-5.8975,7.271459349718864,-16.492380460787526,-0.0023283800910082323,0.8299999999871943
-0.3986,0.9472,0.1638,0.1868,0.2552,0.312,-0.2275,-1.4,-5.8888,7.570987268038305,-18.215175919486892,-0.0025350534903123122,0.8349999999918509
-0.3986,0.9472,0.1638,0.1868,0.2552,0.312,-0.2275,-1.4,-5.8888,7.8351894987023485,-19.445735314562192,-0.00296961735516825,0.8449999999866122
-0.3997,0.9514,0.1658,0.1866,0.2552,0.3201,0.175,-1.47,-5.88,8.550887495111398,-20.30001048436014,-0.004092835582690299,0.8549999999959255
-0.3936,0.9496,0.1626,0.1866,0.2552,0.3201,-0.0525,-1.785,-5.9237,8.825846309612915,-20.882609241713624,-0.006187614428852427,0.8600000000005821
-0.4013,0.9493,0.1601,0.1866,0.2552,0.3201,-0.35,-1.5313,-5.8362,8.834125580402487,-21.332791558686903,-0.007885522683642003,0.8699999999953434
-0.3992,0.9513,0.1638,0.1857,0.2543,0.317,-0.35,-1.5313,-5.8362,8.844494360569884,-21.625378008010337,-0.008686559657625045,0.875
-0.3992,0.95,0.1623,0.1857,0.2543,0.317,-0.1312,-1.505,-5.5037,9.003523337153052,-21.63822393283027,-0.010099108460263293,0.8849999999947613
-0.3975,0.95,0.1623,0.1856,0.255,0.3154,-0.3413,-1.7763,-5.775,9.017018572245663,-21.81073320299208,-0.014183401773468118,0.8949999999895226
-0.3972,0.9516,0.1632,0.1856,0.255,0.3154,-0.7525,-1.4525,-6.0113,9.21798740489542,-21.999946868418736,-0.014531399956189626,0.8999999999941792
-0.395,0.9497,0.1626,0.1856,0.255,0.3154,-0.7525,-1.4525,-6.0113,9.357915982121822,-22.099988109666434,-0.015365750356114509,0.9099999999889405
-0.3955,0.9504,0.1639,0.1862,0.2544,0.3171,-0.7613,-1.4262,-5.9062,9.47985386503004,-22.15827252751271,-0.015571740052888309,0.9149999999935972
-0.3977,0.9504,0.1634,0.1862,0.2544,0.3171,-0.3237,-1.4,-5.6525,9.48981344669229,-22.193893192331156,-0.015875937052118486,0.9249999999883585
-0.3977,0.9504,0.1634,0.1858,0.255,0.3054,-0.4725,-1.68,-6.0813,9.516406489890258,-22.274847568162166,-0.018949092084607252,0.9349999999976717
-0.3993,0.9518,0.1635,0.1858,0.255,0.3054,-0.4725,-1.68,-6.0813,9.539512428388012,-22.3449925548277,-0.020375558365266153,0.9400000000023283
-0.3975,0.9523,0.1654,0.1858,0.255,0.3259,-0.455,-1.7587,-5.8975,9.566403572768412,-22.347921897459084,-0.024182847179512225,0.9499999999970896
-0.3961,0.9486,0.1618,0.1885,0.2529,0.3122,-0.14,-1.7675,-5.6438,9.586912277609544,-22.351280637340224,-0.025990100909625457,0.9550000000017462
-0.3988,0.9511,0.1638,0.1885,0.2529,0.3122,-0.14,-1.7675,-5.6438,9.620387046675505,-22.364720423028647,-0.029828364292418683,0.9649999999819556
-0.3988,0.949,0.1611,0.185,0.2536,0.3162,0.2013,-1.3737,-5.635,9.625485242455989,-22.382544389110897,-0.029729625049680332,0.9749999999912689
-0.3944,0.949,0.1611,0.185,0.2536,0.3162,-0.0787,-1.4875,-5.81,9.627481690658552,-22.3577493504949,-0.03009541099980107,0.9799999999959255
-0.3976,0.9521,0.1589,0.1867,0.2549,0.3137,0.0962,-1.3913,-5.9675,9.579627836234076,-22.36723780323469,-0.030168241289607243,0.9899999999906868
-0.3933,0.9496,0.1668,0.1867,0.2549,0.3137,0.0962,-1.3913,-5.9675,9.699804350110757,-22.310499507916,-0.03024034327705928,1.0
-0.3977,0.9519,0.1611,0.1867,0.2549,0.3137,-0.0875,-1.4,-5.8187,9.679591777056357,-22.329882270043523,-0.03016789704383359,1.0049999999901047
-0.3959,0.9494,0.1648,0.1856,0.2565,0.3105,0.035,-1.6187,-5.915,9.727230809541801,-22.331597290015626,-0.03249126247584001,1.014999999999418
-0.3959,0.9494,0.1648,0.1856,0.2565,0.3105,-0.0613,-1.61,-6.02,9.754971362175839,-22.332993263059077,-0.034705264246056945,1.0249999999796273
-0.3969,0.95,0.1631,0.1858,0.2537,0.3166,-0.0613,-1.61,-6.02,9.751934118100563,-22.34935379908372,-0.03562766880477865,1.029999999984284
-0.3957,0.9496,0.1642,0.1858,0.2537,0.3166,-0.3413,-1.6538,-5.9588,9.753073091194604,-22.34107746532801,-0.03973019371655783,1.0449999999837019
-0.398,0.9506,0.1604,0.1858,0.2537,0.3166,-0.42,-1.575,-5.9675,9.743330314563428,-22.370879416940973,-0.04042909898041317,1.0499999999883585
-0.3978,0.9495,0.1633,0.1863,0.2534,0.3168,-0.4638,-1.3125,-5.915,9.744747460053237,-22.390191458558373,-0.03982164019041982,1.054999999993015
-0.3988,0.9498,0.1607,0.1863,0.2534,0.3168,-0.4638,-1.3125,-5.915,9.731570286102118,-22.41979895642343,-0.0392202559883264,1.0599999999976717
-0.3988,0.9498,0.1607,0.1866,0.2549,0.3129,-0.49,-1.26,-5.8187,9.7169153981795,-22.43703157595528,-0.03790196782892828,1.069999999992433
-0.3987,0.9513,0.1627,0.1866,0.2549,0.3129,-0.2187,-1.6187,-6.1687,9.715472011052896,-22.44071014875971,-0.03883547035186138,1.0749999999970896
-0.3981,0.9495,0.1633,0.1866,0.2549,0.3129,0.0613,-1.2775,-6.0725,9.728270041714245,-22.44440808239731,-0.03769428004873715,1.084999999991851
-0.3982,0.9498,0.163,0.1856,0.2546,0.3141,0.0613,-1.2775,-6.0725,9.731147854074974,-22.4467209218171,-0.036564501648644165,1.0949999999866122
-0.3947,0.949,0.1651,0.1856,0.2546,0.3141,-0.5075,-1.8288,-5.74,9.748756131494693,-22.413588533558197,-0.03855137383434867,1.0999999999912689
-0.3947,0.949,0.1651,0.1847,0.2553,0.309,-0.4725,-1.785,-6.09,9.760810170613984,-22.36406704160573,-0.042437274493767524,1.1099999999860302
-0.3951,0.9511,0.1615,0.1847,0.2553,0.309,-0.4725,-1.7062,-6.02,9.748420549926921,-22.331994939411484,-0.043758548950455604,1.1149999999906868
-0.3963,0.9509,0.1634,0.1847,0.2553,0.3143,-0.5863,-1.7062,-6.02,9.74876985362281,-22.331324567004447,-0.04681225785912206,1.124999999985448
-0.3954,0.9489,0.1592,0.185,0.2567,0.3143,-0.5512,-1.4612,-5.74,9.712883008912444,-22.3331036856891,-0.04740992968152343,1.1349999999947613
-0.398,0.9504,0.1643,0.185,0.2567,0.3143,-0.4112,-1.1638,-5.81,9.71741388000692,-22.3550820175621,-0.04599659758383347,1.139999999999418
-0.3947,0.9501,0.1633,0.1856,0.2558,0.3199,-0.4112,-1.1638,-5.81,9.719085208774915,-22.333300361996773,-0.0436581660089792,1.1499999999941792
-0.3947,0.9501,0.1633,0.1856,0.2558,0.3199,-0.7175,-1.61,-5.4163,9.727867472194287,-22.32871697342945,-0.04449104155007168,1.1549999999988358
-0.3996,0.9506,0.1657,0.1868,0.2548,0.309,-0.5075,-1.75,-5.7137,9.74829574029962,-22.359342468778397,-0.047971045532514814,1.1649999999935972
-0.3967,0.9485,0.1669,0.1868,0.2548,0.309,-0.6125,-1.715,-6.0025,9.794771896475797,-22.368831168680412,-0.05106974947531504,1.1749999999883585
-0.3986,0.9498,0.1584,0.1868,0.2548,0.309,-0.6125,-1.715,-6.0025,9.729185839509263,-22.4089747637878,-0.05234825918222822,1.179999999993015
-0.396,0.9507,0.1658,0.1872,0.2542,0.3182,-0.2275,-1.645,-6.09,9.748477961656063,-22.37195869489598,-0.054710190988894354,1.1899999999877764
-0.396,0.9507,0.1658,0.1872,0.2542,0.3182,-0.525,-1.5838,-5.8187,9.768784946988887,-22.356685238574222,-0.0553028562800669,1.194999999992433
-0.397,0.9492,0.1646,0.1846,0.2536,0.3135,-0.2275,-1.2337,-5.95,9.77692245706491,-22.369221483397805,-0.05356337211616125,1.2050000000017462
-0.3978,0.9509,0.1645,0.1846,0.2536,0.3135,-0.2275,-1.2337,-5.95,9.78137643712436,-22.3796709751004,-0.05184128279562118,1.2149999999965075
-0.3961,0.9493,0.1638,0.1846,0.2536,0.3135,-0.2625,-1.6363,-5.8275,9.782140851677061,-22.372523695410674,-0.05272251216896849,1.2200000000011642
-0.3978,0.9512,0.1638,0.186,0.2561,0.3098,-0.0875,-1.4787,-5.81,9.779683904864672,-22.378871693887316,-0.053434331444826656,1.2299999999813735
-0.3966,0.9493,0.165,0.186,0.2561,0.3098,-0.175,-1.8025,-5.9763,9.792323562847661,-22.376805989464213,-0.0551223203324481,1.2349999999860302
-0.3966,0.9493,0.165,0.1852,0.2561,0.3144,-0.175,-1.8025,-5.9763,9.80297908754359,-22.37541728994413,-0.05901576153326303,1.2449999999953434
-0.396,0.95,0.1602,0.1852,0.2561,0.3144,-0.4462,-1.5488,-5.915,9.784871665764522,-22.366197070762535,-0.059392121116017604,1.249999999985448
-0.3981,0.9528,0.1639,0.1852,0.2561,0.3144,-0.1312,-1.155,-5.7312,9.780306010327758,-22.36899826526136,-0.05683261430302683,1.2599999999947613
-0.3999,0.9502,0.1627,0.1859,0.2554,0.3136,-0.2975,-1.0237,-5.8888,9.776476477331416,-22.41492340981427,-0.05299883256170723,1.2699999999895226
-0.3974,0.9512,0.1652,0.1859,0.2554,0.3136,-0.2975,-1.0237,-5.8888,9.781034898816404,-22.403045038601938,-0.05083611643456956,1.2749999999941792
-0.3974,0.9512,0.1652,0.1857,0.255,0.3116,-0.6212,-1.4875,-5.7312,9.795799470318139,-22.3972511300261,-0.05165391967145895,1.2850000000034925
-0.397,0.9496,0.1632,0.1857,0.255,0.3116,-0.5075,-1.2425,-5.8275,9.79017040356789,-22.396209619544937,-0.05058771267743193,1.2899999999790452
-0.3975,0.9503,0.1617,0.1857,0.2542,0.3167,-0.5075,-1.295,-5.95,9.773146290240792,-22.400368775083766,-0.04950224995011782,1.2999999999883585
-0.3978,0.9498,0.1678,0.1867,0.2542,0.3167,-0.1663,-1.295,-5.95,9.813247295867052,-22.4043907689607,-0.04842764185092027,1.3099999999831198
-0.3993,0.9519,0.1633,0.1867,0.2542,0.3167,-0.1925,-1.715,-6.2125,9.801869459205621,-22.428587999711016,-0.0497325726340774,1.3149999999877764
-0.3942,0.9506,0.1635,0.1863,0.255,0.3102,-0.21,-1.6275,-5.705,9.796264178859488,-22.3931195654573,-0.05194741131026252,1.3249999999970896
-0.3942,0.9506,0.1635,0.1863,0.255,0.3102,-0.21,-1.6275,-5.705,9.791395132418552,-22.363956481570707,-0.05414010159573907,1.334999999991851
-0.3984,0.9512,0.1602,0.1861,0.255,0.3181,-0.3762,-1.4525,-5.8888,9.787976675820214,-22.386178942972883,-0.05408853278023787,1.3399999999965075
-0.3959,0.9503,0.161,0.1861,0.255,0.3181,-0.315,-1.365,-5.74,9.780370265276506,-22.375001526374213,-0.053661061852376075,1.3499999999912689
-0.395,0.9498,0.1626,0.1861,0.255,0.3181,-0.35,-1.12,-5.81,9.779640440286387,-22.35418879057528,-0.05196840843277566,1.3549999999959255
-0.3959,0.9507,0.162,0.185,0.2567,0.3124,-0.35,-1.12,-5.81,9.778429314065415,-22.345578946242377,-0.04913663874965914,1.3649999999906868
-0.3959,0.9507,0.162,0.185,0.2567,0.3124,-0.4638,-1.2862,-6.0725,9.768373840390113,-22.33569961114198,-0.04804523732179775,1.3739999999961583
-0.3953,0.9506,0.1634,0.1852,0.2554,0.3147,-0.6212,-1.645,-5.95,9.765271620969347,-22.319821299666152,-0.05016165791015853,1.3830000000016298
-0.3967,0.9501,0.1601,0.1852,0.2554,0.3147,-0.1138,-1.3737,-6.0113,9.725544971897198,-22.33994263264328,-0.049799722411012805,1.389999999999418
-0.4001,0.9524,0.1644,0.1852,0.2554,0.3147,-0.1138,-1.3737,-6.0113,9.73906031056154,-22.390857998838374,-0.049441406266568164,1.3969999999826541
-0.396,0.9489,0.1646,0.1876,0.253,0.3148,0.0175,-1.435,-5.8538,9.767015425706003,-22.38039417267924,-0.049672765164343706,1.4059999999881256
-0.399,0.9513,0.1609,0.1876,0.253,0.3148,-0.5775,-1.6187,-5.635,9.73731146729349,-22.391525834521502,-0.050488559713922646,1.4109999999927823
-0.399,0.9513,0.1609,0.1864,0.2527,0.3154,-0.4025,-1.5662,-5.9763,9.731865495958465,-22.416477903497,-0.05208896851874412,1.4210000000020955
-0.3977,0.9496,0.1618,0.1864,0.2527,0.3154,-0.4025,-1.5662,-5.9763,9.72939728547224,-22.422110154695474,-0.05262072603147343,1.4259999999922002
-0.4001,0.9522,0.1635,0.1864,0.2527,0.3154,-0.2187,-1.5838,-6.3,9.731107689576765,-22.455039662464102,-0.05437405317328167,1.4360000000015134
-0.3973,0.9509,0.1663,0.1858,0.2562,0.3107,-0.4725,-1.7062,-5.81,9.750020792402353,-22.434487318317398,-0.057321607034639364,1.4459999999817228
-0.399,0.9506,0.1645,0.1858,0.2562,0.3107,-0.5075,-1.4525,-5.915,9.758661396645945,-22.444920228700298,-0.057238223164749163,1.4509999999863794
-0.399,0.9506,0.1645,0.1866,0.2536,0.3135,-0.5075,-1.4525,-5.915,9.76619926370401,-22.452235357876855,-0.05764550533401405,1.4609999999956926
-0.3995,0.9507,0.1643,0.1866,0.2536,0.3135,-0.35,-1.3475,-5.845,9.766629384893925,-22.463046909777503,-0.05703913248073311,1.4659999999857973
-0.3957,0.9492,0.1643,0.1662,0.2532,0.313,-0.0175,-1.7325,-5.5388,9.78033280214927,-22.45677438541816,-0.060220405559419786,1.4759999999951106
-0.3971,0.9528,0.1607,0.1842,0.2532,0.313,-0.0175,-1.7325,-5.81,9.727414981777631,-22.42864231597591,-0.0633698659018602,1.4859999999898719
-0.3958,0.9484,0.1631,0.1842,0.2532,0.313,0.07,-1.8025,-5.81,9.736607637720432,-22.41127461049413,-0.06495849944491129,1.4909999999945285
-0.3958,0.9489,0.1637,0.1862,0.254,0.3142,-0.4638,-1.4875,-5.7925,9.741395922603537,-22.395778974531293,-0.06563507885169727,1.5010000000038417
-0.3958,0.9489,0.1637,0.1862,0.254,0.3142,-0.4112,-1.75,-5.95,9.743618132343485,-22.379674876980356,-0.06694118525358497,1.5059999999793945
-0.3985,0.95,0.1659,0.1857,0.2542,0.3151,-0.4112,-1.75,-5.95,9.751338263564998,-22.402314424856545,-0.07019668780470448,1.5159999999887077
-0.3944,0.949,0.1649,0.1857,0.2542,0.3151,-0.6825,-1.3475,-5.8888,9.77712847743215,-22.363689952976888,-0.06943488532668877,1.525999999983469
-0.3963,0.9509,0.1629,0.1857,0.2542,0.3151,-0.595,-1.3475,-5.8275,9.766503243077542,-22.355628327226736,-0.06871061867339402,1.5309999999881256
-0.3983,0.9484,0.164,0.1858,0.2538,0.3131,-0.5337,-1.5225,-6.0988,9.773009375268057,-22.403198941886444,-0.06969617688821787,1.5409999999974389
-0.3983,0.9484,0.1626,0.1858,0.2538,0.3131,-0.5337,-1.5225,-6.0988,9.766473765455917,-22.43463929150002,-0.07067187951845944,1.5509999999922002
-0.3963,0.9519,0.1626,0.1812,0.2546,0.3151,-0.6212,-1.6712,-5.95,9.751414752991783,-22.396032437378103,-0.07153755792473925,1.5559999999968568
-0.3978,0.9498,0.1649,0.1812,0.2546,0.3151,-0.525,-1.9162,-5.7312,9.765185347919573,-22.40140956323767,-0.07639247674257374,1.565999999991618
-0.398,0.9496,0.1629,0.1812,0.2546,0.3151,-0.6913,-1.5662,-5.5037,9.75747322048768,-22.402050186439308,-0.07731278749549113,1.573999999993248
-0.3968,0.9498,0.1656,0.1866,0.2555,0.3221,-0.6913,-1.5662,-5.5037,9.790423492229596,-22.401583396691024,-0.07864495401943332,1.5839999999880092
-0.3964,0.9489,0.163,0.1866,0.2555,0.3221,-0.5775,-1.3825,-6.1512,9.78270473840741,-22.392098622662566,-0.07800183667937247,1.5889999999926658
-0.3964,0.9489,0.163,0.1858,0.2573,0.3153,-0.5512,-1.4525,-6.1512,9.777007060178162,-22.386393186561687,-0.07771165051303493,1.5939999999973224
-0.3978,0.9489,0.1629,0.1858,0.2573,0.3153,-0.5688,-1.5925,-5.8888,9.770843518445139,-22.40437743889774,-0.07930019840666527,1.6039999999920838
-0.3974,0.9515,0.1629,0.1858,0.2573,0.3153,-0.5688,-1.5925,-5.8888,9.761251046129285,-22.396080532898083,-0.08087286082135932,1.613999999986845
-0.3971,0.9514,0.1646,0.1871,0.2527,0.3196,-0.1312,-1.575,-6.1075,9.771391200564839,-22.380817786072406,-0.08116033941416664,1.6189999999915017
-0.3974,0.95,0.1645,0.1871,0.2527,0.3196,-0.595,-1.4262,-5.81,9.781323154026582,-22.38562192367386,-0.08106803041964816,1.628999999986263
-0.3974,0.95,0.1638,0.1882,0.2548,0.3132,-0.6212,-1.4787,-5.8362,9.781630155899407,-22.390121697040357,-0.08087687231602865,1.6339999999909196
-0.3983,0.9495,0.1638,0.1882,0.2548,0.3132,-0.6212,-1.4787,-5.8362,9.782916251595951,-22.40791189350477,-0.08130714799221926,1.643999999985681
-0.3969,0.9514,0.1638,0.1868,0.255,0.3134,-0.6212,-1.295,-5.7925,9.779981349385212,-22.394149843782913,-0.07991449091175729,1.6539999999949941
-0.395,0.9504,0.1628,0.1868,0.255,0.3134,-0.1575,-1.33,-5.8187,9.76986706857802,-22.36492888161505,-0.07899880320253118,1.6589999999996508
-0.396,0.952,0.1615,0.1868,0.255,0.3134,-0.1575,-1.33,-5.8362,9.745884894782254,-22.347899338481735,-0.07797572957062797,1.668999999994412
-0.396,0.9497,0.1652,0.1862,0.2546,0.3189,-0.28,-1.5137,-5.8362,9.755044948914495,-22.344083590196117,-0.07798874447566001,1.6739999999990687
-0.396,0.9497,0.1652,0.1862,0.2546,0.3189,-0.7962,-1.2513,-6.0287,9.789237937324812,-22.340232679611937,-0.07619664143143368,1.68399999999383
-0.3953,0.9495,0.1587,0.1853,0.2543,0.3123,-0.5337,-1.2425,-5.81,9.74502984827207,-22.33639263177997,-0.07433533941769524,1.6939999999885913
-0.3965,0.9537,0.1654,0.1853,0.2543,0.3123,-0.5337,-1.2425,-5.81,9.75884407208044,-22.32163519738633,-0.07304231822300636,1.698999999993248
-0.3976,0.9511,0.1628,0.1853,0.2543,0.3123,-0.3675,-1.2337,-5.53,9.75855861957738,-22.3245026629529,-0.07112543944139783,1.7089999999880092
-0.3956,0.9515,0.1606,0.1865,0.256,0.3212,-0.5163,-1.2163,-5.7488,9.734642238425572,-22.31778641025309,-0.06973482724635116,1.7139999999926658
-0.3956,0.9493,0.1626,0.1865,0.256,0.3212,-0.0875,-1.1988,-5.915,9.73139633638194,-22.321505048853513,-0.0675055133724609,1.724000000001979
-0.3952,0.9493,0.1626,0.1884,0.255,0.3146,-0.0875,-1.1988,-5.915,9.72884794649036,-22.31802691096257,-0.06529849263953884,1.7339999999967404
-0.396,0.9508,0.1635,0.1884,0.255,0.3146,-0.42,-1.5575,-5.8625,9.730421209004149,-22.31761696112898,-0.06565508991408368,1.739000000001397
-0.3965,0.9501,0.1628,0.1884,0.255,0.3146,-0.4988,-1.8025,-5.4513,9.729551012420153,-22.319105814102155,-0.06944320340614658,1.7489999999816064
-0.3988,0.9503,0.1604,0.1872,0.2537,0.3112,-0.2537,-1.54,-5.6525,9.715090671051573,-22.34173422739514,-0.07059468577380425,1.7589999999909196
-0.3945,0.949,0.1656,0.1872,0.2537,0.3112,-0.2537,-1.54,-5.6525,9.732886395059046,-22.331603344864757,-0.07081169611692578,1.7639999999955762
-0.3945,0.949,0.1656,0.1867,0.2542,0.3069,0.1138,-1.1463,-6.09,9.786193469316139,-22.308367954507855,-0.06805186355683135,1.7739999999903375
-0.3958,0.9499,0.1581,0.1867,0.2542,0.3069,0.1663,-1.155,-5.985,9.669956892157884,-22.320087988903392,-0.06638855212034774,1.7789999999949941
-0.3962,0.9519,0.1624,0.1867,0.2542,0.3069,-0.5163,-1.5225,-6.1337,9.67154659717084,-22.315328246457423,-0.067397330998268,1.7889999999897555
-0.3957,0.9504,0.1604,0.1833,0.2558,0.3067,-0.5163,-1.5225,-6.1337,9.659200396307916,-22.317302487694885,-0.06755968988906422,1.793999999994412
-0.3983,0.9507,0.1681,0.1833,0.2558,0.3067,-0.525,-1.5662,-5.985,9.710997369547844,-22.350976543507713,-0.06898938739213428,1.8040000000037253
-0.3982,0.9486,0.1642,0.1849,0.2558,0.3166,-0.5688,-1.365,-5.7925,9.729809266744857,-22.378992728765407,-0.06841290791798849,1.8139999999839347
-0.3982,0.9486,0.1642,0.1849,0.2558,0.3166,-0.455,-1.3212,-6.055,9.737579877934238,-22.412341316853603,-0.06756867603865949,1.8189999999885913
-0.395,0.9494,0.1654,0.1862,0.254,0.3217,-0.455,-1.3212,-6.055,9.750016702682155,-22.36727269233853,-0.06657278367844063,1.8289999999833526
-0.3948,0.9496,0.1596,0.1862,0.254,0.3217,-0.0787,-1.3563,-5.915,9.703882370400763,-22.345316057126315,-0.06592069804166893,1.8339999999880092
-0.3972,0.9517,0.1599,0.1862,0.254,0.3217,-0.245,-1.435,-5.8362,9.686558299648745,-22.3520797203917,-0.06606790546200328,1.8439999999973224
-0.3963,0.949,0.1636,0.1874,0.2548,0.3272,-0.245,-1.5662,-5.775,9.69641070628721,-22.355732819888,-0.06751252080628034,1.8539999999920838
-0.3963,0.949,0.1636,0.1874,0.2548,0.3272,-0.4725,-1.5662,-5.775,9.704901519932996,-22.35857302443958,-0.06789004279919789,1.8589999999967404
-0.3981,0.9502,0.1651,0.1862,0.2536,0.316,-0.4812,-1.5137,-5.775,9.721186245031747,-22.374433269919255,-0.06879668677037529,1.8689999999915017
-0.3966,0.9489,0.1633,0.1862,0.2536,0.316,0.2187,-1.6013,-5.8275,9.737125885973523,-22.377585182961923,-0.07056150430495586,1.879000000000815
-0.3963,0.9525,0.1617,0.1862,0.2536,0.316,0.2187,-1.6013,-5.8275,9.69960025868425,-22.358752367840818,-0.07108228145947919,1.8839999999909196
-0.3934,0.95,0.1631,0.1864,0.2567,0.3281,-0.1225,-1.5838,-5.8012,9.707733743382928,-22.32144808183928,-0.07265099304369022,1.893999999985681
-0.3979,0.9514,0.1624,0.1864,0.2567,0.3281,-0.5863,-1.4262,-5.7663,9.703885343621103,-22.339496562393197,-0.07228413031358827,1.8989999999903375
-0.3979,0.9514,0.1624,0.1862,0.2564,0.3128,0.07,-1.1113,-6.0637,9.698734225126541,-22.363237951761853,-0.06916307341170874,1.9089999999850988
-0.3966,0.9504,0.1646,0.1862,0.2564,0.3128,0.07,-1.1113,-6.0637,9.736958707645812,-22.358892811931533,-0.06607322707535813,1.918999999994412
-0.3974,0.95,0.1604,0.1862,0.2564,0.3128,-0.525,-1.0063,-6.2913,9.71536842266101,-22.38389787733463,-0.06369363700300375,1.9239999999990687
-0.3955,0.9507,0.1651,0.1847,0.2535,0.3166,0.0088,-1.7763,-5.8538,9.75222021905513,-22.358114754932483,-0.06724198503078116,1.93399999999383
-0.3995,0.9509,0.1606,0.1847,0.2535,0.3166,-0.3762,-2.1175,-5.8713,9.749770334618173,-22.398019846420876,-0.07035114738399521,1.9389999999984866
-0.3995,0.9509,0.1606,0.1857,0.2536,0.3134,-0.3762,-2.1175,-5.8713,9.74735663872376,-22.426884079944244,-0.0772108002951873,1.948999999978696
-0.3996,0.9499,0.1617,0.1857,0.2536,0.3134,-0.1925,-1.4088,-6.1337,9.734856991771048,-22.465068960482533,-0.0769857266927449,1.9589999999880092
-0.397,0.949,0.1643,0.1857,0.2557,0.3121,-0.0088,-1.6538,-5.9062,9.757624848837068,-22.44637978645639,-0.07770213662720164,1.9639999999926658
-0.4001,0.9504,0.1645,0.1855,0.2557,0.3121,-0.3588,-1.54,-5.7312,9.757774027143046,-22.462559644392094,-0.0787710296599626,1.9739999999874271
-0.398,0.95,0.1665,0.1855,0.2557,0.3121,-0.3588,-1.54,-5.7312,9.75821369207301,-22.455008346482135,-0.07890627656422255,1.9789999999920838
-0.3989,0.9498,0.1621,0.1861,0.2538,0.3128,-0.63,-1.3475,-5.7137,9.74274841626454,-22.461325537968502,-0.07805737819861167,1.988999999986845
-0.3989,0.9498,0.1621,0.1861,0.2538,0.3128,-0.2887,-1.19,-5.775,9.738858685729554,-22.46757565569445,-0.0764672616158716,1.9939999999915017
-0.3965,0.9512,0.1643,0.1871,0.2558,0.3106,0.0962,-1.5313,-5.7137,9.758033760736796,-22.442473770480632,-0.0774623734013518,2.004000000000815
-0.3967,0.9503,0.1607,0.1871,0.2558,0.3106,0.0962,-1.5313,-5.7137,9.707860655700886,-22.42957676524107,-0.07844753406385556,2.0139999999810243
-0.3995,0.9517,0.164,0.1871,0.2558,0.3106,-0.595,-1.5137,-5.8275,9.721031465859824,-22.440765765922784,-0.07845583092395532,2.018999999985681
-0.3968,0.9501,0.1627,0.1839,0.255,0.3135,-1.05,-1.5225,-6.1512,9.719537278912382,-22.414330169956187,-0.07934393701627356,2.028999999994994
-0.3968,0.9501,0.1627,0.1839,0.255,0.3135,-1.05,-1.54,-6.0113,9.718652512722896,-22.400634077525012,-0.07947345484428422,2.033999999985099
-0.3981,0.9497,0.1627,0.1855,0.2545,0.3146,-0.525,-1.54,-6.0113,9.719036765246234,-22.41714238872553,-0.08052463469756052,2.043999999994412
-0.3956,0.9492,0.1632,0.1855,0.2545,0.3146,-0.2187,-1.6975,-6.09,9.723612688939998,-22.384486229728807,-0.08312455274880105,2.0539999999891734
-0.3983,0.9508,0.1647,0.1855,0.2545,0.3146,-0.2362,-1.1725,-5.74,9.735145357813403,-22.393432744760904,-0.08139713942047842,2.05899999999383
-0.3974,0.9506,0.1639,0.1866,0.2523,0.3122,-0.2362,-1.1725,-5.74,9.740419343970247,-22.39281232164591,-0.0787908324246044,2.069000000003143
-0.3972,0.9502,0.1617,0.1866,0.2523,0.3122,-0.4988,-1.2775,-5.915,9.730423242456203,-22.393827463036448,-0.0776265063011033,2.073999999993248
-0.3972,0.9502,0.1617,0.1862,0.2554,0.3176,-0.4988,-1.5838,-5.8012,9.721636179320228,-22.39439443070846,-0.07912977563689809,2.083999999988009
-0.3961,0.9507,0.1657,0.1862,0.2554,0.3176,-0.245,-1.5488,-5.6438,9.738843226308287,-22.383850414550274,-0.08027151227951645,2.0939999999827705
-0.395,0.9498,0.1572,0.1862,0.2554,0.3176,-0.245,-1.5488,-5.6438,9.703332106446403,-22.37368629560725,-0.08043531435762143,2.098999999987427
-0.3978,0.9525,0.1648,0.1867,0.2542,0.3119,-0.0875,-1.6625,-5.6087,9.727552663996757,-22.37311229517907,-0.0826896256168938,2.1089999999967404
-0.3953,0.95,0.1623,0.1867,0.2542,0.3119,-0.4812,-1.9425,-5.67,9.724057842090259,-22.36214222220436,-0.08477806155495524,2.113999999986845
-0.3953,0.95,0.1637,0.1861,0.2544,0.3054,-0.7875,-1.2425,-5.6525,9.739867495266472,-22.352930749217393,-0.08283094533838185,2.1239999999961583
-0.3981,0.9498,0.1637,0.1861,0.2544,0.3054,-0.7875,-1.2425,-5.6525,9.75155537190196,-22.36561790259083,-0.08090330028557394,2.1339999999909196
-0.3956,0.9492,0.1665,0.1864,0.2572,0.3108,-0.21,-1.2775,-5.6175,9.777500278682746,-22.36022997091232,-0.07971784948236763,2.138999999995576
-0.3998,0.9502,0.1614,0.1864,0.2572,0.3108,0.1138,-1.365,-5.9675,9.733281938333212,-22.41495077375889,-0.07903408538748452,2.1489999999903375
-0.3964,0.951,0.167,0.1864,0.2572,0.3108,-0.385,-1.2775,-5.8888,9.73854751233465,-22.387888472903448,-0.07786732673435463,2.1539999999804422
-0.3973,0.9487,0.1612,0.1858,0.2554,0.3126,-0.385,-1.2775,-5.8888,9.736336468601664,-22.401081444052256,-0.07633581786630995,2.1639999999897555
-0.3973,0.9487,0.1612,0.1858,0.2554,0.3126,-0.5163,-1.3563,-5.8538,9.723859089432452,-22.409900877633103,-0.07559974408763256,2.1739999999845168
-0.3971,0.9511,0.1634,0.1875,0.2534,0.3145,-0.28,-1.575,-5.9325,9.725695593679145,-22.396586926966318,-0.07593995384777716,2.1789999999891734
-0.3992,0.9507,0.1597,0.1875,0.2534,0.3145,-0.4988,-1.4525,-5.6875,9.702703848035933,-22.41280324292015,-0.07616021871021177,2.1889999999984866
-0.398,0.9501,0.1674,0.1875,0.2534,0.3145,-0.4988,-1.4525,-5.6875,9.737754747683097,-22.413752995897873,-0.07588844872214023,2.1939999999885913
-0.3937,0.9497,0.1626,0.1865,0.2536,0.3178,-0.35,-1.4875,-5.8713,9.737508342324588,-22.361594978247837,-0.07645572863615392,2.2039999999979045
-0.3937,0.9511,0.1653,0.1865,0.2536,0.3178,-0.455,-1.6275,-5.6438,9.747964957925767,-22.33816554114361,-0.07840333574837156,2.213999999992666
-0.3966,0.9511,0.1653,0.187,0.2544,0.3139,-0.3237,-1.225,-5.7838,9.751995300932869,-22.33731630069107,-0.07698300959214711,2.2189999999827705
-0.398,0.9492,0.1637,0.187,0.2544,0.3139,-0.3237,-1.225,-5.7838,9.753189714087942,-22.363087398912963,-0.07494059389504044,2.2289999999920838
-0.3975,0.9519,0.1652,0.187,0.2544,0.3139,-0.2187,-1.4438,-5.8713,9.76470179221111,-22.363346453406546,-0.07463795515520587,2.2339999999821885
-0.3966,0.9482,0.1612,0.1862,0.2546,0.3165,-0.6388,-1.6712,-5.5475,9.739431455400812,-22.365866467458797,-0.07703637000658262,2.2439999999915017
-0.3964,0.95,0.1631,0.1862,0.2546,0.3165,-0.6388,-1.6712,-5.6962,9.739947572693046,-22.36395439555528,-0.07941080070944562,2.254000000000815
-0.3964,0.95,0.1631,0.1856,0.2541,0.3185,-0.455,-1.7675,-5.6962,9.74010700458035,-22.36237078112148,-0.0806657748982959,2.2589999999909196
-0.3945,0.9513,0.1654,0.1856,0.2541,0.3185,-0.2713,-1.8025,-5.74,9.750266384763266,-22.334442166344246,-0.08430378155345236,2.269000000000233
-0.4006,0.9498,0.1633,0.1856,0.2541,0.3185,-0.4375,-1.47,-5.775,9.750640039918055,-22.38716771823318,-0.08461365813731385,2.278999999994994
-0.3975,0.9518,0.1654,0.1839,0.2558,0.3169,-0.4375,-1.47,-5.775,9.758263393999554,-22.382316283242996,-0.08434397875479986,2.283999999985099
-0.3971,0.9498,0.1645,0.1839,0.2558,0.3169,-0.5163,-1.4963,-5.8187,9.767335922808886,-22.384088958391775,-0.08491382336856808,2.293999999994412
-0.3971,0.9496,0.1636,0.187,0.2547,0.3117,-0.35,-1.645,-5.7575,9.767422336433011,-22.386780501599077,-0.08550739233202719,2.2989999999845168
-0.3938,0.9496,0.1636,0.187,0.2547,0.3117,-0.5337,-1.5662,-5.7575,9.768556704688319,-22.353333444861782,-0.08675761281066761,2.30899999999383
-0.396,0.9517,0.1585,0.1869,0.2553,0.321,-0.5337,-1.5662,-5.7575,9.722499172172288,-22.34530230032931,-0.08799533108145804,2.3189999999885913
-0.3964,0.9499,0.1653,0.1869,0.2553,0.321,-0.3237,-1.0938,-5.6875,9.727891552679964,-22.345909039367182,-0.08582964496944603,2.323999999993248
-0.3968,0.9493,0.1634,0.1869,0.2553,0.321,-0.0525,-1.085,-5.8888,9.736984431613646,-22.358063512023,-0.08231276291727557,2.334000000002561
-0.399,0.9514,0.167,0.1873,0.2562,0.3139,-0.3325,-1.3038,-6.2737,9.743089326142368,-22.39580607456388,-0.08124340248859013,2.338999999992666
-0.399,0.9514,0.167,0.1873,0.2562,0.3139,-0.3325,-1.3038,-6.2737,9.749023858063238,-22.41695143345642,-0.07993850286396222,2.348999999987427
-0.3984,0.9491,0.1632,0.1849,0.2539,0.3155,-0.1575,-1.54,-5.8538,9.750328160096993,-22.432371898791633,-0.08006207503618216,2.3539999999920838
-0.3983,0.9496,0.162,0.1849,0.2539,0.3155,-0.6388,-1.505,-5.7575,9.735340862247442,-22.438952297803898,-0.08076086868503483,2.363999999986845
-0.3977,0.9485,0.164,0.1849,0.2539,0.3155,-0.2537,-1.2687,-5.95,9.742560288490393,-22.442000640846537,-0.0791133043974022,2.3739999999961583
-0.3989,0.9504,0.1636,0.187,0.2557,0.3135,-0.2537,-1.2687,-5.95,9.744938828096588,-22.451366122971816,-0.07790219355425934,2.378999999986263
-0.3997,0.9525,0.1614,0.187,0.2557,0.3135,-0.6737,-1.6187,-5.95,9.714560865926222,-22.459325479658375,-0.0797482160211615,2.388999999995576
-0.3997,0.9525,0.1614,0.1858,0.2548,0.3154,-0.4112,-1.505,-5.635,9.709932356647858,-22.461526845058884,-0.0797004410616481,2.394000000000233
-0.3972,0.9492,0.162,0.1858,0.2548,0.3154,-0.455,-1.2075,-5.8275,9.707824689052753,-22.449960647846105,-0.07745760105178905,2.403999999994994
-0.3962,0.9479,0.1659,0.1858,0.2548,0.3154,-0.455,-1.2075,-5.8275,9.72664233401093,-22.431719638475933,-0.07523718943992462,2.4140000000043074
-0.3974,0.9509,0.1645,0.1855,0.2536,0.3094,-0.14,-1.6363,-5.7925,9.742590738022466,-22.42014288989827,-0.07588445973868191,2.41899999997986
-0.3978,0.9525,0.1629,0.1855,0.2536,0.3094,-0.6037,-1.6712,-5.8275,9.735261609651953,-22.408732897423864,-0.07858488898085576,2.429999999978463
-0.3978,0.9525,0.1629,0.1866,0.2534,0.3194,-0.6037,-1.6712,-6.23,9.72936288155408,-22.394392953389755,-0.08031487561613602,2.437999999994645
-0.3984,0.9517,0.1598,0.1866,0.2534,0.3194,-0.315,-1.6363,-6.23,9.720629491559622,-22.410739547253677,-0.0820310828215063,2.4470000000001164
-0.3932,0.9508,0.1624,0.1866,0.2534,0.3127,0.0088,-1.4612,-5.9588,9.713109425911131,-22.336299787040048,-0.08185024863264605,2.452999999994063
-0.3958,0.9495,0.1612,0.1874,0.2568,0.3127,-0.2362,-1.1638,-5.6438,9.704478558663114,-22.33695854237309,-0.07915328054457013,2.463000000003376
-0.396,0.9523,0.1624,0.1874,0.2568,0.3127,-0.2362,-1.1638,-5.6438,9.7015148861458,-22.330600026357278,-0.07742251494098322,2.4679999999934807
-0.3964,0.9489,0.1614,0.1861,0.256,0.314,-0.77,-1.3913,-5.7225,9.687480974210706,-22.34060780779715,-0.07702207419137756,2.477999999988242
-0.3964,0.9489,0.1614,0.1861,0.256,0.314,-0.6388,-1.575,-5.6962,9.680021790847082,-22.34796370141652,-0.0773480606504847,2.4829999999928987
-0.3986,0.9519,0.161,0.1855,0.2554,0.3112,-0.3413,-1.2513,-5.88,9.67845779542993,-22.37233485584704,-0.07556236444451013,2.49299999998766
-0.3962,0.9514,0.164,0.1855,0.2554,0.3112,-0.3413,-1.2513,-5.88,9.680447360082248,-22.35553228938052,-0.07379452519912233,2.502999999996973
-0.3974,0.9533,0.1607,0.1855,0.2554,0.3112,-0.5863,-1.5313,-5.95,9.659883186247201,-22.35252288762792,-0.07393647214538974,2.507999999987078
-0.3964,0.9483,0.1646,0.1842,0.2554,0.3239,-0.6825,-1.4787,-5.775,9.705368299619,-22.359630689214118,-0.0744361518250898,2.517999999996391
-0.3964,0.9483,0.1646,0.1842,0.2554,0.3239,-0.6212,-1.4,-5.7838,9.734580316352051,-22.365288053023054,-0.07392174750705306,2.5230000000010477
-0.3981,0.9514,0.1618,0.1877,0.255,0.3136,-0.6212,-1.4,-5.7838,9.717473071033305,-22.377020480776494,-0.07364244443174159,2.532999999995809
-0.3975,0.9492,0.1652,0.1877,0.255,0.3136,-0.0437,-1.6975,-5.95,9.754939040828114,-22.39048061284426,-0.07460860218405466,2.5379999999859137
-0.3974,0.95,0.1608,0.1877,0.255,0.3136,-0.2537,-1.4262,-6.0725,9.740579222267927,-22.399023428966647,-0.074581810562884,2.547999999995227
-0.3993,0.9514,0.1633,0.187,0.2539,0.3125,-0.6125,-1.225,-5.985,9.740351630073663,-22.423341745361736,-0.07256340685792181,2.5579999999899883
-0.3981,0.9499,0.1607,0.187,0.2539,0.3125,-0.6125,-1.225,-5.985,9.712594424884655,-22.43272789115517,-0.07120147998875001,2.562999999994645
-0.3981,0.9499,0.1607,0.1866,0.2556,0.3152,0.105,-0.8838,-5.67,9.677472456612433,-22.435629753645856,-0.06583899959129874,2.572999999989406
-0.3969,0.9484,0.165,0.1866,0.2556,0.3152,-0.525,-1.4,-6.0025,9.704481126135724,-22.425711697237197,-0.06541056679559992,2.577999999994063
-0.3969,0.9506,0.1609,0.1866,0.2556,0.3152,-0.455,-1.61,-5.8362,9.696114973842711,-22.412768536589684,-0.06729537553000847,2.588000000003376
-0.398,0.9503,0.1626,0.1862,0.2558,0.3206,-0.455,-1.61,-5.8362,9.697263105312771,-22.417626144529674,-0.06789187897219605,2.5929999999934807
-0.3961,0.9488,0.1599,0.1862,0.2558,0.3206,-0.1575,-1.4787,-5.7137,9.675064652727768,-22.409886167923496,-0.06845200458182499,2.602999999988242
-0.3961,0.9488,0.1698,0.1875,0.256,0.3158,-0.3762,-1.2775,-5.8538,9.682027096740997,-22.39119903133318,-0.06701464893640113,2.6129999999830034
-0.3974,0.9508,0.1698,0.1875,0.256,0.3158,-0.3762,-1.2775,-6.09,9.688577957623716,-22.38132972887203,-0.06596808464668656,2.61799999998766
-0.3994,0.9503,0.1642,0.1875,0.2547,0.3182,-0.5512,-1.75,-6.09,9.706878661135997,-22.424746417112033,-0.06923331820387506,2.627999999996973
-0.3996,0.9509,0.1648,0.1861,0.2547,0.3182,-0.2887,-1.7413,-5.6875,9.715353600623697,-22.435984812995738,-0.07046037721803772,2.632999999987078
-0.3961,0.9496,0.1673,0.1861,0.2547,0.3182,-0.5863,-1.575,-5.9325,9.766146868886796,-22.404234560712002,-0.07194818784789918,2.642999999996391
-0.3943,0.9489,0.1593,0.1872,0.2546,0.3139,-0.5863,-1.575,-5.9325,9.72273455189262,-22.367213317895235,-0.07342112036827166,2.6529999999911524
-0.3943,0.9489,0.1593,0.1872,0.2546,0.3139,-0.5688,-1.3563,-5.9763,9.689580005204155,-22.339868476295038,-0.07270055136460164,2.657999999995809
-0.3969,0.9504,0.1635,0.1866,0.2542,0.3169,-0.0875,-1.505,-5.845,9.704972179454215,-22.347910830157687,-0.07347296025235206,2.6680000000051223
-0.3963,0.9486,0.1629,0.1866,0.2542,0.3169,-0.4025,-1.3913,-5.7925,9.706526773351493,-22.35520944410721,-0.07311201504908879,2.6779999999853317
-0.3992,0.9514,0.1663,0.1866,0.2542,0.3169,-0.4025,-1.3913,-5.7925,9.714787962276832,-22.37881840000841,-0.07256778709877196,2.6829999999899883
-0.3955,0.9489,0.1612,0.1862,0.2557,0.3238,-0.315,-1.7325,-5.6788,9.711547301338832,-22.372350477203096,-0.07559377362581886,2.6929999999847496
-0.3955,0.9489,0.1625,0.1862,0.2557,0.3238,-0.4812,-1.3737,-5.7838,9.712205444266665,-22.363554168242803,-0.07493760808965358,2.697999999989406
-0.3989,0.9493,0.1625,0.1875,0.2552,0.3142,-0.735,-1.5225,-5.9763,9.712604922841603,-22.407734197086437,-0.07586089641031483,2.7079999999987194
-0.3964,0.9483,0.1613,0.1875,0.2552,0.3142,-0.735,-1.5225,-5.9763,9.696461000293962,-22.40394925063258,-0.07593861964455653,2.712999999988824
-0.3999,0.9512,0.1612,0.1875,0.2552,0.3142,-0.6037,-1.4963,-5.9062,9.681252823756807,-22.43644793754323,-0.07659251784942718,2.7229999999981374
-0.3946,0.9508,0.1627,0.1862,0.2568,0.3178,-0.5775,-1.4787,-5.6962,9.686427184803328,-22.40410070446013,-0.07706563707028381,2.7329999999928987
-0.3967,0.9518,0.1613,0.1862,0.2568,0.3178,-0.4112,-1.4787,-5.7925,9.6831900578349,-22.388990526412975,-0.0769145028983549,2.7379999999830034
-0.3967,0.9518,0.1613,0.1861,0.2559,0.3144,-0.4112,-1.4787,-5.7925,9.680107059216404,-22.377400388999625,-0.0773844022705253,2.7479999999923166
-0.3967,0.9482,0.1634,0.1861,0.2559,0.3144,-0.4812,-1.1812,-5.8012,9.690546891123095,-22.384229629733856,-0.07575745544950839,2.7529999999824213
-0.3963,0.9501,0.1611,0.1861,0.2559,0.3144,-0.1925,-1.3737,-5.8275,9.680883259861458,-22.376738942026286,-0.07519942529519914,2.7629999999917345
-0.3939,0.9521,0.1656,0.1843,0.2545,0.3114,-0.2537,-1.5838,-5.9588,9.698932627961106,-22.31245807153016,-0.07672696544105297,2.772999999986496
-0.3977,0.9529,0.1566,0.1843,0.2545,0.3114,-0.2537,-1.5838,-5.9588,9.663371558909851,-22.33517008040977,-0.07709946298770393,2.7779999999911524
-0.3977,0.9506,0.1654,0.1874,0.2553,0.3126,-0.4725,-1.4262,-5.8713,9.684103441064066,-22.353167271475332,-0.07704776275849677,2.7880000000004657
-0.3941,0.9506,0.1654,0.1874,0.2553,0.3126,-0.1838,-1.4612,-5.8713,9.712171670675366,-22.315561686111014,-0.07681018232985717,2.7929999999905704
-0.3992,0.9498,0.1614,0.185,0.2547,0.3133,-0.1838,-1.4612,-5.67,9.701926310705906,-22.344947501079893,-0.0771078749075512,2.8029999999998836
-0.397,0.9494,0.1642,0.185,0.2547,0.3133,-0.315,-1.47,-5.67,9.706801728064514,-22.352427298490802,-0.07748971055619398,2.812999999980093
-0.3961,0.9496,0.1614,0.185,0.2547,0.3133,-0.105,-1.7587,-6.1512,9.694435461668826,-22.352938995338487,-0.07872033565249982,2.8179999999847496
-0.3977,0.9523,0.1599,0.1858,0.2541,0.3173,-0.3588,-1.4525,-6.2387,9.694044409974861,-22.36648986639557,-0.07891279669688721,2.827999999994063
-0.3977,0.9523,0.1599,0.1858,0.2541,0.3173,-0.3588,-1.4525,-6.2387,9.693654297282146,-22.374233619535485,-0.07910333312940511,2.837999999988824
-0.3943,0.9499,0.1659,0.1842,0.2554,0.3211,-0.42,-1.6538,-6.0988,9.705489069493877,-22.323369508660022,-0.07979856699949525,2.8429999999934807
-0.3979,0.9489,0.1628,0.1842,0.2554,0.3211,-0.28,-1.75,-5.9938,9.707727172278428,-22.367463082091284,-0.08292549572744415,2.852999999988242
-0.3953,0.9522,0.1648,0.1842,0.2554,0.3211,-0.2275,-1.6363,-6.1425,9.720859409736875,-22.32009303171716,-0.08489552517277675,2.8629999999975553
-0.3941,0.9503,0.1626,0.1863,0.255,0.3149,-0.2275,-1.6363,-6.1425,9.71952020348823,-22.285784382869252,-0.0854462121223525,2.868000000002212
-0.3941,0.9503,0.1636,0.1863,0.255,0.3149,-0.63,-1.7413,-6.0637,9.729805728269817,-22.265340731354808,-0.08843053439353178,2.8779999999824213
-0.3985,0.9503,0.1636,0.1881,0.2554,0.3147,-0.5863,-1.4,-5.8187,9.73683647464214,-22.31200323834378,-0.08777618624981062,2.882999999987078
-0.3963,0.9489,0.1665,0.1881,0.2554,0.3147,-0.595,-1.4875,-6.0988,9.777639959128482,-22.330248108245044,-0.0882245887885476,2.892999999996391
-0.3988,0.9515,0.1634,0.1881,0.2554,0.3147,-0.595,-1.4875,-6.0988,9.7713206589182,-22.37356886567232,-0.08800542509934983,2.897999999986496
-0.3973,0.9497,0.1618,0.1853,0.2527,0.3102,-0.385,-1.3563,-6.0287,9.768934012123564,-22.38678614107953,-0.08715265524838174,2.907999999995809
-0.3953,0.9502,0.161,0.1853,0.2527,0.3102,-0.455,-1.54,-5.8362,9.755883971861005,-22.36493563486092,-0.0872040858967575,2.9130000000004657
-0.3953,0.9502,0.161,0.1862,0.256,0.3134,-0.315,-1.3212,-5.7925,9.749738834773211,-22.350283622286437,-0.08601183943795768,2.922999999995227
-0.3969,0.9506,0.1675,0.1862,0.256,0.3134,-0.315,-1.3212,-5.7925,9.760491325923272,-22.35069160570971,-0.08483151544327988,2.93300000000454
-0.3939,0.949,0.1651,0.1862,0.256,0.3134,-0.21,-1.0675,-5.9325,9.774759218749207,-22.316960924748347,-0.08256728249577013,2.937999999980093
-0.3967,0.9526,0.1602,0.1865,0.256,0.3098,0.0175,-1.19,-5.8275,9.711973004081832,-22.31940134755933,-0.08012252406930452,2.947999999989406
-0.3954,0.9503,0.1637,0.1865,0.256,0.3098,-0.595,-1.3038,-5.88,9.723712727204774,-22.31270381017604,-0.07907506602838214,2.952999999994063
-0.3954,0.9503,0.1602,0.1847,0.2546,0.3122,-0.595,-1.3038,-5.88,9.694369446858188,-22.311339959714722,-0.0777918497683563,2.962999999988824
-0.3963,0.9503,0.1602,0.1847,0.2546,0.3122,-0.175,-1.2775,-5.8975,9.674667339567346,-22.323611678054732,-0.0762610956699716,2.9729999999981374
-0.3971,0.9504,0.1638,0.1864,0.2562,0.3186,-0.315,-1.4262,-5.8538,9.679265297823259,-22.338578995416285,-0.07585813191256012,2.977999999988242
-0.3992,0.9478,0.1656,0.1864,0.2562,0.3186,-0.315,-1.4262,-6.1512,9.689486944304774,-22.416284949523433,-0.0758188449941044,2.9879999999975553
-0.3989,0.9511,0.1656,0.1864,0.2562,0.3186,-0.35,-1.6975,-6.1512,9.691565032272969,-22.42974260947235,-0.07676323874574902,2.993000000002212
-0.3962,0.9496,0.1605,0.1863,0.2548,0.3114,-0.0875,-1.4875,-5.8362,9.670466499656017,-22.412262504164758,-0.07732177075759679,3.002999999996973
-0.3962,0.9496,0.1605,0.1863,0.2548,0.3114,-0.4638,-1.8288,-5.8713,9.663294027918708,-22.398341317988738,-0.081253587447556,3.0129999999917345
-0.398,0.9521,0.1626,0.1874,0.2542,0.3141,-0.4638,-1.8288,-5.8713,9.665918165678045,-22.397272029765187,-0.08279356876842467,3.017999999981839
-0.3992,0.95,0.1634,0.1874,0.2542,0.3141,-0.3588,-1.8463,-5.6087,9.666142591172376,-22.40783037204738,-0.08684391748528368,3.0279999999911524
-0.4011,0.9497,0.1633,0.1874,0.2542,0.3141,-0.0962,-1.5488,-5.775,9.685081073135319,-22.450327084959426,-0.08790851270941819,3.0379999999859137
-0.3964,0.9507,0.1662,0.1854,0.2554,0.3177,-0.5775,-1.9863,-5.8975,9.726173421999512,-22.415206666446704,-0.09016156978524104,3.0429999999905704
-0.3977,0.9503,0.1641,0.1854,0.2554,0.3177,-0.5775,-1.9863,-5.8975,9.738830224549337,-22.414001191311346,-0.09239209629030566,3.047999999995227
-0.3977,0.9503,0.1641,0.1865,0.2546,0.3151,-0.56,-1.7763,-6.2125,9.74853394842651,-22.41276284143395,-0.09774610192715899,3.062999999994645
-0.3972,0.9514,0.1663,0.1865,0.2546,0.3151,-0.2013,-1.3388,-5.6962,9.771462688573099,-22.402865202006748,-0.09669565810781944,3.0679999999993015
-0.395,0.9501,0.163,0.1865,0.2546,0.3151,-0.2013,-1.47,-5.6438,9.766428035748994,-22.386619657801283,-0.09688161592613725,3.077999999994063
-0.3969,0.9493,0.1635,0.1851,0.2547,0.3113,-0.2013,-1.47,-5.6438,9.767237688060002,-22.387499890743143,-0.09648925696573504,3.0829999999841675
-0.3964,0.9478,0.1654,0.1851,0.2547,0.3113,-0.28,-1.82,-5.7225,9.777131701001826,-22.38833676204408,-0.10014227880037846,3.0929999999934807
-0.3964,0.9478,0.1654,0.1854,0.2553,0.3114,-0.5688,-1.4612,-5.81,9.798076255421085,-22.38920732179557,-0.09967375321132005,3.0979999999835854
-0.4,0.9486,0.1658,0.1854,0.2553,0.3114,-0.3588,-1.6275,-5.7925,9.798355168368806,-22.428266955134536,-0.10138918008173274,3.1079999999928987
-0.398,0.949,0.1645,0.1854,0.2544,0.3149,-0.3588,-1.6275,-5.7925,9.798440650740572,-22.433730570704938,-0.10173137048217835,3.1129999999975553
-0.3965,0.9512,0.1629,0.1868,0.2544,0.3149,-0.4375,-1.5662,-6.0113,9.792742061950104,-22.400127544559563,-0.10281935117625367,3.1229999999923166
-0.3961,0.9501,0.1649,0.1868,0.2544,0.3149,-0.2713,-1.365,-5.705,9.797152612336268,-22.387843125601183,-0.10190457206459676,3.13300000000163
-0.3983,0.9498,0.1621,0.1866,0.2539,0.3118,-0.0787,-1.365,-5.9412,9.772494742381618,-22.409991609714922,-0.10094223354383856,3.1379999999917345
-0.3983,0.9498,0.1621,0.1866,0.2539,0.3118,-0.0787,-1.365,-5.9412,9.753268437999148,-22.425241080672667,-0.10004622560834076,3.147999999986496
-0.3969,0.9507,0.1667,0.1886,0.2562,0.314,-0.2887,-1.19,-5.88,9.766257204704198,-22.404890301370305,-0.0982362205515034,3.1529999999911524
-0.3969,0.9501,0.1617,0.1886,0.2562,0.314,-0.14,-1.2687,-5.9412,9.746787334068772,-22.39807999568033,-0.0962459116270053,3.1649999999790452
-0.3967,0.9519,0.1637,0.1886,0.2562,0.314,-0.14,-1.2687,-5.8012,9.748784771761859,-22.381578632857337,-0.09461148802937605,3.172999999995227
-0.3986,0.9507,0.1609,0.1862,0.2562,0.3073,-0.0437,-1.4525,-5.8012,9.714356948217764,-22.400193292735022,-0.09444910466781635,3.180999999982305
-0.3986,0.9507,0.1609,0.1862,0.2562,0.3073,-0.28,-1.4875,-5.95,9.70621288976861,-22.419000151273288,-0.09430031226226519,3.186999999990803
-0.3964,0.9499,0.1653,0.1867,0.257,0.315,-0.4988,-1.715,-6.1863,9.726224066559597,-22.390221521563166,-0.09693572353776793,3.1969999999855645
-0.3965,0.9477,0.1622,0.1867,0.257,0.315,-0.4988,-1.715,-6.1863,9.724520558794628,-22.398560655946188,-0.09775557350405657,3.201999999990221
-0.398,0.9517,0.1671,0.1867,0.257,0.315,-0.9363,-1.6712,-5.8187,9.809956392994486,-22.39561086524954,-0.09992281216736855,3.2119999999849824
-0.3944,0.9509,0.1581,0.1858,0.2548,0.3191,-0.2537,-1.54,-5.635,9.774029492536854,-22.377271899625516,-0.100769498447414,3.2219999999942956
-0.398,0.951,0.1601,0.1858,0.2548,0.3191,0.1663,-1.5225,-5.6875,9.69876587039588,-22.385335081679763,-0.10059813566371875,3.2269999999989523
-0.398,0.951,0.1601,0.1873,0.2561,0.3132,0.1663,-1.5225,-5.6875,9.649493675806283,-22.392061631098926,-0.10126481870620531,3.2369999999937136
-0.395,0.9506,0.1621,0.1873,0.2561,0.3132,-0.5163,-1.7325,-5.5037,9.65321589095794,-22.390337554970277,-0.10400383492263726,3.247000000003027
-0.3991,0.9509,0.1637,0.1873,0.2561,0.3132,-0.4288,-1.6013,-5.95,9.660475581756407,-22.415836315787555,-0.10419018877098378,3.2519999999931315
-0.3942,0.9484,0.1635,0.1853,0.2538,0.3187,-0.14,-1.5488,-5.8362,9.682378773288868,-22.379333128807634,-0.10508132128226129,3.261999999987893
-0.3967,0.9492,0.1611,0.1853,0.2538,0.3187,-0.14,-1.5488,-5.8362,9.673354082970542,-22.382998304084733,-0.10499702527033881,3.2669999999925494
-0.3967,0.9492,0.1639,0.1868,0.2546,0.3145,-0.2975,-1.4,-5.8362,9.680744934474673,-22.38316591694383,-0.10440696941739448,3.2769999999873107
-0.3984,0.9511,0.1639,0.1868,0.2546,0.3145,-0.84,-1.5662,-5.775,9.712092762416365,-22.39376133808125,-0.10441554692420088,3.2819999999919673
-0.3976,0.948,0.1655,0.185,0.2547,0.3158,-0.6037,-1.5488,-6.1075,9.749309841997043,-22.414676217993794,-0.10530442585394621,3.2919999999867287
-0.3973,0.9495,0.1657,0.185,0.2547,0.3158,-0.6037,-1.5488,-6.1075,9.778556330469012,-22.409643731554542,-0.10521789879630689,3.2969999999913853
-0.3953,0.9498,0.1627,0.185,0.2547,0.3158,-0.6125,-1.7062,-6.1687,9.766872718625988,-22.367012642257908,-0.10765701421159533,3.3070000000006985
-0.3992,0.9491,0.1609,0.1847,0.2553,0.3189,-0.455,-1.435,-6.0025,9.754434114209323,-22.420085126424016,-0.10738685846905692,3.31699999999546
-0.3992,0.9491,0.1609,0.1847,0.2553,0.3189,-0.7613,-1.575,-6.0813,9.71653707353386,-22.458523491974724,-0.10740919708538726,3.3220000000001164
-0.3963,0.9522,0.1649,0.1864,0.2558,0.312,-0.7613,-1.575,-6.0813,9.747508205389616,-22.398816774744283,-0.10852751951019446,3.331999999980326
-0.3965,0.9509,0.1595,0.1864,0.2558,0.312,-0.3413,-1.5575,-5.9675,9.743104971080108,-22.38426323790278,-0.10845182651603276,3.3369999999849824
-0.4005,0.9503,0.1646,0.1864,0.2558,0.312,-0.2625,-1.575,-6.055,9.750607701800071,-22.444645887465345,-0.10955972265291428,3.3469999999942956
-0.3993,0.9504,0.1641,0.1853,0.255,0.3134,-0.2625,-1.575,-6.0988,9.754715921028012,-22.461897604727618,-0.1106565398252366,3.356999999989057
-0.3993,0.9504,0.1622,0.1853,0.255,0.3134,-0.8487,-1.4525,-6.0988,9.731891593818712,-22.475170902305624,-0.11003980662744042,3.3619999999937136
-0.3967,0.9517,0.1622,0.1865,0.2545,0.3152,-0.6913,-1.6975,-5.9062,9.717051025715998,-22.43481969531972,-0.11234457295938215,3.371999999988475
-0.3964,0.9493,0.1621,0.1865,0.2545,0.3152,-0.595,-1.6275,-5.8888,9.711966203120285,-22.41707213038833,-0.11257720943105128,3.3769999999931315
-0.3999,0.9494,0.1646,0.1865,0.2545,0.3152,-0.595,-1.6275,-5.8888,9.735422394148976,-22.45206207873103,-0.11416360173926665,3.3870000000024447
-0.3963,0.9509,0.1645,0.1852,0.2577,0.3114,-0.28,-1.4088,-5.915,9.741375848520654,-22.41443814308549,-0.11356900012079137,3.396999999982654
-0.3991,0.9515,0.165,0.1852,0.2577,0.3114,0.0,-1.365,-5.81,9.766976280909974,-22.424078950449065,-0.11249001731963626,3.4019999999873107
-0.3991,0.9515,0.165,0.1848,0.2549,0.317,-0.35,-1.6187,-5.9675,9.767761770524045,-22.433795539553483,-0.11399016154888465,3.411999999996624
-0.3969,0.9484,0.1648,0.1848,0.2549,0.317,-0.35,-1.6187,-5.9675,9.768757963427694,-22.42516089707307,-0.11547530433202062,3.4219999999913853
-0.3968,0.9506,0.1618,0.1848,0.2549,0.317,-0.63,-1.6275,-5.8713,9.745642200239464,-22.409146792877333,-0.11567663348996336,3.426999999996042
-0.3914,0.95,0.1602,0.1855,0.2562,0.314,-0.5425,-1.7237,-5.74,9.718966576495609,-22.349114508560408,-0.11818441155314398,3.436999999990803
-0.3961,0.9525,0.1584,0.1855,0.2562,0.314,-0.49,-1.4963,-5.6788,9.687346587577768,-22.34197258364425,-0.11841585183892876,3.4470000000001164
-0.3961,0.9499,0.1672,0.1845,0.2567,0.3146,-0.49,-1.4963,-5.6788,9.721063954328866,-22.339561324629777,-0.11793833552119758,3.452000000004773
-0.394,0.9499,0.1672,0.1845,0.2567,0.3146,-0.2537,-1.54,-5.6962,9.746476703713778,-22.31903045160628,-0.11860486656233242,3.4619999999849824
-0.3967,0.9511,0.159,0.187,0.2541,0.3215,-0.2013,-1.47,-5.7838,9.7112079033644,-22.328734633587185,-0.11799527509724596,3.466999999989639
-0.3941,0.9511,0.1678,0.187,0.2541,0.3215,-0.3063,-1.5313,-5.845,9.72652941342604,-22.294506687255073,-0.1185751067453516,3.4769999999844003
-0.3965,0.9499,0.1626,0.187,0.2541,0.3215,-0.3063,-1.5313,-5.845,9.725852024006379,-22.312666802145685,-0.11826924787871755,3.481999999989057
-0.3941,0.9507,0.1646,0.1862,0.2542,0.3193,-0.2975,-1.5225,-6.265,9.731644242239376,-22.271316621639382,-0.11875921980148817,3.49199999999837
-0.3941,0.9507,0.1646,0.1862,0.2542,0.3193,-0.1925,-1.5313,-5.6788,9.7447688163474,-22.262810648180338,-0.11845151980173192,3.496999999988475
-0.3989,0.949,0.1598,0.1862,0.2556,0.3184,-0.4375,-1.3563,-5.5912,9.731546902395904,-22.28615401241583,-0.11729428900374002,3.506999999997788
-0.3967,0.9504,0.1664,0.1862,0.2556,0.3184,-0.4375,-1.3563,-5.5912,9.7456798137797,-22.292081813350002,-0.11614863051368833,3.5169999999925494
-0.3966,0.9496,0.1611,0.1862,0.2556,0.3184,-0.63,-1.7062,-5.7488,9.720871242877077,-22.310265165544152,-0.1167327914101772,3.521999999997206
-0.3965,0.9513,0.1623,0.1863,0.2562,0.3214,-0.42,-1.3563,-5.8187,9.718709175526365,-22.31661679883259,-0.11559274789606114,3.5319999999919673
-0.3965,0.9498,0.1618,0.1863,0.2562,0.3214,-0.42,-1.3563,-6.16,9.715872639131304,-22.337466138191957,-0.11445046261707352,3.536999999982072
-0.3963,0.9498,0.1618,0.1861,0.2546,0.3145,-0.5337,-1.4,-6.16,9.708774835892088,-22.345856458208758,-0.11376587239133111,3.5469999999913853
-0.3967,0.9512,0.1615,0.1861,0.2546,0.3145,-0.8487,-1.5488,-6.02,9.684957933699192,-22.347602523347447,-0.11456124806640515,3.5569999999861466
-0.3951,0.9516,0.1604,0.1861,0.2546,0.3145,-0.3588,-1.2513,-5.7925,9.684676464055231,-22.328400165561078,-0.11290952778526975,3.561999999990803
-0.3953,0.9503,0.1601,0.1868,0.2552,0.3128,-0.3588,-1.2513,-5.7925,9.684384285007452,-22.322509014898838,-0.11076821690647434,3.5720000000001164
-0.3963,0.9507,0.1652,0.1868,0.2552,0.3128,-0.385,-1.4612,-6.0287,9.68841140574326,-22.324356779457815,-0.11019343193635496,3.576999999990221
-0.3963,0.9507,0.1652,0.1885,0.2536,0.309,-0.5775,-1.0762,-5.7488,9.718510241888493,-22.325063001585395,-0.10634579201443428,3.5869999999995343
-0.3998,0.9488,0.1624,0.1885,0.2536,0.309,-0.7175,-1.6888,-5.6962,9.717017587791082,-22.364525111094846,-0.10860136848772137,3.5969999999797437
-0.3963,0.9494,0.1669,0.1885,0.2536,0.309,-0.7175,-1.6888,-5.6962,9.783593170253562,-22.361757029169254,-0.1091748720043897,3.6019999999844003
-0.3985,0.9496,0.1609,0.1857,0.253,0.3144,-0.4375,-1.89,-5.9412,9.771773222816622,-22.397801421298336,-0.11339403768929197,3.6119999999937136
-0.398,0.952,0.1617,0.1857,0.253,0.3144,-0.1838,-1.5838,-5.9062,9.751896450937775,-22.39835907020178,-0.11453963171120486,3.621999999988475
-0.3969,0.9502,0.1638,0.1851,0.2572,0.3093,-0.0525,-1.47,-5.6962,9.758712449407115,-22.39409659155501,-0.11397069259462968,3.6269999999931315
-0.3969,0.9502,0.1638,0.1851,0.2572,0.3093,-0.0525,-1.47,-5.6962,9.763920642279423,-22.390566325409477,-0.11398390006807939,3.636999999987893
-0.3964,0.951,0.1598,0.1854,0.2546,0.3105,-0.245,-1.3475,-6.0813,9.740453484288802,-22.373865900908825,-0.11281414326737073,3.6419999999925494
-0.3972,0.9502,0.1668,0.1854,0.2546,0.3105,-0.4638,-1.6538,-6.4138,9.760544225187155,-22.375868057023546,-0.1146585362374654,3.6520000000018626
-0.4,0.9494,0.1631,0.1854,0.2546,0.3105,-0.595,-1.2513,-6.2387,9.758137901239335,-22.45048222649241,-0.11300584307609236,3.6569999999919673
-0.3985,0.9489,0.1657,0.1862,0.2564,0.3253,-0.595,-1.2513,-6.2387,9.786023701842193,-22.460933091831105,-0.11086356904586171,3.6669999999867287
-0.3985,0.9489,0.1657,0.1862,0.2564,0.3253,-0.5075,-1.295,-5.845,9.801245975299787,-22.46459343894573,-0.10917534775570673,3.67699999998149
-0.3955,0.9507,0.1607,0.1864,0.2522,0.314,-0.7175,-1.33,-5.8275,9.746857650087037,-22.423701281342552,-0.10796705147804112,3.6819999999861466
-0.3961,0.9515,0.1649,0.1864,0.2522,0.314,-0.2187,-1.6625,-5.5738,9.75747823904146,-22.414186062969293,-0.1099460453661093,3.69199999999546
-0.3959,0.9492,0.1616,0.1864,0.2522,0.314,-0.2187,-1.6625,-5.5738,9.745555353443903,-22.4092420035509,-0.11037591711387251,3.6970000000001164
-0.398,0.9519,0.1623,0.1864,0.2542,0.3064,-0.4112,-1.6538,-5.53,9.742241142842516,-22.408862426989536,-0.11224469234117657,3.7069999999948777
-0.3967,0.9495,0.1664,0.1864,0.2542,0.3064,-0.0875,-1.61,-5.6875,9.784769909963664,-22.40217051438563,-0.11239170261894708,3.7119999999995343
-0.3967,0.9495,0.1664,0.1867,0.2546,0.3165,-0.0875,-1.61,-6.0113,9.818159666886682,-22.390612985438214,-0.11380669999142755,3.7219999999942956
-0.3981,0.9495,0.1605,0.1867,0.2546,0.3165,-0.2713,-1.4963,-6.0113,9.799699445678414,-22.414640718468497,-0.1140819173907729,3.731999999989057
-0.3985,0.9502,0.1619,0.1867,0.2546,0.3165,-0.2625,-1.5137,-6.0637,9.788001830898954,-22.43175816812781,-0.1137338704176035,3.7369999999937136
-0.3975,0.95,0.1614,0.1855,0.2558,0.3169,-0.2362,-1.4963,-5.9763,9.771798985802585,-22.426802676558335,-0.11400981611268708,3.746999999988475
-0.3954,0.9506,0.162,0.1855,0.2558,0.3169,-0.2362,-1.4963,-5.9763,9.760638394627366,-22.383738798933663,-0.11428300235287643,3.756999999997788
-0.3954,0.9506,0.162,0.1877,0.255,0.3122,0.3413,-1.12,-5.635,9.723798819167015,-22.372470911800878,-0.11198412953163554,3.761999999987893
-0.3946,0.9515,0.163,0.1877,0.255,0.3122,0.4288,-1.5225,-5.565,9.722516368259877,-22.36257594846785,-0.11253695263787698,3.771999999997206
-0.3978,0.9492,0.1646,0.1877,0.255,0.3158,-0.2537,-1.61,-5.7137,9.733705456425659,-22.376252830009584,-0.11395049751016814,3.7819999999919673
-0.3943,0.9503,0.1602,0.1867,0.255,0.3158,-0.2537,-1.61,-5.7137,9.717703694283315,-22.35341178137114,-0.11408044973624874,3.786999999996624
-0.399,0.9517,0.1588,0.1867,0.255,0.3158,-0.6125,-1.4875,-6.545,9.668572896910312,-22.411596302254544,-0.11426580963819152,3.7969999999913853
-0.3927,0.9506,0.1588,0.187,0.2531,0.3125,-0.6212,-1.505,-6.3525,9.63045087410746,-22.2991639768396,-0.11387285874032589,3.80199999998149
-0.3927,0.9506,0.1588,0.187,0.2531,0.3125,-0.315,-1.2513,-5.9237,9.623974910003707,-22.259709346683433,-0.11172191455197993,3.811999999990803
-0.3968,0.9507,0.1609,0.1875,0.2539,0.3079,-0.315,-1.2513,-5.9237,9.623177724849153,-22.292643094225863,-0.1095924798069904,3.8219999999855645
-0.396,0.9518,0.1654,0.1875,0.2539,0.3079,-0.175,-1.61,-5.95,9.660068491043818,-22.29156967057877,-0.10976601221010278,3.826999999990221
-0.3973,0.9504,0.1629,0.1875,0.2539,0.3079,-0.2187,-1.5838,-6.02,9.66830130382726,-22.326734919693592,-0.11094788649012473,3.8369999999995343
-0.3966,0.9503,0.1657,0.1866,0.2529,0.3262,-0.4025,-1.6363,-5.7838,9.677132336083327,-22.33191150794026,-0.1112380498224535,3.841999999989639
-0.3966,0.9503,0.1657,0.1866,0.2529,0.3262,-0.4025,-1.6363,-5.7838,9.685613169293642,-22.33590884251425,-0.112924953726836,3.8519999999989523
-0.3962,0.9489,0.1633,0.1848,0.255,0.3149,-0.2275,-1.5838,-6.0637,9.694930174951061,-22.347089765001748,-0.11293547139062914,3.857000000003609
-0.3976,0.9518,0.1621,0.1848,0.255,0.3149,-0.105,-1.68,-5.6962,9.688875867140053,-22.35310773880974,-0.11503803107032669,3.8669999999838183
-0.3964,0.9495,0.1619,0.1848,0.255,0.3149,0.14,-1.4262,-5.6438,9.6847396969249,-22.355278268826247,-0.11460694516029331,3.8769999999931315
-0.3961,0.9498,0.1625,0.1847,0.2551,0.3197,0.14,-1.4262,-5.6438,9.692725101150032,-22.35399551867672,-0.1138205229079786,3.881999999983236
-0.3975,0.9514,0.166,0.1847,0.2551,0.3197,-0.1225,-1.855,-5.8975,9.73215161183693,-22.359057672493062,-0.11764673208352228,3.8919999999925494
-0.3975,0.9514,0.166,0.1862,0.2545,0.3138,-0.385,-1.5662,-5.81,9.735990100276993,-22.362068856386465,-0.11857555916158416,3.9019999999873107
-0.3975,0.9501,0.161,0.1862,0.2545,0.3138,-0.385,-1.5662,-5.3725,9.733241976883322,-22.367684429091838,-0.11844245077094867,3.9069999999919673
-0.3973,0.9512,0.164,0.1862,0.2545,0.3138,-0.4988,-1.4175,-5.3725,9.739188538968493,-22.36819120499203,-0.11789119066382886,3.9170000000012806
-0.3974,0.9494,0.1603,0.1873,0.2558,0.3178,-0.3237,-1.4262,-5.8012,9.733564949682476,-22.382384172950946,-0.1170719259564788,3.9219999999913853
-0.3961,0.9508,0.1655,0.1873,0.2558,0.3178,0.0263,-1.4787,-5.8888,9.772841633182782,-22.362985512890877,-0.11714025109626491,3.9319999999861466
-0.3961,0.9508,0.164,0.1843,0.2562,0.3062,0.0263,-1.4787,-5.8888,9.776640238035677,-22.350655650582,-0.11658837078587923,3.936999999990803
-0.3955,0.9493,0.164,0.1843,0.2562,0.3062,-0.2275,-1.7062,-6.2737,9.779584750643552,-22.337253708566934,-0.11891378147619146,3.9469999999855645
-0.4006,0.9511,0.1621,0.1843,0.2542,0.3148,-0.4462,-1.3563,-5.9325,9.771174680389452,-22.402232024332147,-0.11773828586144224,3.951999999990221
-0.3975,0.9499,0.1663,0.1854,0.2542,0.3148,-0.3063,-1.155,-6.1687,9.779451598861977,-22.401836943293716,-0.11459531740385752,3.9619999999849824
-0.3994,0.9498,0.1619,0.1854,0.2542,0.3148,-0.3063,-1.155,-6.1687,9.773936319315215,-22.44783886717945,-0.11148377862798835,3.9719999999942956
-0.3968,0.9501,0.1667,0.1852,0.2566,0.317,-0.42,-1.365,-5.88,9.78379893349805,-22.423176696874414,-0.11042564804176126,3.9769999999989523
-0.3968,0.9501,0.1667,0.1852,0.2566,0.317,-0.2975,-1.4,-5.5125,9.793845821479584,-22.421716619224064,-0.10978130596110271,3.9869999999937136
-0.3954,0.9498,0.1642,0.1872,0.2561,0.312,-0.1312,-1.3388,-6.0462,9.796541626580893,-22.37961703254148,-0.10853752730156814,3.996999999988475
-0.3961,0.9504,0.1647,0.1872,0.2561,0.312,-0.1312,-1.3388,-6.0462,9.803070671516904,-22.360272549790768,-0.10737916922848449,4.0019999999931315
-0.3969,0.9505,0.1645,0.1872,0.2561,0.312,-0.2713,-1.505,-5.9237,9.80436306806707,-22.36166707843333,-0.10780479193541415,4.011999999987893
-0.398,0.9514,0.1617,0.187,0.2552,0.3215,-0.35,-1.2425,-6.3175,9.802605980156175,-22.384506621062826,-0.10617707621554807,4.016999999992549
-0.398,0.9514,0.1603,0.187,0.2552,0.3215,-0.5688,-1.3125,-6.0637,9.761563444337206,-22.396352128735295,-0.10470896985360545,4.026999999987311
-0.3967,0.9499,0.1603,0.1861,0.2543,0.3142,-0.5688,-1.3125,-6.0637,9.730124519035456,-22.391070871855995,-0.10345871235488018,4.031999999991967
-0.4008,0.95,0.1617,0.1861,0.2543,0.3142,-0.35,-1.5313,-5.7575,9.72934477624502,-22.43173311215633,-0.10418390963297029,4.042000000001281
-0.3966,0.9503,0.1669,0.1861,0.2543,0.3142,-0.4638,-1.2775,-5.8888,9.750917838783936,-22.406991349448475,-0.10238923493703497,4.051999999996042
-0.396,0.9519,0.1618,0.1838,0.2562,0.3122,-0.4638,-1.5575,-5.81,9.741220660518973,-22.380952663103237,-0.10237492478860487,4.0570000000006985
-0.393,0.9524,0.1628,0.1838,0.2562,0.3122,-0.4638,-1.5575,-5.81,9.737403075898138,-22.32082860147554,-0.10337033993672277,4.066999999980908
-0.393,0.9524,0.1628,0.1862,0.2547,0.3159,-0.4462,-1.6975,-5.7663,9.734488152371775,-22.280168020197596,-0.1040392187389412,4.0719999999855645
-0.3956,0.9497,0.1604,0.1862,0.2547,0.3159,-0.7175,-1.19,-5.9588,9.695618831486476,-22.296004402122154,-0.10137974095004389,4.081999999994878
-0.3982,0.9509,0.164,0.1862,0.2547,0.3159,-0.7175,-1.19,-5.9763,9.719212837401038,-22.338086196668026,-0.09874685794139164,4.091999999989639
-0.3981,0.9516,0.1609,0.1854,0.2562,0.3153,-0.3237,-1.4438,-5.9763,9.714795045695721,-22.36355983176681,-0.0982061565623938,4.096999999994296
-0.395,0.9496,0.1667,0.1854,0.2562,0.3153,-0.2362,-1.19,-6.0113,9.74167309776138,-22.334504132780044,-0.09560500939761805,4.106999999989057
-0.395,0.9496,0.1606,0.186,0.2562,0.3153,-0.2537,-1.1463,-5.8012,9.72784773871044,-22.326413071642385,-0.09362310150268648,4.111999999993714
-0.3963,0.9484,0.1606,0.186,0.2562,0.3153,-0.2537,-1.1463,-5.8012,9.71652145288009,-22.34190236470921,-0.09063515488574879,4.122000000003027
-0.3963,0.9515,0.1676,0.1858,0.2552,0.3172,-0.3938,-1.3825,-5.7838,9.725146409512188,-22.332979131669287,-0.09001546773632398,4.131999999983236
-0.397,0.9487,0.1624,0.1858,0.2552,0.3172,-0.3938,-1.015,-5.7663,9.724789294271414,-22.350702118088844,-0.08743952025740002,4.136999999987893
-0.3969,0.9512,0.1671,0.1858,0.2552,0.3172,-0.63,-1.3212,-6.125,9.775390993614694,-22.346987881866227,-0.08624491945499377,4.146999999982654
-0.3975,0.9486,0.1591,0.1865,0.2545,0.3108,-0.63,-1.3212,-6.125,9.721515381796355,-22.38846382597064,-0.08522236746029471,4.151999999987311
-0.3975,0.9486,0.1591,0.1865,0.2545,0.3108,-0.6037,-1.3825,-5.9675,9.68239712292551,-22.409568822220276,-0.08465680818595873,4.161999999996624
-0.3958,0.9504,0.1676,0.1864,0.2526,0.3118,-0.28,-1.4787,-5.8713,9.70633427606739,-22.379226996618705,-0.08504928450345005,4.171999999991385
-0.3997,0.9506,0.1627,0.1864,0.2526,0.3118,-0.3675,-1.4088,-5.705,9.706371922507678,-22.40270672872224,-0.08447230885867027,4.176999999996042
-0.3926,0.9521,0.1608,0.1864,0.2526,0.3118,-0.3675,-1.4088,-5.705,9.705620485935965,-22.35357699801631,-0.08417462016979699,4.186999999990803
-0.3978,0.9486,0.1614,0.1861,0.255,0.3187,-0.595,-1.3475,-5.8012,9.69624554988576,-22.379115160502252,-0.08327303836813037,4.1969999999855645
-0.3978,0.9507,0.168,0.1861,0.255,0.3187,-0.5425,-1.6187,-5.67,9.746145094872418,-22.381374254011195,-0.08401533462667991,4.202999999994063
-0.3949,0.9507,0.168,0.1845,0.2544,0.3148,-0.0437,-1.435,-5.8713,9.81247599991956,-22.344073402735862,-0.08390095423968084,4.211999999984982
-0.3975,0.9511,0.1588,0.1845,0.2544,0.3148,-0.0437,-1.435,-5.8713,9.732094149170102,-22.360366200484517,-0.08370707621858896,4.220000000001164
-0.3972,0.9509,0.1617,0.1845,0.2544,0.3148,-0.2975,-1.12,-5.8275,9.727225183449535,-22.365780972468567,-0.08148275409780271,4.225999999995111
-0.3978,0.9481,0.1664,0.1841,0.2554,0.3154,-0.0525,-0.9538,-5.81,9.780844656539813,-22.387063234490313,-0.07671046095889787,4.235999999989872
-0.4002,0.9504,0.165,0.1841,0.2554,0.3154,-0.315,-1.19,-5.915,9.78385546077879,-22.43054897629798,-0.074324270747801,4.245999999999185
-0.4002,0.9504,0.165,0.1866,0.2558,0.3158,-0.315,-1.19,-5.915,9.786733289199914,-22.46103939622749,-0.07277148524192512,4.25099999998929
-0.3967,0.9495,0.1604,0.1866,0.2558,0.3158,-0.385,-1.5662,-6.0462,9.782126498681427,-22.435541605869926,-0.07309641758742261,4.2559999999793945
-0.3997,0.9514,0.1647,0.1866,0.2558,0.3158,-0.595,-1.6888,-6.1863,9.789554201272143,-22.456945472271055,-0.07568448781463948,4.265999999988708
-0.395,0.9504,0.1619,0.187,0.2554,0.3108,-0.595,-1.6888,-5.9675,9.76642541755255,-22.399505215645767,-0.07824667733958417,4.275999999998021
-0.3966,0.95,0.1656,0.187,0.2554,0.3108,-0.3063,-1.96,-5.9675,9.772763867748084,-22.385418745974402,-0.08046616776024727,4.280999999988126
-0.3966,0.9506,0.1655,0.1861,0.2551,0.3209,-0.5512,-1.6538,-5.915,9.789284044888024,-22.373042122892667,-0.08263404048541319,4.290999999997439
-0.3949,0.9506,0.1655,0.1861,0.2551,0.3209,-0.3762,-1.6538,-5.8187,9.790568451679661,-22.34440276635809,-0.08329396727761763,4.295999999987544
-0.3992,0.9529,0.1634,0.1854,0.254,0.3138,-0.3762,-1.6538,-5.8187,9.789677437480027,-22.367120167940385,-0.08543356200760985,4.305999999996857
-0.395,0.9483,0.1654,0.1854,0.254,0.3138,-0.4462,-1.4088,-5.8187,9.797837997161132,-22.353026482633595,-0.08512626078804321,4.31600000000617
-0.3977,0.9514,0.1626,0.1854,0.254,0.3138,-0.6562,-1.4088,-6.1075,9.775207360319058,-22.368565589374228,-0.08454851537882542,4.320999999981723
-0.3976,0.9523,0.1623,0.1846,0.2566,0.3114,-0.42,-1.6712,-5.8538,9.769474218223179,-22.36925055385216,-0.08684782462796597,4.330999999991036
-0.3976,0.9523,0.1623,0.1846,0.2566,0.3114,-0.42,-1.6712,-5.8538,9.764059427895061,-22.3697523556543,-0.08755174358315072,4.335999999995693
-0.3987,0.9496,0.1599,0.1854,0.2554,0.3153,-0.0088,-1.6625,-5.6613,9.710412349905214,-22.387610999630564,-0.08973489054571687,4.345999999990454
-0.3992,0.9517,0.1657,0.1854,0.2554,0.3153,0.2713,-1.4875,-5.88,9.774851946259089,-22.405864772465097,-0.09016370604149479,4.355999999999767
-0.3959,0.9491,0.159,0.1854,0.2554,0.3153,-0.665,-1.8813,-5.7488,9.713205745930527,-22.39685721230548,-0.09187446117590976,4.360999999989872
-0.397,0.9508,0.1601,0.187,0.2554,0.3186,-0.665,-1.8813,-5.7488,9.67705590879815,-22.3932247032615,-0.09618050096901662,4.370999999999185
-0.395,0.9492,0.1623,0.187,0.2554,0.3186,-0.42,-1.3825,-5.8625,9.678493675135115,-22.368624665328646,-0.09550536035917628,4.380999999993946
-0.395,0.9492,0.1623,0.1854,0.2545,0.3146,-0.4375,-1.2513,-5.6,9.680227147277183,-22.362036738644935,-0.09455030675558453,4.380999999993946
-0.3996,0.9487,0.1621,0.1854,0.2545,0.3146,-0.8662,-1.3913,-5.88,9.685596547044335,-22.4142670096409,-0.09397858808783285,4.390999999988708
-0.3975,0.95,0.1618,0.1854,0.2545,0.3146,-0.8662,-1.3913,-5.88,9.678896732824102,-22.414538320836826,-0.09322569440712858,4.395999999993364
-0.3986,0.9498,0.1607,0.1873,0.2554,0.3055,-0.1225,-1.3563,-6.0725,9.664295796994052,-22.438337552222052,-0.0923343640630557,4.410999999992782
-0.397,0.9515,0.167,0.1873,0.2554,0.3055,-0.8662,-1.3825,-6.1512,9.761748277540962,-22.399322138062473,-0.09169768482227497,4.420999999987544
-0.397,0.9515,0.167,0.1858,0.2543,0.3158,-0.9187,-1.3825,-5.9763,9.83082327142794,-22.380018775142805,-0.0910673723743192,4.430999999996857
-0.397,0.9481,0.1621,0.1858,0.2543,0.3158,-0.9187,-1.3825,-5.9763,9.78480099132674,-22.395758826564464,-0.09030003085070949,4.436000000001513
-0.3994,0.9498,0.1646,0.1858,0.2567,0.3196,-0.5163,-1.6888,-5.67,9.791096709381366,-22.4126526521488,-0.09271606494046367,4.445999999996275
-0.3969,0.9487,0.1638,0.1856,0.2567,0.3196,-0.1925,-1.4175,-5.9237,9.791798276458067,-22.410182688715008,-0.0921054864904325,4.450999999986379
-0.3965,0.9508,0.1628,0.1856,0.2567,0.3196,-0.1925,-1.3038,-5.7488,9.78088606596839,-22.396608158365165,-0.09069196602578616,4.460999999981141
-0.3972,0.9503,0.1624,0.1848,0.2553,0.3148,-0.4812,-1.3038,-5.7488,9.771983202294761,-22.395591561587576,-0.08953881356529897,4.465999999985797
-0.3972,0.9503,0.1624,0.1848,0.2553,0.3148,-0.2713,-1.4088,-5.6262,9.765862829495637,-22.395119215878058,-0.08919045983015544,4.475999999995111
-0.398,0.9513,0.1607,0.1863,0.2542,0.315,-0.4638,-1.3125,-5.32,9.74933818224981,-22.398369736030943,-0.08789221963206675,4.485999999989872
-0.3964,0.95,0.1629,0.1863,0.2542,0.315,-0.4638,-1.3125,-5.32,9.747547150765213,-22.392170470485045,-0.08701329743574608,4.485999999989872
-0.3957,0.9514,0.1607,0.1863,0.2542,0.315,-0.665,-1.47,-5.4687,9.710203572938488,-22.39033055916728,-0.0878725360613215,4.50099999998929
-0.3978,0.9501,0.1633,0.1877,0.253,0.3164,-0.6125,-1.7763,-5.67,9.718701129835107,-22.395358350570675,-0.08908645290265722,4.505999999993946
-0.3978,0.9501,0.1606,0.1877,0.253,0.3164,-0.4725,-1.4963,-5.5912,9.70624172510164,-22.39881940712461,-0.08960887277494686,4.51600000000326
-0.3986,0.95,0.1606,0.1878,0.255,0.3158,-0.4725,-1.4963,-5.5912,9.695129357088918,-22.405925769044437,-0.09012606844440041,4.525999999983469
-0.3967,0.9491,0.1633,0.1878,0.255,0.3158,-0.175,-1.6187,-5.5912,9.705719800918864,-22.404246381425907,-0.09053732996117879,4.530999999988126
-0.3969,0.9514,0.1607,0.1878,0.255,0.3158,-0.1663,-1.8025,-5.7575,9.686400380197258,-22.39481561003338,-0.0918542888636367,4.535999999992782
-0.3994,0.9511,0.1665,0.1851,0.2547,0.3098,0.1838,-1.2687,-5.7663,9.772192225755115,-22.411616148303185,-0.09009579037544035,4.545999999987544
-0.3979,0.9504,0.1609,0.1851,0.2547,0.3098,0.1838,-1.2687,-5.7663,9.714590598010576,-22.41570589674306,-0.08877485467129481,4.5509999999922
-0.3979,0.9504,0.1609,0.185,0.2558,0.3166,-0.4725,-1.5225,-6.0113,9.70400605903536,-22.420763589119222,-0.08955977052613966,4.561000000001513
-0.3955,0.9525,0.162,0.185,0.2558,0.3166,-0.42,-1.61,-5.9062,9.701142127966301,-22.373857545190265,-0.09120308721954819,4.570999999996275
-0.3956,0.9492,0.1624,0.185,0.2558,0.3166,-0.4462,-1.4088,-5.7838,9.701743029897845,-22.36454921606824,-0.09056457354760743,4.576000000000931
-0.3949,0.9509,0.1601,0.1849,0.2538,0.3028,-0.4462,-1.4088,-5.7838,9.690410397287298,-22.343105242062727,-0.09020596221104873,4.585999999981141
-0.3955,0.9504,0.1616,0.1849,0.2538,0.3028,-0.8575,-1.5838,-5.8713,9.67698056320353,-22.332840462695057,-0.09158343699106122,4.595999999990454
-0.3955,0.9504,0.1612,0.187,0.2558,0.3174,-0.63,-1.9075,-6.0375,9.6662824420013,-22.323827897899076,-0.09340968482370438,4.600999999995111
-0.3973,0.9507,0.1612,0.187,0.2558,0.3174,-0.6913,-2.17,-5.95,9.655665239431945,-22.345573716761564,-0.10055850237123294,4.610999999989872
-0.3946,0.9514,0.1592,0.1875,0.2546,0.3109,-0.6913,-2.17,-5.95,9.616891479018953,-22.31477108081327,-0.10359437455128451,4.6159999999945285
-0.3951,0.9506,0.1624,0.1875,0.2546,0.3109,-0.1838,-1.7763,-5.9325,9.628628301664834,-22.303697589443146,-0.10674371520357911,4.62599999998929
-0.3968,0.9509,0.164,0.1875,0.2546,0.3109,-0.1138,-1.6187,-5.8362,9.659728605416104,-22.3164965184736,-0.10830132245398807,4.635999999998603
-0.398,0.9504,0.1633,0.1878,0.2558,0.3145,-0.1138,-1.2163,-5.6788,9.677533023674291,-22.334150895572357,-0.10653895142881549,4.64100000000326
-0.398,0.9504,0.1633,0.1878,0.2558,0.3145,-0.56,-1.2163,-5.6788,9.689466657131826,-22.348986381911768,-0.10411484631523912,4.650999999998021
-0.3989,0.9478,0.1672,0.186,0.255,0.3135,0.105,-1.2687,-5.8187,9.78964711911628,-22.389554763271818,-0.10223374225252675,4.660999999992782
-0.3981,0.9509,0.1643,0.186,0.255,0.3135,-0.0875,-1.5137,-5.9062,9.792513691033257,-22.398009244692556,-0.10279694922917086,4.670999999987544
-0.3949,0.95,0.1635,0.186,0.255,0.3135,-0.0875,-1.5137,-5.9062,9.786652630711329,-22.36237835074556,-0.10256175193761748,4.6759999999922
-0.3972,0.951,0.1665,0.1857,0.257,0.3117,-0.5512,-1.5575,-6.0375,9.809639866028478,-22.36247474395482,-0.10355529881718352,4.6859999999869615
-0.3972,0.951,0.1637,0.1857,0.257,0.3117,-0.3063,-1.4438,-5.9588,9.807413796197748,-22.36572977803131,-0.10341328022984385,4.695999999996275
-0.3944,0.9506,0.1637,0.1851,0.2534,0.3153,-0.3588,-1.3038,-5.7663,9.807326122888231,-22.338102137747114,-0.10213291462731608,4.701000000000931
-0.3978,0.9508,0.1632,0.1851,0.2534,0.3153,-0.3588,-1.3038,-5.7663,9.807163547206768,-22.353505124219172,-0.1006191198813009,4.710999999995693
-0.3966,0.9507,0.1657,0.1851,0.2534,0.3153,-0.5075,-1.4612,-5.8975,9.81734171970562,-22.349943752159394,-0.1001458258829842,4.716000000000349
-0.3949,0.9493,0.163,0.1876,0.2561,0.3116,-0.1575,-1.47,-5.6788,9.80475893044323,-22.340879900382465,-0.10029728202187266,4.725999999980559
-0.4011,0.9506,0.1636,0.1876,0.2561,0.3116,-0.2887,-1.7325,-5.915,9.802074265414525,-22.412052445286,-0.10117014140340094,4.730999999985215
-0.4011,0.9506,0.1636,0.1865,0.2537,0.3099,-0.2887,-1.7325,-5.915,9.79957109757627,-22.461955716826335,-0.10391010439286094,4.7409999999945285
-0.3949,0.9495,0.1669,0.1865,0.2537,0.3099,-0.3413,-1.6712,-5.7838,9.802886292810065,-22.419397939951605,-0.10601579774728487,4.75099999998929
-0.4004,0.9505,0.1597,0.1865,0.2537,0.3099,0.3063,-1.5838,-5.81,9.69668105606691,-22.453439567106233,-0.10609540697087351,4.755999999993946
-0.3955,0.9499,0.1657,0.186,0.2552,0.3146,0.1663,-1.8112,-5.9763,9.765195089786268,-22.403730621668252,-0.10956524729879123,4.765999999988708
-0.3989,0.9502,0.1634,0.186,0.2552,0.3146,0.1663,-1.8112,-5.9763,9.762491605179681,-22.4275866921731,-0.11073499202791312,4.770999999993364
-0.3989,0.9502,0.1656,0.1855,0.2546,0.3169,-0.175,-1.5575,-5.705,9.781905209109171,-22.4348858489038,-0.11164680650951449,4.7810000000026776
-0.3955,0.9502,0.1656,0.1855,0.2546,0.3169,-0.07,-1.6013,-5.6,9.805418645294765,-22.420982109534105,-0.11175673063842297,4.78599999997823
-0.3996,0.9508,0.1595,0.1854,0.2552,0.3153,-0.315,-1.6013,-5.5563,9.792940771722314,-22.42682191727623,-0.11309194773432307,4.795999999987544
-0.3991,0.9506,0.1664,0.1854,0.2552,0.3153,-0.315,-1.6013,-5.5563,9.798944568246736,-22.4294030929659,-0.11441381265926417,4.805999999996857
-0.3984,0.9485,0.1606,0.1854,0.2552,0.3153,-0.4725,-1.6975,-5.985,9.780039615485666,-22.451575631930258,-0.11497225672930202,4.8109999999869615
-0.3991,0.9507,0.1635,0.1861,0.2587,0.3158,-0.175,-1.61,-5.67,9.776609284151782,-22.45531785120073,-0.11636144856437354,4.820999999996275
-0.3991,0.9507,0.1635,0.1861,0.2587,0.3158,-0.175,-1.7062,-5.8625,9.773717435314365,-22.460935915816492,-0.11694348127527507,4.825999999986379
-0.3973,0.9507,0.1617,0.1865,0.255,0.3127,-0.5163,-1.7062,-5.8625,9.757480615687145,-22.441902447461693,-0.11926534086577383,4.835999999995693
-0.3966,0.9523,0.1633,0.1865,0.255,0.3127,-0.6125,-1.6363,-5.8713,9.752045606649245,-22.407311236467027,-0.1194723296584196,4.841000000000349
-0.3958,0.9496,0.1602,0.1865,0.255,0.3127,-0.7262,-1.6275,-5.8187,9.704913756262506,-22.391267365392682,-0.12098977076041459,4.850999999995111
-0.3958,0.9509,0.1631,0.1852,0.2528,0.3131,-0.7262,-1.6275,-5.8187,9.712360497064667,-22.370043379265265,-0.12113595525012667,4.855999999985215
-0.3958,0.9513,0.1634,0.1852,0.2528,0.3131,-0.7175,-1.3563,-5.95,9.721276414632381,-22.34680989622459,-0.11995188009765081,4.8659999999945285
-0.3963,0.9513,0.1634,0.1852,0.2562,0.3142,-0.3325,-1.2775,-6.1687,9.721974735256806,-22.33670294843691,-0.1179995256970687,4.87599999998929
-0.3956,0.9486,0.1634,0.1852,0.2562,0.3142,-0.4725,-1.2075,-6.02,9.727135568410358,-22.338481022844707,-0.11609661263942475,4.880999999993946
-0.3958,0.9503,0.1649,0.1852,0.2562,0.3142,-0.4725,-1.2075,-6.02,9.738857025896378,-22.32917644322811,-0.11348981091378793,4.890999999988708
-0.3971,0.9531,0.1626,0.1853,0.2559,0.3178,-0.2625,-1.3038,-5.95,9.733705952337624,-22.32889248788943,-0.11210868000442073,4.895999999993364
-0.3955,0.9514,0.1652,0.1853,0.2559,0.3178,-0.2713,-1.5575,-5.6962,9.74334507409548,-22.319249972135168,-0.11300675760625702,4.9060000000026776
-0.3955,0.9514,0.1652,0.1854,0.2554,0.3154,0.2187,-1.3212,-5.6,9.782697434545383,-22.31459723662481,-0.11155648443036219,4.915999999997439
-0.3937,0.9501,0.1582,0.1854,0.2554,0.3154,0.2187,-1.3212,-5.6,9.661872673803716,-22.306359075356276,-0.11018475510647234,4.923999999984517
-0.3988,0.9504,0.1646,0.1854,0.2554,0.315,-0.4988,-1.505,-5.74,9.681676143212327,-22.337814421524683,-0.11028243907783392,4.9320000000006985
-0.3986,0.9496,0.1595,0.1861,0.2543,0.315,-0.07,-0.9975,-5.985,9.64853097668593,-22.38743988420422,-0.1063597462116104,4.939999999987776
-0.3966,0.9518,0.1617,0.1861,0.2543,0.315,-0.385,-1.4787,-5.9763,9.648375559816284,-22.369520906329072,-0.10591567095007128,4.944999999992433
-0.3974,0.9496,0.1646,0.1855,0.2538,0.3118,-0.385,-1.4787,-5.9763,9.6526829777098,-22.382287757016346,-0.10609555864172451,4.955000000001746
-0.3974,0.9496,0.1646,0.1855,0.2538,0.3118,-0.2975,-1.505,-5.5738,9.663525565328943,-22.384339564105186,-0.10653401745452176,4.9649999999965075
-0.3969,0.9509,0.1648,0.1882,0.2536,0.3194,-0.0613,-1.3737,-6.0462,9.702449926712099,-22.374042562134225,-0.10556844948006945,4.970000000001164
-0.3944,0.9517,0.1622,0.1882,0.2536,0.3194,-0.3237,-1.6363,-5.5738,9.701352464861563,-22.36207287370681,-0.1073120493797288,4.9799999999813735
-0.3973,0.9512,0.1632,0.1882,0.2536,0.3194,-0.3237,-1.6363,-5.5738,9.702590671674411,-22.363115683797606,-0.10903821328853855,4.989999999990687
-0.3967,0.9478,0.1621,0.1858,0.255,0.3178,-0.35,-1.9512,-5.95,9.702620270385976,-22.38075002935748,-0.11090622835840838,4.994999999995343
-0.3967,0.9478,0.1621,0.1858,0.255,0.3178,-0.3413,-1.4262,-5.8362,9.702671820387042,-22.390608355476612,-0.11051646047444748,5.004999999990105
-0.3989,0.9489,0.1652,0.1858,0.2557,0.315,-0.3413,-1.3038,-5.8362,9.706054905983345,-22.41803672991067,-0.10916506306947368,5.009999999994761
-0.3945,0.9544,0.1621,0.1858,0.2557,0.315,-0.175,-1.3038,-5.8362,9.695593158168522,-22.354475520970578,-0.10758094683903693,5.019999999989523
-0.3997,0.95,0.1637,0.1858,0.2557,0.315,-0.28,-1.4088,-6.0287,9.701703974742426,-22.41257202404872,-0.10705217177115603,5.029999999998836
-0.3958,0.9506,0.1643,0.1848,0.2547,0.3076,-0.5163,-1.5488,-5.67,9.715710434757359,-22.396472822906293,-0.1069481672543446,5.0350000000034925
-0.3966,0.9499,0.1659,0.1848,0.2547,0.3076,-0.5163,-1.5488,-5.67,9.74136575107427,-22.390413303510062,-0.10781171997797556,5.044999999983702
-0.3966,0.9499,0.1659,0.1864,0.2556,0.3142,-0.455,-1.4525,-5.8362,9.75555046117647,-22.381791491116086,-0.107223434978652,5.0499999999883585
-0.3959,0.9498,0.164,0.1864,0.2556,0.3142,-0.28,-1.8463,-5.8187,9.758629622153128,-22.369002350843452,-0.1110294850263099,5.05999999998312
-0.3973,0.9509,0.1607,0.1864,0.2556,0.3142,-0.0875,-1.7587,-5.7312,9.722871278243282,-22.373166171928563,-0.11393023457978238,5.069999999992433
-0.3967,0.9511,0.1623,0.1878,0.2541,0.3163,-0.0875,-1.7587,-5.7312,9.714503686868554,-22.368674393137383,-0.11479645443585233,5.07499999999709
-0.3941,0.9507,0.1654,0.1878,0.2541,0.3163,-0.2887,-1.4963,-5.67,9.724973287476654,-22.34513001559626,-0.11506177429075344,5.084999999991851
-0.3941,0.9507,0.1654,0.1858,0.2545,0.3148,-0.3588,-1.5313,-5.8362,9.725320010098248,-22.311629800015027,-0.11479104874866537,5.0899999999965075
-0.3974,0.9525,0.162,0.1858,0.2545,0.3148,-0.5512,-1.4875,-6.0025,9.71368247254187,-22.327339187179163,-0.11496930266048398,5.099999999991269
-0.3978,0.9526,0.1642,0.1858,0.2555,0.307,-0.5512,-1.4875,-6.0025,9.724269066074084,-22.341273956915373,-0.11448269183449668,5.1049999999959255
-0.3955,0.9479,0.1615,0.1863,0.2555,0.307,-0.1312,-1.5225,-5.81,9.713937076426275,-22.34531721383776,-0.11501052931527546,5.114999999990687
-0.3947,0.9518,0.1643,0.1863,0.2555,0.307,-0.0787,-1.4,-6.0287,9.731550409934624,-22.30386899522185,-0.11524016722206916,5.144999999989523
-0.3973,0.9517,0.1625,0.185,0.255,0.3083,-0.3237,-1.5838,-5.8362,9.730035398468752,-22.320289202595106,-0.11522753275090997,5.149999999994179
-0.3973,0.9517,0.1625,0.185,0.255,0.3083,-0.3237,-1.5838,-5.8362,9.728575156305691,-22.33247569918728,-0.11635479182220668,5.1599999999889405
-0.4021,0.9528,0.1635,0.1842,0.2548,0.3123,-0.0088,-1.7587,-5.9062,9.730794445794897,-22.406655250219377,-0.11719676610585239,5.164999999993597
-0.3955,0.9518,0.1637,0.1842,0.2548,0.3123,-0.14,-1.5488,-5.8275,9.735870934780504,-22.37204773477655,-0.116991315645694,5.169999999998254
-0.3972,0.9468,0.1584,0.1842,0.2548,0.3123,-0.0787,-1.3737,-5.88,9.683395501633408,-22.40189663333065,-0.11602094688913252,5.179999999993015
-0.3965,0.9471,0.1668,0.187,0.255,0.3142,-0.0787,-1.3737,-5.88,9.75056059654027,-22.403164385385075,-0.11496050962004373,5.18499999998312
-0.3965,0.9471,0.1623,0.187,0.255,0.3142,0.14,-1.5137,-5.9675,9.741710315036494,-22.40945271297787,-0.1146036767245816,5.189999999987776
-0.4008,0.9529,0.1623,0.1864,0.2543,0.3152,0.2013,-1.8637,-6.125,9.714449023103793,-22.452758523907153,-0.11598291215968763,5.194999999992433
-0.3975,0.9523,0.1624,0.1864,0.2543,0.3152,-2.0387,-1.5137,-5.8187,9.691492094252952,-22.431163034576425,-0.11640862743726013,5.204999999987194
-0.3933,0.949,0.1581,0.1864,0.2543,0.3152,-0.1138,-1.5137,-5.8187,9.645262481329004,-22.382462460231757,-0.11603731336362585,5.209999999991851
-0.3967,0.9509,0.1631,0.1868,0.2531,0.3138,-0.5163,-0.9975,-5.6262,9.657011063664058,-22.378715188202488,-0.11311452242834821,5.2149999999965075
-0.395,0.95,0.1652,0.1868,0.2531,0.3138,-0.3413,-1.4525,-5.7137,9.661066563034364,-22.35986706442571,-0.11296304160355151,5.224999999991269
-0.395,0.95,0.1652,0.1867,0.2547,0.3143,-0.3413,-1.4525,-5.7137,9.665042905358032,-22.34447971043499,-0.11232324338797219,5.2299999999959255
-0.4027,0.9478,0.1607,0.1867,0.2547,0.3143,-0.5163,-1.54,-5.7488,9.65939980330482,-22.423790236937677,-0.11212296815495204,5.235000000000582
-0.3983,0.9501,0.1642,0.1867,0.2547,0.3143,-0.2713,-1.47,-5.6613,9.671429022135726,-22.426952958846698,-0.11215465287112082,5.2449999999807915
-0.3954,0.95,0.1649,0.1855,0.2559,0.3269,-0.2362,-1.2337,-5.7312,9.690962944691849,-22.4016920847475,-0.11043987854185713,5.249999999985448
-0.396,0.9511,0.168,0.1855,0.2559,0.3269,-0.2362,-1.2337,-5.7312,9.727219795388654,-22.380729785472496,-0.10814902415533359,5.259999999994761
-0.396,0.9511,0.1645,0.1862,0.2556,0.3154,-0.6825,-1.435,-6.265,9.747996934154685,-22.348426941876244,-0.10747074111298227,5.264999999984866
-0.3976,0.949,0.1645,0.1862,0.2556,0.3154,-0.2275,-1.3737,-6.265,9.75813461352335,-22.38468322564931,-0.10659557810203829,5.274999999994179
-0.3961,0.9494,0.162,0.1869,0.2545,0.3122,0.07,-1.3563,-5.7312,9.73560328990263,-22.37903394272366,-0.10555690672100361,5.2849999999889405
-0.3951,0.9487,0.1634,0.1869,0.2545,0.3122,0.07,-1.3563,-5.7312,9.746718907099206,-22.366403894596672,-0.10451497985380627,5.289999999993597
-0.3997,0.9521,0.1631,0.1869,0.2545,0.3122,-0.3063,-1.4088,-5.9675,9.745366217509474,-22.402810690101898,-0.10401686445577767,5.30000000000291
-0.3978,0.9496,0.1615,0.1869,0.2553,0.3102,-0.6212,-1.5575,-5.985,9.726107378153522,-22.41507843166778,-0.10398627800922186,5.304999999993015
-0.3978,0.9496,0.1615,0.1869,0.2553,0.3102,-0.6475,-1.645,-5.5213,9.709620467722013,-22.415856865690436,-0.10583182962761806,5.314999999987776
-0.3956,0.9517,0.1576,0.1881,0.2552,0.3123,-0.6475,-1.645,-5.5213,9.641321683482435,-22.41215089241657,-0.1076589257298303,5.324999999982538
-0.3994,0.9512,0.1688,0.1881,0.2552,0.3123,-0.2625,-1.8288,-5.74,9.679200478210557,-22.42210489275553,-0.10893485367472294,5.329999999987194
-0.3956,0.9493,0.1617,0.1881,0.2552,0.3123,-0.4462,-1.6275,-5.4425,9.678225716381656,-22.418180346043965,-0.1105576695405016,5.3399999999965075
-0.396,0.9507,0.1636,0.1864,0.2558,0.3178,-0.6388,-1.61,-5.7575,9.696871414148875,-22.397009483615122,-0.11072155004258424,5.344999999986612
-0.396,0.9498,0.166,0.1864,0.2558,0.3178,-0.6388,-1.61,-5.7575,9.743974991858883,-22.38242990603442,-0.11215324894452294,5.3549999999959255
-0.3978,0.9498,0.166,0.1851,0.2542,0.315,-0.5775,-1.505,-5.7137,9.77415015602218,-22.389261452876376,-0.11253113085429221,5.364999999990687
-0.3981,0.9499,0.1641,0.1851,0.2542,0.315,-0.1312,-1.295,-5.7488,9.779244432569241,-22.399653704968305,-0.1111160267454794,5.369999999995343
-0.3954,0.9507,0.1627,0.1851,0.2542,0.315,-0.6388,-1.5225,-5.9062,9.764492903502475,-22.367624634641732,-0.11167753087714835,5.379999999990105
-0.3996,0.9518,0.1615,0.1859,0.256,0.3038,-0.6388,-1.5225,-5.9062,9.735301260036907,-22.402376971537823,-0.11139708776915576,5.384999999994761
-0.3988,0.9512,0.1655,0.1859,0.256,0.3038,-0.1225,-1.6275,-5.5912,9.761283328924183,-22.406177205592048,-0.11299528129004338,5.394999999989523
-0.3988,0.9512,0.1655,0.1873,0.2556,0.3143,0.105,-0.98,-5.425,9.795892570049501,-22.408402383184352,-0.11001628567542089,5.399999999994179
-0.3975,0.9493,0.1662,0.1873,0.2556,0.3143,0.105,-0.98,-5.5825,9.838690642649553,-22.408881620378754,-0.10521803722060398,5.4099999999889405
-0.4015,0.9504,0.1636,0.1873,0.2556,0.3143,-0.0175,-1.2862,-5.5825,9.820369084262992,-22.42555244412557,-0.10349915124777702,5.419999999998254
-0.3933,0.9484,0.1639,0.1874,0.2566,0.3184,-0.1225,-1.5575,-5.3987,9.817380690826168,-22.409138547423517,-0.10347374193623948,5.42500000000291
-0.3974,0.95,0.1629,0.1874,0.2566,0.3184,-0.49,-1.4963,-5.8275,9.807420943793064,-22.40841237239589,-0.10385228891613671,5.434999999997672
-0.3974,0.9518,0.1624,0.1866,0.2548,0.3176,-0.49,-1.4963,-5.8275,9.79320132543475,-22.398926664081223,-0.10352040822763345,5.440000000002328
-0.398,0.9518,0.1624,0.1866,0.2548,0.3176,-0.5163,-1.6712,-5.5738,9.778377137034322,-22.39911739046491,-0.10562999853913338,5.449999999982538
-0.3951,0.9503,0.1658,0.1845,0.2544,0.3186,-0.1663,-1.4875,-5.6525,9.797701202141031,-22.38135379275913,-0.10589986295497714,5.459999999991851
-0.3956,0.9506,0.1609,0.1845,0.2544,0.3186,-0.0787,-1.3475,-5.8362,9.755675784055692,-22.362806751346447,-0.1048109465253995,5.4649999999965075
-0.3972,0.9495,0.1681,0.1845,0.2544,0.3186,-0.0787,-1.3475,-5.8362,9.818228094433966,-22.369233110754152,-0.10370300146017686,5.474999999991269
-0.4024,0.9492,0.1688,0.1836,0.2546,0.3233,-0.0613,-1.365,-5.9412,9.879480533538853,-22.458259488438586,-0.1027226786456279,5.4799999999959255
-0.4024,0.9492,0.1688,0.1836,0.2546,0.3233,0.1663,-1.7237,-5.5738,9.950011819568926,-22.47367730174346,-0.10535999625725187,5.489999999990687
-0.396,0.9534,0.1638,0.1851,0.2558,0.314,0.1312,-1.33,-5.8187,9.883555802361213,-22.42119838217865,-0.10407331069446227,5.5
-0.398,0.9503,0.1563,0.1851,0.2558,0.314,0.1312,-1.33,-5.8187,9.704235565360944,-22.429206557648016,-0.1029160347874091,5.505000000004657
-0.3949,0.9522,0.1596,0.1851,0.2558,0.314,0.0787,-1.1725,-5.7663,9.646423686636284,-22.38929036225421,-0.10009453884308214,5.514999999984866
-0.3975,0.9492,0.1612,0.1868,0.2553,0.3165,-0.4112,-1.6013,-5.9325,9.64604278573514,-22.402995839951483,-0.10154637785693565,5.524999999994179
-0.4003,0.9515,0.1643,0.1868,0.2553,0.3165,-0.0787,-1.5488,-5.9763,9.679278703348936,-22.440484343341254,-0.1014974312764535,5.529999999984284
-0.4003,0.9515,0.1643,0.1868,0.2522,0.3146,-0.0787,-1.5488,-5.9763,9.705193507411447,-22.465686529134814,-0.10241549136548923,5.539999999993597
-0.3966,0.9501,0.1617,0.1868,0.2522,0.3146,-0.2975,-1.6538,-6.0287,9.702413182933027,-22.431358008038284,-0.10287760365321853,5.544999999998254
-0.3975,0.948,0.1649,0.1868,0.2522,0.3146,-0.665,-1.575,-5.8362,9.740901102276318,-22.43501940091485,-0.10404124201553781,5.554999999993015
-0.3939,0.9499,0.159,0.1858,0.2542,0.315,-0.3588,-1.7325,-5.4775,9.740328458159558,-22.432885090496022,-0.10675249399887644,5.565000000002328
-0.3989,0.952,0.1619,0.1858,0.2542,0.315,-0.3588,-1.7325,-5.4775,9.740115293363049,-22.433016157749073,-0.10756080125517528,5.569999999992433
-0.3989,0.952,0.1619,0.185,0.255,0.3116,-0.665,-1.5925,-5.565,9.719480101498677,-22.43383823985291,-0.10885085764138423,5.579999999987194
-0.3946,0.9507,0.1646,0.185,0.255,0.3116,-0.2713,-1.26,-5.88,9.727983537573284,-22.38031106252536,-0.10729930626453915,5.584999999991851
-0.3983,0.9503,0.1596,0.185,0.255,0.3167,-0.2713,-1.26,-5.7225,9.711955370811742,-22.39490697789582,-0.1053002276023789,5.594999999986612
-0.3981,0.9504,0.164,0.184,0.2556,0.3167,-0.28,-1.12,-5.7225,9.717853334304102,-22.401488822424348,-0.10309118252527846,5.599999999991269
-0.3994,0.9496,0.1629,0.184,0.2556,0.3167,-0.455,-1.3737,-5.9588,9.719247323235715,-22.43813342617406,-0.10225981509992114,5.60999999998603
-0.3954,0.9494,0.1631,0.1857,0.2542,0.319,-0.28,-1.5313,-6.055,9.72139525681576,-22.39406077088419,-0.10299700135056086,5.619999999995343
-0.3954,0.9494,0.1631,0.1857,0.2542,0.319,-0.28,-1.5313,-6.055,9.723381863987235,-22.365921086365592,-0.10284692353787472,5.625
-0.398,0.9507,0.1607,0.1866,0.2537,0.3175,-0.6737,-1.68,-5.775,9.692626490851792,-22.380184534284226,-0.10505036870080288,5.634999999994761
-0.3948,0.9508,0.1662,0.1866,0.2537,0.3175,-0.3938,-1.4438,-5.6175,9.69964982641719,-22.364872219597288,-0.10444663221421094,5.639999999999418
-0.3976,0.9502,0.1623,0.1866,0.2537,0.3175,-0.2713,-1.7062,-5.6962,9.69909556499997,-22.37338344936909,-0.10689346028515934,5.649999999979627
-0.3968,0.9507,0.1629,0.1864,0.2551,0.3103,-0.2713,-1.7062,-5.6962,9.701072573277381,-22.371316201584175,-0.10931582008555926,5.6599999999889405
-0.3968,0.9507,0.1629,0.1864,0.2551,0.3103,-0.1575,-1.7413,-5.8538,9.704793920105795,-22.368650989501166,-0.11014205408649123,5.664999999993597
-0.3956,0.9508,0.159,0.1868,0.2552,0.3134,0.0088,-1.5488,-5.9588,9.647752583839285,-22.350500503940392,-0.11097366794461366,5.6749999999883585
-0.3964,0.9533,0.1637,0.1868,0.2552,0.3134,-0.2713,-1.6625,-5.6962,9.655672222314191,-22.33921720687267,-0.11139326346659183,5.679999999993015
-0.3958,0.9499,0.1633,0.1868,0.2552,0.3134,-0.2713,-1.6625,-5.6962,9.663827085057491,-22.336873637994987,-0.11333799523032356,5.689999999987776
-0.3963,0.9492,0.1617,0.1869,0.2548,0.311,-0.245,-1.68,-5.6875,9.664236138219902,-22.34254552934626,-0.1138205724795253,5.694999999992433
-0.3974,0.9491,0.1679,0.1869,0.2548,0.311,-0.6475,-1.5225,-6.0725,9.74610903057631,-22.366253008248762,-0.11435503115628784,5.705000000001746
-0.3974,0.9491,0.1679,0.1858,0.2546,0.3147,-0.175,-1.505,-5.8625,9.791000614018643,-22.377302133547545,-0.11471089524175752,5.714999999981956
-0.3998,0.9514,0.1637,0.1858,0.2546,0.3147,-0.175,-1.505,-5.8625,9.786580673309087,-22.409665313011256,-0.11431349349003816,5.719999999986612
-0.3963,0.9479,0.1633,0.1858,0.2546,0.3147,-0.2537,-1.4088,-5.985,9.785428870917249,-22.403901314550993,-0.11371739295564724,5.7299999999959255
-0.3962,0.9513,0.1577,0.1852,0.2552,0.3181,0.0875,-1.1638,-5.635,9.66992312868521,-22.395310552187052,-0.11070175342707483,5.739999999990687
-0.3994,0.9517,0.1649,0.1852,0.2552,0.3181,-0.385,-1.4875,-5.53,9.673642838308785,-22.398089496311076,-0.11025781809342163,5.744999999995343
-0.3994,0.9517,0.1635,0.1883,0.253,0.3197,-0.385,-1.4875,-5.53,9.675373936246254,-22.40095583952055,-0.11048140431179267,5.754999999990105
-0.3983,0.9502,0.1635,0.1883,0.253,0.3197,-0.2275,-1.6625,-5.7225,9.685734686884532,-22.40943478098262,-0.11090592247009905,5.759999999994761
-0.3906,0.9469,0.1695,0.1873,0.2554,0.3101,-0.5075,-1.05,-5.5037,9.744826419596201,-22.40488301058984,-0.10679177764259935,5.7700000000040745
-0.4,0.9505,0.1618,0.1873,0.2554,0.3101,-0.5075,-1.05,-5.425,9.734082441513724,-22.4124917338859,-0.10422131706914697,5.774999999994179
-0.3987,0.9516,0.1533,0.1873,0.2554,0.3101,0.42,0.0175,-5.425,9.478596528409843,-22.416072702714047,-0.08960576830556614,5.7849999999889405
-0.4014,0.9478,0.1778,0.1848,0.2556,0.3107,-0.8313,-1.4175,-6.02,9.84510789470343,-22.479652918838312,-0.08934287502217877,5.794999999983702
-0.4014,0.9478,0.1778,0.1848,0.2556,0.3107,-0.2187,-1.015,-5.5738,9.942355964755812,-22.48903052594456,-0.08677365347039628,5.7999999999883585
-0.3939,0.954,0.1566,0.1862,0.2551,0.3134,-0.2187,-1.015,-5.5738,9.864980394746128,-22.463874679796604,-0.08255433133257091,5.809999999997672
-0.4011,0.9489,0.1582,0.1862,0.2551,0.3134,-0.5775,-0.7962,-5.635,9.793898180918378,-22.4855065933162,-0.07621108242213576,5.819999999992433
-0.3922,0.9527,0.167,0.1862,0.2551,0.3134,-0.4812,-1.2513,-5.5475,9.80981230691336,-22.462577912307484,-0.07494286379744304,5.82499999999709
-0.3951,0.9523,0.1557,0.185,0.2564,0.3134,-0.525,-1.4525,-5.6875,9.736039610057688,-22.43012782495534,-0.07517309955895539,5.834999999991851
-0.3951,0.9523,0.1686,0.185,0.2564,0.3134,-0.525,-1.4525,-5.6875,9.77880466942816,-22.395597641584413,-0.07491120076382203,5.8399999999965075
-0.3945,0.9502,0.1686,0.1864,0.2534,0.3146,-0.245,-1.05,-6.2562,9.80824956063604,-22.325552642520595,-0.07115700315775808,5.849999999991269
-0.3975,0.9509,0.1574,0.1864,0.2534,0.3146,-0.56,-1.19,-6.3963,9.74035138627029,-22.366633670496576,-0.0688263475270287,5.85999999998603
-0.3914,0.9512,0.1704,0.1864,0.2534,0.3146,-0.7262,-1.4612,-6.335,9.851589468855789,-22.22129547368588,-0.06867098125225471,5.864999999990687
-0.3992,0.9528,0.1585,0.1874,0.2552,0.3202,-0.7262,-1.4612,-6.335,9.742807409225584,-22.32846792792294,-0.06905006583917382,5.874999999985448
-0.3922,0.9497,0.1692,0.1874,0.2552,0.3202,-0.245,-1.4963,-6.23,9.78019316293016,-22.24193980306055,-0.06906620738144019,5.879999999990105
-0.3922,0.9497,0.1692,0.1864,0.2547,0.317,-0.2275,-1.2513,-5.8625,9.818135769917046,-22.21018161751127,-0.06736332970668309,5.889999999999418
-0.3964,0.9517,0.1518,0.1864,0.2547,0.317,-0.385,-1.5137,-6.0113,9.800576336789307,-22.26100288214314,-0.06827524080878564,5.899999999994179
-0.3987,0.9503,0.1679,0.1864,0.2547,0.317,-0.385,-1.5137,-6.0113,9.805668169421894,-22.325213181572277,-0.0683852606014361,5.904999999998836
-0.3961,0.9533,0.1579,0.1866,0.2555,0.313,-0.4112,-1.5925,-6.1863,9.786582185916945,-22.310603060012,-0.07006707239418243,5.914999999993597
-0.3988,0.9511,0.1598,0.1866,0.2555,0.313,-0.6913,-1.19,-5.0925,9.724773269855858,-22.35456199311734,-0.0679092246317108,5.923999999984517
-0.3988,0.9478,0.1665,0.1862,0.2563,0.3124,-0.0613,-1.1988,-5.285,9.779847964526795,-22.380875714420856,-0.0660045599029147,5.9320000000006985
-0.3941,0.9478,0.1665,0.1862,0.2563,0.3124,-0.0613,-1.1988,-5.285,9.822216145228133,-22.362235030538425,-0.06411894182586518,5.939999999987776
-0.3966,0.9504,0.1618,0.1853,0.2558,0.3188,-0.0787,-1.4175,-5.5475,9.786844504485646,-22.36217981547348,-0.06392096748746648,5.9469999999855645
-0.4012,0.9518,0.1591,0.1853,0.2558,0.3188,-0.525,-1.9863,-6.2475,9.745017554433076,-22.45400862115936,-0.06641390001550884,5.951999999990221
-0.3967,0.9511,0.1687,0.1853,0.2558,0.3188,-0.525,-1.9863,-5.7663,9.789087517619572,-22.426473773082844,-0.07201404541207208,5.961999999984982
-0.3908,0.9502,0.1592,0.187,0.2564,0.3195,-0.7613,-1.6625,-5.7663,9.709679626345363,-22.350961620700613,-0.07282323715937566,5.966999999989639
-0.3908,0.9502,0.1592,0.187,0.2564,0.3195,0.0437,-1.12,-5.6788,9.652477731057528,-22.307514194010277,-0.06978291918562861,5.976999999998952
-0.3987,0.9505,0.1637,0.1887,0.2552,0.3138,-0.7088,-1.6013,-5.985,9.68328362787209,-22.357787564957835,-0.07153787439248739,5.986999999993714
-0.3986,0.9498,0.1597,0.1887,0.2552,0.3138,-0.7088,-1.6013,-5.985,9.647479511259837,-22.39918271356713,-0.07204888784970467,5.99199999999837
-0.3945,0.9495,0.1643,0.1887,0.2552,0.3138,-0.0263,-1.2862,-6.0113,9.690049632140449,-22.352819830266807,-0.0706616933715569,6.0019999999931315
-0.3975,0.9521,0.1607,0.1882,0.2548,0.3182,-0.875,-1.8112,-5.6788,9.652820507101652,-22.356482482808847,-0.07222047363335796,6.006999999983236
-0.3975,0.9493,0.157,0.1882,0.2548,0.3182,-0.175,-1.33,-5.7925,9.611698647236157,-22.377428120581964,-0.0712651832968073,6.016999999992549
-0.3985,0.9493,0.157,0.1847,0.2552,0.3136,-0.175,-1.33,-5.7925,9.57703196607048,-22.40533957186946,-0.07031944586396133,6.026999999987311
-0.3952,0.949,0.1755,0.1847,0.2552,0.3136,-0.5863,-1.7675,-6.0988,9.74246581734285,-22.353625914021094,-0.07166533360723007,6.031999999991967
-0.3986,0.9535,0.1469,0.1847,0.2552,0.3136,0.0437,-1.61,-5.6962,9.458835687055807,-22.36995118144457,-0.0734875946698277,6.041999999986729
-0.3931,0.9468,0.1764,0.1858,0.2567,0.3089,-0.9275,-2.0912,-6.1163,9.854746516309502,-22.30578515729487,-0.08005551312993067,6.051999999996042
-0.3976,0.9493,0.153,0.1858,0.2567,0.3089,-0.9275,-2.0912,-6.1163,9.602008280953727,-22.3671864116772,-0.08290635520203199,6.0570000000006985
-0.3976,0.9493,0.153,0.1864,0.2546,0.3106,-0.2275,-1.7587,-6.0025,9.549372257471555,-22.4003935867856,-0.08408281384604262,6.061999999990803
-0.4018,0.9528,0.1593,0.1864,0.2546,0.3106,-0.4288,-1.7325,-6.0988,9.545712859532811,-22.469941604936565,-0.08699365010561681,6.0719999999855645
-0.4008,0.9513,0.1646,0.1864,0.2546,0.3111,0.1312,-1.5137,-5.32,9.635053214237598,-22.48089128363837,-0.08770925800373003,6.081999999980326
-0.3802,0.9499,0.167,0.1865,0.2546,0.3111,0.1312,-1.5137,-5.32,9.745947981090838,-22.34135929272925,-0.08841770982516939,6.091999999989639
-0.4043,0.9483,0.1685,0.1865,0.2546,0.3111,-0.0962,-1.1988,-6.125,9.814990615864005,-22.508436050364836,-0.08676754992620432,6.096999999994296
-0.4027,0.9525,0.1536,0.1853,0.253,0.3154,-0.8662,-2.0387,-5.635,9.59542814158497,-22.52715277978971,-0.09268291882338886,6.106999999989057
-0.4027,0.9525,0.1536,0.1853,0.253,0.3154,-0.7088,-1.7325,-5.81,9.483281819921071,-22.55827496552651,-0.09363192183690199,6.111999999993714
-0.3895,0.9453,0.1703,0.1862,0.2543,0.3142,-0.7088,-1.7325,-5.81,9.671385186642203,-22.440313127068006,-0.09644726701656758,6.121999999988475
-0.4011,0.9509,0.1614,0.1862,0.2543,0.3142,-0.6913,-1.68,-5.9412,9.661915737792988,-22.48401717708906,-0.09871470874941186,6.131999999997788
-0.396,0.9536,0.1598,0.1862,0.2543,0.3142,-0.3325,-1.0237,-5.0662,9.65775954760126,-22.421016382188082,-0.09446210606362841,6.141999999992549
-0.3939,0.949,0.164,0.1864,0.2555,0.3178,-0.3325,-1.0237,-5.3987,9.661858526282805,-22.4064578624206,-0.0918847572062234,6.146999999982654
-0.3939,0.949,0.164,0.1864,0.2555,0.3178,-0.3413,-1.0762,-5.3987,9.664645501419127,-22.393102525001233,-0.08822020403160402,6.156999999991967
-0.3909,0.9535,0.1607,0.186,0.2555,0.3143,-0.3237,-1.715,-6.0375,9.661099412359755,-22.257940398199576,-0.0891272091929543,6.161999999996624
-0.4002,0.9513,0.1625,0.186,0.2555,0.3143,-0.7437,-1.5925,-6.3,9.670102279788578,-22.37659113092453,-0.09060160149978545,6.171999999991385
-0.4008,0.9498,0.167,0.186,0.2555,0.3143,-0.7437,-1.5925,-6.3,9.753679570990073,-22.46239695441396,-0.0920612498869908,6.1820000000006985
-0.3935,0.9493,0.1621,0.1833,0.2541,0.3168,-0.6475,-1.295,-5.9675,9.739554559432808,-22.385546583628653,-0.0908508445886944,6.186999999990803
-0.3983,0.9514,0.1576,0.1833,0.2541,0.3168,-0.315,-1.26,-5.2937,9.724808191731173,-22.39468099177211,-0.08947929334237621,6.19199999999546
-0.3983,0.9514,0.1576,0.1861,0.2561,0.3143,-0.2975,-1.8725,-5.8625,9.705694594804271,-22.40741851718699,-0.09372216481373727,6.202000000004773
-0.3957,0.9489,0.1651,0.1861,0.2561,0.3143,-0.2975,-1.8725,-5.8625,9.715543405284382,-22.38762740350513,-0.09792260755543214,6.211999999984982
-0.367,0.9484,0.1761,0.1861,0.2561,0.3143,-0.245,-3.15,-7.63,9.799185008734712,-21.325893746918492,-0.1147282958964413,6.221999999994296
-0.443,0.9564,0.1494,0.1875,0.2548,0.3182,0.1488,-3.5525,-7.9012,9.488210907392041,-23.63415128295151,-0.12446584511593513,6.2269999999844
-0.3955,0.9484,0.1664,0.1875,0.2548,0.3182,-1.0237,-0.4725,-3.7362,9.67280848051718,-22.803859753720946,-0.11886001886071412,6.231999999989057
-0.3955,0.9484,0.1664,0.185,0.2552,0.3086,-1.0237,-0.4725,-3.7362,9.783845082250322,-22.502219651406197,-0.10894908306398367,6.24199999999837
-0.3845,0.9505,0.166,0.185,0.2552,0.3086,-1.0063,0.1138,-4.6813,9.831943710988964,-22.15585099575088,-0.09333288664095392,6.2519999999931315
-0.4005,0.9493,0.1634,0.185,0.2558,0.3142,-0.1925,-1.6625,-5.6,9.822487895867395,-22.197934233934976,-0.09392888997596868,6.256999999997788
-0.3809,0.9493,0.1548,0.1862,0.2558,0.3142,-0.315,-2.8875,-6.9388,9.797713991859084,-21.846526996493854,-0.10817576546825344,6.266999999992549
-0.4156,0.9539,0.1665,0.1862,0.2558,0.3142,-0.315,-2.8875,-6.9388,9.80227739948507,-22.664621093055175,-0.11468708999854374,6.271999999982654
-0.4003,0.9491,0.1659,0.1846,0.2553,0.319,-0.5688,-2.1875,-7.105,9.821649894478458,-22.60082442813292,-0.12179638350624744,6.281999999991967
-0.4003,0.9491,0.1659,0.1846,0.2553,0.319,-0.42,-0.56,-4.6112,9.82683177520134,-22.58237465252028,-0.1166503768789588,6.286999999982072
-0.3908,0.9521,0.1558,0.1859,0.2542,0.3139,-0.3325,-0.8925,-4.97,9.811946301746937,-22.4010599886195,-0.11091953750591833,6.296999999991385
-0.3992,0.9504,0.1638,0.1859,0.2542,0.3139,-0.3325,-0.8925,-4.97,9.81102057427379,-22.430134586711336,-0.10752817432873371,6.301999999996042
-0.3945,0.9506,0.1629,0.1859,0.2542,0.3139,-0.0525,-1.3388,-5.5037,9.790508967853087,-22.42743615450086,-0.10630692698552283,6.311999999990803
-0.3983,0.9495,0.1588,0.1848,0.2541,0.3106,-0.7875,-2.3012,-5.9237,9.702070421115879,-22.442371652002542,-0.11462565212440506,6.322000000000116
-0.3983,0.9495,0.1745,0.1848,0.2541,0.3106,-0.7875,-2.3012,-5.5125,9.914753890141581,-22.441848602707623,-0.11817029279387743,6.326999999990221
-0.396,0.9459,0.1744,0.1874,0.253,0.3142,-0.6913,-1.6275,-5.5125,10.046736505167638,-22.440356687362165,-0.11970075426846455,6.336999999999534
-0.3966,0.9509,0.1562,0.1874,0.253,0.3142,-0.1575,-0.8838,-5.565,9.925171607745257,-22.435392017964183,-0.11385328112821613,6.346999999994296
-0.3987,0.9543,0.1639,0.1874,0.253,0.3142,-0.3063,-1.1113,-5.67,9.915815095446163,-22.4269114871462,-0.11151564051930707,6.3519999999844
-0.4018,0.9512,0.1551,0.1848,0.2543,0.3106,-0.3063,-1.1113,-5.67,9.88173185036181,-22.458318769686013,-0.10800226851188048,6.361999999993714
-0.3933,0.9464,0.1707,0.1848,0.2543,0.3106,-0.245,-1.365,-6.1775,9.917404485621745,-22.370652318646048,-0.10703566022670226,6.371999999988475
-0.3933,0.9464,0.1707,0.1866,0.2554,0.3131,-0.7875,-1.8463,-5.8888,10.009153700022273,-22.33428286747704,-0.10840444582670686,6.3769999999931315
-0.3964,0.95,0.1589,0.1866,0.2554,0.3131,-0.6913,-1.7587,-5.9237,9.881696587628623,-22.34493212931703,-0.11133144577217537,6.387000000002445
-0.4004,0.952,0.1667,0.1866,0.2554,0.3131,-0.6913,-1.7587,-5.9237,9.894201631640701,-22.39298840889756,-0.11422917571235235,6.396999999997206
-0.4019,0.9517,0.1569,0.1858,0.2562,0.3166,-0.3237,-1.4175,-6.09,9.87495244431669,-22.47827890900939,-0.11340346615552367,6.402000000001863
-0.3869,0.9493,0.1649,0.1858,0.2562,0.3166,-0.3325,-1.3913,-5.8362,9.874377360305644,-22.323490661977594,-0.11264321589322869,6.411999999982072
-0.3869,0.9493,0.1667,0.187,0.2544,0.3128,-0.1312,-1.4,-6.195,9.890345300396707,-22.13644026113681,-0.11174674093451056,6.416999999986729
-0.3987,0.9475,0.1667,0.187,0.2544,0.3128,-0.1312,-1.4,-6.195,9.90679439708174,-22.29122803488486,-0.11108918792559379,6.426999999996042
-0.4044,0.9503,0.1655,0.1862,0.2546,0.3142,-0.5863,-2.6075,-6.9212,9.90174122374256,-22.558657778691668,-0.12239246043983446,6.436999999990803
-0.4031,0.952,0.1699,0.1862,0.2546,0.3142,0.035,-2.45,-6.755,9.96334790979156,-22.597535074611844,-0.12659599304049082,6.44199999999546
-0.3656,0.9456,0.176,0.1862,0.2546,0.3142,1.225,2.8175,-5.7575,10.31920028312075,-22.21937244418392,-0.08403669753171822,6.451999999990221
-0.4272,0.9495,0.1751,0.1879,0.2562,0.3178,1.225,2.8175,-5.7575,10.398618633234628,-22.568439630566754,-0.041902994917943616,6.461999999999534
-0.4272,0.9495,0.1751,0.1879,0.2562,0.3178,1.3825,15.155,-2.5638,10.430438384330548,-23.53651913931602,0.04023332790734098,6.467000000004191
-0.3812,0.9511,0.1409,0.1864,0.254,0.3133,1.1463,6.265,-4.2,9.22582630715908,-22.461259523448017,0.11525458007899973,6.4769999999844
-0.3781,0.9428,0.1859,0.1864,0.254,0.3133,1.2337,1.96,-9.765,10.411192767203064,-21.664219841216493,0.13050407709348533,6.481999999989057
-0.4481,0.9531,0.1771,0.1864,0.254,0.3133,1.2337,1.96,-9.765,10.481969528717958,-24.212295870180757,0.16200312190536542,6.491999999983818
-0.4127,0.9619,0.1227,0.1869,0.253,0.3135,2.695,10.2812,-3.4913,8.061408152835453,-23.440762106017093,0.2179750735399485,6.496999999988475
-0.4127,0.9376,0.1413,0.1869,0.253,0.3135,-0.2537,12.39,1.68,8.110797750950235,-23.511314000903674,0.3518564085312657,6.506999999997788
-0.3992,0.9376,0.1413,0.1886,0.2533,0.311,-0.2537,12.39,-0.6475,8.15539304300237,-22.948099706729952,0.4843989299746749,6.516999999992549
-0.2564,0.9176,0.274,0.1886,0.2533,0.311,0.49,14.0437,-0.6475,12.050228768711468,-16.35152999399948,0.5557712985459101,6.521999999997206
-0.3172,0.9233,0.1322,0.1886,0.2533,0.311,16.45,13.3,-17.1413,8.36741480030076,-18.59012973762321,0.6952836710844533,6.531999999991967
-0.3759,0.9301,0.233,0.1921,0.2542,0.3104,26.3725,4.6813,-39.5938,13.858384751341916,-21.32672824941944,0.7182033122014296,6.536999999996624
-0.3339,0.9304,0.1382,0.1921,0.2542,0.3104,26.3725,4.6813,-39.5938,8.643892766403761,-19.594788110924053,0.7707662346481168,6.546999999991385
-0.3339,0.9304,0.1382,0.1989,0.2534,0.3073,37.5988,-0.6388,-49.2363,8.453846177943467,-19.545140407787713,0.7665965550946338,6.55199999998149
-0.4323,0.9073,0.2654,0.1989,0.2534,0.3073,41.2475,-0.8487,-56.35,16.12079300802406,-24.477885953846695,0.7639285451483421,6.561999999990803
-0.466,0.942,0.1167,0.1989,0.2534,0.3073,45.7975,10.1763,-49.7088,7.25421452802921,-26.111289791313297,0.8133619875500118,6.56699999999546
-0.5015,0.9602,0.1247,0.2051,0.2542,0.3031,45.7975,10.1763,-49.7088,7.396437282348082,-27.35324928194392,0.9193738232147144,6.576999999990221
-0.3717,0.9164,0.1766,0.2051,0.2542,0.3031,47.6875,25.1912,-36.4525,10.836198341742586,-21.892791607379063,1.1729730508273122,6.586999999999534
-0.3717,0.9372,0.0691,0.2098,0.251,0.2875,51.8088,25.6025,-36.8112,4.341297643743321,-21.590109461837077,1.294675737854968,6.591999999989639
-0.3606,0.9372,0.0691,0.2098,0.251,0.2875,56.8312,22.3125,-52.1675,4.218942093649305,-21.005410535813347,1.5160228162946214,6.601999999998952
-0.421,0.9384,0.085,0.217,0.2515,0.2874,56.8312,22.3125,-52.1675,5.159269442603673,-24.011025527688137,1.6180095056998345,6.606999999989057
-0.5291,0.9108,0.1187,0.217,0.2515,0.2874,60.9613,26.145,-56.98,7.38886390824765,-29.830916616166153,1.8740649961002205,6.616999999983818
-0.3781,0.9173,0.1066,0.217,0.2515,0.2874,64.7763,29.1812,-53.9437,6.640139436727218,-22.41875967612258,2.1576183120207513,6.6269999999931315
-0.5225,0.9526,-0.0074,0.2262,0.2531,0.2675,72.1087,34.8688,-61.3288,-0.3486398994504089,-28.632707294085456,2.315342731867531,6.631999999997788
-0.5225,0.9526,-0.0074,0.2262,0.2531,0.2675,72.1087,34.8688,-61.3288,-0.4437642792346059,-28.742030772704883,2.6507905099609954,6.641999999992549
-0.4907,0.9373,-0.0016,0.2382,0.2523,0.2572,68.2763,49.6037,-53.8825,-0.1027735611721411,-27.65559812931479,3.128759320197106,6.651999999987311
-0.4443,0.9348,-0.0548,0.2382,0.2523,0.2572,64.1025,53.3225,-55.3,-3.305283716595824,-25.427858966426243,3.3681181450471938,6.656999999991967
-0.5197,0.9338,-0.0159,0.2382,0.2523,0.2572,62.02,56.5775,-58.6688,-1.0122508619884163,-29.02662564596337,3.9079542997308514,6.667000000001281
-0.5011,0.9277,-0.0349,0.2472,0.2534,0.2454,62.02,56.5775,-58.6688,-2.136425623432356,-28.37122188024086,4.155633424800608,6.672000000005937
-0.4986,0.904,0.0165,0.2472,0.2534,0.2454,61.8275,64.82,-58.3888,0.9953001962053928,-28.865495094271832,4.769195174856083,6.681999999986147
-0.4986,0.904,0.0165,0.2591,0.2562,0.2321,66.9638,64.26,-63.2713,1.0449215864791184,-28.874679680548606,5.3710773093124855,6.69199999999546
-0.5678,0.9204,-0.0634,0.2591,0.2562,0.2321,66.9638,64.26,-61.3288,-3.8675199950760044,-31.56198254748689,5.642153578376588,6.6969999999855645
-0.6247,0.9129,0.0017,0.2591,0.2562,0.2321,71.33,68.6175,-61.3288,0.052023346623237175,-34.334251581305615,6.2784453788379615,6.706999999994878
-0.5911,0.9122,-0.0936,0.2682,0.2579,0.2099,75.845,75.2675,-48.2038,-5.782007740258033,-32.841160220034176,6.594935093202809,6.711999999999534
-0.5822,0.8682,-0.0683,0.2682,0.2579,0.2099,76.8512,76.5888,-41.6063,-4.514525170537341,-33.73856840479712,7.300614947466548,6.721999999994296
-0.5822,0.8682,-0.0683,0.277,0.2569,0.2002,76.8512,76.5888,-41.6063,-4.498319524677079,-33.76274589366324,7.999238004310519,6.732000000003609
-0.6192,0.8813,-0.1207,0.277,0.2569,0.2002,78.12,74.1387,-41.545,-7.7570050735011815,-34.81267018505129,8.666618838388318,6.741999999983818
-0.5976,0.8969,-0.0784,0.277,0.2569,0.1824,81.62,74.76,-34.8425,-5.028928922356359,-33.615556226987934,8.956714693155321,6.746999999988475
-0.6126,0.8796,-0.0847,0.2834,0.2566,0.1824,93.31,76.23,-26.67,-5.49528935236799,-34.6811813427546,9.635224631421396,6.756999999983236
-0.637,0.8942,-0.1489,0.2834,0.2566,0.1824,93.31,76.23,-26.67,-9.412194125310668,-35.07676977245472,9.922910928264846,6.761999999987893
-0.5645,0.865,-0.2051,0.287,0.2514,0.165,101.955,75.2412,-15.0763,-13.301046770052725,-32.666723825029166,10.581969785288408,6.771999999997206
-0.5645,0.865,-0.2051,0.287,0.2514,0.165,106.1025,69.5888,-8.0675,-13.338701264555587,-32.485591696736726,11.178479292667596,6.781999999991967
-0.5295,0.8435,-0.1564,0.2902,0.2489,0.1385,110.1363,62.685,-13.9125,-10.529788642888818,-31.768851900265943,11.383685292836141,6.786999999996624
-0.5583,0.8988,-0.2549,0.2902,0.2489,0.1385,110.1363,62.685,-13.9125,-15.785788623059979,-30.958496192401565,11.903830025175656,6.796999999991385
-0.5608,0.9038,-0.2368,0.2902,0.2489,0.1385,112.63,61.67,-13.5887,-14.691445707189432,-30.97185047085032,12.09675826801444,6.801999999996042
-0.5214,0.8754,-0.3062,0.2965,0.248,0.1352,114.275,59.535,-7.84,-19.239294895022258,-29.83062692436751,12.578587270618508,6.811999999990803
-0.5214,0.8754,-0.3062,0.2965,0.248,0.1352,112.91,52.1587,-8.47,-19.27861973464677,-29.467166786803467,12.982572613234792,6.8219999999855645
-0.5141,0.8819,-0.3175,0.2953,0.2427,0.1048,112.91,52.1587,-8.47,-19.79523570748593,-28.925669490950913,13.117632495149138,6.826999999990221
-0.5359,0.8721,-0.3244,0.2953,0.2427,0.1048,111.4662,43.1375,-10.6925,-20.39858219642354,-29.775926127539698,13.426917505566903,6.836999999984982
-0.5939,0.8491,-0.3156,0.2953,0.2427,0.1048,112.0788,37.5025,-8.645,-20.389559823825337,-32.413960488149236,13.484985748490363,6.841999999989639
-0.5854,0.8425,-0.3346,0.2956,0.2425,0.0827,114.6425,36.0938,-1.3825,-21.64961095960126,-32.76721973127025,13.535500243978094,6.846999999994296
-0.5579,0.8312,-0.3802,0.2956,0.2425,0.0827,114.6425,36.0938,-1.3825,-24.55461639307699,-31.666852113357635,13.7708739469441,6.856999999989057
-0.5579,0.8312,-0.3802,0.2932,0.237,0.0722,115.8412,35.9538,5.3113,-24.579660970176956,-31.421590128426228,14.002507913418636,6.86699999999837
-0.5122,0.8246,-0.412,0.2932,0.237,0.0722,113.855,32.585,4.3925,-26.53128569347134,-29.276044990409375,14.030478627240909,6.872000000003027
-0.5279,0.8251,-0.464,0.2932,0.237,0.0722,113.855,28.105,1.2425,-29.327011554263276,-29.163752747221917,14.181813425991328,6.881999999983236
-0.542,0.8219,-0.4868,0.2949,0.2366,0.059,108.5088,28.7437,1.2425,-30.625743098452915,-29.517708659692087,14.188976649670163,6.886999999987893
-0.5367,0.8116,-0.5027,0.2949,0.2366,0.059,101.7625,26.5212,1.7413,-31.762683991917395,-29.36501371689194,14.323046848628895,6.896999999982654
-0.5367,0.8116,-0.5194,0.2924,0.2352,0.0501,95.1475,23.7038,1.7413,-32.60917807432711,-29.147461857768274,14.303850233058121,6.901999999987311
-0.523,0.8085,-0.5194,0.2924,0.2352,0.0501,95.1475,23.7038,1.7413,-32.71654822634949,-28.62880577399428,14.408879436558571,6.911999999996624
-0.526,0.7999,-0.5164,0.2918,0.2349,0.0362,89.2675,19.9675,0.3588,-32.8440833562858,-28.876476108966543,14.475868977682408,6.921999999991385
-0.5343,0.7973,-0.533,0.2918,0.2349,0.0362,84.0088,18.235,-0.1838,-33.75220980375904,-29.083724819062056,14.428073580795889,6.926999999996042
-0.5492,0.7952,-0.5468,0.2918,0.2349,0.0362,79.0387,17.7975,1.6363,-34.5039476168923,-29.574694894400935,14.473388180488607,6.936999999990803
-0.5401,0.7932,-0.5577,0.2885,0.2354,0.0235,79.0387,17.7975,1.6363,-35.10355314443646,-29.17452509307122,14.42345196629611,6.941999999980908
-0.5401,0.7932,-0.5577,0.2885,0.2354,0.0235,74.8737,19.425,6.79,-35.11100580167499,-29.12259118243561,14.484925032424728,6.951999999990221
-0.5298,0.8089,-0.5635,0.2861,0.2317,0.0102,69.2913,21.7875,11.3488,-34.86555927020441,-28.30304682757677,14.569172117580464,6.961999999984982
