AcclX,AcclY,AcclZ,MagX,MagY,MagZ,GyroX,GyroY,GyroZ,Roll,Pitch,Yaw,Time Elapsed(s)
-0.493,0.9366,-0.0756,0.1364,0.2045,0.278,-0.7525,-1.6013,-6.6762,0,0,0,0.0
-0.4901,0.939,-0.0742,0.1364,0.2045,0.278,-0.3237,-1.5575,-6.37,0,0,0,0.010000000009313226
-0.4907,0.9364,-0.0755,0.1376,0.2038,0.2747,-0.9275,-1.4175,-6.16,0,0,0,0.010000000009313226
-0.4907,0.9358,-0.0706,0.1376,0.2038,0.2747,-0.9275,-1.4175,-6.16,0,0,0,0.01999999998952262
-0.4937,0.9358,-0.0706,0.1393,0.2031,0.2757,-0.4638,-1.3125,-6.335,0,0,0,0.029999999998835847
-0.4919,0.9348,-0.0734,0.1393,0.2031,0.2757,-0.3063,-1.1725,-6.58,0,0,0,0.03999999999359716
-0.4912,0.938,-0.0748,0.1393,0.2031,0.2757,-0.4812,-1.505,-6.545,0,0,0,0.05000000000291038
-0.4926,0.937,-0.0752,0.1401,0.2032,0.2718,-0.4812,-1.505,-6.545,0,0,0,0.05000000000291038
-0.4925,0.9375,-0.0709,0.1401,0.2032,0.2718,-0.63,-1.6013,-6.79,0,0,0,0.059999999997671694
-0.4925,0.9375,-0.0709,0.1392,0.2032,0.2737,-0.4638,-2.1263,-6.1687,0,0,0,0.07000000000698492
-0.4921,0.9357,-0.0757,0.1392,0.2032,0.2737,-0.3675,-1.7587,-6.4662,0,0,0,0.07999999998719431
-0.4923,0.9384,-0.0712,0.1392,0.2032,0.2754,-0.3675,-1.7587,-6.4662,0,0,0,0.08999999999650754
-0.4891,0.9387,-0.0728,0.1445,0.2041,0.2754,-0.2362,-1.9162,-6.545,0,0,0,0.08999999999650754
-0.4931,0.9379,-0.0717,0.1445,0.2041,0.2754,-0.5337,-1.8112,-6.0988,0,0,0,0.09999999999126885
-0.49,0.9351,-0.073,0.1405,0.204,0.2802,-0.5863,-1.8988,-6.475,0,0,0,0.11000000000058208
-0.49,0.9351,-0.073,0.1405,0.204,0.2802,-0.5863,-1.8988,-6.475,0,0,0,0.11999999999534339
-0.4941,0.9376,-0.0751,0.1398,0.2034,0.2768,-0.735,-1.7413,-6.825,0,0,0,0.1300000000046566
-0.4937,0.9359,-0.072,0.1398,0.2034,0.2768,-0.7088,-1.5313,-6.44,0,0,0,0.1300000000046566
-0.4943,0.9381,-0.0765,0.1398,0.2034,0.2768,-0.7088,-1.5313,-6.3525,0,0,0,0.13999999999941792
-0.492,0.9373,-0.0722,0.1417,0.2057,0.2742,-0.735,-1.7675,-6.3525,0,0,0,0.14999999999417923
-0.492,0.9373,-0.0722,0.1417,0.2057,0.2742,0.0088,-1.8375,-6.44,0,0,0,0.15999999998894054
-0.4916,0.9387,-0.0789,0.1383,0.2042,0.274,-0.3063,-1.3212,-6.6062,0,0,0,0.16999999999825377
-0.4897,0.9369,-0.0725,0.1383,0.2042,0.274,-0.3063,-1.3212,-6.6062,0,0,0,0.16999999999825377
-0.4906,0.9349,-0.0747,0.1383,0.2042,0.274,-0.1663,-1.6187,-6.4488,0,0,0,0.17999999999301508
-0.4896,0.9362,-0.0719,0.1386,0.2029,0.2746,-0.3063,-1.4438,-6.2213,0,0,0,0.1900000000023283
-0.4949,0.9378,-0.0767,0.1386,0.2029,0.2746,-0.7,-1.5137,-6.475,0,0,0,0.19999999999708962
-0.4949,0.9378,-0.0767,0.1394,0.2038,0.2766,-0.7,-1.5137,-6.475,0,0,0,0.21000000000640284
-0.4912,0.9374,-0.0708,0.1394,0.2038,0.2766,-0.2537,-1.0938,-6.6062,0,0,0,0.21000000000640284
-0.4902,0.9371,-0.0734,0.1394,0.2038,0.2766,-0.6737,-0.9538,-6.5188,0,0,0,0.21999999998661224
-0.494,0.9395,-0.0712,0.139,0.2038,0.2801,-0.595,-1.365,-6.58,0,0,0,0.22999999999592546
-0.4919,0.9379,-0.0718,0.139,0.2038,0.2801,-0.595,-1.365,-6.58,0,0,0,0.23999999999068677
-0.4919,0.9379,-0.0718,0.1394,0.2028,0.2705,-0.2275,-1.505,-6.6588,0,0,0,0.25
-0.4927,0.9356,-0.0752,0.1394,0.2028,0.2705,-0.1663,-1.3125,-6.5363,0,0,0,0.25
-0.4929,0.9372,-0.0702,0.1394,0.2028,0.2754,-0.2713,-1.68,-6.5625,0,0,0,0.2599999999947613
-0.4934,0.9354,-0.074,0.1404,0.2039,0.2754,-0.2713,-1.68,-6.5625,0,0,0,0.27000000000407454
-0.4942,0.9388,-0.0713,0.1404,0.2039,0.2754,-0.1838,-1.4175,-6.7112,0,0,0,0.27999999998428393
-0.4885,0.9355,-0.0748,0.1406,0.2029,0.277,-0.4638,-1.715,-6.685,0,0,0,0.28999999999359716
-0.4885,0.9355,-0.0748,0.1406,0.2029,0.277,-0.245,-1.7675,-6.4925,0,0,0,0.28999999999359716
-0.4917,0.937,-0.0739,0.1387,0.2022,0.2693,-0.245,-1.7675,-6.4925,0,0,0,0.29999999998835847
-0.492,0.9365,-0.0729,0.1387,0.2022,0.2693,0.1312,-1.6187,-6.5625,0,0,0,0.3099999999976717
-0.4936,0.9381,-0.0762,0.1387,0.2022,0.2693,-0.21,-2.0738,-6.545,0,0,0,0.319999999992433
-0.4915,0.9395,-0.0708,0.1396,0.2038,0.278,-0.21,-2.0738,-6.545,0,0,0,0.319999999992433
-0.4915,0.9395,-0.0708,0.1396,0.2038,0.278,-0.4638,-2.1175,-6.3175,0,0,0,0.33000000000174623
-0.4948,0.9365,-0.0752,0.1378,0.2039,0.2754,-0.2275,-1.5838,-6.3175,0,0,0,0.33999999999650754
-0.4917,0.9368,-0.0681,0.1378,0.2039,0.2754,-0.6475,-1.2687,-6.6325,0,0,0,0.34999999999126885
-0.4903,0.9364,-0.0714,0.1378,0.2039,0.2754,-0.6475,-1.2687,-6.6325,0,0,0,0.35999999998603016
-0.4916,0.9381,-0.0758,0.1395,0.2029,0.2802,-0.525,-1.26,-6.4225,0,0,0,0.35999999998603016
-0.4924,0.9368,-0.0732,0.1395,0.2029,0.2802,-0.1225,-1.575,-6.2475,0,0,0,0.3699999999953434
-0.4924,0.9368,-0.0732,0.14,0.2033,0.2744,-0.5163,-1.68,-6.1687,0,0,0,0.3849999999947613
-0.4956,0.9362,-0.0708,0.14,0.2033,0.2744,-0.5163,-1.68,-6.1687,0,0,0,0.3929999999963911
-0.4895,0.9356,-0.0731,0.14,0.2033,0.2744,-0.7262,-1.5575,-6.3875,0,0,0,0.39500000000407454
-0.492,0.9373,-0.0752,0.1402,0.2042,0.2723,-0.6913,-1.4262,-6.6588,0,0,0,0.40499999999883585
-0.4901,0.9374,-0.0723,0.1402,0.2042,0.2723,-0.3762,-1.5137,-6.6062,0,0,0,0.41499999999359716
-0.4901,0.9374,-0.0723,0.1382,0.2038,0.2729,-0.3762,-1.5137,-6.6062,0,0,0,0.42499999998835847
-0.4928,0.9378,-0.0737,0.1382,0.2038,0.2729,-0.2625,-1.5662,-6.4925,0,0,0,0.42499999998835847
-0.4923,0.9364,-0.0716,0.1382,0.2046,0.2776,-0.5688,-1.4525,-6.6413,0,0,0,0.4349999999976717
-0.4928,0.9364,-0.075,0.1386,0.2046,0.2776,-0.0875,-1.365,-6.4925,0,0,0,0.444999999992433
-0.4939,0.9375,-0.0733,0.1386,0.2046,0.2776,-0.0875,-1.365,-6.4925,0,0,0,0.455999999991036
-0.4904,0.9357,-0.0741,0.1379,0.2046,0.2671,-0.3675,-1.575,-6.4662,0,0,0,0.455999999991036
-0.4904,0.9357,-0.0741,0.1379,0.2046,0.2671,-0.4112,-2.0125,-6.6937,0,0,0,0.46600000000034925
-0.49,0.9398,-0.0742,0.1394,0.204,0.2756,-0.4112,-1.5925,-6.1863,0,0,0,0.47599999999511056
-0.4872,0.9339,-0.0715,0.1394,0.204,0.2756,-0.3588,-1.5925,-6.1863,0,0,0,0.4860000000044238
-0.4928,0.9369,-0.0761,0.1394,0.204,0.2756,-0.6037,-1.47,-6.3525,0,0,0,0.4959999999846332
-0.4904,0.937,-0.0723,0.1406,0.2028,0.276,-0.35,-1.7413,-6.755,0,0,0,0.4959999999846332
-0.4904,0.937,-0.0744,0.1406,0.2028,0.276,-0.35,-1.7413,-4.515,0,0,0,0.5059999999939464
-0.492,0.9369,-0.0744,0.1414,0.2025,0.2771,-0.2975,-1.3913,-6.1512,0,0,0,0.5159999999887077
-0.4941,0.937,-0.068,0.1414,0.2025,0.2771,-0.6825,-1.435,-6.7025,0,0,0,0.5259999999980209
-0.4904,0.9351,-0.0684,0.1414,0.2025,0.2771,-0.7088,-1.4438,-6.3963,0,0,0,0.5359999999927823
-0.492,0.9365,-0.0731,0.1388,0.2038,0.2673,-0.7088,-1.4438,-6.3963,0,0,0,0.5359999999927823
-0.4904,0.9374,-0.0714,0.1388,0.2038,0.2673,-0.3762,-1.3125,-6.58,0,0,0,0.5529999999998836
-0.4904,0.9374,-0.0714,0.1385,0.2046,0.2779,-0.14,-1.6538,-6.5188,0,0,0,0.5609999999869615
-0.4913,0.9367,-0.0736,0.1385,0.2046,0.2779,-0.315,-1.6275,-6.4837,0,0,0,0.5639999999984866
-0.4942,0.9404,-0.0711,0.1385,0.2046,0.2779,-0.315,-1.6275,-6.4837,0,0,0,0.5739999999932479
-0.4919,0.9362,-0.0723,0.1396,0.2026,0.2666,-0.2975,-1.3212,-6.4225,0,0,0,0.5840000000025611
-0.4901,0.9367,-0.0693,0.1396,0.2026,0.2666,-0.1488,-1.26,-6.3,0,0,0,0.5840000000025611
-0.4901,0.9367,-0.0717,0.1394,0.2038,0.2718,-0.14,-1.33,-6.2913,0,0,0,0.5950000000011642
-0.4925,0.9373,-0.0717,0.1394,0.2038,0.2718,-0.14,-1.33,-6.2913,0,0,0,0.6049999999959255
-0.4936,0.9384,-0.0736,0.1398,0.2028,0.272,-0.21,-1.4963,-6.0637,0,0,0,0.6149999999906868
-0.4903,0.9369,-0.0692,0.1398,0.2028,0.272,-0.4638,-1.715,-6.0462,0,0,0,0.6249999999854481
-0.4925,0.9374,-0.0757,0.1398,0.2028,0.272,-0.3325,-1.47,-6.6588,0,0,0,0.6249999999854481
-0.4928,0.9392,-0.0706,0.1407,0.2042,0.2718,-0.3325,-1.47,-6.6588,0,0,0,0.6349999999947613
-0.4928,0.9392,-0.0706,0.1407,0.2042,0.2718,-0.1575,-1.5662,-6.5012,0,0,0,0.6449999999895226
-0.4942,0.9354,-0.0712,0.1406,0.2042,0.2767,-0.4462,-1.4262,-6.195,0,0,0,0.6549999999988358
-0.4934,0.9369,-0.0678,0.1406,0.2042,0.2767,-0.4462,-1.5662,-6.265,0,0,0,0.6649999999935972
-0.4917,0.9374,-0.072,0.1406,0.2042,0.2767,-0.35,-1.5662,-6.265,0,0,0,0.6649999999935972
-0.4926,0.9376,-0.0716,0.1381,0.2044,0.2758,-0.385,-1.3388,-6.2387,0,0,0,0.6750000000029104
-0.4926,0.9376,-0.0678,0.1381,0.2044,0.2758,-0.1138,-1.6975,-6.4575,0,0,0,0.6849999999831198
-0.4901,0.9379,-0.0678,0.1394,0.2038,0.2745,-0.1138,-1.6975,-6.4575,0,0,0,0.694999999992433
-0.4923,0.9354,-0.075,0.1394,0.2038,0.2745,-0.2887,-1.6975,-6.5712,0,0,0,0.7050000000017462
-0.4936,0.9364,-0.0703,0.1394,0.2038,0.2745,-0.28,-1.61,-6.615,0,0,0,0.7050000000017462
-0.4911,0.9369,-0.067,0.1395,0.203,0.276,-0.14,-1.4262,-6.2913,0,0,0,0.7149999999965075
-0.4917,0.9374,-0.0674,0.1395,0.203,0.276,-0.14,-1.4262,-6.2913,0,0,0,0.7249999999912689
-0.4917,0.9374,-0.0674,0.1409,0.2042,0.2786,-0.4112,-1.54,-5.9237,0,0,0,0.7350000000005821
-0.4917,0.9365,-0.075,0.1409,0.2042,0.2786,-0.35,-1.8025,-6.195,0,0,0,0.7450000000098953
-0.4929,0.9381,-0.0704,0.1409,0.2042,0.2786,-0.4288,-1.7062,-6.58,0,0,0,0.7450000000098953
-0.4917,0.9351,-0.0731,0.1401,0.2026,0.275,-0.4288,-1.7062,-6.58,0,0,0,0.7549999999901047
-0.4897,0.9367,-0.0672,0.1401,0.2026,0.275,-0.0437,-1.3212,-6.9475,0,0,0,0.7649999999994179
-0.4897,0.9523,-0.0736,0.1405,0.2026,0.2737,-0.1575,-1.6187,-6.58,0,0,0,0.7749999999941792
-0.4903,0.9371,-0.0736,0.1405,0.2026,0.2737,-0.1138,-1.3563,-6.4925,0,0,0,0.7850000000034925
-0.4928,0.9387,-0.07,0.1388,0.2028,0.2772,-0.1138,-1.3563,-6.4925,0,0,0,0.7850000000034925
-0.4865,0.9381,-0.0701,0.1388,0.2028,0.2772,-0.315,-1.645,-6.4225,-0.14384064578045364,-7.368169024052247,0.0,0.7949999999982538
-0.4909,0.9372,-0.075,0.1388,0.2028,0.2772,-0.3237,-1.7938,-6.3963,-0.25669225353645314,-12.523407535882294,-0.006451136996620453,0.8149999999877764
-0.4902,0.9372,-0.0707,0.1386,0.202,0.2753,-0.4462,-1.8112,-6.195,-0.6133296417293527,-14.383333509782858,-0.006386625626654248,0.8149999999877764
-0.4902,0.9372,-0.0707,0.1386,0.202,0.2753,-0.4462,-1.8112,-6.195,-0.9386192004389656,-16.012969152472394,-0.00972058787355218,0.8249999999970896
-0.4938,0.9343,-0.0755,0.1394,0.2025,0.2725,-0.665,-1.7237,-6.6413,-1.8208270271604512,-20.36843852195496,-0.012154960493490444,0.8349999999918509
-0.4953,0.9376,-0.0702,0.1394,0.2025,0.2725,-0.8138,-1.505,-6.3612,-2.6007913323534746,-22.11150971565771,-0.012399859388896822,0.8450000000011642
-0.4962,0.9357,-0.0681,0.1394,0.2025,0.2725,-0.8138,-1.505,-6.4837,-3.0957784960902432,-23.844425292295785,-0.012642309294815883,0.8549999999959255
-0.4909,0.9375,-0.0703,0.1399,0.2036,0.2776,-0.3938,-1.3475,-6.4837,-3.146008048913473,-24.965267641676935,-0.01132308470075684,0.8650000000052387
-0.4909,0.9378,-0.0714,0.1399,0.2036,0.2776,-0.9187,-1.3737,-6.6238,-3.5839696889234762,-25.90823877405709,-0.011209853853749271,0.8650000000052387
-0.4907,0.9378,-0.0714,0.14,0.2046,0.2734,-0.6388,-1.4,-6.5625,-3.7565664286720115,-26.46278570524742,-0.01042470381556437,0.875
-0.4917,0.9369,-0.07,0.14,0.2046,0.2734,-0.6388,-1.4,-6.5625,-3.872318041615432,-26.85493022633152,-0.009647405277761319,0.8849999999947613
-0.4925,0.9383,-0.0692,0.14,0.2046,0.2734,0.0875,-1.5838,-6.51,-3.9774822227963154,-27.097920779972192,-0.010697499724383056,0.8949999999895226
-0.4915,0.9359,-0.0733,0.1386,0.2054,0.279,0.0525,-1.3563,-6.2913,-4.121162699886738,-27.20098639872621,-0.009484843226109482,0.9049999999988358
-0.495,0.9374,-0.0697,0.1386,0.2054,0.279,-0.6125,-1.6712,-6.7638,-4.1484593295617,-27.43785093383287,-0.009389994793848387,0.9049999999988358
-0.495,0.9374,-0.0697,0.1361,0.2034,0.2758,-0.6125,-1.6712,-6.7638,-4.170077528531469,-27.576358971955866,-0.01130792334485597,0.9149999999935972
-0.4873,0.9367,-0.066,0.1361,0.2034,0.2758,-0.5163,-1.3563,-6.6762,-4.150144857819433,-27.51897164781746,-0.010089162610377666,0.9250000000029104
-0.4944,0.9384,-0.0747,0.1361,0.2034,0.2758,-0.2013,-1.33,-6.2387,-4.202029981195656,-27.54850519659469,-0.008622219484989523,0.9349999999976717
-0.4943,0.9366,-0.0672,0.1368,0.2034,0.2726,-0.2625,-1.3125,-6.3,-4.194146520329608,-27.59082211262807,-0.008535997290139628,0.9349999999976717
-0.4905,0.9326,-0.0695,0.1368,0.2034,0.2726,-0.2625,-1.3125,-6.3,-4.199593566982997,-27.60780738463602,-0.006911335815804646,0.9450000000069849
-0.4905,0.9356,-0.0736,0.14,0.2038,0.2739,-0.4375,-1.6975,-6.3875,-4.223643677701541,-27.604281991346767,-0.009114420953149783,0.9549999999871943
-0.4919,0.9356,-0.0736,0.14,0.2038,0.2739,-0.1663,-1.4963,-5.9412,-4.266184004357203,-27.60999798663071,-0.009303595243879354,0.9649999999965075
-0.4939,0.9379,-0.0683,0.1402,0.2038,0.2766,-0.0525,-1.4963,-5.985,-4.2430068423647205,-27.61635831983885,-0.00949087779129371,0.9749999999912689
-0.4925,0.9373,-0.0724,0.1402,0.2038,0.2766,-0.0525,-1.4963,-5.985,-4.282868998001882,-27.618479572857655,-0.009395969013380773,0.9749999999912689
-0.4936,0.9379,-0.0698,0.1402,0.2038,0.2766,-0.8487,-1.68,-6.2387,-4.273991505821373,-27.629937715566108,-0.011400957825201763,0.9850000000005821
-0.49,0.9351,-0.0686,0.1403,0.2046,0.2774,-0.875,-1.7938,-6.5887,-4.247056192874905,-27.61662287513007,-0.014512516745259971,0.9949999999953434
-0.49,0.9351,-0.0686,0.1403,0.2046,0.2774,-0.3588,-1.5838,-6.3088,-4.2466002723495615,-27.611564372990593,-0.015513960078875198,1.0050000000046566
-0.4927,0.9343,-0.0709,0.1394,0.2038,0.2746,-0.3588,-1.5838,-6.3088,-4.2474270826420595,-27.637051398368996,-0.016505388977485796,1.014999999999418
-0.4893,0.9394,-0.0687,0.1394,0.2038,0.2746,-0.3675,-1.5313,-6.23,-4.246303217173841,-27.609141180453857,-0.016340335087710937,1.014999999999418
-0.4907,0.9382,-0.074,0.1394,0.2038,0.2746,-0.6475,-1.5225,-6.2825,-4.306754299112099,-27.595836790479936,-0.016716630236551098,1.0249999999941792
-0.4912,0.9377,-0.0714,0.1393,0.2022,0.271,-0.6475,-1.5225,-6.3787,-4.3176638010213395,-27.591730712884274,-0.017089162433902856,1.0349999999889405
-0.4912,0.9362,-0.072,0.1393,0.2022,0.271,-0.5075,-1.6275,-6.3787,-4.328573794749787,-27.597534171927965,-0.018497469311034572,1.0449999999982538
-0.4876,0.9362,-0.072,0.1395,0.2022,0.2738,-0.4112,-1.4875,-6.1512,-4.332574723667218,-27.583772354531355,-0.018505693117823015,1.054999999993015
-0.4959,0.9373,-0.0708,0.1395,0.2022,0.2738,-0.3675,-1.6625,-6.825,-4.3323511442761236,-27.684364591389677,-0.020246334688438235,1.0650000000023283
-0.4896,0.9385,-0.0683,0.1395,0.2022,0.2738,-0.3675,-1.6625,-6.825,-4.329400460851266,-27.598988124407672,-0.02196956984054504,1.0749999999970896
-0.4925,0.9359,-0.0714,0.141,0.2035,0.2757,-0.2625,-1.5838,-6.5012,-4.332071428947939,-27.62598073162264,-0.02174987414213959,1.0749999999970896
-0.4887,0.9354,-0.0666,0.141,0.2035,0.2757,-0.1663,-1.5925,-6.2387,-4.291828435981449,-27.61028026496176,-0.022765073900072423,1.084999999991851
-0.4887,0.9354,-0.0666,0.1407,0.2036,0.2798,-0.0962,-1.19,-6.3,-4.247466197422339,-27.593508854352006,-0.019785371662513415,1.0949999999866122
-0.4903,0.9357,-0.0732,0.1407,0.2036,0.2798,-0.0962,-1.19,-6.3,-4.293125907297685,-27.59131647394271,-0.01958751794588828,1.0949999999866122
-0.4909,0.9376,-0.0672,0.1407,0.2036,0.2798,-0.7962,-1.2337,-6.405,-4.233374474743847,-27.587066303371685,-0.01707222126426927,1.1049999999959255
-0.4918,0.9349,-0.0753,0.14,0.205,0.2682,-0.84,-1.3475,-6.4138,-4.355567470292139,-27.609066504418838,-0.01570869755225145,1.1149999999906868
-0.4929,0.9377,-0.0703,0.14,0.205,0.2682,-0.3762,-1.9688,-6.3787,-4.353818260162992,-27.622170061454185,-0.0205096790813465,1.125
-0.4929,0.9361,-0.0688,0.1391,0.2026,0.2771,-0.3762,-1.9688,-6.3787,-4.3499557603776795,-27.642562994740196,-0.020304582290533033,1.125
-0.491,0.9361,-0.0688,0.1391,0.2026,0.2771,-0.2537,-1.61,-6.4225,-4.3371095269931095,-27.634953565303825,-0.021507484966891175,1.1349999999947613
-0.4942,0.9376,-0.0689,0.1383,0.2038,0.2774,-0.49,-1.4875,-6.125,-4.320604583657519,-27.64126007757835,-0.021485608617402195,1.1450000000040745
-0.4878,0.9349,-0.0739,0.1383,0.2038,0.2774,-0.0437,-1.4875,-6.195,-4.367244701611201,-27.62141113645556,-0.021463951030845824,1.154999999984284
-0.4931,0.938,-0.0672,0.1383,0.2038,0.2774,-0.0437,-1.4875,-6.195,-4.304085491133968,-27.627455440087296,-0.021442510020717297,1.1649999999935972
-0.492,0.9392,-0.0679,0.1396,0.2038,0.2746,-0.5075,-1.2513,-6.4925,-4.2810618872506305,-27.614951689031336,-0.021228084920510124,1.1649999999935972
-0.492,0.9392,-0.0679,0.1396,0.2038,0.2746,-0.4288,-0.9625,-6.4488,-4.270374423297479,-27.6068817070525,-0.016011502573926622,1.1749999999883585
-0.4925,0.9373,-0.0712,0.1398,0.2028,0.2757,-0.35,-1.3475,-6.3612,-4.270386865487574,-27.617412951494277,-0.014658586047076474,1.1849999999976717
-0.4933,0.9362,-0.0689,0.1398,0.2028,0.2757,-0.35,-1.3475,-6.3612,-4.27037651257568,-27.64195251762876,-0.01331919868723058,1.194999999992433
-0.4909,0.9346,-0.0695,0.1398,0.2028,0.2757,-0.315,-1.4175,-6.2475,-4.269787573154978,-27.642573648747994,-0.0126862051998928,1.2050000000017462
-0.4935,0.9379,-0.0698,0.1406,0.2038,0.274,-0.3413,-1.3737,-6.1425,-4.269672606516501,-27.646205011309235,-0.012559343147893871,1.2050000000017462
-0.4917,0.9377,-0.0689,0.1406,0.2038,0.274,-0.3413,-1.3737,-6.1512,-4.2691036233359165,-27.642783124094482,-0.011500328216903924,1.2149999999965075
-0.4917,0.9377,-0.0689,0.1384,0.2036,0.2734,-0.2625,-1.1988,-6.1512,-4.263746814481771,-27.639665271188047,-0.008720393436130961,1.2249999999912689
-0.4915,0.9361,-0.0725,0.1384,0.2036,0.2734,-0.2625,-1.5838,-6.0113,-4.276992083771147,-27.639324965354405,-0.009779758002837478,1.235000000000582
-0.4915,0.9388,-0.0661,0.1384,0.2036,0.2734,-0.7,-1.3825,-6.475,-4.212284224202663,-27.620469284232048,-0.008835658923252457,1.2449999999953434
-0.4937,0.937,-0.0724,0.1386,0.2046,0.2759,-0.7,-1.3825,-6.475,-4.265726278797389,-27.6482609071462,-0.008747302334019932,1.2449999999953434
-0.4915,0.9367,-0.0686,0.1386,0.2046,0.2759,-0.21,-1.6363,-6.6062,-4.256267848967867,-27.639499826820977,-0.010326147809806802,1.2549999999901047
-0.4915,0.9367,-0.0686,0.1397,0.2036,0.2718,-0.105,-1.5662,-6.2562,-4.242964174968555,-27.636829408581022,-0.011195214832614287,1.264999999999418
-0.4929,0.9345,-0.0676,0.1397,0.2036,0.2718,-0.385,-1.435,-6.615,-4.239379888502787,-27.676672961927103,-0.010756711183984021,1.2750000000087311
-0.4946,0.9387,-0.0727,0.1397,0.2036,0.2686,-0.385,-1.435,-6.615,-4.245807687045202,-27.690129681324176,-0.010322592572790447,1.2849999999889405
-0.4901,0.9377,-0.0736,0.1388,0.2043,0.2686,-0.5163,-1.33,-6.5538,-4.280362866445658,-27.634139330981252,-0.010219366647062543,1.2849999999889405
-0.4941,0.9362,-0.0708,0.1388,0.2043,0.2686,-0.6737,-1.4438,-6.4225,-4.2912225419700505,-27.667093527359103,-0.00987774148036893,1.2949999999982538
-0.4917,0.9364,-0.0662,0.1402,0.2034,0.2699,-0.6037,-1.8112,-6.475,-4.241141559456021,-27.660557437280435,-0.013176792563785225,1.304999999993015
-0.4917,0.9364,-0.0662,0.1402,0.2034,0.2699,-0.6037,-1.8112,-6.475,-4.201200399323638,-27.65595881229069,-0.016442853141311848,1.3150000000023283
-0.4912,0.9375,-0.0728,0.14,0.2035,0.2758,-0.0437,-1.2775,-6.475,-4.2572399840508,-27.633857454296223,-0.014392623110886644,1.3249999999970896
-0.4924,0.9377,-0.0708,0.14,0.2035,0.2758,-0.7525,-1.4262,-6.5275,-4.274642859550515,-27.635074550566483,-0.014248696879777777,1.3249999999970896
-0.4924,0.9349,-0.0737,0.14,0.2035,0.2758,-0.5075,-1.4612,-6.2387,-4.306345584905212,-27.645538394726184,-0.014039038410917443,1.3350000000064028
-0.4933,0.9364,-0.0702,0.1389,0.2039,0.2751,-0.5075,-1.4612,-6.2387,-4.303755476851154,-27.65627728803898,-0.01383147652684346,1.3450000000011642
-0.4933,0.9364,-0.0702,0.1389,0.2039,0.2751,-0.2625,-1.2775,-6.3263,-4.302436071526767,-27.668711160080342,-0.01180736026256294,1.3549999999959255
-0.4888,0.937,-0.0684,0.1382,0.204,0.2743,-0.2975,-1.3913,-6.3963,-4.296105067221559,-27.622361772205487,-0.010702350709460058,1.368000000002212
-0.4946,0.9384,-0.0725,0.1382,0.204,0.2743,-0.8487,-1.4787,-6.3263,-4.336624799555313,-27.643702806721247,-0.010680190002228382,1.3759999999892898
-0.4902,0.9373,-0.0658,0.1382,0.204,0.2743,-0.8487,-1.4787,-6.3263,-4.22980123412628,-27.623928213816132,-0.010594603802287602,1.3779999999969732
-0.4904,0.9346,-0.0706,0.1391,0.2037,0.2702,-0.5688,-1.4963,-6.5363,-4.245992916768727,-27.622558913350456,-0.010768976264525793,1.3880000000062864
-0.4921,0.937,-0.0705,0.1391,0.2037,0.2702,-0.0875,-1.6888,-6.3437,-4.257805425881463,-27.626781771013658,-0.012847354997554175,1.3979999999864958
-0.4921,0.937,-0.0705,0.1408,0.2035,0.2743,-0.0875,-1.6888,-6.5975,-4.267163121377127,-27.63191089135558,-0.012718881447578633,1.3979999999864958
-0.4918,0.936,-0.0712,0.1408,0.2035,0.2743,-0.77,-1.54,-6.5975,-4.291676880045321,-27.638515741936676,-0.013304641133766833,1.407999999995809
-0.4938,0.9385,-0.0736,0.1408,0.2035,0.2743,-1.0675,-1.4175,-6.65,-4.372086852659611,-27.653704785821777,-0.012671793222690996,1.4179999999905704
-0.4924,0.938,-0.0665,0.1402,0.2034,0.269,-0.6037,-1.7413,-6.3787,-4.307933153701318,-27.64985543539218,-0.01525089379298408,1.4279999999998836
-0.4931,0.9355,-0.0712,0.1402,0.2034,0.269,-0.6037,-1.7413,-6.3787,-4.3169232381639855,-27.668390277695046,-0.017804203353636746,1.437999999994645
-0.4931,0.9355,-0.0712,0.1383,0.2042,0.2731,0.0,-1.8288,-6.3437,-4.326100919904017,-27.681210966728628,-0.017626161320100378,1.437999999994645
-0.4924,0.9352,-0.0687,0.1383,0.2042,0.2731,-0.1312,-1.785,-6.5625,-4.303731214166706,-27.688936438288827,-0.020588348209822284,1.4480000000039581
-0.4907,0.9357,-0.0719,0.1383,0.205,0.2778,-0.4288,-1.3038,-6.4225,-4.310339593097297,-27.666082094057085,-0.01875703323094089,1.4579999999841675
-0.4954,0.937,-0.0672,0.1416,0.205,0.2778,-0.4288,-1.3038,-6.4225,-4.295100841839135,-27.7035416859262,-0.016944031397117684,1.4679999999934807
-0.4932,0.9381,-0.0692,0.1416,0.205,0.2778,-0.5775,-1.2163,-6.5363,-4.280959591552563,-27.692256678425537,-0.014282909584451822,1.477999999988242
-0.4936,0.9378,-0.0671,0.1389,0.2038,0.28,-0.4112,-1.7675,-6.4837,-4.270066424990539,-27.69437399682844,-0.014140080488607303,1.477999999988242
-0.4936,0.9378,-0.0671,0.1389,0.2038,0.28,-0.1575,-1.26,-6.335,-4.241434038227207,-27.695455030824355,-0.01193962818180359,1.4879999999975553
-0.4915,0.936,-0.0671,0.139,0.204,0.2747,-0.1575,-1.26,-6.335,-4.218685456273221,-27.684129588368204,-0.009761180401064228,1.4979999999923166
-0.4943,0.937,-0.0695,0.139,0.204,0.2747,-0.735,-1.505,-6.2213,-4.225175600993615,-27.693353849581953,-0.010030017097394867,1.5080000000016298
-0.4915,0.9394,-0.0712,0.139,0.204,0.2747,-0.6562,-1.5838,-6.2038,-4.250775711259608,-27.674838566838,-0.01107628542582027,1.5179999999963911
-0.4884,0.9356,-0.0683,0.1398,0.2039,0.2746,-0.21,-1.505,-6.3612,-4.24151154967464,-27.634412479538796,-0.010965522571562067,1.5179999999963911
-0.4884,0.9356,-0.0683,0.1398,0.2039,0.2746,-0.21,-1.505,-6.3612,-4.23338388725366,-27.603494196981814,-0.011222315845654475,1.5279999999911524
-0.4948,0.9368,-0.0704,0.1407,0.2042,0.2738,-0.28,-1.4438,-6.3263,-4.23757989300743,-27.64036029690855,-0.010870661187323362,1.5379999999859137
-0.4901,0.9367,-0.0663,0.1407,0.2042,0.2738,0.0263,-1.4875,-6.0375,-4.18594502297891,-27.639091300962832,-0.01095515307563006,1.547999999995227
-0.4941,0.9378,-0.0725,0.1407,0.2042,0.2738,-0.1138,-1.785,-6.265,-4.230766545851142,-27.652006342806942,-0.013984050043229624,1.5579999999899883
-0.4887,0.936,-0.0664,0.1406,0.2037,0.2708,-0.1138,-1.785,-6.265,-4.197732206438616,-27.627372059894736,-0.013844209542797328,1.5579999999899883
-0.4929,0.9365,-0.0703,0.1406,0.2037,0.2708,-0.2713,-1.5313,-6.2562,-4.2046657091757424,-27.638339913048227,-0.014332585947953128,1.5679999999993015
-0.4929,0.9365,-0.0703,0.1379,0.2039,0.2742,-0.5775,-1.5488,-6.5625,-4.221038932068876,-27.656603661736792,-0.014989328588054466,1.5779999999940628
-0.4926,0.9361,-0.0733,0.1379,0.2039,0.2742,-0.5775,-1.5488,-6.3437,-4.268567623944628,-27.662402995336578,-0.015639503802919043,1.588000000003376
-0.4932,0.937,-0.0699,0.1379,0.2039,0.2742,-0.7525,-1.6363,-6.3437,-4.267931109477194,-27.669749012306998,-0.015483108764889852,1.588000000003376
-0.4914,0.9367,-0.0705,0.1383,0.2042,0.2749,-0.4112,-1.7763,-6.405,-4.270028624056593,-27.65560090563168,-0.02204337837638815,1.610000000000582
-0.4946,0.9387,-0.0661,0.1383,0.2042,0.2749,-0.5075,-1.3563,-6.4837,-4.237054786462072,-27.67686064033508,-0.021601808293383703,1.6119999999937136
-0.4946,0.9387,-0.0703,0.1393,0.2054,0.2731,-0.5075,-1.3563,-6.4837,-4.243303036481804,-27.689433232221557,-0.02028010870942012,1.6220000000030268
-0.4929,0.9357,-0.0703,0.1393,0.2054,0.2731,-0.1575,-1.4438,-6.7375,-4.251902186720282,-27.698816822192626,-0.019837876122451352,1.631999999997788
-0.491,0.9351,-0.0693,0.1391,0.203,0.2702,-0.0787,-1.3388,-6.58,-4.2490277420773594,-27.6779907980417,-0.01963949736122684,1.631999999997788
-0.4927,0.9378,-0.0701,0.1391,0.203,0.2702,-0.3938,-1.4875,-6.8513,-4.250116389650649,-27.665927241482905,-0.0196363008877945,1.6420000000071013
-0.4928,0.9388,-0.0702,0.1391,0.203,0.2702,-0.3938,-1.4875,-6.8513,-4.251223730995998,-27.650180681419034,-0.019633136378534206,1.6519999999873107
-0.4903,0.9388,-0.0682,0.1397,0.2021,0.274,-0.4725,-1.6712,-6.2387,-4.2407104787689205,-27.629004468854134,-0.021448633516622524,1.661999999996624
-0.4903,0.9388,-0.0682,0.1397,0.2021,0.274,-0.1138,-1.3212,-6.1687,-4.224344501554169,-27.617198161570983,-0.0212341471814563,1.661999999996624
-0.4914,0.9359,-0.0692,0.1397,0.2027,0.2734,-0.4112,-1.5313,-6.5012,-4.224597935523605,-27.623553515465726,-0.02164862420931337,1.6719999999913853
-0.4938,0.9373,-0.0663,0.1397,0.2027,0.2734,-0.4112,-1.5313,-6.5012,-4.214276092452695,-27.654234673976678,-0.02205895646780401,1.6820000000006985
-0.4924,0.9374,-0.072,0.1397,0.2027,0.2734,-0.0175,-1.3038,-6.5275,-4.2586471113417605,-27.650575436985896,-0.020212935403977485,1.6919999999954598
-0.4928,0.9359,-0.0705,0.1392,0.2046,0.2662,-0.2187,-1.7062,-6.5538,-4.2643537912353295,-27.667841035103514,-0.02001080604993771,1.6919999999954598
-0.4928,0.9359,-0.0677,0.1392,0.2046,0.2662,-0.0613,-1.0938,-6.5887,-4.235922912519866,-27.681679660406502,-0.016106266485988313,1.702000000004773
-0.493,0.9383,-0.0677,0.1378,0.2048,0.2748,-0.0613,-1.0938,-6.5887,-4.2114968440718235,-27.67309716772496,-0.012240772323069068,1.7119999999995343
-0.4926,0.9357,-0.0698,0.1378,0.2048,0.2748,-0.35,-1.5925,-6.1775,-4.211506081674648,-27.675964028742733,-0.013351063099192607,1.7219999999942956
-0.4935,0.9373,-0.0666,0.1378,0.2048,0.2748,-0.1225,-1.5662,-6.5538,-4.184245526747186,-27.68661937192498,-0.01418988096769131,1.731999999989057
-0.4917,0.9357,-0.0676,0.1396,0.2039,0.2878,-0.5337,-1.1463,-6.475,-4.1761585169562,-27.67874757315385,-0.010863300655048432,1.7419999999983702
-0.4936,0.9376,-0.0688,0.1396,0.2039,0.2878,-0.5337,-1.1463,-6.475,-4.179360681649024,-27.68540878979811,-0.010754667648497947,1.7419999999983702
-0.4936,0.9376,-0.0688,0.1412,0.2029,0.2775,-0.7262,-1.4262,-6.3175,-4.1841229527335155,-27.688709157624032,-0.010233449472229678,1.7519999999931315
-0.4921,0.9368,-0.0667,0.1412,0.2029,0.2775,-0.6737,-1.9338,-6.37,-4.156834577967234,-27.680200257309934,-0.01474268348180224,1.7620000000024447
-0.4931,0.937,-0.069,0.1412,0.2029,0.2775,-0.6737,-1.9338,-6.1863,-4.170236640009039,-27.68157801708506,-0.01920682514456836,1.771999999997206
-0.4926,0.9372,-0.0705,0.1405,0.2037,0.2864,-0.42,-1.6625,-6.1863,-4.17887085224277,-27.67908234007042,-0.019014756893122677,1.771999999997206
-0.4926,0.9355,-0.0697,0.1405,0.2037,0.2864,-0.3762,-1.7325,-6.615,-4.18098047545157,-27.688155153068344,-0.021443307822819595,1.7819999999919673
-0.4926,0.9364,-0.0672,0.1394,0.2034,0.2714,-0.0787,-1.4088,-6.7638,-4.164720375975696,-27.687404749003527,-0.020642943244898352,1.7919999999867287
-0.4889,0.9364,-0.0672,0.1394,0.2034,0.2714,-0.0787,-1.4088,-6.7638,-4.151928539826727,-27.613322293797655,-0.01985058231190368,1.8019999999960419
-0.4943,0.937,-0.0748,0.1392,0.2037,0.271,-0.28,-1.9075,-6.9212,-4.178838681468903,-27.671315770522764,-0.024003274986505185,1.8119999999908032
-0.4919,0.9383,-0.0666,0.1392,0.2037,0.271,-0.8138,-2.03,-6.4138,-4.141179717882162,-27.65413705992294,-0.02932719074182196,1.8220000000001164
-0.4929,0.9348,-0.0702,0.1392,0.2037,0.271,-0.595,-1.9688,-6.5538,-4.171395205912861,-27.681197386490943,-0.029033918834403743,1.8220000000001164
-0.4921,0.9366,-0.0661,0.1397,0.2039,0.271,-0.595,-1.9688,-6.5538,-4.14491812050915,-27.673920097289333,-0.03370164814346233,1.8319999999948777
-0.4921,0.9366,-0.0661,0.1397,0.2039,0.271,-0.5425,-1.6187,-6.5188,-4.127472093810785,-27.66930066489257,-0.03485671016341732,1.842000000004191
-0.4926,0.9368,-0.0711,0.1373,0.2047,0.2787,-0.6913,-1.2337,-6.5887,-4.181631325005927,-27.669241424861884,-0.032188721566373424,1.8519999999844003
-0.4932,0.9394,-0.0666,0.1373,0.2047,0.2787,-0.595,-1.47,-6.6762,-4.156752149430433,-27.658451056345626,-0.03188678285072827,1.8619999999937136
-0.4954,0.9371,-0.0666,0.1373,0.2047,0.2787,-0.595,-1.47,-6.6762,-4.13872477005071,-27.714169322819078,-0.031567915022220984,1.8619999999937136
-0.4907,0.9373,-0.0689,0.1417,0.2049,0.2766,-0.6562,-1.6275,-6.5887,-4.154078733436851,-27.663848735965917,-0.03283143437117148,1.8719999999884749
-0.4907,0.9359,-0.0684,0.1417,0.2049,0.2766,-0.6037,-1.4088,-6.6413,-4.159329985325241,-27.642316954054937,-0.031917188526914074,1.881999999997788
-0.4912,0.9359,-0.0684,0.1399,0.2045,0.2736,-0.5512,-1.8288,-6.4925,-4.1627971092951945,-27.63845140178104,-0.035170085139773634,1.8919999999925494
-0.494,0.936,-0.0679,0.1399,0.2045,0.2736,-0.5512,-1.8288,-6.4925,-4.160505366337127,-27.676154054933235,-0.038390452791702646,1.9020000000018626
-0.4907,0.9353,-0.0689,0.1399,0.2045,0.2736,-0.665,-1.4787,-6.5363,-4.173121767511601,-27.65779896806266,-0.03811262676373005,1.911999999996624
-0.4938,0.9367,-0.0712,0.1388,0.2043,0.279,-0.5163,-1.4262,-6.5012,-4.197905029902944,-27.67975493325804,-0.037731500496092744,1.911999999996624
-0.4934,0.9374,-0.0659,0.1388,0.2043,0.279,-0.35,-1.47,-6.7025,-4.197875192910745,-27.68846157737988,-0.03737413399112136,1.9219999999913853
-0.4934,0.9374,-0.0659,0.139,0.2053,0.2826,-0.35,-1.47,-6.7025,-4.197845360960146,-27.69374212698816,-0.0370203411511997,1.9319999999861466
-0.4943,0.9378,-0.0689,0.139,0.2053,0.2826,-0.4375,-1.3212,-6.3787,-4.198177105368264,-27.702503759001292,-0.0366501377396877,1.9319999999861466
-0.4918,0.9392,-0.0648,0.139,0.2053,0.2826,-0.595,-1.0237,-6.0375,-4.1486939582088915,-27.700589963427287,-0.031885214858194476,1.9419999999954598
-0.4923,0.9376,-0.0703,0.1386,0.2039,0.2662,-0.595,-1.0237,-6.0375,-4.1761105727084455,-27.699565899164963,-0.027167941205516185,1.952000000004773
-0.4936,0.9376,-0.0684,0.1386,0.2039,0.2662,-0.2625,-1.5662,-6.3263,-4.175817588083444,-27.70007693973535,-0.027868590292951655,1.9619999999995343
-0.4936,0.936,-0.07,0.1405,0.2049,0.2797,-0.2975,-1.8813,-6.265,-4.180848204900625,-27.70687885327461,-0.03168172288787856,1.9719999999942956
-0.4929,0.936,-0.07,0.1405,0.2049,0.2797,-1.0325,-1.7325,-6.4488,-4.219849020813794,-27.706512184042406,-0.03136490565899977,1.9719999999942956
-0.4964,0.9373,-0.0701,0.14,0.2043,0.273,-1.0325,-1.7325,-6.4488,-4.243095475928782,-27.744300163583215,-0.033669955101037916,1.981999999989057
-0.4948,0.936,-0.0694,0.14,0.2043,0.273,-0.4288,-1.7938,-6.5363,-4.2429021045120665,-27.761631111003737,-0.03655882405303158,1.9919999999983702
-0.4943,0.9394,-0.0712,0.14,0.2043,0.273,-0.4025,-1.5838,-6.2737,-4.24747685906517,-27.747845878274763,-0.037339804311900614,2.0019999999931315
-0.4936,0.9359,-0.0692,0.1421,0.2032,0.2686,-0.6388,-1.4875,-6.3263,-4.243273536980782,-27.746822315583582,-0.03715960476896154,2.0120000000024447
-0.4936,0.9359,-0.0692,0.1421,0.2032,0.2686,-0.6388,-1.4875,-6.3263,-4.240012541499598,-27.74601801617215,-0.03678800872127192,2.0120000000024447
-0.493,0.936,-0.0664,0.1402,0.2035,0.277,-0.9538,-1.8025,-6.1775,-4.1713914636373595,-27.742814893717906,-0.03973182713232431,2.021999999997206
-0.4917,0.9371,-0.0684,0.1402,0.2035,0.277,-0.3675,-1.9338,-5.985,-4.171448579174219,-27.735152052432923,-0.043946077365295926,2.0320000000065193
-0.49,0.9366,-0.0695,0.1402,0.2035,0.277,-0.6562,-1.7062,-6.2387,-4.188423615508274,-27.706650757460103,-0.04586494509040751,2.0420000000012806
-0.4914,0.9375,-0.071,0.1395,0.2032,0.2764,-0.6562,-1.7062,-6.2387,-4.221844825427438,-27.68912767580203,-0.047764624138267986,2.051999999996042
-0.4914,0.9355,-0.0699,0.1395,0.2032,0.2764,-0.2887,-1.6625,-6.5712,-4.2248013905385,-27.674578189055453,-0.0472869778968853,2.051999999996042
-0.4945,0.9355,-0.0699,0.137,0.2045,0.2741,-0.1838,-1.33,-6.5625,-4.231687993333422,-27.715131029891456,-0.045448056618632084,2.061999999990803
-0.4956,0.9378,-0.0686,0.137,0.2045,0.2741,-0.385,-1.4612,-6.2387,-4.230058672755208,-27.727138569552448,-0.044926404552383205,2.0720000000001164
-0.4906,0.9368,-0.075,0.137,0.2045,0.2741,-0.385,-1.4612,-6.2387,-4.241856738060193,-27.701947805803382,-0.04440996900689456,2.0819999999948777
-0.4916,0.9364,-0.0662,0.1392,0.2041,0.2746,-0.8662,-1.7413,-6.1775,-4.174436534413028,-27.69515083003528,-0.04667168781934561,2.092000000004191
-0.4951,0.9356,-0.0737,0.1392,0.2041,0.2746,-0.4988,-1.6363,-6.6762,-4.217173503373113,-27.740619506850802,-0.046204970941152154,2.092000000004191
-0.4951,0.9356,-0.0737,0.1393,0.2038,0.2766,-0.4988,-1.2862,-6.4488,-4.254369432036189,-27.761305477988476,-0.043943249732683425,2.1019999999989523
-0.4943,0.9378,-0.0692,0.1393,0.2038,0.2766,-0.77,-1.2862,-6.4488,-4.244257488006987,-27.752130282948205,-0.04170414573368052,2.1120000000082655
-0.4942,0.9367,-0.0714,0.1393,0.2038,0.2698,-0.3325,-1.3737,-6.2825,-4.246211263184791,-27.751276875924976,-0.040353682778191007,2.121999999988475
-0.4917,0.9373,-0.071,0.1391,0.2042,0.2698,-0.455,-1.8288,-6.4488,-4.254361067980683,-27.712331753593887,-0.043522214453735844,2.131999999997788
-0.4934,0.9357,-0.0676,0.1391,0.2042,0.2698,-0.455,-1.8288,-6.4488,-4.242733819325936,-27.7205794471998,-0.043086992309198484,2.131999999997788
-0.4944,0.9367,-0.0692,0.1397,0.2042,0.2709,-0.315,-1.5925,-6.5712,-4.24214126841554,-27.734445686060443,-0.04388882088546073,2.1419999999925494
-0.4944,0.9367,-0.0692,0.1397,0.2042,0.2709,-0.0525,-1.4438,-6.5275,-4.238242305340979,-27.743059624929202,-0.043210501176383136,2.1520000000018626
-0.4907,0.9374,-0.0645,0.1388,0.2041,0.2792,-0.28,-1.715,-6.16,-4.218524908285733,-27.72692022585759,-0.04522384466333822,2.161999999996624
-0.4911,0.9359,-0.0728,0.1388,0.2041,0.2792,-0.28,-1.715,-6.16,-4.233494159548639,-27.716313904272614,-0.04721705471898234,2.172000000005937
-0.4907,0.9373,-0.0705,0.1388,0.2041,0.2792,-0.2975,-1.6363,-6.3088,-4.236874129368433,-27.685929169763046,-0.04674488417179252,2.172000000005937
-0.4939,0.937,-0.0653,0.1414,0.2056,0.2858,-0.4025,-1.6888,-6.51,-4.224348272148458,-27.70188401185262,-0.04846350382574823,2.1819999999861466
-0.4939,0.937,-0.0653,0.1414,0.2056,0.2858,-0.6913,-1.5575,-6.37,-4.1638109751190076,-27.710286107682244,-0.04886506728831609,2.19199999999546
-0.4944,0.9374,-0.0703,0.1402,0.2042,0.2734,-0.6913,-1.5575,-6.37,-4.195639333048961,-27.71782237184632,-0.049262615114968676,2.201999999990221
-0.4915,0.9363,-0.0684,0.1402,0.2042,0.2734,-0.4112,-1.4088,-6.195,-4.194633029407624,-27.707444988087744,-0.0481840574632733,2.2119999999995343
-0.4942,0.9373,-0.0719,0.1402,0.2042,0.2734,-0.0787,-1.82,-6.3,-4.235569022825465,-27.712211561289216,-0.04770221688864056,2.2119999999995343
-0.4964,0.9375,-0.0679,0.1399,0.2038,0.2769,-0.07,-1.4088,-6.0637,-4.2152217613404375,-27.713468461927317,-0.04663926322006111,2.2219999999942956
-0.4915,0.9381,-0.0715,0.1399,0.2038,0.2769,-0.07,-1.4088,-6.0637,-4.246557070066557,-27.712177814005326,-0.04558693908731481,2.232000000003609
-0.4915,0.9381,-0.0715,0.1405,0.2039,0.274,-0.5863,-1.6888,-6.3,-4.267972615292876,-27.686705885745916,-0.04731713819529645,2.24199999999837
-0.49,0.9383,-0.0683,0.1405,0.2039,0.274,-0.6037,-1.8288,-6.5975,-4.246777033964054,-27.625319531898203,-0.050416035311472186,2.2519999999931315
-0.4907,0.9351,-0.0722,0.1405,0.2039,0.274,-0.4988,-1.4262,-6.3525,-4.268601428975514,-27.623760133995138,-0.049911874958357465,2.2519999999931315
-0.4937,0.9371,-0.0709,0.139,0.2038,0.2781,-0.4988,-1.4262,-6.3525,-4.276133550831649,-27.644657726978984,-0.0489990847089906,2.261999999987893
-0.4939,0.9362,-0.0714,0.139,0.2038,0.2781,-0.2537,-1.6363,-6.335,-4.283599450187809,-27.66685134101444,-0.050175412363452576,2.271999999997206
-0.4939,0.9362,-0.0714,0.139,0.2041,0.2769,-0.0613,-1.4875,-6.2213,-4.300990118843619,-27.678176587939785,-0.04986685673971684,2.2819999999919673
-0.4923,0.9363,-0.0664,0.139,0.2041,0.2769,-0.0613,-1.6363,-6.2387,-4.246238540975242,-27.677824717564672,-0.051034506673871556,2.2920000000012806
-0.4919,0.9359,-0.0658,0.139,0.204,0.2749,-0.2975,-1.6363,-6.2387,-4.23507040547458,-27.67626721027116,-0.05052416160713284,2.2920000000012806
-0.4963,0.9369,-0.0709,0.14,0.204,0.2749,0.1575,-1.6712,-6.125,-4.266218780667427,-27.687412892398545,-0.052030748490007585,2.301999999996042
-0.4943,0.9391,-0.0684,0.14,0.204,0.2749,-0.3588,-1.4438,-6.545,-4.265326323056183,-27.69085900815315,-0.05127100950488452,2.312000000005355
-0.4925,0.9343,-0.0705,0.1387,0.2042,0.2739,-0.3588,-1.4438,-6.545,-4.265769860691777,-27.70313940694495,-0.050518867910309524,2.3219999999855645
-0.4925,0.9343,-0.0705,0.1387,0.2042,0.2739,-0.4375,-1.3737,-6.755,-4.269755846563737,-27.713442825998442,-0.04908025773033711,2.3319999999948777
-0.4945,0.9376,-0.066,0.139,0.2028,0.2762,-0.56,-1.5662,-6.5538,-4.227518633357085,-27.725377687152996,-0.04858945515303374,2.3319999999948777
-0.4912,0.9349,-0.0686,0.139,0.2028,0.2762,-0.4462,-1.61,-6.545,-4.2248063627444274,-27.701966279315755,-0.049509509100766874,2.341999999989639
-0.4936,0.9368,-0.0665,0.139,0.2028,0.2762,-0.4462,-1.61,-6.545,-4.210355882298307,-27.709688961756026,-0.050420362511068594,2.3519999999989523
-0.4913,0.9372,-0.0648,0.1382,0.2038,0.2794,-0.3063,-1.8988,-6.0813,-4.19971441164873,-27.706965252192845,-0.05418122738372357,2.3619999999937136
-0.4913,0.9372,-0.0648,0.1382,0.2038,0.2794,-0.4812,-1.26,-6.1337,-4.17132923332746,-27.69965776484936,-0.05363941510988634,2.3619999999937136
-0.4926,0.9384,-0.0713,0.14,0.2039,0.2743,-0.385,-1.4438,-6.5275,-4.177229802189618,-27.676874772069507,-0.05286358945856449,2.372000000003027
-0.494,0.9348,-0.0666,0.14,0.2039,0.2743,-0.385,-1.4438,-6.5275,-4.173762160459434,-27.714713902754735,-0.05209552206445269,2.381999999983236
-0.4961,0.9384,-0.0709,0.14,0.2039,0.2743,-0.6125,-1.68,-6.6588,-4.204334164289599,-27.745566744810624,-0.053673515345762965,2.3919999999925494
-0.4918,0.9364,-0.0662,0.1387,0.2038,0.2794,-0.3588,-1.47,-6.5363,-4.202907759955749,-27.71440395656928,-0.05315672869229488,2.4019999999873107
-0.4936,0.9364,-0.0692,0.1387,0.2038,0.2794,-0.3237,-1.4612,-6.6062,-4.203507984802266,-27.72014306017314,-0.052557989905309375,2.411999999996624
-0.4936,0.9364,-0.0692,0.1386,0.2036,0.2738,-0.3237,-1.4612,-6.6062,-4.20409292458726,-27.723839711928843,-0.05203241000625628,2.411999999996624
-0.4921,0.9379,-0.0638,0.1386,0.2036,0.2738,0.1575,-1.7062,-6.3263,-4.098885384490886,-27.703919016284313,-0.05387041440495827,2.4219999999913853
-0.4939,0.9373,-0.0674,0.1386,0.2036,0.2738,-0.1575,-1.6363,-6.0025,-4.101159594421856,-27.704975060666158,-0.05499802876246057,2.4320000000006985
-0.4918,0.9385,-0.0672,0.1404,0.2034,0.2675,-0.2187,-1.2163,-6.2475,-4.100514547980625,-27.687217405451,-0.05195636697614128,2.44199999999546
-0.491,0.9359,-0.0648,0.1404,0.2034,0.2675,-0.2187,-1.2163,-6.2475,-4.084309872880321,-27.677354613565758,-0.048945121807685184,2.451999999990221
-0.491,0.9359,-0.0712,0.1393,0.2031,0.2766,-0.595,-1.4,-6.2213,-4.136718243608708,-27.668379655711764,-0.048455670589608334,2.451999999990221
-0.4932,0.9366,-0.0712,0.1393,0.2031,0.2766,-0.4025,-1.1375,-6.5012,-4.147251615865887,-27.678971653722254,-0.04469931238542625,2.4619999999849824
-0.4938,0.9376,-0.0677,0.1403,0.2034,0.2689,-0.4025,-1.4,-6.4662,-4.146383978472469,-27.688844350452595,-0.043579267760945166,2.4719999999942956
-0.4915,0.9374,-0.0687,0.1403,0.2034,0.2689,-0.4988,-1.4,-6.4662,-4.152244994291199,-27.664642821498635,-0.04247042358270889,2.482000000003609
-0.4889,0.937,-0.0683,0.1403,0.2034,0.2689,-0.2275,-1.5137,-7.035,-4.154075889699399,-27.579165739735192,-0.04249829784664471,2.49199999999837
-0.4936,0.9374,-0.0683,0.1402,0.2045,0.2735,-0.2625,-1.61,-6.545,-4.155135591836583,-27.621326435707974,-0.042073314868178266,2.49199999999837
-0.4936,0.9374,-0.0683,0.1402,0.2045,0.2735,-0.2625,-1.61,-6.545,-4.156110182036975,-27.649597273353685,-0.04305853021875995,2.5019999999931315
-0.4926,0.9375,-0.0642,0.1387,0.2027,0.2696,-0.8838,-1.9425,-6.0113,-4.07305046825962,-27.650186201061018,-0.04732564342094742,2.5120000000024447
-0.491,0.9354,-0.0687,0.1387,0.2027,0.2696,-0.7088,-1.68,-5.845,-4.106721016367089,-27.647049391289112,-0.048951335485638375,2.521999999997206
-0.4941,0.9369,-0.0675,0.1387,0.2027,0.2696,-0.4988,-1.6625,-6.0462,-4.108548747331653,-27.647777227514176,-0.050387520629773176,2.5319999999919673
-0.4909,0.9359,-0.068,0.1391,0.2043,0.2779,-0.4988,-1.6625,-6.0462,-4.114656444493848,-27.64754104967667,-0.049883645423475446,2.5319999999919673
-0.4909,0.9359,-0.0674,0.1391,0.2043,0.2779,-0.245,-1.5575,-6.37,-4.115079533409271,-27.640220563075136,-0.050271007470066034,2.5420000000012806
-0.4954,0.9371,-0.0674,0.1402,0.2046,0.2735,-0.6388,-1.7587,-6.3088,-4.114805873223406,-27.673152374700443,-0.052646375893857636,2.551999999996042
-0.4924,0.9367,-0.0659,0.1402,0.2046,0.2735,-0.3938,-1.7675,-6.3612,-4.110994875587388,-27.67278209339122,-0.055085110637680616,2.562000000005355
-0.4939,0.9365,-0.0705,0.1402,0.2046,0.2735,-0.3938,-1.7675,-6.3612,-4.119171003811557,-27.68857544082223,-0.057499458029750435,2.5720000000001164
-0.4932,0.9376,-0.0672,0.1392,0.2035,0.2699,-0.42,-1.1812,-6.44,-4.117882091347128,-27.68758133549608,-0.05692446344945293,2.5720000000001164
-0.4934,0.9365,-0.068,0.1392,0.2035,0.2699,-0.6825,-1.3038,-6.44,-4.126649210060041,-27.696800421089037,-0.0547297873134446,2.5820000000094296
-0.4934,0.9365,-0.068,0.1412,0.2025,0.2746,-0.6562,-1.435,-6.0725,-4.132829708590056,-27.697241111535156,-0.05385593794095642,2.591999999989639
-0.4964,0.9365,-0.073,0.1412,0.2025,0.2746,-0.6562,-1.435,-6.0725,-4.20889672669067,-27.700144519504775,-0.05299082706124273,2.6019999999989523
-0.4931,0.937,-0.0684,0.1412,0.2025,0.2746,-0.4812,-1.4175,-5.915,-4.204975327973676,-27.699282668518247,-0.05196111729089213,2.6119999999937136
-0.4955,0.937,-0.0693,0.1397,0.2038,0.2858,-0.0962,-1.4612,-6.0988,-4.210010494297164,-27.703891107560548,-0.05144150611798321,2.6119999999937136
-0.4911,0.9357,-0.0665,0.1397,0.2038,0.2858,-0.4725,-1.925,-6.3088,-4.19418374580139,-27.689539102032562,-0.0554515395610171,2.622000000003027
-0.4911,0.9357,-0.0698,0.1381,0.2047,0.2756,-0.4725,-1.925,-6.3088,-4.202048973006014,-27.67688165845109,-0.05942147266303671,2.631999999997788
-0.4937,0.9361,-0.0698,0.1381,0.2047,0.2756,-0.2975,-1.575,-6.4575,-4.205147130216943,-27.69553154265991,-0.05988670643739303,2.6420000000071013
-0.4926,0.9368,-0.0636,0.1384,0.2028,0.2766,-0.7788,-1.7062,-6.4925,-4.108707508823976,-27.691595461879515,-0.061882000722689644,2.6530000000057044
-0.4929,0.9381,-0.0719,0.1384,0.2028,0.2766,-0.7788,-1.7062,-6.5538,-4.190996187308423,-27.67755121293234,-0.061499013562936924,2.653999999994994
-0.4946,0.9392,-0.0644,0.1384,0.2028,0.2766,-0.4025,-1.8463,-6.5538,-4.177566018148116,-27.69061985926287,-0.06462934193079566,2.6640000000043074
-0.4908,0.936,-0.0699,0.1405,0.2046,0.2768,-0.385,-1.575,-6.6325,-4.18073667599837,-27.659302938770566,-0.06504249701093269,2.6739999999990687
-0.4908,0.936,-0.0699,0.1405,0.2046,0.2768,-0.2187,-1.645,-6.7112,-4.191188253078116,-27.637840067450494,-0.0661445205399053,2.68399999999383
-0.4923,0.9367,-0.0703,0.141,0.2038,0.2729,-0.2187,-1.645,-6.7112,-4.202880198919049,-27.646150036273205,-0.06548307533450624,2.68399999999383
-0.492,0.9356,-0.0646,0.141,0.2038,0.2729,-0.3237,-1.5925,-6.4488,-4.196435624084477,-27.65637514482493,-0.06606094308051541,2.6939999999885913
-0.4917,0.9379,-0.0722,0.141,0.2038,0.2729,-0.3325,-1.4175,-6.7288,-4.1999371493882585,-27.632248097364645,-0.06490053214924478,2.7039999999979045
-0.4906,0.9382,-0.066,0.1409,0.2051,0.2748,-0.735,-1.5488,-6.3175,-4.1510105324587405,-27.6146130119853,-0.0650515953273332,2.713999999992666
-0.4906,0.9226,-0.0691,0.1409,0.2051,0.2748,-0.735,-1.5488,-6.3175,-4.187792051254606,-27.68165759014001,-0.06520114787480501,2.724000000001979
-0.4915,0.9356,-0.0691,0.1392,0.2038,0.2742,-0.5512,-1.7938,-6.3175,-4.193859071354086,-27.675099470180076,-0.06454913639605696,2.724000000001979
-0.4946,0.9376,-0.0675,0.1392,0.2038,0.2742,-0.805,-1.82,-6.5625,-4.17005318700153,-27.70081004953489,-0.06738859353027074,2.7339999999967404
-0.4939,0.9396,-0.0676,0.1392,0.2038,0.2742,-0.3938,-1.3825,-6.1775,-4.167738027702114,-27.697168301444098,-0.06586840609541139,2.7439999999915017
-0.4929,0.9365,-0.0706,0.1385,0.2043,0.2654,-0.3938,-1.3825,-6.1775,-4.173780517840483,-27.696591561418007,-0.06436342053490063,2.753999999986263
-0.4906,0.9324,-0.0679,0.1385,0.2043,0.2654,-0.42,-1.1812,-6.335,-4.173210570060713,-27.69504824732969,-0.06088061482690744,2.763999999995576
-0.4906,0.9324,-0.0679,0.1386,0.2038,0.2718,-0.2362,-1.2862,-6.8775,-4.172381778546624,-27.6925701885838,-0.060271808678638364,2.763999999995576
-0.4959,0.937,-0.0673,0.1386,0.2038,0.2718,-0.0263,-1.575,-6.265,-4.15669602076364,-27.71633272856583,-0.06072853909129697,2.7739999999903375
-0.4962,0.942,-0.0673,0.1386,0.2038,0.2718,-0.0263,-1.575,-6.265,-4.139532352858878,-27.71662229466848,-0.06118070220137069,2.7839999999996508
-0.4933,0.9365,-0.0698,0.1387,0.2024,0.2791,-0.4375,-1.5313,-6.7375,-4.149446735418528,-27.714974584382922,-0.06119571367902861,2.793999999994412
-0.4938,0.9325,-0.0636,0.1387,0.2024,0.2791,-0.7088,-1.8463,-6.7288,-4.08401673251602,-27.76868762243308,-0.06432907504572642,2.8040000000037253
-0.4938,0.9384,-0.0697,0.1405,0.2042,0.277,-0.1575,-1.6712,-6.37,-4.1104465038993165,-27.749564758779346,-0.06368578429526915,2.8040000000037253
-0.4923,0.9384,-0.0697,0.1405,0.2042,0.277,-0.1575,-1.6712,-6.37,-4.1326129756117,-27.71781712817993,-0.06506075494833494,2.8139999999839347
-0.4979,0.9401,-0.0678,0.1398,0.2057,0.2786,-0.0962,-1.6975,-6.2387,-4.131078597957217,-27.73773103569841,-0.06668234590096773,2.823999999993248
-0.4903,0.9353,-0.0695,0.1398,0.2057,0.2786,-0.0787,-1.82,-6.3088,-4.156382091165925,-27.709627599081408,-0.0695004709401324,2.833999999988009
-0.4904,0.9348,-0.0698,0.1398,0.2057,0.2786,-0.0787,-1.82,-6.6325,-4.180671842700989,-27.67538259796885,-0.07229041473397668,2.8439999999973224
-0.4928,0.9381,-0.063,0.1412,0.2042,0.2734,-0.0787,-1.5137,-6.6325,-4.108443015885681,-27.669990550658035,-0.07156751058663692,2.8439999999973224
-0.4928,0.9381,-0.063,0.1412,0.2042,0.2734,-0.4025,-1.6363,-6.545,-4.0951141062364576,-27.66692149537311,-0.07251815397989762,2.8539999999920838
-0.4926,0.9415,-0.0688,0.138,0.2042,0.268,-0.525,-1.61,-6.58,-4.10768560962301,-27.62877124039528,-0.07319892094140804,2.864000000001397
-0.4944,0.9367,-0.0675,0.138,0.2042,0.268,-0.525,-1.61,-6.58,-4.109773796007806,-27.675522646892688,-0.07387288023125743,2.8739999999961583
-0.4923,0.9353,-0.0681,0.138,0.2042,0.268,-0.9275,-1.505,-6.685,-4.129777723720426,-27.684191383229404,-0.07350059992875288,2.8839999999909196
-0.4948,0.9393,-0.0661,0.1396,0.2032,0.2848,-0.735,-1.6275,-6.2913,-4.1007418318351325,-27.69122714060117,-0.07276559392946536,2.8839999999909196
-0.4948,0.9341,-0.0673,0.1396,0.2032,0.2848,-0.5337,-1.75,-6.3437,-4.10387628026313,-27.726743211132728,-0.07482988648870809,2.893999999985681
-0.4906,0.9341,-0.0673,0.1397,0.2045,0.2736,-0.5337,-1.75,-6.3437,-4.10652391140137,-27.709030465441543,-0.07687353612642121,2.903999999994994
-0.4946,0.9334,-0.0703,0.1397,0.2045,0.2736,-0.4638,-1.7938,-6.1512,-4.127050766909534,-27.721707733153114,-0.07933036926816105,2.9140000000043074
-0.4932,0.9404,-0.0677,0.1397,0.2045,0.2736,-0.1575,-1.4612,-6.4837,-4.125535378041498,-27.689391904199077,-0.07846989407551462,2.9239999999990687
-0.4979,0.9381,-0.0692,0.1393,0.2044,0.2726,-0.3063,-1.9075,-6.475,-4.129427856271053,-27.74973534262546,-0.07768519513475948,2.9239999999990687
-0.496,0.9321,-0.0728,0.1393,0.2044,0.2726,-0.3063,-1.9075,-6.475,-4.143464577653805,-27.808111980228006,-0.08125954168113243,2.93399999999383
-0.496,0.9321,-0.0728,0.1394,0.2048,0.2693,-0.7,-1.7938,-6.4837,-4.227093519031168,-27.849777374125093,-0.08367251476732515,2.944000000003143
-0.4856,0.9254,-0.0628,0.1394,0.2048,0.2693,-0.8138,-1.645,-6.1863,-4.117814945234961,-27.824505896656756,-0.08458823811873384,2.9539999999979045
-0.4911,0.9371,-0.0688,0.1394,0.2048,0.2693,-0.2275,-1.5313,-5.9237,-4.12666469773016,-27.798004787048356,-0.08436917423721814,2.963999999992666
-0.495,0.9526,-0.0652,0.1376,0.2039,0.2722,-0.2275,-1.5313,-5.9237,-4.103644028387428,-27.752568240152385,-0.08352548249484595,2.963999999992666
-0.4926,0.9398,-0.067,0.1376,0.2039,0.2722,-0.5688,-1.8637,-6.51,-4.099004783331479,-27.705323789126314,-0.08660780617354602,2.974000000001979
-0.4926,0.9227,-0.0653,0.1404,0.206,0.2736,-0.8925,-2.3888,-6.6238,-4.081099762931034,-27.825724321214377,-0.09485779660703493,2.9839999999967404
-0.4868,0.9227,-0.0653,0.1404,0.206,0.2736,-0.5775,-1.4175,-6.23,-4.074981017041488,-27.81531850135149,-0.0934094171404991,2.9940000000060536
-0.4916,0.9322,-0.0691,0.1398,0.2034,0.2771,-0.5775,-1.4175,-6.23,-4.105460716705603,-27.80409082860936,-0.09197552146935595,3.004000000000815
-0.5019,0.9473,-0.0671,0.1398,0.2034,0.2771,0.1225,-0.7613,-5.5563,-4.088200786070411,-27.82144548456728,-0.09105576625466238,3.004000000000815
-0.4946,0.9389,-0.064,0.1398,0.2034,0.2771,-0.2275,-1.6975,-5.81,-4.067635903654706,-27.80253580975244,-0.09241740709092543,3.013999999995576
-0.4906,0.9318,-0.0675,0.1402,0.2038,0.2722,-0.2275,-1.6975,-6.3263,-4.075882428189475,-27.781726079718684,-0.09376543151882584,3.0239999999903375
-0.4906,0.9318,-0.0675,0.1402,0.2038,0.2722,-0.6913,-1.96,-6.3263,-4.093041945659232,-27.765374122225086,-0.097698725708174,3.0339999999996508
-0.4906,0.9336,-0.0603,0.1393,0.2043,0.2702,-0.3237,-1.5488,-6.4837,-4.082918982541179,-27.737451784596523,-0.09752180695067314,3.043999999994412
-0.4937,0.9412,-0.0674,0.1393,0.2043,0.2702,-0.0088,-1.7062,-6.2475,-4.086245406356758,-27.71817493431731,-0.0965465888811664,3.043999999994412
-0.4896,0.9424,-0.062,0.1393,0.2043,0.2702,-0.0088,-1.7062,-6.2475,-4.004305627812049,-27.666909526041948,-0.0979394514945511,3.0540000000037253
-0.4937,0.932,-0.0695,0.1392,0.2051,0.2754,-0.42,-1.96,-6.4925,-4.021379180562689,-27.72136041623283,-0.10183100547705386,3.0639999999984866
-0.4937,0.9365,-0.0673,0.1392,0.2051,0.2754,-0.42,-1.6013,-6.58,-4.027216037313253,-27.726503556214304,-0.1021325139235125,3.0740000000078
-0.4962,0.9365,-0.0673,0.1383,0.2034,0.2734,-0.2362,-1.5662,-6.37,-4.035703722528544,-27.757539933967337,-0.10208351728235307,3.083999999988009
-0.4956,0.9395,-0.0675,0.1383,0.2034,0.2734,-0.2362,-1.5662,-6.37,-4.043228840220156,-27.756083156188975,-0.10106268210952954,3.083999999988009
-0.4959,0.9371,-0.0642,0.1383,0.2034,0.2734,-0.5512,-1.9425,-6.2213,-4.0224338673865345,-27.76694333512394,-0.1047497537928093,3.0939999999973224
-0.4903,0.9352,-0.068,0.1388,0.2038,0.2683,-0.3063,-1.8988,-6.545,-4.028120552204754,-27.713501389011785,-0.10796732475264688,3.1039999999920838
-0.4936,0.9393,-0.0682,0.1388,0.2038,0.2683,-0.0088,-1.7413,-6.6238,-4.059827737085948,-27.694017720368592,-0.1095934700076404,3.114000000001397
-0.4936,0.9393,-0.0682,0.1407,0.2042,0.269,-0.0088,-1.7413,-6.6238,-4.083471623678572,-27.681608641382486,-0.1112033538061465,3.1239999999961583
-0.4909,0.9357,-0.066,0.1407,0.2042,0.269,-0.105,-2.2575,-6.1512,-4.073879308726883,-27.676541581527108,-0.11009132026808503,3.1239999999961583
-0.4923,0.9341,-0.0697,0.1407,0.2042,0.269,-0.4112,-1.6538,-6.4837,-4.085065730819463,-27.691137793355413,-0.1108299755671174,3.1340000000054715
-0.4908,0.9354,-0.0667,0.1411,0.2042,0.2685,-0.3237,-1.5137,-6.195,-4.084902400176479,-27.683078968877336,-0.11017425431120914,3.144000000000233
-0.4971,0.939,-0.0692,0.1411,0.2042,0.2685,-0.3237,-1.5137,-6.195,-4.08821075698437,-27.701557142219226,-0.10952509026785996,3.153999999994994
-0.4943,0.94,-0.0671,0.1402,0.2046,0.2731,-0.1138,-1.3212,-6.16,-4.087219108922037,-27.699269139655012,-0.10842983936518136,3.153999999994994
-0.4943,0.94,-0.0671,0.1402,0.2046,0.2731,-0.6475,-1.4262,-6.475,-4.086255372661042,-27.692889709232542,-0.10693186947174625,3.1639999999897555
-0.493,0.934,-0.0693,0.1393,0.2052,0.2697,-0.6475,-1.6712,-6.5188,-4.122302279102038,-27.71479255255931,-0.10787437927890246,3.1739999999990687
-0.4894,0.9324,-0.0655,0.1393,0.2052,0.2697,-0.385,-1.6712,-6.5188,-4.1187709112066875,-27.6898363445165,-0.1088074639850595,3.18399999999383
-0.4914,0.9344,-0.0645,0.1393,0.2052,0.2697,-0.3762,-1.54,-6.4837,-4.11440316460437,-27.68801295835409,-0.10843233784587289,3.194000000003143
-0.4951,0.9401,-0.0693,0.1386,0.202,0.2658,-0.105,-1.4963,-6.79,-4.13437818041536,-27.697082043174994,-0.10734801446741415,3.194000000003143
-0.4951,0.9401,-0.0693,0.1386,0.202,0.2658,-0.105,-1.4963,-4.55,-4.150424548003402,-27.70447941929668,-0.10655485282259317,3.2039999999979045
-0.4933,0.9377,-0.0647,0.1389,0.203,0.2767,-0.2187,-1.1025,-6.3525,-4.126850247473351,-27.701535801948996,-0.10187100279626275,3.213999999992666
-0.494,0.9334,-0.0697,0.1389,0.203,0.2767,-0.315,-1.715,-6.3263,-4.131686496877833,-27.727797007702467,-0.10329774126701903,3.223999999987427
-0.4915,0.9381,-0.0666,0.1389,0.203,0.2767,-0.455,-1.9775,-6.3437,-4.124948043378722,-27.697332225304635,-0.1073089623590466,3.2339999999967404
-0.4944,0.9384,-0.0658,0.14,0.2044,0.2767,-0.455,-1.9775,-6.3437,-4.114102530238013,-27.703505024754676,-0.10623587273545614,3.2339999999967404
-0.4946,0.936,-0.0684,0.14,0.2044,0.2767,-0.77,-1.7413,-6.2125,-4.133471596962856,-27.715336494855475,-0.10787933250668408,3.2439999999915017
-0.4946,0.936,-0.0684,0.1407,0.2046,0.2737,-0.5775,-1.6363,-6.405,-4.142020439122229,-27.734704687983033,-0.10846685768316912,3.254000000000815
-0.4898,0.9334,-0.0673,0.1407,0.2046,0.2737,-0.385,-1.4262,-6.16,-4.141408321085294,-27.72436308773817,-0.10696851760655414,3.263999999995576
-0.4927,0.9378,-0.0687,0.1407,0.2046,0.2737,-0.385,-1.4262,-6.16,-4.143052638772718,-27.717542814159422,-0.10548516093010334,3.2740000000048894
-0.4932,0.9379,-0.0702,0.1409,0.2043,0.2766,-0.35,-1.6975,-6.0113,-4.143075862890749,-27.715691495185137,-0.10670250781630548,3.283999999985099
-0.4939,0.9388,-0.072,0.1409,0.2043,0.2766,-0.3938,-1.89,-6.1863,-4.1532918612441465,-27.711460783586347,-0.10563548273814242,3.283999999985099
-0.4939,0.9388,-0.072,0.1403,0.2044,0.2706,0.0962,-1.575,-6.3437,-4.224959264096833,-27.70428864643052,-0.10563857641174769,3.293999999994412
-0.4936,0.9372,-0.0649,0.1403,0.2044,0.2706,0.0962,-1.575,-6.3437,-4.143645861739276,-27.70741517530638,-0.10564163914707521,3.3039999999891734
-0.4944,0.9349,-0.0705,0.1403,0.2044,0.273,-0.735,-1.5225,-6.5975,-4.190588292007627,-27.741437314925463,-0.10512492125610709,3.3139999999984866
-0.4905,0.9352,-0.0639,0.1389,0.2028,0.273,-0.7875,-1.82,-6.405,-4.104806465415692,-27.710272692142986,-0.10407367204354602,3.3139999999984866
-0.4951,0.9383,-0.0699,0.1389,0.2028,0.273,-0.4112,-1.5662,-6.4575,-4.113806516026953,-27.72264069199594,-0.10400526382260118,3.323999999993248
-0.4943,0.9385,-0.0651,0.1388,0.2042,0.2805,-0.4112,-1.5662,-6.4575,-4.1053772534544395,-27.721517603736764,-0.10393753968528072,3.334000000002561
-0.4943,0.9385,-0.0651,0.1388,0.2042,0.2805,-0.315,-1.3125,-6.0988,-4.100754113415011,-27.721397548755224,-0.09012196183862503,3.4170000000012806
-0.4933,0.9365,-0.0695,0.1399,0.2033,0.2799,-0.4025,-1.0762,-6.1163,-4.1079353688136635,-27.720910027572387,-0.08922074222023878,3.4170000000012806
-0.4933,0.9339,-0.0642,0.1399,0.2033,0.2799,-0.4025,-1.0762,-6.6325,-4.099160317260144,-27.745485682324244,-0.0844498633000683,3.426999999996042
-0.4923,0.9356,-0.0714,0.1399,0.2033,0.2799,-0.0875,-1.33,-6.6325,-4.154208161385278,-27.723030935765408,-0.08223931316579539,3.437000000005355
-0.4952,0.9372,-0.0664,0.139,0.2046,0.2722,-0.1925,-1.6363,-6.44,-4.140394742250803,-27.742243591020678,-0.0830832385332645,3.4470000000001164
-0.4952,0.9372,-0.0664,0.139,0.2046,0.2722,-0.1312,-1.3563,-6.4225,-4.124643079453727,-27.755643748511577,-0.08225240614793186,3.4470000000001164
-0.4975,0.9623,-0.0655,0.1391,0.2041,0.2738,-0.1312,-1.3563,-6.4225,-4.083245018125205,-27.62871242519055,-0.08032420058703178,3.4569999999948777
-0.6115,1.2326,-0.1769,0.1391,0.2041,0.2738,-1.3913,-6.0375,-8.8988,-6.166698212169157,-26.537870574916404,-0.12475915705746259,3.466999999989639
-0.637,0.9761,-0.1217,0.1391,0.2041,0.2738,-9.8437,-32.0075,-21.84,-7.017353969484805,-32.54583198336439,-0.12351156548688796,3.466999999989639
-0.4164,0.9748,-0.0435,0.1401,0.2062,0.2746,-17.85,-31.7887,-30.4587,-2.7963031514070877,-23.48129581854911,-0.4224515286115789,3.4769999999989523
-0.1563,0.6323,-0.561,0.1401,0.2062,0.2746,-17.85,-31.7887,-30.4587,-39.48419608571933,-10.987916656768174,-0.7184020916682108,3.4869999999937136
-0.1563,0.6323,-0.561,0.1411,0.207,0.2755,9.4675,-33.4513,-38.5612,-41.386823903879076,-10.49127583940296,-1.0278528895464176,3.497000000003027
-0.3958,1.6385,0.0916,0.1411,0.207,0.2755,48.9562,-40.8625,-44.4588,2.3134705944414877,-13.482082040778756,-1.0175743606509535,3.497000000003027
-0.9492,1.282,-0.3381,0.1411,0.207,0.2755,-51.03,-61.4688,-43.6188,-14.443495525485824,-35.02637103374941,-1.6014066852332616,3.506999999997788
-0.8852,1.5897,-0.0949,0.1418,0.2137,0.2804,-51.03,-61.4688,-43.6188,-3.6296936159319606,-29.221798497318538,-2.1794006874341423,3.5170000000071013
-0.534,1.4918,0.5382,0.1418,0.2137,0.2804,-86.0912,-37.1263,-46.4188,19.567487181003205,-18.865667922968036,-2.5106239983611585,3.5269999999873107
-0.534,1.4918,0.3508,0.1444,0.2237,0.3038,-114.8,-24.2288,-1.0325,13.287682393313334,-19.153656656259766,-2.4855177583775467,3.5269999999873107
-0.0318,1.0865,0.3515,0.1444,0.2237,0.3038,-124.8187,-15.8375,49.8925,17.890240155280367,-1.9034542624861746,-2.602920779426259,3.536999999996624
-0.3079,1.1529,0.2672,0.1239,0.2286,0.3122,-124.8187,-15.8375,49.8925,13.087273184630513,-14.36065616104109,-2.719149770057472,3.5469999999913853
-0.6672,1.0677,0.4452,0.1333,0.2286,0.3122,-115.5175,-32.1475,33.1975,22.55253699749832,-29.586860534357875,-2.9956854711397654,3.5570000000006985
-0.8817,1.2459,-0.0949,0.1333,0.2286,0.3122,-113.6625,-47.2762,24.6225,-4.120406869873809,-35.03075213624473,-2.965728616428368,3.5570000000006985
-0.8274,1.2875,-0.1347,0.1235,0.2395,0.3357,-147.2275,-55.4925,34.5713,-5.960108759379589,-32.64353712210026,-3.4709140284838966,3.56699999999546
-0.8274,1.2875,-0.1347,0.1235,0.2395,0.3357,-147.2275,-55.4925,34.5713,-5.972549460547971,-32.586186591960875,-3.971047587197169,3.577000000004773
-0.8129,1.2932,-0.0836,0.1133,0.2573,0.3572,-164.3338,-69.8863,27.7113,-3.7125687148308253,-32.11348734458165,-3.9313371113251976,3.577000000004773
-0.9214,1.422,0.1214,0.1133,0.2573,0.3572,-190.61,-76.5713,37.59,4.83473971686616,-32.83035156651214,-4.635546558322438,3.5869999999995343
-0.7466,1.3104,-0.0088,0.1133,0.2573,0.3572,-213.01,-85.0062,65.0738,-0.3603354087925499,-29.715550587340104,-5.41621942080596,3.5969999999942956
-0.649,1.1328,-0.0267,0.0979,0.2741,0.381,-213.01,-85.0062,65.0738,-1.3455737491838342,-29.80104977383961,-6.189085554664646,3.606999999989057
-0.649,0.8049,0.3548,0.0979,0.2741,0.381,-222.25,-80.535,82.4425,23.675133337480553,-36.34635716322011,-6.9099581483470045,3.61699999999837
-0.6533,0.7985,0.3548,0.0796,0.2923,0.4096,-207.0863,-74.4713,87.605,23.955805034554565,-36.779883496638064,-6.840858566863535,3.61699999999837
-0.6375,0.8714,-0.1419,0.0796,0.2923,0.4096,-207.0863,-74.4713,101.8325,-9.089102286601829,-35.8406384536914,-7.495182799316281,3.6269999999931315
-0.5544,0.9614,0.0858,0.0796,0.2923,0.4096,-194.3375,-59.2813,101.8325,5.027074060974172,-29.926850322732637,-7.992582790356162,3.6370000000024447
-0.4757,0.7229,0.2283,0.0677,0.3074,0.4268,-177.1087,-40.95,121.7913,17.456388420532214,-32.09115314917104,-7.9126569624526,3.6370000000024447
-0.5445,0.7901,0.2852,0.0677,0.3074,0.4268,-143.7888,-32.9,138.95,19.831350570062497,-32.946042478771844,-8.14470734116506,3.646999999997206
-0.5445,0.7901,0.2852,0.0519,0.3173,0.4383,-143.7888,-32.9,138.95,19.847793239004073,-32.95189773731375,-8.374437216090392,3.6569999999919673
-0.2347,0.4002,0.0793,0.0519,0.3173,0.4383,-128.5375,-34.6937,126.91,11.274904541747437,-29.933307617613867,-8.61962742225717,3.6669999999867287
-0.5059,0.6379,0.4535,0.0519,0.3173,0.4383,-81.1038,-29.1812,98.21,35.11481223493648,-32.84959839937901,-8.807791976790115,3.676999999996042
-0.5554,1.0429,0.5181,0.0398,0.3213,0.443,-59.7363,-33.915,115.29,26.56165124202998,-25.558499085677823,-8.719714057022214,3.676999999996042
-0.3092,0.9348,0.6212,0.0398,0.3213,0.443,-59.7363,-33.915,115.29,33.48847801584354,-15.485131234184882,-8.953742364783713,3.686999999990803
-0.3092,0.6864,0.4824,0.0206,0.3246,0.4537,-74.2175,-55.6675,130.5937,35.07792379126409,-20.19694935499092,-9.4007801401356,3.6970000000001164
-0.3076,0.6864,0.4824,0.0206,0.3246,0.4537,-82.6787,-69.055,116.3838,35.09918304345821,-20.135669155673533,-9.306772338734245,3.6970000000001164
-0.2628,0.688,0.3066,0.0034,0.3317,0.4578,-86.9837,-63.28,103.9413,24.146072513337206,-19.24199595106276,-9.825643563526326,3.7069999999948777
-0.2573,0.7171,0.2329,0.0034,0.3317,0.4578,-86.9837,-63.28,103.9413,18.062994878309617,-18.84626895238815,-10.339326076960974,3.717000000004191
-0.1947,0.6988,0.111,0.0034,0.3317,0.4578,-86.5987,-50.75,92.8375,9.129250673207256,-15.419988273644224,-10.723824763725796,3.7269999999844003
-0.156,0.7433,0.1874,-0.0086,0.3418,0.4714,-92.68,-33.67,88.0425,14.096650165027766,-11.544181513871473,-10.616586516088537,3.7269999999844003
-0.156,0.7433,0.1874,-0.0086,0.3418,0.4714,-100.0038,-19.005,89.985,14.149916050838048,-11.503416143015217,-10.684037099589345,3.7369999999937136
-0.1042,0.6595,0.3918,-0.0184,0.351,0.4749,-100.0038,-19.005,89.985,30.549407775690764,-7.774295838676132,-10.750813177002499,3.746999999988475
-0.1474,0.6576,0.5954,-0.0184,0.351,0.4749,-95.375,-25.1912,79.8175,42.037228521764135,-9.41497869289623,-10.878164873951205,3.756999999997788
-0.0733,0.5946,0.6384,-0.0184,0.351,0.4749,-94.7887,-34.895,71.6363,46.98210841280014,-4.861317587849844,-11.100310673538331,3.7669999999925494
0.0046,0.5869,0.6723,-0.028,0.3607,0.4902,-78.9163,-35.9538,65.695,48.85605460767628,0.22444215096996936,-10.989307566802948,3.7669999999925494
0.0589,0.5584,0.6949,-0.028,0.3607,0.4902,-78.9163,-35.9538,65.695,51.18606876743925,3.7312515421080508,-11.22082405995288,3.7770000000018626
0.0589,0.5584,0.6949,-0.0372,0.3671,0.4861,-61.7925,-28.8137,64.8112,51.21525042386327,3.779447715805625,-11.379338397711528,3.786999999996624
-0.081,0.6329,0.7117,-0.0372,0.3671,0.4861,-50.8812,-25.0863,62.7813,48.40949585420626,-4.737445151042064,-11.265545013734412,3.786999999996624
-0.0716,0.5924,0.5064,-0.0372,0.3671,0.4861,-50.8812,-25.0863,65.1875,40.677751760755896,-5.242060144845959,-11.386710881974578,3.7969999999913853
-0.0142,0.584,0.4441,-0.0454,0.3712,0.4944,-37.9137,-28.42,65.1875,37.33985876583625,-1.1660124434931058,-11.53966872151505,3.8069999999861466
0.0077,0.6216,0.4722,-0.0454,0.3712,0.4944,-22.2687,-22.26,70.4287,37.22734480464507,0.5428057792388542,-11.630112982991603,3.81699999999546
0.0077,0.6216,0.4722,-0.0535,0.371,0.4857,-19.425,-16.8088,71.4437,37.222467302623144,0.5648637876387429,-11.513811853161688,3.81699999999546
0.0156,0.6226,0.5567,-0.0535,0.371,0.4857,-19.425,-16.8088,71.4437,41.57350392992485,1.0636297245764361,-11.550547803271515,3.827000000004773
0.0698,0.6079,0.5835,-0.0535,0.371,0.491,-24.745,-14.1138,73.325,43.73801332810279,4.6896901271349885,-11.560235893673214,3.8369999999995343
0.0689,0.5759,0.619,-0.0593,0.3743,0.491,-30.2838,-13.09,75.8713,46.958185291447016,4.659281100072327,-11.559691483176206,3.8469999999942956
0.113,0.64,0.6544,-0.0593,0.3743,0.491,-36.7325,-9.1962,74.3575,45.672712412046266,7.0084548550230386,-11.444094568344443,3.8469999999942956
0.1566,0.729,0.6703,-0.064,0.3771,0.4926,-36.7325,-9.1962,74.3575,42.680129427789744,8.96148689474182,-11.406162951120917,3.856999999989057
0.1566,0.729,0.6703,-0.064,0.3771,0.4926,-47.8013,-1.0237,69.4837,42.59957408320276,8.985457622889246,-11.287702900105613,3.86699999999837
0.0173,0.8232,0.7125,-0.0669,0.387,0.4994,-60.0863,6.1775,66.29,40.90536143229755,1.0204640203072057,-11.174825871104556,3.86699999999837
0.0415,0.5837,0.6083,-0.0669,0.387,0.4994,-61.5737,3.2725,79.6075,46.0974732740943,2.7974220317814624,-11.016146810918096,3.8769999999931315
0.074,0.4122,0.5998,-0.0669,0.387,0.4994,-61.5737,3.2725,79.6075,55.35087852895282,5.771086533226979,-10.859054541265207,3.8870000000024447
0.0734,0.4028,0.5843,-0.0734,0.3923,0.5106,-47.6525,0.2362,78.8988,55.41730745618437,5.903322337237615,-10.750463995852556,3.8870000000024447
0.0734,0.4028,0.5843,-0.0734,0.3923,0.5106,-30.9487,-6.8162,66.5263,55.4186673513469,5.9048577676803164,-10.695906684366292,3.896999999997206
0.0359,0.4942,0.6179,-0.077,0.3956,0.5009,-23.8962,-7.1925,67.1387,51.512854753845986,2.6424604227097146,-10.64562031607541,3.9070000000065193
0.0422,0.2665,0.5926,-0.077,0.3956,0.5009,-23.8962,-7.1925,67.1387,65.20445099194777,3.7014652645731614,-10.595836811384968,3.9170000000012806
0.1297,0.5524,0.5146,-0.077,0.3956,0.5009,-3.22,-4.725,55.9038,48.715874092771124,9.652097986474777,-10.489878443271119,3.9170000000012806
0.1263,0.3358,0.6494,-0.0833,0.3934,0.4997,7.6125,-15.47,51.4938,61.10133796105819,9.798975833772344,-10.523599607265787,3.926999999996042
0.0405,0.5088,0.612,-0.0833,0.3934,0.4997,24.2638,-13.2563,51.6162,50.684028013845634,3.030475891739454,-10.53506792963199,3.936999999990803
0.0405,0.5088,0.612,-0.088,0.3887,0.4995,24.2638,-13.2563,51.6162,50.27731840101439,2.9151100643363987,-11.129943161308498,3.996999999988475
0.1727,0.4954,0.581,-0.088,0.3887,0.4995,28.7262,-4.8825,57.9775,49.57112797921928,12.593859857503716,-11.052447428226897,4.006999999997788
0.0933,0.4317,0.5904,-0.088,0.3887,0.4995,31.3075,5.9237,51.0125,53.69547794669068,7.361344761467677,-10.868745272482963,4.016999999992549
0.065,0.4801,0.6322,-0.0898,0.3829,0.4928,31.3075,5.9237,41.895,52.81437505941994,4.735755457966772,-10.68688013818998,4.027000000001863
0.155,0.5197,0.632,-0.0898,0.3829,0.4928,40.2762,7.8837,41.895,50.6231298950245,10.604144079430133,-10.58001133680808,4.027000000001863
0.155,0.5197,0.6007,-0.0921,0.3779,0.4946,43.8638,2.6163,34.5887,49.16795156564911,11.031309397958557,-10.433776801961182,4.036999999996624
0.1731,0.542,0.6002,-0.0921,0.3779,0.4946,42.8225,-2.4762,24.6575,47.94526462826809,12.048496604079942,-10.339420362450866,4.047000000005937
0.1274,0.6205,0.565,-0.0921,0.3728,0.4857,42.8225,-2.4762,24.6575,42.446972487414754,8.740029031310902,-10.246007487306604,4.056999999986147
0.2017,0.7302,0.5934,-0.0959,0.3728,0.4857,43.9075,-8.3562,21.9013,39.173148177018156,11.98316749856082,-10.143547412433538,4.056999999986147
0.1469,0.7823,0.5549,-0.0959,0.3728,0.4857,40.6437,-15.9687,23.0037,35.43985994446707,8.816809675319519,-10.185669016942901,4.06699999999546
0.1288,0.6968,0.6069,-0.1001,0.3673,0.4924,32.1475,-22.3738,31.325,40.887628834612386,7.958146849676478,-10.290779895165048,4.076999999990221
0.1288,0.6968,0.6069,-0.1001,0.3673,0.4924,32.1475,-22.3738,31.325,41.05026175871447,7.9357734201733665,-10.39483966490615,4.086999999999534
0.1299,0.6479,0.6177,-0.1089,0.3605,0.4867,37.2487,-32.095,41.7025,43.56614175688499,8.250104103611989,-10.59409871659825,4.096999999994296
0.176,0.6134,0.5941,-0.1089,0.3605,0.4867,45.1763,-37.135,44.9313,44.0731576880804,11.580460637951665,-10.488157729432267,4.096999999994296
0.1761,0.6342,0.6356,-0.1089,0.3605,0.4867,48.9125,-30.3188,49.2625,45.043473707873225,11.105031914276267,-10.66889922090395,4.107000000003609
0.2074,0.5841,0.5675,-0.1194,0.3543,0.493,48.9125,-30.3188,49.2625,44.191449804267165,14.231256148574401,-10.847833297045282,4.11699999999837
0.2074,0.5528,0.4552,-0.1194,0.3543,0.493,55.23,-26.6875,52.4562,39.553008822275785,16.12008615951866,-10.989028162444033,4.1269999999931315
0.2763,0.5469,0.4552,-0.1274,0.3444,0.4818,65.1787,-23.2663,48.2125,39.768263794086046,21.129182544665035,-11.09494119920654,4.136999999987893
0.262,0.5505,0.4697,-0.1274,0.3444,0.4818,74.8825,-18.4188,33.7313,40.462391378743334,19.93304725230343,-10.983991787214475,4.136999999987893
0.2715,0.5669,0.4701,-0.1274,0.3444,0.4818,74.8825,-18.4188,33.7313,39.67754312153783,20.229301215180378,-11.041964937998618,4.146999999997206
0.2758,0.6418,0.5025,-0.131,0.3336,0.4756,88.1913,-15.3125,21.665,38.07738933248987,18.747077461990127,-11.068605987046828,4.156999999991967
0.4006,0.3953,0.5051,-0.131,0.3336,0.4756,97.6937,-14.4637,14.8837,51.81255904376398,31.384324736587335,-11.08657750579618,4.167000000001281
0.4006,0.3953,0.5051,-0.1328,0.3174,0.461,121.485,4.3663,1.8288,51.95151111303595,31.91994709837237,-10.975711730738219,4.167000000001281
0.26,0.7409,0.548,-0.1328,0.3174,0.461,121.485,4.3663,1.8288,36.61403442659747,17.57547528490245,-10.808195191961094,4.176999999996042
0.2887,0.743,0.5212,-0.1328,0.3174,0.461,123.7425,12.0225,-17.7625,35.061422236384516,17.640293061045636,-10.5665574384171,4.187000000005355
0.2427,0.799,0.3728,-0.1314,0.3002,0.4536,120.3388,6.8425,-29.645,25.09554278807767,15.481919334333588,-10.460891864032929,4.187000000005355
0.3478,0.871,0.3832,-0.1314,0.3002,0.4536,113.6188,14.2013,-31.9113,23.7590171144428,19.906335708826333,-10.201157024199604,4.1969999999855645
0.3478,0.858,0.4048,-0.124,0.2874,0.4417,112.2363,14.2013,-31.9113,25.244503857310598,20.12488252767389,-9.944019532313135,4.206999999994878
0.2769,0.858,0.4048,-0.124,0.2874,0.4417,109.8913,16.5112,-44.17,25.25757947306708,16.369663805642755,-9.666585405583248,4.216999999989639
0.2166,0.995,0.4054,-0.1197,0.2719,0.4398,106.715,13.6763,-52.465,22.19640093178237,11.502779477879246,-9.419991129887785,4.226999999998952
0.215,1.0426,0.4138,-0.1197,0.2719,0.4398,106.715,13.6763,-54.705,21.652828052448847,10.863470358923125,-9.17586279716745,4.236999999993714
0.2225,1.0737,0.3816,-0.1197,0.2719,0.4398,94.2988,7.3763,-55.4575,19.587368042066355,11.04498644269843,-8.99654574761423,4.247000000003027
0.1965,1.1026,0.3883,-0.1131,0.2618,0.43,81.2087,5.1887,-54.9762,19.402874480158303,9.572087070301041,-8.906580290138088,4.247000000003027
0.1965,1.1026,0.3883,-0.1131,0.2618,0.43,72.1963,-3.92,-52.9287,19.400643137616562,9.542609152235437,-8.841789435688664,4.256999999983236
0.1916,1.0562,0.3514,-0.11,0.2537,0.4238,72.1963,-3.92,-52.9287,18.41596750272154,9.761854547934936,-8.777646489854385,4.266999999992549
0.1772,1.0063,0.3406,-0.11,0.2537,0.4238,64.7063,-13.8775,-53.0513,18.69500794674189,9.475597616935246,-8.812724223391482,4.276999999987311
0.1546,0.9898,0.3043,-0.11,0.2537,0.4238,62.8425,-20.265,-54.0225,17.114318599467445,8.511463198710459,-8.724596981157568,4.276999999987311
0.1581,0.9487,0.263,-0.1078,0.2478,0.4166,57.6538,-22.2775,-52.045,15.521968029828814,9.110347466998936,-8.843365210037858,4.286999999996624
0.1652,0.8334,0.2634,-0.1078,0.2478,0.4166,57.6538,-22.2775,-52.045,17.505195048259296,10.66924356709788,-8.960945756329554,4.296999999991385
0.1652,0.8334,0.2634,-0.1078,0.2406,0.4123,54.3462,-22.1025,-50.645,17.53877258358837,10.702395550295835,-8.87133629876626,4.296999999991385
0.1595,0.7544,0.2897,-0.1078,0.2406,0.4123,53.6725,-18.0688,-55.1512,20.94443602044066,11.15592645197944,-9.275667141259463,4.326999999990221
0.1434,0.7532,0.2827,-0.1078,0.2406,0.4123,54.53,-12.565,-63.4725,20.57936836253554,10.12456766956695,-9.292770918289317,4.336999999984982
0.1207,0.8412,0.3004,-0.1005,0.2326,0.414,54.53,-12.565,-63.4725,19.66869213135486,7.737214613827564,-9.30970365770874,4.346999999994296
0.1412,0.8201,0.2491,-0.1005,0.2326,0.414,55.1338,-11.55,-69.0813,16.94490662205853,9.329737899523678,-9.31641856972461,4.357000000003609
0.1412,0.8201,0.2491,-0.0962,0.2265,0.3994,55.8688,-14.7525,-73.6838,16.896672893688308,9.354636808862297,-9.223254384027364,4.357000000003609
0.1275,0.8361,0.2398,-0.0962,0.2265,0.3994,61.565,-22.1025,-80.045,16.017503873840816,8.352791960690617,-9.335303538580073,4.36699999999837
0.1283,0.8226,0.2599,-0.0962,0.206,0.3961,61.565,-22.1025,-80.045,17.509799284809166,8.457742762370318,-9.446232201587256,4.3769999999931315
0.1147,0.8284,0.2554,-0.0894,0.2206,0.3961,65.6425,-28.0875,-86.9925,17.14039839635018,7.548488663520208,-9.615303078316817,4.387000000002445
0.0877,0.8139,0.2608,-0.0894,0.2206,0.3961,70.5687,-29.4875,-91.9275,17.75843196868431,5.878262673283211,-9.796543245888332,4.396999999997206
0.0797,0.7756,0.2512,-0.083,0.211,0.3909,74.4275,-29.645,-96.6525,17.943537575752387,5.5866911896626,-9.698577813429448,4.396999999997206
0.0797,0.7756,0.2512,-0.083,0.211,0.3909,74.4275,-29.645,-96.6525,17.945980332769892,5.5835080536492825,-9.992125463071751,4.410999999992782
0.0663,0.8029,0.2159,-0.0778,0.2066,0.3802,79.4413,-28.5775,-104.5975,15.086663548392117,4.569577275599252,-10.08007314733167,4.41799999999057
0.0589,0.8307,0.1704,-0.0778,0.2066,0.3802,82.075,-29.3563,-114.73,11.634063276244326,3.9786948860314015,-10.034491279770487,4.419999999998254
0.0333,0.8307,0.172,-0.0778,0.2066,0.3802,82.075,-29.3563,-125.1862,11.697268909465077,2.2623451397889904,-10.210240685729914,4.430000000007567
-0.0114,0.8898,0.156,-0.0643,0.1995,0.378,82.9587,-28.0963,-125.1862,9.964846130321959,-0.6981491636818321,-10.371758596850894,4.439999999987776
-0.0114,0.8898,0.1248,-0.0643,0.1995,0.378,80.8587,-25.655,-135.31,8.00810425902857,-0.7266907424496274,-10.268041010882385,4.439999999987776
-0.0333,0.8884,0.1244,-0.0487,0.1926,0.3584,77.175,-22.7588,-142.6425,7.971599351812655,-2.115728546307628,-10.376139669469865,4.44999999999709
-0.0867,0.9528,0.1221,-0.0487,0.1926,0.3584,77.175,-22.7588,-142.6425,7.311093803329072,-5.135257274325345,-10.483157341164747,4.459999999991851
-0.1209,1.0013,0.0703,-0.0487,0.1926,0.3584,74.935,-21.1925,-148.4613,4.059267370920167,-6.85591128580815,-10.57359846643496,4.470000000001164
-0.146,0.9792,0.0165,-0.031,0.1885,0.3499,69.755,-23.03,-154.0963,1.008882374998303,-8.46832299793473,-10.467862481770611,4.470000000001164
-0.1784,1.0084,0.0357,-0.031,0.1885,0.3499,67.1038,-23.7038,-160.1862,2.0126923139797745,-10.016414325481337,-10.583318425337584,4.4799999999959255
-0.1784,1.0084,0.0357,-0.0147,0.1862,0.3412,67.1038,-23.7038,-160.1862,2.027356400081817,-10.026393479996596,-10.697619809789225,4.490000000005239
-0.2392,1.0662,0.0427,-0.0147,0.1862,0.3412,61.0662,-24.605,-166.39,2.289137541491579,-12.618858079772039,-10.819700059738016,4.499999999985448
-0.255,1.1387,0.0305,-0.0147,0.1862,0.3412,50.365,-27.6675,-168.2363,1.5488928239368192,-12.618164178658368,-10.711503059140636,4.499999999985448
-0.2808,1.1434,-0.0023,0.0046,0.1884,0.3329,35.6125,-30.8962,-165.5325,-0.07023010857448463,-13.790449595695392,-10.89572735732056,4.509999999994761
-0.3138,1.1372,-0.019,0.0046,0.1884,0.3329,35.6125,-30.8962,-165.5325,-0.9331954472390748,-15.414127605422083,-11.07810941209473,4.519999999989523
-0.3138,1.1372,0.0064,0.0201,0.1929,0.3358,22.0063,-32.6025,-161.4375,0.26868828975414116,-15.426049524340986,-11.275560016760846,4.529999999998836
-0.3231,1.1328,0.0064,0.0201,0.1929,0.3358,5.8012,-35.5775,-160.93,0.3160084754611898,-15.915935347539069,-11.162804416593238,4.529999999998836
-0.3636,1.0976,0.011,0.0322,0.2004,0.3357,-8.2425,-37.3537,-161.2975,0.5451581635688864,-18.312099266418997,-11.406444950741191,4.539999999993597
-0.3927,1.0823,0.0389,0.0322,0.2004,0.3357,-8.2425,-37.3537,-161.2975,1.8882658743417395,-19.920500082598807,-11.647649080064648,4.55000000000291
-0.3722,1.0716,0.0318,0.0322,0.2004,0.3357,-21.3325,-39.9613,-164.5437,1.7083427067890684,-19.15074644047754,-11.912256407564362,4.559999999997672
-0.7534,0.9567,0.0136,0.0536,0.2106,0.3406,-23.8438,-35.28,-174.23,0.8509301674313257,-38.10486836906972,-11.793133843488718,4.559999999997672
-0.7534,0.9567,0.0136,0.0536,0.2106,0.3406,35.49,-22.3825,-142.5375,0.8154258013286221,-38.21675248100369,-11.882256203445362,4.569999999992433
-0.6166,1.3406,0.8309,0.0598,0.2063,0.3326,35.49,-22.3825,-142.5375,30.949710611928733,-21.475306937640596,-11.970487339802439,4.579999999987194
-0.8564,1.2815,0.0146,0.0598,0.2063,0.3326,105.0612,-81.165,-83.9563,0.9374532623722941,-33.59667542668554,-12.639782915639229,4.5899999999965075
-0.0355,0.8568,-0.3005,0.0598,0.2063,0.3326,58.7825,-66.6225,-13.7812,-18.989976570032734,-5.831990646870215,-12.513385086482836,4.5899999999965075
-0.171,0.5147,-0.3942,0.0574,0.2038,0.3327,58.7825,-66.6225,-40.7837,-37.14093632257059,-14.525582390445555,-13.033280933780096,4.599999999991269
-0.171,1.4082,-0.3978,0.0574,0.2038,0.3327,10.7975,-7.3325,-40.7837,-17.533316225854932,-6.88525852512841,-12.961006822996367,4.610000000000582
-0.5587,1.4082,-0.3978,0.0706,0.2054,0.325,10.2025,90.72,-45.7537,-15.926623718521185,-20.552883577937376,-12.831396754766404,4.610000000000582
-0.549,1.1385,-0.0928,0.0706,0.2054,0.325,6.7288,65.5462,-28.665,-6.054550812093486,-25.453128747898756,-9.385880630491085,4.6599999999889405
-0.4746,0.9224,-0.037,0.0706,0.2054,0.325,6.7288,65.5462,-28.665,-2.762174582391985,-27.133987589051138,-8.628581392068298,4.669999999998254
-0.4738,1.0968,-0.2229,0.0742,0.2031,0.3226,46.0687,33.2588,-16.485,-11.303625752305694,-23.3109136330006,-8.19850040682772,4.679999999993015
-0.4949,0.8078,-0.1735,0.0742,0.2031,0.3226,54.5213,-5.8012,-26.4775,-12.107234639416351,-30.566019321551785,-8.159414231299396,4.690000000002328
-0.4949,0.8078,-0.1735,0.0754,0.1986,0.3225,55.9825,-21.91,-35.6912,-12.121624578052492,-30.90965254507822,-8.077820088986401,4.690000000002328
-0.5156,0.901,-0.1144,0.0754,0.1986,0.3225,55.9825,-21.91,-35.6912,-7.321340981215542,-29.626664370983153,-8.19941783649052,4.69999999999709
-0.4753,1.0007,-0.0899,0.0754,0.1986,0.3225,64.26,-5.8625,-18.5238,-5.166852865967833,-25.63700755092029,-8.160929356602823,4.709999999991851
-0.4483,0.9387,-0.0772,0.0774,0.1946,0.3095,46.76,-0.8838,-4.8387,-4.711176896504328,-25.536059660637218,-8.079320063036795,4.709999999991851
-0.4721,0.9268,-0.0792,0.0774,0.1946,0.3095,25.3225,13.86,1.5313,-4.877870171418833,-26.749513503118294,-7.846779810985923,4.719999999986612
-0.4721,0.8863,0.0143,0.077,0.1923,0.2982,25.3225,13.86,1.5313,0.7068207232001498,-27.88925891537818,-7.6165649612347375,4.7299999999959255
-0.1537,0.8863,0.0143,0.077,0.1923,0.2982,11.5325,30.6425,7.07,0.9074715849373685,-11.115150023273898,-7.222505509826328,4.740000000005239
-0.0691,1.122,0.1858,0.083,0.1926,0.3008,6.2125,42.0262,-10.2812,8.27932950530856,-4.938111784990575,-7.1502804547280645,4.740000000005239
-0.5173,1.0343,0.0273,0.083,0.1926,0.3008,4.5763,41.1862,-24.6838,2.6539072236082957,-25.46206255717086,-6.656501218902001,4.75
-0.5944,1.2467,0.1088,0.083,0.1926,0.3008,4.5763,41.1862,-24.6838,4.593793686509627,-25.409306318399608,-6.167659775434198,4.759999999994761
-0.5467,1.1469,-0.1011,0.0867,0.193,0.2944,7.735,38.8675,-10.7187,-3.977473225096383,-25.401644876225543,-6.105983177679856,4.759999999994761
-0.5467,1.1469,-0.1011,0.0867,0.193,0.2944,-14.7788,51.3625,6.3175,-4.9689269919353745,-25.400125382248287,-5.5219015446770525,4.769999999989523
-0.485,0.9451,-0.0596,0.0901,0.194,0.3007,-12.0575,67.0163,6.335,-3.7154767737861274,-26.991098995017722,-4.78868810709885,4.779999999998836
-0.4483,0.825,0.0063,0.0901,0.194,0.3007,-12.0575,67.0163,6.335,0.11071240142303251,-28.40459250229859,-4.062806804883042,4.789999999993597
-0.3773,0.8053,0.1053,0.0901,0.194,0.3007,1.6013,75.635,-7.455,4.962832702320122,-26.369948851417075,-4.022178736834212,4.789999999993597
-0.5275,0.8253,0.1906,0.099,0.1948,0.2882,8.0325,73.0975,-19.3725,12.147169034889624,-31.52623503818977,-3.243758647278369,4.80000000000291
-0.4494,0.7615,0.0948,0.099,0.1948,0.2882,8.0325,73.0975,-18.4013,7.634644954355959,-30.442320186259074,-2.473122759692304,4.809999999997672
-0.4464,0.7615,0.0948,0.1097,0.1943,0.2858,13.475,65.3887,-18.4013,7.132620577054503,-30.206556226485713,-1.7865103499789563,4.820000000006985
-0.5275,0.8556,0.1988,0.1097,0.1943,0.2858,23.4675,61.5737,-26.0837,12.840991072824153,-30.948973883976635,-1.7686452464791667,4.820000000006985
-0.4918,0.8843,0.1183,0.1097,0.1943,0.2858,22.785,56.1575,-27.7463,7.836020877104025,-28.956937985841687,-1.1804664928132382,4.830000000001746
-0.5505,0.9558,0.1572,0.1156,0.1941,0.2831,22.785,56.1575,-27.7463,9.277488530691416,-29.581719698123894,-0.5981695266839692,4.8399999999965075
-0.5632,0.9664,0.0425,0.1156,0.1941,0.2831,26.7575,56.9538,-22.0588,2.7585956447840543,-30.171891043393394,-0.5921878314171295,4.8399999999965075
-0.5632,0.9664,0.0425,0.1218,0.194,0.2646,26.285,49.3237,-17.4913,2.526813371151448,-30.20580025627117,-0.08342827186637923,4.849999999991269
-0.5117,0.9634,-0.0137,0.1218,0.194,0.2646,29.2425,36.435,-21.77,-0.7054902065276143,-28.105767600413074,0.2926455627017536,4.860000000000582
-0.5357,0.9998,-0.0343,0.1218,0.194,0.2624,29.2425,36.435,-21.77,-1.92370130333958,-28.16493422243099,0.6649586583781597,4.869999999995343
-0.4724,1.0279,-0.0157,0.123,0.1943,0.2624,34.1512,15.0063,-21.8663,-0.9045979767728831,-24.88721041044418,0.6583090717943781,4.869999999995343
-0.506,1.0617,-0.0184,0.123,0.1943,0.2624,36.19,4.3575,-20.51,-0.9905247513695145,-25.440575741516625,0.7093982826301458,4.880000000004657
-0.4989,1.0813,-0.0429,0.1246,0.19,0.2608,31.5788,-0.0175,-17.5088,-2.233071487479113,-24.80631671013793,0.7166641012963216,4.889999999999418
-0.4989,1.0813,-0.0429,0.1246,0.19,0.2608,31.5788,-0.0175,-17.5088,-2.2708060272511914,-24.755393127151965,0.7238572617758358,4.899999999994179
-0.4808,1.0222,-0.0968,0.1254,0.189,0.2644,22.8113,-7.5075,-14.4025,-5.279734196185851,-25.055959021919193,0.7166186891580774,4.899999999994179
-0.4263,0.9063,-0.1382,0.1254,0.189,0.2644,16.2925,-5.4687,-14.6737,-8.477962961995553,-24.950598232809238,0.6698454237872454,4.9099999999889405
-0.3936,0.8276,-0.1191,0.1254,0.189,0.2644,18.76,3.22,-13.44,-8.203575546071749,-25.17762299640624,0.7095580210925966,4.919999999998254
-0.3848,0.8162,-0.1281,0.1285,0.1898,0.2442,18.76,3.22,-13.44,-8.884021607170757,-24.9981304791162,0.7024624408816706,4.919999999998254
-0.3848,0.8162,-0.1281,0.1285,0.1898,0.2442,24.64,10.045,-13.8337,-8.918258687491479,-24.97659751818487,0.8094163679131442,4.929999999993015
-0.3692,0.7969,-0.1132,0.1296,0.1874,0.2523,28.9188,17.8412,-16.24,-8.112336650544954,-24.670525111772285,0.9924831359120452,4.940000000002328
-0.3742,0.8109,-0.0932,0.1296,0.1874,0.2523,31.6138,25.795,-14.8138,-6.603665188935912,-24.633101223506632,1.2524618559115306,4.94999999999709
-0.3544,0.7909,-0.0928,0.1296,0.1874,0.2523,31.6138,25.795,-14.8138,-6.689497328491116,-24.056940245167283,1.2399372373524153,4.94999999999709
-0.353,0.8499,-0.0841,0.133,0.1859,0.2485,36.9513,33.2412,-13.2388,-5.678291201184788,-22.65202986099883,1.5711587967989131,4.960000000006403
-0.3445,0.8171,-0.0717,0.133,0.1859,0.2485,39.7075,35.3937,-12.985,-5.030982425257324,-22.765930850794817,1.920377889608704,4.969999999986612
-0.3445,0.8171,-0.0717,0.1353,0.1829,0.2366,39.7075,35.3937,-11.095,-5.015216452161619,-22.77964359150168,2.2661047925524853,4.9799999999959255
-0.3969,0.8474,-0.0497,0.1353,0.1829,0.2366,44.0387,39.0075,-11.095,-3.393095368763421,-24.682036524809284,2.644151045917042,4.989999999990687
-0.4052,0.7966,-0.134,0.1353,0.1829,0.2366,41.6237,36.5138,-10.0975,-9.405371269445506,-26.251009328236282,2.6177095354578714,4.989999999990687
-0.6132,0.6817,-0.4187,0.1363,0.1818,0.229,60.2438,44.835,-10.5525,-31.19857592339979,-35.42944379415626,3.0499319920302104,5.0
-1.0204,1.5848,-0.434,0.1363,0.1818,0.229,60.2438,44.835,-10.5525,-15.572936401675321,-32.49305616956685,3.477832223369767,5.009999999994761
-1.0204,1.5848,-0.2841,0.137,0.1759,0.2237,48.2912,49.2013,31.0363,-10.272183707486306,-32.368407971344965,3.9446798231032445,5.0200000000040745
-0.7645,1.8218,-0.2841,0.137,0.1759,0.2237,-29.7325,1.7237,-10.325,-8.909943205920564,-24.388540015040633,3.905233024872212,5.0200000000040745
-0.4158,0.8054,-0.2359,0.1411,0.1808,0.2324,-65.2312,-15.8112,-36.54,-16.212644340222756,-26.293638947852426,3.7241828661978778,5.029999999998836
-0.2902,0.3361,-0.0939,0.1411,0.1808,0.2324,-65.2312,-15.8112,-36.54,-15.61851785997943,-39.31927209371398,3.5449432091102873,5.039999999993597
-0.2887,0.4921,-0.2554,0.1411,0.1808,0.2324,-42.3325,0.9887,-22.3563,-27.15454115033718,-28.189411978969844,3.533814958506443,5.0499999999883585
-0.4358,0.8481,-0.3985,0.1404,0.1819,0.2333,7.7962,5.495,-1.4787,-25.384849348315075,-25.524390685596448,3.567410360485578,5.059999999997672
-0.4358,0.8481,-0.3985,0.1404,0.1819,0.2333,34.9125,8.75,8.645,-25.173594404803282,-24.978976884073802,3.531736256880722,5.059999999997672
-0.5336,1.3179,-0.4016,0.1385,0.1804,0.2251,34.9125,8.75,8.645,-17.17425786601263,-21.414088456452006,3.597576945758921,5.069999999992433
-0.5839,1.34,-0.267,0.1385,0.1804,0.2251,14.9012,-6.405,-2.2838,-11.632202007127725,-22.777554419872462,3.5127247277558125,5.080000000001746
-0.4218,0.9869,-0.2533,0.1385,0.1804,0.2251,-13.3525,-23.0475,-17.605,-14.197641629102668,-22.5116356423754,3.4775974804782543,5.080000000001746
-0.294,0.7447,-0.252,0.139,0.1826,0.2394,-14.7525,-25.6812,-20.5187,-18.40336211580988,-20.6335814488508,3.203110677299049,5.0899999999965075
-0.294,0.8547,-0.2633,0.139,0.1826,0.2394,-14.7525,-25.6812,-20.5187,-17.205228894840463,-18.355029623332545,2.9313687418028103,5.100000000005821
-0.3473,0.8547,-0.2633,0.1372,0.1827,0.2309,3.9987,-17.7712,-13.9125,-17.137594099010798,-20.89907947834346,2.740653226204206,5.10999999998603
-0.4139,1.0327,-0.2498,0.1372,0.1827,0.2309,10.535,-9.2487,-7.8313,-13.895907760203919,-21.14533352980975,2.6362176153704246,5.119999999995343
-0.4042,0.9797,-0.2948,0.1372,0.1827,0.2309,5.075,-6.5363,-10.3337,-16.303225431003483,-21.479691899823603,2.6098554392167204,5.119999999995343
-0.4726,0.9898,-0.3036,0.1385,0.1841,0.225,5.075,-6.5363,-10.3337,-16.9356892554028,-23.95693145676703,2.533580566350839,5.129999999990105
-0.5702,1.0974,-0.1697,0.1385,0.1841,0.225,4.0075,-3.185,-10.3775,-10.310874298380067,-26.574575816868325,2.4912463121714996,5.139999999999418
-0.5702,1.0974,-0.1697,0.1378,0.1817,0.227,1.3737,-3.5087,4.4538,-9.348730518556183,-27.12736814016037,2.446130770560368,5.149999999994179
-0.2537,0.8618,-0.156,0.1378,0.1817,0.227,-0.8662,-6.5538,3.0888,-9.65917300674313,-17.236862166532383,2.4216694628547644,5.149999999994179
-0.3918,0.8816,-0.2559,0.1378,0.1817,0.2066,-1.015,-6.5538,3.0888,-12.266503853367984,-22.533565491624106,2.347103199679325,5.1600000000034925
-0.5045,0.8775,-0.1704,0.1401,0.1838,0.2226,-3.15,-13.2825,-22.5487,-11.325453347862204,-29.04502263646187,2.20666846941401,5.169999999983702
-0.475,0.8855,-0.1192,0.1401,0.1838,0.2226,-5.8538,-7.1838,-23.6075,-8.229226439399296,-28.052756224193935,2.1280152161671695,5.179999999993015
-0.5843,1.0531,-0.2091,0.141,0.1838,0.2391,-5.8538,-7.1838,-10.1675,-10.768956697765583,-28.457312461412112,2.106735064005498,5.179999999993015
-0.5863,1.0531,-0.2091,0.141,0.1838,0.2391,-1.5488,2.9575,-11.2,-11.0205508029426,-28.60854504489257,2.2171046178603424,5.209999999991851
-0.7297,1.1089,-0.284,0.1412,0.1859,0.2358,-10.2288,0.9887,-8.855,-14.057788139380952,-31.48814511928249,2.21925475320439,5.220000000001164
-0.6276,1.3022,-0.1753,0.1412,0.1859,0.2358,-28.28,-6.4313,-5.7225,-7.8878754317968784,-30.0061266972729,2.1479253871980872,5.2299999999959255
-0.4416,1.2551,-0.3086,0.1412,0.1859,0.2358,-28.28,-6.4313,-5.7225,-13.608853041695948,-27.2339916781403,2.0773093148518478,5.239999999990687
-0.4198,1.0178,-0.3553,0.1388,0.1871,0.2399,-44.5462,-18.375,7.35,-19.118725145133325,-21.6901871921942,2.0565362217033294,5.239999999990687
-0.4198,1.0178,-0.3553,0.1388,0.1871,0.2399,-53.34,-27.51,6.7638,-19.241084039717958,-21.306517513174033,1.778154911121358,5.249999999985448
-0.5123,0.942,-0.2522,0.1357,0.1892,0.2514,-57.995,-29.4088,2.1962,-15.060706749334571,-27.021988469934936,1.4837592932525272,5.259999999994761
-0.4708,0.8844,-0.1644,0.1357,0.1892,0.2514,-57.995,-29.4088,2.1962,-10.607694810782364,-27.560994226938103,1.192307631562385,5.2700000000040745
-0.3549,0.8472,-0.1631,0.1357,0.1892,0.2514,-65.1612,-17.7013,8.6975,-10.892668155382713,-22.690287997800294,1.1803845552467611,5.2700000000040745
-0.3352,0.8505,-0.2538,0.1335,0.1945,0.2631,-67.8825,-0.2975,11.8562,-16.532262295167317,-20.79554602238425,1.180168511188223,5.279999999998836
-0.4806,0.8165,0.3992,0.1335,0.1945,0.2631,-42.2713,-13.2913,1.225,25.062546073473566,-27.015057143925837,1.05131600763766,5.289999999993597
-0.4806,0.8165,0.3992,0.1307,0.1924,0.2658,-42.2713,-13.2913,1.225,26.031637051432426,-27.766325053053148,1.0408028475612834,5.289999999993597
-0.5469,1.0471,0.0727,0.1307,0.1924,0.2658,4.2525,-63.9275,9.9575,7.909305837629071,-27.535945719954817,0.41204562000978795,5.30000000000291
-0.4582,0.8311,-0.1723,0.1307,0.1924,0.2658,-0.14,-85.4175,7.3938,4.506152490910608,-28.304713888494298,-0.4231750342549224,5.309999999997672
-0.4063,0.7056,-0.0523,0.1211,0.1921,0.2671,-0.315,-73.1062,-4.9437,4.211799666628181,-29.12628848139446,-1.1281616120408358,5.319999999992433
-0.4033,0.8001,-0.1276,0.1211,0.1921,0.2671,-0.315,-73.1062,-4.9437,3.765047656597823,-27.725134665657023,-1.8260983250809386,5.330000000001746
-0.4033,0.8001,0.2159,0.1182,0.193,0.2653,0.6562,-39.4888,-6.2825,9.450113453378625,-27.3946155504303,-1.8078373418301292,5.330000000001746
-0.4699,0.8741,0.2054,0.1182,0.193,0.2653,3.78,-31.5788,-3.0013,12.488093989247528,-27.567609497609343,-2.0878560367556642,5.3399999999965075
-0.4974,0.913,0.0535,0.1182,0.1911,0.2745,10.6925,-37.8963,1.7675,4.1121181043482435,-28.429940763835276,-2.4276177952239797,5.350000000005821
-0.4025,0.8661,-0.2302,0.1154,0.1911,0.2745,10.6925,-37.8963,1.7675,-13.306983819286346,-24.66749743892363,-2.7639819355828115,5.360000000000582
-0.4166,0.8635,-0.144,0.1154,0.1911,0.2745,9.8962,-20.37,0.4462,-9.809092022521641,-25.344797365033656,-2.9234720646289514,5.369999999995343
-0.4245,0.8495,-0.1592,0.1134,0.1894,0.2766,18.4625,-12.8275,-0.0962,-10.57371642111523,-26.0412979281594,-2.894237343982662,5.369999999995343
-0.4245,0.8495,-0.1592,0.1134,0.1894,0.2766,18.4625,-12.8275,2.5638,-10.612309779897375,-26.14605358038716,-2.977754168983921,5.379999999990105
-0.4494,1.0379,-0.2247,0.1126,0.1877,0.269,29.1287,2.345,2.5638,-12.163111304894157,-23.271023062267417,-2.759233869728164,5.430000000007567
-0.5078,1.1026,-0.2318,0.1126,0.1877,0.269,29.225,3.1762,1.785,-11.881927503860425,-24.148897870310517,-2.671870870118885,5.4429999999993015
-0.5507,1.1001,-0.2095,0.1126,0.1877,0.269,29.1462,6.44,7.77,-10.818207071648258,-26.048392601949026,-2.5668631099587094,5.452999999994063
-0.5211,1.1765,-0.0736,0.1126,0.1826,0.2659,29.1462,6.44,7.77,-3.81702946300284,-23.996710774755964,-2.541194478859122,5.452999999994063
-0.5211,1.1765,0.0102,0.1126,0.1826,0.2659,22.785,12.7837,23.0737,0.31799371628570594,-23.892480032068367,-2.374690852439129,5.463000000003376
-0.4632,0.8353,0.0102,0.1088,0.1816,0.2646,5.2325,19.04,26.9937,0.6416378713221779,-28.85768374867219,-2.147914892521098,5.472999999998137
-0.4258,0.7156,0.0243,0.1088,0.1816,0.2646,-1.4088,39.8737,16.0475,1.311918908838685,-30.65775682597967,-1.7171530623102973,5.482999999992899
-0.4549,0.9055,-0.0018,0.1088,0.1816,0.2646,-1.4088,39.8737,16.0475,0.5785940591476747,-26.846195462019395,-1.6999815316871942,5.482999999992899
-0.4951,1.0339,0.0951,0.1131,0.183,0.2632,-9.8175,56.0262,3.5612,4.808597769444613,-25.621658844683907,-1.1137892851685047,5.49299999998766
-0.4409,1.0944,0.1516,0.1131,0.183,0.2632,-18.55,62.93,7.2888,7.726304491118299,-22.02449932551198,-0.46511134022306416,5.502999999996973
-0.4409,1.0944,0.1516,0.1137,0.183,0.2634,-33.9238,69.7813,17.675,7.88197977344912,-21.765799824516925,0.2449076943096461,5.5129999999917345
-0.3717,0.9271,0.1615,0.1137,0.183,0.2634,-33.9238,69.7813,17.675,9.823876348734212,-21.56160998663562,0.24245861736654964,5.5129999999917345
-0.397,0.9891,0.035,0.1137,0.183,0.2634,-37.8613,71.925,13.7638,2.2290721072361355,-21.84271745046561,0.9666245833695742,5.523000000001048
-0.4535,0.9939,-0.1117,0.1197,0.1841,0.2613,-41.37,56.2975,0.9625,-6.206662741241934,-24.0730273697252,1.528836638736289,5.532999999995809
-0.4482,0.9576,-0.1393,0.1197,0.1841,0.2613,-34.2125,32.3225,-8.925,-8.21726341626208,-24.650907485184838,1.8480740736736785,5.54299999999057
-0.4482,0.9701,0.0067,0.123,0.186,0.2666,-34.2125,32.3225,-8.925,0.14865301247146737,-24.759328448361526,2.1641191342616937,5.552999999985332
-0.3845,0.9701,0.0067,0.123,0.186,0.2666,-34.6763,17.8762,-20.5012,0.38871380631263663,-21.82366958270938,2.333985374597432,5.562999999994645
-0.4621,0.9836,-0.0749,0.1261,0.1894,0.2693,-43.3475,7.8138,-24.3075,-4.246794873575342,-24.930473889775076,2.3106455208514576,5.562999999994645
-0.5492,1.1458,-0.265,0.1261,0.1894,0.2693,-39.8737,1.5838,-13.1163,-12.805816073453848,-25.019449607063915,2.3177517371271157,5.572999999989406
-0.4746,1.0766,-0.3626,0.1261,0.1894,0.2693,-39.8737,1.5838,-13.1163,-18.47026180362436,-22.964800643706713,2.324786891283982,5.582999999998719
-0.4912,0.9197,-0.2975,0.1214,0.1927,0.2718,-38.01,-12.7925,-3.5875,-17.9392013321711,-25.79170212966211,2.1894263239298746,5.592999999993481
-0.4912,0.9197,-0.2975,0.1214,0.1927,0.2718,-30.45,-24.4037,-1.505,-17.92555336726576,-26.73138358348153,1.9404684819791063,5.603000000002794
-0.4498,0.8311,-0.212,0.1212,0.1955,0.2824,-30.45,-35.6037,-5.145,-14.426304011076104,-27.179822201861093,1.5831202188363533,5.612999999997555
-0.4143,0.8974,-0.0957,0.1212,0.1955,0.2824,-20.0637,-34.0812,-5.145,-6.489687739925743,-25.979308940780474,1.2444181883171317,5.622999999992317
-0.4599,0.9515,-0.0063,0.1212,0.1955,0.2824,-16.8787,-42.245,-11.27,-0.7279436592345616,-25.825439032547965,1.2319740064339604,5.622999999992317
-0.462,0.899,0.0731,0.1179,0.1971,0.2826,-18.62,-48.5275,-9.4675,4.369629156698912,-26.82836681423057,0.7537650681136856,5.632999999987078
-0.3839,0.8087,0.1005,0.1179,0.1971,0.2826,-18.62,-48.5275,-9.4675,6.94316892540555,-25.58794821472523,0.2803382184986556,5.642999999996391
-0.3878,0.8087,0.1005,0.1137,0.1977,0.2902,-22.0588,-46.13,-1.995,7.077826286778724,-25.476133046009103,-0.16461911259811898,5.653000000005704
-0.3138,0.7854,0.0084,0.1137,0.1977,0.2902,-23.485,-38.8237,-0.7875,0.8806345971210547,-22.367867779373267,-0.1629729214721378,5.653000000005704
-0.3292,0.8194,-0.0434,0.1137,0.1977,0.2902,-21.0088,-36.1025,-6.7288,-2.851230038363696,-22.163349733993822,-0.5042248905777913,5.663000000000466
-0.4103,0.9645,-0.1193,0.1131,0.1986,0.2964,-21.0088,-36.1025,-6.7288,-6.8572481373621805,-22.45568999570683,-0.8420643399923884,5.672999999995227
-0.3723,1.0224,-0.3537,0.1131,0.1986,0.2964,-9.9925,-44.485,-18.1912,-17.93433974077988,-19.253775031434483,-1.2595121448693654,5.682999999989988
-0.3723,1.0224,-0.3537,0.1077,0.1987,0.3006,1.085,-65.6075,-27.265,-18.611295701586638,-19.001848810911476,-1.2469170234206717,5.682999999989988
-0.3637,0.893,-0.171,0.1077,0.1987,0.3006,10.71,-67.3225,-25.3925,-11.48467520107545,-21.66428094941111,-1.8864075522936496,5.6929999999993015
-0.3436,0.8666,-0.0381,0.1077,0.1987,0.3013,10.71,-67.3225,-25.3925,-3.2609502232340595,-21.611702770700887,-2.5195031749291714,5.702999999994063
-0.3722,0.7854,0.0533,0.1046,0.1989,0.3013,15.2338,-56.665,-25.7687,3.4515965353639615,-25.127000682602702,-3.0407585921888014,5.713000000003376
-0.4305,0.8057,0.0321,0.1046,0.1989,0.3013,18.9,-32.83,-25.7075,2.339303994110516,-27.953686111847208,-3.010351006266913,5.713000000003376
-0.4134,0.8842,-0.101,0.1056,0.1996,0.2938,29.0413,-13.0375,-25.9963,-6.2251173927851475,-25.06089430249442,-3.094785694644241,5.722999999998137
-0.4134,0.8842,-0.101,0.1056,0.1996,0.2938,29.0413,-13.0375,-25.9963,-6.5069239957343985,-24.922764849821856,-3.1783760363044706,5.733000000007451
-0.493,0.8403,-0.0163,0.1079,0.1978,0.2938,29.575,2.9925,-27.5975,-1.2857509336599489,-30.152492915910848,-3.1024334744645596,5.743000000002212
-0.4902,0.9421,-0.0455,0.1079,0.1978,0.2938,35.4987,9.8787,-27.615,-2.7248842055853304,-27.581112753821934,-3.071409139719914,5.743000000002212
-0.5608,0.8573,-0.1659,0.1079,0.1978,0.2938,36.3563,4.4975,-26.285,-10.733996883137591,-32.468314583199124,-2.9816367468536535,5.752999999996973
-0.5903,0.9106,-0.0992,0.1123,0.196,0.291,36.3563,4.4975,-26.285,-6.33702513639785,-32.78380368796184,-2.656528871867929,5.802999999999884
-0.5903,0.9106,-0.0992,0.1123,0.196,0.291,44.3013,-2.765,-19.2413,-6.219860651609447,-32.79829865185423,-2.642804031642523,5.812999999994645
-0.4232,0.8733,-0.1451,0.1141,0.192,0.2822,51.1437,-4.3575,-14.2887,-9.372372476085063,-26.334782776350664,-2.644982189811112,5.822999999989406
-0.4734,0.825,-0.0596,0.1141,0.192,0.2822,53.3838,2.9313,-20.72,-4.227750765730712,-29.56351039032452,-2.574979446372439,5.832999999998719
-0.5028,0.866,-0.0749,0.1141,0.192,0.2822,52.78,2.9313,-20.72,-4.929971141609607,-30.015996207173988,-2.5056767304315306,5.842999999993481
-0.5338,0.955,-0.0515,0.117,0.1865,0.2711,57.2863,15.3125,-24.8412,-3.1182168565572415,-29.21058636602863,-2.480619963127215,5.842999999993481
-0.5818,0.9822,-0.1216,0.117,0.1865,0.2711,55.8688,24.85,-27.2563,-6.988671861632481,-30.393589523156383,-2.1952657117532888,5.853000000002794
-0.5818,0.9822,-0.1216,0.1209,0.1868,0.2651,55.8688,24.85,-29.4963,-7.056315126377408,-30.44710197917744,-1.912765003272249,5.862999999997555
-0.5073,1.0297,-0.1589,0.1209,0.1868,0.2651,54.9762,22.33,-30.59,-8.742033643186192,-26.13730370569606,-1.6580373015201069,5.8730000000068685
-0.5852,1.0327,-0.1064,0.1209,0.1868,0.2651,51.1,16.66,-37.835,-5.936998671321032,-29.30952993286072,-1.461989877360082,5.882999999987078
-0.6472,1.0399,-0.1699,0.1269,0.1863,0.2592,46.4625,11.2525,-42.63,-9.209163943773405,-31.499360655153428,-1.447369978586481,5.882999999987078
-0.6458,0.927,-0.0913,0.1269,0.1863,0.2592,46.4625,11.2525,-42.63,-5.699871417833018,-34.64755209898039,-1.306963477183332,5.892999999996391
-0.6458,0.927,-0.0288,0.133,0.1848,0.257,39.095,7.8488,-39.55,-1.8764222324865838,-34.84438659582799,-1.2016576709598183,5.902999999991152
-0.6172,0.9549,-0.03,0.133,0.1848,0.257,26.495,12.075,-39.34,-1.8022278496264958,-32.921507687809445,-1.0555655426253525,5.913000000000466
-0.4795,1.1295,-0.0165,0.133,0.1866,0.2532,7.49,14.42,-37.8263,-0.9461292166590095,-23.30292696385732,-0.8877188357814988,5.922999999995227
-0.5036,1.1506,-0.1635,0.1385,0.1866,0.2532,7.49,14.42,-37.8263,-7.279700767179201,-23.42477239617675,-0.8788416474236838,5.922999999995227
-0.3698,1.2995,-0.1229,0.1385,0.1866,0.2532,-6.475,6.9563,-28.4638,-5.666106099906805,-16.142731315585614,-0.7866528093717743,5.93300000000454
-0.432,1.0285,-0.3018,0.141,0.1882,0.2475,-22.0938,-5.7137,-14.7262,-15.883736401684347,-21.35068085310354,-0.8208188597560371,5.9429999999993015
-0.432,1.0285,-0.3018,0.141,0.1882,0.2475,-28.07,-7.595,-6.2387,-16.337281259270025,-21.444437673238575,-0.8732681196267001,5.952999999994063
-0.421,1.141,0.0554,0.1386,0.1914,0.2578,-28.07,-7.595,-6.2387,2.1141196277717467,-21.254967416781938,-0.8645354384304331,5.952999999994063
-0.4059,0.8852,-0.0309,0.1386,0.1914,0.2578,-34.16,-21.28,-7.6912,-1.881067689479739,-23.344261412187688,-1.0520290324433776,5.962999999988824
-0.4949,1.1444,-0.0147,0.1386,0.1914,0.2578,-34.0025,-14.56,-5.8362,-0.768979002704078,-23.351453933792452,-1.1711196907396533,5.972999999998137
-0.3606,1.132,0.0159,0.1382,0.1929,0.2637,-47.0488,-9.1788,9.5463,0.7717276514017621,-18.010102729129986,-1.235745562292266,5.982999999992899
-0.3606,1.132,-0.1002,0.1382,0.1929,0.2637,-47.0488,-9.1788,9.5463,-4.936176440293748,-17.629200861057107,-1.2233881066693433,5.982999999992899
-0.5258,0.7884,-0.1002,0.1319,0.195,0.2688,-55.615,-7.455,23.1525,-7.202052179026011,-32.96352408515436,-1.2704256741578506,5.993000000002212
-0.5788,0.7689,-0.1431,0.1319,0.195,0.2688,-52.8937,-11.41,15.0937,-10.480310242254744,-36.343681721312144,-1.5529992627615852,6.022999999986496
-0.2433,0.7257,0.0656,0.1319,0.195,0.2688,-55.1338,-10.2113,1.6275,4.884774244807152,-20.523784313421775,-1.6240280887145835,6.032999999995809
-0.4537,1.1713,-0.2831,0.1316,0.1972,0.2638,-54.2062,-10.2113,1.6275,-13.250905710586913,-20.619239254019845,-1.694346626282092,6.04299999999057
-0.4989,0.9867,-0.1468,0.1316,0.1972,0.2638,-36.0325,9.94,14.35,-8.59286185641128,-26.292500414545206,-1.5644641084140885,6.052999999999884
-0.4989,0.9867,-0.1468,0.1294,0.1986,0.2787,-42.7962,2.0825,17.4475,-8.465325707057582,-26.55920274908598,-1.5488194673299476,6.052999999999884
-0.5841,0.8713,-0.2149,0.1294,0.1986,0.2787,-42.7962,2.0825,19.1887,-13.731015297818065,-32.811319748958624,-1.498181471175062,6.062999999994645
-0.2977,0.7111,-0.133,0.1294,0.1986,0.2787,-41.65,-5.88,19.1887,-10.668033503170621,-22.765688260130425,-1.5268786050039906,6.073000000003958
-0.1357,0.5583,-0.083,0.1266,0.2008,0.2823,-21.6563,-2.3275,8.5138,-8.555144039574547,-14.11234136519513,-1.5201190174371106,6.0829999999841675
-0.3748,0.6414,-0.0389,0.1266,0.2008,0.2823,2.73,6.2038,-11.4625,-4.716906115207307,-27.73528711621026,-1.428967155692005,6.092999999993481
-0.3748,0.7942,-0.0067,0.1299,0.2009,0.2787,2.73,6.2038,-11.4625,-1.5210255270560986,-25.648630234204894,-1.4146774841350849,6.092999999993481
-0.4635,0.7942,-0.0067,0.1299,0.2009,0.2787,17.7362,19.1187,-22.9862,-0.5377136071515127,-30.009657272227905,-1.1967225279005027,6.102999999988242
-0.467,0.9609,-0.0232,0.1325,0.1992,0.2717,21.28,27.37,-21.0963,-1.345726015992264,-26.168655754832194,-0.8992592508556089,6.112999999997555
-0.5055,0.9897,-0.0838,0.1325,0.1992,0.2717,19.4075,31.8237,-12.5562,-4.6714810073393815,-26.866093546749642,-0.5606789770197135,6.122999999992317
-0.4488,0.9293,-0.047,0.1325,0.1992,0.2717,19.4075,31.8237,-12.5562,-2.9808758234275126,-25.898155543917344,-0.2254845054425639,6.13300000000163
-0.5215,0.8626,-0.1565,0.1325,0.1987,0.2751,8.8375,33.4688,4.7775,-9.566411713574707,-30.336778562577738,0.12264451093066901,6.142999999996391
-0.5215,0.8626,-0.1565,0.1325,0.1987,0.2751,14.9975,33.9938,17.0362,-10.239369404813113,-30.729567539219858,0.12141806582136232,6.142999999996391
-0.3977,0.766,-0.2136,0.1332,0.1951,0.2629,24.115,32.5238,7.2888,-15.371418275278625,-26.860136080047816,0.456722556486857,6.152999999991152
-0.4055,0.6965,-0.1237,0.1332,0.1951,0.2629,24.115,32.5238,7.2888,-10.279003872133254,-29.61592922091666,0.7886740022456967,6.162999999985914
-0.4202,0.755,-0.0537,0.1332,0.1951,0.2629,41.7375,34.6937,-2.2662,-4.212499397492883,-29.157935532116145,1.138787944056654,6.172999999995227
-0.375,0.8221,-0.0891,0.137,0.1899,0.2581,56.2975,34.4663,-5.5912,-6.151400603044299,-27.651413117482587,1.4831494864474049,6.18300000000454
-0.3362,0.7893,0.0206,0.137,0.1899,0.2581,60.9963,40.74,0.0,1.3723826751775805,-23.71470368459799,1.4683179915829307,6.18300000000454
-0.3362,0.7893,0.0206,0.1418,0.187,0.2453,60.9963,40.74,0.0,1.4930603043671427,-23.15659698224625,1.871493862948198,6.1929999999993015
-0.4943,0.7913,-0.081,0.1418,0.187,0.2453,64.4175,67.0863,-1.855,-5.7330519730199905,-30.18397855919474,2.5314663454631727,6.202999999994063
-0.4413,0.9211,-0.2457,0.1418,0.187,0.2453,63.6912,74.4275,-22.0938,-14.794186335492668,-25.153731250745423,3.257516983114924,6.212999999988824
-0.5746,1.2269,-0.3697,0.1459,0.1828,0.2342,75.9325,61.9588,-42.4463,-16.743499970046607,-24.179155163732496,3.224941813283775,6.212999999988824
-1.0269,1.7732,-0.4248,0.1459,0.1828,0.2342,75.9325,61.9588,-42.4463,-13.514595177750921,-29.24833975517639,3.820617567235738,6.222999999998137
-1.0269,1.7732,-0.4248,0.1486,0.1822,0.2187,59.36,18.7775,-28.5775,-13.472964057057059,-29.38171003134769,3.9828416929583814,6.232999999992899
-0.4492,0.7748,-0.1735,0.1486,0.1822,0.2187,-1.2075,-18.34,2.8087,-13.080058488287776,-29.487174814696367,3.775980327373236,6.243000000002212
-0.4604,0.8883,-0.3104,0.1486,0.1822,0.2225,-1.2075,-18.34,-6.16,-15.9337540001862,-29.158954351994506,3.571187575687007,6.252999999996973
-0.4534,0.8464,-0.161,0.147,0.1835,0.2225,6.1775,-10.1763,-6.16,-11.455990451407407,-29.024071410481113,3.4492633813498457,6.263000000006286
-0.4543,0.8865,-0.1809,0.147,0.1835,0.2225,5.2762,5.18,1.47,-11.521786138599003,-26.939126253848123,3.4147707475363474,6.263000000006286
-0.4856,1.0169,-0.1421,0.1462,0.1808,0.2274,10.5525,11.4275,4.9612,-8.254589322130844,-25.4465895698119,3.508288341494104,6.273000000001048
-0.4856,1.0169,-0.1421,0.1462,0.1808,0.2274,10.5525,11.4275,4.9612,-7.980088737626164,-25.32236561262777,3.6008707595122833,6.282999999995809
-0.515,0.9693,-0.2502,0.1478,0.181,0.221,4.9262,12.2325,2.52,-13.43887348056965,-27.024937045346935,3.7004968533461056,6.29299999999057
-0.5184,1.0207,-0.2291,0.1478,0.181,0.221,0.0175,5.7575,-3.2462,-13.227103452016715,-26.535409788485442,3.6634918848126445,6.29299999999057
-0.551,0.9948,-0.1382,0.1478,0.181,0.221,-6.1425,-3.64,-9.94,-8.691957493574254,-28.29652276621476,3.605354017444492,6.302999999999884
-0.5578,0.9704,-0.1159,0.1493,0.182,0.2191,-6.1425,-3.64,-9.94,-7.087803140009755,-29.42542921457111,3.5477975287813113,6.312999999994645
-0.5578,0.9704,-0.1159,0.1493,0.182,0.2191,-15.6187,-7.2187,-15.9338,-6.827896755406519,-29.689213291636836,3.5123195534934983,6.312999999994645
-0.5332,0.8883,-0.1186,0.147,0.183,0.2267,-25.1213,-6.93,-17.78,-7.5746377393308135,-30.66784331818609,3.423122409408203,6.323000000003958
-0.3724,0.7756,-0.0819,0.147,0.183,0.2267,-21.0175,7.0087,-11.4625,-6.09923493607141,-26.326614692174676,3.472810366770158,6.332999999998719
-0.4679,0.9543,-0.1096,0.147,0.183,0.2267,-21.0175,7.0087,-11.4625,-6.530754791361772,-26.02644365136983,3.5220014446806123,6.343000000008033
-0.4734,0.9846,-0.1846,0.1497,0.1846,0.2232,-16.1963,21.1663,-5.6788,-10.376278711843039,-25.826738434818086,3.7108608512903394,6.352999999988242
-0.4524,0.9662,-0.1854,0.1497,0.1846,0.2232,-22.5225,21.7437,-6.8425,-10.841241160098367,-25.327551168078717,3.673752242777436,6.352999999988242
-0.4524,0.9662,-0.1854,0.1509,0.1872,0.2295,-26.3638,14.0262,-6.1775,-10.86143496363998,-25.257830072123074,3.790407151992519,6.362999999997555
-0.3622,0.8275,-0.207,0.1509,0.1872,0.2295,-26.3638,14.0262,-6.1775,-13.92656278784998,-25.00985504621645,3.9058955118922363,6.372999999992317
-0.4243,0.9409,-0.1723,0.1509,0.1872,0.2295,-14.6388,10.3425,1.2337,-10.609326335123352,-24.052285201679446,3.9837603583822077,6.38300000000163
-0.5582,1.1564,-0.1045,0.151,0.1879,0.2282,-9.4237,3.8325,-1.54,-5.704182013207045,-25.381295354659148,3.9439227547983857,6.38300000000163
-0.5453,0.9215,-0.0637,0.151,0.1879,0.2282,-25.62,-12.1625,-5.7925,-4.020970421871198,-26.452790875891754,3.798607828805867,6.392999999996391
-0.5453,0.9215,-0.1105,0.1497,0.1877,0.2292,-25.62,-12.1625,-5.7925,-6.730641775132326,-27.277713722233536,3.654746051919204,6.403000000005704
-0.4994,0.8642,-0.1105,0.1497,0.1877,0.2292,-33.8713,-4.9175,-6.6588,-7.270422534175924,-28.236778848290204,3.584048392917902,6.413000000000466
-0.4708,0.9265,-0.162,0.151,0.1896,0.2357,-37.0737,12.6088,-3.3163,-9.84781187183222,-27.030971708932757,3.687568080415716,6.422999999995227
-0.4133,0.9496,-0.2134,0.151,0.1896,0.2357,-37.0737,13.23,-3.3863,-12.59075982687575,-24.105158539497133,3.7962024510353305,6.432999999989988
-0.4818,1.0018,-0.2103,0.151,0.1896,0.2357,-34.1688,13.23,-3.3863,-11.876622896313734,-24.90525716288387,3.903750478160494,6.4429999999993015
-0.5391,0.9413,-0.2779,0.1509,0.1931,0.2383,-34.6763,6.2038,-6.0988,-16.318772670866807,-25.072479688925956,3.864712973378889,6.4429999999993015
-0.5391,0.9413,-0.2779,0.1509,0.1931,0.2383,-28.6125,-5.2413,-8.3038,-16.443759227339832,-27.6386730182396,3.7887100251646695,6.452999999994063
-0.5061,0.9536,-0.2397,0.1485,0.1941,0.2391,-28.6125,-5.2413,-8.3038,-14.189495169342255,-27.359558952646136,3.713467106378232,6.463000000003376
-0.4862,0.9726,-0.2407,0.1485,0.1941,0.2391,-23.2838,-15.4175,-9.1438,-13.912405884068699,-26.245774675074657,3.6763324353144498,6.463000000003376
-0.5153,1.0538,-0.3565,0.1485,0.1941,0.2391,-27.195,-13.7812,-11.5238,-18.519051336464774,-25.068907172211784,3.5176682825251655,6.472999999998137
-0.4603,0.9187,-0.0968,0.1491,0.1969,0.244,-31.2025,-18.165,-20.6675,-6.407413224264902,-26.395206884618688,3.3171911512865098,6.482999999992899
-0.4603,0.8052,-0.1817,0.1491,0.1969,0.244,-31.2025,-18.165,-20.6675,-12.518210686741318,-28.969524090800242,3.1187187913602403,6.49299999998766
-0.4058,0.8052,-0.1817,0.1503,0.1985,0.2506,-25.6112,-18.3838,-21.0525,-12.70873248432033,-26.353719039246442,2.9200650347906723,6.502999999996973
-0.3667,0.8488,-0.2097,0.1503,0.1985,0.2506,-13.9563,-6.9037,-12.1012,-13.797301482278508,-23.264558846476223,2.8908643844427657,6.502999999996973
-0.394,0.9411,-0.2235,0.1503,0.1985,0.2506,-4.69,-0.595,-5.2325,-13.441539670456006,-22.767645964021007,2.8705982920938107,6.5129999999917345
-0.4673,0.9911,-0.1388,0.1511,0.1974,0.2537,-4.69,-0.595,-5.2325,-8.996403559725803,-23.787635762915954,2.8505348606809218,6.523000000001048
-0.5103,0.9512,-0.1428,0.1511,0.1974,0.2537,-3.0975,-3.4738,-4.4887,-8.660195755097643,-26.325720721831182,2.8021719435845154,6.532999999995809
-0.5103,0.9512,-0.1428,0.1501,0.198,0.2542,-6.2825,-3.7625,-6.5975,-8.555484580798973,-26.89700346773918,2.7514345256275146,6.543000000005122
-0.4453,0.9035,-0.1121,0.1501,0.198,0.2542,-4.9875,-1.9425,-6.51,-7.33572784867123,-26.63591744275955,2.7192224818805366,6.552999999985332
-0.4549,0.877,-0.1205,0.1501,0.198,0.2542,-4.9875,-1.9425,-6.51,-7.736951844364837,-26.811839792097707,2.6920302570617314,6.552999999985332
-0.4255,0.9403,-0.0679,0.1497,0.1989,0.2466,1.0675,1.6888,-3.7975,-5.622248488509556,-25.06555606422987,2.6963621260202197,6.562999999994645
-0.4748,0.9943,-0.1484,0.1497,0.1989,0.2466,3.1762,3.7362,-3.045,-7.855433262189105,-25.227197301828397,2.7209199362330274,6.572999999989406
-0.5685,0.9658,-0.1665,0.1497,0.1982,0.2522,0.9625,-2.17,-4.5413,-8.948496433703975,-28.170672288365644,2.6867607883642246,6.582999999998719
-0.567,0.9658,-0.1665,0.1497,0.1982,0.2522,0.9625,-2.17,-4.5413,-9.421206945959733,-29.30273320033923,2.6529432319842234,6.592999999993481
-0.4665,1.0111,-0.1368,0.1514,0.1995,0.2523,-4.1562,-0.9363,-7.595,-8.062248574289578,-26.432614863848578,2.6316774811692834,6.603000000002794
-0.4694,0.9305,-0.1048,0.1514,0.1995,0.2523,-6.1775,-7.665,-11.1388,-6.665655896536698,-26.59269520284328,2.6053607063575903,6.603000000002794
-0.4468,0.8194,-0.1115,0.1514,0.1995,0.2523,-4.55,-1.68,-7.6475,-7.540622585184306,-27.69232070714823,2.577208150795114,6.612999999997555
-0.4459,0.8715,-0.1205,0.1499,0.1988,0.2442,-4.55,-1.68,-7.6475,-7.808455303431561,-27.191346952319645,2.549337120788262,6.622999999992317
-0.4459,0.8715,-0.1205,0.1499,0.1988,0.2442,4.3575,5.5037,-2.0038,-7.8610495866265095,-26.939266852871544,2.592863431044222,6.632999999987078
-0.5018,1.0531,-0.1408,0.1502,0.1978,0.2505,5.32,2.0387,-3.8238,-7.652155318740951,-25.794514777591804,2.601650978266112,6.642999999996391
-0.5347,1.0702,-0.1444,0.1502,0.1978,0.2505,5.32,2.0387,-10.4913,-7.679564855705352,-26.24117285192325,2.6103506499652642,6.652999999991152
-0.4536,0.8846,-0.118,0.1502,0.1978,0.2505,-5.775,-6.1512,-10.4913,-7.610726178746925,-26.81389551595518,2.5842471434656114,6.652999999991152
-0.4261,0.8253,-0.111,0.1506,0.1994,0.2533,-7.6825,-4.9437,-10.4475,-7.654189133087953,-27.04562285871897,2.523995093498909,6.663000000000466
-0.4809,0.9294,-0.1199,0.1506,0.1994,0.2533,0.8662,0.0962,-4.6287,-7.487821828193387,-27.116293711550025,2.5142405740558074,6.672999999995227
-0.4809,0.9294,-0.1199,0.151,0.1995,0.2504,0.8662,0.0962,-4.6287,-7.412747379823954,-27.145436499521196,2.504583599807137,6.682999999989988
-0.4976,0.9929,-0.1338,0.151,0.1995,0.2504,2.7387,2.4938,-3.2113,-7.6106758887575765,-26.603000279558177,2.479537763809066,6.682999999989988
-0.4789,0.9673,-0.1272,0.151,0.1995,0.2504,-1.2163,0.1663,-5.5125,-7.55531112633204,-26.44208202575599,2.4709218076624992,6.69299999998475
-0.4721,0.9363,-0.1235,0.1515,0.2007,0.2467,-2.4588,-2.3187,-6.9738,-7.527329034106527,-26.49856827669226,2.4377905110780307,6.702999999994063
-0.4684,0.9293,-0.1216,0.1515,0.2007,0.2467,-2.4588,-2.3187,-6.9738,-7.478173280841633,-26.52548143692892,2.4134126059672503,6.702999999994063
-0.4684,0.9293,-0.1216,0.1477,0.1999,0.2476,-1.5575,-2.3975,-6.5975,-7.465423047916352,-26.5357847872712,2.3800762813990075,6.713000000003376
-0.4763,0.92,-0.1219,0.1477,0.1999,0.2476,-0.6562,-0.6388,-5.495,-7.484724641753511,-26.76251258783074,2.364484450080717,6.722999999998137
-0.4813,0.932,-0.1298,0.1477,0.2006,0.2524,1.0762,0.7175,-4.5937,-7.745639994105494,-26.956176281857946,2.3624759070685752,6.732999999992899
-0.4782,0.9488,-0.1254,0.1512,0.2006,0.2524,1.0762,0.7175,-4.5937,-7.618281484487467,-26.714792700596778,2.3604874495180397,6.743000000002212
-0.4745,0.9612,-0.1199,0.1512,0.2006,0.2524,0.2275,-0.3762,-5.6962,-7.432367027713977,-26.552433481803206,2.3368825750228592,6.743000000002212
-0.48,0.9615,-0.1243,0.1506,0.199,0.2555,-0.8662,-1.61,-6.6937,-7.409828912615311,-26.46953452063239,2.312107800773367,6.752999999996973
-0.48,0.9615,-0.1243,0.1506,0.199,0.2555,-1.96,-2.4762,-6.9475,-7.3829036303758375,-26.408402402407706,2.2790053942708624,6.7629999999917345
-0.4751,0.9384,-0.1268,0.1523,0.1979,0.2542,-1.96,-2.4762,-6.9475,-7.575679491797316,-26.519683981270283,2.2462340118188577,6.773000000001048
-0.4626,0.9221,-0.1243,0.1523,0.1979,0.2542,-2.03,-1.96,-7.2713,-7.639352674262733,-26.473643661670916,2.218900723203221,6.782999999995809
-0.464,0.9251,-0.1215,0.1523,0.1979,0.2542,-0.28,-0.7875,-6.405,-7.629097416199057,-26.46515869762514,2.1967117159711886,6.782999999995809
-0.4857,0.9479,-0.1246,0.1518,0.1999,0.2543,1.1375,-0.105,-5.8975,-7.545030592567292,-26.528187321705154,2.1882381503240436,6.793000000005122
-0.4857,0.9479,-0.1265,0.1518,0.1999,0.2543,1.1375,-0.105,-5.8975,-7.578721865307719,-26.581886183844517,2.179849320313734,6.802999999999884
-0.4878,0.9625,-0.1265,0.1503,0.1983,0.253,-0.2187,-1.0762,-6.335,-7.568133635261841,-26.603162436655275,2.1619294986142092,6.813000000009197
-0.4742,0.9428,-0.1292,0.1503,0.1983,0.253,-1.8637,-2.4762,-6.8338,-7.709649822237119,-26.552542141824254,2.1403102036280672,6.813000000009197
-0.4673,0.9162,-0.1213,0.1503,0.1983,0.253,-1.8637,-2.4762,-6.3088,-7.608566541627624,-26.60741326136456,2.1089257731115403,6.822999999989406
-0.4644,0.9231,-0.1219,0.1511,0.1997,0.255,-1.19,-1.82,-6.3088,-7.56934834326682,-26.587220218219002,2.0843515668771793,6.832999999998719
-0.4824,0.96,-0.1251,0.1511,0.1997,0.255,0.315,-0.1575,-5.39,-7.511512337115519,-26.54703244875696,2.076481852701611,6.842999999993481
-0.4824,0.96,-0.1251,0.1522,0.1988,0.2522,0.4288,-0.28,-5.18,-7.473429186826863,-26.518797317533615,2.0557170341745947,6.842999999993481
-0.4781,0.9652,-0.1293,0.1522,0.1988,0.2522,0.4288,-0.28,-5.18,-7.541981711453093,-26.346282458778205,2.046920915343802,6.853000000002794
-0.477,0.9433,-0.1256,0.1522,0.1988,0.2522,-1.6625,-2.1788,-6.7987,-7.566000855849509,-26.464090521199928,2.0194146376940503,6.862999999997555
-0.4685,0.9242,-0.1244,0.1514,0.2003,0.2398,-1.9162,-2.8963,-7.1838,-7.62709682660171,-26.57582041043097,1.9850801728039407,6.8730000000068685
-0.4779,0.9414,-0.1258,0.1514,0.2003,0.2398,-1.4175,-1.9075,-6.5625,-7.618984583587709,-26.621209973134665,1.9608781725845126,6.882999999987078
-0.4779,0.9414,-0.1229,0.1506,0.1984,0.2527,-1.4175,-1.9075,-6.5625,-7.525485642117374,-26.65439593020031,1.9412693908586673,6.882999999987078
-0.4764,0.9473,-0.1229,0.1506,0.1984,0.2527,-0.8138,-1.6013,-6.5625,-7.483212845244853,-26.604522102398263,1.9205368784488515,6.892999999996391
-0.4695,0.9351,-0.1244,0.1502,0.2018,0.2498,-0.9538,-1.5925,-6.9212,-7.518824086337856,-26.537179708646917,1.9000988111650086,6.902999999991152
-0.4724,0.9353,-0.1186,0.1502,0.2018,0.2498,-0.1488,-1.0412,-6.3263,-7.4699408630667605,-26.553615166386443,1.8853229945572936,6.913000000000466
-0.4774,0.9478,-0.126,0.1502,0.2018,0.2498,-0.1488,-1.0412,-6.3263,-7.487102051903043,-26.54919022512157,1.870694936109507,6.922999999995227
-0.4816,0.9493,-0.1215,0.1504,0.1997,0.2531,-0.2713,-1.1988,-6.1687,-7.473011051889539,-26.566013501037514,1.8522544798994358,6.923999999999069
-0.4816,0.9493,-0.1215,0.1504,0.1997,0.2531,-0.8838,-1.96,-6.6238,-7.410551315206077,-26.6191252227238,1.8288609866029932,6.93399999999383
-0.4747,0.9339,-0.1202,0.1514,0.2001,0.2533,-0.6037,-2.0125,-6.5538,-7.395068287850739,-26.664256891842285,1.8051816782319428,6.944000000003143
-0.4733,0.9329,-0.1246,0.1514,0.2001,0.2533,-0.6037,-2.0125,-6.5538,-7.438082339261677,-26.675099071003018,1.7817391629524473,6.9539999999979045
-0.4747,0.9423,-0.1243,0.1514,0.2001,0.2533,0.0613,-1.2075,-5.7663,-7.460368101967472,-26.644810075190172,1.7665005728215717,6.963999999992666
-0.4745,0.9488,-0.1273,0.1511,0.1995,0.2563,0.3675,-1.1025,-5.88,-7.536114350491775,-26.603544497702302,1.748835567093356,6.963999999992666
-0.4745,0.945,-0.1235,0.1511,0.1995,0.2563,-0.7088,-1.4175,-6.3263,-7.512221949669444,-26.5744909800417,1.7318470129221606,6.973999999987427
-0.4778,0.945,-0.1235,0.1518,0.2,0.2518,-0.7088,-1.4175,-6.3263,-7.494640679734421,-26.58567088583752,1.7150283442934042,6.98399999999674
-0.4737,0.9443,-0.1252,0.1518,0.2,0.2518,-0.8838,-1.8025,-6.3875,-7.514785095868656,-26.549384185375413,1.6978780608504702,6.98399999999674
-0.4774,0.9425,-0.1197,0.1518,0.2,0.2518,-1.0325,-1.645,-6.0113,-7.402478162173973,-26.554655547450164,1.6791468317428835,6.993999999991502
-0.476,0.9383,-0.1255,0.1514,0.2007,0.2562,-1.0325,-1.645,-6.3612,-7.490014372707017,-26.587495603044292,1.6606029149238226,7.004000000000815
-0.4749,0.9371,-0.126,0.1514,0.2007,0.2562,-1.6712,-1.6363,-6.3612,-7.585584763021335,-26.606520358161077,1.6423305672754571,7.013999999995576
-0.4749,0.9371,-0.126,0.1501,0.1992,0.2493,-0.7613,-1.5838,-6.5012,-7.606669346341611,-26.625646969653815,1.6259072616027026,7.013999999995576
-0.4752,0.9421,-0.1207,0.1501,0.1992,0.2493,-0.0875,-1.1812,-6.1687,-7.543115586703879,-26.620888567157486,1.6124873604893197,7.024000000004889
-0.4778,0.9462,-0.1273,0.1501,0.1992,0.2493,-0.0875,-1.1812,-6.1687,-7.567916681725707,-26.617295272068386,1.5992016583788078,7.033999999985099
-0.4763,0.9429,-0.1254,0.1522,0.2004,0.2502,-0.455,-1.5575,-6.2038,-7.568641859216687,-26.614870892924387,1.5832096417950197,7.033999999985099
-0.4677,0.9344,-0.123,0.1522,0.2004,0.2502,-1.1287,-1.9075,-6.79,-7.538162637690241,-26.52082208213243,1.563026346873017,7.043999999994412
