AcclX,AcclY,AcclZ,MagX,MagY,MagZ,GyroX,GyroY,GyroZ,Roll,Pitch,Yaw,Time Elapsed(s)
-0.3773,0.9525,0.1837,0.3394,0.2635,0.1856,-0.7613,-1.4175,-5.7663,0,0,0,0.005000000004656613
-0.3753,0.9531,0.1816,0.3394,0.2635,0.1856,-0.7613,-1.6363,-5.5825,0,0,0,0.015000000013969839
-0.3787,0.9524,0.1828,0.3394,0.2635,0.1856,-0.5337,-1.6363,-5.5825,0,0,0,0.020000000004074536
-0.3747,0.9547,0.1836,0.3384,0.2644,0.1863,-0.6125,-1.575,-5.9412,0,0,0,0.029999999998835847
-0.3747,0.9513,0.1859,0.3384,0.2644,0.1863,-0.2713,-1.5137,-5.6,0,0,0,0.04000000000814907
-0.3725,0.9513,0.1859,0.3378,0.262,0.1878,-0.2713,-1.5137,-5.6,0,0,0,0.04499999999825377
-0.3733,0.9498,0.1805,0.3378,0.262,0.1878,-0.3675,-1.4963,-5.635,0,0,0,0.055000000007566996
-0.3745,0.9525,0.1848,0.3378,0.262,0.1878,-0.525,-1.5137,-6.1425,0,0,0,0.06000000001222361
-0.3745,0.9516,0.1797,0.3382,0.2625,0.1819,-0.7525,-1.12,-6.2038,0,0,0,0.07000000000698492
-0.3733,0.9544,0.1822,0.3382,0.2625,0.1819,-0.7525,-1.12,-6.2038,0,0,0,0.08000000001629815
-0.3733,0.9544,0.1822,0.3399,0.2636,0.1794,-0.1312,-0.98,-5.46,0,0,0,0.08499999999185093
-0.3719,0.9509,0.182,0.3399,0.2636,0.1794,0.1488,-1.3038,-5.215,0,0,0,0.09500000000116415
-0.3753,0.9525,0.1796,0.3399,0.2636,0.1794,-0.1312,-1.715,-5.6087,0,0,0,0.10000000000582077
-0.3743,0.9535,0.186,0.3369,0.262,0.1825,-0.1312,-1.715,-5.6087,0,0,0,0.11000000000058208
-0.3745,0.9513,0.1822,0.3369,0.262,0.1825,-0.6825,-1.715,-5.8713,0,0,0,0.1200000000098953
-0.3902,0.9509,0.1847,0.3382,0.2642,0.1893,-0.4462,-1.3913,-5.74,0,0,0,0.125
-0.3764,0.9509,0.1847,0.3382,0.2642,0.1893,-0.4288,-1.4612,-5.8012,0,0,0,0.13500000000931323
-0.3761,0.9522,0.1844,0.337,0.2632,0.188,-0.4288,-1.4612,-5.8012,0,0,0,0.14000000001396984
-0.3718,0.9518,0.181,0.337,0.2632,0.188,-0.5337,-1.2425,-5.8713,0,0,0,0.15000000000873115
-0.3762,0.9528,0.1824,0.337,0.2632,0.188,-0.6125,-1.4525,-5.9675,0,0,0,0.16000000000349246
-0.373,0.9511,0.186,0.3378,0.2653,0.1842,-0.3237,-1.715,-5.775,0,0,0,0.16499999999359716
-0.373,0.9511,0.186,0.3378,0.2653,0.1842,-0.3237,-1.715,-5.775,0,0,0,0.17500000000291038
-0.3757,0.9519,0.1799,0.3368,0.2629,0.1858,-0.4288,-1.4875,-5.6962,0,0,0,0.180000000007567
-0.3757,0.9529,0.1832,0.3368,0.2629,0.1858,-0.595,-1.2075,-5.7225,0,0,0,0.1900000000023283
-0.3733,0.953,0.1846,0.3368,0.2629,0.1858,-0.595,-1.1988,-5.8187,0,0,0,0.20000000001164153
-0.3755,0.9519,0.1814,0.3385,0.2634,0.1893,-0.63,-1.1988,-5.8187,0,0,0,0.20500000000174623
-0.3776,0.9518,0.1868,0.3385,0.2634,0.1893,-0.3762,-1.3563,-5.8012,0,0,0,0.21500000001105946
-0.3776,0.9518,0.1868,0.3374,0.2608,0.1865,-0.0875,-1.3913,-5.8362,0,0,0,0.22000000000116415
-0.3788,0.9509,0.1838,0.3374,0.2608,0.1865,-0.0875,-1.3913,-5.8362,0,0,0,0.22999999999592546
-0.3762,0.9518,0.1879,0.3374,0.2608,0.1865,-0.1312,-1.7325,-5.5912,0,0,0,0.2400000000052387
-0.3759,0.9499,0.1826,0.3368,0.2637,0.1824,-0.28,-1.61,-5.845,0,0,0,0.2449999999953434
-0.376,0.9523,0.1809,0.3368,0.2637,0.1824,-0.525,-1.435,-6.125,0,0,0,0.2550000000046566
-0.376,0.9523,0.1809,0.3382,0.263,0.1823,-0.525,-1.435,-6.125,0,0,0,0.2600000000093132
-0.3726,0.9525,0.1846,0.3382,0.263,0.1823,-0.4375,-1.8288,-5.6613,0,0,0,0.27000000000407454
-0.3757,0.9517,0.1825,0.3382,0.263,0.1827,-0.49,-1.6625,-5.6788,0,0,0,0.28000000001338776
-0.3768,0.9525,0.184,0.3385,0.2658,0.1827,-0.5512,-2.03,-5.9062,0,0,0,0.28500000000349246
-0.3761,0.9509,0.1826,0.3385,0.2658,0.1827,-0.5512,-2.03,-5.9062,0,0,0,0.29499999999825377
-0.3753,0.9529,0.1836,0.3382,0.2612,0.1868,-0.7788,-1.6275,-5.7225,0,0,0,0.3000000000029104
-0.3753,0.9529,0.1836,0.3382,0.2612,0.1868,-0.5337,-1.4438,-5.5475,0,0,0,0.3099999999976717
-0.373,0.9522,0.1806,0.3397,0.263,0.1915,-0.49,-1.6275,-5.9325,0,0,0,0.3200000000069849
-0.3762,0.9536,0.182,0.3397,0.263,0.1915,-0.49,-1.6275,-5.9325,0,0,0,0.32500000001164153
-0.3736,0.9542,0.1829,0.3397,0.263,0.1915,-0.1138,-1.8375,-5.7225,0,0,0,0.33500000000640284
-0.3724,0.9501,0.1809,0.3366,0.263,0.193,-0.7613,-1.785,-5.9412,0,0,0,0.34000000001105946
-0.3724,0.9501,0.1809,0.3366,0.263,0.193,-0.7,-1.6712,-5.9588,0,0,0,0.35000000000582077
-0.3765,0.9517,0.1876,0.3372,0.2652,0.1864,-0.7,-1.6712,-5.9588,0,0,0,0.3600000000005821
-0.374,0.9517,0.1811,0.3372,0.2652,0.1864,-0.63,-1.7763,-6.0637,0,0,0,0.3650000000052387
-0.3775,0.954,0.183,0.3372,0.2652,0.1864,-0.3413,-1.61,-5.7575,0,0,0,0.375
-0.3761,0.9522,0.1879,0.338,0.2633,0.1822,-0.3413,-1.3038,-6.0287,0,0,0,0.3840000000054715
-0.3761,0.9519,0.1803,0.338,0.2633,0.1822,-0.1488,-1.3038,-6.0287,0,0,0,0.3919999999925494
-0.3761,0.9519,0.1803,0.3383,0.2632,0.1879,0.035,-1.4175,-6.23,0,0,0,0.40000000000873115
-0.3757,0.9526,0.1863,0.3383,0.2632,0.1879,-0.1138,-2.0038,-5.7663,0,0,0,0.40500000001338776
-0.3756,0.952,0.1821,0.3383,0.2632,0.1879,-0.1138,-2.0038,-5.7663,0,0,0,0.4150000000081491
-0.3781,0.9521,0.1801,0.3384,0.2634,0.1862,-0.49,-1.6187,-6.0725,0,0,0,0.41999999999825377
-0.3724,0.9515,0.1827,0.3384,0.2634,0.1862,-0.8225,-1.6363,-5.8187,0,0,0,0.4299999999930151
-0.3724,0.9515,0.1827,0.3366,0.263,0.1854,-0.49,-1.2862,-5.915,0,0,0,0.4400000000023283
-0.378,0.9518,0.1818,0.3366,0.263,0.1854,-0.49,-1.2862,-5.915,0,0,0,0.4450000000069849
-0.3735,0.952,0.1876,0.3366,0.2626,0.1911,-0.0962,-1.0237,-5.6087,0,0,0,0.45500000000174623
-0.3758,0.9525,0.1783,0.3374,0.2626,0.1911,-0.2187,-1.68,-5.8975,0,0,0,0.46000000000640284
-0.3759,0.954,0.1842,0.3374,0.2626,0.1911,-0.2275,-1.5662,-5.7137,0,0,0,0.47000000000116415
-0.3743,0.9521,0.179,0.3393,0.2632,0.1858,-0.2275,-1.5662,-5.7137,0,0,0,0.4800000000104774
-0.3743,0.9521,0.179,0.3393,0.2632,0.1858,-0.4812,-1.5575,-5.7575,0,0,0,0.485000000015134
-0.3745,0.9521,0.1834,0.3387,0.2636,0.184,-0.805,-1.4612,-6.16,0,0,0,0.4949999999953434
-0.375,0.9503,0.1831,0.3387,0.2636,0.184,-0.4025,-1.4963,-5.6613,0,0,0,0.5
-0.3744,0.9527,0.1813,0.3387,0.2636,0.184,-0.4025,-1.4963,-5.6613,0,0,0,0.5100000000093132
-0.3735,0.9532,0.1841,0.3385,0.2634,0.1968,-0.2275,-1.295,-5.7838,0,0,0,0.5200000000040745
-0.3735,0.9532,0.1796,0.3385,0.2634,0.1968,-0.4638,-1.4088,-6.1075,0,0,0,0.5250000000087311
-0.3748,0.9524,0.1796,0.3388,0.2634,0.1862,-0.6212,-1.5662,-5.6788,0,0,0,0.5350000000034925
-0.3737,0.9528,0.1843,0.3388,0.2634,0.1862,-0.6212,-1.5662,-5.6788,0,0,0,0.5400000000081491
-0.3752,0.9525,0.1831,0.3388,0.2634,0.1862,-0.4812,-1.5575,-5.6875,0,0,0,0.5500000000174623
-0.3761,0.9518,0.1823,0.337,0.2627,0.1798,-0.2013,-1.7675,-5.8713,0,0,0,0.5599999999976717
-0.3779,0.952,0.188,0.337,0.2627,0.1798,-0.2887,-1.5225,-5.9763,0,0,0,0.5650000000023283
-0.3779,0.952,0.188,0.34,0.2634,0.1894,-0.2887,-1.5225,-5.9763,0,0,0,0.5749999999970896
-0.3764,0.9521,0.1834,0.34,0.2634,0.1894,-0.4988,-1.6187,-5.8275,0,0,0,0.5800000000017462
-0.3762,0.9521,0.1844,0.34,0.2634,0.1894,-0.63,-1.1988,-5.9938,0,0,0,0.5900000000110595
-0.3737,0.9504,0.1836,0.339,0.2651,0.1843,-0.63,-1.1988,-5.845,0,0,0,0.6000000000058208
-0.3761,0.9529,0.1829,0.339,0.2651,0.1843,-0.6125,-1.5662,-5.845,0,0,0,0.6050000000104774
-0.3761,0.9373,0.182,0.3379,0.265,0.1852,-0.7,-1.4438,-5.9412,0,0,0,0.6150000000052387
-0.3723,0.952,0.182,0.3379,0.265,0.1852,-0.6913,-1.3125,-5.7225,0,0,0,0.6199999999953434
-0.3737,0.9532,0.1798,0.3374,0.2633,0.1884,-0.6913,-1.3125,-5.7225,0,0,0,0.6300000000046566
-0.3769,0.95,0.1828,0.3374,0.2633,0.1884,-0.6825,-1.5313,-5.915,0,0,0,0.6399999999994179
-0.3739,0.9519,0.1859,0.3374,0.2633,0.1884,-0.4725,-1.155,-5.9675,0,0,0,0.6450000000040745
-0.3753,0.9527,0.1815,0.3384,0.2624,0.1838,-0.63,-1.61,-5.5738,0,0,0,0.6549999999988358
-0.3753,0.9527,0.1815,0.3384,0.2624,0.1838,-0.63,-1.61,-5.5738,0,0,0,0.6600000000034925
-0.3742,0.9543,0.1826,0.3398,0.2631,0.1861,-0.5688,-1.3563,-5.7575,0,0,0,0.6720000000059372
-0.3742,0.9518,0.181,0.3398,0.2631,0.1861,-0.56,-1.4175,-5.6175,0,0,0,0.6779999999998836
-0.3745,0.9524,0.1853,0.3398,0.2631,0.1861,-0.6388,-1.47,-5.8362,0,0,0,0.6880000000091968
-0.3756,0.9519,0.1881,0.3386,0.2632,0.1835,-0.6388,-1.47,-5.8362,0,0,0,0.6929999999993015
-0.3756,0.9529,0.1815,0.3386,0.2632,0.1835,-0.5775,-1.6712,-5.425,0,0,0,0.7030000000086147
-0.3783,0.9529,0.1815,0.3381,0.2653,0.1859,-0.1312,-1.3563,-5.6962,0,0,0,0.7080000000132713
-0.3737,0.954,0.1821,0.3381,0.2653,0.1859,-0.7788,-1.085,-5.2675,0,0,0,0.7180000000080327
-0.3747,0.9511,0.1856,0.3381,0.2653,0.1859,-0.7788,-1.085,-5.2675,0,0,0,0.728000000002794
-0.3765,0.9514,0.1836,0.3374,0.2638,0.1862,-0.7,-1.3038,-5.6962,0,0,0,0.7329999999928987
-0.3751,0.9528,0.185,0.3374,0.2638,0.1862,-0.4725,-1.7587,-5.8975,0,0,0,0.7430000000022119
-0.3751,0.9528,0.185,0.3379,0.2634,0.1881,-0.2975,-1.6538,-5.6962,0,0,0,0.7480000000068685
-0.3726,0.9505,0.1809,0.3379,0.2634,0.1881,-0.2975,-1.6538,-5.6962,0,0,0,0.7580000000016298
-0.3776,0.9548,0.1844,0.3379,0.2634,0.1881,-0.3413,-1.0237,-5.9675,0,0,0,0.768000000010943
-0.3726,0.9522,0.1878,0.3386,0.2629,0.1842,-0.5163,-1.225,-5.81,0,0,0,0.7730000000010477
-0.3771,0.9515,0.1809,0.3386,0.2629,0.1842,-0.5163,-1.225,-5.9588,0,0,0,0.783000000010361
-0.3615,0.9537,0.1823,0.3381,0.2618,0.1848,-0.49,-1.4262,-5.9588,0,0,0,0.7880000000150176
-0.3747,0.9537,0.1823,0.3381,0.2618,0.1848,-0.7262,-1.365,-6.0637,0,0,0,0.797999999995227
-0.3767,0.9509,0.1821,0.3385,0.2622,0.1886,-0.5075,-1.435,-6.125,0.8052335629030141,-8.49328581047092,0.0,0.8080000000045402
-0.3753,0.9531,0.1844,0.3385,0.2622,0.1886,-0.5075,-1.435,-6.125,1.5587462209573617,-13.5441585704414,-0.00017539829965287928,0.8129999999946449
-0.3722,0.9518,0.1828,0.3385,0.2622,0.1886,-0.5863,-1.9075,-5.6087,2.8366118876348434,-14.511893958000982,-0.007716464223681156,0.8280000000086147
-0.3755,0.9527,0.1809,0.3393,0.2659,0.185,-0.4638,-1.82,-5.7312,3.1155939834674236,-15.932925912955834,-0.011801596179263853,0.838000000003376
-0.3755,0.9527,0.1809,0.3393,0.2659,0.185,-0.4288,-1.3038,-5.5388,3.127304606067129,-16.316480048038976,-0.010735496816588249,0.8480000000126893
-0.3747,0.9517,0.1835,0.3398,0.265,0.1854,-0.4288,-1.3038,-5.5388,3.1392457626430907,-16.66963653497535,-0.010154100149360527,0.853000000002794
-0.3771,0.9521,0.1807,0.3398,0.265,0.1854,-0.3413,-1.1725,-5.6525,3.7414223817363834,-17.41186292483956,-0.007804605749044562,0.8629999999975553
-0.3747,0.9518,0.1859,0.3398,0.265,0.1854,-0.63,-1.5225,-5.8275,4.9736342321089975,-18.410322049740408,-0.00894360629091655,0.8729999999923166
-0.376,0.9504,0.1831,0.3386,0.2635,0.1806,-0.77,-1.2862,-5.915,6.487564554231383,-19.292464263822943,-0.008293008527484765,0.8779999999969732
-0.3763,0.9551,0.1812,0.3386,0.2635,0.1806,-0.77,-1.2862,-5.915,7.573617463492939,-19.876923054464218,-0.007087755041164678,0.8880000000062864
-0.3763,0.9551,0.1812,0.3389,0.2633,0.1852,-0.4288,-1.3737,-5.6438,7.578477235673361,-20.07648848004055,-0.00688884079063379,0.893000000010943
-0.3705,0.9527,0.1802,0.3389,0.2633,0.1852,-0.175,-1.8375,-5.6262,8.209465974905173,-20.19584106680023,-0.0089877256784373,0.8980000000010477
-0.3742,0.953,0.1835,0.3389,0.2633,0.1852,0.0263,-1.6712,-5.775,9.048667485535232,-20.409030220913117,-0.011587025024157423,0.908000000010361
-0.3742,0.9499,0.1841,0.3375,0.2624,0.1874,0.0263,-1.6712,-5.775,9.647724918783977,-20.585072565518,-0.01281574307125483,0.9130000000004657
-0.3778,0.9538,0.1803,0.3375,0.2624,0.1874,-0.2713,-1.3388,-5.7225,9.790306486053002,-20.72683423785628,-0.012086002239982019,0.9230000000097789
-0.3778,0.9538,0.1803,0.3381,0.264,0.1904,-0.1838,-1.7325,-5.8275,9.969301344344622,-20.871895088435007,-0.015261188815855507,0.9330000000045402
-0.3753,0.9503,0.1864,0.3381,0.264,0.1904,-0.2362,-1.8463,-5.8713,10.150295848227248,-20.9627470498784,-0.01953124352538006,0.9429999999993015
-0.3761,0.9515,0.184,0.3381,0.264,0.1862,-0.2362,-1.8463,-5.8713,10.277729954562856,-21.034921358313866,-0.021547264392185725,0.9480000000039581
-0.3715,0.9514,0.1839,0.3384,0.2642,0.1862,-0.3413,-1.61,-5.81,10.330156128382178,-21.019601955382594,-0.0234150883471725,0.9579999999987194
-0.377,0.9518,0.1837,0.3384,0.2642,0.1862,-0.0525,-1.365,-5.9763,10.49201888264515,-21.098682037674553,-0.023009835763541427,0.963000000003376
-0.3742,0.9543,0.1857,0.3382,0.2637,0.1911,-0.0525,-1.365,-5.6875,10.633695127864074,-21.08997101398371,-0.022437534005587317,0.9730000000126893
-0.3742,0.9543,0.1857,0.3382,0.2637,0.1911,-0.3588,-1.575,-5.6875,10.657918887467714,-21.082875988721675,-0.023949955264621594,0.9830000000074506
-0.3727,0.9503,0.181,0.337,0.2626,0.1894,-0.4988,-1.4525,-6.0025,10.666318985947704,-21.078337785466445,-0.023972479012219407,0.9880000000121072
-0.3762,0.9514,0.1855,0.337,0.2626,0.1894,-0.2625,-1.33,-5.9675,10.718170839227996,-21.1232432747364,-0.023388402521776513,0.9930000000167638
-0.3712,0.9509,0.1856,0.337,0.2626,0.1894,-0.2625,-1.33,-5.9675,10.764309441556717,-21.069511429450746,-0.02246581509792174,1.0029999999969732
-0.3722,0.9523,0.1807,0.3379,0.2622,0.1774,-0.3063,-1.505,-5.7575,10.762139851398697,-21.05502227231039,-0.023284953547914638,1.0130000000062864
-0.3722,0.9523,0.1807,0.3379,0.2622,0.1774,-0.5075,-1.4787,-5.565,10.760807642943252,-21.050387941289802,-0.02344381731166027,1.0179999999963911
-0.3711,0.9536,0.185,0.3382,0.2629,0.1868,-0.1312,-1.5925,-5.7575,10.81067157278637,-21.017846034595642,-0.025119425740322544,1.0280000000057044
-0.3745,0.9512,0.182,0.3382,0.2629,0.1868,-0.1312,-1.5925,-5.7575,10.81552052642857,-21.04619547880732,-0.02677827808191871,1.0380000000004657
-0.3786,0.9515,0.1828,0.3382,0.2629,0.1868,-0.0613,-1.2775,-5.9588,10.831463987229377,-21.14506783428595,-0.02530204189997407,1.0480000000097789
-0.3744,0.9503,0.1851,0.3371,0.2639,0.1922,-0.4462,-1.3737,-5.7312,10.835006748269175,-21.14444454703717,-0.024920984780855086,1.0530000000144355
-0.3756,0.9527,0.183,0.3371,0.2639,0.1922,-0.3325,-1.5575,-5.7137,10.838317840898144,-21.1485884963156,-0.02623532152995219,1.062999999994645
-0.3756,0.9527,0.183,0.3378,0.2668,0.1867,-0.3325,-1.5575,-5.7137,10.841342321634604,-21.151893173302945,-0.026754741615380755,1.0679999999993015
-0.3749,0.9526,0.1835,0.3378,0.2668,0.1867,-0.63,-1.575,-5.495,10.851798301317853,-21.151113965327305,-0.028223990798317097,1.0779999999940628
-0.3772,0.9523,0.1812,0.3378,0.2668,0.1867,-0.2713,-1.3825,-5.9062,10.841198930287044,-21.185225099744148,-0.027857274190255254,1.0829999999987194
-0.377,0.9542,0.184,0.3375,0.2643,0.1939,-0.0875,-1.7237,-5.915,10.859782103895656,-21.19100038932563,-0.030787628051341255,1.0930000000080327
-0.3746,0.9531,0.1819,0.3375,0.2643,0.1939,-0.0875,-1.7237,-5.915,10.84589303879994,-21.165608662728772,-0.032084215067652515,1.0979999999981374
-0.3746,0.9531,0.1819,0.3382,0.2632,0.1878,-0.07,-1.4963,-6.0025,10.835132832973676,-21.145986809343075,-0.03272103951786789,1.1080000000074506
-0.3745,0.9502,0.1852,0.3382,0.2632,0.1878,-0.1663,-1.1812,-5.7838,10.875262851271742,-21.146692534064822,-0.030232005723821724,1.118000000002212
-0.376,0.9496,0.1798,0.3382,0.2631,0.1841,-0.3938,-1.1988,-6.1687,10.870287973258733,-21.19295861120255,-0.02893589396565797,1.1230000000068685
-0.3755,0.9531,0.1846,0.3384,0.2631,0.1841,-0.3938,-1.1988,-6.1687,10.873242725386588,-21.173454684903167,-0.02665895162704263,1.1330000000016298
-0.3752,0.9543,0.1811,0.3384,0.2631,0.1841,-0.2362,-1.7675,-5.8187,10.85273359520846,-21.159397355789906,-0.0282136354124684,1.1380000000062864
-0.3725,0.9531,0.1797,0.3387,0.2645,0.1854,-0.2013,-1.3825,-5.705,10.82040861354254,-21.129960878013062,-0.027762545658432235,1.1480000000010477
-0.3725,0.9531,0.1797,0.3387,0.2645,0.1854,-0.2013,-1.3825,-5.6613,10.794041622614653,-21.109827431786098,-0.02740044350176924,1.1530000000057044
-0.3751,0.9503,0.1831,0.339,0.2633,0.1841,-0.4812,-0.9975,-5.6613,10.799764803364255,-21.122565707430624,-0.023145985668836792,1.1630000000004657
-0.3764,0.9538,0.1851,0.339,0.2633,0.1841,-0.595,-1.4963,-5.5388,10.826032987632143,-21.12652356720997,-0.023872192413040328,1.1730000000097789
-0.3749,0.9502,0.1871,0.339,0.2633,0.1841,-0.2975,-1.6712,-5.4775,10.862022895905923,-21.12714597776073,-0.024978058790162173,1.1780000000144355
-0.3747,0.9527,0.1812,0.3404,0.2632,0.1862,-0.2975,-1.6712,-5.4775,10.85131779618263,-21.12711508018091,-0.02741745480085178,1.1880000000091968
-0.3747,0.9371,0.1817,0.3404,0.2632,0.1862,-0.7175,-1.575,-6.0988,10.878748997114162,-21.245981631160593,-0.028011678553652025,1.1930000000138534
-0.3747,0.9513,0.1817,0.3381,0.2666,0.185,-0.3413,-1.8025,-5.9763,10.873572477863979,-21.2135822458279,-0.03172060836022095,1.2029999999940628
-0.3739,0.9507,0.1817,0.3381,0.2666,0.185,-0.2362,-1.68,-5.6875,10.864981655863444,-21.19648218548647,-0.03417969887920437,1.213000000003376
-0.3753,0.952,0.1825,0.3381,0.2666,0.185,-0.2362,-1.68,-5.6875,10.862905575406831,-21.19064955738626,-0.03522605019170514,1.2180000000080327
-0.3748,0.9511,0.1846,0.3392,0.2649,0.1846,-0.035,-1.5925,-5.6788,10.897031642668527,-21.1831654726482,-0.03678383628878748,1.228000000002794
-0.3762,0.9527,0.1857,0.3392,0.2649,0.1846,-0.35,-1.295,-5.6788,10.906552443826689,-21.183586513144213,-0.03589839622541756,1.2330000000074506
-0.3762,0.9527,0.1857,0.3375,0.263,0.1844,-0.4462,-1.5925,-5.7838,10.908842455231948,-21.184056920057312,-0.03744945886216277,1.243000000002212
-0.3748,0.9507,0.1803,0.3375,0.263,0.1844,-0.4462,-1.5925,-5.7838,10.905678583190499,-21.1813430679378,-0.03898501087532002,1.2530000000115251
-0.3748,0.9547,0.1834,0.3375,0.263,0.1844,-0.7088,-1.1025,-5.6525,10.898757541443086,-21.16551186893569,-0.03565420737238715,1.2629999999917345
-0.3739,0.9536,0.1785,0.3391,0.2646,0.1857,-0.28,-1.3038,-5.8012,10.860696415953008,-21.14288759477749,-0.03434958189778031,1.2730000000010477
-0.3746,0.9539,0.181,0.3391,0.2646,0.1857,-0.14,-1.6538,-5.915,10.834653537758363,-21.128716047093917,-0.03526454437997455,1.2780000000057044
-0.3746,0.9518,0.1786,0.3386,0.2634,0.1873,-0.14,-1.6538,-5.915,10.788459165163166,-21.13456586983185,-0.037428815534856275,1.2880000000004657
-0.3735,0.9518,0.1786,0.3386,0.2634,0.1873,0.0875,-1.2687,-5.81,10.733811569211301,-21.123208372675183,-0.03640674067890442,1.2930000000051223
-0.3764,0.9526,0.1804,0.3366,0.2646,0.1909,0.1575,-1.4,-5.8975,10.729999606619103,-21.15196292476745,-0.03604482157211738,1.2980000000097789
-0.3757,0.9506,0.1826,0.3366,0.2646,0.1909,-0.1663,-1.575,-5.775,10.759688494239969,-21.166507540345275,-0.03742116995548636,1.3080000000045402
-0.375,0.9527,0.1825,0.3366,0.2646,0.1909,-0.1663,-1.575,-5.775,10.777190084444465,-21.159183758483806,-0.03791535655674026,1.3130000000091968
-0.3745,0.9537,0.1815,0.3382,0.2622,0.1845,-0.5688,-1.7413,-6.0287,10.776941775991911,-21.13572519830987,-0.04091936958940053,1.3230000000039581
-0.3745,0.9537,0.1815,0.3382,0.2622,0.1845,-0.3063,-1.7675,-5.8625,10.776752459233387,-21.12388708197679,-0.044152722491598316,1.3329999999987194
-0.3745,0.9514,0.1815,0.3389,0.2631,0.1833,-0.3063,-1.7675,-6.0113,10.77932848490113,-21.12938784290682,-0.047353741864774125,1.3429999999934807
-0.3754,0.952,0.186,0.3389,0.2631,0.1833,-0.5688,-1.6975,-6.0113,10.813518216430095,-21.13918633130289,-0.04982975104887336,1.353000000002794
-0.3742,0.9498,0.1846,0.3389,0.2631,0.1833,0.1488,-1.2337,-5.845,10.881202509628233,-21.14039305501516,-0.04768938013924486,1.3629999999975553
-0.374,0.9537,0.1817,0.3399,0.2628,0.1838,0.0525,-1.6538,-5.845,10.850589961287861,-21.12027694153216,-0.04947771127922956,1.3720000000030268
-0.374,0.9509,0.1853,0.3399,0.2628,0.1838,0.0525,-1.6538,-5.845,10.90776035184927,-21.117164002848412,-0.05099646744684748,1.3800000000046566
-0.3744,0.9509,0.1853,0.3388,0.2635,0.186,-0.385,-1.8813,-5.95,10.912592456847682,-21.121278041794856,-0.053348002729491945,1.385999999998603
-0.3755,0.9529,0.1809,0.3388,0.2635,0.186,-0.0437,-1.5488,-5.6438,10.867296412336204,-21.1278719288999,-0.053553231002885004,1.3910000000032596
-0.3766,0.9531,0.1812,0.3388,0.2635,0.186,0.2187,-0.9538,-5.845,10.82691721791644,-21.152146229700257,-0.05081115699080115,1.3960000000079162
-0.376,0.9523,0.1833,0.3382,0.2634,0.1923,0.2187,-0.9538,-5.845,10.853684549500574,-21.163268951546254,-0.04588996202320502,1.4060000000026776
-0.376,0.9525,0.1853,0.3382,0.2634,0.1923,-0.4288,-1.1725,-5.9062,10.853922524097948,-21.16863950104862,-0.044307085701926194,1.4110000000073342
-0.376,0.9525,0.1853,0.3368,0.2649,0.1906,-0.14,-1.61,-5.775,10.888496789760193,-21.17152282739902,-0.044905663145877045,1.4160000000119908
-0.3733,0.9523,0.1831,0.3368,0.2649,0.1906,-0.3938,-1.4088,-6.2125,10.888335595736477,-21.12108622106058,-0.04454802311437039,1.426000000006752
-0.3751,0.9528,0.1809,0.3368,0.2649,0.1906,-0.3938,-1.4088,-6.2125,10.883866131411871,-21.131397864611223,-0.044193959483311826,1.4360000000160653
-0.3716,0.9498,0.1823,0.3371,0.2622,0.1877,-0.385,-1.2513,-5.95,10.883098732074831,-21.094132656738356,-0.043018103192067156,1.440999999991618
-0.3772,0.9515,0.1798,0.3371,0.2622,0.1877,-0.455,-1.575,-5.7925,10.878176515516525,-21.141178440582976,-0.044324718761764005,1.4510000000009313
-0.3772,0.9534,0.1865,0.3383,0.2632,0.1822,-0.35,-1.4438,-6.02,10.89180469742254,-21.169509047709152,-0.04410042987435028,1.456000000005588
-0.3766,0.9534,0.1865,0.3383,0.2632,0.1822,-0.35,-1.4438,-6.02,10.904455432902434,-21.1766221216208,-0.04409734217537737,1.4660000000003492
-0.3744,0.9519,0.1809,0.339,0.2653,0.1896,-0.5863,-1.505,-5.9675,10.88466605450957,-21.159802658007518,-0.044700165354595714,1.4760000000096625
-0.3777,0.9539,0.1818,0.339,0.2653,0.1896,-0.4812,-1.61,-6.5538,10.879840376908886,-21.208845124082814,-0.04633646029995839,1.4860000000044238
-0.3769,0.9539,0.1914,0.339,0.2653,0.1896,-0.1138,-1.3212,-6.2737,10.991028391097277,-21.194125022573377,-0.04548518399659753,1.4910000000090804
-0.3764,0.95,0.1837,0.3389,0.2626,0.1894,-0.1138,-1.3212,-6.2737,10.979834292607162,-21.222007404834958,-0.04464242045627029,1.496000000013737
-0.3764,0.95,0.1837,0.3389,0.2626,0.1894,-0.3063,-1.435,-6.16,10.975980698877335,-21.236115551035084,-0.04454679285101334,1.5059999999939464
-0.3754,0.9535,0.1854,0.3386,0.2646,0.1892,-0.3063,-1.3825,-5.9237,10.978937378133162,-21.202483148312492,-0.04393237152234586,1.5160000000032596
-0.3753,0.9515,0.1797,0.3386,0.2646,0.1892,-0.3063,-1.3825,-5.9412,10.948286241789557,-21.196883109818167,-0.04340857110704373,1.5210000000079162
-0.3759,0.9535,0.1804,0.3386,0.2646,0.1892,-0.0437,-1.4262,-5.9412,10.88322259135754,-21.189565108817565,-0.04323816199583516,1.5310000000026776
-0.3753,0.9526,0.186,0.3385,0.2642,0.1777,-0.1925,-1.6712,-5.8888,10.91460636387527,-21.17471789006308,-0.04549495697446804,1.5409999999974389
-0.377,0.9518,0.1793,0.3385,0.2642,0.1777,0.1312,-1.5313,-6.09,10.826362410194704,-21.21087353173435,-0.04569209070533066,1.5460000000020955
-0.377,0.9518,0.1793,0.3394,0.2634,0.185,0.1312,-1.5313,-6.09,10.769740021945399,-21.233051301404473,-0.046539336399491954,1.5560000000114087
-0.3717,0.9522,0.1854,0.3394,0.2634,0.185,-0.1925,-1.2775,-6.0113,10.81694802816575,-21.1377687156919,-0.0454697163349343,1.5610000000160653
-0.3724,0.9534,0.1818,0.3394,0.2634,0.185,-0.2625,-1.3038,-5.8187,10.813970053119185,-21.099064228286746,-0.04406693577346128,1.5709999999962747
-0.3765,0.9515,0.1816,0.3362,0.263,0.1878,-0.2362,-1.2425,-5.8888,10.812583416865884,-21.141342060352144,-0.04284878971500259,1.5760000000009313
-0.375,0.9514,0.1832,0.3362,0.263,0.1878,-0.2362,-1.2425,-5.8888,10.826506054899014,-21.146558263335255,-0.04086534841866716,1.5859999999956926
-0.375,0.9514,0.1832,0.3381,0.2636,0.185,-0.4638,-1.7325,-5.8625,10.8290745531544,-21.15004884815805,-0.04210471823601533,1.5910000000003492
-0.3768,0.9491,0.1795,0.3381,0.2636,0.185,-0.3325,-1.435,-5.9938,10.818737682489523,-21.20586575384959,-0.04203446765398189,1.6010000000096625
-0.3734,0.9509,0.1801,0.3381,0.2636,0.1916,-0.2362,-1.785,-5.9237,10.803661813678307,-21.171580652961957,-0.045429919575443095,1.6110000000044238
-0.3739,0.9534,0.1837,0.338,0.2649,0.1916,-0.2362,-1.785,-5.9237,10.8200834974651,-21.13663229836968,-0.046883518681465536,1.6160000000090804
-0.373,0.9525,0.1806,0.338,0.2649,0.1916,-0.2887,-1.7675,-5.6788,10.809874098437993,-21.11999351093594,-0.05005723009274267,1.6260000000038417
-0.3736,0.9533,0.1807,0.3366,0.2635,0.1866,-0.3938,-1.505,-5.9675,10.807391211187783,-21.099445122646404,-0.05060045439278736,1.636000000013155
-0.3736,0.9533,0.1807,0.3366,0.2635,0.1866,-0.4025,-1.575,-6.1075,10.805598228559154,-21.083536330540465,-0.05096284814714088,1.6410000000032596
-0.3741,0.9511,0.1859,0.3382,0.2644,0.1886,-0.4025,-1.575,-6.1075,10.811733448711905,-21.093172000663174,-0.05219001626475963,1.650999999998021
-0.3756,0.9512,0.1791,0.3382,0.2644,0.1886,-0.4812,-1.6187,-5.9675,10.80413679971701,-21.132106751868697,-0.05383754270413248,1.6610000000073342
-0.3756,0.9529,0.1826,0.3382,0.2644,0.1886,-0.42,-1.4525,-5.9062,10.804451920281519,-21.141487483084738,-0.0535611905765726,1.6659999999974389
-0.3753,0.9503,0.1807,0.3386,0.263,0.1799,0.1838,-1.435,-5.7488,10.789976740378396,-21.155744254066278,-0.05337637527113358,1.676000000006752
-0.3753,0.9503,0.1807,0.3386,0.263,0.1799,0.1838,-1.435,-5.7488,10.780991883226154,-21.16680403071178,-0.05301800981858559,1.6810000000114087
-0.373,0.952,0.1842,0.339,0.2633,0.1855,-0.035,-0.8662,-5.6962,10.828804732178732,-21.142621155800576,-0.047207506323165935,1.69100000000617
-0.3766,0.9515,0.1847,0.339,0.2633,0.1855,-0.49,-1.19,-6.02,10.838044644526585,-21.17518826750465,-0.04466072785800206,1.7010000000154832
-0.3751,0.9518,0.1821,0.339,0.2633,0.1855,-0.49,-1.715,-6.02,10.83763108303354,-21.16979403283469,-0.04577551887178768,1.705999999991036
-0.3742,0.9524,0.1862,0.3389,0.2608,0.1814,-0.3063,-1.715,-6.02,10.861858097555956,-21.13996833755813,-0.048440560285978145,1.7160000000003492
-0.3745,0.9504,0.1817,0.3389,0.2608,0.1814,-0.5075,-1.925,-6.23,10.858998104637664,-21.14789038321919,-0.05315795128039331,1.7259999999951106
-0.3745,0.9504,0.1817,0.3373,0.2639,0.1863,-0.6825,-1.7763,-5.915,10.8517502039879,-21.151107889150374,-0.05449120506932614,1.7309999999997672
-0.3767,0.9511,0.1839,0.3373,0.2639,0.1863,-0.6825,-1.7763,-5.915,10.870383063701041,-21.181836414116145,-0.05581112632036965,1.7360000000044238
-0.3719,0.9515,0.1818,0.3373,0.2639,0.1863,-0.175,-1.6013,-5.705,10.85961826301944,-21.14649127246329,-0.05824876495704971,1.7510000000038417
-0.3745,0.952,0.1823,0.3374,0.264,0.1847,0.0875,-1.4,-5.7488,10.853097145900799,-21.14159474567571,-0.057668425607481213,1.7560000000084983
-0.3741,0.9526,0.1848,0.3374,0.264,0.1847,-0.3413,-1.5662,-5.7838,10.863043458146066,-21.127255253463098,-0.05874141795054219,1.7660000000032596
-0.3741,0.9526,0.1814,0.3386,0.2644,0.1895,-0.3413,-1.5662,-5.7838,10.856591236796582,-21.119540047272277,-0.05897884207180496,1.7710000000079162
-0.3756,0.9521,0.1814,0.3386,0.2644,0.1895,-0.4288,-1.8112,-6.0813,10.856484605437839,-21.143718146586206,-0.06246423024895205,1.7810000000026776
-0.3768,0.9513,0.1837,0.3386,0.265,0.1938,-0.4988,-1.4175,-5.88,10.861361003035425,-21.17555362085899,-0.06201713454636953,1.7909999999974389
-0.3753,0.9503,0.1836,0.3386,0.265,0.1938,-0.2713,-1.75,-5.9675,10.871288314600227,-21.181821588332504,-0.06486625980413688,1.801000000006752
-0.3762,0.9552,0.1839,0.3386,0.265,0.1938,-0.2713,-1.75,-5.9675,10.874830261134074,-21.168942309219442,-0.06595224550771103,1.8060000000114087
-0.3742,0.9518,0.1823,0.3391,0.2618,0.1882,-0.3938,-1.785,-5.7663,10.873788343556853,-21.155845853028218,-0.06910851965063494,1.81600000000617
-0.3742,0.9518,0.1823,0.3391,0.2618,0.1882,0.0,-1.3388,-5.9938,10.864467665585334,-21.140973435145366,-0.06811664275384846,1.8210000000108266
-0.3762,0.9521,0.1798,0.3364,0.2621,0.1866,-0.49,-1.4963,-5.74,10.85441172608211,-21.158141031272905,-0.0683931429258083,1.831000000005588
-0.3741,0.9516,0.1835,0.3364,0.2621,0.1866,-0.49,-1.4963,-5.74,10.857962168477822,-21.14702956999799,-0.06866687809604853,1.8410000000003492
-0.3746,0.95,0.1846,0.3364,0.2621,0.1866,-0.0875,-1.6013,-5.4338,10.893079583838466,-21.147362849683944,-0.06897879261601805,1.8460000000050059
-0.3761,0.9532,0.1821,0.3374,0.2638,0.1888,-0.3325,-1.7062,-5.6962,10.886364772509406,-21.15440373373473,-0.07132468128826758,1.8559999999997672
-0.3761,0.9532,0.1845,0.3374,0.2638,0.1888,-0.63,-1.4875,-5.7838,10.897870596166234,-21.15948550399553,-0.07148198107619567,1.8660000000090804
-0.3733,0.9514,0.1845,0.3378,0.263,0.1877,-0.63,-1.4875,-5.7838,10.910845773288179,-21.13668759857464,-0.07120243456457229,1.870999999999185
-0.3748,0.9539,0.1829,0.3378,0.263,0.1877,-0.035,-1.4875,-5.5825,10.89486124883531,-21.132764109326317,-0.07136095681973734,1.8810000000084983
-0.3772,0.9509,0.1864,0.3378,0.263,0.1877,-0.3588,-1.3388,-5.8187,10.907414174503948,-21.168853136263486,-0.07034655555125983,1.886000000013155
-0.3755,0.953,0.1836,0.339,0.2635,0.1938,-0.3588,-1.5225,-5.985,10.907240446987105,-21.16293275424776,-0.07086013659510967,1.8960000000079162
-0.376,0.9547,0.1826,0.339,0.2635,0.1938,-0.3237,-1.5225,-5.985,10.89979139836938,-21.15776215505108,-0.0707600585297253,1.9010000000125729
-0.376,0.9547,0.1826,0.3378,0.263,0.1904,-0.455,-1.505,-5.6613,10.897850270021735,-21.156110838763922,-0.07109625454236232,1.9109999999927823
-0.3741,0.9501,0.1821,0.3378,0.263,0.1904,-0.3063,-1.3737,-6.0813,10.892682312570571,-21.150680556277813,-0.07025725529681946,1.9159999999974389
-0.376,0.9533,0.1842,0.3378,0.263,0.1904,-0.3063,-1.3737,-6.0813,10.897369834117491,-21.15778547440772,-0.06929860934361279,1.926000000006752
-0.3741,0.9518,0.1865,0.338,0.2614,0.186,-0.2625,-1.365,-5.8275,10.924100229729868,-21.140130517933407,-0.06843452155051528,1.9309999999968568
-0.3773,0.9544,0.1815,0.338,0.2614,0.186,-0.5688,-1.3038,-5.775,10.904679968178828,-21.16035505481657,-0.06727613463456864,1.9360000000015134
-0.3773,0.9544,0.1849,0.3386,0.2641,0.1901,-0.8225,-1.4612,-6.0287,10.921577003128242,-21.178995296935458,-0.06721354988879123,1.9460000000108266
-0.3746,0.9526,0.1849,0.3386,0.2641,0.1901,-0.8225,-1.4612,-6.0287,10.939413747113063,-21.153368286216434,-0.06715159098958368,1.956000000005588
-0.375,0.9533,0.1809,0.3373,0.2646,0.1827,-0.7,-1.6888,-6.0462,10.89770945111745,-21.144803419348474,-0.06791178338102122,1.9610000000102445
-0.3727,0.9528,0.1812,0.3373,0.2646,0.1827,-0.7962,-1.505,-5.6875,10.862675833098058,-21.121752457202987,-0.06827646214666419,1.9710000000050059
-0.3727,0.9536,0.1855,0.3373,0.2646,0.1827,-0.665,-1.4875,-5.8625,10.89059711591148,-21.083632661523026,-0.0684642441247415,1.9809999999997672
-0.375,0.953,0.1793,0.3413,0.2646,0.1858,-0.665,-1.4875,-5.8625,10.845388405420078,-21.100378803182565,-0.06821487498389947,1.9860000000044238
-0.375,0.953,0.1793,0.3413,0.2646,0.1858,-0.5863,-1.2075,-5.7312,10.81929530492584,-21.109255930961837,-0.06658199953594203,1.9909999999945285
-0.3754,0.9517,0.1821,0.3359,0.2649,0.1816,-0.525,-0.9625,-5.635,10.820439824331483,-21.119440025891983,-0.05942574943453793,2.0060000000084983
-0.3753,0.9508,0.1866,0.3359,0.2649,0.1816,-0.6125,-1.5838,-5.705,10.864679475842182,-21.129979444718593,-0.05974345023838774,2.010999999998603
-0.3744,0.9538,0.1847,0.3359,0.2649,0.1816,-0.6125,-1.5838,-5.705,10.879495359347564,-21.119242670785358,-0.06096993233770252,2.0210000000079162
-0.376,0.9537,0.1846,0.3375,0.2646,0.1922,-0.735,-1.89,-5.7925,10.897218338416176,-21.12939562150333,-0.06278788131658641,2.026000000012573
-0.376,0.9523,0.1862,0.3375,0.2646,0.1922,-0.8313,-1.505,-5.8362,10.945003744180973,-21.14354950863211,-0.06320379910287374,2.036000000007334
-0.3748,0.9523,0.1862,0.3386,0.2631,0.185,-0.7175,-1.3125,-6.0025,10.971608381316686,-21.135093513025144,-0.062140784412697936,2.040999999997439
-0.3771,0.9493,0.1846,0.3386,0.2631,0.185,-0.7175,-1.3125,-6.0025,10.978973224551082,-21.19402298062883,-0.060657423167768204,2.051000000006752
-0.3766,0.9497,0.184,0.3386,0.2631,0.185,-0.665,-1.3038,-5.8975,10.976278256927833,-21.217552917987014,-0.0591027655365872,2.0610000000015134
-0.3762,0.952,0.1795,0.3391,0.2639,0.1963,-0.6737,-0.9625,-6.0988,10.917262370264638,-21.2194687998708,-0.05634826117920643,2.06600000000617
-0.3761,0.9536,0.1848,0.3391,0.2639,0.1963,-0.6737,-1.3038,-5.53,10.927197560322048,-21.215973605990058,-0.054836695167911044,2.0760000000009313
-0.3761,0.9536,0.1848,0.3373,0.2638,0.1802,-0.2887,-1.3038,-5.53,10.932103983378227,-21.2127078784546,-0.05381428651579045,2.081000000005588
-0.3734,0.9503,0.1818,0.3373,0.2638,0.1802,0.0088,-1.0325,-5.1188,10.901185468582,-21.184835937514865,-0.04964219024724816,2.091000000014901
-0.3745,0.9524,0.1825,0.3373,0.2638,0.2006,0.1663,-1.5313,-5.7312,10.881222483067726,-21.170161360101044,-0.05044993494409247,2.1010000000096625
-0.3749,0.9525,0.1796,0.3386,0.2631,0.191,0.1663,-1.5313,-5.7312,10.805570747906643,-21.16489198816962,-0.050597518895258854,2.106000000014319
-0.3785,0.9507,0.1818,0.3386,0.2631,0.191,-0.3063,-1.5225,-6.0988,10.807757239293313,-21.24002412397021,-0.05130859030389766,2.1159999999945285
-0.3629,0.9525,0.1837,0.3379,0.2642,0.1806,-0.2537,-1.19,-6.0287,10.823779024985472,-20.97565156117707,-0.049758152699892574,2.120999999999185
-0.3722,0.9525,0.1837,0.3379,0.2642,0.1806,-0.035,-1.3737,-6.0025,10.849787095071951,-20.981169688216905,-0.04900449777265516,2.1310000000084983
-0.3733,0.952,0.1863,0.3387,0.2631,0.1891,-0.035,-1.3737,-6.0025,10.912527203804814,-21.004628336884775,-0.048258379395062764,2.1410000000032596
-0.3746,0.9539,0.1831,0.3387,0.2631,0.1891,-0.4638,-1.6538,-5.8362,10.91087657282061,-21.027919850989626,-0.04903425390228417,2.1460000000079162
-0.3753,0.9529,0.181,0.3387,0.2631,0.1891,-0.9013,-1.4525,-5.9588,10.860750520315726,-21.06957768150302,-0.0490679579629868,2.1560000000026776
-0.3759,0.9514,0.1803,0.3378,0.263,0.1831,-0.6737,-1.4612,-5.7925,10.835073241403842,-21.106097991644347,-0.04888236668364107,2.161000000007334
-0.3759,0.9514,0.1803,0.3378,0.263,0.1831,-0.6737,-1.4612,-5.7925,10.814472681959248,-21.13349990431562,-0.04900371961737294,2.1710000000166474
-0.3778,0.9505,0.1859,0.3389,0.263,0.188,-0.665,-1.7675,-6.0462,10.862840052681507,-21.198736818022205,-0.0521562290139904,2.180999999996857
-0.377,0.9487,0.184,0.3389,0.263,0.188,-0.0787,-1.3212,-5.7925,10.892145315250062,-21.226907521228526,-0.05124675502348922,2.1860000000015134
-0.3764,0.9532,0.1853,0.3389,0.263,0.188,-0.105,-1.6975,-5.845,10.918667400553742,-21.215955898242047,-0.05368383407170916,2.1959999999962747
-0.3752,0.9532,0.1849,0.3377,0.2642,0.179,-0.105,-1.6975,-5.845,10.933078501820548,-21.19134388604486,-0.05462176903236556,2.2010000000009313
-0.3751,0.9515,0.1782,0.3377,0.2642,0.179,-0.7875,-1.295,-6.09,10.846896000453016,-21.187147576000548,-0.0530403479410778,2.2110000000102445
-0.3751,0.9515,0.1782,0.3361,0.2626,0.1867,-0.8225,-1.9338,-6.3263,10.779125482446636,-21.184056551808116,-0.055154402756433484,2.2160000000003492
-0.3747,0.9541,0.1834,0.3361,0.2626,0.1867,-0.2887,-1.5575,-5.9588,10.791505374785567,-21.15271466339388,-0.056166405330325325,2.2260000000096625
-0.3769,0.9514,0.1814,0.3361,0.2626,0.1867,-0.2887,-1.5575,-5.9588,10.791907962846343,-21.189477571450393,-0.05716828787620298,2.236000000004424
-0.3772,0.9527,0.1844,0.3387,0.2634,0.1824,-0.6212,-1.1988,-5.9062,10.818308172458062,-21.205612578797187,-0.05560281329940773,2.2409999999945285
-0.3731,0.9512,0.1825,0.3387,0.2634,0.1824,-0.4462,-1.6013,-5.7137,10.819100627074286,-21.17763022001116,-0.05704395176827366,2.2510000000038417
-0.3731,0.9512,0.1825,0.3379,0.2641,0.1837,-0.4462,-1.4438,-5.705,10.8198783546413,-21.155928995110425,-0.056692470550157595,2.2559999999939464
-0.3754,0.9528,0.1826,0.3379,0.2641,0.1837,-0.3237,-1.4438,-5.705,10.822606073587549,-21.15558422720641,-0.05656346244506387,2.2660000000032596
-0.376,0.9512,0.1852,0.3379,0.2641,0.189,-0.8313,-1.6363,-5.8625,10.87875581026495,-21.17019259558471,-0.05834149441938546,2.275999999998021
-0.3758,0.9504,0.1807,0.339,0.2636,0.189,-0.245,-1.435,-5.9325,10.861246664529103,-21.18901772662119,-0.05793347777535496,2.2810000000026776
-0.375,0.9529,0.1845,0.339,0.2636,0.189,-0.245,-1.435,-5.9325,10.876160920910657,-21.168321317276433,-0.057704939597928114,2.291000000011991
-0.3751,0.9517,0.182,0.3394,0.2637,0.1923,-0.4725,-1.295,-5.9675,10.874004857319466,-21.166359252297624,-0.0566102885029732,2.2960000000020955
-0.3751,0.9517,0.182,0.3394,0.2637,0.1923,-0.2975,-1.6888,-5.6875,10.868530364847254,-21.165642412079148,-0.058907602220610235,2.3060000000114087
-0.3752,0.9538,0.1843,0.3374,0.2638,0.1798,-0.28,-1.2775,-5.5912,10.877231581718892,-21.160111524549368,-0.05711007280079574,2.315999999991618
-0.375,0.9498,0.183,0.3374,0.2638,0.1798,-0.28,-1.2775,-5.5912,10.880880990250924,-21.163676062832717,-0.05593474537222505,2.3209999999962747
-0.3753,0.9517,0.1826,0.3374,0.2638,0.1798,-0.6125,-1.4438,-5.6175,10.877802931604423,-21.16461025113677,-0.055813314518910646,2.331000000005588
-0.3726,0.951,0.182,0.3374,0.2639,0.195,-0.56,-1.3125,-6.0637,10.872684402649723,-21.120493539295392,-0.0543932279741731,2.3410000000003492
-0.3726,0.951,0.182,0.3374,0.2639,0.195,-0.56,-1.295,-5.8012,10.868165671935154,-21.101900164952298,-0.05333169399394932,2.346000000005006
-0.3771,0.9548,0.181,0.3366,0.2628,0.1871,-0.56,-1.295,-5.8012,10.852456002401674,-21.12898253346311,-0.05176317365455214,2.355999999999767
-0.3724,0.9528,0.1811,0.3366,0.2628,0.1871,-0.5425,-1.3038,-5.95,10.843100372918464,-21.08835049991412,-0.05029745851712365,2.3660000000090804
-0.3771,0.9503,0.1849,0.3366,0.2628,0.1871,-0.6125,-1.1375,-5.915,10.869259479945073,-21.14886368588732,-0.04849725723074429,2.371000000013737
-0.375,0.9521,0.185,0.3402,0.263,0.18,-0.4988,-1.6888,-6.16,10.877718722586609,-21.144491796385754,-0.050875701252769974,2.3809999999939464
-0.3752,0.9518,0.1848,0.3402,0.263,0.18,-0.4988,-1.6888,-6.16,10.885064434762912,-21.14887730578534,-0.053230360842909046,2.3910000000032596
-0.3752,0.9518,0.1848,0.3399,0.2622,0.1851,-0.56,-1.7938,-6.0988,10.897097306234954,-21.151319085503832,-0.05464951553629739,2.3960000000079162
-0.3759,0.9541,0.1824,0.3399,0.2622,0.1851,-0.5425,-1.3825,-5.5037,10.88943327690291,-21.151483748782873,-0.05401854368110161,2.400999999998021
-0.3734,0.952,0.1815,0.3399,0.2622,0.1851,-0.4638,-1.505,-5.9675,10.886068622600481,-21.12439136602886,-0.05452215484526271,2.411000000007334
-0.3751,0.9534,0.1817,0.3389,0.2638,0.1888,-0.4638,-1.505,-5.9675,10.882685797548259,-21.12642112981099,-0.05449883159729614,2.416000000011991
-0.376,0.951,0.1841,0.3389,0.2638,0.1888,-0.385,-1.7062,-5.8713,10.885663700591385,-21.152119622996587,-0.056989519879732886,2.426000000006752
-0.376,0.951,0.1841,0.3378,0.2642,0.1862,-0.4025,-1.7938,-5.6613,10.887366395710075,-21.162594214095897,-0.06032254128457044,2.4360000000160653
-0.3757,0.9507,0.1795,0.3378,0.2642,0.1862,-0.4025,-1.6538,-5.4425,10.882646449853707,-21.16360520752869,-0.06097777416923417,2.44100000000617
-0.3746,0.9513,0.1828,0.3378,0.2654,0.1838,-0.385,-1.6538,-5.4425,10.882428087407432,-21.163232316266722,-0.0628849130262233,2.4510000000009313
-0.3761,0.9518,0.1814,0.3386,0.2654,0.1838,0.0263,-1.54,-5.5388,10.853706829706349,-21.166965898145833,-0.06364636049523274,2.4609999999956926
-0.3748,0.9539,0.1837,0.3386,0.2654,0.1838,-0.1663,-1.4787,-5.39,10.863381130270735,-21.162457957866934,-0.06340161019064523,2.4660000000003492
-0.3744,0.9518,0.1809,0.3371,0.2643,0.19,-0.1663,-1.4787,-5.39,10.842262458257858,-21.160252839314523,-0.0635510206894684,2.4760000000096625
-0.3744,0.9518,0.1809,0.3371,0.2643,0.19,-0.3237,-1.3388,-5.8888,10.834667991312184,-21.15075877335839,-0.062614718783169,2.480999999999767
-0.3767,0.9528,0.184,0.3379,0.2634,0.1851,-0.385,-1.4175,-5.9237,10.838538900180279,-21.17132662679201,-0.062166118195502676,2.4910000000090804
-0.3755,0.952,0.1832,0.3379,0.2634,0.1851,-0.35,-1.7062,-5.9062,10.842421318443387,-21.171748329676838,-0.06306229531496124,2.496000000013737
-0.3786,0.952,0.1825,0.3379,0.2634,0.1851,-0.35,-1.7062,-5.9062,10.84311117114893,-21.221975857817437,-0.06546734896022134,2.5060000000084983
-0.3739,0.9527,0.1827,0.3384,0.2634,0.1959,-0.4812,-1.5488,-5.5388,10.84376345486458,-21.21147485782647,-0.06629009206984517,2.5160000000032596
-0.3739,0.9527,0.1821,0.3384,0.2634,0.1959,-0.2275,-1.4875,-5.3637,10.839981398481429,-21.20003354187829,-0.06606246444828529,2.5209999999933643
-0.3796,0.9515,0.1821,0.3378,0.2641,0.1858,-0.1575,-1.4175,-5.6525,10.838789906780157,-21.231884214065158,-0.0655793864039678,2.5310000000026776
-0.3742,0.9535,0.1859,0.3378,0.2641,0.1858,-0.1575,-1.4175,-5.6525,10.879907393316717,-21.205155140520038,-0.06510113913983512,2.540999999997439
-0.375,0.9531,0.1822,0.3378,0.2641,0.1858,-0.2362,-1.4525,-5.95,10.870684650319664,-21.180190818534246,-0.06471215104868079,2.5460000000020955
-0.3751,0.9525,0.1803,0.3375,0.2645,0.1857,-0.7175,-1.6538,-5.6875,10.836512519574352,-21.175179828324307,-0.06658194614053806,2.5560000000114087
-0.3745,0.9506,0.1807,0.3375,0.2645,0.1857,-0.6475,-1.3388,-5.3375,10.82323907759807,-21.17330769970388,-0.06531454327944784,2.56600000000617
-0.3745,0.9506,0.1807,0.3378,0.2655,0.1845,-0.6475,-1.3388,-5.3375,10.81236131134934,-21.17163948527426,-0.06436060614637323,2.5710000000108266
-0.3772,0.9513,0.184,0.3378,0.2655,0.1845,-0.5775,-1.47,-5.95,10.82993986798362,-21.204231741846417,-0.0640656483842195,2.5760000000009313
-0.377,0.9528,0.1828,0.3378,0.2655,0.1845,-0.595,-1.75,-6.1425,10.834336031671741,-21.216947092172123,-0.06689428849855986,2.5859999999956926
-0.3748,0.9513,0.1856,0.3389,0.2631,0.1806,-0.7788,-1.5838,-6.1163,10.887779537208445,-21.186963717372915,-0.06713730391442359,2.5910000000003492
-0.3741,0.9523,0.183,0.3389,0.2631,0.1806,-0.7788,-1.5838,-6.1163,10.885162122076073,-21.150758096180148,-0.06828984747432387,2.6009999999951106
-0.3741,0.9523,0.1854,0.339,0.2618,0.1796,-0.7613,-1.2513,-6.0375,10.918150241229709,-21.12725469519189,-0.06613911559821362,2.611000000004424
-0.373,0.9521,0.1854,0.339,0.2618,0.1796,-0.4025,-1.3825,-5.8275,10.92059129605009,-21.10214903991633,-0.0653932477421528,2.6160000000090804
-0.3773,0.9521,0.1825,0.3394,0.2615,0.1809,-0.4025,-1.6187,-5.8625,10.918907817718218,-21.149140797784316,-0.06690874186359477,2.6260000000038417
-0.3782,0.9528,0.1882,0.3394,0.2615,0.1809,-0.14,-1.6187,-5.8625,10.9757020573976,-21.18571175548688,-0.06840908104697926,2.636000000013155
-0.3789,0.9513,0.1829,0.3394,0.2615,0.1809,-0.1225,-1.4875,-5.9237,10.954065203058695,-21.241623935046317,-0.06816026353564804,2.6410000000032596
-0.378,0.9513,0.1853,0.3378,0.2638,0.1906,-0.735,-1.505,-5.7312,10.97014594264261,-21.255543924224707,-0.06852245749974474,2.650999999998021
-0.378,0.9513,0.1853,0.3378,0.2638,0.1906,-0.735,-1.505,-5.7312,10.982442567943068,-21.266491916641638,-0.06888102952571941,2.661000000007334
-0.3725,0.9517,0.183,0.3391,0.2638,0.191,-1.2075,-1.1638,-5.7575,10.939477428794081,-21.211069018238824,-0.06702517753277186,2.665999999997439
-0.3805,0.9523,0.184,0.3391,0.2638,0.191,-0.6388,-1.2775,-5.6962,10.93882280332408,-21.251070838521652,-0.06514647235631868,2.676000000006752
-0.372,0.9509,0.1837,0.3391,0.2638,0.191,-0.3675,-1.05,-5.8187,10.938551662729234,-21.187948788432784,-0.06103430423456845,2.6860000000015134
-0.3747,0.9522,0.1823,0.3386,0.2616,0.1876,-0.3675,-1.05,-5.8187,10.932892800122715,-21.17291580969638,-0.058693609490611254,2.69100000000617
-0.3747,0.9545,0.1853,0.3386,0.2616,0.1876,-0.1925,-1.6538,-5.7575,10.943056254135758,-21.150452483041494,-0.060623589998049204,2.7010000000154832
-0.3725,0.9545,0.1853,0.3367,0.263,0.1862,-0.1838,-1.5225,-5.7137,10.951532652568085,-21.112295599337745,-0.06123440069566011,2.7109999999956926
-0.3714,0.9516,0.1874,0.3367,0.263,0.1862,0.3325,-1.015,-6.4575,11.033239611376041,-21.033036827717076,-0.058718454986930645,2.7160000000003492
-0.3933,0.9539,0.179,0.3367,0.263,0.1862,0.3325,-1.015,-6.4575,10.858278981583009,-21.545685861392716,-0.05432406703905582,2.7259999999951106
-0.3677,0.9522,0.181,0.3385,0.2622,0.1887,-1.82,-1.9863,-4.2525,10.802662475008688,-21.12417110686398,-0.05668515967137013,2.730999999999767
-0.3639,0.9525,0.1844,0.3385,0.2622,0.1887,-1.8112,-0.4112,-3.1237,10.892074248145432,-20.729263242092607,-0.04633348466554361,2.7410000000090804
-0.3639,0.9525,0.1844,0.3364,0.263,0.189,-0.9625,-0.6825,-4.7425,10.914598422038738,-20.658656173620287,-0.042320673125912804,2.745999999999185
-0.3684,0.9473,0.1903,0.3364,0.263,0.189,-0.9625,-0.6825,-4.7425,11.069453976960313,-20.747230508551727,-0.03479851298804227,2.7560000000084983
-0.3732,0.9545,0.1714,0.3364,0.263,0.189,-0.105,-2.17,-6.2038,10.852707503794814,-20.875741120315155,-0.03826417616171359,2.761000000013155
-0.3828,0.9538,0.1768,0.3386,0.2633,0.1805,-1.015,-2.2487,-6.475,10.722652692672149,-21.207953427289834,-0.046287960995692594,2.7710000000079162
-0.37,0.9488,0.19,0.3386,0.2633,0.1805,-0.3237,-0.98,-5.5563,10.779073706899142,-21.183088421521624,-0.04374822968380145,2.776000000012573
-0.37,0.9484,0.1864,0.3366,0.2632,0.193,-0.3237,-0.98,-5.5563,10.8109996986241,-21.1623160668545,-0.039157043995183875,2.7859999999927823
-0.3647,0.9484,0.1864,0.3366,0.2632,0.193,0.21,-0.8225,-6.3263,10.930987267290613,-20.934999245899203,-0.03590899685257174,2.790999999997439
-0.3717,0.9529,0.1857,0.3391,0.2632,0.1825,0.07,-2.3975,-7.7,10.963046745431324,-20.945604518926757,-0.04542945349324708,2.801000000006752
-0.3709,0.9522,0.1789,0.3391,0.2632,0.1825,0.07,-1.995,-8.155,10.855998947916865,-20.94727453875505,-0.04792255725248153,2.805999999996857
-0.3856,0.9549,0.1793,0.3391,0.2632,0.1825,0.105,-1.995,-8.155,10.779059373406882,-21.45760606950541,-0.053338128285446686,2.81600000000617
-0.3801,0.9553,0.1781,0.3402,0.2638,0.1847,-0.6475,-1.12,-7.3938,10.739633627745135,-21.395079194214482,-0.05003704360404214,2.8260000000009313
-0.3801,0.9553,0.1781,0.3402,0.2638,0.1847,0.2975,-2.6425,-7.2888,10.664409261136559,-21.37417748152757,-0.05568919647373171,2.831000000005588
-0.4056,0.946,0.2124,0.3375,0.2626,0.1882,0.2975,-2.6425,-7.2888,11.500640836031122,-22.232263778237964,-0.06743735112045436,2.841000000014901
-0.3445,0.9576,0.1525,0.3375,0.2626,0.1882,-1.995,-1.5925,-1.715,10.00348240338478,-20.122366716275224,-0.06771800090458029,2.845999999990454
-0.3624,0.9479,0.2038,0.3375,0.2626,0.1882,0.1575,1.3563,-4.34,10.789612449552383,-20.318998619850174,-0.03975774747012515,2.855999999999767
-0.3828,0.9474,0.1926,0.3393,0.2646,0.1881,0.49,-2.0825,-7.3325,11.125291150633066,-21.15492727186519,-0.04612121660172062,2.8660000000090804
-0.3828,0.9602,0.1532,0.3393,0.2646,0.1881,0.49,-2.0825,-7.3325,10.139667005494205,-21.372672139803864,-0.05242105103216152,2.8760000000038417
-0.3706,0.9602,0.1532,0.3398,0.2643,0.186,0.2713,-4.5237,-8.1637,9.697749433736684,-21.001238399777332,-0.06736130383624231,2.8810000000084983
-0.4079,0.9553,0.1876,0.3398,0.2643,0.186,-1.1725,-2.275,-6.3175,10.30090619611126,-21.800776284039475,-0.07535448739333962,2.8910000000032596
-0.362,0.9451,0.1987,0.3398,0.2643,0.186,-0.9887,1.155,-2.415,10.866201325117853,-20.85749614754663,-0.06195584080762956,2.8960000000079162
-0.3425,0.9495,0.1821,0.3389,0.2643,0.1814,-0.9887,1.155,-2.415,10.862767925345963,-19.841036034133648,-0.03604607897599993,2.9060000000172295
-0.3758,0.9499,0.1842,0.3389,0.2643,0.1814,0.595,0.3325,-6.4313,10.919156199266961,-20.52326424410175,-0.027111891528160684,2.9109999999927823
-0.3758,0.9499,0.1842,0.3385,0.2638,0.191,0.9013,-3.1063,-10.7712,10.95062788712016,-21.114202298564308,-0.04373743922861533,2.9210000000020955
-0.3859,0.9593,0.1584,0.3385,0.2638,0.191,-1.0237,-3.8412,-9.905,10.362377071514926,-21.55000249632624,-0.06747224142366613,2.930999999996857
-0.4332,0.9618,0.1617,0.3385,0.2638,0.1706,-1.0237,-3.8412,-9.905,10.056421661949967,-23.5088016662225,-0.07888360732068551,2.9360000000015134
-0.3831,0.9453,0.2227,0.339,0.2632,0.1808,-4.1038,-2.03,-3.36,12.572135138717911,-22.16682648664588,-0.08433606785329133,2.9460000000108266
-0.337,0.9534,0.1578,0.339,0.2632,0.1808,-1.8112,2.5638,1.2513,10.729463016473495,-19.606565683141397,-0.04425538379531364,2.956000000005588
-0.3697,0.9403,0.2073,0.3385,0.2637,0.1846,-0.6125,0.3063,-3.255,10.99564608921114,-20.568231401142903,-0.03536879324949638,2.9610000000102445
-0.3697,0.9403,0.2073,0.3385,0.2637,0.1846,-0.6125,0.3063,-3.255,11.22022842786576,-20.868307918546527,-0.018127031925848556,2.971000000005006
-0.3561,0.9592,0.1499,0.3393,0.2635,0.187,-0.4988,-3.5788,-6.4925,11.064135540774789,-20.49969708876957,-0.028732969916636448,2.9760000000096625
-0.3713,0.9512,0.1924,0.3393,0.2635,0.187,-1.785,-3.5,-8.8462,11.277692588167831,-20.837219058523363,-0.04923993680657661,2.986000000004424
-0.4037,0.9526,0.2018,0.3393,0.2635,0.187,-1.785,-1.12,-7.35,11.67106000473153,-21.936637541522217,-0.04597983403996076,2.995999999999185
-0.3786,0.9532,0.185,0.3381,0.2634,0.185,-0.1925,-1.12,-7.35,11.54035219394659,-21.52121064440826,-0.04413618399827234,3.0010000000038417
-0.3786,0.9532,0.185,0.3381,0.2634,0.185,0.1838,-0.7788,-4.4363,11.329176492443512,-21.410052080833587,-0.040622030455427866,3.0060000000084983
-0.3698,0.9507,0.1734,0.3386,0.2635,0.1848,-0.735,-0.5075,-4.0512,11.095618829555121,-21.135178636284206,-0.031384356755500116,3.0160000000032596
-0.3701,0.9526,0.1757,0.3386,0.2635,0.1848,-0.735,-0.5075,-6.2913,10.943770631118737,-21.033131173047185,-0.022239059779720186,3.026000000012573
-0.3612,0.9498,0.1901,0.3386,0.2635,0.1848,-1.435,-1.2425,-4.8825,11.131632782407573,-20.819803485469702,-0.02123919248346166,3.0310000000026776
-0.3772,0.9495,0.1881,0.3398,0.2634,0.1751,-0.8838,-2.4762,-6.9125,11.154771431763864,-21.098473920061554,-0.031685477168553716,3.041000000011991
-0.3896,0.9529,0.1892,0.3398,0.2634,0.1751,0.2187,-2.275,-7.1575,11.18434431972411,-21.572813425229185,-0.035702020688292126,3.0460000000020955
-0.3896,0.9529,0.1892,0.3378,0.2632,0.1842,0.2187,-2.275,-7.1575,11.202311230276374,-21.748640268993423,-0.04401179707686894,3.055999999996857
-0.3548,0.9511,0.1776,0.3378,0.2632,0.1842,0.175,-0.6562,-4.865,10.967302543222472,-21.14803124936683,-0.03621235569924635,3.06600000000617
-0.388,0.9546,0.173,0.3378,0.2632,0.1842,-0.5075,-0.5075,-5.74,10.915665112941014,-21.29039664095048,-0.03143450545099288,3.0709999999962747
-0.3703,0.9484,0.2042,0.3376,0.2625,0.1795,-0.91,-2.1962,-6.0637,11.317807508486553,-21.140324251374263,-0.039006837003828,3.081000000005588
-0.364,0.9542,0.1581,0.3376,0.2625,0.1795,-0.91,-2.1962,-6.0637,10.695959504833759,-20.945662300980263,-0.046503445229658144,3.0910000000003492
-0.364,0.9542,0.1581,0.3374,0.2639,0.1814,-0.2713,-1.61,-7.0437,10.522157567639795,-20.74808900143276,-0.04708005907833168,3.096000000005006
-0.3966,0.9498,0.2001,0.3374,0.2639,0.1814,-0.3938,-0.9975,-6.5625,10.566671217313852,-21.522400743760986,-0.04262880508384128,3.106000000014319
-0.3846,0.9532,0.1771,0.3374,0.2639,0.1859,-1.0237,-0.8838,-3.6925,10.551202266060512,-21.596187102018725,-0.0396494753380555,3.111000000004424
-0.3589,0.9507,0.1804,0.3378,0.2636,0.1859,-1.0237,-0.8838,-3.6925,10.623386908290843,-20.79999464101917,-0.03414689718734986,3.120999999999185
-0.381,0.9499,0.186,0.3378,0.2636,0.1859,-0.6388,0.1225,-4.2263,10.702923039734047,-21.17861676826058,-0.02627120150845957,3.1260000000038417
-0.3559,0.9531,0.1933,0.3374,0.2638,0.1883,-0.2975,-1.1025,-5.81,10.79042723145257,-20.899007074571955,-0.023067536094915655,3.135999999998603
-0.3559,0.9531,0.1933,0.3374,0.2638,0.1883,0.4462,-1.7675,-6.5887,11.104821261840605,-20.47568839059742,-0.02647940733735889,3.1460000000079162
-0.384,0.9535,0.1556,0.3377,0.2642,0.187,0.4462,-1.7675,-6.5887,10.24858178669873,-21.112356551170688,-0.028035886565681498,3.151000000012573
-0.3858,0.9484,0.2136,0.3377,0.2642,0.187,-0.5075,-2.3275,-7.7875,10.430104046612499,-21.485390810616142,-0.036942074295212145,3.161000000007334
-0.3717,0.9571,0.1566,0.3377,0.2642,0.187,0.4025,-2.0213,-5.4163,9.91415577558562,-21.46393857927526,-0.04272782014903553,3.1710000000020955
-0.375,0.946,0.1967,0.3377,0.263,0.1733,-1.8375,-1.435,-5.6262,10.98599403264044,-21.427910776619413,-0.042475940247708524,3.176000000006752
-0.375,0.946,0.1811,0.3377,0.263,0.1733,-0.0787,-1.435,-5.6262,10.94759884714128,-21.405767522194107,-0.04240197744504767,3.1860000000015134
-0.3788,0.9527,0.1834,0.3392,0.2625,0.1864,0.455,-1.61,-5.6087,10.923627200763956,-21.39562889225445,-0.04406125426950583,3.1959999999962747
-0.3659,0.9523,0.1749,0.3392,0.2625,0.1864,-0.56,-2.7037,-6.9738,10.863087754840551,-20.97785363058528,-0.05007610503282289,3.2010000000009313
-0.3849,0.9542,0.183,0.3392,0.2625,0.1864,-0.56,-2.7037,-6.9738,10.862324229700453,-21.359300029878675,-0.0624862705945189,3.2110000000102445
-0.3778,0.9501,0.187,0.3386,0.2628,0.1834,-0.6125,-2.2575,-7.035,10.904894277105923,-21.331342609794888,-0.07035495448412421,3.221000000005006
-0.3842,0.9532,0.1795,0.3386,0.2628,0.1834,-0.2713,-1.6625,-6.055,10.872480363782866,-21.434793674191674,-0.07095292824049511,3.2260000000096625
-0.3842,0.9532,0.1795,0.3383,0.2645,0.1863,-0.6212,-1.8813,-5.5125,10.838721759102343,-21.44350409466395,-0.07501256555559174,3.236000000004424
-0.3799,0.9522,0.1914,0.3383,0.2645,0.1863,-0.6212,-1.8813,-5.5125,10.92428287109492,-21.439459455073024,-0.07903160649753742,3.245999999999185
-0.3747,0.9506,0.1759,0.3383,0.2645,0.1863,-0.6562,-1.0325,-4.7337,10.842168644949169,-21.332823492204664,-0.07642431373086986,3.2510000000038417
-0.3696,0.9526,0.1857,0.3384,0.2642,0.1738,-0.9887,-0.805,-4.4975,10.910031850684772,-21.095052023541374,-0.06977386719664476,3.260999999998603
-0.3736,0.9504,0.1843,0.3384,0.2642,0.1738,-0.5425,-1.2687,-5.0487,10.916692560063535,-21.09708606599321,-0.06778055512347173,3.2710000000079162
-0.3736,0.9504,0.1787,0.3365,0.2632,0.1814,-0.5425,-1.2687,-5.0487,10.88900862439057,-21.104616260207145,-0.06645496287351901,3.275999999998021
-0.375,0.9551,0.1787,0.3365,0.2632,0.1814,-0.1575,-1.4088,-5.4075,10.827089653989649,-21.104545926895813,-0.0658361215448264,3.2810000000026776
-0.3715,0.9511,0.1818,0.338,0.2626,0.1815,-0.21,-1.2163,-5.6875,10.826071874640334,-21.083209257753435,-0.06336342692768841,3.291000000011991
-0.3778,0.9506,0.1839,0.338,0.2626,0.1815,-0.4025,-1.365,-5.8888,10.829042562610597,-21.153000215832073,-0.06255869095875015,3.2960000000020955
-0.3714,0.9514,0.1832,0.338,0.2626,0.1815,-0.4025,-1.365,-5.8888,10.83074218637279,-21.099055885677263,-0.061590900648843955,3.3060000000114087
-0.3752,0.9501,0.1814,0.3389,0.263,0.185,-0.6562,-2.1962,-6.16,10.8267358312895,-21.14113414839632,-0.06491832994602804,3.3110000000160653
-0.3752,0.9501,0.1814,0.3389,0.263,0.185,-0.21,-1.7325,-6.1775,10.823612354086826,-21.16624225177311,-0.06756519324004469,3.3209999999962747
-0.377,0.9538,0.1848,0.3368,0.2627,0.1861,-0.2013,-1.8112,-6.02,10.849721860773311,-21.18140786127872,-0.07096471791143956,3.331000000005588
-0.3737,0.9535,0.1851,0.3368,0.2627,0.1861,-0.2013,-1.8112,-6.02,10.874841624603325,-21.13200578717265,-0.07229265902829266,3.3359999999956926
-0.3783,0.9532,0.1851,0.3368,0.2627,0.1861,-0.8487,-1.5313,-5.8888,10.908801307490357,-21.178148413969417,-0.07287389903922434,3.346000000005006
-0.3681,0.9528,0.1882,0.3381,0.2614,0.1862,-0.4725,-1.3475,-5.53,10.920253092155178,-21.150519854673853,-0.07188743334859207,3.3510000000096625
-0.3681,0.9528,0.1787,0.3381,0.2614,0.1862,-0.0525,-0.7788,-5.6788,10.839101189617098,-21.086181672296288,-0.06502297561832564,3.361000000004424
-0.3795,0.9538,0.1787,0.3379,0.2642,0.1873,-0.0525,-0.7788,-5.6788,10.7771044816414,-21.135269888118575,-0.05822716245641886,3.371000000013737
-0.3638,0.9491,0.1867,0.3379,0.2642,0.1873,0.3063,-0.7175,-5.7225,10.925888880870263,-21.02626326780741,-0.05426866413853643,3.3760000000038417
-0.3823,0.9557,0.1707,0.3379,0.2642,0.1873,0.0263,-1.1638,-5.9938,10.67659263029289,-21.189088015336022,-0.05139189409837382,3.385999999998603
-0.3665,0.951,0.1918,0.3389,0.2642,0.1764,0.0263,-1.1638,-6.7812,10.903130276129358,-20.90807439883955,-0.049710933456303195,3.3910000000032596
-0.3766,0.9556,0.1734,0.3389,0.2642,0.1764,-0.3063,-0.9975,-6.7812,10.836405318087765,-21.071168347178684,-0.045233370723825404,3.400999999998021
-0.3766,0.9556,0.1734,0.3389,0.263,0.1868,-0.3063,-1.5575,-7.0963,10.776880696385735,-21.14777684703655,-0.04634458361804333,3.411000000007334
-0.3812,0.9531,0.1769,0.3389,0.263,0.1868,-0.8487,-1.9075,-6.3175,10.69915489863388,-21.295091533679617,-0.048395411076886996,3.415999999997439
-0.3678,0.9506,0.1906,0.3389,0.263,0.1868,-0.8487,-1.9075,-6.3175,10.888488931059607,-21.05490674999888,-0.05294000357080133,3.426000000006752
-0.3759,0.9495,0.1791,0.3378,0.2638,0.1804,0.1312,-1.2862,-6.5275,10.81447507576228,-21.15959554750845,-0.05184944183457069,3.4310000000114087
-0.3735,0.9523,0.1888,0.3378,0.2638,0.1804,0.0525,-1.9775,-7.35,10.943964447899202,-21.08317697086855,-0.05705249401322765,3.44100000000617
-0.3735,0.954,0.1729,0.3391,0.2643,0.1925,0.1488,-2.695,-7.07,10.698576755797138,-21.07404030575646,-0.06930676566637686,3.4510000000009313
-0.3759,0.954,0.1729,0.3391,0.2643,0.1925,0.1488,-2.695,-7.07,10.542880228180199,-21.14666445603344,-0.0750260963156851,3.456000000005588
-0.3931,0.9562,0.1767,0.3391,0.2658,0.182,-0.3325,-2.5638,-6.545,10.536554673041335,-21.596818666811487,-0.08580175194649019,3.4660000000003492
-0.3708,0.9485,0.1907,0.3391,0.2658,0.182,-0.2975,-1.61,-5.5213,10.632054440784264,-21.56046685002792,-0.0859853827279954,3.471000000005006
-0.3737,0.951,0.1773,0.3391,0.2658,0.182,-0.49,-1.47,-6.1425,10.62784307129322,-21.382351437098688,-0.08582282550035017,3.480999999999767
-0.3897,0.9501,0.1842,0.3394,0.2647,0.1902,-0.49,-1.47,-6.1425,10.648163206001714,-21.605830031502432,-0.08531324554567138,3.486000000004424
-0.3897,0.9501,0.1842,0.3394,0.2647,0.1902,-0.6737,-2.4062,-5.9325,10.712202115047813,-21.710899501959663,-0.09442578969949593,3.496000000013737
-0.3825,0.9541,0.179,0.3384,0.2639,0.1781,-2.2487,-1.645,-3.8937,10.656435718121553,-21.58571168904559,-0.09591132840122808,3.5060000000084983
-0.3788,0.9516,0.1847,0.3384,0.2639,0.1781,-2.5725,0.1488,-2.59,10.879990772116937,-21.40664970196689,-0.08728780341007776,3.511000000013155
-0.3566,0.9488,0.1912,0.3384,0.2639,0.1781,-2.5725,0.1488,-2.59,11.2302490466621,-20.530835028522155,-0.07108610200631366,3.5209999999933643
-0.3602,0.9516,0.1839,0.3378,0.2638,0.1813,-1.0762,-0.4462,-3.5875,11.115146086070503,-20.43726501797445,-0.0609369175774604,3.5310000000026776
-0.3602,0.9549,0.1753,0.3378,0.2638,0.1813,-0.105,-1.7938,-6.0725,10.9414587920213,-20.40618773863515,-0.06227900670350323,3.536000000007334
-0.3701,0.9549,0.1753,0.3378,0.263,0.1863,-0.42,-2.1875,-7.175,10.93757202258529,-20.697489417193943,-0.06945676323238174,3.5460000000020955
-0.3814,0.9529,0.1864,0.3378,0.263,0.1863,-0.42,-2.1875,-7.175,10.93851306873813,-21.16986040169884,-0.07266246890369035,3.551000000006752
-0.3807,0.9524,0.1805,0.3378,0.263,0.1863,-0.9013,-1.8463,-6.6062,10.8719357405911,-21.31506775484354,-0.07635851081233656,3.5610000000015134
-0.381,0.9492,0.1924,0.3385,0.2637,0.181,-0.7262,-1.2425,-5.355,11.006913076388939,-21.330155082691526,-0.07403997230276503,3.5710000000108266
-0.378,0.9536,0.1769,0.3385,0.2637,0.181,-0.7262,-1.2425,-4.6463,10.89240060066056,-21.31349421711144,-0.0725220958790133,3.5760000000154832
-0.378,0.9536,0.1769,0.3361,0.2649,0.1938,-0.7788,-0.8487,-4.6463,10.792764488328363,-21.304306754875366,-0.06634330153101613,3.5859999999956926
-0.3659,0.9482,0.1798,0.3361,0.2649,0.1938,-1.2163,-1.1375,-4.8913,10.768208465331018,-21.10826109404408,-0.0630854151132897,3.596000000005006
-0.3752,0.954,0.187,0.3361,0.2649,0.1733,-0.8575,-1.82,-5.9763,10.865104623376254,-21.106786935192716,-0.06453570925803809,3.6009999999951106
-0.3768,0.9529,0.1842,0.3384,0.2641,0.1827,-0.8575,-1.82,-5.9763,10.887815079893521,-21.144693877093836,-0.06805264876933416,3.611000000004424
-0.3819,0.9528,0.1839,0.3384,0.2641,0.1827,-0.35,-1.645,-6.23,10.89043404548768,-21.291622436641394,-0.06858702058277227,3.6160000000090804
-0.3756,0.9537,0.1766,0.3384,0.2645,0.1873,-0.1663,-1.6888,-5.5912,10.807733946201548,-21.27736975381448,-0.0707645669754445,3.6260000000038417
-0.3756,0.9537,0.1766,0.3384,0.2645,0.1873,-0.315,-0.8925,-4.8038,10.775748084013921,-21.234425605468914,-0.06754694460335246,3.6310000000084983
-0.371,0.9507,0.182,0.338,0.2628,0.1896,-0.315,-0.8925,-4.8038,10.781976896604073,-21.129985844858606,-0.06185152175994874,3.6410000000032596
-0.3705,0.9508,0.1806,0.338,0.2628,0.1896,-0.4112,-1.2775,-5.6962,10.781549484994871,-21.0952196721388,-0.06002455314298233,3.650999999998021
-0.3711,0.9513,0.1826,0.338,0.2628,0.1896,-0.5075,-2.0912,-6.405,10.787795732098962,-21.030503051788138,-0.06284789591474096,3.6560000000026776
-0.381,0.9523,0.1859,0.3399,0.2655,0.1872,-0.4375,-2.1962,-6.7638,10.790410794920167,-21.261451101091318,-0.07010609355146198,3.665999999997439
-0.381,0.9523,0.1859,0.3399,0.2655,0.1872,-0.4375,-2.1962,-6.7638,10.792999361177165,-21.36168614190101,-0.07334837091961989,3.6710000000020955
-0.3744,0.9527,0.1859,0.3394,0.2644,0.1841,-0.4288,-1.8988,-5.6875,10.793380264336667,-21.31171474158657,-0.07755730381502668,3.6810000000114087
-0.3757,0.9528,0.1835,0.3394,0.2644,0.1841,-0.1925,-1.33,-5.1712,10.81386824835458,-21.279132761995452,-0.07609302737723721,3.69100000000617
-0.3744,0.9522,0.1838,0.3394,0.2644,0.1841,-0.3063,-1.4088,-5.495,10.825887237740938,-21.27337104054844,-0.07537780540350741,3.6960000000108266
-0.3736,0.9516,0.1803,0.3367,0.2639,0.1827,-0.3063,-1.4088,-5.495,10.815397078979808,-21.267246677886202,-0.07471544394942446,3.706000000005588
-0.3759,0.9509,0.1845,0.3367,0.2639,0.1827,-0.6913,-1.68,-5.4775,10.849879447767975,-21.26624500082506,-0.07535643781122303,3.7110000000102445
-0.3759,0.9509,0.1845,0.339,0.2642,0.1866,-0.4025,-1.6275,-5.9062,10.853035403353266,-21.248841284105957,-0.07685942003192868,3.721000000005006
-0.3772,0.9508,0.1863,0.339,0.2642,0.1866,-0.455,-1.925,-5.88,10.85932521013043,-21.25561586521644,-0.08129262242888434,3.730999999999767
-0.3767,0.9542,0.185,0.339,0.2642,0.1866,-0.455,-1.925,-5.88,10.862375688968628,-21.234583768541427,-0.08308059450701778,3.736000000004424
-0.373,0.9523,0.184,0.3393,0.2635,0.1983,-0.3413,-1.3737,-5.5825,10.868182210215153,-21.212790883552042,-0.08199371516208176,3.745999999999185
-0.3738,0.9519,0.1785,0.3393,0.2635,0.1983,-0.0875,-1.155,-5.4075,10.805432294293155,-21.207422331228234,-0.07996317630933349,3.7510000000038417
-0.3738,0.9519,0.1785,0.3396,0.2628,0.1851,-0.0875,-1.155,-5.8275,10.75859575000476,-21.17978764739491,-0.07674234114398523,3.761000000013155
-0.3717,0.9537,0.1828,0.3396,0.2628,0.1851,-0.6037,-1.3038,-5.8275,10.772384976269734,-21.116847536625244,-0.07502683433304205,3.7710000000079162
-0.3734,0.9519,0.1824,0.3396,0.2628,0.185,-0.3938,-1.855,-5.8975,10.774812273114817,-21.102471617243364,-0.07653096429181121,3.776000000012573
-0.3741,0.9535,0.1814,0.3376,0.2625,0.185,-0.4462,-1.8025,-5.845,10.774752494201302,-21.09572249286901,-0.07975470124099854,3.7859999999927823
-0.3786,0.9518,0.1814,0.3376,0.2625,0.185,-0.4462,-1.8025,-5.845,10.775042979173058,-21.16436952907074,-0.0809516775304461,3.790999999997439
-0.3698,0.9521,0.1813,0.3362,0.264,0.1915,-0.2275,-1.3475,-5.6875,10.77607746427265,-21.1124107868128,-0.0796267073546616,3.801000000006752
-0.3698,0.9521,0.1813,0.3362,0.264,0.1915,-0.2013,-1.505,-5.5738,10.777031948048082,-21.08905397745016,-0.07987423688056816,3.8110000000015134
-0.3733,0.9515,0.1806,0.3382,0.262,0.1878,-0.2187,-1.6187,-5.74,10.771886357276426,-21.086846575452643,-0.08016020781277271,3.81600000000617
-0.3762,0.9528,0.1828,0.3382,0.262,0.1878,-0.2187,-1.6187,-5.74,10.787186309565962,-21.110415704820202,-0.08152803233350848,3.8260000000009313
-0.3749,0.9527,0.1822,0.3382,0.262,0.1878,-0.665,-1.6275,-5.915,10.794804784131122,-21.117147659608147,-0.08296929861227498,3.8360000000102445
-0.3746,0.9509,0.1851,0.3378,0.2639,0.1696,-0.0437,-1.33,-5.5388,10.855936179705704,-21.118874902203014,-0.08179525392583152,3.841000000014901
-0.3746,0.9509,0.1851,0.3378,0.2639,0.1696,-0.245,-1.2687,-5.3113,10.880506617970019,-21.121698474818807,-0.07968172798913722,3.8509999999951106
-0.3751,0.9511,0.1825,0.3382,0.2626,0.1864,-0.245,-1.2687,-5.3113,10.877663484989315,-21.128246233854295,-0.07823712400864255,3.855999999999767
-0.376,0.9532,0.1854,0.3382,0.2626,0.1864,-0.2713,-1.4525,-5.915,10.895081139240645,-21.140253857469332,-0.07797879936828159,3.8659999999945285
-0.3718,0.9526,0.1839,0.3382,0.2626,0.1864,-0.1138,-1.4,-5.6525,10.902595797266423,-21.11242428270497,-0.07720330797460277,3.8760000000038417
-0.373,0.9535,0.1825,0.3383,0.2646,0.1914,-0.5688,-1.1812,-5.7312,10.894260925851443,-21.092172897854947,-0.07535036319385006,3.8810000000084983
-0.3761,0.9532,0.1864,0.3383,0.2646,0.1914,-0.5688,-1.1812,-5.7312,10.915388860202397,-21.108353141576924,-0.07243503616304409,3.8910000000032596
-0.3761,0.9532,0.1864,0.3374,0.2634,0.185,-0.385,-1.1812,-6.0025,10.921442031740098,-21.129322409663015,-0.07062977410040697,3.8960000000079162
-0.3769,0.9521,0.1809,0.3374,0.2634,0.185,-0.6037,-1.3737,-6.1337,10.896933586379777,-21.178419786759065,-0.06966740295953705,3.9060000000026776
-0.378,0.9512,0.1848,0.3374,0.2634,0.185,-0.665,-1.5313,-5.88,10.91567579202929,-21.2175614497996,-0.07027489552925847,3.915999999997439
-0.3774,0.9511,0.1832,0.337,0.2635,0.179,-0.665,-1.5313,-5.88,10.913189362556642,-21.23838732750659,-0.07022422987457319,3.9210000000020955
-0.3742,0.954,0.1886,0.337,0.2635,0.179,-0.1138,-1.4525,-5.5388,10.97754018821382,-21.224328499779777,-0.06978401087607149,3.926000000006752
-0.3742,0.954,0.1815,0.3393,0.2634,0.194,-0.1838,-1.6975,-6.0113,10.937272617047052,-21.170620224842708,-0.0720357173657656,3.9360000000015134
-0.3733,0.9514,0.1815,0.3393,0.2634,0.194,-0.1838,-1.6975,-6.1425,10.910517561413814,-21.132870383920228,-0.07426490679056276,3.9459999999962747
-0.3777,0.9545,0.1849,0.3377,0.2634,0.1878,-0.4638,-1.6888,-6.1425,10.912374799570328,-21.172397346855252,-0.07495396602399051,3.9510000000009313
-0.3741,0.952,0.1834,0.3377,0.2634,0.1878,-0.28,-1.8725,-6.0988,10.911335318511085,-21.14415450116012,-0.0788864729681111,3.9610000000102445
-0.3747,0.9515,0.1813,0.3377,0.2634,0.1878,-0.5163,-1.8637,-6.0462,10.901243243333127,-21.1457397582701,-0.08269253483602286,3.971000000005006
-0.3728,0.9506,0.184,0.3374,0.2633,0.1866,-0.5163,-1.8637,-6.0462,10.905622871432334,-21.11332348120996,-0.08416307278980231,3.9760000000096625
-0.3728,0.9506,0.184,0.3374,0.2633,0.1866,-0.6913,-1.3212,-6.1863,10.915897716798556,-21.090063327665593,-0.08254561866231072,3.986000000004424
-0.375,0.9522,0.1831,0.3387,0.2638,0.1839,-0.5512,-1.2163,-5.915,10.912450316357356,-21.10676914181873,-0.08081299577748295,3.9909999999945285
-0.3731,0.9524,0.1853,0.3387,0.2638,0.1839,-0.0962,-1.4875,-5.6262,10.93670841760117,-21.096324469214288,-0.08087541242051889,4.001000000003842
-0.3771,0.952,0.182,0.3387,0.2638,0.1839,-0.0962,-1.4875,-5.6262,10.90842950165747,-21.11959489403904,-0.08050193159671909,4.006000000008498
-0.3774,0.9523,0.1851,0.3394,0.2636,0.1834,-0.1138,-1.5838,-5.9062,10.930167421075556,-21.162063468175166,-0.08152082887979642,4.01600000000326
-0.3774,0.9523,0.1833,0.3394,0.2636,0.1834,-0.56,-1.7675,-5.5912,10.926060778674625,-21.173908516433052,-0.08434816719439085,4.026000000012573
-0.3735,0.9507,0.1833,0.3382,0.2634,0.1865,-0.385,-1.4438,-5.775,10.925531916708906,-21.154947065254092,-0.08372364382201361,4.0310000000026776
-0.3772,0.9521,0.1865,0.3382,0.2634,0.1865,-0.385,-1.4438,-5.775,10.931914355094912,-21.176650538203077,-0.08332432398420131,4.041000000011991
-0.3753,0.9522,0.183,0.3382,0.2634,0.1865,-0.1138,-1.6187,-5.81,10.91924591786074,-21.172138882822015,-0.08466050734006587,4.0509999999922
-0.3759,0.9504,0.1821,0.339,0.2638,0.1918,-0.5688,-1.3737,-5.53,10.910240679098594,-21.175854603355834,-0.08368586556654597,4.055999999996857
-0.3738,0.9518,0.1848,0.339,0.2638,0.1918,-0.385,-1.1113,-5.7925,10.913383695176778,-21.15270786895228,-0.07999517350822268,4.06600000000617
-0.3738,0.9518,0.1848,0.3388,0.2626,0.1829,-0.385,-1.1113,-5.7925,10.916399261365559,-21.135340415272484,-0.0777683050759644,4.070999999996275
-0.3738,0.9531,0.1814,0.3388,0.2626,0.1829,-0.0437,-1.155,-5.4513,10.877479411460932,-21.13479861525475,-0.07456941862294983,4.081000000005588
-0.3744,0.9509,0.1729,0.3388,0.2626,0.1829,-0.1138,-1.5137,-5.775,10.740944567221597,-21.144531726415426,-0.0749536510361284,4.091000000000349
-0.3545,0.9601,0.1485,0.3396,0.2619,0.191,-0.84,-4.8825,-7.3675,10.171654279972019,-20.424248391455098,-0.0914446378418236,4.096000000005006
-0.3943,0.941,0.248,0.3396,0.2619,0.191,-0.84,-4.8825,-7.3675,11.513482798750136,-21.495576727663916,-0.12501123809551837,4.106000000014319
-0.3943,0.9841,0.0864,0.339,0.2632,0.1952,-0.4725,-2.625,-7.5075,11.232346740210414,-21.672358643153988,-0.1298270240025584,4.111000000004424
-0.3803,0.9841,0.0864,0.339,0.2632,0.1952,-0.9013,-6.895,-7.0525,9.23370206465399,-21.29304140105719,-0.18293355033403186,4.120999999999185
-0.3434,0.9236,0.265,0.3382,0.2659,0.1905,-0.9013,-6.895,-8.54,11.4126648212023,-20.064902287276286,-0.23550901140219055,4.130999999993946
-0.4187,0.9601,0.173,0.3382,0.2659,0.1905,-1.3563,-4.1125,-8.54,10.835617996884396,-22.45312546031351,-0.26001196791318215,4.14100000000326
-0.3456,0.9482,0.1793,0.3382,0.2659,0.1905,-0.8925,-2.38,-5.1887,10.795071776032364,-21.866933554287925,-0.26226499653857016,4.146000000007916
-0.3943,0.9511,0.2013,0.3379,0.2666,0.1846,-0.9625,-3.1063,-7.4375,11.197815592369079,-22.00637299555619,-0.2680906798564647,4.150999999998021
-0.3943,0.9511,0.2013,0.3379,0.2666,0.1846,-0.9625,-3.1063,-7.4375,11.46014908138101,-22.053199874530268,-0.2823064396736363,4.161000000007334
-0.379,0.949,0.1901,0.3365,0.2631,0.1882,0.0088,-1.5925,-5.845,11.419823512815135,-21.867289833521493,-0.28139342187589933,4.1710000000020955
-0.3716,0.9495,0.1858,0.3365,0.2631,0.1882,-0.4812,-1.5662,-5.3812,11.40201544220728,-21.804920291965736,-0.2794043259579085,4.176000000006752
-0.3814,0.9442,0.2177,0.3365,0.2631,0.1882,-0.42,-0.0088,-5.1363,11.413420764730395,-21.726794197041656,-0.26284169930554235,4.186000000001513
-0.3854,0.9506,0.1933,0.3383,0.2645,0.1871,-0.42,-0.0088,-5.1363,11.41400266800224,-21.71237517998307,-0.25332899062611136,4.190999999991618
-0.3854,0.9468,0.1939,0.3383,0.2645,0.1871,-0.1488,1.19,-3.8588,11.448821260162916,-21.73002991216129,-0.22515899729597422,4.201000000000931
-0.3623,0.9468,0.1939,0.3384,0.2634,0.1861,-0.4988,4.1125,-2.5375,11.457168829514544,-20.850747900082652,-0.16833795387219275,4.2110000000102445
-0.3873,0.9625,0.1594,0.3384,0.2634,0.1861,0.3063,4.0338,-2.9225,10.588120656163163,-21.425630769404517,-0.11286425096164991,4.221000000005006
-0.3457,0.9581,0.1446,0.3384,0.2634,0.1861,0.3063,4.0338,-2.9225,9.739442615084611,-20.141419283118797,-0.07408238208393125,4.228000000002794
-0.3792,0.9459,0.1945,0.3398,0.2617,0.1877,-0.8838,-0.5425,-5.2063,10.32871057386545,-20.40369467853561,-0.06909908155914082,4.233000000007451
-0.3798,0.9543,0.1799,0.3398,0.2617,0.1877,-0.3063,-1.5488,-7.0963,10.366168786255592,-20.997559729570124,-0.06914679904208747,4.237999999997555
-0.3798,0.9543,0.1799,0.338,0.2644,0.1897,-0.9887,-2.1437,-6.895,10.477512826697065,-21.21142505460075,-0.07582225765852758,4.2480000000068685
-0.3781,0.9554,0.1907,0.338,0.2644,0.1897,-0.9887,-2.1437,-6.895,10.768941403624833,-21.211162703554677,-0.082430961678083,4.25800000000163
-0.3834,0.9503,0.1831,0.338,0.2644,0.1692,-0.315,-1.12,-5.6788,10.782762544429692,-21.283145064815816,-0.08022280036001336,4.263000000006286
-0.3693,0.9546,0.177,0.3378,0.2651,0.1834,-0.1488,-0.0962,-4.4975,10.72212595525065,-21.058884225971433,-0.06651724894439608,4.2730000000156
-0.3581,0.9459,0.1933,0.3378,0.2651,0.1834,-0.2013,-0.3237,-5.145,10.874659015559178,-20.88932744767668,-0.060526539780991026,4.277999999991152
-0.4007,0.9553,0.1724,0.3396,0.2637,0.1901,-0.2013,-0.3237,-5.145,10.755816659373039,-21.258132289038336,-0.049270200973261534,4.288000000000466
-0.4007,0.9553,0.1724,0.3396,0.2637,0.1901,-0.35,-1.4525,-6.6937,10.71809532555999,-21.90539121651534,-0.04930154556325439,4.297999999995227
-0.3741,0.97,0.13,0.3393,0.2628,0.1833,-2.45,2.45,-4.235,8.65385131359599,-21.36263831883608,-0.02975317838987517,4.302999999999884
-0.3492,0.9202,0.2686,0.3393,0.2628,0.1833,-2.45,2.45,-6.2562,13.751823724909022,-20.765486188501725,0.008655056829516936,4.313000000009197
-0.3982,0.9511,0.194,0.3393,0.2628,0.1833,-2.1437,0.175,-6.2562,12.347109380706819,-21.447909798969995,0.024156709653055584,4.323000000003958
-0.3825,0.9647,0.1477,0.3386,0.2626,0.1822,2.1525,-4.2088,-7.9187,9.722165037861325,-21.41503738345317,0.010009434243574323,4.328000000008615
-0.3825,0.9647,0.1477,0.3386,0.2626,0.1822,0.7962,-0.14,-4.9788,9.162276967313325,-21.410695984897536,0.016144191606945232,4.333000000013271
-0.3697,0.96,0.1542,0.3393,0.261,0.1866,0.7962,-0.14,-4.9788,9.141869553058081,-21.218322393011103,0.028452453084343285,4.343000000008033
-0.3512,0.9389,0.2071,0.3393,0.261,0.1866,-2.4588,3.4913,-3.6575,11.351364667340466,-20.477179535903485,0.07658750192813432,4.353000000002794
-0.363,0.9384,0.214,0.3393,0.261,0.1866,-1.0325,1.8988,-7.0525,11.915082051906381,-20.59180377099481,0.0921485386240586,4.358000000007451
-0.3842,0.96,0.1669,0.338,0.2642,0.1867,1.05,0.84,-9.1088,10.691087563315838,-21.31957373827868,0.11339875662620294,4.368000000002212
-0.3906,0.9603,0.1722,0.338,0.2642,0.1867,1.05,0.84,-9.1088,10.378066026139962,-21.71179835670859,0.12335062077026542,4.3730000000068685
-0.3906,0.9603,0.1722,0.3384,0.2648,0.1834,1.0938,3.2025,-7.6912,10.250222211069792,-21.786022274256734,0.16767756793869507,4.38300000000163
-0.3848,0.9536,0.1862,0.3384,0.2648,0.1834,0.0962,4.5763,-5.3725,10.52453310374199,-21.771558497868796,0.22516186571440616,4.393000000010943
-0.3685,0.9502,0.188,0.3384,0.2648,0.1834,0.7262,2.4588,-5.3987,10.881838441728833,-21.71732327058073,0.2611080704372514,4.403000000005704
-0.3762,0.9523,0.1744,0.3398,0.2638,0.1845,0.7262,2.4588,-5.3987,10.611910099581362,-21.689588708625404,0.27759590145066615,4.408000000010361
-0.3776,0.9565,0.1738,0.3398,0.2638,0.1845,0.525,0.2713,-6.5538,10.459046859102358,-21.44780095587117,0.2913615158274938,4.418000000005122
-0.3776,0.9565,0.1738,0.3392,0.2629,0.1872,0.245,-0.56,-6.685,10.39451402920933,-21.326115278284963,0.2926037523609942,4.422999999995227
-0.3922,0.9516,0.1915,0.3392,0.2629,0.1872,-0.4288,-0.14,-5.4513,10.396022701585403,-21.3317607928649,0.30214741824899755,4.43300000000454
-0.415,0.9613,0.1492,0.3392,0.2614,0.1821,-0.4288,-0.14,-5.4513,10.393609149422467,-21.346576802127736,0.30536079577231423,4.438000000009197
-0.349,0.9482,0.1997,0.3402,0.2614,0.1821,-3.1937,5.7488,-0.7437,11.495073223665234,-20.07653195467624,0.3730760111775175,4.448000000003958
-0.3714,0.9527,0.1649,0.3402,0.2614,0.1821,-1.4175,5.67,-0.9187,10.661576909755363,-20.844133906889112,0.43933395453092433,4.458000000013271
-0.3507,0.9202,0.2548,0.3386,0.2638,0.1811,-1.05,0.105,-5.0487,12.509610716011604,-20.647146385641094,0.4423882166708758,4.463000000003376
-0.3507,0.9202,0.2548,0.3386,0.2638,0.1811,-1.05,0.105,-5.0487,13.648448953566106,-20.507541399763333,0.4528595379180393,4.473000000012689
-0.3906,0.9903,0.0859,0.3397,0.2639,0.1784,1.0588,-4.1912,-8.7063,8.453371096221959,-21.2298740900368,0.4206937659935545,4.482999999992899
-0.3761,0.9473,0.2022,0.3397,0.2639,0.1784,-2.3537,0.175,-6.9738,10.820262518246647,-21.22394390029791,0.4242809300408778,4.487999999997555
-0.391,0.9523,0.1778,0.3397,0.2639,0.1784,-2.3537,0.175,-4.585,10.659266111374244,-21.576487312778937,0.43562632415498664,4.4980000000068685
-0.3716,0.9388,0.2221,0.3378,0.2652,0.1726,-1.9863,1.2075,-4.585,12.274310301400265,-21.338425292314273,0.44417503758789706,4.502999999996973
-0.3716,0.9388,0.144,0.3378,0.2652,0.1726,0.315,-1.0938,-4.8562,10.760256360026593,-21.34950153277524,0.4427603706148373,4.513000000006286
-0.378,0.962,0.1503,0.3406,0.2638,0.1822,0.105,0.2013,-5.4163,10.107086442780957,-21.343998113893857,0.4541813403003863,4.523000000001048
-0.3741,0.9589,0.1809,0.3406,0.2638,0.1822,0.105,0.2013,-5.4163,10.307314784398134,-21.32865560353004,0.4575638136047625,4.528000000005704
-0.3893,0.953,0.185,0.3406,0.2638,0.1822,-1.2337,0.6913,-4.2875,10.610223952113307,-21.610778187959333,0.47368774888799287,4.538000000015018
-0.3653,0.952,0.1692,0.339,0.2614,0.1725,-1.0325,0.6388,-2.9838,10.409556857838767,-20.959501246806532,0.4790407830791444,4.543000000005122
-0.371,0.9473,0.1887,0.339,0.2614,0.1725,-1.9775,1.0762,-3.8937,10.930004688941045,-20.99120004848276,0.4987604586355129,4.552999999999884
-0.371,0.9473,0.1887,0.3386,0.2618,0.1816,-1.9775,1.0762,-3.8937,11.134082990361884,-21.00355327113024,0.5182829374363176,4.562999999994645
-0.375,0.9477,0.1936,0.3386,0.2618,0.1816,-0.8138,1.1025,-4.5675,11.248848026466783,-21.091804892456704,0.525485334773489,4.5679999999993015
-0.3662,0.9536,0.177,0.3386,0.2618,0.1816,-0.63,0.14,-5.0838,11.125172836521378,-20.98065928770167,0.5278513331328516,4.573000000003958
-0.3609,0.9496,0.1854,0.339,0.262,0.1921,-0.2975,-2.5025,-7.8138,11.11624693084109,-20.61250433454198,0.5116537732072433,4.582999999998719
-0.3785,0.9507,0.1901,0.339,0.262,0.1921,-0.2975,-2.5025,-7.8138,11.13822729198881,-21.113027198140212,0.49561818886500164,4.593000000008033
-0.3785,0.9507,0.1873,0.3389,0.263,0.1815,-0.3675,-4.8562,-9.4937,11.1386240741584,-21.29216042012669,0.45644133039427875,4.603000000002794
-0.3794,0.9523,0.1873,0.3389,0.263,0.1815,0.4988,-5.1887,-8.6363,11.133037669091808,-21.337104974532995,0.4331207037728679,4.608000000007451
-0.3809,0.9525,0.1768,0.3397,0.2642,0.179,0.8313,-4.3663,-7.5862,10.788856295126418,-21.4232205252704,0.41410416346420237,4.612999999997555
-0.3789,0.9537,0.1788,0.3397,0.2642,0.179,0.8313,-4.3663,-7.5862,10.693964196628357,-21.359962844813957,0.3805924552449467,4.622999999992317
-0.378,0.9551,0.1745,0.3397,0.2642,0.179,0.4025,-4.1825,-7.245,10.539766839285953,-21.30372929401283,0.34923548406683835,4.63300000000163
-0.3781,0.9565,0.1717,0.3397,0.2639,0.1815,0.0613,-3.1937,-6.7112,10.420604490500017,-21.279331468248618,0.3368621659178989,4.638000000006286
-0.3781,0.9565,0.1717,0.3397,0.2639,0.1815,-0.0875,-3.2638,-6.2213,10.358750652977976,-21.27090315397634,0.3150376276683884,4.648000000001048
-0.3867,0.9441,0.1979,0.3397,0.263,0.1796,-0.0875,-3.2638,-6.2213,10.734089581997667,-21.51911971571644,0.2934313347745161,4.658000000010361
-0.3781,0.9623,0.1427,0.3397,0.263,0.1796,-0.2013,-1.75,-5.145,10.310323364105649,-21.45212082373658,0.2870277248285884,4.668000000005122
-0.3944,0.9552,0.1743,0.3397,0.263,0.1796,-3.4562,0.525,-3.2375,10.333584353031023,-21.903440148261915,0.3032106509703211,4.677999999999884
-0.3692,0.9565,0.1719,0.3382,0.2614,0.1736,-3.4562,0.525,-0.1312,10.22436558170174,-20.97603823934124,0.30970514616949024,4.68300000000454
-0.3692,0.9409,0.2054,0.3382,0.2614,0.1736,-5.5563,3.395,-0.1312,11.973535364823375,-20.975097294678566,0.3540742980829293,4.6929999999993015
-0.3669,0.9464,0.2054,0.3391,0.2616,0.1825,-4.7337,2.9225,-1.3825,12.193978358127735,-20.79406985418377,0.3933220085419498,4.703000000008615
-0.3708,0.9514,0.1821,0.3391,0.2616,0.1825,-2.6513,0.595,-2.5725,11.256849160504922,-20.907274398059933,0.39926189013699087,4.707999999998719
-0.3783,0.955,0.1776,0.3391,0.2616,0.1825,-2.6513,0.595,-2.5725,10.758805238933911,-21.18289073497628,0.41501547465401106,4.718000000008033
-0.3669,0.9503,0.1911,0.3376,0.262,0.1831,-3.43,0.9712,-2.94,11.21746484322786,-20.860256259422588,0.4226006116184003,4.723000000012689
-0.3789,0.9515,0.1977,0.3376,0.262,0.1831,-2.3975,1.2075,-2.9137,11.562581461079432,-21.176082886213305,0.44418455888869524,4.733000000007451
-0.3789,0.9515,0.1977,0.338,0.264,0.1804,-0.6825,0.56,-2.695,11.598199021119582,-21.267179759544714,0.45914241671787565,4.743000000016764
-0.3733,0.9514,0.1927,0.338,0.264,0.1804,-0.6825,0.56,-2.695,11.568064064459158,-21.096498510254484,0.47395069591230365,4.752999999996973
-0.344,0.9597,0.1511,0.338,0.264,0.1804,0.9187,0.8138,-2.7387,10.064543856205491,-19.9277424764154,0.48016735066338434,4.75800000000163
-0.3746,0.9394,0.2184,0.3377,0.2614,0.1784,1.0412,-2.6425,-6.7812,11.863241499174038,-20.66703793747509,0.4692131538510205,4.763000000006286
-0.3877,0.9551,0.2014,0.3377,0.2614,0.1784,1.8025,-4.935,-8.3038,11.893728615379315,-21.403580182441097,0.42952022573084614,4.773000000001048
-0.3877,0.9576,0.1843,0.3401,0.2602,0.1819,1.8025,-4.935,-8.3038,11.203508314473455,-21.609045287594913,0.3902242268409406,4.783000000010361
-0.3804,0.9576,0.1843,0.3401,0.2602,0.1819,4.2962,-2.0475,-5.6175,10.948043858279636,-21.568291682577517,0.3831147112788786,4.788000000000466
-0.3557,0.9597,0.1492,0.3377,0.2603,0.1808,3.8325,-1.4525,-4.5062,9.238164864790132,-20.85873895988975,0.3790215408658458,4.793000000005122
-0.3649,0.9492,0.183,0.3377,0.2603,0.1808,1.7413,-3.9025,-7.0262,10.384004278979996,-20.749889283095136,0.35045227883411,4.8030000000144355
-0.3686,0.9524,0.1893,0.3377,0.2603,0.1808,1.7413,-3.9025,-7.0262,10.970982501003714,-20.772294652538534,0.32216870949480814,4.812999999994645
-0.3651,0.9601,0.166,0.3393,0.2614,0.1826,2.45,-2.695,-7.665,10.108975929077522,-20.613602890715875,0.30612222578791604,4.823000000003958
-0.3651,0.9601,0.166,0.3393,0.2614,0.1826,2.1962,-2.4325,-8.4963,9.89206470599389,-20.559469624874342,0.29794798024015584,4.827999999994063
-0.3766,0.9564,0.1678,0.3376,0.2623,0.1853,1.085,-0.7525,-8.2863,9.927684507716043,-21.031494393379887,0.30137445384372025,4.838000000003376
-0.3849,0.9622,0.1523,0.3376,0.2623,0.1853,1.085,-0.7525,-8.2863,9.365852708669081,-21.421203796600054,0.30476666270192715,4.847999999998137
-0.3717,0.9498,0.1774,0.3376,0.2623,0.1853,-2.135,0.7,-6.2213,10.131339307240843,-21.25699927654192,0.312111847784587,4.853000000002794
-0.3772,0.9568,0.1692,0.3404,0.2622,0.185,-2.7125,4.2875,-5.2325,10.059786276779166,-21.24951580404464,0.3652926827591764,4.863000000012107
-0.3615,0.954,0.1754,0.3404,0.2622,0.185,-2.7125,4.2875,-6.2213,10.308898461208875,-20.899382205798343,0.38979073257587216,4.868000000002212
-0.3694,0.954,0.1754,0.3409,0.2611,0.1836,-2.45,5.0662,-6.2213,10.381844699093248,-20.877281858628052,0.44990390870972835,4.878000000011525
-0.3671,0.9492,0.1846,0.3409,0.2611,0.1836,-2.9225,4.5675,-6.9738,10.827055345489109,-20.823794166056683,0.504478822991684,4.888000000006286
-0.3675,0.9543,0.1737,0.3409,0.2611,0.1836,-3.4037,4.83,-7.6912,10.444477085617098,-20.773109047661322,0.5302703864007401,4.892999999996391
-0.3989,0.9549,0.1723,0.3414,0.2607,0.1774,-3.4037,4.83,-7.6912,10.282638731847253,-21.86038504079534,0.5866403859941699,4.903000000005704
-0.3855,0.962,0.1666,0.3414,0.2607,0.1774,-5.25,3.6925,-6.8338,9.903664061325532,-21.678771879171254,0.6059797087843445,4.907999999995809
-0.3855,0.962,0.1666,0.3385,0.2621,0.1822,-5.8275,5.145,-3.4037,9.837361020537555,-21.589849265132848,0.6647111151568426,4.918000000005122
-0.3893,0.9559,0.1634,0.3385,0.2621,0.1822,-7.7088,6.1512,-1.6538,9.71684350459815,-21.813586125150493,0.6954402957400835,4.923000000009779
-0.3893,0.9567,0.1776,0.3385,0.2621,0.1805,-7.7088,6.1512,-1.6538,10.419999414479616,-21.80723873073157,0.725862184517492,4.9280000000144355
-0.3779,0.9548,0.1803,0.3379,0.2613,0.1805,-7.4725,7.5862,0.8838,10.659547811975072,-21.327496182700624,0.8075626460257141,4.938000000009197
-0.3895,0.9572,0.1783,0.3379,0.2613,0.1805,-7.6038,7.6475,1.9162,10.564886468825312,-21.746355343593656,0.8890529729185362,4.948000000003958
-0.3728,0.9511,0.184,0.3373,0.2603,0.1804,-9.0212,7.5338,3.7187,10.909135301597997,-21.116893754288984,0.9243826048018365,4.952999999994063
-0.3728,0.9511,0.184,0.3373,0.2603,0.1804,-9.0212,7.5338,3.7187,10.945017220423876,-21.05505108502749,1.0035791022361846,4.963000000003376
-0.3795,0.9475,0.2051,0.3371,0.2614,0.1822,-8.1287,2.8263,3.6312,12.068209770759607,-21.34637824236946,1.0353793845919061,4.972999999998137
-0.3483,0.943,0.2092,0.3371,0.2614,0.1822,-7.5075,-0.9275,2.9925,12.45376441638275,-19.989191343728994,1.0273623174481632,4.978000000002794
-0.3568,0.9479,0.201,0.3371,0.2614,0.1822,-5.6,-0.455,0.9887,12.050131739472032,-20.184594866056518,1.0264398976823905,4.988000000012107
-0.3568,0.9605,0.1718,0.3352,0.2592,0.1897,-5.6,-0.455,0.9887,10.450268708748006,-20.099187116701767,1.0255267021006678,4.9980000000068685
-0.3568,0.9605,0.1718,0.3352,0.2592,0.1897,-6.6062,-0.3588,-2.1088,10.18406377255558,-20.08898650162957,1.020423226784459,5.003000000011525
-0.3881,0.9611,0.1818,0.3366,0.2562,0.1793,-5.5388,1.68,-1.1025,10.625124590759476,-21.351943966393762,1.0407066978562776,5.0129999999917345
-0.3795,0.9521,0.2077,0.3366,0.2562,0.1793,-3.7975,5.0312,2.5287,11.921566380400986,-21.285892133514917,1.062131922607361,5.017999999996391
-0.3423,0.9984,0.1709,0.3366,0.2562,0.1793,-3.7975,5.0312,2.5287,10.218675263936051,-18.962657948063594,1.1151751868405795,5.028000000005704
-0.1991,0.9959,0.1975,0.3346,0.2549,0.1898,3.5963,4.1562,7.2975,11.01824490016316,-11.666848800147685,1.1315244766177475,5.032999999995809
-0.3104,1.0436,0.1914,0.3346,0.2549,0.1898,19.3025,8.0063,12.3462,10.422926608749696,-16.060226186275926,1.213327305338293,5.043000000005122
-0.3104,1.0436,0.1914,0.3336,0.2534,0.1754,19.3025,8.0063,17.4387,10.39420856394159,-16.29663848514022,1.2943121056361284,5.052999999999884
-0.4143,1.1506,0.2164,0.3336,0.2534,0.1754,19.81,7.7613,17.4387,10.639405554924672,-19.353773300156238,1.3267152713219992,5.05800000000454
-0.3829,1.0995,0.2,0.3336,0.2534,0.1754,10.7537,12.32,21.7875,10.336521417457991,-18.928450357617503,1.449271822135275,5.068000000013853
-0.401,1.1231,0.2619,0.331,0.2464,0.1791,12.8625,14.84,30.6075,12.931203169399419,-19.166885660998165,1.5955508072296989,5.078000000008615
-0.4507,1.1422,0.3384,0.331,0.2464,0.1791,12.8625,14.84,30.6075,16.25304045222792,-20.681356137661254,1.6599811506983133,5.082999999998719
-0.4507,1.1422,0.3137,0.3274,0.2405,0.1694,5.81,23.7038,38.675,15.481121289048755,-20.82847111795243,1.8919046624611364,5.092999999993481
-0.3826,1.0839,0.3137,0.3274,0.2405,0.1694,-10.0538,35.945,53.5938,16.0792530011086,-18.765166984118682,2.2426968195808454,5.103000000002794
-0.3288,1.0356,0.2542,0.3229,0.2283,0.1726,-10.9375,28.3062,60.5763,13.990026568068036,-17.161117236800486,2.367313393221982,5.108000000007451
-0.3166,0.9001,0.2641,0.3229,0.2283,0.1726,-10.9375,28.3062,60.5763,16.147079786140015,-18.627861612957233,2.637727342535699,5.118000000002212
-0.2571,0.7831,0.2524,0.3229,0.2283,0.1726,-7.1312,7.2888,49.2537,17.641647634298227,-17.375904615978435,2.6543574808503956,5.1230000000068685
-0.2614,0.819,0.1675,0.3166,0.2209,0.1663,-1.3737,8.3912,42.4287,14.683825828558717,-17.364546561363326,2.724742489391114,5.13300000000163
-0.2614,0.819,0.1675,0.3166,0.2209,0.1663,12.705,9.0037,36.9513,11.779745546739715,-17.364314847488927,2.7489912312451623,5.138000000006286
-0.3306,0.8897,0.1091,0.3118,0.2154,0.1634,12.705,9.0037,36.9513,7.329877566932664,-20.178786156996424,2.8244936522787563,5.148000000001048
-0.339,0.9403,0.0496,0.3118,0.2154,0.1634,13.9738,10.99,34.79,3.299378690447297,-19.809210267260916,2.918905419091713,5.157999999995809
-0.3681,1.0086,0.1109,0.3118,0.2154,0.1634,9.4412,19.215,43.5925,6.000957763447718,-19.93690019879244,2.99175846669583,5.163000000000466
-0.3847,1.0409,0.1077,0.3075,0.2076,0.1618,3.2725,23.7913,51.4238,5.927202917620848,-20.180232089411994,3.086535668845003,5.168000000005122
-0.3847,1.0878,0.166,0.3075,0.2076,0.1618,3.2725,23.7913,51.4238,8.091505346104066,-19.285476413958992,3.3050598854259055,5.177999999999884
-0.3505,1.0874,0.166,0.2986,0.1984,0.1594,-1.855,23.4237,56.4813,8.43737904841973,-17.699412321595556,3.5177596202005192,5.188000000009197
-0.2803,1.064,0.2195,0.2986,0.1984,0.1594,-4.6287,13.3088,53.6637,11.037547129265148,-14.520956853684702,3.5553884355544256,5.1929999999993015
-0.2299,0.94,0.1998,0.2986,0.1984,0.1594,-1.7938,9.03,45.4738,11.593200636489687,-13.474560427555085,3.623087254695043,5.203000000008615
-0.2079,0.8802,0.2342,0.2914,0.1926,0.1638,-1.7938,9.03,45.4738,13.502574466715489,-12.869629596686906,3.6488080041255873,5.209000000002561
-0.2013,0.8087,0.24,0.2914,0.1926,0.1638,3.7362,9.1263,33.4863,15.943236300925681,-13.407735331065354,3.716525997581381,5.219000000011874
-0.2013,0.8087,0.24,0.2894,0.187,0.1537,5.565,12.0138,14.84,16.445608869985993,-13.420903352920456,3.7457568993674033,5.224000000016531
-0.1951,0.8675,0.1898,0.2894,0.187,0.1537,12.285,13.7987,1.1375,12.640573951528106,-12.526684403690878,3.8587621634759546,5.23399999999674
-0.2487,0.8773,0.1695,0.2894,0.187,0.1537,11.4625,13.7987,1.1375,11.067482499597332,-15.155351969868095,3.89540595861126,5.239000000001397
-0.2588,0.8977,0.1477,0.2922,0.1862,0.1538,13.4838,13.6763,-2.555,9.458890030604264,-15.693925720990945,4.00570297234696,5.248999999996158
-0.2718,0.939,0.142,0.2922,0.1862,0.1538,14.0612,5.8538,-14.4462,8.654873285093931,-15.943497673547503,4.037454266090367,5.2590000000054715
-0.2718,1.0644,0.1571,0.2916,0.1873,0.1599,14.0612,5.8538,-27.8862,8.412665226997127,-14.252745670534463,4.032983885162902,5.264000000010128
-0.2694,1.0644,0.1571,0.2916,0.1873,0.1599,11.0162,5.39,-27.7113,8.397291383570222,-14.065564606610351,4.05987074967606,5.274000000004889
-0.2725,1.2571,0.1856,0.2959,0.1911,0.154,2.87,8.1637,-30.7563,8.398261555555134,-12.17805022890145,4.066610208923386,5.279000000009546
-0.3158,1.264,0.221,0.2959,0.1911,0.154,-9.065,0.8662,-32.7687,9.759819806947343,-13.767974187962809,4.048375190222401,5.289000000004307
-0.3115,1.1453,0.2585,0.2959,0.1911,0.154,-9.065,0.8662,-32.7687,12.411804696087955,-14.820150717758759,4.030322521708427,5.298999999999069
-0.2558,1.016,0.2603,0.2982,0.1962,0.1546,-19.74,-11.6112,-35.77,14.273723846601433,-13.742093132292569,3.9394717081442665,5.304000000003725
-0.2558,1.016,0.2603,0.2982,0.1962,0.1546,-25.795,-19.8275,-44.6775,14.36647640178885,-13.707410094108612,3.7176404445583966,5.313999999998487
-0.2114,0.9595,0.1937,0.3024,0.2014,0.1639,-24.8675,-13.3437,-49.6037,11.529331598521383,-12.220471968280865,3.5622171134026868,5.3240000000078
-0.2513,1.0343,0.1603,0.3024,0.2014,0.1639,-24.8675,-13.3437,-49.6037,8.916737646335388,-13.47276940546021,3.4674714790856687,5.3289999999979045
-0.3051,1.0905,0.1459,0.3024,0.2014,0.1639,-26.7575,-1.75,-50.9338,7.667883771122169,-15.455568810442331,3.429327467691581,5.339000000007218
-0.394,1.0698,0.1681,0.308,0.2056,0.1733,-36.4263,9.2225,-49.9625,8.8958808219703,-19.89313783907964,3.500192646359576,5.349000000001979
-0.4496,1.0296,0.2045,0.308,0.2056,0.1733,-45.465,18.8563,-49.21,11.18314513559754,-23.11224606587218,3.665723793482741,5.359000000011292
-0.4496,1.0296,0.2045,0.3126,0.2121,0.1745,-45.465,18.8563,-49.21,11.232827516017537,-23.184181019258325,3.829599628842861,5.369000000006054
-0.4357,0.9951,0.2578,0.3126,0.2121,0.1745,-50.225,19.5212,-49.3937,14.459468824600444,-22.97455550610806,3.894861424049485,5.373999999996158
-0.3429,0.9471,0.2578,0.3126,0.2121,0.1745,-54.3462,19.8538,-50.7325,15.212986014257316,-19.336805185691414,4.066321133404949,5.3840000000054715
-0.2761,0.8918,0.2241,0.3188,0.2206,0.1796,-51.1963,26.88,-51.5375,14.12714843250873,-16.768820332118278,4.305625625324233,5.394000000000233
-0.2081,0.8015,0.1742,0.3188,0.2206,0.1796,-51.1963,26.88,-51.5375,12.298128944797423,-14.290185699741313,4.402553220901361,5.399000000004889
-0.2081,0.8015,0.1742,0.3247,0.2301,0.1817,-45.2113,34.1425,-49.4375,12.262889539426986,-14.237589254725071,4.710394142420048,5.409000000014203
-0.1867,0.7415,0.1271,0.3247,0.2301,0.1817,-32.375,38.2375,-45.7188,9.803488225146916,-13.944663262774483,4.859493677307548,5.414000000004307
-0.1812,0.7821,0.1799,0.3247,0.2346,0.1782,-21.945,36.085,-38.6838,12.814037218745625,-12.759019781610773,5.181995944280084,5.424000000013621
-0.2519,0.8733,0.2056,0.329,0.2346,0.1782,-21.945,36.085,-38.6838,13.228568768915041,-15.59770658298829,5.315724586170071,5.429000000003725
-0.3376,0.9323,0.1871,0.329,0.2346,0.1782,-16.9225,34.8162,-33.2325,11.455251592741375,-19.409457460720404,5.621103423520544,5.438999999998487
-0.3578,0.9329,0.2191,0.333,0.2374,0.1826,-20.685,33.005,-27.9212,13.134026502656045,-20.429030295094538,5.7351949911439455,5.444000000003143
-0.3578,0.9329,0.2191,0.333,0.2374,0.1826,-20.685,33.005,-25.6987,13.212998925209167,-20.47228517662884,6.018448244454074,5.4539999999979045
-0.4016,0.8963,0.2248,0.3362,0.2402,0.1772,-29.085,31.4825,-25.6987,14.050625773331902,-23.34784646141727,6.28379621571271,5.464000000007218
-0.3467,0.8774,0.2212,0.3362,0.2402,0.1772,-35.9712,27.1163,-25.655,14.147172588751816,-21.077068637265082,6.362111790387042,5.469000000011874
-0.2969,0.8781,0.2324,0.3362,0.2402,0.1772,-37.5638,18.6287,-24.3075,14.806397094670046,-18.250585951191965,6.496770505779298,5.479000000006636
-0.2407,0.8552,0.3094,0.3367,0.2436,0.1802,-37.5638,18.6287,-24.3075,19.756165200102245,-14.996974693997625,6.630082634306168,5.489000000015949
-0.2407,0.8552,0.2959,0.3367,0.2436,0.1802,-39.27,13.6938,-16.7038,19.102496540916295,-14.903195418819788,6.713206131067387,5.498999999996158
-0.2377,0.8245,0.2959,0.3393,0.247,0.1849,-31.1238,6.8863,-10.6575,19.722075029885136,-15.136734008811517,6.687089106494911,5.504000000000815
-0.3004,0.7937,0.3032,0.3393,0.247,0.1849,-17.0713,-7.385,-14.3763,20.840099956784833,-19.03447661919505,6.5609624188610045,5.513999999995576
-0.4041,0.8397,0.3049,0.3393,0.247,0.1849,-17.0713,-7.385,-14.3763,20.006349776357013,-23.80448221733615,6.436096998017208,5.524000000004889
-0.4604,0.9443,0.3627,0.3406,0.2502,0.1967,1.8637,-20.125,-22.8025,20.70606217267309,-24.435714805114518,6.27904512965071,5.529000000009546
-0.4704,0.9945,0.3781,0.3406,0.2502,0.1967,19.18,-39.9175,-29.085,20.81100343338326,-23.875192802618525,5.834927131953968,5.539000000004307
-0.4704,0.9945,0.3781,0.3421,0.2531,0.1913,27.8687,-46.7513,-34.09,20.81617290293754,-23.85226798926436,5.327595693616281,5.549000000013621
-0.4379,0.9618,0.3721,0.3421,0.2531,0.1913,27.8687,-46.7513,-34.09,21.138987495242358,-23.035672153028262,4.825337570315327,5.559000000008382
-0.3863,0.8825,0.3167,0.3421,0.2531,0.1913,27.685,-39.0337,-36.225,19.7893875620367,-22.412253866863004,4.5907952316808505,5.563999999998487
-0.3803,0.828,0.2586,0.3411,0.2561,0.1945,30.3975,-27.5625,-36.7062,17.421389232929013,-23.634248168513505,4.28587423289973,5.573999999993248
-0.4137,0.8537,0.2607,0.3411,0.2561,0.1945,40.3812,-14.0262,-31.6488,16.991967626250638,-24.820891697584514,4.180513652212524,5.5789999999979045
-0.4137,0.9466,0.278,0.344,0.2591,0.1941,40.3812,-14.0262,-31.6488,16.38155663908889,-22.825863553444915,4.013704838973981,5.589000000007218
-0.4382,0.9466,0.278,0.344,0.2591,0.1941,50.1813,-4.5237,-22.8288,16.36688852318282,-23.887817719769124,3.9426388640004433,5.599000000001979
-0.426,1.073,0.2908,0.3453,0.2554,0.1941,60.1912,0.14,-13.3175,15.183334687296572,-21.296345709324633,3.9108333270675364,5.604000000006636
-0.422,1.1846,0.2659,0.3453,0.2554,0.1941,64.8812,1.6538,-2.8175,12.689334904083973,-19.75156456009162,3.9019533171810252,5.614000000001397
-0.4067,1.1968,0.1986,0.3453,0.2554,0.1941,64.8812,1.6538,-2.8175,9.47122348659538,-18.867662453714406,3.878047945723291,5.619000000006054
-0.3749,1.1772,0.1215,0.3429,0.2498,0.1784,59.2638,6.1775,7.6737,5.95165344577107,-17.66869825459472,3.914280419626761,5.629000000000815
-0.3749,1.1772,0.1215,0.3429,0.2498,0.1784,48.2738,15.1112,16.0475,5.89387670286947,-17.581463343796468,3.956865906968748,5.63399999999092
-0.4185,1.2107,0.0279,0.3398,0.2454,0.1852,34.8338,18.2087,9.9838,1.4462541684713028,-18.97376907772106,4.0143581646894555,5.638999999995576
-0.6127,1.4062,0.0054,0.3398,0.2454,0.1852,34.5537,18.2087,9.9838,0.2541025454393974,-23.265352570976212,4.16833641662335,5.649000000004889
-0.3321,1.275,0.0115,0.3398,0.2454,0.1852,9.5288,7.805,-8.12,0.4927966981508921,-16.96661200330915,4.17221565419955,5.654000000009546
-0.1562,1.2853,0.1224,0.3362,0.2449,0.1823,-4.8387,8.9862,1.9075,4.525715028348435,-8.101478578285484,4.23331258100369,5.664000000004307
-0.1094,1.2565,0.1163,0.3362,0.2449,0.1823,-4.8387,8.9862,4.1475,5.14726120930864,-5.2516023923493576,4.242388996941532,5.669000000008964
-0.118,1.2565,0.1163,0.3382,0.2414,0.1763,-0.9013,19.2413,2.6337,5.192571479697358,-5.332329873436652,4.302137393469912,5.673999999999069
-0.1633,1.2581,0.0527,0.3382,0.2414,0.1763,-3.7887,39.9175,-1.7413,3.0392355578086963,-6.9532567352916335,4.66815497331616,5.684000000008382
-0.2467,1.2612,0.0941,0.3382,0.2414,0.1763,-20.23,64.4525,8.9862,4.207996535123389,-10.773363925590553,5.2734088775901595,5.694000000017695
-0.3174,1.2113,0.0607,0.3371,0.2374,0.1646,-20.23,64.4525,8.9862,2.9331520970703453,-14.413642552072186,5.546642513920458,5.698999999993248
-0.3141,1.2008,-0.0666,0.3371,0.2374,0.1646,-43.5225,98.84,27.2563,-3.0360332844274067,-14.630584905502394,5.987361940943361,5.7039999999979045
-0.3141,1.2008,-0.0666,0.3354,0.2298,0.1529,-54.6963,138.11,52.4038,-3.1720386433151333,-14.637103324984498,7.308633026220219,5.714000000007218
-0.3042,1.1706,-0.0367,0.3354,0.2298,0.1529,-53.0337,162.6187,64.155,-1.8213917711235994,-14.561303076576795,8.859327528507368,5.724000000001979
-0.385,1.0887,-0.0417,0.3354,0.2094,0.1445,-53.0337,162.6187,64.155,-2.186561381267084,-19.392664744784323,10.39451508813456,5.734000000011292
-0.3631,1.1593,-0.0734,0.333,0.2195,0.1445,-51.3625,188.5363,66.7012,-3.595138943953311,-17.386026791718404,11.230752472092536,5.739000000001397
-0.423,1.1402,-0.0357,0.333,0.2195,0.1445,-48.6325,194.67,56.1225,-1.8299795491750512,-20.297791703800392,13.059533652579391,5.74900000001071
-0.5534,1.1615,-0.0844,0.3317,0.2125,0.1235,-47.8363,198.0388,34.4663,-4.108022757299953,-25.291978728360178,13.916158228673018,5.754000000015367
-0.5534,1.1615,-0.0844,0.3317,0.2125,0.1235,-47.8363,198.0388,34.4663,-4.155080980234302,-25.4140083123294,15.751436465878752,5.763999999995576
-0.6485,1.0982,-0.1337,0.3273,0.2071,0.098,-55.6675,207.515,19.3813,-6.891755044742624,-30.186029690434527,17.662176306546176,5.774000000004889
-0.7823,1.0388,-0.2515,0.3273,0.2071,0.098,-56.8138,218.6888,15.4438,-13.492720400484272,-35.9270444354808,18.57499195302465,5.778999999994994
-0.8522,1.0035,-0.2597,0.3273,0.2071,0.098,-52.4388,220.4825,18.9088,-14.490305553962639,-39.28719090590818,20.585874488940178,5.789000000004307
-0.7918,0.977,-0.3002,0.3238,0.2042,0.0803,-52.4388,220.4825,18.9088,-17.03161261015178,-37.824749080664425,22.576648196300027,5.798999999999069
-0.7918,0.977,-0.2378,0.3238,0.2042,0.0803,-42.4725,217.1225,27.5538,-13.757556786464143,-38.20709600287267,24.514250169751822,5.809000000008382
-0.7854,1.0078,-0.2377,0.3138,0.1974,0.053,-41.5713,211.1375,40.3462,-13.282792647439848,-37.20256986872392,25.321166145734107,5.8140000000130385
-0.7327,1.0227,-0.2052,0.3138,0.1974,0.053,-48.9125,203.105,48.9475,-11.384631041648422,-35.12382563859979,27.092549686616145,5.8240000000078
-0.7523,1.0314,-0.2317,0.3138,0.1974,0.053,-48.9125,203.105,48.9475,-12.635288173405932,-35.43229238302895,27.833921792392758,5.829000000012456
-0.7449,1.0246,-0.1744,0.2986,0.1906,0.0422,-60.5238,202.4837,56.7962,-9.708592976828777,-35.62632462567789,29.574026903874206,5.838999999992666
-0.6636,0.9528,-0.1979,0.2986,0.1906,0.0422,-79.415,191.5112,63.2537,-11.708387192261645,-34.30999978394005,30.23319492742479,5.8439999999973224
-0.6636,0.9528,-0.1979,0.2822,0.1854,0.0264,-79.415,191.5112,63.4113,-11.733388452647773,-34.2911172249131,30.88577127073987,5.849000000001979
-0.6045,0.8972,-0.1622,0.2822,0.1854,0.0264,-94.6488,187.4337,63.4113,-10.26311912271911,-33.555663146107776,32.44636289045312,5.85899999999674
-0.5261,0.8239,-0.1301,0.2822,0.1854,0.0264,-105.2887,190.4613,62.5887,-8.985524476488026,-32.260030339668006,34.02132183671756,5.869000000006054
-0.4948,0.7952,-0.1665,0.2678,0.18,0.0182,-115.7012,199.745,62.405,-11.801394951667861,-31.355848712371596,34.67677422097768,5.87400000001071
-0.3931,0.7668,-0.0127,0.2678,0.18,0.0182,-115.7012,199.745,62.405,-1.0422011292824012,-27.19999230799298,36.3213376811247,5.8840000000054715
-0.3931,0.8293,-0.0619,0.2509,0.1723,0.0108,-120.8988,215.5213,65.1175,-4.242151796255425,-25.326611339864037,38.105640879713484,5.894000000014785
-0.3956,0.832,-0.0619,0.2509,0.1723,0.0108,-110.1275,215.5125,71.4175,-4.254796571544456,-25.36837366140899,38.7982991954914,5.899000000004889
-0.3974,0.8572,0.0113,0.2288,0.1654,0.0042,-96.6175,203.6475,82.11,0.7037063386331269,-24.876273525462615,40.44028215587306,5.908999999999651
-0.3603,0.8883,0.024,0.2288,0.1654,0.0042,-96.6175,203.6475,82.11,1.538951836731057,-22.10217886930038,41.0508623119596,5.914000000004307
-0.3345,0.9015,0.0184,0.2288,0.1654,0.0042,-72.8875,188.5538,87.955,1.174301401431109,-20.37191514057594,42.52089201125485,5.923999999999069
-0.323,0.8878,-0.0178,0.2084,0.1564,-0.0066,-50.295,162.855,93.0038,-1.1029357778566224,-19.992586680389845,42.90874319359952,5.929000000003725
-0.323,0.8878,-0.0178,0.2084,0.1564,-0.0066,-35.1225,151.4713,97.5362,-1.1473220020404202,-19.98877124832582,43.99307733647301,5.9390000000130385
-0.3027,0.8865,-0.0304,0.1878,0.1462,-0.0114,-35.1225,151.4713,97.5362,-1.9411464951487862,-18.853464506981883,44.3098573483107,5.944000000003143
-0.2908,0.881,-0.0137,0.1878,0.1462,-0.0114,-30.7475,160.8687,104.72,-0.9244391329430618,-18.27022707971942,44.66998669227566,5.9490000000078
-0.2684,0.847,-0.038,0.1878,0.1462,-0.0114,-33.8625,171.4212,112.3587,-2.5210557507567057,-17.57187547056881,45.9342124078566,5.959000000002561
-0.2148,0.7857,0.0182,0.1627,0.1372,-0.0131,-32.9263,179.5587,119.5687,1.2120958191717064,-15.304510368060635,47.26635711623953,5.9689999999973224
-0.2148,0.7729,0.091,0.1627,0.1372,-0.0131,-32.9263,179.5587,119.5687,6.550727619579281,-15.428929294886975,48.58518038014559,5.979000000006636
-0.1881,0.7729,0.091,0.1352,0.1283,-0.0295,-27.2388,195.6062,125.7113,6.709091527380297,-13.601706006870678,49.07450711611419,5.98399999999674
-0.1546,0.7621,0.1229,0.1352,0.1283,-0.0295,-23.4675,201.9937,126.14,9.058939907575494,-11.342144187943658,50.59735538022835,5.994000000006054
-0.1242,0.7485,0.096,0.1352,0.1283,-0.0295,-18.515,202.44,124.95,7.40035281587106,-9.36135281350443,50.89858650795051,5.9980000000068685
-0.117,0.7501,0.1114,0.1076,0.1206,-0.0401,-18.515,202.44,124.95,8.392596016203225,-8.77532812952048,52.40761234521383,6.00800000000163
-0.0919,0.7203,0.1035,0.1076,0.1206,-0.0401,-11.55,214.6725,128.4062,8.194664200190275,-7.209401218583081,54.02264967404108,6.017999999996391
-0.0919,0.7203,0.1035,0.0776,0.111,-0.0517,-3.43,223.125,127.1988,8.18131472527554,-7.197791012937596,54.59381978003574,6.023000000001048
-0.1228,0.6885,-0.0039,0.0776,0.111,-0.0517,-3.43,229.845,116.2262,1.8004643340256272,-10.08894421924807,56.33720278443608,6.032999999995809
-0.1901,0.7053,-0.0742,0.0776,0.111,-0.0722,11.7863,229.3288,116.2262,-5.414859760829512,-14.965390281156798,58.05804158211906,6.043000000005122
-0.2956,0.7541,-0.0634,0.0488,0.1047,-0.0676,21.4375,231.4463,95.7075,-4.832407034384099,-21.273875063533907,58.6300482040713,6.048000000009779
-0.3099,0.7966,-0.0155,0.0488,0.1047,-0.0676,22.4438,234.2637,75.4775,-1.270444173333837,-21.25402838815339,60.37681405420837,6.05800000000454
-0.2943,0.8012,0.0559,0.0254,0.1078,-0.0811,22.4438,234.2637,75.4775,3.7706643464131657,-20.138297140074336,60.9395790814527,6.063000000009197
-0.2935,0.8012,0.0559,0.0254,0.1078,-0.0811,26.0662,232.715,62.9475,3.9830616316377756,-20.07510435637727,62.647917492823986,6.073000000003958
-0.2692,0.8824,0.1504,0.0055,0.1065,-0.0929,32.6813,225.7325,55.0025,9.505969738853649,-16.79242238328856,63.145742045642834,6.078000000008615
-0.2636,0.8789,0.2375,0.0055,0.1065,-0.0929,37.6162,220.01,49.1925,14.977715536143334,-16.159192936518732,64.70623932743811,6.088000000003376
-0.2424,0.8599,0.2092,0.0055,0.1065,-0.0929,37.6162,220.01,49.1925,13.70692116446313,-15.332969596174397,66.25113163641544,6.097999999998137
-0.3636,0.9472,0.095,-0.0146,0.1091,-0.0992,47.705,208.915,48.5013,5.8897718073652445,-20.803084440641328,66.62967742272085,6.103000000002794
-0.3636,0.9472,0.095,-0.0146,0.1091,-0.0992,38.5438,210.2538,28.8488,5.731425232442426,-20.901584989084938,68.05874897079593,6.112999999997555
-0.2702,0.9686,0.0977,-0.031,0.1095,-0.1082,36.4525,224.9538,14.7613,5.759036918953227,-15.7660174140734,68.49861064383147,6.118000000002212
-0.214,1.0083,0.0911,-0.031,0.1095,-0.1082,36.4525,224.9538,14.7613,5.1784055850208395,-12.115858245450376,70.05452286288015,6.128000000011525
-0.2999,0.8821,0.0539,-0.031,0.1095,-0.1082,45.5962,226.4588,3.92,3.5324281513386118,-18.106071459112204,71.6097754564696,6.138000000006286
-0.3637,0.9319,-0.093,-0.0447,0.1119,-0.1266,57.2513,206.2113,-11.5675,-5.54170439913528,-20.78501270606402,71.921351489562,6.143000000010943
-0.3691,0.9696,-0.1011,-0.0447,0.1119,-0.1266,57.0238,184.1,-10.5,-5.945677181237551,-20.745497516212286,73.03858367443195,6.152999999991152
-0.3691,0.9696,-0.1011,-0.0574,0.1138,-0.1334,57.0238,184.1,-10.5,-5.952588480270572,-20.738955553260045,73.22642069024279,6.157999999995809
-0.3379,0.973,-0.0389,-0.0574,0.1138,-0.1334,49.1838,177.1962,-6.09,-2.361812736316903,-20.119533153221486,74.26225456838704,6.168000000005122
-0.2962,0.9438,0.0004,-0.0574,0.1138,-0.1334,42.8838,181.545,-8.155,-0.029565741850348878,-18.153325440588805,75.33078322515436,6.177999999999884
-0.2854,0.885,0.0365,-0.0694,0.1193,-0.1382,38.5525,182.9713,-16.625,2.301895710349894,-17.883708884733615,75.49011118045277,6.18300000000454
-0.3151,0.9219,0.0173,-0.0694,0.1193,-0.1382,38.5525,182.9713,-16.625,1.1057494254595788,-18.786208814516826,76.56048164109204,6.1929999999993015
-0.3151,0.9219,0.0173,-0.0799,0.1202,-0.1518,36.1987,187.1275,-21.63,1.0758786485093652,-18.86233223262682,77.66129477981936,6.203000000008615
-0.3501,0.977,-0.0366,-0.0799,0.1202,-0.1518,30.7125,189.6475,-22.89,-2.0451624694092967,-19.656415078724436,77.8303648096019,6.208000000013271
-0.3536,0.974,-0.0739,-0.0799,0.1202,-0.1546,30.7125,189.6475,-26.04,-4.267505130779193,-19.888887050966346,78.94342711391505,6.218000000008033
-0.3716,0.9451,-0.0878,-0.0912,0.1205,-0.1546,25.935,182.945,-26.04,-5.269546322767084,-21.311236974558945,79.06649844267,6.222999999998137
-0.3768,0.8992,-0.1064,-0.0912,0.1205,-0.1546,32.5763,171.92,-28.2712,-6.704794726866101,-22.540084812669896,79.99169716324131,6.233000000007451
-0.3709,0.8498,-0.1331,-0.0999,0.1243,-0.1582,38.7188,167.0813,-30.0475,-8.846915515380841,-23.294943208774747,80.85974076413511,6.243000000002212
-0.3709,0.8498,-0.1331,-0.0999,0.1243,-0.1582,38.7188,167.0813,-30.0475,-8.900273692374599,-23.324443964159393,80.88512364397046,6.2480000000068685
-0.3739,0.8572,-0.145,-0.1083,0.1267,-0.161,32.9087,161.2625,-31.0888,-9.580597318783635,-23.27346343749855,81.68662686008713,6.25800000000163
-0.3785,0.8562,-0.1502,-0.1083,0.1267,-0.161,22.7413,160.9475,-34.9562,-9.934661229950407,-23.520906486037443,81.6733785689347,6.263000000006286
-0.3524,0.858,-0.1715,-0.1083,0.1267,-0.161,15.4175,170.1263,-41.3963,-11.222248692997104,-21.980262283656515,82.55475085822683,6.2730000000156
-0.355,0.8491,-0.1739,-0.1175,0.1254,-0.161,15.4175,170.1263,-41.3963,-11.553502365247846,-22.265474652253154,82.57825638466421,6.278000000005704
-0.355,0.8491,-0.1739,-0.1175,0.1254,-0.161,5.6613,180.1888,-48.7638,-11.571459272406129,-22.2732320647066,83.55019864327579,6.288000000000466
-0.3729,0.8714,-0.1776,-0.1226,0.1267,-0.1632,1.5662,191.555,-56.2887,-11.53697517535872,-22.739705595357137,84.62494685924231,6.297999999995227
-0.4143,0.9226,-0.1649,-0.1226,0.1267,-0.1632,0.805,198.6862,-60.97,-10.762332560459221,-23.828294349884583,84.7691219332723,6.302999999999884
-0.4455,0.9881,-0.0899,-0.1226,0.1267,-0.1632,0.805,198.6862,-60.97,-7.691023246508446,-24.17435653246007,85.9022797991844,6.313000000009197
-0.4272,1.0192,-0.1199,-0.131,0.1259,-0.1665,1.7587,197.855,-59.115,-7.017584617075349,-22.62984988539448,87.01587720355916,6.323000000003958
-0.4792,1.0568,-0.0553,-0.131,0.1259,-0.1665,7.0175,185.92,-55.0112,-3.471718902648504,-24.327928872751503,87.07295028408711,6.328000000008615
-0.4792,1.0568,-0.0553,-0.1398,0.1252,-0.1614,7.7088,167.0725,-54.4863,-3.047561967565254,-24.36151285340305,87.8700942337725,6.338000000003376
-0.5029,1.0445,-0.0546,-0.1398,0.1252,-0.1614,7.7088,167.0725,-54.4863,-2.9983891981556487,-25.652743646166194,88.49247939798028,6.346999999994296
-0.495,1.0571,-0.1019,-0.1398,0.1252,-0.1614,1.12,152.6087,-48.37,-4.52160352379584,-25.005392086955922,88.52236370533619,6.353000000002794
-0.4915,1.0154,-0.1391,-0.1431,0.1246,-0.1516,-8.0675,139.825,-44.835,-7.420933741875075,-25.605584558625228,88.61582631035358,6.360000000000582
-0.5033,1.0261,-0.1347,-0.1431,0.1246,-0.1516,-16.6338,114.205,-56.63,-7.475312928022064,-25.928526488391345,88.87415325171592,6.370000000009895
-0.5033,1.0261,-0.0901,-0.1442,0.121,-0.1531,-16.6338,114.205,-56.63,-5.160971796395585,-26.038808714474733,88.55765432143171,6.375000000014552
-0.5436,1.0316,-0.0901,-0.1442,0.121,-0.1531,-22.4175,92.9775,-61.5387,-4.9989191856736355,-27.668172137252263,88.6064107297683,6.384999999994761
-0.5619,1.1026,-0.0678,-0.1407,0.118,-0.1455,-26.5212,81.6637,-60.0075,-3.57337667374488,-26.973040254184514,88.13150978955353,6.389999999999418
-0.5746,1.1331,-0.0333,-0.1407,0.118,-0.1455,-26.5212,74.9437,-56.5513,-1.7531053777690446,-26.88158195609489,88.00599302466205,6.399999999994179
-0.5718,1.138,0.027,-0.1407,0.118,-0.1455,-35.8138,74.1125,-56.5513,1.2736024588284067,-26.67528973388765,87.87350254851165,6.4100000000034925
-0.5852,1.0935,0.073,-0.1385,0.1144,-0.1436,-46.4012,70.7087,-48.6937,3.765097641795682,-28.068815796828318,87.35170344005896,6.415000000008149
-0.5852,1.0935,0.073,-0.1385,0.1144,-0.1436,-49.8925,71.4875,-38.99,3.818217406399195,-28.100114554781157,87.19976835868034,6.42500000000291
-0.5824,1.0519,0.0953,-0.1395,0.1108,-0.1321,-49.8925,71.4875,-38.99,5.149828225772209,-28.850253532514987,86.68856165212955,6.430000000007567
-0.5653,1.0446,0.0997,-0.1395,0.1108,-0.1321,-49.3413,71.4788,-29.8725,5.44592618342612,-28.333233231434747,86.54317185863029,6.440000000002328
-0.5474,1.0228,0.1143,-0.1395,0.1108,-0.1321,-46.4275,67.6725,-22.68,6.356666029682088,-28.02576642435796,86.36155359308576,6.44999999999709
-0.5337,0.974,0.0977,-0.1432,0.1084,-0.1335,-40.9325,64.1025,-18.1563,5.7432105375649645,-28.557784173403725,85.82217328415686,6.455000000001746
-0.5337,0.962,0.0937,-0.1432,0.1084,-0.1335,-40.9325,64.1025,-18.1563,5.567470887976006,-28.88067317302125,85.61242200437557,6.4649999999965075
-0.4953,0.962,0.0937,-0.1458,0.1052,-0.1235,-28.7962,61.215,-16.8787,5.563279928862788,-27.273183505698988,85.37618198830913,6.475000000005821
-0.4793,0.9861,0.0862,-0.1458,0.1052,-0.1235,-14.1575,54.6437,-17.885,5.034339166712699,-25.943712484248024,84.79983433538439,6.480000000010477
-0.4666,1.0079,0.0632,-0.1458,0.1052,-0.1235,-0.805,48.2825,-18.0425,4.6377977595120505,-24.882910357946724,84.19776221824384,6.485000000000582
-0.4827,1.0384,-0.0019,-0.148,0.105,-0.1194,-0.805,48.2825,-18.0425,3.3375025193770513,-24.927749716499328,83.84763704991947,6.495000000009895
-0.4648,1.0355,-0.0753,-0.148,0.105,-0.1194,12.495,45.9287,-14.6213,-3.6206774605647594,-24.197019715317143,83.47771051257482,6.505000000004657
-0.4648,1.0355,-0.0753,-0.1503,0.1081,-0.1223,24.5875,47.9325,-8.5837,-4.138443507990583,-24.136600029885162,82.88712713437648,6.510000000009313
-0.4089,1.021,-0.1144,-0.1503,0.1081,-0.1223,30.5112,49.175,-4.1562,-6.3225600548245255,-22.75918827916322,82.55894406617043,6.5200000000040745
-0.3988,1.0169,-0.138,-0.1503,0.1081,-0.1223,30.5112,49.175,-4.1562,-7.684191349041262,-21.89759939232264,82.23404282864642,6.529999999998836
-0.3839,1.0512,-0.1457,-0.1532,0.1094,-0.1284,29.8025,46.4188,-1.7062,-7.884493990555866,-20.31017521624479,81.64840331228041,6.5350000000034925
-0.3766,1.0798,-0.1109,-0.1532,0.1094,-0.1284,27.9125,44.135,1.8813,-5.932823998241432,-19.274899647536405,81.28271148232145,6.544999999998254
-0.3766,1.0621,-0.1466,-0.1583,0.1113,-0.1362,24.22,43.54,5.1188,-7.783695246266764,-19.34702489812193,80.69233521940541,6.55000000000291
-0.3706,1.0621,-0.1466,-0.1583,0.1113,-0.1362,24.22,43.54,5.1188,-7.855861667138219,-19.092029703086624,80.3303135710257,6.560000000012224
-0.3765,1.0277,-0.1145,-0.1617,0.1123,-0.1333,15.2513,35.1662,1.3825,-6.447172642569977,-19.88991428304848,79.70801097665722,6.565000000002328
-0.381,0.9803,-0.1133,-0.1617,0.1123,-0.1333,7.805,26.3113,-3.3338,-6.577039401579542,-20.720299613428274,79.18526844054615,6.5750000000116415
-0.3607,0.9617,-0.0899,-0.1617,0.1123,-0.1333,0.9712,19.9325,-4.41,-5.856058409536359,-20.59594735012827,78.60460320912274,6.584999999991851
-0.3434,0.9501,-0.091,-0.1638,0.1124,-0.1331,0.9712,19.9325,-4.41,-5.631582047700328,-20.182263165760858,77.92415090382985,6.5899999999965075
-0.3434,0.9501,-0.091,-0.1638,0.1124,-0.1331,-6.2125,15.2075,-9.0475,-5.49472239096599,-19.87407776258491,77.30931934834467,6.600000000005821
-0.3589,0.9761,-0.0895,-0.1631,0.1096,-0.1363,-12.5562,11.0425,-16.2663,-5.258369491476623,-20.090287279762187,76.65940260819669,6.610000000000582
-0.3743,1.005,-0.0896,-0.1631,0.1096,-0.1363,-12.5562,11.0425,-19.8363,-5.107158176510391,-20.336066731692668,75.95439680887208,6.615000000005239
-0.3959,1.0338,-0.1138,-0.1631,0.1096,-0.1363,-16.0737,8.3562,-19.8363,-6.211225275048438,-20.806913030688865,75.29143492413276,6.625
-0.3942,1.0504,-0.1196,-0.1602,0.1079,-0.1307,-19.5825,4.4975,-18.7862,-6.481682607599274,-20.47425674077656,74.56771105161862,6.630000000004657
-0.3841,1.0353,-0.1216,-0.1602,0.1079,-0.1307,-25.2612,-3.43,-18.2262,-6.690510264829294,-20.245297288668837,73.80193264448371,6.64000000001397
-0.3841,1.0353,-0.1216,-0.1583,0.1078,-0.1266,-25.2612,-3.43,-18.2262,-6.698593727497547,-20.22866560783373,73.04381202147866,6.649999999994179
-0.3889,0.972,-0.0983,-0.1583,0.1078,-0.1266,-28.7087,-11.585,-19.04,-5.806334134649493,-21.604802536524378,72.26295600291691,6.654999999998836
-0.3828,0.932,-0.089,-0.1583,0.1078,-0.1266,-30.3538,-16.1,-19.11,-5.466202833315513,-22.194928711434663,71.3947921461522,6.665000000008149
-0.3727,0.9232,-0.0715,-0.1554,0.1069,-0.1193,-29.1812,-18.8213,-20.5362,-4.463476181473053,-21.94155081700215,70.50836905818103,6.67500000000291
-0.3613,0.9211,-0.0516,-0.1554,0.1069,-0.1193,-29.1812,-18.8213,-20.5362,-3.2486074192646317,-21.421511380838833,69.7170477842189,6.680000000007567
-0.3613,0.9211,-0.0516,-0.1503,0.1027,-0.1189,-25.5938,-21.4813,-22.3913,-3.2079715764081844,-21.388941538048222,68.82106813988086,6.690000000002328
-0.3593,0.9375,-0.0701,-0.1503,0.1027,-0.1189,-18.655,-22.7237,-23.7563,-4.2206800567132685,-20.940676720075423,67.92174853168545,6.7000000000116415
-0.3587,0.9357,-0.0833,-0.1503,0.0822,-0.1159,-9.3888,-21.49,-23.415,-5.0003062186914935,-20.901027319545232,67.14308339797599,6.705000000016298
-0.3633,0.9407,-0.1065,-0.1468,0.1011,-0.1159,-9.3888,-21.49,-23.415,-6.312708421294454,-20.989397073729833,66.27275726778984,6.7149999999965075
-0.3728,0.9886,-0.1332,-0.1468,0.1011,-0.1159,-2.9137,-18.8563,-23.6075,-7.283254939965705,-20.517805596738686,65.52361886173146,6.720000000001164
-0.3935,1.0317,-0.1561,-0.1422,0.1011,-0.1153,0.1225,-14.6388,-23.7125,-7.7517067495812935,-20.65481190869019,64.7373142565828,6.7299999999959255
-0.3935,1.0317,-0.1561,-0.1422,0.1011,-0.1153,0.455,-9.9488,-21.0,-8.151105448530837,-20.66186416146517,64.00530369733815,6.740000000005239
-0.4039,1.0289,-0.1816,-0.1402,0.1014,-0.1212,0.455,-9.9488,-21.0,-9.022213194503317,-21.106867980925504,63.32293195202535,6.745000000009895
-0.4074,0.9948,-0.1934,-0.1402,0.1014,-0.1212,1.3563,-5.4163,-15.82,-10.290560265169447,-21.830436179198177,62.64993696592593,6.755000000004657
-0.3847,0.9704,-0.1842,-0.1402,0.1014,-0.1212,0.5075,-0.9712,-11.9525,-10.51153784572636,-21.35338559459675,62.02555800796865,6.760000000009313
-0.3486,0.931,-0.1185,-0.1356,0.1042,-0.1134,-3.7713,3.1063,-11.4187,-8.003691227170837,-20.517287893951018,61.44991050126559,6.7700000000040745
-0.3486,0.931,-0.1185,-0.1356,0.1042,-0.1134,-3.7713,3.1063,-11.4187,-7.4263832539966925,-20.397141047308494,60.88001946969448,6.780000000013388
-0.317,0.9074,-0.0866,-0.1386,0.1014,-0.119,-7.1838,8.015,-12.2063,-5.70624389689641,-19.333740892742608,60.31782137660531,6.7850000000034925
-0.3087,0.9258,-0.0696,-0.1386,0.1014,-0.119,-7.245,9.8263,-13.1075,-4.479274806138856,-18.50100956148826,59.825779236181035,6.794999999998254
-0.3217,0.948,-0.0663,-0.1386,0.1014,-0.119,-7.245,9.8263,-12.8363,-4.061798198309102,-18.677955675976552,59.28308948057097,6.80000000000291
-0.3292,0.9565,-0.0809,-0.1385,0.1008,-0.1115,-4.4538,6.4662,-12.8363,-4.680795245669498,-18.89925066267264,58.76812966912447,6.809999999997672
-0.3314,0.9581,-0.1005,-0.1385,0.1008,-0.1115,-2.2487,0.0175,-12.3375,-5.524783929406354,-18.97280651295193,58.19447732584629,6.820000000006985
-0.3314,0.9581,-0.1005,-0.1363,0.1002,-0.116,0.0,-4.3313,-13.0113,-5.663496141592378,-18.982250627613027,57.59802046927432,6.8250000000116415
-0.3218,0.9771,-0.1201,-0.1363,0.1002,-0.116,0.0,-4.3313,-13.0113,-6.065790061609413,-18.204609777494795,57.00752818131029,6.830000000001746
-0.3274,0.9733,-0.1415,-0.1363,0.1002,-0.116,-0.4988,-5.4862,-14.49,-6.213064148956065,-18.391024125051583,56.39699522285951,6.8400000000110595
-0.3431,0.9468,-0.1706,-0.134,0.0988,-0.1222,-2.8437,-2.9137,-16.3713,-9.043120303148472,-19.524182009135394,55.818035344060576,6.849999999991269
-0.3443,0.9249,-0.1771,-0.134,0.0988,-0.1222,-3.9025,2.2838,-18.1475,-10.438326083220305,-20.042296034657557,55.29632031405393,6.860000000000582
-0.3443,0.9249,-0.1615,-0.1337,0.1006,-0.1154,-3.9025,2.2838,-18.1475,-10.02398304809358,-20.131370326079313,54.76158977263037,6.865000000005239
-0.3469,0.9295,-0.1624,-0.1337,0.1006,-0.1154,-5.7838,7.3675,-19.6875,-9.928390616091022,-20.182000219476738,54.3007678282586,6.875
-0.3659,0.9609,-0.1457,-0.1337,0.098,-0.1196,-9.24,11.3225,-21.3675,-8.75513833070378,-20.604094445222668,53.82073437673466,6.880000000004657
-0.3852,0.977,-0.1245,-0.1301,0.098,-0.1196,-11.0513,14.2975,-21.4725,-7.390556141925365,-21.31626355288103,53.43792798628591,6.889999999999418
-0.395,0.9849,-0.1032,-0.1301,0.098,-0.1196,-11.0513,14.2975,-21.4725,-6.102948018922419,-21.72044388506789,53.05894965996778,6.900000000008731
-0.3955,0.9955,-0.0801,-0.128,0.0987,-0.1139,-12.005,15.435,-20.5713,-4.719701797891807,-21.6111896478895,52.69502236668079,6.9100000000034925
-0.3955,0.9955,-0.0801,-0.128,0.0987,-0.1139,-12.8363,13.5887,-19.5562,-4.609137137122975,-21.604438714879542,52.242264059567155,6.914999999993597
-0.4061,1.0061,-0.0887,-0.1282,0.0978,-0.1089,-13.9125,8.9425,-18.69,-5.008668679163601,-21.88293626946389,51.82222787246684,6.92500000000291
-0.4075,0.9987,-0.0795,-0.1282,0.0978,-0.1089,-13.9125,8.9425,-18.69,-4.582917978004472,-22.11610340247792,51.40639204708853,6.934999999997672
-0.4121,0.9897,-0.0974,-0.1282,0.0978,-0.1089,-13.895,4.5413,-17.9288,-5.54886536397588,-22.47934603243271,50.92173541334503,6.940000000002328
