AcclX,AcclY,AcclZ,MagX,MagY,MagZ,GyroX,GyroY,GyroZ,Roll,Pitch,Yaw,Time Elapsed(s)
-0.1606,1.0143,0.0254,0.1736,0.1666,-0.0374,-0.35,-1.4787,-6.2475,0,0,0,0.0
-0.1613,1.0135,0.0233,0.1736,0.1666,-0.0374,-0.35,-1.4787,-6.2475,0,0,0,0.00999999999476131
-0.1649,1.0131,0.0251,0.1767,0.1659,-0.0446,-0.21,-1.4963,-6.405,0,0,0,0.00999999999476131
-0.1652,1.0136,0.0224,0.1767,0.1659,-0.0446,-0.1488,-1.5313,-6.5012,0,0,0,0.01999999998952262
-0.1652,1.0153,0.0263,0.1731,0.1648,-0.0498,-0.2013,-2.03,-6.3612,0,0,0,0.029999999998835847
-0.1643,1.0153,0.0263,0.1731,0.1648,-0.0498,-0.2013,-2.03,-6.3612,0,0,0,0.03999999999359716
-0.1609,1.014,0.0228,0.1731,0.1658,-0.0368,-0.3063,-1.68,-6.8775,0,0,0,0.05000000000291038
-0.1629,1.0169,0.0223,0.1731,0.1658,-0.0368,0.1488,-2.0825,-6.7463,0,0,0,0.05000000000291038
-0.1635,1.0194,0.0244,0.1731,0.1658,-0.0368,0.1488,-2.0825,-6.7638,0,0,0,0.059999999997671694
-0.161,1.0166,0.0254,0.1748,0.1661,-0.0434,0.2625,-2.1875,-6.7638,0,0,0,0.069999999992433
-0.161,1.0166,0.0254,0.1748,0.1661,-0.0434,0.2887,-1.8025,-7.0,0,0,0,0.07999999998719431
-0.1588,1.0155,0.0199,0.1754,0.1657,-0.0386,0.2187,-2.0825,-6.58,0,0,0,0.08999999999650754
-0.1632,1.0146,0.0232,0.1754,0.1657,-0.0386,0.2187,-2.0825,-6.58,0,0,0,0.08999999999650754
-0.1606,1.0146,0.0193,0.1754,0.1657,-0.0386,-0.3762,-1.8813,-6.7112,0,0,0,0.09999999999126885
-0.1652,1.0155,0.0163,0.1754,0.1666,-0.0398,-0.49,-1.75,-6.3175,0,0,0,0.11199999999371357
-0.1652,1.0166,0.0234,0.1754,0.1666,-0.0398,0.2013,-1.6363,-5.8888,0,0,0,0.12199999998847488
-0.1672,1.0166,0.0234,0.1746,0.1656,-0.0422,0.2013,-1.6363,-5.8888,0,0,0,0.12199999998847488
-0.1641,1.0175,0.022,0.1746,0.1656,-0.0422,0.2887,-1.7587,-5.9588,0,0,0,0.1319999999977881
-0.1646,1.0187,0.016,0.1746,0.1656,-0.0422,0.3325,-1.61,-5.8888,0,0,0,0.14200000000710133
-0.162,1.0181,0.0212,0.1765,0.1651,-0.0436,-0.245,-1.5225,-5.9675,0,0,0,0.15200000000186265
-0.1623,1.0178,0.0214,0.1765,0.1651,-0.0436,-0.245,-1.5225,-5.9675,0,0,0,0.15200000000186265
-0.1623,1.0178,0.0214,0.1746,0.1653,-0.0407,-0.6737,-1.26,-5.845,0,0,0,0.16199999999662396
-0.1626,1.0168,0.0217,0.1746,0.1653,-0.0407,-0.7875,-1.7763,-5.9237,0,0,0,0.17199999999138527
-0.1615,1.0171,0.0196,0.1746,0.1653,-0.0407,-0.7525,-1.8813,-5.6438,0,0,0,0.1820000000006985
-0.165,1.0164,0.0184,0.1752,0.1671,-0.0373,-0.7525,-1.8813,-5.6438,0,0,0,0.1919999999954598
-0.164,1.0159,0.0243,0.1752,0.1671,-0.0373,-0.1663,-1.3737,-5.6613,0,0,0,0.1919999999954598
-0.164,1.0177,0.0215,0.1762,0.1662,-0.0419,-0.8225,-1.5575,-5.3637,0,0,0,0.20200000000477303
-0.1643,1.0177,0.0215,0.1762,0.1662,-0.0419,-0.8225,-1.1638,-5.1188,0,0,0,0.21199999999953434
-0.164,1.0182,0.0214,0.1758,0.1633,-0.0464,-0.6562,-1.1638,-5.1188,0,0,0,0.22200000000884756
-0.1642,1.0172,0.0246,0.1758,0.1633,-0.0464,-0.805,-1.4175,-5.81,0,0,0,0.23199999998905696
-0.1627,1.0156,0.0209,0.1758,0.1633,-0.0464,-0.945,-1.155,-5.6087,0,0,0,0.23199999998905696
-0.1645,1.0169,0.0257,0.1754,0.1658,-0.039,-0.945,-1.155,-5.6087,0,0,0,0.24199999999837019
-0.1645,1.0169,0.0257,0.1754,0.1658,-0.039,-0.77,-0.8662,-5.705,0,0,0,0.2519999999931315
-0.161,1.0135,0.0253,0.1745,0.1639,-0.0491,-0.8138,-1.4088,-5.9588,0,0,0,0.2620000000024447
-0.1638,1.0142,0.0256,0.1745,0.1639,-0.0491,-1.085,-1.085,-6.3,0,0,0,0.27199999999720603
-0.1651,1.013,0.0267,0.1745,0.1639,-0.0491,-1.085,-1.085,-6.3,0,0,0,0.27199999999720603
-0.1618,1.0131,0.0282,0.175,0.1642,-0.0487,-0.7788,-1.015,-6.2913,0,0,0,0.28200000000651926
-0.1618,1.0135,0.0287,0.175,0.1642,-0.0487,-0.6562,-0.9887,-6.0637,0,0,0,0.29200000000128057
-0.1655,1.0135,0.0287,0.175,0.1657,-0.0415,-0.805,-1.3038,-6.16,0,0,0,0.3019999999960419
-0.1627,1.0119,0.0276,0.175,0.1657,-0.0415,-0.805,-1.3038,-6.16,0,0,0,0.3119999999908032
-0.1643,1.0099,0.0245,0.175,0.1657,-0.0415,-0.8575,-1.4525,-6.5625,0,0,0,0.3119999999908032
-0.1638,1.0114,0.0255,0.1753,0.1672,-0.0434,-0.5512,-0.9187,-6.5188,0,0,0,0.3220000000001164
-0.1645,1.0119,0.0294,0.1753,0.1672,-0.0434,-0.0613,-0.9363,-6.4662,0,0,0,0.3319999999948777
-0.1645,1.0119,0.0294,0.1766,0.1657,-0.044,-0.0613,-0.9363,-6.4662,0,0,0,0.34200000000419095
-0.1671,1.0114,0.0214,0.1766,0.1657,-0.044,-0.175,-1.2075,-6.0113,0,0,0,0.35199999999895226
-0.1677,1.0135,0.0254,0.1766,0.1657,-0.044,-0.1575,-1.1725,-5.705,0,0,0,0.35199999999895226
-0.1665,1.0118,0.026,0.1758,0.1664,-0.0365,-0.0962,-1.015,-5.6875,0,0,0,0.3620000000082655
-0.1679,1.0146,0.025,0.1758,0.1664,-0.0365,-0.0962,-1.015,-5.6875,0,0,0,0.3719999999884749
-0.1679,1.0138,0.0213,0.1754,0.1667,-0.047,0.07,-1.505,-5.1013,0,0,0,0.3819999999977881
-0.1645,1.0138,0.0213,0.1754,0.1667,-0.047,-0.1575,-1.6712,-5.0138,0,0,0,0.3919999999925494
-0.1648,1.0141,0.0181,0.1754,0.164,-0.0406,-0.1575,-1.6712,-5.2762,0,0,0,0.3919999999925494
-0.1633,1.0167,0.022,0.1754,0.164,-0.0406,-0.1663,-1.8988,-5.2762,0,0,0,0.40200000000186265
-0.1603,1.0161,0.0278,0.1754,0.164,-0.0406,0.2362,-1.6363,-5.3987,0,0,0,0.41199999999662396
-0.1603,1.0148,0.0205,0.175,0.1665,-0.0359,0.455,-1.5662,-5.355,0,0,0,0.4220000000059372
-0.1603,1.0148,0.0205,0.175,0.1665,-0.0359,0.455,-1.5662,-5.355,0,0,0,0.4319999999861466
-0.1582,1.0176,0.0194,0.1749,0.1679,-0.0354,-0.14,-1.5575,-5.1188,0,0,0,0.4319999999861466
-0.1562,1.0164,0.0249,0.1749,0.1679,-0.0354,-0.1488,-1.4875,-4.9525,0,0,0,0.4419999999954598
-0.1548,1.0117,0.0213,0.1749,0.1679,-0.0354,0.1312,-1.0588,-5.3113,0,0,0,0.4519999999902211
-0.1567,1.0139,0.024,0.1757,0.1648,-0.0518,0.1312,-1.0588,-5.3113,0,0,0,0.46199999999953434
-0.1567,1.0139,0.0234,0.1757,0.1648,-0.0518,-0.245,-0.6037,-5.4862,0,0,0,0.47199999999429565
-0.1542,1.0114,0.0234,0.174,0.1647,-0.0415,-0.56,-1.155,-5.7838,0,0,0,0.47199999999429565
-0.1534,1.0084,0.0257,0.174,0.1647,-0.0415,-0.7175,-0.84,-5.8888,0,0,0,0.4820000000036089
-0.1586,1.014,0.0205,0.174,0.1647,-0.0415,-0.7175,-0.84,-5.8888,0,0,0,0.4919999999983702
-0.1545,1.0141,0.0258,0.1736,0.1656,-0.0536,-1.1375,-0.6562,-5.8888,0,0,0,0.5019999999931315
-0.1539,1.0128,0.0284,0.1736,0.1656,-0.0536,-0.6913,-0.6913,-5.5825,0,0,0,0.5119999999878928
-0.1539,1.0128,0.0284,0.1754,0.1651,-0.0366,-0.4112,-0.28,-5.9412,0,0,0,0.5119999999878928
-0.1611,1.0116,0.0243,0.1754,0.1651,-0.0366,-0.4112,-0.28,-5.9412,0,0,0,0.521999999997206
-0.1613,1.0121,0.0267,0.1754,0.1651,-0.0366,-0.6562,-0.7788,-5.9325,0,0,0,0.5319999999919673
-0.1634,1.0161,0.0243,0.1758,0.167,-0.0415,-0.42,-1.1113,-6.4225,0,0,0,0.5420000000012806
-0.1681,1.0211,0.0206,0.1758,0.167,-0.0415,-0.42,-1.295,-6.86,0,0,0,0.5519999999960419
-0.1681,1.0211,0.0257,0.1748,0.1652,-0.0441,-0.455,-1.295,-6.86,0,0,0,0.5519999999960419
-0.1641,1.0198,0.0257,0.1748,0.1652,-0.0441,0.2187,-1.6888,-7.0613,0,0,0,0.5620000000053551
-0.1661,1.0197,0.0236,0.1754,0.1682,-0.0401,-0.4025,-1.9075,-7.1487,0,0,0,0.5719999999855645
-0.1662,1.0222,0.0193,0.1754,0.1682,-0.0401,-0.4025,-1.9075,-7.1487,0,0,0,0.5819999999948777
-0.1662,1.0208,0.027,0.1754,0.1682,-0.0401,-0.4638,-2.1,-7.3938,0,0,0,0.591999999989639
-0.1602,1.0183,0.0226,0.1756,0.1666,-0.0474,-0.6825,-2.4762,-7.525,0,0,0,0.591999999989639
-0.1602,1.0183,0.0226,0.1756,0.1666,-0.0474,-1.3825,-2.8,-7.2625,0,0,0,0.6019999999989523
-0.1619,1.0179,0.0214,0.1751,0.1643,-0.0433,-1.3825,-2.8,-7.2625,0,0,0,0.6119999999937136
-0.1626,1.0159,0.03,0.1751,0.1643,-0.0433,-1.0237,-2.3537,-7.4288,0,0,0,0.6220000000030268
-0.1601,1.0155,0.023,0.1751,0.1643,-0.0433,-1.085,-2.3625,-7.455,0,0,0,0.6319999999977881
-0.1619,1.0132,0.0255,0.1768,0.1661,-0.0495,-1.1025,-2.3625,-7.2275,0,0,0,0.6319999999977881
-0.1619,1.0132,0.0294,0.1768,0.1661,-0.0495,-1.1025,-2.3625,-7.2275,0,0,0,0.6419999999925494
-0.162,1.015,0.0294,0.1774,0.1675,-0.0415,-0.7962,-1.995,-7.2888,0,0,0,0.6519999999873107
-0.1604,1.0158,0.0249,0.1774,0.1675,-0.0415,-0.8575,-1.7062,-7.9538,0,0,0,0.661999999996624
-0.1622,1.015,0.0263,0.1774,0.1675,-0.0415,-0.6388,-1.2513,-7.8837,0,0,0,0.6720000000059372
-0.1635,1.0128,0.0312,0.1781,0.1668,-0.0394,-0.6388,-1.2513,-7.8837,0,0,0,0.6720000000059372
-0.1633,1.015,0.0263,0.1781,0.1668,-0.0394,0.0613,-0.7525,-7.6737,0,0,0,0.6820000000006985
-0.1633,1.015,0.0263,0.1774,0.167,-0.0413,-0.0962,-0.3413,-7.2888,0,0,0,0.6919999999954598
-0.1659,1.0161,0.0243,0.1774,0.167,-0.0413,-0.1925,-0.245,-7.2888,0,0,0,0.7019999999902211
-0.1657,1.0139,0.0255,0.1774,0.167,-0.0413,-0.1925,-0.245,-7.2888,0,0,0,0.7119999999995343
-0.1663,1.0133,0.0208,0.1767,0.1674,-0.0478,0.4112,-0.2013,-7.1575,0,0,0,0.7119999999995343
-0.1738,1.0153,0.0207,0.1767,0.1674,-0.0478,1.2425,0.7962,-7.2187,0,0,0,0.7219999999942956
-0.1738,1.0153,0.0255,0.1763,0.1684,-0.0394,1.2425,0.7962,-7.2537,0,0,0,0.7320000000036089
-0.1784,1.0159,0.0255,0.1763,0.1684,-0.0394,0.5075,0.28,-7.2537,0,0,0,0.7419999999983702
-0.1776,1.0122,0.0185,0.1778,0.1665,-0.0425,0.735,0.035,-6.8513,0,0,0,0.7520000000076834
-0.1753,1.017,0.0227,0.1778,0.1665,-0.0425,0.805,-0.6212,-6.6675,0,0,0,0.7520000000076834
-0.1703,1.0249,0.0221,0.1778,0.1665,-0.0425,0.805,-0.6212,-6.6675,0,0,0,0.7620000000024447
-0.1712,1.0233,0.0218,0.1778,0.1686,-0.0424,-0.0088,-0.6825,-6.8425,0,0,0,0.771999999997206
-0.1712,1.0233,0.0218,0.1778,0.1686,-0.0424,-0.2187,-0.7962,-6.195,0,0,0,0.7819999999919673
-0.1759,1.0163,0.0242,0.1775,0.1666,-0.0398,-0.8925,-0.5688,-6.2737,0,0,0,0.7920000000012806
-0.1711,1.0115,0.0219,0.1775,0.1666,-0.0398,-0.8925,-0.5688,-6.2737,0.4648153141897623,-2.3801927738460327,0.0,0.7920000000012806
-0.1766,1.0097,0.02,0.1775,0.1666,-0.0398,-0.9013,-1.3038,-5.8625,0.7181720226383723,-2.9480959516686007,-0.0007038404996312745,0.8019999999960419
-0.172,1.0077,0.0218,0.1758,0.1662,-0.0507,-0.3762,-1.68,-5.81,0.7581439700811887,-3.7438821186200246,-0.005125022598759057,0.8120000000053551
-0.172,1.0077,0.0204,0.1758,0.1662,-0.0507,-0.6388,-1.9863,-6.2475,0.8613060083861936,-5.12712452776743,-0.012534362868863088,0.8220000000001164
-0.1724,1.0069,0.0204,0.1775,0.1663,-0.0426,-0.6388,-1.9863,-6.2475,0.9382046808451016,-6.195179484376804,-0.019869609736266076,0.8319999999948777
-0.1675,1.0135,0.0193,0.1775,0.1663,-0.0426,-0.5075,-1.9075,-6.79,0.9651682702225232,-7.656017220873496,-0.021007007744036292,0.8340000000025611
-0.1633,1.0178,0.0209,0.1775,0.1663,-0.0426,-0.7175,-2.31,-6.86,1.0280942287340495,-8.352676951719943,-0.031462158161008745,0.8439999999973224
-0.1606,1.0166,0.0223,0.1771,0.1669,-0.0341,-0.6475,-2.2575,-6.2562,1.0878910777869175,-8.50078398972297,-0.04129300708884736,0.8540000000066357
-0.1613,1.0161,0.0196,0.1771,0.1669,-0.0341,-0.6475,-2.2575,-6.2562,1.092385032312313,-8.623959178643815,-0.05102554749788038,0.8639999999868451
-0.1613,1.0161,0.0196,0.1788,0.1671,-0.0428,-0.77,-2.03,-6.2475,1.0964797845724368,-8.715819637963152,-0.05051529202290157,0.8639999999868451
-0.1622,1.0172,0.0219,0.1788,0.1671,-0.0428,-0.7175,-1.6538,-6.0637,1.1372643419589716,-8.752397333610627,-0.05417897960655508,0.8739999999961583
-0.1612,1.015,0.0232,0.1788,0.1671,-0.0428,-1.3825,-1.6625,-5.8888,1.227008417214021,-8.76648785992349,-0.05789216030826048,0.8839999999909196
-0.1629,1.0106,0.0238,0.1777,0.1668,-0.0447,-1.3825,-1.6625,-5.8888,1.2906587765377289,-8.786765440260458,-0.06156820920914062,0.8940000000002328
-0.1675,1.0089,0.0246,0.1777,0.1668,-0.0447,-1.0588,-1.47,-5.8012,1.3366713923106672,-8.866332759203168,-0.06330174761581853,0.9039999999949941
-0.1675,1.0089,0.0258,0.1778,0.1654,-0.0411,-1.855,-1.0325,-5.4775,1.414830037664453,-9.043522652479368,-0.06266873013966034,0.9039999999949941
-0.1661,1.0072,0.0258,0.1778,0.1654,-0.0411,-1.855,-1.0325,-5.5825,1.4468451524495505,-9.12794398138025,-0.060060013336417827,0.9140000000043074
-0.1652,1.0068,0.0232,0.1774,0.1686,-0.049,-1.365,-1.2862,-5.5825,1.3812486016881764,-9.177837746925215,-0.0599890137027762,0.9239999999990687
-0.167,1.0097,0.0252,0.1774,0.1686,-0.049,-1.0588,-1.1113,-5.6175,1.4022531796684992,-9.229705536208494,-0.05818721406637807,0.93399999999383
-0.1673,1.0103,0.0292,0.1774,0.1686,-0.049,-0.6037,-1.1463,-5.9237,1.4622709098019142,-9.233062276581965,-0.05674993242616241,0.9439999999885913
-0.1671,1.0105,0.0268,0.177,0.1664,-0.0418,-0.6037,-1.1463,-5.9237,1.4757652949404207,-9.236108928083175,-0.05618243310190078,0.9439999999885913
-0.1671,1.0105,0.0268,0.177,0.1664,-0.0418,-0.875,-1.5575,-5.74,1.4917478421537376,-9.261574825013161,-0.058836079273876414,0.9539999999979045
-0.1653,1.0121,0.0254,0.1756,0.1666,-0.0444,-0.3675,-1.4787,-5.355,1.4880003312624501,-9.265808282660517,-0.06068306897986184,0.9639999999926658
-0.1697,1.0125,0.0292,0.1756,0.1666,-0.0444,-0.07,-1.6187,-5.46,1.517903866314477,-9.345687551560767,-0.06389758879362212,0.9740000000019791
-0.1723,1.0136,0.0243,0.1756,0.1666,-0.0444,-0.07,-1.6187,-5.46,1.491532639312571,-9.443193985014034,-0.067079963403684,0.9839999999967404
-0.1678,1.0149,0.026,0.1772,0.1686,-0.0508,-0.315,-1.5662,-5.3288,1.4910181988670148,-9.421078416918883,-0.06640916376964716,0.9839999999967404
-0.1678,1.0149,0.0267,0.1772,0.1686,-0.0508,0.0,-1.8988,-5.215,1.4946387832703603,-9.405851425758671,-0.07233941262849611,0.9939999999915017
-0.1681,1.0155,0.0267,0.1768,0.1671,-0.0424,0.2187,-1.785,-5.2413,1.4985190948186269,-9.40178201061853,-0.07708373899934677,1.003999999986263
-0.1722,1.0177,0.0253,0.1768,0.1671,-0.0424,0.2187,-1.785,-5.2413,1.4733173380327793,-9.483939476685793,-0.08178062211444552,1.0139999999955762
-0.1712,1.0203,0.0234,0.1768,0.1671,-0.0424,-0.035,-1.9338,-5.215,1.4405927744572185,-9.500275924857013,-0.08790365638966496,1.0239999999903375
-0.1716,1.0191,0.0227,0.1778,0.1676,-0.0435,-0.3762,-2.3625,-5.11,1.4279703849650371,-9.525478320602232,-0.08702461982576831,1.0239999999903375
-0.1708,1.018,0.0212,0.1778,0.1676,-0.0435,-0.35,-2.2925,-5.3725,1.4153271451070792,-9.524339697199308,-0.09664634413728203,1.0339999999996508
-0.1708,1.018,0.0212,0.1761,0.1679,-0.0414,-0.35,-2.2925,-5.3725,1.4033642698534228,-9.52361513685005,-0.10617185119041278,1.043999999994412
-0.1721,1.0205,0.0225,0.1761,0.1679,-0.0414,0.0875,-2.5025,-5.3812,1.3646818262102995,-9.540379715916332,-0.11768110319021628,1.0540000000037253
-0.1743,1.0217,0.0236,0.1761,0.1679,-0.0414,-0.3063,-2.5025,-5.8012,1.3641428286056128,-9.557674166718286,-0.12907526265172858,1.0639999999984866
-0.1694,1.0199,0.0203,0.1764,0.1663,-0.045,-0.3063,-2.5025,-5.88,1.3612319597182034,-9.549913992628847,-0.1277845100252113,1.0639999999984866
-0.1716,1.0221,0.0206,0.1764,0.1663,-0.045,-0.0875,-2.3187,-5.88,1.3259923989951785,-9.548631732436581,-0.1372580154193269,1.073999999993248
-0.1716,1.0221,0.0206,0.1776,0.1667,-0.0394,-0.84,-2.2313,-5.6,1.2654050193990332,-9.543501435524165,-0.1457715257599546,1.0839999999880092
-0.1714,1.0232,0.024,0.1776,0.1667,-0.0394,-0.7437,-2.1088,-5.8012,1.289716524703694,-9.538937171578999,-0.15298715101043275,1.0939999999973224
-0.1686,1.0208,0.0196,0.1776,0.1669,-0.04,-0.7437,-2.1088,-5.8012,1.2307810021016958,-9.518689449796604,-0.1601306200084061,1.1040000000066357
-0.1716,1.0221,0.0233,0.1769,0.1669,-0.04,-0.7525,-1.9775,-5.9062,1.254426555259703,-9.519030331647354,-0.15852931380832205,1.1040000000066357
-0.1699,1.0215,0.0245,0.1769,0.1669,-0.04,-0.7525,-1.8112,-6.1687,1.2920456329515115,-9.504630372352604,-0.16267112116723856,1.114000000001397
-0.1732,1.0183,0.0234,0.1771,0.1666,-0.0368,-1.0938,-1.9162,-6.3525,1.302872758431645,-9.546913179922457,-0.16781101045202135,1.1239999999961583
-0.1732,1.0183,0.0234,0.1771,0.1666,-0.0368,-1.0938,-1.9162,-6.3525,1.3088855800156491,-9.576932240596872,-0.1728995008439563,1.1339999999909196
-0.1758,1.0168,0.022,0.1754,0.1671,-0.0439,-1.1463,-1.9775,-6.5975,1.27693557357587,-9.667842803908275,-0.17117050583551674,1.1339999999909196
-0.1721,1.0189,0.0268,0.1754,0.1671,-0.0439,-1.1463,-1.9338,-7.5163,1.3827139882113952,-9.616564637223194,-0.17639964128362573,1.1440000000002328
-0.1749,1.0214,0.0253,0.1754,0.1671,-0.0439,-1.7587,-1.645,-8.19,1.4042365281246503,-9.683922623429526,-0.17871736536865118,1.1539999999949941
-0.1721,1.0139,0.0209,0.1763,0.1676,-0.0445,-1.7587,-1.645,-8.19,1.2714806585742366,-9.647713550602003,-0.18101191221876609,1.1640000000043074
-0.1721,1.0139,0.0209,0.1763,0.1676,-0.0445,-1.75,-1.9425,-8.0413,1.2177669345766153,-9.636797114210356,-0.18622876359289722,1.1739999999990687
-0.1681,1.0117,0.0187,0.1781,0.1674,-0.0415,-2.1962,-1.7763,-7.2713,1.1136366427881028,-9.52014938811803,-0.18436647595696826,1.1739999999990687
-0.1702,1.0051,0.0271,0.1781,0.1674,-0.0415,-1.9075,-1.7938,-6.3088,1.3796713905863396,-9.543541867902546,-0.18807765170257193,1.184000000008382
-0.1685,1.0018,0.0215,0.1781,0.1674,-0.0415,-1.9075,-1.7938,-6.3088,1.2869142377831915,-9.544056989842291,-0.19175171567455282,1.1939999999885913
-0.1683,1.0063,0.0219,0.1779,0.1669,-0.0378,-1.295,-2.3275,-5.5475,1.2668008988099666,-9.529399142666737,-0.2006726690279014,1.2039999999979045
-0.1662,1.0144,0.0267,0.1779,0.1669,-0.0378,-1.7413,-1.8725,-5.705,1.4093198776942741,-9.485451408231931,-0.20499991283430422,1.2139999999926658
-0.1662,1.0144,0.0267,0.1783,0.1666,-0.0396,-2.1613,-2.1437,-6.9913,1.4734207594817714,-9.391372376011194,-0.20294991370596116,1.2139999999926658
-0.1612,1.0215,0.0284,0.1783,0.1666,-0.0396,-2.1613,-2.1437,-6.9913,1.551009534736627,-9.172910959940289,-0.209939265077301,1.224000000001979
-0.1648,1.0257,0.0254,0.1783,0.1666,-0.0396,-3.15,-2.2925,-8.0763,1.4529000401632475,-9.140292304579031,-0.21833184292103155,1.2339999999967404
-0.1629,1.0205,0.0256,0.179,0.169,-0.045,-3.5263,-2.1788,-9.0913,1.440760468861136,-9.084420418712728,-0.22551486500054432,1.2440000000060536
-0.1602,1.0181,0.0258,0.179,0.169,-0.045,-3.5263,-2.1788,-8.7587,1.449070023101434,-8.977457569736924,-0.23262605684563212,1.254000000000815
-0.1602,1.0181,0.0258,0.181,0.1665,-0.0364,-3.5438,-1.925,-8.7587,1.4510354838324968,-8.949418155965311,-0.23029979627717578,1.254000000000815
-0.1646,1.0102,0.0236,0.181,0.1665,-0.0364,-3.1937,-1.9162,-8.4087,1.3671903805024275,-9.164565301611308,-0.2347633988108592,1.2639999999955762
-0.1673,1.0078,0.0308,0.181,0.1671,-0.0445,-2.6862,-1.4612,-7.7787,1.6375366164991703,-9.33061679142948,-0.23467786532156557,1.2739999999903375
-0.1649,1.0054,0.0349,0.1797,0.1671,-0.0445,-2.6862,-1.4612,-7.7787,1.884771677663026,-9.316554196882235,-0.23459318717045666,1.2839999999996508
-0.1685,1.0081,0.0291,0.1797,0.1671,-0.0445,-2.1263,-1.365,-7.3763,1.7350984459517134,-9.415846719960005,-0.23355697579806595,1.293999999994412
-0.1693,1.013,0.0299,0.1799,0.1676,-0.042,-2.3975,-1.6187,-7.5425,1.7049801321249674,-9.457739497518622,-0.2312214060400853,1.293999999994412
-0.1693,1.013,0.0299,0.1799,0.1676,-0.042,-2.5375,-0.9625,-8.2075,1.6950792887518231,-9.475916262178428,-0.2262341624771931,1.3040000000037253
-0.165,1.0104,0.0334,0.1802,0.1666,-0.0414,-2.5375,-0.9625,-8.2075,1.8321978472719946,-9.33285724262725,-0.22129679135382255,1.3139999999984866
-0.1622,1.0039,0.0318,0.1802,0.1666,-0.0414,-2.6075,-0.7788,-8.4788,1.8197146675806484,-9.218535153019522,-0.21459016393609925,1.3240000000077998
-0.1699,1.0053,0.0331,0.1802,0.1666,-0.0414,-2.1525,-0.07,-8.6625,1.862695086017463,-9.488268733815897,-0.20093348281951878,1.3339999999880092
-0.1692,1.0042,0.0367,0.1818,0.1684,-0.0311,-1.7237,0.0263,-8.6187,1.9982637013716502,-9.538882069009265,-0.1989241479913236,1.3339999999880092
-0.1692,1.0042,0.0367,0.1818,0.1684,-0.0311,-1.7237,0.0263,-8.6187,2.0540401028021718,-9.552655409539504,-0.18447075699980223,1.3439999999973224
-0.1681,1.0048,0.0326,0.1804,0.1678,-0.0402,-1.54,0.3938,-7.9713,1.9453987817148501,-9.512406090667566,-0.16652364993823976,1.3539999999920838
-0.175,1.0075,0.0349,0.1804,0.1678,-0.0402,-1.0588,0.6825,-6.9913,1.9621136256201641,-9.684090282358776,-0.14589788392119898,1.364000000001397
-0.1749,1.0086,0.0394,0.1804,0.1678,-0.0402,-0.9887,1.0412,-5.9412,2.0749077212330347,-9.684494160890457,-0.12192724559378015,1.3739999999961583
-0.1735,1.0091,0.0382,0.1797,0.1672,-0.0461,-0.9887,1.0412,-5.9412,2.113066525662494,-9.684672046101994,-0.12070797313784234,1.3739999999961583
-0.1818,1.01,0.0318,0.1797,0.1672,-0.0461,-0.6737,1.0237,-5.32,2.0276947341014404,-9.882299311829398,-0.09716248388565965,1.3840000000054715
-0.1818,1.01,0.0318,0.1801,0.1675,-0.0409,-0.4462,1.295,-4.9,1.9979151785030327,-10.044069182719301,-0.07116657955991249,1.3940000000002328
-0.1778,1.008,0.0368,0.1801,0.1675,-0.0409,-0.7262,0.7437,-5.6262,2.0259915447822308,-10.032698296276443,-0.05088850427456359,1.4039999999949941
-0.1771,1.0164,0.032,0.1801,0.1675,-0.0409,-0.7262,0.7437,-5.6262,1.9586900754753258,-9.995713799845415,-0.03081320974206818,1.4139999999897555
-0.1723,1.0186,0.0372,0.1809,0.167,-0.0374,-1.1287,0.665,-6.6675,2.0191708613637305,-9.827343001732247,-0.030505077644647497,1.4139999999897555
-0.175,1.0197,0.0356,0.1809,0.167,-0.0374,-1.3475,0.4112,-6.7025,2.009080899215827,-9.786375832121081,-0.013925367353044057,1.4239999999990687
-0.175,1.0197,0.0356,0.1807,0.1686,-0.0358,-1.3475,0.4112,-8.9425,2.004169443434475,-9.745874420063846,0.0024885458119606003,1.43399999999383
-0.1807,1.0184,0.0346,0.1807,0.1686,-0.0358,-1.5575,0.315,-6.9825,1.971615146903991,-9.903810108454964,0.017785939868110986,1.4440000000031432
-0.1798,1.0234,0.0347,0.1807,0.1684,-0.0406,-1.6187,-0.2887,-6.965,1.9547119310085854,-9.931656728944155,0.026953729964533987,1.4539999999979045
-0.1823,1.0208,0.0397,0.1845,0.1684,-0.0406,-1.5313,-0.7088,-6.6062,2.105438480120655,-10.005879026371884,0.026684192664888647,1.4539999999979045
-0.1856,1.0144,0.031,0.1845,0.1684,-0.0406,-1.5313,-0.7088,-6.6062,1.9090345859143953,-10.148443428980936,0.03160401023552264,1.4639999999926658
-0.1842,1.0158,0.0345,0.1813,0.1686,-0.043,-1.47,-0.9712,-7.0788,1.9285922294138098,-10.214253261524288,0.03387686963181117,1.4739999999874271
-0.1842,1.0158,0.0345,0.1813,0.1686,-0.043,-1.155,-1.9425,-7.3063,1.9362849533563187,-10.247695954147888,0.026511130428948686,1.4839999999967404
-0.1869,1.0188,0.0371,0.1795,0.1678,-0.0439,-1.5137,-2.3975,-8.3212,2.018318013544343,-10.346914218468452,0.014714548630700184,1.4939999999915017
-0.1822,1.0191,0.0334,0.1795,0.1678,-0.0439,-1.5137,-2.3975,-8.3212,1.9407177856815283,-10.195083036607828,0.014567403144393183,1.4939999999915017
-0.1824,1.0239,0.0346,0.1795,0.1678,-0.0439,-1.1812,-2.7475,-8.96,1.938227462633458,-10.120074150450563,-0.0005747414010172945,1.504000000000815
-0.1761,1.0247,0.0328,0.1802,0.1661,-0.0353,-1.4787,-3.3075,-9.31,1.881350216201155,-9.832006531521992,-0.021109464476246603,1.5139999999955762
-0.1761,1.0247,0.0328,0.1802,0.1661,-0.0353,-2.2487,-3.465,-10.3337,1.849607608287515,-9.762304242842347,-0.0429980903520661,1.5240000000048894
-0.1742,1.0263,0.0331,0.1831,0.1687,-0.04,-2.2487,-3.465,-10.3337,1.8480479885242358,-9.653266990897933,-0.06466782990480875,1.5339999999850988
-0.1734,1.0245,0.0323,0.1831,0.1687,-0.04,-3.045,-3.2725,-11.1562,1.8170596239248198,-9.61006536400825,-0.06402115160576066,1.5339999999850988
-0.1753,1.0165,0.0328,0.1831,0.1687,-0.04,-3.2113,-3.3163,-10.5612,1.8402189366793547,-9.749484965558345,-0.08400853060891399,1.543999999994412
-0.1818,1.008,0.0361,0.1844,0.1697,-0.0359,-3.3163,-3.3338,-9.3975,1.998672375281799,-10.112319101852442,-0.10396928579192793,1.5539999999891734
-0.1887,1.0052,0.0383,0.1844,0.1697,-0.0359,-3.3163,-3.3338,-9.3975,2.1364477466972804,-10.509502583496316,-0.12373043345338093,1.5639999999984866
-0.1887,1.0052,0.0383,0.1846,0.1706,-0.0382,-2.8087,-2.9925,-7.98,2.1690576412587754,-10.586629496421347,-0.1399150996097203,1.573999999993248
-0.1863,1.0011,0.0423,0.1846,0.1706,-0.0382,-2.0912,-2.4675,-6.6588,2.3300006243510025,-10.564147904237013,-0.1385159486136231,1.573999999993248
-0.1859,0.9959,0.0443,0.1846,0.1706,-0.0382,-2.0912,-1.5838,-5.74,2.4694298268303387,-10.56399396469771,-0.14060662963072398,1.5840000000025611
-0.1869,1.0061,0.0448,0.1846,0.169,-0.0389,-1.6712,-1.5838,-5.74,2.5158899927861533,-10.555441125700428,-0.14267640383259583,1.5939999999973224
-0.1856,1.008,0.0422,0.1846,0.169,-0.0389,-1.2687,-1.4088,-5.1188,2.4573244191822234,-10.495977590807021,-0.1429929802933566,1.6039999999920838
-0.1856,1.008,0.0422,0.1826,0.1699,-0.0382,-1.295,-0.9187,-3.4738,2.427280348186116,-10.444681492160665,-0.13845440099205156,1.613999999986845
-0.1812,1.0034,0.0383,0.1826,0.1699,-0.0382,-1.295,-0.9187,-3.4738,2.3064929599976076,-10.29129598072431,-0.13706985698213103,1.613999999986845
-0.1825,1.0048,0.0448,0.1826,0.167,-0.0347,-0.9363,-0.1488,-3.0013,2.4029412119165223,-10.286081689611638,-0.12496849890231601,1.6239999999961583
-0.1786,1.0053,0.0418,0.183,0.167,-0.0347,-0.105,0.2275,-2.4588,2.3994616292501996,-10.114640664489462,-0.10926278439982962,1.6340000000054715
-0.1775,1.0115,0.0365,0.183,0.167,-0.0347,-0.28,0.56,-1.9162,2.3951490647943556,-9.980096596653755,-0.09042237706512882,1.6440000000002328
-0.1795,1.0161,0.0376,0.181,0.1682,-0.0366,-0.28,0.56,-1.9162,2.3915738673261173,-10.005301864531539,-0.07177037380377503,1.6539999999949941
-0.1795,1.0161,0.0376,0.181,0.1682,-0.0366,-0.4288,0.8225,-2.6688,2.3590370794232425,-10.010095966494635,-0.07105267006573728,1.6539999999949941
-0.175,1.0157,0.0364,0.1833,0.167,-0.0344,-0.8662,1.1638,-3.2725,2.247347188623663,-9.83513652258301,-0.046616743877508894,1.6639999999897555
-0.1761,1.0216,0.037,0.1833,0.167,-0.0344,-0.98,1.0412,-4.3663,2.176849828254461,-9.797752343033359,-0.02363891691776818,1.6739999999990687
-0.1771,1.0203,0.0382,0.1833,0.167,-0.0344,-0.98,1.0412,-4.3663,2.1635351663987032,-9.823808630190442,0.003611463656912981,1.6860000000015134
-0.1755,1.0131,0.04,0.1812,0.1689,-0.0394,-1.1725,0.875,-5.0312,2.209150001905625,-9.822158856339579,0.0035753490203438514,1.6860000000015134
-0.1755,1.0131,0.04,0.1812,0.1689,-0.0394,-1.3388,0.595,-5.4513,2.2356650651465553,-9.821562294949802,0.021633875020661386,1.6959999999962747
-0.1764,1.016,0.0371,0.1812,0.1682,-0.0372,-1.9512,0.9975,-5.0925,2.1455926382322597,-9.831509053534052,0.04349656575888826,1.705999999991036
-0.1798,1.0141,0.0479,0.1812,0.1682,-0.0372,-1.9512,0.9975,-5.0925,2.4941067034497353,-9.928814850505267,0.0651406296218621,1.7160000000003492
-0.1804,1.0088,0.0448,0.1812,0.1682,-0.0372,-2.38,0.2625,-4.4975,2.5270182149172764,-10.0472022980375,0.0792917528178889,1.7259999999951106
-0.1858,1.0071,0.0403,0.1814,0.1679,-0.0356,-2.24,0.595,-4.6287,2.371433858060718,-10.273067674565954,0.07849883528971001,1.7259999999951106
-0.1882,1.0058,0.0447,0.1814,0.1679,-0.0356,-1.9162,0.3063,-4.7863,2.4786317719228923,-10.442102036782547,0.09294999645100269,1.7360000000044238
-0.1882,1.0058,0.0447,0.1791,0.1654,-0.0382,-1.9162,0.3063,-4.7863,2.5194990729328812,-10.520443265468607,0.10725664597851091,1.745999999999185
-0.1855,1.007,0.0431,0.1791,0.1654,-0.0382,-0.8487,-0.5075,-4.9612,2.4949583164955196,-10.47469170534315,0.11336360901496467,1.7559999999939464
-0.1823,1.0077,0.0372,0.1791,0.1654,-0.0382,-0.8313,-0.9625,-4.8913,2.3617241390863484,-10.358166278364198,0.11490500242341367,1.7659999999887077
-0.183,1.0124,0.0447,0.1817,0.167,-0.0391,-0.8313,-0.9625,-5.5825,2.4199390653118495,-10.325812735019102,0.11375595239917953,1.7659999999887077
-0.1781,1.0112,0.0456,0.1817,0.167,-0.0391,-0.49,-1.6625,-5.5825,2.4465964290687454,-10.233726631111228,0.10836342237122498,1.775999999998021
-0.1781,1.0112,0.0456,0.1808,0.1678,-0.0277,-0.665,-1.68,-6.0025,2.4833002922728755,-10.21963979003804,0.10285156764983254,1.7859999999927823
-0.1786,1.0116,0.0383,0.1808,0.1678,-0.0277,-0.9625,-1.4963,-5.7663,2.3569654130732176,-10.187330684815391,0.09921346147090385,1.7960000000020955
-0.182,1.0113,0.0447,0.1808,0.1678,-0.0334,-0.9625,-1.4963,-5.7663,2.4266910875494747,-10.188090228569783,0.0956117363575619,1.8059999999968568
-0.1771,1.0075,0.0442,0.1843,0.1682,-0.0334,-1.1812,-1.7938,-5.7137,2.46682189496508,-10.14545592434545,0.09465561899398628,1.8059999999968568
-0.1766,1.0088,0.0433,0.1843,0.1682,-0.0334,-0.8925,-1.6975,-5.4425,2.4634248285238427,-10.070357193346311,0.08910759229976098,1.81600000000617
-0.1785,1.0101,0.0425,0.181,0.1683,-0.0375,-0.7525,-2.0387,-5.2937,2.446388126972386,-10.04771308409136,0.08023716589255499,1.8259999999863794
-0.1785,1.0101,0.0425,0.181,0.1683,-0.0375,-0.7525,-2.0387,-5.2937,2.4347141398892647,-10.033991610212599,0.0714554437261981,1.8359999999956926
-0.1763,1.012,0.0464,0.1806,0.169,-0.0343,-0.5425,-1.855,-5.2675,2.472727181855752,-9.968677400359086,0.06458016879216352,1.845999999990454
-0.1757,1.0086,0.0398,0.1806,0.169,-0.0343,-0.945,-2.0825,-4.8125,2.3886829378507777,-9.918596750553641,0.06393436710424188,1.845999999990454
-0.1764,1.014,0.0451,0.1806,0.169,-0.0343,-0.7525,-2.1175,-4.5325,2.438417647785477,-9.88378002699868,0.05453555292504158,1.8559999999997672
-0.1745,1.0115,0.0407,0.1786,0.1658,-0.0262,-0.7525,-2.1175,-4.5325,2.3961639924583222,-9.82323293312729,0.04523072690037998,1.8659999999945285
-0.1745,1.0115,0.0407,0.1786,0.1658,-0.0262,0.0525,-1.7938,-4.6988,2.3725384500096047,-9.79944255341937,0.03811261103001818,1.8779999999969732
-0.1759,1.0095,0.0408,0.1806,0.1667,-0.0385,-0.3413,-1.6975,-5.0925,2.3698668930616456,-9.834809142445414,0.03405030851896805,1.885999999998603
-0.1788,1.0101,0.044,0.1806,0.1667,-0.0385,0.4725,-1.3125,-5.0662,2.423794280240192,-9.925469104924721,0.03307782903364962,1.8940000000002328
-0.1811,1.0085,0.0431,0.1806,0.1667,-0.0385,0.4725,-1.3125,-5.0662,2.433920080634786,-10.040345559871874,0.032431062543248755,1.8980000000010477
-0.1817,1.0099,0.0404,0.1834,0.1673,-0.0297,0.5337,-1.6888,-4.76,2.369160105347569,-10.122282015238687,0.02759141142018172,1.907999999995809
-0.1817,1.0102,0.0413,0.1834,0.1673,-0.0297,0.4638,-2.1788,-4.9612,2.357079412309896,-10.154939579447102,0.017949156810886643,1.9179999999905704
-0.1817,1.0102,0.0413,0.1794,0.1668,-0.0367,0.4638,-2.2138,-4.6287,2.3502033764599877,-10.173817135442837,0.017769665242777778,1.9179999999905704
-0.1783,1.0125,0.0445,0.1794,0.1668,-0.0367,0.5863,-2.2138,-4.6287,2.428047950704294,-10.062508040152276,0.007879128081304218,1.9279999999998836
-0.1801,1.0115,0.0388,0.1794,0.1668,-0.0367,0.7525,-2.1,-4.4363,2.309806444790429,-10.07818483125768,-0.0007858836950107658,1.937999999994645
-0.18,1.0137,0.0401,0.1793,0.1673,-0.0351,0.6825,-2.6163,-4.2875,2.2878418037751147,-10.067594400209437,-0.014475615350884909,1.9479999999894062
-0.1811,1.0152,0.0393,0.1793,0.1673,-0.0351,0.6825,-2.6163,-4.2875,2.2528101857790723,-10.092228399354843,-0.02802844971013293,1.9579999999987194
-0.1811,1.0152,0.0393,0.1807,0.1666,-0.0418,0.7613,-2.7037,-4.41,2.2343811679697327,-10.101230980514751,-0.027748165213031598,1.9579999999987194
-0.1771,1.0148,0.0334,0.1807,0.1666,-0.0418,0.7,-3.3338,-4.5675,2.060337405587268,-9.981287178018977,-0.04827152408027357,1.9680000000080327
-0.1763,1.0164,0.0357,0.1807,0.1666,-0.0406,1.0237,-3.4825,-4.445,2.0326522408717174,-9.893181563574926,-0.0700617793278027,1.978000000002794
-0.1764,1.0134,0.0381,0.1801,0.1639,-0.0406,1.0237,-3.4825,-4.445,2.101106154705412,-9.877814195809176,-0.09163413202285656,1.9879999999975553
-0.1738,1.0164,0.0342,0.1801,0.1639,-0.0406,0.595,-3.3075,-4.6287,2.019291490981806,-9.775719822887043,-0.11125826119186748,1.9979999999923166
-0.1723,1.0193,0.0352,0.1798,0.1667,-0.0338,0.805,-3.3163,-4.9175,1.9975953864141835,-9.681055963577453,-0.11014567857994881,1.9979999999923166
-0.1723,1.0193,0.0352,0.1798,0.1667,-0.0338,0.6737,-3.5612,-5.0925,1.987883316408343,-9.638643752727935,-0.13209632231561824,2.00800000000163
-0.1707,1.0159,0.0378,0.1802,0.1671,-0.0462,0.6737,-3.5612,-5.0925,2.05818582401824,-9.589480322385832,-0.15382745958038577,2.017999999996391
-0.1704,1.0135,0.0343,0.1802,0.1671,-0.0462,0.9187,-3.3338,-5.1275,1.9925175232547594,-9.566580262950527,-0.1730900255039542,2.0280000000057044
-0.1753,1.0138,0.0345,0.1802,0.1671,-0.0462,0.3237,-3.4825,-5.3375,1.9759325728215416,-9.656459283466997,-0.19363209573724655,2.0380000000004657
-0.172,1.0157,0.0373,0.181,0.1666,-0.0403,0.2013,-3.29,-5.7488,2.018023138279167,-9.648057604987597,-0.19169577477987407,2.0380000000004657
-0.172,1.0157,0.0373,0.181,0.1666,-0.0403,0.2013,-3.29,-5.7488,2.046188157686355,-9.641027899975915,-0.21014603755104377,2.048000000009779
-0.1694,1.0141,0.0353,0.1794,0.1671,-0.0383,-0.0962,-3.4388,-5.32,2.0375384044818254,-9.578295456468737,-0.22988491763230998,2.0579999999899883
-0.1726,1.0128,0.0342,0.1794,0.1671,-0.0383,-0.1575,-3.185,-5.7312,2.0251748059357504,-9.59367375887833,-0.24691378897398722,2.0679999999993015
-0.1688,1.0139,0.0371,0.1794,0.1671,-0.0383,0.175,-3.2812,-5.5213,2.047629525529104,-9.549810698877584,-0.26472475157362324,2.077999999994063
-0.1711,1.0152,0.0347,0.1794,0.1657,-0.0414,0.175,-3.2812,-5.5213,2.018933486358654,-9.55317775960361,-0.262077504057887,2.077999999994063
-0.1704,1.0166,0.0348,0.1794,0.1657,-0.0414,0.35,-3.1412,-5.9062,1.9960895306203292,-9.551601080323966,-0.2783508295349046,2.088000000003376
-0.1704,1.0166,0.0348,0.1797,0.1671,-0.0375,0.6388,-2.4588,-5.7925,1.978955254960529,-9.546109613165504,-0.2877056617331966,2.0979999999981374
-0.172,1.0151,0.0376,0.1797,0.1671,-0.0375,0.6388,-2.4588,-5.7137,2.0476223009412187,-9.558155951621385,-0.29696694562716935,2.1080000000074506
-0.1713,1.0153,0.0375,0.1797,0.1671,-0.0375,-0.21,-2.5638,-5.7137,2.052812704417198,-9.560423169004682,-0.30717511664481795,2.11799999998766
-0.1734,1.0184,0.0357,0.1825,0.1658,-0.0289,-0.385,-2.38,-5.5563,2.049015186979081,-9.58743081491886,-0.30410336547836975,2.11799999998766
-0.1721,1.0172,0.0355,0.1825,0.1658,-0.0289,-0.1225,-2.1875,-5.4687,2.0416953474591044,-9.590576561843235,-0.3105148023323893,2.127999999996973
-0.1721,1.0172,0.0355,0.1803,0.1674,-0.0419,-0.1225,-2.1875,-5.4687,2.0354424252900647,-9.592708884190346,-0.3168621248041136,2.1379999999917345
-0.1736,1.0161,0.0347,0.1803,0.1674,-0.0419,-0.2625,-2.3975,-5.5738,2.0330787094536213,-9.618937409837896,-0.32522497406681194,2.1480000000010477
-0.1753,1.015,0.0392,0.1803,0.1674,-0.0348,-0.1225,-2.1962,-5.4862,2.059114485895959,-9.673186332709728,-0.33151132482114687,2.157999999995809
-0.1753,1.0133,0.0421,0.1807,0.1669,-0.0348,-0.2537,-2.0563,-5.005,2.071252898837215,-9.737830286130745,-0.3281962115729354,2.157999999995809
-0.1718,1.0131,0.0339,0.1807,0.1669,-0.0348,-0.2537,-2.0563,-5.005,2.0653827556996447,-9.680425738125091,-0.3330678399647996,2.1680000000051223
-0.1734,1.0106,0.0354,0.1795,0.1656,-0.0421,0.0,-2.3888,-5.0925,2.051961762016831,-9.703326576467765,-0.34118250205915573,2.1779999999998836
-0.1734,1.0106,0.0354,0.1795,0.1656,-0.0421,-0.84,-2.4062,-4.8475,2.0357749742807165,-9.717393229453169,-0.3493882775324781,2.187999999994645
-0.1724,1.0129,0.037,0.179,0.1674,-0.0359,-0.5163,-2.5725,-4.8212,2.046036144231482,-9.683391843176848,-0.3591583652502047,2.197999999989406
-0.1725,1.0135,0.0402,0.179,0.1674,-0.0359,-0.5163,-2.5725,-4.8212,2.0871582583245796,-9.666715175819894,-0.35556678159770266,2.197999999989406
-0.1704,1.015,0.0383,0.179,0.1674,-0.0359,-0.175,-1.9863,-5.04,2.0949565939227126,-9.598669184754565,-0.35947170428867387,2.2079999999987194
-0.1719,1.0146,0.0389,0.1806,0.1661,-0.0342,-0.3762,-1.89,-5.1188,2.1026805190236333,-9.603417073304916,-0.3623842077423782,2.2179999999934807
-0.1719,1.0146,0.0389,0.1806,0.1661,-0.0342,-0.4638,-2.1875,-5.04,2.11623576428006,-9.606148889971626,-0.36821283617375766,2.228000000002794
-0.1734,1.0174,0.0367,0.1795,0.1663,-0.0342,-0.4638,-2.1875,-5.04,2.1088968746932526,-9.634597346783373,-0.37398317830706823,2.2379999999975553
-0.1705,1.0143,0.0429,0.1795,0.1663,-0.0342,-0.35,-2.3012,-4.865,2.1257399192255724,-9.582196488945556,-0.37024334652399754,2.2379999999975553
-0.1686,1.0135,0.041,0.1795,0.1663,-0.0342,-0.0787,-1.9688,-4.795,2.1594346322759903,-9.504738480314918,-0.37382825356554444,2.2480000000068685
-0.1716,1.0121,0.0384,0.181,0.1679,-0.0429,-0.6388,-2.1088,-5.1625,2.162871001364293,-9.553593091093951,-0.3787633115127239,2.257999999987078
-0.1872,1.0131,0.0455,0.181,0.1679,-0.0429,-0.6388,-2.1088,-5.1625,2.26784379557985,-9.950625990933137,-0.3836490189056743,2.267999999996391
-0.1728,1.0131,0.0455,0.1814,0.1666,-0.0374,-0.5512,-2.2662,-5.1537,2.3301380550258557,-9.826739746220289,-0.3798125287166176,2.267999999996391
-0.1707,1.0099,0.0386,0.1814,0.1666,-0.0374,-0.4725,-2.1613,-5.145,2.30865252479206,-9.720248863300485,-0.38520749392463544,2.2779999999911524
-0.1726,1.0105,0.0351,0.1814,0.1666,-0.0374,-0.4725,-2.1613,-5.1712,2.2600945551559257,-9.70585156174111,-0.3905485094939508,2.2880000000004657
-0.1698,1.0113,0.0411,0.1798,0.1671,-0.0301,-0.1138,-1.7938,-5.1712,2.2703081455721836,-9.626361037595212,-0.39219786489610126,2.297999999995227
-0.1727,1.0111,0.0356,0.1798,0.1671,-0.0301,0.1488,-2.2925,-5.4075,2.19252142671966,-9.647507955511294,-0.3987678567569117,2.30800000000454
-0.1727,1.0111,0.0356,0.1794,0.1655,-0.0398,0.3413,-2.2575,-5.3113,2.1241977787896844,-9.662782956455722,-0.3947801781893426,2.30800000000454
-0.1714,1.0096,0.039,0.1794,0.1655,-0.0398,0.3413,-2.2575,-5.3113,2.158352454374883,-9.649382647288453,-0.4009778469021342,2.3179999999993015
-0.1685,1.0113,0.0379,0.1794,0.1655,-0.0398,0.5337,-2.6425,-5.7575,2.152871114337519,-9.618526538164513,-0.41092503892580123,2.327999999994063
-0.169,1.0133,0.0395,0.18,0.1658,-0.0333,0.385,-2.2925,-5.6788,2.1849874322203986,-9.585653852217103,-0.41730775903104683,2.337999999988824
-0.1695,1.0124,0.0356,0.18,0.1658,-0.0333,0.3413,-2.1788,-5.46,2.118583950222637,-9.557318120449985,-0.42250102194945943,2.3479999999981374
-0.1695,1.0098,0.0383,0.1804,0.1657,-0.0393,0.3413,-2.1788,-5.46,2.1393533108716705,-9.54574629749885,-0.4182760117299648,2.3479999999981374
-0.169,1.0098,0.0383,0.1804,0.1657,-0.0393,0.2887,-2.135,-5.355,2.151394693508586,-9.526662375312572,-0.4230259721079856,2.3579999999928987
-0.1684,1.013,0.0378,0.1798,0.1668,-0.0427,0.3413,-1.9688,-5.1975,2.145805299794314,-9.486213806191811,-0.42608305289369264,2.368000000002212
-0.1697,1.0146,0.0378,0.1798,0.1668,-0.0427,-0.3762,-1.96,-4.97,2.1448713078838355,-9.487501137919066,-0.42902244286098373,2.377999999996973
-0.1688,1.0118,0.0404,0.1798,0.1668,-0.0427,-0.3762,-1.96,-4.97,2.1557374175504793,-9.4759548911501,-0.43193243892860195,2.3879999999917345
-0.1737,1.0074,0.0356,0.1787,0.1649,-0.0378,-0.035,-2.0563,-4.6287,2.1286895462043427,-9.646970220716083,-0.42761311453931594,2.3879999999917345
-0.1737,1.0074,0.0356,0.1787,0.1649,-0.0378,0.1838,-2.4325,-4.865,2.0948524927343017,-9.714451226597307,-0.43521495388770026,2.397999999986496
-0.1768,1.0105,0.0365,0.18,0.1655,-0.0388,0.3237,-2.38,-5.1275,2.0848622850202374,-9.80587203753789,-0.4422210248594014,2.407999999995809
-0.1724,1.0105,0.0362,0.18,0.1655,-0.0388,0.3237,-2.38,-5.1275,2.0722023319117064,-9.747426851956698,-0.44915703510485716,2.4179999999905704
-0.1753,1.0142,0.0347,0.18,0.1655,-0.0388,0.4375,-2.7387,-5.4687,2.0246486482607295,-9.76462393412574,-0.459574815267694,2.4279999999998836
-0.1743,1.0179,0.0351,0.1787,0.1645,-0.0394,0.84,-2.5375,-5.9675,1.9982400012795256,-9.763394202028458,-0.45497906711501707,2.4279999999998836
-0.1743,1.0211,0.0331,0.1787,0.1645,-0.0394,0.84,-2.975,-5.7925,1.9230273203152524,-9.752678860775024,-0.4676779969348308,2.437999999994645
-0.1715,1.0211,0.0331,0.1797,0.1651,-0.0372,0.385,-2.975,-5.7925,1.8962048549691142,-9.723291881126551,-0.48024993748154665,2.448000000003958
-0.1726,1.0206,0.0324,0.1797,0.1651,-0.0372,0.9712,-2.8263,-6.1075,1.8527069575664679,-9.705131339383833,-0.4912240285984663,2.4579999999987194
-0.1723,1.0207,0.0348,0.1797,0.1651,-0.0372,0.5425,-3.0363,-5.88,1.8982265794298974,-9.697371668199029,-0.5041673788031277,2.4679999999934807
-0.1721,1.0171,0.0339,0.1792,0.1643,-0.0392,0.5425,-3.0363,-5.88,1.9031149377559724,-9.69143482939566,-0.4991257050150964,2.4679999999934807
-0.1762,1.0165,0.0337,0.1792,0.1643,-0.0392,-0.14,-2.8,-6.0375,1.9025459447274369,-9.703169771404653,-0.509650668456817,2.477999999988242
-0.1762,1.0165,0.0337,0.1801,0.1663,-0.0402,-0.2975,-2.7825,-6.0988,1.9025297661765488,-9.719991190880654,-0.519897132286538,2.4879999999975553
-0.1712,1.0153,0.0321,0.1801,0.1663,-0.0402,0.0,-3.1237,-5.6525,1.8817535488571346,-9.685349069881688,-0.5334190114811078,2.4980000000068685
-0.1726,1.0164,0.0324,0.1801,0.1663,-0.0402,0.0,-3.1237,-5.6525,1.8690725717943357,-9.673521813301065,-0.5468056718564894,2.50800000000163
-0.1724,1.0153,0.033,0.1804,0.1658,-0.038,-0.0088,-3.0888,-5.145,1.8674210799541546,-9.655094052322955,-0.5413376151379246,2.50800000000163
-0.1693,1.0139,0.0329,0.1804,0.1658,-0.038,-0.2975,-2.3625,-5.3113,1.8673823959936329,-9.585243128711932,-0.5471092094806858,2.517999999996391
-0.1693,1.0142,0.0365,0.1799,0.1662,-0.0412,0.0,-2.205,-5.2762,1.9113002921895688,-9.539484247222324,-0.5512638378808362,2.5279999999911524
-0.1676,1.0142,0.0365,0.1799,0.1662,-0.0412,0.0,-2.205,-5.2762,1.945262846676434,-9.474648607927273,-0.5553769200109925,2.5380000000004657
-0.1693,1.0111,0.0335,0.1782,0.1665,-0.0384,-0.2275,-2.4675,-5.0487,1.9423301560854513,-9.486807167075307,-0.5620476213044785,2.547999999995227
-0.1674,1.013,0.0354,0.1782,0.1665,-0.0384,-0.4112,-2.1788,-5.1275,1.9485710207379001,-9.437811687594035,-0.5564271450914337,2.547999999995227
-0.1674,1.0127,0.0337,0.1782,0.1665,-0.0384,-0.63,-1.9688,-5.0925,1.9378311143270794,-9.411709996919159,-0.5581502141473061,2.55800000000454
-0.1689,1.0092,0.0375,0.1795,0.1652,-0.0422,-0.63,-1.9688,-5.0925,1.9857574824220277,-9.44980812128365,-0.5598560525020154,2.5679999999993015
-0.1689,1.0092,0.0375,0.1795,0.1652,-0.0422,-0.8487,-1.7938,-5.2413,2.0365686354085413,-9.468273382945974,-0.5598123324821687,2.5780000000086147
-0.1692,1.0121,0.0354,0.1802,0.1661,-0.0394,-0.7088,-1.5137,-5.1625,2.026772421475163,-9.475647438915109,-0.5569960596518415,2.587999999988824
-0.1656,1.0117,0.0365,0.1802,0.1661,-0.0394,-1.0762,-1.295,-5.1887,2.0440942596386105,-9.39579927540496,-0.5514260990553231,2.587999999988824
-0.1673,1.0143,0.0331,0.1802,0.1661,-0.0394,-1.0762,-1.295,-5.1887,1.967237354644786,-9.380919494767186,-0.5465285585653443,2.5979999999981374
-0.1659,1.0152,0.037,0.1789,0.1661,-0.042,-0.5163,-1.085,-5.3375,1.989139505788445,-9.34091989411287,-0.538869853729776,2.6129999999975553
-0.1659,1.0137,0.0312,0.1789,0.1661,-0.042,-0.595,-0.6475,-5.46,1.9366828564473386,-9.32437435707232,-0.5288463315915339,2.620999999999185
-0.1647,1.0137,0.0312,0.1799,0.1653,-0.036,-0.595,-0.6475,-5.5475,1.8963896409485104,-9.295919280133239,-0.5229785153233928,2.622000000003027
-0.1651,1.0149,0.0333,0.1799,0.1653,-0.036,-0.98,-0.6562,-5.5475,1.8894163748251516,-9.278576606464332,-0.5120413306731487,2.631999999997788
-0.1649,1.0167,0.0359,0.1799,0.1653,-0.036,-1.4787,-0.7875,-4.8825,1.9614952891980302,-9.241731181357972,-0.5025133878687262,2.6419999999925494
-0.1642,1.0148,0.032,0.1781,0.165,-0.0332,-0.9363,-0.9975,-4.7425,1.9006807943846584,-9.211650179114661,-0.49515972449125883,2.6519999999873107
-0.1668,1.0157,0.0362,0.1781,0.165,-0.0332,-0.9363,-0.9975,-4.7425,1.9556763996853688,-9.270867895867168,-0.4902081272463462,2.6519999999873107
-0.1668,1.0157,0.0362,0.1777,0.1655,-0.0312,-1.0412,-0.9887,-4.095,1.9922682690589224,-9.302855467672682,-0.482890396471633,2.661999999996624
-0.167,1.0142,0.033,0.1777,0.1655,-0.0312,-1.3737,-1.4175,-4.4538,1.9254584633224274,-9.328471640979497,-0.4798909630059583,2.6719999999913853
-0.1646,1.0163,0.0346,0.1777,0.1655,-0.0312,-1.68,-1.1638,-4.7863,1.9396515616619017,-9.256594629152708,-0.4744098938752634,2.6820000000006985
-0.1654,1.0196,0.0371,0.1778,0.1646,-0.0365,-1.68,-1.1638,-4.7863,2.0234611442712125,-9.230678928397664,-0.4689836354368681,2.69199999999546
-0.1622,1.0174,0.0371,0.1778,0.1646,-0.0365,-1.8025,-1.4438,-4.4887,2.0625178268723294,-9.124945383364599,-0.4642937990824994,2.69199999999546
-0.1622,1.0172,0.0357,0.1775,0.1653,-0.0318,-1.6888,-1.4,-4.8562,2.031949508211358,-9.0882292923712,-0.46130708159321687,2.702000000004773
-0.1604,1.0172,0.0357,0.1775,0.1653,-0.0318,-2.065,-0.9712,-4.9437,2.0179488924340916,-9.021921747541564,-0.4541051112824083,2.7119999999849824
-0.1576,1.0155,0.0425,0.1781,0.1668,-0.0288,-2.065,-0.9712,-4.9437,2.2599342343468574,-8.917956993555661,-0.44697516066717313,2.7219999999942956
-0.1584,1.0141,0.0399,0.1781,0.1668,-0.0288,-2.4413,-1.0938,-5.18,2.2553074092406007,-8.897609154998067,-0.4411302495612218,2.731999999989057
-0.1598,1.0138,0.0417,0.1781,0.1668,-0.0288,-1.7413,-1.0325,-5.4338,2.314505722316968,-8.915338132629604,-0.4367189470656096,2.731999999989057
-0.1598,1.0111,0.0434,0.18,0.1644,-0.0409,-1.4088,-0.8925,-5.845,2.390085654426099,-8.920525273868984,-0.42561569859358117,2.7519999999931315
-0.1598,1.0111,0.0434,0.18,0.1644,-0.0409,-1.4088,-0.8925,-5.845,2.4258094794733203,-8.925245285042541,-0.41799151210450863,2.7620000000024447
-0.161,1.0085,0.0403,0.1785,0.1635,-0.0344,-1.295,-0.735,-6.02,2.3570110076473973,-8.934994565173147,-0.41381159698346354,2.7620000000024447
-0.1651,1.0091,0.0457,0.1785,0.1635,-0.0344,-1.155,-0.42,-6.0462,2.4662669266558725,-8.96723055954887,-0.4016277015178438,2.771999999997206
-0.1675,1.0085,0.0471,0.1785,0.1635,-0.0344,-1.155,-0.315,-6.09,2.5624016115071684,-9.024923068977454,-0.3885261450074249,2.7819999999919673
-0.1701,1.0082,0.0436,0.1782,0.1633,-0.0304,-0.3413,-0.315,-6.09,2.558441493489603,-9.094096216475966,-0.3755556040488893,2.7920000000012806
-0.1701,1.0086,0.0449,0.1782,0.1633,-0.0304,-0.035,-0.6475,-6.3263,2.556496611441561,-9.22393552273949,-0.3660065185114355,2.801999999996042
-0.1715,1.0086,0.0449,0.1787,0.1649,-0.0356,0.1488,-0.6913,-6.685,2.554187381948049,-9.401353915677598,-0.36234645332632115,2.801999999996042
-0.1726,1.0112,0.0404,0.1787,0.1649,-0.0356,0.1488,-0.6913,-6.685,2.4725730214224577,-9.519440222703542,-0.3533630792958658,2.811999999990803
-0.1773,1.0163,0.0411,0.1787,0.1649,-0.0356,0.6037,-0.49,-6.6062,2.398462470039393,-9.666312937585753,-0.34247666899605933,2.8220000000001164
-0.1751,1.0144,0.0409,0.1786,0.1669,-0.0429,0.9275,-0.6913,-6.405,2.3492215559227785,-9.704007627136319,-0.3336919928011069,2.8320000000094296
-0.1774,1.0135,0.0423,0.1786,0.1669,-0.0429,0.945,-0.8313,-6.3,2.371747724311537,-9.760674844749838,-0.3263811633809604,2.841999999989639
-0.1774,1.0135,0.0423,0.1781,0.166,-0.0335,0.945,-0.8313,-6.3,2.3818124652260417,-9.802463842069606,-0.3231173517471508,2.841999999989639
-0.1765,1.0155,0.0364,0.1781,0.166,-0.0335,0.7262,-1.4963,-6.0988,2.215759314029066,-9.8093265639602,-0.32249576873210967,2.8519999999989523
-0.1738,1.0171,0.0407,0.1781,0.166,-0.0335,0.525,-1.8288,-5.8713,2.2498458315187393,-9.801196901932624,-0.32517215154169704,2.8619999999937136
-0.1746,1.0149,0.0376,0.1792,0.1663,-0.0452,0.7088,-1.5137,-5.3987,2.1857226571710666,-9.784845435822534,-0.32470228052887085,2.872000000003027
-0.1728,1.0153,0.0368,0.1792,0.1663,-0.0452,0.7088,-1.5137,-5.3987,2.130709580303098,-9.738230471334452,-0.32145525772358213,2.872000000003027
-0.1728,0.9997,0.0413,0.1784,0.1646,-0.0346,0.9363,-1.8725,-5.32,2.26028533015071,-9.761419724674312,-0.32457467564302817,2.881999999997788
-0.1717,1.0136,0.0413,0.1784,0.1646,-0.0346,0.0875,-1.9775,-5.1188,2.2804079326557325,-9.69142338989204,-0.32870239939346496,2.8920000000071013
-0.1716,1.012,0.0345,0.1767,0.1656,-0.0326,0.3063,-2.4413,-5.0838,2.1575192707201967,-9.657632759977146,-0.33738046589326215,2.9020000000018626
-0.1729,1.0142,0.0369,0.1767,0.1656,-0.0326,0.3063,-2.4413,-5.0838,2.1298511962185085,-9.66263553301092,-0.3459717517280614,2.911999999996624
-0.1685,1.0135,0.0389,0.1767,0.1656,-0.0326,0.245,-2.5287,-5.0138,2.1537072171666893,-9.551770197449223,-0.34251203421078075,2.911999999996624
-0.1678,1.013,0.0362,0.1782,0.1655,-0.0384,0.7175,-2.485,-5.2238,2.0998800828670325,-9.488043130863428,-0.35148463436217814,2.9219999999913853
-0.1678,1.013,0.0362,0.1782,0.1655,-0.0384,0.4988,-1.8988,-4.865,2.07634177715325,-9.442117950779862,-0.3545641285246978,2.9320000000006985
-0.1697,1.0139,0.0348,0.1798,0.1639,-0.0361,0.4988,-1.8988,-4.865,2.027482706505718,-9.47020279831077,-0.35761282773599623,2.94199999999546
-0.1651,1.0146,0.035,0.1798,0.1639,-0.0361,0.1225,-2.1525,-4.6725,2.0122828668072748,-9.339667748719563,-0.36314266996711686,2.952000000004773
-0.1673,1.0138,0.0366,0.1798,0.1639,-0.0361,-0.1225,-2.3975,-4.8125,2.0203431800153098,-9.352933568872063,-0.3595112432674457,2.952000000004773
-0.1657,1.0141,0.0379,0.1795,0.1661,-0.0346,-0.1225,-2.3975,-5.3637,2.037830829157555,-9.323780678300722,-0.3674476013287303,2.9619999999995343
-0.1657,1.0153,0.0368,0.1795,0.1661,-0.0346,-0.035,-1.9775,-5.3637,2.0456213498042963,-9.301516280763028,-0.37114659582231,2.9720000000088476
-0.1664,1.0153,0.0368,0.1777,0.1658,-0.0362,-0.735,-1.6363,-5.39,2.054870535628635,-9.301544967964888,-0.3714307203561794,2.981999999989057
-0.163,1.0118,0.0311,0.1777,0.1658,-0.0362,-0.7088,-1.7062,-5.9325,1.9684553861025251,-9.299797473239455,-0.3724040136569833,2.99199999999837
-0.1669,1.0136,0.0334,0.1777,0.1658,-0.0362,-0.7088,-1.7062,-5.9325,1.9446320323923736,-9.300315322049316,-0.3733675740179577,3.0019999999931315
-0.1634,1.0124,0.0346,0.1776,0.1647,-0.0362,-0.9013,-1.6538,-5.8713,1.9494571821481825,-9.29102221085485,-0.36963389827777815,3.0019999999931315
-0.1638,1.0114,0.0351,0.1776,0.1647,-0.0362,-0.5688,-1.4525,-5.9588,1.95770335667034,-9.289603470241516,-0.3681135297970269,3.0120000000024447
-0.1638,1.0114,0.0351,0.1778,0.1636,-0.0329,-0.5775,-1.1988,-5.9938,1.964326367754016,-9.285063094487493,-0.36409673499923245,3.021999999997206
-0.1694,1.0136,0.037,0.1778,0.1636,-0.0329,-0.5775,-1.1988,-5.9938,1.992278235876934,-9.294400880262867,-0.36012010814892753,3.0320000000065193
-0.1647,1.0122,0.0396,0.1778,0.1636,-0.0329,-0.665,-0.8575,-5.8713,2.0595427745746844,-9.290372551668248,-0.3565189070674383,3.0320000000065193
-0.165,1.0128,0.0384,0.178,0.1633,-0.0309,-0.455,-0.6737,-5.67,2.0751145160490334,-9.280938745005738,-0.34741956850771627,3.0419999999867287
-0.1684,1.0151,0.0342,0.178,0.1633,-0.0309,-0.1488,-0.805,-5.6962,2.0567663508009693,-9.307370907305788,-0.33971109331869564,3.051999999996042
-0.1684,1.0151,0.0384,0.1791,0.1642,-0.0334,-0.1488,-0.805,-5.6962,2.070593366419265,-9.328283197126254,-0.33207970288772687,3.061999999990803
-0.1666,1.0158,0.0384,0.1791,0.1642,-0.0334,-0.0088,-0.77,-6.0462,2.0914723365344456,-9.32636025381413,-0.3241781263545834,3.0720000000001164
-0.1657,1.0136,0.0354,0.1775,0.1647,-0.0353,-0.3413,-0.6475,-6.0287,2.0872795362715775,-9.32264837265086,-0.3209363450910375,3.0720000000001164
-0.1703,1.0164,0.0359,0.1775,0.1647,-0.0353,-0.0962,-0.84,-5.8187,2.0766854425336705,-9.343043857679527,-0.3138392021421638,3.0819999999948777
-0.1692,1.0167,0.0385,0.1775,0.1647,-0.0353,-0.0962,-0.84,-5.8187,2.091810863739146,-9.35405642684773,-0.3068130306171214,3.092000000004191
-0.1693,1.016,0.0392,0.1776,0.1656,-0.0362,-0.1488,-0.5075,-5.8012,2.106657887104838,-9.366490895910081,-0.2965653708147113,3.1019999999989523
-0.1693,1.016,0.0392,0.1776,0.1656,-0.0362,-0.525,-1.1812,-5.7488,2.1260210389892302,-9.380713398631478,-0.2930898176068313,3.1119999999937136
-0.1706,1.016,0.0362,0.1783,0.1635,-0.0314,-1.1988,-0.84,-6.0375,2.0854155297299037,-9.393129412364207,-0.2862711399327996,3.121999999988475
-0.1706,1.0169,0.0401,0.1783,0.1635,-0.0314,-1.1988,-0.84,-6.0375,2.167534971612322,-9.403661634717334,-0.28340842853347165,3.121999999988475
-0.1688,1.0155,0.0403,0.1783,0.1635,-0.0314,-0.5863,-0.7788,-5.9588,2.1913504217738238,-9.404051364155249,-0.27608068474395187,3.131999999997788
-0.1723,1.0153,0.0374,0.178,0.1651,-0.031,-0.3237,-1.0063,-5.635,2.188925703846013,-9.456234551291251,-0.2710784683976865,3.1419999999925494
-0.1723,1.0153,0.0411,0.178,0.1651,-0.031,-0.3237,-1.0063,-5.635,2.1927579251248877,-9.495786860421562,-0.2654538513655623,3.154999999984284
-0.1728,1.0151,0.0411,0.1778,0.165,-0.0345,-0.7525,-1.225,-5.635,2.2323574084127995,-9.532911103124075,-0.26274591720181256,3.161999999996624
-0.1684,1.0157,0.0403,0.1778,0.165,-0.0345,-0.6737,-1.2075,-5.95,2.2433231277238352,-9.532153548544569,-0.25999369327967825,3.1670000000012806
-0.1696,1.0141,0.0387,0.1778,0.165,-0.0345,-0.4375,-0.9538,-5.6,2.2360227011758025,-9.520752271814585,-0.25463259684832795,3.176999999996042
-0.1683,1.0133,0.0422,0.1779,0.1662,-0.0319,-0.4375,-0.9538,-5.6,2.2547882750158523,-9.495530882626442,-0.25208627087984464,3.176999999996042
-0.1677,1.0119,0.039,0.1779,0.1662,-0.0319,-0.2625,-1.0412,-5.2762,2.2533730520057813,-9.458530204127639,-0.24766950867203938,3.186999999990803
-0.1677,1.0119,0.039,0.177,0.1653,-0.0336,-0.2625,-1.19,-5.145,2.2519998849821437,-9.433921427071343,-0.24477003408492523,3.1970000000001164
-0.168,1.0119,0.039,0.177,0.1653,-0.0336,-0.455,-0.91,-4.7863,2.2457534149193523,-9.4262593680475,-0.23912755424574964,3.2069999999948777
-0.1678,1.0109,0.0393,0.177,0.1653,-0.0336,-0.455,-0.91,-4.7863,2.243046472533985,-9.421639272891973,-0.23354149920031675,3.217000000004191
-0.1654,1.0081,0.0437,0.1772,0.1652,-0.033,-0.2975,-0.9712,-4.6287,2.2440875352304945,-9.357635125699023,-0.23120608420831357,3.217000000004191
-0.1656,1.009,0.0361,0.1772,0.1652,-0.033,-0.0613,-0.9712,-4.5413,2.2073827258013297,-9.332511663858687,-0.22630512386758667,3.2269999999989523
-0.1656,1.009,0.0419,0.1762,0.1637,-0.0313,-0.0263,-1.12,-4.3663,2.243300964505124,-9.32030660102041,-0.22292629312787166,3.2370000000082655
-0.1645,1.0146,0.0419,0.1762,0.1637,-0.0313,-0.0263,-1.12,-4.3663,2.26889262194791,-9.247702038557781,-0.21958125069880113,3.246999999988475
-0.1624,1.012,0.0407,0.1762,0.1632,-0.0404,-0.4288,-0.98,-4.0338,2.272972707178457,-9.157010391126008,-0.2173854381918131,3.246999999988475
-0.161,1.0102,0.038,0.1772,0.1632,-0.0404,-1.1287,-0.6737,-3.7187,2.218924419490915,-9.082508871945707,-0.2096774343047409,3.256999999997788
-0.1623,1.0157,0.0422,0.1772,0.1632,-0.0404,-1.1113,-0.945,-3.92,2.29102081644918,-9.074752733051223,-0.2047323804631856,3.2669999999925494
-0.1632,1.0136,0.0466,0.1777,0.1632,-0.0301,-1.1113,-0.945,-3.92,2.444597876836221,-9.116561564919804,-0.19983677715590106,3.2770000000018626
-0.1632,1.0136,0.0466,0.1777,0.1632,-0.0301,-0.6737,-0.9187,-4.3313,2.496341853830169,-9.129312003810028,-0.19472975988597055,3.286999999996624
-0.1624,1.0098,0.0423,0.1762,0.1642,-0.0374,0.0613,-0.8138,-4.0163,2.47078781332498,-9.128731010679726,-0.19278246228711085,3.286999999996624
-0.1646,1.008,0.0416,0.1762,0.1642,-0.0374,0.0613,-0.8138,-4.5588,2.4426463962756433,-9.208700208951617,-0.18670747816037742,3.297000000005937
-0.1654,1.0079,0.04,0.1762,0.1642,-0.0374,0.2887,-1.1375,-4.5588,2.380127567892311,-9.268793094657639,-0.18389787387926737,3.3070000000006985
-0.1663,1.0093,0.0411,0.1762,0.1647,-0.0292,0.56,-2.1,-4.795,2.357911070513983,-9.311577274192803,-0.19064511563597664,3.31699999999546
-0.1663,1.0093,0.0411,0.1762,0.1647,-0.0292,1.9075,-2.3275,-4.9875,2.3400061137986734,-9.329781531710832,-0.19957713497393892,3.326999999990221
-0.1657,1.0113,0.0407,0.1751,0.163,-0.0362,1.9075,-2.3275,-4.9875,2.3156883990527892,-9.314122788737787,-0.20841983413429366,3.3369999999995343
-0.1611,1.012,0.0393,0.1751,0.163,-0.0362,2.3187,-2.8437,-5.6525,2.249317883883078,-9.251874090579312,-0.20633563579295072,3.3369999999995343
-0.1607,1.017,0.0359,0.1751,0.163,-0.0362,2.1875,-2.6163,-6.0988,2.087092753436162,-9.214589428061956,-0.21796986992784545,3.3469999999942956
-0.1589,1.0199,0.0377,0.1755,0.1634,-0.0373,1.9863,-2.6337,-6.1425,2.1078391710731776,-9.154116771553031,-0.22966002174148428,3.357000000003609
-0.1573,1.0208,0.0359,0.1755,0.1634,-0.0373,1.9863,-2.6337,-6.1425,2.042736996150674,-9.087963576441982,-0.24123327201680345,3.36699999999837
-0.1573,1.0208,0.0359,0.1773,0.1633,-0.0364,1.2775,-2.345,-6.09,2.025286659745734,-9.045504397076474,-0.2498326597908667,3.3769999999931315
-0.1609,1.0205,0.0354,0.1773,0.1633,-0.0364,0.9013,-2.1263,-6.5538,2.0043000844001804,-9.011084090070106,-0.25618092368832357,3.386999999987893
-0.1619,1.0207,0.0321,0.1773,0.1633,-0.0364,1.0588,-1.8025,-6.4138,1.8876131544772583,-9.010289104781549,-0.2536191144514403,3.386999999987893
-0.1602,1.0177,0.0354,0.1781,0.1644,-0.038,1.0588,-1.8025,-6.4138,1.9477264608712481,-8.987954874907773,-0.25672389381217947,3.396999999997206
-0.1629,1.0162,0.0304,0.1781,0.1644,-0.038,0.7437,-2.1263,-6.1163,1.8285026099783337,-9.004896448051028,-0.2630032453694232,3.4069999999919673
-0.1629,1.0162,0.0461,0.1782,0.165,-0.035,0.315,-1.7938,-5.5912,2.119285547513811,-9.029177650025174,-0.2659280534209023,3.4170000000012806
-0.162,1.0124,0.0319,0.1782,0.165,-0.035,-0.1575,-1.3038,-5.3637,2.0817210550179466,-9.050308958983331,-0.26326877288669326,3.4170000000012806
-0.1622,1.0116,0.0352,0.1782,0.1655,-0.0378,-0.1575,-1.3038,-5.3637,2.071110916976801,-9.069971185500878,-0.2613399256574576,3.426999999996042
-0.1631,1.0074,0.0351,0.1768,0.1655,-0.0378,0.2362,-1.12,-5.775,2.044941317723911,-9.08746751014475,-0.25761074689984387,3.437000000005355
-0.163,1.0099,0.038,0.1768,0.1655,-0.0378,0.5863,-0.7875,-5.6788,2.096383986251205,-9.10313419548975,-0.25062710993956816,3.4469999999855645
-0.1578,1.0116,0.0379,0.177,0.1625,-0.0303,0.2713,-0.6562,-5.6438,2.1141426610496676,-9.04700858262537,-0.24812083884017247,3.4469999999855645
-0.1578,1.0116,0.0379,0.177,0.1625,-0.0303,0.2713,-0.6562,-5.6438,2.125494213278351,-9.00384061289809,-0.23993223094645533,3.4569999999948777
-0.1596,1.0112,0.0344,0.1758,0.1626,-0.0326,0.1663,-0.5512,-5.5125,2.069742829754571,-8.991842185864218,-0.23078600914052524,3.466999999989639
-0.1584,1.0118,0.0365,0.1758,0.1626,-0.0326,0.035,-0.5075,-5.565,2.0688207356511845,-8.964374943266906,-0.22129861954243354,3.4769999999989523
-0.1574,1.0121,0.0331,0.1758,0.1626,-0.0326,0.035,-0.5075,-5.565,2.020478204505725,-8.928841397708771,-0.21190610385077033,3.4869999999937136
-0.1598,1.0127,0.0351,0.1761,0.1638,-0.0282,0.0437,-0.0525,-5.4687,2.0115559417587554,-8.9394632818249,-0.20978704281226263,3.4869999999937136
-0.1598,1.0127,0.0351,0.1761,0.1638,-0.0282,-0.0787,0.1138,-5.4862,2.0068788470254972,-8.946481389104576,-0.1943587728717251,3.497000000003027
-0.1594,1.0114,0.0354,0.1765,0.1625,-0.0361,0.1925,-0.1312,-5.3113,2.0061308609290966,-8.948210261767413,-0.18151028564872057,3.506999999997788
-0.1598,1.0088,0.0346,0.1765,0.1625,-0.0361,0.1925,-0.1312,-5.3113,1.9924801526940965,-8.966730370138116,-0.1687902832979461,3.5169999999925494
-0.1573,1.0137,0.0348,0.1765,0.1625,-0.0361,0.1488,-0.0962,-5.3987,1.9844176907473114,-8.913318523964147,-0.1558509809708609,3.5269999999873107
-0.1581,1.0139,0.034,0.1777,0.1643,-0.0404,0.1312,0.175,-4.9088,1.9654144509699945,-8.885182553674566,-0.15429247116115227,3.5269999999873107
-0.1617,1.0182,0.0359,0.1777,0.1643,-0.0404,-0.0613,-0.175,-5.1625,1.9755584535126252,-8.94355643404733,-0.1422782669397886,3.536999999996624
-0.1617,1.0182,0.0359,0.1754,0.1642,-0.037,-0.0613,-0.175,-5.1625,1.9837933781754473,-8.976323725052707,-0.13038420477587628,3.5469999999913853
-0.1581,1.0155,0.0353,0.1754,0.1642,-0.037,-0.07,-0.4288,-5.285,1.9850840469951434,-8.92372391352444,-0.12112170322070544,3.5570000000006985
-0.1608,1.0168,0.0357,0.1754,0.1642,-0.037,-0.0875,-0.4988,-5.4862,1.9894764353884073,-8.941732278976898,-0.11264482669230462,3.56699999999546
-0.1628,1.0138,0.0364,0.1758,0.1627,-0.0362,-0.7,-0.5512,-5.8625,2.0088003332308806,-8.954944420317968,-0.11151837842538158,3.56699999999546
-0.1602,1.0111,0.0338,0.1758,0.1627,-0.0362,-0.7,-0.5512,-5.8625,1.9815642169683265,-8.95820547478211,-0.10365629513484423,3.577000000004773
-0.1602,1.0111,0.0338,0.1774,0.1629,-0.0358,-0.63,-0.9275,-6.0637,1.964696264824493,-8.96248570515724,-0.09959820268947557,3.5869999999849824
-0.16,1.011,0.0342,0.1774,0.1629,-0.0358,-0.2013,-0.945,-6.37,1.96240530946395,-8.970090202541842,-0.09575394115992814,3.5969999999942956
-0.1589,1.0172,0.0362,0.1774,0.1834,-0.0352,-0.1312,-1.54,-6.2825,1.9729647190198145,-8.945552440624615,-0.09783862225116213,3.607000000003609
-0.1617,1.0161,0.0335,0.1745,0.164,-0.0352,-0.1312,-1.54,-6.2825,1.9611674262977437,-8.96875112162328,-0.09990245652705677,3.61699999999837
-0.16,1.016,0.0361,0.1745,0.164,-0.0352,-0.2013,-1.0938,-6.4662,1.9673727242096137,-8.960227304553243,-0.0989034319617862,3.61699999999837
-0.1579,1.014,0.0374,0.1765,0.1656,-0.0326,-0.5688,-1.715,-6.3525,1.9986955710623788,-8.926832794140925,-0.10268911813966701,3.6269999999931315
-0.1579,1.014,0.0374,0.1765,0.1656,-0.0326,-0.5688,-1.715,-6.6937,2.023249549121619,-8.891807361063904,-0.10643694746271715,3.6370000000024447
-0.1591,1.0111,0.0321,0.1757,0.1656,-0.0421,0.1138,-1.925,-6.6937,1.9639986187315586,-8.911570402999931,-0.11222629848449951,3.646999999997206
-0.1611,1.0135,0.0329,0.1757,0.1656,-0.0421,-0.1312,-1.505,-6.9825,1.9494034641482427,-8.970458643711916,-0.1137997559982423,3.6569999999919673
-0.161,1.0116,0.0349,0.1757,0.1656,-0.0421,0.2887,-0.9625,-6.9475,1.959152860328713,-9.004143600229101,-0.11266175843825987,3.6569999999919673
-0.1609,1.0126,0.0339,0.1751,0.1648,-0.0462,0.2887,-0.9625,-6.9475,1.9438107870310735,-9.013951027462026,-0.10886011135138596,3.6670000000012806
-0.1609,1.0126,0.0339,0.1751,0.1648,-0.0462,-0.245,-1.54,-6.475,1.9426000075168135,-9.017340719892061,-0.11081373073627836,3.676999999996042
-0.1615,1.0144,0.0346,0.1761,0.1644,-0.0383,-0.3413,-2.1175,-6.7725,1.9431025602807053,-9.027980597710178,-0.11846506393707346,3.687000000005355
-0.1606,1.0127,0.0326,0.1761,0.1644,-0.0383,-0.6037,-2.3625,-6.9388,1.9195659760042405,-9.017355043742011,-0.11728041329770272,3.687000000005355
-0.1645,1.0111,0.0368,0.1761,0.1644,-0.0383,-0.6037,-2.3625,-6.9388,1.958631632284774,-9.125751801049864,-0.12729257965886623,3.6970000000001164
-0.164,1.0122,0.0336,0.1777,0.1642,-0.0406,-0.1488,-1.995,-6.7112,1.9513927291003195,-9.157245995326472,-0.133566374369306,3.7070000000094296
-0.1609,1.0138,0.0315,0.1777,0.1642,-0.0406,-0.0962,-2.0213,-7.035,1.9231408352985429,-9.08245604077027,-0.1400378011101622,3.716999999989639
-0.1609,1.0138,0.0315,0.1771,0.1641,-0.0371,0.105,-2.275,-6.7725,1.8822884603863639,-9.051395250420669,-0.14895614360867063,3.7269999999989523
-0.1617,1.0118,0.0284,0.1771,0.1641,-0.0371,0.105,-2.275,-6.7725,1.8041261139168283,-9.0627167002495,-0.14746658217258393,3.7269999999989523
-0.1639,1.0102,0.0306,0.1771,0.1641,-0.0371,0.5337,-2.0825,-6.3787,1.7728474697882137,-9.10780015192463,-0.1544048868464508,3.7369999999937136
-0.1634,1.0117,0.0348,0.1774,0.1663,-0.0301,0.63,-1.5575,-6.3,1.867511014572539,-9.123947656863798,-0.15607630848098092,3.747000000003027
-0.1646,1.0136,0.0318,0.1774,0.1663,-0.0301,0.525,-1.5488,-6.195,1.8357685316097279,-9.14309508958842,-0.15764488589453174,3.756999999997788
-0.1646,1.0136,0.0318,0.177,0.1648,-0.0377,0.525,-1.5488,-6.195,1.8183096395945872,-9.158400399704085,-0.15919777753850084,3.7670000000071013
-0.1643,1.0143,0.0318,0.177,0.1648,-0.0377,0.1488,-1.8725,-6.2125,1.8113894210074797,-9.166490581269185,-0.15760579976311584,3.7670000000071013
-0.1673,1.0147,0.0331,0.177,0.1648,-0.042,0.6037,-1.54,-5.9237,1.8383221381611847,-9.170286982080539,-0.15907196226389095,3.7770000000018626
-0.1659,1.0152,0.033,0.1776,0.1653,-0.042,0.3762,-1.5662,-6.4662,1.847734088618012,-9.206623066799215,-0.16078284313952243,3.786999999996624
-0.1641,1.014,0.0257,0.1776,0.1653,-0.042,0.3762,-1.5662,-6.4662,1.6890060451429463,-9.200859152672974,-0.1624766152063976,3.7969999999913853
-0.167,1.0145,0.0307,0.1773,0.164,-0.0445,0.4025,-1.89,-6.44,1.707181965209636,-9.248187829219539,-0.16735906956039395,3.8070000000006985
-0.167,1.0145,0.0307,0.1773,0.164,-0.0445,0.805,-1.6363,-6.2213,1.7208573882876677,-9.268904065565389,-0.16968106936269683,3.81699999999546
-0.1648,1.0131,0.0301,0.1773,0.1638,-0.0433,0.805,-1.6363,-6.2213,1.7108841837802315,-9.261611674536388,-0.16798425866906985,3.81699999999546
-0.1638,1.0133,0.0291,0.1773,0.1638,-0.0433,-0.0875,-2.1175,-6.2913,1.6996422800561366,-9.240241458963833,-0.17506388659053704,3.827000000004773
-0.1662,1.0148,0.0304,0.1773,0.1638,-0.0433,-0.1663,-2.0912,-6.3787,1.7014694212876302,-9.257442326467249,-0.18181234822017925,3.8369999999995343
-0.1637,1.0146,0.0302,0.1771,0.163,-0.0361,-0.6825,-1.6975,-6.5712,1.7024392020964767,-9.220412905335122,-0.18459569523556688,3.8469999999942956
-0.1637,1.0146,0.0302,0.1771,0.163,-0.0361,-0.6825,-1.6975,-6.5712,1.7031372009843537,-9.197656825604557,-0.18735120878080064,3.856999999989057
-0.1642,1.0127,0.0319,0.1769,0.1651,-0.037,-0.1575,-1.575,-6.4925,1.7152091548656783,-9.200380878540434,-0.18547769669299263,3.856999999989057
-0.1613,1.0141,0.026,0.1769,0.1651,-0.037,0.0,-1.75,-6.4837,1.6593202868551717,-9.1422982147,-0.18874414023083222,3.86699999999837
-0.1618,1.0146,0.0345,0.1769,0.1651,-0.037,-0.4025,-1.6975,-6.685,1.6877328330792585,-9.105403189487339,-0.19145816932611331,3.8769999999931315
-0.1596,1.0131,0.0317,0.1787,0.1669,-0.0399,-0.4025,-1.6975,-6.685,1.6980328255290673,-9.038526400513478,-0.19414505813713764,3.8870000000024447
-0.1596,1.0136,0.0303,0.1787,0.1669,-0.0399,-0.9625,-1.7325,-6.825,1.7037369544402319,-8.994398130060844,-0.19220360755576626,3.8870000000024447
-0.1646,1.0136,0.0303,0.1775,0.165,-0.039,-0.8575,-1.435,-6.6062,1.706811260196163,-9.084190240311829,-0.19228429197915944,3.896999999997206
-0.1651,1.0128,0.0293,0.1775,0.165,-0.039,-1.1025,-1.3125,-6.825,1.6845687190687944,-9.164071549805008,-0.19115141956010356,3.9070000000065193
-0.1651,1.0134,0.031,0.1775,0.165,-0.039,-1.1025,-1.3125,-6.825,1.7147934429053364,-9.203806055836152,-0.19002987586293912,3.9169999999867287
-0.1678,1.0131,0.0365,0.1783,0.1644,-0.0348,-0.9625,-1.3825,-7.1487,1.8545598262199845,-9.310217790695585,-0.18961254760569085,3.926999999996042
-0.168,1.0133,0.0356,0.1783,0.1644,-0.0348,-1.1638,-1.4088,-7.2713,1.9278981084358247,-9.365995397307207,-0.18771642212963394,3.926999999996042
-0.168,1.0133,0.0356,0.1777,0.1644,-0.035,-1.19,-0.91,-6.8425,1.9677242608538794,-9.385883618303387,-0.18264447841001125,3.936999999990803
-0.165,1.0117,0.0332,0.1777,0.1644,-0.035,-1.19,-0.91,-6.8425,1.9260324927250527,-9.325369922337709,-0.17762325412293575,3.9470000000001164
-0.1701,1.015,0.0324,0.1777,0.1644,-0.035,-1.1988,-1.1638,-7.1925,1.8795984254050937,-9.427234271111162,-0.17516486208206375,3.9569999999948777
-0.1703,1.015,0.0316,0.179,0.1667,-0.0351,-0.5863,-1.4175,-7.4025,1.8577472346705717,-9.482285233297306,-0.17524268396294693,3.967000000004191
-0.1696,1.0151,0.0338,0.179,0.1667,-0.0351,-0.5863,-1.4175,-6.8863,1.8689325437562765,-9.481198271284207,-0.17349025712331745,3.967000000004191
-0.1696,1.0164,0.0346,0.1782,0.1657,-0.0359,-0.175,-1.2337,-6.8863,1.8774647402374425,-9.474749695552038,-0.17176520505207912,3.9769999999989523
-0.1701,1.0164,0.0346,0.1782,0.1657,-0.0359,-0.315,-1.2775,-6.79,1.8790107886954128,-9.484173075662794,-0.170491023501326,3.9869999999937136
-0.1718,1.0173,0.0333,0.1786,0.1658,-0.0366,-1.0325,-1.0938,-7.3412,1.877235240950564,-9.540340672444168,-0.16741095376703313,3.996999999988475
-0.1705,1.0172,0.0344,0.1786,0.1658,-0.0366,-1.0325,-1.0938,-7.3412,1.9026014187659994,-9.522630074505207,-0.16436168472808207,4.006999999997788
-0.1723,1.0157,0.0353,0.1786,0.1658,-0.0366,-1.0063,-1.4875,-6.9125,1.9391828675886993,-9.571576287111863,-0.16271806788080126,4.006999999997788
-0.1688,1.0155,0.0353,0.179,0.166,-0.0386,-0.9625,-1.4438,-7.035,1.9599073973050969,-9.498761797872193,-0.16318072770089845,4.016999999992549
-0.1688,1.0155,0.0353,0.179,0.166,-0.0386,-0.98,-1.435,-7.2275,1.9725143624445247,-9.461248960218215,-0.16355164092575464,4.027000000001863
-0.1705,1.0146,0.0337,0.1778,0.1645,-0.0372,-0.98,-1.435,-7.2275,1.9439579245800376,-9.502178596655472,-0.16391884501544793,4.036999999996624
-0.1716,1.0131,0.0359,0.1778,0.1645,-0.0372,-0.5775,-1.505,-7.21,1.9628916150782396,-9.561111125728619,-0.16497537706388124,4.046999999991385
-0.1696,1.0108,0.0386,0.1778,0.1645,-0.0372,-0.7175,-1.4525,-6.8513,2.029639141739629,-9.540605487247323,-0.16332562329324243,4.046999999991385
-0.1698,1.0122,0.0368,0.1787,0.1661,-0.0415,-0.2625,-1.6275,-6.2562,2.031199722949751,-9.534922659561273,-0.16560083755826246,4.056999999986147
-0.1854,1.013,0.0359,0.1787,0.1661,-0.0415,-0.2625,-1.6275,-6.2562,2.0311543318143204,-9.732469656984161,-0.16785329968631987,4.06699999999546
-0.1718,1.013,0.0359,0.1789,0.1665,-0.0365,-0.2887,-1.2075,-6.58,2.0311477996405194,-9.688581871596039,-0.16592523718958738,4.076999999990221
-0.172,1.0113,0.0343,0.1789,0.1665,-0.0365,-0.3938,-1.4438,-6.3787,2.0230434260378876,-9.675967962688862,-0.1663558253196378,4.086999999999534
-0.1698,1.0138,0.0361,0.1789,0.1665,-0.0365,-0.2187,-1.575,-6.0988,2.0241737599816565,-9.65267400118522,-0.1646922670664414,4.086999999999534
-0.171,1.0152,0.0327,0.1796,0.1672,-0.03,-0.2187,-1.575,-6.0988,2.011753995347736,-9.63974904148164,-0.16643406489400173,4.096999999994296
-0.1673,1.0119,0.0359,0.1796,0.1672,-0.03,-0.3413,-1.4438,-5.9938,2.012678819848674,-9.627520958284935,-0.166859564747008,4.107000000003609
-0.1673,1.0119,0.0359,0.1791,0.1663,-0.0373,-0.4812,-1.295,-6.2475,2.0157178776455917,-9.57038192958969,-0.16580768959831738,4.116999999983818
-0.167,1.0131,0.035,0.1791,0.1663,-0.0373,-0.42,-1.0938,-6.195,2.0115427615376533,-9.527165616445652,-0.16277445320105347,4.1269999999931315
-0.1685,1.0152,0.0376,0.1791,0.1663,-0.0373,-0.42,-1.0938,-6.195,2.023877246745003,-9.505167725453349,-0.16114670866904293,4.1269999999931315
-0.1713,1.0136,0.0336,0.1796,0.165,-0.0323,-0.805,-0.9712,-5.6788,1.9814664702334535,-9.522375493315165,-0.1569463420799414,4.137000000002445
-0.1723,1.0131,0.0386,0.1796,0.165,-0.0323,-0.7088,-1.1287,-5.4163,2.0403370242270182,-9.564796929385276,-0.15434722915968138,4.146999999997206
-0.1723,1.0105,0.0334,0.179,0.1656,-0.0434,-0.7088,-1.1287,-5.4513,1.997106433608491,-9.599929985593388,-0.15177410736862398,4.156999999991967
-0.1736,1.0105,0.0334,0.179,0.1656,-0.0434,-0.315,-1.3212,-5.4513,1.994880302279334,-9.647091319714994,-0.15113246679575368,4.167000000001281
-0.1747,1.0127,0.0343,0.178,0.1661,-0.0326,-0.525,-1.8112,-6.1337,1.9845235768664315,-9.668639478617777,-0.14962114212779615,4.167000000001281
-0.1713,1.0124,0.0313,0.178,0.1661,-0.0326,-0.2362,-2.6775,-6.4488,1.9730137791966849,-9.645309056402954,-0.1624284012198393,4.177000000010594
-0.1719,1.0149,0.0329,0.178,0.1661,-0.0326,-0.2362,-2.6775,-6.4488,1.966749359953216,-9.632912501904535,-0.1751075876793335,4.186999999990803
-0.1699,1.0185,0.0356,0.1786,0.1663,-0.0338,-0.035,-2.9488,-6.6588,1.9739539916957305,-9.562858089469515,-0.19034585231836268,4.197000000000116
-0.1699,1.0185,0.0356,0.1786,0.1663,-0.0338,-0.2275,-3.2287,-7.0,1.9756729117929896,-9.512522087514993,-0.2082027442848272,4.206999999994878
-0.1671,1.0198,0.0339,0.178,0.1668,-0.0351,-0.0613,-3.0975,-6.965,1.9621681362632337,-9.405406717731971,-0.20612071684197894,4.206999999994878
-0.1654,1.0158,0.0362,0.178,0.1668,-0.0351,-0.0613,-3.0975,-6.965,1.9770007863472514,-9.323050971807728,-0.22252098019075273,4.217000000004191
-0.169,1.0159,0.0329,0.178,0.1668,-0.0351,-0.6913,-2.6163,-7.1925,1.9422231062646487,-9.388035599331143,-0.23399336088166944,4.226999999998952
-0.1695,1.0159,0.0359,0.1798,0.1682,-0.0408,-0.9538,-2.4413,-7.14,1.9747102955413007,-9.430813666806502,-0.24361851778399612,4.2370000000082655
-0.1695,1.0152,0.0334,0.1798,0.1682,-0.0408,-0.42,-2.205,-6.7987,1.9645364174495823,-9.450606073463845,-0.24118233260615615,4.2370000000082655
-0.1719,1.0152,0.0334,0.1795,0.165,-0.037,-0.42,-2.205,-6.7987,1.9555080015662323,-9.521951103501396,-0.24839622976104472,4.246999999988475
-0.1715,1.0131,0.0361,0.1795,0.165,-0.037,-0.7088,-1.96,-7.0262,1.9805424669064242,-9.56360792943194,-0.25311248797013997,4.256999999997788
-0.1682,1.0146,0.0365,0.1795,0.165,-0.037,-0.7525,-1.6363,-6.9125,2.0056524561994227,-9.486500725527344,-0.2545769535883454,4.266999999992549
-0.1697,1.0112,0.0336,0.1803,0.1658,-0.0303,-0.5163,-1.4088,-6.6675,1.9869441185985695,-9.501180564696767,-0.25377452455408556,4.277000000001863
-0.1728,1.0144,0.0353,0.1803,0.1658,-0.0303,-0.5163,-1.4088,-6.6675,1.988053716156086,-9.568536502028843,-0.2529801198076314,4.286999999996624
-0.1728,1.0144,0.0353,0.18,0.1672,-0.0408,-0.3938,-1.1025,-6.3175,1.9885084722609896,-9.59385320649223,-0.2504503186095551,4.286999999996624
-0.1717,1.0113,0.0379,0.18,0.1672,-0.0408,-0.7088,-0.945,-6.755,2.0348224610460703,-9.609701622741591,-0.24509753592080685,4.297000000005937
-0.1728,1.0111,0.0341,0.18,0.1672,-0.0408,-0.7088,-0.7875,-6.1775,2.004515528375679,-9.62545558359855,-0.23823903106390776,4.3070000000006985
-0.1746,1.0122,0.0323,0.1805,0.1663,-0.0308,-0.42,-0.7875,-6.1775,1.9846112332310817,-9.65510642047576,-0.23144911125557766,4.31699999999546
-0.1727,1.0129,0.0407,0.1805,0.1663,-0.0308,-0.4462,-0.7962,-6.3,2.026612743225015,-9.658560481533097,-0.22481322064528572,4.326999999990221
-0.1727,1.0129,0.0326,0.1798,0.1659,-0.0351,-0.56,-0.7962,-6.2387,1.988021827464522,-9.661393001058162,-0.22256508843883285,4.326999999990221
-0.174,1.0121,0.0326,0.1798,0.1659,-0.0351,-0.56,-0.7962,-6.2387,1.9578670109570404,-9.681553687222834,-0.21601803805041989,4.336999999999534
-0.174,1.0125,0.0351,0.1798,0.1649,-0.0374,-0.6475,-1.1113,-5.7488,1.9650863727555532,-9.691978803076754,-0.2126559481705453,4.346999999994296
-0.1738,1.0119,0.0331,0.1798,0.1649,-0.0374,-0.5775,-0.6212,-5.95,1.9448125409500419,-9.692270915177259,-0.20447548918320171,4.357000000003609
-0.1722,1.0099,0.0365,0.1798,0.1649,-0.0374,-0.3325,-0.8925,-5.6613,1.9495508178900707,-9.687441410395333,-0.2024307342913697,4.357000000003609
-0.1731,1.0103,0.0365,0.1797,0.1668,-0.0374,-0.3325,-0.8925,-5.6613,1.9540785843056148,-9.693771625620688,-0.19703839745022042,4.36699999999837
-0.1731,1.0103,0.0365,0.1797,0.1668,-0.0374,-0.7175,-0.6125,-5.6788,1.9883403325144366,-9.698465319312433,-0.18892798396999985,4.377000000007683
-0.1729,1.0125,0.0412,0.1794,0.1667,-0.0378,-0.7088,-0.6825,-5.7312,2.088705454896351,-9.695717518395384,-0.18159167464107986,4.386999999987893
-0.1709,1.0153,0.0357,0.1794,0.1667,-0.0378,-0.9887,-1.0762,-5.775,2.0579794315747018,-9.674500457160544,-0.17822635839322606,4.396999999997206
-0.172,1.0153,0.0373,0.1794,0.1667,-0.0378,-0.9887,-1.0762,-5.775,2.0768505897691445,-9.664991919169628,-0.17489469531010549,4.406999999991967
-0.1721,1.0139,0.0392,0.1806,0.1667,-0.037,-0.77,-0.8487,-5.775,2.1211677100065085,-9.659434265269908,-0.17314574835700444,4.406999999991967
-0.1721,1.0139,0.0368,0.1806,0.1667,-0.037,-0.4812,-0.8225,-5.4338,2.1144396644627754,-9.648605433185022,-0.16735326136965228,4.417000000001281
-0.1707,1.0107,0.0368,0.1799,0.1666,-0.037,-0.42,-1.2075,-6.0025,2.111152295474249,-9.644820171197372,-0.16543019925608646,4.426999999996042
-0.1764,1.0079,0.0365,0.1799,0.1666,-0.037,-0.42,-1.2075,-6.0025,2.1069691335619893,-9.660082639238933,-0.1635263677632932,4.437000000005355
-0.1715,1.0114,0.042,0.1799,0.1666,-0.037,0.2013,-1.3563,-6.1425,2.196616600184546,-9.652746626446838,-0.1631146945850193,4.447000000000116
-0.1698,1.0125,0.0378,0.1799,0.1663,-0.0354,0.3938,-1.2775,-6.16,2.17276771122448,-9.628029990759316,-0.16148354763916908,4.447000000000116
-0.1684,1.0141,0.0365,0.1799,0.1663,-0.0354,0.1925,-1.5662,-6.2737,2.1363401837011287,-9.577047040385288,-0.16317031266104778,4.456999999994878
-0.1684,1.0141,0.0365,0.1797,0.1672,-0.0354,0.1925,-1.5662,-6.2737,2.111820215012251,-9.538706269181747,-0.1648402100327077,4.466999999989639
-0.1688,1.0185,0.0361,0.1797,0.1672,-0.0354,0.0962,-1.6712,-6.23,2.0888801820192078,-9.5088605258544,-0.16753290843642357,4.476999999998952
-0.1703,1.0201,0.0339,0.1797,0.1672,-0.0354,0.0962,-1.365,-6.5712,2.0368909943609843,-9.49491091836924,-0.16716729985137319,4.486999999993714
-0.1769,1.0187,0.0334,0.1797,0.1655,-0.0335,0.0962,-1.365,-6.1775,1.9923310979202533,-9.561405565721458,-0.16549562685285946,4.486999999993714
-0.1734,1.0164,0.0362,0.1797,0.1655,-0.0335,-0.1138,-1.4612,-6.1775,1.9995458942141675,-9.583016030784654,-0.16610277108643762,4.497000000003027
-0.1734,1.0008,0.0378,0.1822,0.1661,-0.0355,-0.105,-2.5988,-6.4488,2.0254304103401113,-9.663422058581265,-0.17796608386848825,4.506999999997788
-0.1735,1.0118,0.0378,0.1822,0.1661,-0.0355,-0.3237,-2.24,-6.7112,2.0288152106870747,-9.689546537966764,-0.18615864352457923,4.516999999992549
-0.1777,1.0105,0.0373,0.179,0.1661,-0.0374,-0.3237,-2.24,-6.7112,2.031341298475177,-9.810017579009587,-0.19426927758410928,4.526999999987311
-0.1773,1.0107,0.0359,0.179,0.1661,-0.0374,-0.2887,-2.205,-6.4138,2.0313542825783917,-9.852721313491207,-0.1923265848082682,4.526999999987311
-0.1739,1.0115,0.0373,0.179,0.1661,-0.0374,-0.21,-2.52,-6.0988,2.037534259106345,-9.838760256761276,-0.20314753947205447,4.536999999996624
-0.1725,1.0123,0.0359,0.1808,0.1671,-0.0346,-0.1488,-2.5287,-6.1425,2.036719541798521,-9.809908322403775,-0.2139464145706125,4.546999999991385
-0.1725,1.0123,0.0359,0.1808,0.1671,-0.0346,-0.1488,-2.5287,-6.1425,2.036007579826267,-9.785835594802421,-0.22463730093685558,4.5570000000006985
-0.1711,1.0112,0.0387,0.1818,0.1669,-0.0368,0.1312,-2.4938,-6.125,2.0823958387578507,-9.756870191848702,-0.22239092792748702,4.5570000000006985
-0.1741,1.0116,0.037,0.1818,0.1669,-0.0368,0.1575,-2.6075,-5.9588,2.086218265947101,-9.756897615725018,-0.23377748914108204,4.56699999999546
-0.1759,1.0142,0.0358,0.1818,0.1669,-0.0368,0.4288,-2.5988,-5.6788,2.059139487469533,-9.772918494784793,-0.24496405476226674,4.577000000004773
-0.176,1.0166,0.0356,0.1803,0.1666,-0.046,0.4288,-2.5988,-5.6788,2.036694268898936,-9.781976680857527,-0.25603875468787857,4.586999999984982
-0.176,1.0166,0.0333,0.1803,0.1666,-0.046,0.2275,-3.2375,-5.3725,1.9817187252445405,-9.794667167162583,-0.27332583765948415,4.596999999994296
-0.1737,1.0161,0.0333,0.1812,0.1648,-0.0369,1.0675,-3.045,-5.5475,1.9213872923767723,-9.766571596037519,-0.2885342997734902,4.606999999989057
-0.1753,1.0151,0.0322,0.1812,0.1648,-0.0369,0.9712,-3.3163,-5.7663,1.8630287293503538,-9.77057003214735,-0.2856489567757553,4.606999999989057
-0.1757,1.0107,0.0369,0.1812,0.1648,-0.0369,0.9712,-3.3163,-5.7663,1.9902663470117812,-9.783353157292954,-0.30342005772720865,4.61699999999837
-0.1894,1.006,0.0354,0.1814,0.1667,-0.042,1.0762,-3.6225,-6.055,2.004758545312097,-9.870546479599405,-0.32404482763754233,4.6269999999931315
-0.1957,1.0041,0.0378,0.1814,0.1667,-0.042,0.91,-4.7688,-6.1425,2.0873072005351005,-10.061134980592707,-0.35581171989377003,4.637000000002445
-0.1957,1.0041,0.0378,0.1813,0.1677,-0.0334,1.12,-6.3088,-6.265,2.1274862395244614,-10.294427687962276,-0.3522536026948323,4.637000000002445
-0.1989,1.0045,0.0358,0.1813,0.1677,-0.0334,1.12,-6.3088,-6.265,2.0769195420744446,-10.512861568770031,-0.3989844071415578,4.646999999997206
-0.208,1.0111,0.0365,0.1813,0.1677,-0.0334,1.7763,-7.8225,-6.8513,2.0705281399517474,-11.038183981708984,-0.4602335335359655,4.656999999991967
-0.2083,1.0151,0.0352,0.1841,0.1682,-0.0358,2.2838,-10.2288,-6.9825,2.0096421773759183,-11.319014636060409,-0.5446925387835507,4.667000000001281
-0.2047,1.0181,0.0344,0.1841,0.1682,-0.0358,2.2838,-10.2288,-7.3063,1.956010458833391,-11.343830983378409,-0.6283069538490588,4.676999999996042
-0.2047,1.0181,0.0383,0.1822,0.1692,-0.0316,1.5488,-12.5037,-7.3063,2.0845915191918425,-11.353464321538857,-0.7336067347521134,4.686999999990803
-0.2067,1.0224,0.0383,0.1822,0.1692,-0.0316,1.6363,-15.12,-7.7525,2.1246072547692827,-11.397408443714236,-0.7262706674045922,4.686999999990803
-0.221,1.0171,0.0357,0.1814,0.1657,-0.0327,1.8375,-18.3225,-7.9625,2.0467749836947373,-11.96862441965824,-0.8881969313881158,4.697000000000116
-0.2624,1.0048,0.032,0.1814,0.1657,-0.0327,1.8375,-18.3225,-7.9625,1.8952209991738878,-13.747405610572708,-1.1161795206993892,4.710999999995693
-0.3029,1.008,0.0326,0.1814,0.1657,-0.0327,2.1613,-22.12,-7.9187,1.8647765175016142,-15.718768361483276,-1.2704451019260972,4.7189999999973224
-0.3461,1.0247,0.0288,0.184,0.1684,-0.0363,3.2462,-29.33,-7.665,1.6660634622260706,-17.57649450169534,-1.2855569730636982,4.720000000001164
-0.3461,1.0247,0.0288,0.184,0.1684,-0.0363,3.1937,-38.9375,-7.84,1.6224322994349119,-18.28319443959267,-1.6459788736375127,4.7299999999959255
-0.3748,1.0388,0.0252,0.1847,0.1667,-0.0287,3.1937,-38.9375,-7.84,1.4415328400122733,-19.298579238512716,-2.0027965557487795,4.740000000005239
-0.4193,1.0634,0.0128,0.1847,0.1667,-0.0287,2.0125,-50.9425,-7.5425,0.917090190279936,-20.663873339992605,-2.4748955604334815,4.75
-0.4898,1.0859,0.0047,0.1847,0.1667,-0.0287,0.6037,-66.0625,-6.3963,0.6007354023622185,-21.789427781654762,-2.4501466048291465,4.75
-0.5666,1.101,0.0087,0.1882,0.1675,-0.0222,-1.2687,-86.7825,-4.9612,0.5276509277322686,-24.486403177931976,-3.272588108837168,4.759999999994761
-0.5666,1.1089,-0.0062,0.1882,0.1675,-0.0222,-1.2687,-86.7825,-4.9612,0.10889568814956022,-25.76435124286627,-4.086805197805109,4.769999999989523
-0.6373,1.1089,-0.0062,0.1906,0.1671,-0.0102,-5.1275,-112.735,-4.0512,-0.24677366640236298,-28.461309471401645,-5.14980986735512,4.779999999998836
-0.6642,1.1017,-0.0067,0.1906,0.1671,-0.0102,-10.9375,-144.2,-3.9813,-0.3397095919032228,-30.199242128318225,-6.513687988440097,4.789999999993597
-0.6405,1.0784,-0.0238,0.1906,0.1671,-0.0102,-15.295,-176.26,-4.095,-1.2065173420082125,-30.525175311561863,-6.448551108555696,4.789999999993597
-0.593,1.0757,-0.0443,0.1939,0.1664,0.0052,-15.295,-176.26,-4.095,-2.286275167101355,-29.43543906020079,-8.116835819583907,4.80000000000291
-0.5237,1.0666,-0.0701,0.1939,0.1664,0.0052,-19.2938,-207.41,-5.2762,-3.6865389954575214,-28.100820296723075,-10.076822680818768,4.809999999997672
-0.5237,1.0666,-0.0701,0.1981,0.1652,0.0363,-23.3888,-236.1712,-6.8775,-3.7571760282120326,-27.135859947543963,-12.301945556676737,4.820000000006985
-0.4623,1.0427,-0.0853,0.1981,0.1652,0.0363,-26.6963,-260.2338,-9.2575,-4.643214735248526,-24.604267776673904,-12.178926101109969,4.820000000006985
-0.4072,1.0167,-0.1039,0.1981,0.1652,0.0363,-26.6963,-260.2338,-9.2575,-5.791502040914728,-22.391831075882713,-14.621247675524339,4.829999999987194
-0.3448,0.9964,-0.1081,0.1992,0.1662,0.0603,-28.77,-280.2013,-12.215,-6.17825305307682,-19.453206158567944,-17.236824291841213,4.8399999999965075
-0.2555,0.9768,-0.1248,0.1992,0.1662,0.0603,-29.2512,-286.5713,-15.4875,-7.244092968603831,-15.010693708380991,-19.889308137942947,4.849999999991269
-0.2555,0.9576,-0.1451,0.1963,0.1664,0.0919,-29.2512,-286.5713,-18.7425,-8.57037966987946,-14.79491255398559,-22.515267149694367,4.860000000000582
-0.1699,0.9576,-0.1451,0.1963,0.1664,0.0919,-28.6563,-286.72,-18.7425,-8.614620125035193,-10.300758554130226,-25.1164386972168,4.869999999995343
-0.0982,0.9547,-0.1524,0.1952,0.1691,0.1275,-26.4338,-286.72,-21.5513,-9.052911321605766,-6.070862507767042,-27.691598533376855,4.880000000004657
-0.0149,0.9571,-0.1581,0.1952,0.1691,0.1275,-23.9662,-286.72,-24.0012,-9.366539002638339,-1.1523616109180213,-27.414682548043086,4.880000000004657
0.0657,0.9591,-0.1484,0.1952,0.1691,0.1275,-23.9662,-286.72,-24.0012,-8.818678212846056,3.6091077939000846,-29.966859937469188,4.889999999984866
0.1065,0.9699,-0.1346,0.1849,0.1722,0.1582,-22.19,-286.72,-26.0138,-7.940967869897821,6.083938787679772,-32.493515561226715,4.899999999994179
0.1065,0.9699,-0.1346,0.1849,0.1722,0.1582,-20.79,-286.72,-27.475,-7.9027486836367045,6.201776844215014,-34.994904624633826,4.9099999999889405
0.1416,0.9772,-0.1079,0.176,0.1722,0.1835,-20.1688,-286.72,-28.385,-6.377664707556023,8.110793127232935,-37.47127980151971,4.919999999998254
0.1888,0.9755,-0.0777,0.176,0.1722,0.1835,-20.1688,-286.72,-28.385,-4.641432515854103,10.80010825299562,-37.09656700350451,4.919999999998254
0.2266,0.9825,-0.0685,0.176,0.1722,0.1835,-18.8475,-284.13,-30.3625,-4.021619089133699,12.872133614663753,-39.52628455250227,4.929999999993015
0.2512,0.9883,-0.04,0.1635,0.1746,0.206,-17.8062,-270.5063,-32.1912,-2.4097368549941356,14.19934078244163,-41.79683029995997,4.940000000002328
0.2668,0.9898,-0.0186,0.1635,0.1746,0.206,-18.0863,-252.245,-31.4738,-1.147496548746091,15.04966090855736,-43.86388371615855,4.94999999999709
0.2694,0.9898,-0.0186,0.1514,0.1766,0.229,-18.0863,-252.245,-31.4738,-1.0803317168016375,15.216623431603615,-45.910266598195136,4.959999999991851
0.2949,0.9679,0.009,0.1514,0.1766,0.229,-19.3025,-233.4413,-29.1725,0.45213215370166226,16.872946443768182,-47.75002902150888,4.969999999986612
0.3145,0.9609,0.0457,0.1514,0.1766,0.229,-17.5088,-211.2513,-27.4837,2.598250684590141,18.049389794662822,-49.35171282373018,4.9799999999959255
0.3227,0.9601,0.0697,0.1382,0.1781,0.2603,-15.155,-187.1888,-25.7687,4.054227620234869,18.509420543873677,-48.85819569549288,4.9799999999959255
0.314,0.9587,0.0966,0.1382,0.1781,0.2603,-15.155,-187.1888,-25.7687,5.646638285962969,18.071665876088765,-50.21057907807353,4.989999999990687
0.314,0.9587,0.0966,0.1293,0.1806,0.2514,-11.8737,-162.61,-23.8,5.74526876862768,18.05075567980023,-51.30610850928071,5.0
0.2921,0.9573,0.1197,0.1293,0.1806,0.2514,-9.0475,-138.6438,-22.0675,6.985550553207891,16.915232791564804,-52.15341726397525,5.009999999994761
0.2682,0.96,0.1375,0.1293,0.1806,0.2672,-6.7288,-115.6488,-21.0788,7.994254061767805,15.549186111834555,-51.631883091335496,5.009999999994761
0.2394,0.9752,0.1459,0.1212,0.1828,0.2672,-6.7288,-115.6488,-21.0788,8.439712492386317,13.764488293561834,-52.248283601977064,5.0200000000040745
0.1956,0.9895,0.1488,0.1212,0.1828,0.2672,-4.2,-94.0537,-20.0637,8.52911670165536,11.239407644502919,-52.64472861463868,5.029999999984284
0.1512,0.9989,0.1548,0.1194,0.183,0.2711,-2.5463,-75.985,-19.7925,8.7230218752105,8.691285114190949,-52.858329049681515,5.039999999993597
0.1512,0.9989,0.1548,0.1194,0.183,0.2711,-2.5463,-75.985,-20.335,8.782626812776115,8.51924062477119,-53.069793480373924,5.05000000000291
0.1065,1.006,0.1606,0.1131,0.1818,0.2809,-1.5313,-60.3575,-20.335,8.941760859375101,6.13383848609956,-52.539095545570184,5.05000000000291
0.0608,1.0056,0.1665,0.1131,0.1818,0.2809,-0.315,-47.6787,-20.9825,8.95159787065599,3.5832154184114358,-52.4735199403736,5.059999999997672
0.0211,1.0204,0.1645,0.1131,0.1818,0.2809,1.365,-36.8638,-21.6825,9.080309089795508,1.313708032889446,-52.30153258128507,5.069999999992433
-0.0182,1.0116,0.1646,0.1161,0.1846,0.2771,1.365,-36.8638,-21.6825,9.181015097318738,-0.8780757765692165,-52.131265096300744,5.080000000001746
-0.0182,1.0116,0.1646,0.1161,0.1846,0.2771,2.2313,-29.9862,-22.8288,9.224517363806543,-1.0095514403080361,-51.60995244533774,5.080000000001746
-0.0466,1.0111,0.1779,0.1139,0.1847,0.2799,2.8963,-24.605,-22.155,9.798818980877902,-2.5065919934794736,-51.32523864159985,5.0900000000110595
-0.0827,1.0105,0.1761,0.1139,0.1847,0.2799,2.8175,-22.0325,-21.1313,9.864538939456317,-4.4796189839663,-51.01790422527633,5.099999999991269
-0.0961,1.0171,0.1736,0.1139,0.1847,0.2799,2.8175,-22.0325,-21.1313,9.729420593296918,-5.269050549983148,-50.713643153715346,5.110000000000582
-0.1078,1.0297,0.1693,0.1154,0.1865,0.2864,2.87,-21.14,-19.215,9.431150015577188,-5.853877143849986,-50.40358894257495,5.119999999995343
-0.1044,1.0317,0.1657,0.1154,0.1865,0.2864,2.7825,-21.14,-17.4037,9.199573425946076,-5.717490535714089,-49.8995530531492,5.119999999995343
-0.1044,1.0317,0.1657,0.1157,0.187,0.2801,2.3012,-21.1838,-15.9163,9.145227359006686,-5.7066738289517875,-49.59807336330166,5.130000000004657
-0.1001,1.0325,0.1662,0.1157,0.187,0.2801,2.3012,-21.1838,-15.9163,9.144612766811747,-5.489320560771864,-49.299608470065166,5.139999999999418
-0.0987,1.0281,0.1667,0.1157,0.187,0.2801,2.0738,-19.8275,-14.49,9.190578993142639,-5.421399128703328,-48.990700856035964,5.150000000008731
-0.1081,1.015,0.1612,0.116,0.1869,0.2798,1.6625,-19.6437,-13.37,9.080503361534184,-5.935324981120426,-48.500793847475606,5.150000000008731
-0.0953,1.0006,0.1631,0.116,0.1869,0.2798,0.875,-19.565,-12.5913,9.176089265894985,-5.444055529421576,-48.19727562914167,5.1599999999889405
-0.0953,1.0006,0.1631,0.1136,0.1862,0.2852,0.875,-19.565,-12.5913,9.220176122597014,-5.379814895995586,-47.89679259351928,5.169999999998254
-0.0801,1.0004,0.1648,0.1136,0.1862,0.2852,1.4438,-18.7862,-11.6988,9.305455691041756,-4.644874801180217,-47.59160426799305,5.179999999993015
-0.0644,1.0122,0.1532,0.1136,0.1866,0.2836,1.4875,-17.29,-11.4888,8.857925879653303,-3.7592942180574433,-47.29055216784091,5.190999999991618
-0.0578,1.0171,0.1562,0.1122,0.1866,0.2836,1.6975,-14.3675,-11.3225,8.773389681366076,-3.3002559327736227,-46.8436535403624,5.1929999999993015
-0.0609,1.004,0.1618,0.1122,0.1866,0.2836,1.6975,-14.3675,-11.3225,9.027272217184064,-3.407170878407712,-46.50525147539066,5.202999999994063
-0.0691,0.9912,0.1604,0.1136,0.187,0.2837,1.6538,-11.3138,-10.6663,9.136200680154976,-3.84423460171501,-46.140001801084466,5.212999999988824
-0.0691,0.9912,0.1604,0.1136,0.187,0.2837,2.17,-9.5813,-9.8875,9.17599399281012,-3.918065178986473,-45.678601783073624,5.212999999988824
-0.0683,0.9837,0.1656,0.1124,0.1876,0.287,2.17,-9.5813,-9.0825,9.446131309645034,-3.917130987697414,-45.30446685581986,5.222999999998137
-0.0708,0.9898,0.162,0.1124,0.1876,0.287,3.1325,-7.6562,-9.0825,9.329268055871923,-4.008667246246185,-44.915014787728346,5.232999999992899
-0.063,0.9969,0.159,0.1124,0.1876,0.287,3.9638,-5.6788,-8.1725,9.112866115313546,-3.7065854230511124,-44.509880980392055,5.243000000002212
-0.058,0.994,0.1557,0.1133,0.1884,0.283,4.655,-3.115,-7.4462,8.937834892461026,-3.46206166175308,-44.08341689107837,5.252999999996973
-0.058,0.994,0.1545,0.1133,0.1884,0.283,4.655,-3.115,-7.4462,8.852235202386854,-3.3647028847129317,-43.64258272216759,5.252999999996973
-0.0684,0.9888,0.1545,0.1136,0.1869,0.2829,5.6087,-0.3675,-6.6588,8.876540828207414,-3.5919396914409734,-43.19759136543794,5.263000000006286
-0.07,0.9778,0.1547,0.1136,0.1869,0.2829,6.2038,2.0563,-6.3088,8.975194302895972,-3.7129505885950853,-42.733054302348,5.272999999986496
-0.069,0.9811,0.1525,0.1136,0.1869,0.2829,7.0963,2.9313,-5.775,8.85190944257804,-3.7508807177494656,-42.26450010978613,5.282999999995809
-0.0675,0.9855,0.1522,0.1127,0.1882,0.2806,7.0963,2.9313,-5.775,8.78800971577502,-3.768457366488007,-41.80063145920986,5.29299999999057
-0.0709,0.9958,0.1423,0.1127,0.1882,0.2806,8.225,4.1912,-5.3288,8.201386537242035,-3.8687231229093517,-41.38262514461776,5.29299999999057
-0.0709,0.9958,0.1423,0.1138,0.1846,0.2771,8.1462,4.8475,-4.55,8.139814731364456,-3.9636290556268015,-40.90860486361552,5.302999999999884
-0.0778,1.0083,0.1338,0.1138,0.1846,0.2771,7.0875,5.1887,-4.0338,7.62822359515264,-4.232976705748049,-40.43594690551267,5.312999999994645
-0.0822,1.0091,0.1369,0.1138,0.1846,0.2771,7.0875,5.1887,-4.0338,7.714235456217346,-4.4836421327693525,-39.96801552689834,5.323000000003958
-0.0855,1.0009,0.1351,0.1141,0.185,0.2728,5.9325,5.04,-3.4213,7.690975247275607,-4.738023096396066,-39.50623559225225,5.3329999999841675
-0.0926,0.9968,0.1434,0.1141,0.185,0.2728,4.6988,4.165,-2.7125,8.10373840859785,-5.131764884302859,-39.111173236329726,5.3329999999841675
-0.0926,0.9968,0.1389,0.1142,0.1864,0.2821,4.3488,2.5287,-2.1613,7.963139630240029,-5.230724607443889,-38.682823594431746,5.342999999993481
-0.0928,0.9966,0.1389,0.1142,0.1864,0.2821,4.3488,2.5287,-2.1613,7.939512416158022,-5.261161067095424,-38.25875744900693,5.352999999988242
-0.0816,1.007,0.1426,0.1137,0.1829,0.2726,4.865,0.9275,-1.925,8.040428028448769,-4.72144029288652,-37.85478384499694,5.362999999997555
-0.0688,1.0133,0.1335,0.1137,0.1829,0.2726,3.675,-0.1575,-2.1875,7.613063975226247,-4.03405759780806,-37.46559147705255,5.372999999992317
-0.0623,1.0192,0.1303,0.1137,0.1829,0.2726,2.8087,-1.1812,-2.3888,7.365342374128693,-3.593640811216655,-37.09093556228202,5.372999999992317
-0.0611,1.0131,0.1277,0.1138,0.1837,0.2776,2.8087,-1.1812,-2.3888,7.228341597249387,-3.461470799517756,-36.71951630715873,5.38300000000163
-0.0611,1.0131,0.1277,0.1138,0.1837,0.2776,2.2838,-1.5225,-3.22,7.1965217934930035,-3.434277064512514,-36.35519011458564,5.392999999996391
-0.0659,0.9981,0.1249,0.1135,0.1822,0.2748,1.6275,-1.7938,-4.4275,7.154609923281032,-3.623540859560779,-35.997193053936876,5.402999999991152
-0.0671,0.9866,0.1311,0.1135,0.1822,0.2748,1.6275,-1.7938,-5.1887,7.427218147951407,-3.7239834317904283,-35.6427759638946,5.412999999985914
-0.0653,0.9865,0.1254,0.1135,0.1822,0.2748,1.82,-2.6775,-5.1887,7.303098818520583,-3.738166755810036,-35.28634820425565,5.412999999985914
-0.06,0.9965,0.1254,0.1132,0.1818,0.2826,2.1,-3.29,-5.7925,7.210935874692211,-3.6961512854687846,-34.953851942732065,5.422999999995227
-0.06,1.0121,0.1209,0.1132,0.1818,0.2826,2.6513,-3.7275,-6.4138,6.913113644267561,-3.5915077244944547,-34.629011893827744,5.43300000000454
-0.0549,1.0047,0.1209,0.1121,0.1835,0.2758,2.6513,-3.7275,-6.4138,6.874706123233372,-3.4361088404689735,-34.31235993945956,5.444999999992433
-0.0548,1.0105,0.1175,0.1121,0.1835,0.2758,2.0038,-3.3863,-7.0437,6.705974387858607,-3.2513822195876703,-33.96923634006497,5.444999999992433
-0.0573,1.0147,0.1183,0.1121,0.1835,0.2758,1.7587,-3.185,-7.9625,6.668257606266686,-3.223947037980724,-33.64887169718232,5.455000000001746
-0.0625,1.0021,0.1204,0.1136,0.1832,0.2744,1.4088,-2.5812,-8.785,6.7834384342238545,-3.460261697133759,-33.32573308070351,5.4649999999965075
-0.0647,0.9934,0.1247,0.1136,0.1832,0.2744,1.4088,-2.5812,-8.785,7.01737484599321,-3.6357113371630323,-33.00582585040891,5.475000000005821
-0.0647,0.9934,0.1247,0.1128,0.1837,0.2759,1.1375,-2.555,-9.0825,7.098277914768576,-3.682544835484254,-32.68885831239796,5.485000000000582
-0.067,0.9974,0.1252,0.1128,0.1837,0.2759,1.6975,-2.2487,-9.0825,7.135839777101838,-3.7816411009004405,-32.36196972927398,5.485000000000582
-0.0647,1.0039,0.1208,0.1128,0.1837,0.2759,2.3625,-2.3888,-9.6687,6.936511018794682,-3.6866896562597518,-32.049795372475245,5.494999999995343
-0.0547,1.0066,0.1162,0.1143,0.1826,0.2758,2.3625,-2.3888,-9.6687,6.681133845602004,-3.216283032675226,-31.740742759244494,5.504999999990105
-0.0503,1.0171,0.1082,0.1143,0.1826,0.2758,2.0912,-1.9162,-9.9575,6.252224750985454,-2.8953264619384016,-31.43010193215835,5.514999999999418
-0.0503,1.0213,0.1107,0.115,0.182,0.2724,1.7237,-0.315,-10.1237,6.208092808950022,-2.8209868299400247,-31.106715633341526,5.524999999994179
-0.0612,1.0213,0.1107,0.115,0.182,0.2724,1.435,1.1113,-9.5725,6.19423178020526,-3.282232260236567,-30.79564847700811,5.524999999994179
-0.075,1.0065,0.1206,0.1146,0.1837,0.2702,1.435,1.1113,-9.5725,6.598650568002991,-4.02633136168411,-30.46448634271642,5.5350000000034925
-0.095,0.9945,0.1238,0.1146,0.1837,0.2702,1.1638,1.7938,-8.82,6.893538336167531,-5.056803243378525,-30.12987907980495,5.544999999998254
-0.1017,0.9999,0.1263,0.1146,0.1837,0.2702,1.3125,0.6913,-8.785,7.0818026780023065,-5.578492170653545,-29.80953263948916,5.555000000007567
-0.1002,1.0086,0.1236,0.1151,0.1841,0.2717,1.7237,-0.315,-8.6975,7.018117062274935,-5.617461564208713,-29.50235203361225,5.564999999987776
-0.1002,1.0086,0.1236,0.1151,0.1841,0.2717,1.7237,-0.315,-8.6975,6.99700693042867,-5.627843623974065,-29.207328513276128,5.564999999987776
-0.0924,1.0138,0.1212,0.1157,0.1837,0.2708,1.5575,-1.9162,-8.8462,6.880384474892396,-5.288114971042002,-28.92202182864967,5.57499999999709
-0.0899,1.0178,0.118,0.1157,0.1837,0.2708,1.225,-1.9775,-8.6625,6.719267352765261,-5.087931292524806,-28.640175080859308,5.584999999991851
-0.0883,1.0199,0.1103,0.1157,0.1837,0.2708,1.225,-1.9775,-8.8813,6.389588097171291,-4.962367986794781,-28.361146800557584,5.595000000001164
-0.0839,1.0216,0.1127,0.1174,0.1849,0.2685,0.4725,-2.0125,-8.8813,6.348681215023932,-4.741835510185544,-28.085255303047965,5.6049999999959255
-0.0839,1.0145,0.1068,0.1174,0.1849,0.2685,-0.035,-2.3363,-8.68,6.2791114638904,-4.7125056833936405,-27.81532834052766,5.615000000005239
-0.0825,1.0145,0.1068,0.1169,0.1838,0.2726,-0.7,-2.2662,-8.5925,6.201165973814787,-4.648020067142725,-27.537175057122383,5.615000000005239
-0.0816,1.0056,0.1055,0.1169,0.1838,0.2726,-0.7,-2.2662,-8.5925,6.1398454168080745,-4.623268348605645,-27.2720349070458,5.625
-0.0844,0.9995,0.118,0.1169,0.1838,0.2726,-0.9712,-2.3187,-8.995,6.379573886394547,-4.751552167952364,-27.010065908469713,5.634999999994761
-0.0892,0.9995,0.1185,0.1168,0.1839,0.2792,-1.295,-1.89,-8.8725,6.5706576613799275,-4.984873808788899,-26.746472469881606,5.644999999989523
-0.0877,1.003,0.1216,0.1168,0.1839,0.2792,-1.1463,-1.47,-8.225,6.728079045052799,-4.968247815529292,-26.47900774518279,5.644999999989523
-0.0877,1.003,0.1216,0.1154,0.1833,0.2757,-1.1463,-1.47,-8.225,6.813025989387124,-4.963180509492775,-26.216566888233153,5.654999999998836
-0.09,1.0054,0.1196,0.1154,0.1833,0.2757,-1.015,-2.0475,-8.1637,6.80081131702576,-5.043486248573708,-25.962467689846594,5.664999999993597
-0.0913,1.0106,0.1174,0.1154,0.1833,0.2757,-1.2425,-2.8963,-7.9713,6.715807274502781,-5.100031776045439,-25.719312603463468,5.67500000000291
-0.0806,1.0075,0.1146,0.1151,0.1852,0.271,-1.5137,-2.9662,-7.77,6.591318291235012,-4.74123101876434,-25.479281077919843,5.684999999997672
-0.0853,1.0121,0.1188,0.1151,0.1852,0.271,-1.5137,-2.9662,-7.77,6.648158656703491,-4.769395612640443,-25.224488267140643,5.684999999997672
-0.0853,1.0063,0.1243,0.1178,0.1862,0.2827,-1.6625,-2.6075,-7.595,6.875553026216548,-4.793921929306605,-24.985853854962105,5.694999999992433
-0.0889,1.0063,0.1243,0.1178,0.1862,0.2827,-1.4088,-2.0125,-7.5775,6.9631212066561785,-4.928394221597122,-24.74371528690844,5.704999999987194
-0.094,0.9927,0.1255,0.1163,0.1857,0.2794,-1.435,-2.0213,-7.6038,7.092217135201801,-5.201984194266633,-24.50408522454663,5.7149999999965075
-0.095,0.9899,0.1305,0.1163,0.1857,0.2794,-1.435,-2.0213,-7.6038,7.3149882688949885,-5.347460563985899,-24.266851462797074,5.724999999991269
-0.0861,0.9959,0.1262,0.1163,0.1857,0.2794,-0.9363,-2.8437,-7.7175,7.278591832995831,-5.062726644057844,-24.024182948169102,5.724999999991269
-0.0825,1.0044,0.1269,0.1179,0.1854,0.274,-0.5775,-2.7912,-7.6038,7.261374463858321,-4.810650400986303,-23.79937021920178,5.735000000000582
-0.0825,1.0044,0.1269,0.1179,0.1854,0.274,-0.2187,-1.9425,-7.2888,7.257180429040938,-4.723549211367667,-23.56840348750608,5.744999999995343
-0.0767,1.0107,0.1202,0.1183,0.1853,0.2738,-0.2187,-1.9425,-7.2888,7.224276995752286,-4.4860739673487755,-23.339746423137566,5.755000000004657
-0.0845,1.0187,0.1134,0.1183,0.1853,0.2738,-0.0175,-0.9625,-7.0788,7.035785353970912,-4.606589526918894,-23.10367392941148,5.764999999984866
-0.0858,1.0128,0.1257,0.1183,0.1853,0.2738,-0.4725,-1.0325,-6.4138,7.041731281967697,-4.670200399448386,-22.872637190117366,5.764999999984866
-0.1021,0.9995,0.1207,0.1183,0.1876,0.2745,-0.4725,-1.0325,-5.2587,7.018002885092362,-5.125866437527558,-22.64192878871435,5.774999999994179
-0.0973,0.99,0.1263,0.1183,0.1876,0.2745,-1.26,-1.2687,-5.2587,7.142016742708287,-5.305778145753351,-22.41586585132702,5.7849999999889405
-0.0973,0.99,0.1263,0.1173,0.1854,0.2753,-1.4262,-2.3712,-4.6375,7.21014902805868,-5.4544916195147115,-22.202978293324243,5.794999999998254
-0.0915,0.9908,0.13,0.1173,0.1854,0.2753,-1.0412,-3.1588,-4.655,7.323453049526724,-5.329026778183576,-22.00001685088101,5.804999999993015
-0.0817,1.0008,0.1258,0.1173,0.1854,0.2753,-1.0412,-3.1588,-4.655,7.255418199558579,-4.935780781987156,-21.7800166823722,5.804999999993015
-0.0791,1.0095,0.1299,0.1175,0.1843,0.2746,-0.4462,-2.4588,-5.25,7.265636211531053,-4.734231744491486,-21.575568690114448,5.81600000000617
-0.0767,1.0039,0.1232,0.1175,0.1843,0.2746,-0.21,-1.5575,-5.3463,7.2449756952178435,-4.5854892281405935,-21.363028473711616,5.826000000000931
-0.0767,1.0039,0.1232,0.1182,0.1853,0.2735,-0.7962,-1.6013,-5.3288,7.161789741740537,-4.490701709348383,-21.153047279472588,5.835999999995693
-0.0828,0.9975,0.1225,0.1182,0.1853,0.2735,-0.7962,-1.6013,-5.3288,7.108063557586618,-4.574179943745115,-20.94516589717595,5.845999999990454
-0.0875,0.9961,0.1265,0.1182,0.1853,0.2778,-0.6125,-1.4612,-5.7488,7.13940783357039,-4.640502757648613,-20.735714238204192,5.845999999990454
-0.087,0.9966,0.1221,0.1181,0.1866,0.2778,-0.5075,-2.0825,-5.53,7.112127663615165,-4.731772580331275,-20.536770066329986,5.855999999999767
-0.0792,1.0066,0.1255,0.1181,0.1866,0.2778,-0.98,-2.4675,-5.215,7.109958792647524,-4.619035004886579,-20.343626836160283,5.8659999999945285
-0.0723,1.0153,0.1238,0.117,0.1857,0.2709,-0.98,-2.4675,-5.215,7.045643303517948,-4.376309228799191,-20.152415038310064,5.876000000003842
-0.0723,1.0153,0.1238,0.117,0.1857,0.2709,-0.9363,-2.0387,-5.3637,7.008992487693095,-4.2540433399282485,-19.958870238422783,5.885999999998603
-0.0767,1.0141,0.1227,0.1161,0.186,0.2799,-0.875,-2.2925,-6.2562,6.968499772166255,-4.263562608372576,-19.759281536038554,5.885999999998603
-0.0858,1.0094,0.126,0.1161,0.186,0.2799,-2.415,-2.45,-6.93,7.068233084890972,-4.540460573754237,-19.57373994118939,5.896000000007916
-0.0867,0.9989,0.1324,0.1161,0.186,0.2799,-2.415,-2.45,-6.93,7.39588723378577,-4.727796171309118,-19.390053762271183,5.9060000000026776
-0.0891,0.996,0.1337,0.1166,0.1863,0.2699,-2.7387,-2.8437,-7.3412,7.573059979468662,-4.925351507881431,-19.212102075140116,5.915999999997439
-0.0891,0.996,0.1337,0.1166,0.1863,0.2699,-2.6337,-2.9662,-8.015,7.623819499729229,-5.020701949724175,-19.037142654879723,5.9259999999922
-0.0852,0.9989,0.139,0.1173,0.186,0.2742,-1.75,-3.0625,-8.68,7.800641305539416,-4.880217762886005,-18.846771228330926,5.9259999999922
-0.0764,1.0042,0.1325,0.1173,0.186,0.2742,-1.75,-3.0625,-8.68,7.632163230213014,-4.4651640248109015,-18.676418486564486,5.936000000001513
-0.0716,1.009,0.1349,0.1173,0.186,0.2742,-1.3212,-2.66,-8.89,7.623513402208516,-4.135278550347559,-18.50378452219144,5.945999999996275
-0.0686,1.0111,0.1304,0.1177,0.1862,0.2702,-1.2687,-1.96,-8.9862,7.4878467940084334,-3.9202785615274593,-18.325946897476232,5.956000000005588
-0.0744,1.0178,0.1327,0.1177,0.1862,0.2702,-1.2687,-1.96,-6.7463,7.458431336057478,-4.020696552324035,-18.14268742850147,5.956000000005588
-0.0744,1.0178,0.1327,0.1186,0.1859,0.2757,-1.68,-0.945,-8.3475,7.440911774908043,-4.10908133209884,-17.95841227471795,5.966000000000349
-0.08,1.0121,0.1366,0.1186,0.1859,0.2757,-2.2662,-0.7437,-8.0325,7.6039524032442385,-4.359243801541742,-17.773987002473305,5.975999999995111
-0.0911,1.0083,0.1363,0.1186,0.1859,0.2757,-2.8788,-0.7175,-7.2625,7.672106529573466,-4.789820200075909,-17.591146602951245,5.985999999989872
-0.0986,1.0082,0.1379,0.1207,0.1868,0.2784,-2.8788,-0.7175,-7.2625,7.756036449882928,-5.213284099842399,-17.410134607416982,5.995999999999185
-0.0941,1.0066,0.1332,0.1207,0.1868,0.2784,-3.1412,-1.3038,-6.09,7.594634829509491,-5.223667482468829,-17.236737101842444,6.005999999993946
-0.0941,1.0066,0.1332,0.118,0.1866,0.2753,-2.9225,-2.2925,-5.9062,7.553578760115048,-5.226255186112425,-17.06436973082402,6.005999999993946
-0.0852,1.0085,0.1336,0.118,0.1866,0.2753,-3.0712,-2.1613,-6.3525,7.548197286299218,-5.098958155453626,-16.902919124024343,6.01600000000326
-0.0821,1.0046,0.1338,0.118,0.1866,0.2801,-3.0712,-2.1613,-6.3525,7.576306264166732,-4.963331133962473,-16.743083023279283,6.025999999998021
-0.0811,1.0028,0.1308,0.1178,0.1869,0.2801,-2.66,-2.3363,-6.4925,7.474444430520461,-4.829308903821126,-16.57565219304649,6.025999999998021
-0.0857,0.9942,0.1451,0.1178,0.1869,0.2801,-3.0013,-2.3363,-6.8863,8.07991984460171,-4.851630855700019,-16.4208212616262,6.036000000007334
-0.0924,0.9822,0.1469,0.1193,0.1873,0.2846,-2.8087,-2.0125,-6.86,8.384968314527946,-5.0733910980772245,-16.26433301949466,6.045999999987544
-0.0924,0.9822,0.1469,0.1193,0.1873,0.2846,-2.8087,-2.0125,-6.86,8.471738940518712,-5.189130418911743,-16.109409659806904,6.055999999996857
-0.0969,0.9808,0.1474,0.1187,0.1865,0.2812,-1.925,-1.9075,-6.3263,8.518256347370064,-5.297259458292861,-15.954996033705337,6.065999999991618
-0.0889,0.9905,0.1448,0.1187,0.1865,0.2812,-0.875,-2.5638,-6.6762,8.444258325478408,-5.203328864152915,-15.808623913880556,6.076000000000931
-0.0844,0.998,0.1443,0.1187,0.1865,0.2812,-0.105,-2.3625,-6.7288,8.409910437266856,-5.01913109869492,-15.66172264523589,6.085999999995693
-0.078,1.0013,0.1459,0.1182,0.1894,0.2738,-0.105,-2.3625,-6.7288,8.390964750975018,-4.75036386471211,-15.50510541878353,6.085999999995693
-0.078,1.0013,0.1459,0.1182,0.1894,0.2738,0.6825,-1.3913,-6.3963,8.341232505375677,-4.643706456561141,-15.351624455097157,6.096000000005006
-0.072,1.0008,0.133,0.1193,0.1874,0.2786,1.2513,-0.2013,-5.7838,7.8730409735836835,-4.565768727584316,-15.187897301051535,6.105999999999767
-0.0754,1.0002,0.1379,0.1193,0.1874,0.2786,1.2513,0.805,-5.9237,7.859066345722476,-4.559909755499845,-15.03601832804102,6.105999999999767
-0.0798,0.9972,0.1352,0.1193,0.1874,0.2786,1.575,0.805,-5.9237,7.769177751570828,-4.559394751701227,-14.86548486527118,6.1159999999945285
-0.0822,1.0015,0.1292,0.1194,0.1867,0.2734,2.4675,1.1375,-5.9588,7.462145463848285,-4.560773737843556,-14.69336498713076,6.12599999998929
-0.0877,1.0131,0.1329,0.1194,0.1867,0.2734,1.6187,1.155,-5.635,7.469582962376572,-4.6421921497759655,-14.522793057737438,6.135999999998603
-0.0877,1.0131,0.1329,0.117,0.1875,0.2755,1.6187,1.155,-5.635,7.4721372001552195,-4.704392609934203,-14.353926847672446,6.145999999993364
-0.0939,1.0099,0.127,0.117,0.1875,0.2755,1.785,1.0063,-5.2238,7.266540340684609,-4.94151859477388,-14.188221429675076,6.1560000000026776
-0.0955,1.0081,0.1257,0.117,0.1875,0.2755,1.4612,0.1312,-4.935,7.165259743624774,-5.15686200094163,-14.046339215378325,6.1560000000026776
-0.0916,1.0101,0.1225,0.118,0.1867,0.2726,0.91,-0.9013,-5.4075,7.02847526770198,-5.15242562878594,-13.90259491372626,6.165999999997439
-0.0843,1.0125,0.1195,0.118,0.1867,0.2726,0.91,-0.9013,-5.4075,6.866120903006497,-5.003804901572162,-13.760288055090715,6.1759999999922
-0.0843,1.0125,0.1195,0.1198,0.1874,0.2744,1.19,-2.135,-5.46,6.7855214852577115,-4.91345500258282,-13.63340443914199,6.187999999994645
-0.0819,1.0097,0.121,0.1198,0.1874,0.2744,0.2537,-2.0387,-5.7488,6.802517659636666,-4.863001806306101,-13.504251810193326,6.1969999999855645
-0.0837,1.0043,0.1216,0.1198,0.1874,0.2755,-0.315,-2.135,-6.1512,6.804684099680931,-4.840124353700269,-13.370995836211256,6.1990000000078
-0.0817,1.002,0.1253,0.1199,0.1863,0.2755,-0.315,-2.135,-6.1512,6.8116010074238895,-4.803289475920409,-13.246218598344463,6.209000000002561
-0.0777,1.0011,0.1221,0.1199,0.1863,0.2755,-0.0525,-2.0125,-6.0637,6.839178003048681,-4.760762297548382,-13.121476382856974,6.2189999999973224
-0.0705,1.0005,0.1251,0.1184,0.1854,0.2774,0.245,-0.875,-5.6875,6.939920779592176,-4.605401157318365,-12.990261619028404,6.2189999999973224
-0.0705,1.0005,0.1251,0.1184,0.1854,0.2774,0.0437,-0.2625,-5.7312,6.987090230639496,-4.499124521846024,-12.850753973343151,6.228999999992084
-0.0632,1.0083,0.1264,0.1185,0.1862,0.2764,0.0437,-0.2625,-5.7312,7.02695209131862,-4.334156039517239,-12.712641404100774,6.239000000001397
-0.0506,1.0074,0.1306,0.1185,0.1862,0.2764,-0.63,0.56,-5.7838,7.117594544901196,-4.129484643894284,-12.567767210569063,6.248999999996158
-0.0335,1.0066,0.133,0.1185,0.1862,0.2764,-1.4438,2.9137,-6.3,7.33651857889881,-3.5414218187168713,-12.40104012892514,6.2590000000054715
0.0083,1.0092,0.145,0.1203,0.1882,0.276,-2.6337,6.3963,-7.4462,7.924839466222948,-1.1352869132432413,-12.201502578175456,6.269000000000233
0.0083,1.0092,0.145,0.1203,0.1882,0.276,-2.6337,6.3963,-7.4462,8.100953230934612,-0.17369146347134454,-12.0794875523937,6.269000000000233
0.0746,1.0095,0.1526,0.1208,0.1872,0.2746,-4.0075,12.7312,-7.3763,8.490973081735214,2.389517862970554,-11.820450017241015,6.279000000009546
0.1457,1.002,0.1532,0.1208,0.1872,0.2746,-5.2325,24.4825,-5.95,8.658879919730133,2.4242342435808424,-11.447664988072434,6.2889999999897555
0.2022,0.9887,0.1531,0.1208,0.1872,0.2746,-5.2325,24.4825,-4.7425,8.778176797225333,7.336855406072032,-11.078607808454613,6.298999999999069
0.2316,0.9828,0.1388,0.1247,0.1893,0.2733,-5.1013,41.0638,-4.7425,8.165991362713655,10.500832682193389,-10.54908633108943,6.30899999999383
0.2455,0.9856,0.121,0.1247,0.1893,0.2733,-3.0975,61.2675,-5.0487,7.305792118841391,12.100267442072209,-10.443595467778536,6.30899999999383
0.2455,0.9856,0.121,0.1322,0.187,0.265,-1.2337,83.5362,-6.3787,7.157121276344098,12.64160018046663,-9.499947352819174,6.319000000003143
0.2497,0.9822,0.1107,0.1322,0.187,0.265,-1.2337,83.5362,-6.3787,6.804912942672147,13.10706266443841,-8.56573572023062,6.3289999999979045
0.2361,0.9911,0.0784,0.1322,0.187,0.265,2.1175,108.01,-8.7413,5.191995030639115,13.292685261216397,-7.398575582521087,6.339000000007218
0.2136,0.9916,0.055,0.145,0.1879,0.2559,4.935,131.4075,-11.0513,3.4986089773761813,12.327231299817628,-7.324589826695876,6.339000000007218
0.1922,0.9919,0.0344,0.145,0.1879,0.2559,6.5625,153.2825,-12.2063,2.178790136381374,11.148130580587399,-5.721643399730279,6.349000000001979
0.1922,0.9919,0.0344,0.1564,0.1898,0.2485,6.5625,153.2825,-12.2063,2.0107807793949988,10.985772164691483,-4.134726437034339,6.35899999999674
0.1661,0.9897,-0.0013,0.1564,0.1898,0.2485,8.1725,173.775,-12.4687,0.14512094103841378,9.720931685163848,-2.3608028940716386,6.368999999991502
0.124,0.9908,-0.0271,0.1564,0.1906,0.2213,9.065,192.8062,-12.2675,-1.4014749536736917,7.484573944326733,-0.4162097038418654,6.379000000000815
0.0748,0.9795,-0.0612,0.1734,0.1906,0.2213,9.835,208.9937,-11.34,-3.3799019891077124,4.847233851071036,-0.41204760680344676,6.379000000000815
0.047,0.9713,-0.0839,0.1734,0.1906,0.2213,9.835,208.9937,-11.34,-4.796986624630071,3.0863739507574106,1.6733142776742898,6.388999999995576
-0.0214,0.9807,-0.108,0.1861,0.1899,0.1959,12.3988,224.4025,-9.7475,-6.175764324268376,-0.3413553992921034,3.8903696664779246,6.399000000004889
-0.0214,0.9807,-0.108,0.1861,0.1899,0.1959,13.51,236.3025,-8.0325,-6.27705995285458,-0.9507638567992556,6.203064498081216,6.408999999999651
-0.0733,0.987,-0.1225,0.1982,0.1914,0.1746,14.1663,244.9563,-5.775,-7.02338322510396,-1.4226026625893295,8.578305001323592,6.418999999994412
-0.1152,1.0024,-0.1222,0.1982,0.1914,0.1746,14.1663,244.9563,-5.775,-6.955200292200192,-2.1576903150865134,8.492521951310357,6.418999999994412
-0.1385,1.0077,-0.1302,0.1982,0.1914,0.1746,12.2762,249.5937,-4.655,-7.332132946431139,-5.313640691219199,10.89077813999639,6.428999999989173
-0.1728,1.0233,-0.1397,0.2116,0.1915,0.147,10.8062,254.6512,-2.905,-7.737398303537935,-8.462286270170205,13.3151210204557,6.438999999998487
-0.1728,1.0233,-0.1553,0.2116,0.1915,0.147,9.205,257.0487,-0.105,-8.544595269857657,-9.329757870766613,15.738955718411617,6.448999999993248
-0.197,1.0329,-0.143,0.2191,0.1885,0.1262,9.205,257.0487,-0.105,-7.945313018629089,-10.498282815167627,18.13855207310888,6.459000000002561
-0.2137,1.0273,-0.153,0.2191,0.1885,0.1262,6.7463,257.2062,2.135,-8.405636378497086,-11.502186361975555,17.957166552377792,6.459000000002561
-0.2234,1.0259,-0.1509,0.2191,0.1885,0.1262,6.0813,256.48,5.11,-8.372805206197018,-12.10366449481396,22.114899710103106,6.475999999995111
-0.232,1.03,-0.1581,0.2227,0.1901,0.0952,6.0813,256.48,8.0063,-8.678550570232233,-12.521411894499055,23.679699758087743,6.482999999992899
-0.2374,1.0374,-0.1607,0.2227,0.1901,0.0952,5.6525,255.3163,8.0063,-8.787223486365392,-12.727957850383829,25.982737912372272,6.493000000002212
-0.2374,1.0374,-0.1607,0.2264,0.1874,0.0742,5.6175,252.8838,9.5988,-8.802856393989558,-12.741868721613871,25.722910533248548,6.493000000002212
-0.2427,1.0346,-0.1543,0.2264,0.1874,0.0742,4.83,249.8387,10.7537,-8.534866129577587,-13.044373109361857,27.95128833611393,6.502999999996973
-0.2655,1.0119,-0.1505,0.2264,0.1874,0.0742,4.83,249.8387,10.7537,-8.471887258238675,-14.463617014185521,30.157382360950656,6.5129999999917345
-0.3061,0.9769,-0.1442,0.2227,0.1874,0.0487,4.8387,246.4525,12.1538,-8.409031480706762,-17.07790040916975,32.307892069124826,6.523000000001048
-0.3518,0.9861,-0.1407,0.2227,0.1874,0.0487,6.4225,240.5638,13.5975,-8.157757110470795,-19.336709637576387,31.984813148433577,6.523000000001048
-0.3518,0.9861,-0.1324,0.2178,0.1856,0.0229,8.19,231.5513,14.5688,-7.701001231693939,-19.46655448390361,33.96952666859553,6.533000000010361
-0.3875,1.0063,-0.1324,0.2178,0.1856,0.0229,8.19,231.5513,14.5688,-7.517094863435874,-20.829592521865198,35.93439304684871,6.54299999999057
-0.4102,1.0183,-0.121,0.2134,0.1817,0.0028,9.345,219.835,14.3763,-6.846049301140535,-21.756493414220774,37.76361939791849,6.552999999999884
-0.4096,1.0294,-0.1139,0.2134,0.1817,0.0028,9.4675,205.6075,13.1425,-6.3633732296400005,-21.587084476011427,39.433701232366566,6.562999999994645
-0.3923,1.0363,-0.1025,0.2134,0.1817,0.0028,8.2863,191.8087,11.165,-5.7233307304633,-20.6945655384441,40.950474131322764,6.573000000003958
-0.3826,1.0454,-0.0947,0.2072,0.1817,-0.0136,8.2863,191.8087,11.165,-5.233265235698412,-20.063283433920336,40.540969390009536,6.573000000003958
-0.3826,1.0454,-0.0947,0.2072,0.1817,-0.0136,6.335,178.0538,8.1112,-5.18363243891778,-20.028836537505672,41.91049609467961,6.582999999998719
-0.372,1.0702,-0.0741,0.2015,0.1818,-0.0278,3.5438,165.6725,5.53,-4.213614752035076,-19.197390978031116,43.14375266477169,6.593000000008033
-0.3689,1.0685,-0.0577,0.2015,0.1818,-0.0278,0.7788,154.8488,2.415,-3.6328337182915185,-19.040323744091157,44.257522036814485,6.603000000002794
-0.3667,1.0535,-0.0551,0.2015,0.1818,-0.0278,0.7788,154.8488,2.415,-3.3023010532695483,-19.153992552613378,45.36015371513685,6.612999999997555
-0.3789,1.0445,-0.0615,0.1969,0.1817,-0.044,-1.435,144.13,-0.49,-3.338220058441083,-19.790197383326063,44.90655217798548,6.612999999997555
-0.3789,1.0445,-0.0608,0.1969,0.1817,-0.044,-1.2163,133.3412,-2.7738,-3.3349506295998146,-19.879420067842982,45.78976831500769,6.622999999992317
-0.4142,1.0396,-0.0608,0.1914,0.1785,-0.0538,-1.12,120.1637,-3.78,-3.3404385934720313,-21.11763725912338,46.53369504247691,6.63300000000163
-0.4276,1.0305,-0.0577,0.1914,0.1785,-0.0538,-1.12,120.1637,-3.78,-3.279033880654105,-22.065825122839307,47.270182500922544,6.642999999996391
-0.4279,1.011,-0.0606,0.1914,0.1785,-0.0538,-1.0325,105.4375,-4.48,-3.3433095433319386,-22.56345777693524,47.85351570639683,6.653000000005704
-0.4214,1.0022,-0.0564,0.1856,0.1821,-0.0731,-1.5488,89.6875,-5.0925,-3.275218002329934,-22.659909178496427,47.37498054933286,6.653000000005704
-0.4066,1.0086,-0.0504,0.1856,0.1821,-0.0731,-1.5488,89.6875,-5.6875,-3.044469811775528,-22.511172166134713,47.801340772867995,6.663000000000466
-0.4066,1.0086,-0.0504,0.1834,0.1786,-0.0653,-1.4088,75.3025,-5.6875,-2.9475639322750298,-22.392795086605656,48.08102589424238,6.672999999995227
-0.3981,1.0302,-0.0407,0.1834,0.1786,-0.0653,-2.1962,61.5737,-6.1863,-2.498414385678183,-22.14315563709615,48.221999044474224,6.682999999989988
-0.3711,1.039,-0.0247,0.1834,0.1786,-0.0653,-3.85,49.6825,-6.65,-1.6112504044467253,-21.111416119306007,48.24383958399893,6.6929999999993015
-0.3554,1.0454,-0.02,0.1829,0.1795,-0.0722,-3.85,49.6825,-6.65,-1.2090840505197162,-20.143704390973355,47.761401188158935,6.6929999999993015
-0.3384,1.0483,-0.0136,0.1829,0.1795,-0.0722,-4.76,39.41,-6.0988,-0.8284836457346625,-19.841422889891042,47.686149955566556,6.702999999994063
-0.3384,1.0327,-0.0099,0.1792,0.18,-0.0754,-6.5887,30.5812,-6.4837,-0.5875247018969287,-19.2458535915092,47.52424611580422,6.713000000003376
-0.3254,1.0429,-0.0099,0.1792,0.18,-0.0754,-7.9975,22.3913,-6.5275,-0.5488930325216241,-18.539105119959014,47.282881304023654,6.722999999998137
-0.3121,1.0382,-0.0106,0.1806,0.1795,-0.0725,-7.9975,22.3913,-6.5275,-0.5808238616778406,-17.872751230611893,46.810052490983416,6.722999999998137
-0.292,1.0248,-0.009,0.1806,0.1795,-0.0725,-8.9862,15.3475,-6.125,-0.5111813989921397,-17.570891562403965,46.506095995726454,6.733000000007451
-0.2774,1.0097,-0.0142,0.1806,0.1795,-0.0725,-9.5288,8.7762,-6.7288,-0.7769540926993366,-16.599015111503014,46.14012319507309,6.74299999998766
-0.2643,1.002,-0.0117,0.1814,0.1785,-0.069,-8.8725,3.675,-6.9563,-0.6802624210766284,-15.681683111433589,45.727308242667604,6.752999999996973
-0.2643,1.002,-0.0117,0.1814,0.1785,-0.069,-8.8725,3.675,-6.9563,-0.6701686840833296,-15.2258279145429,45.31862143971547,6.7629999999917345
-0.249,0.9978,-0.0142,0.1797,0.178,-0.0714,-7.9363,-0.455,-7.1575,-0.7985429556157247,-14.55957651802941,44.87313450482549,6.773000000001048
-0.2407,0.9995,-0.0153,0.1797,0.178,-0.0714,-6.4837,-4.06,-6.8425,-0.8660849957417862,-14.076392018869642,44.3964129392919,6.782999999995809
-0.2318,1.0033,-0.0061,0.1797,0.178,-0.0714,-5.3725,-6.825,-7.0525,-0.43351289234005963,-13.515215378062017,43.95244880989898,6.782999999995809
-0.2231,1.0055,-0.0071,0.1778,0.178,-0.0746,-5.3725,-6.825,-7.0525,-0.4093292884890884,-12.986632283987047,43.457560601248424,6.793000000005122
-0.2231,1.0055,-0.0055,0.1778,0.178,-0.0746,-4.6463,-8.61,-7.3675,-0.3313200351419423,-12.706622324197959,42.949949774774204,6.802999999999884
-0.2176,1.0143,-0.0055,0.1818,0.1779,-0.069,-4.2175,-9.7125,-7.8313,-0.31487216958911096,-12.315383140268798,42.43650030657044,6.812999999994645
-0.2028,1.0171,-0.0073,0.1818,0.1779,-0.069,-4.2525,-10.78,-7.665,-0.39179269350666907,-11.658020896376982,41.917617083054246,6.822999999989406
-0.2029,1.0211,-0.0059,0.1818,0.1779,-0.069,-4.2525,-10.78,-7.665,-0.343302892709861,-11.392685427635339,41.4984409122237,6.822999999989406
-0.1964,1.0171,-0.003,0.1823,0.179,-0.0735,-4.0425,-10.955,-7.0087,-0.20569781522521763,-11.153647361737677,40.98720578251182,6.832999999998719
-0.1937,1.0154,-0.0044,0.1823,0.179,-0.0735,-3.8588,-10.3775,-6.0988,-0.23895058955631224,-11.106234721316936,40.48680025423413,6.842999999993481
-0.1937,1.0154,-0.0044,0.181,0.1787,-0.069,-3.8588,-10.3775,-4.8913,-0.24623380373549122,-10.949196225287885,39.99139878110748,6.853000000002794
-0.1935,1.0139,-0.0008,0.181,0.1787,-0.069,-3.7538,-10.1763,-4.8913,-0.09027442036713858,-10.875149492623365,39.5914847932964,6.853000000002794
-0.1947,1.0116,-0.007,0.181,0.1787,-0.069,-4.13,-9.6337,-3.6312,-0.33316163292691103,-10.888376247117607,39.11240009490701,6.862999999997555
-0.1904,1.0117,-0.0026,0.1814,0.177,-0.0656,-4.34,-9.0475,-3.1412,-0.18408372411775847,-10.718768979360908,38.643909623498466,6.872999999992317
-0.1927,1.0119,-0.0032,0.1814,0.177,-0.0656,-4.34,-9.0475,-3.1412,-0.1817631496195956,-10.765301248822057,38.18010405680401,6.882999999987078
-0.1927,1.0119,-0.0031,0.1807,0.1763,-0.0687,-4.5588,-8.505,-2.8,-0.17671177444237787,-10.777899594794397,37.726307295668924,6.892999999996391
-0.1956,1.0128,-0.0031,0.1807,0.1763,-0.0687,-4.3925,-7.7175,-2.94,-0.17563441584981312,-10.892606833286049,37.34904422271224,6.892999999996391
-0.1925,1.0104,0.0001,0.1818,0.1755,-0.0586,-3.9725,-7.3063,-3.0975,-0.033074976042602774,-10.814191324867975,36.91542519001661,6.902999999991152
-0.192,1.0088,-0.0027,0.1818,0.1755,-0.0586,-3.9725,-7.3063,-3.0975,-0.1276457948156296,-10.785861092346792,36.486142347560445,6.913000000000466
-0.1926,1.0086,-0.0035,0.1818,0.1755,-0.0586,-3.5963,-6.4138,-2.94,-0.1822835433054665,-10.804614975809605,36.06998808361171,6.922999999995227
-0.1909,1.0078,-0.0009,0.1815,0.1763,-0.0611,-3.1412,-5.9938,-3.0625,-0.08524036197485366,-10.746271994300164,35.709288202775596,6.922999999995227
