AcclX,AcclY,AcclZ,MagX,MagY,MagZ,GyroX,GyroY,GyroZ,Roll,Pitch,Yaw,Time Elapsed(s)
-0.2256,1.0003,0.0653,0.1842,0.1873,-0.0607,-2.1613,-0.3413,-4.8475,0,0,0,0.0
-0.2236,1.0039,0.0609,0.1877,0.1874,-0.0647,-1.6275,-0.4988,-5.04,0,0,0,0.00999999999476131
-0.2231,1.0031,0.0645,0.1877,0.1874,-0.0647,-1.5925,-0.1488,-5.0575,0,0,0,0.020000000004074536
-0.2252,1.002,0.0647,0.1877,0.1874,-0.0647,-1.5925,-0.1488,-5.0575,0,0,0,0.029999999998835847
-0.2205,1.0029,0.0681,0.1866,0.1867,-0.0515,-1.1988,-0.56,-5.1712,0,0,0,0.04000000000814907
-0.2205,1.0029,0.0622,0.1866,0.1867,-0.0515,-1.1287,-0.5337,-5.1013,0,0,0,0.04000000000814907
-0.2263,1.0039,0.0622,0.185,0.1854,-0.061,-1.6013,-0.2713,-5.1625,0,0,0,0.05000000000291038
-0.2242,1.0037,0.0637,0.185,0.1854,-0.061,-1.6013,-0.2713,-5.1625,0,0,0,0.059999999997671694
-0.2278,1.0047,0.0629,0.185,0.1854,-0.061,-1.05,-0.5688,-4.9088,0,0,0,0.069999999992433
-0.2228,1.0046,0.0645,0.1842,0.1858,-0.0582,-0.455,-0.9363,-5.7575,0,0,0,0.08000000000174623
-0.2233,1.0014,0.0583,0.1842,0.1858,-0.0582,-0.63,-1.1988,-5.775,0,0,0,0.08000000000174623
-0.2233,1.0014,0.0583,0.1858,0.1868,-0.0585,-0.63,-1.1988,-5.775,0,0,0,0.09000000001105946
-0.2214,1.0062,0.0645,0.1858,0.1868,-0.0585,-1.3038,-0.84,-5.8625,0,0,0,0.10000000000582077
-0.2197,1.0092,0.0658,0.1858,0.1868,-0.0585,-1.1113,-0.595,-5.775,0,0,0,0.11000000000058208
-0.2172,1.0074,0.0679,0.1854,0.1871,-0.0529,-0.8575,-0.42,-5.8362,0,0,0,0.11999999999534339
-0.2231,1.006,0.0653,0.1854,0.1871,-0.0529,-0.8575,-0.42,-5.8362,0,0,0,0.11999999999534339
-0.2231,1.006,0.0647,0.1846,0.1854,-0.0583,-1.1988,-0.77,-5.8362,0,0,0,0.1300000000046566
-0.223,0.9957,0.0647,0.1846,0.1854,-0.0583,-0.4112,-1.0325,-5.7925,0,0,0,0.13999999999941792
-0.2247,0.9963,0.0636,0.1846,0.1868,-0.0678,-0.4112,-1.0325,-5.7925,0,0,0,0.15000000000873115
-0.2262,1.0014,0.0638,0.1845,0.1868,-0.0678,-0.315,-1.0762,-5.9763,0,0,0,0.16000000000349246
-0.2245,1.0043,0.0683,0.1845,0.1868,-0.0678,0.07,-1.2513,-6.09,0,0,0,0.16000000000349246
-0.2211,1.0063,0.0667,0.1838,0.1853,-0.056,0.2625,-1.2862,-6.3088,0,0,0,0.17000000001280569
-0.2211,1.0063,0.0667,0.1838,0.1853,-0.056,0.2625,-1.2862,-6.3088,0,0,0,0.180000000007567
-0.2241,1.0079,0.0642,0.1854,0.1866,-0.065,0.0875,-1.0412,-6.0375,0,0,0,0.1900000000023283
-0.225,1.0094,0.0661,0.1854,0.1866,-0.065,-0.2713,-1.1812,-6.65,0,0,0,0.19999999999708962
-0.227,1.0102,0.0631,0.1854,0.1866,-0.065,-0.735,-0.84,-7.0963,0,0,0,0.19999999999708962
-0.2266,1.0092,0.0651,0.1862,0.1868,-0.0536,-0.735,-0.84,-7.0963,0,0,0,0.21000000000640284
-0.2266,1.0092,0.0495,0.1862,0.1868,-0.0536,-0.805,-1.0588,-7.3763,0,0,0,0.22000000000116415
-0.2287,1.0049,0.0569,0.188,0.1898,-0.061,-1.0588,-0.7262,-6.8688,0,0,0,0.23000000001047738
-0.2319,1.0056,0.0653,0.188,0.1898,-0.061,-0.6737,-1.0762,-6.6937,0,0,0,0.2400000000052387
-0.2346,1.0078,0.0673,0.188,0.1898,-0.061,-0.6737,-1.0762,-6.6937,0,0,0,0.2400000000052387
-0.2292,1.006,0.0659,0.1859,0.1838,-0.067,-1.3388,-0.945,-6.7112,0,0,0,0.2500000000145519
-0.234,1.003,0.0622,0.1859,0.1838,-0.067,-1.8112,-0.7088,-6.79,0,0,0,0.2599999999947613
-0.234,1.003,0.0622,0.1871,0.1858,-0.0598,-1.1638,-0.8662,-6.4662,0,0,0,0.27000000000407454
-0.2319,1.0039,0.0678,0.1871,0.1858,-0.0598,-1.1638,-0.8662,-6.4662,0,0,0,0.27999999999883585
-0.2321,1.0035,0.0626,0.1871,0.1858,-0.0598,-1.7325,-1.19,-6.2125,0,0,0,0.27999999999883585
-0.235,1.0044,0.0695,0.186,0.186,-0.0669,-1.3913,-0.8313,-6.2562,0,0,0,0.2900000000081491
-0.2361,1.0027,0.0657,0.186,0.186,-0.0669,-1.3913,-0.8313,-6.0113,0,0,0,0.3000000000029104
-0.2361,1.0027,0.0657,0.1866,0.1869,-0.0608,-1.5662,-0.7875,-6.0113,0,0,0,0.3100000000122236
-0.2311,1.0036,0.0706,0.1866,0.1869,-0.0608,-1.0325,-0.84,-5.5563,0,0,0,0.319999999992433
-0.2326,1.0027,0.0672,0.1866,0.1869,-0.0571,-1.26,-0.7613,-5.6788,0,0,0,0.319999999992433
-0.2308,0.9992,0.0675,0.1877,0.1878,-0.0571,-1.26,-0.7613,-5.6788,0,0,0,0.33000000000174623
-0.2303,1.0004,0.0704,0.1877,0.1878,-0.0571,-1.0762,-0.4025,-5.425,0,0,0,0.33999999999650754
-0.2322,1.0062,0.0689,0.1872,0.187,-0.0644,-1.19,-0.4288,-4.865,0,0,0,0.35000000000582077
-0.2322,1.0062,0.0689,0.1872,0.187,-0.0644,-1.0675,-0.105,-4.655,0,0,0,0.3600000000005821
-0.2295,1.0121,0.0675,0.1866,0.1881,-0.0664,-1.0675,-0.105,-4.655,0,0,0,0.3650000000052387
-0.2255,1.0102,0.0704,0.1866,0.1881,-0.0664,-1.4525,-0.0613,-4.3225,0,0,0,0.3750000000145519
-0.2289,1.0056,0.0691,0.1866,0.1881,-0.0664,-1.925,0.4812,-4.4012,0,0,0,0.3800000000046566
-0.2316,0.9999,0.0703,0.1834,0.1862,-0.0537,-1.5488,0.07,-4.725,0,0,0,0.3899999999994179
-0.2316,0.9999,0.0703,0.1834,0.1862,-0.0537,-1.5488,0.07,-4.725,0,0,0,0.39999999999417923
-0.2281,0.9989,0.0726,0.1852,0.1863,-0.0601,-1.2337,-0.2713,-4.76,0,0,0,0.40499999999883585
-0.2286,0.9975,0.069,0.1852,0.1863,-0.0601,-1.3913,-0.3237,-4.5237,0,0,0,0.4150000000081491
-0.2315,1.0015,0.0705,0.1852,0.1863,-0.0601,-1.1375,-0.6475,-4.1213,0,0,0,0.41999999999825377
-0.23,1.0036,0.0677,0.1863,0.1862,-0.0651,-1.1375,-0.6475,-4.1213,0,0,0,0.430000000007567
-0.23,1.0041,0.0737,0.1863,0.1862,-0.0651,-0.525,-0.4725,-4.41,0,0,0,0.4350000000122236
-0.2276,1.0041,0.0737,0.1841,0.1871,-0.0608,-1.12,-0.3762,-4.4012,0,0,0,0.4450000000069849
-0.2266,1.0049,0.0676,0.1841,0.1871,-0.0608,-1.12,-0.9013,-4.8125,0,0,0,0.45500000000174623
-0.2256,1.0027,0.0688,0.1841,0.1871,-0.0608,-0.6913,-0.9013,-4.8125,0,0,0,0.4599999999918509
-0.2296,1.003,0.0695,0.1872,0.1865,-0.0611,-0.8138,-0.665,-4.9262,0,0,0,0.47000000000116415
-0.2263,1.0006,0.0697,0.1872,0.1865,-0.0611,-1.2425,-0.6737,-4.6638,0,0,0,0.47500000000582077
-0.2263,1.0006,0.0697,0.1851,0.1876,-0.0649,-1.2425,-0.6737,-4.6638,0,0,0,0.4850000000005821
-0.2272,1.0008,0.0686,0.1851,0.1876,-0.0649,-0.7525,-0.4988,-4.9437,0,0,0,0.4950000000098953
-0.23,1.0023,0.0675,0.1851,0.1876,-0.0649,-0.4025,-0.9975,-5.0838,0,0,0,0.5
-0.2292,1.0022,0.0709,0.185,0.1852,-0.0526,-0.63,-1.2425,-5.215,0,0,0,0.510999999998603
-0.2263,1.003,0.0708,0.185,0.1852,-0.0526,-0.63,-1.2425,-5.215,0,0,0,0.5160000000032596
-0.2263,1.0024,0.0689,0.1862,0.1851,-0.0634,-0.0962,-0.7962,-5.25,0,0,0,0.5260000000125729
-0.2268,1.0024,0.0689,0.1862,0.1851,-0.0634,0.2537,-0.98,-5.3725,0,0,0,0.5320000000065193
-0.2284,1.0038,0.0691,0.1857,0.1847,-0.0545,-0.2275,-1.1375,-5.6,0,0,0,0.5420000000012806
-0.2255,1.0013,0.071,0.1857,0.1847,-0.0545,-0.2275,-1.1375,-5.6,0,0,0,0.5480000000097789
-0.2298,1.0013,0.0677,0.1857,0.1847,-0.0545,-0.0263,-0.8487,-5.81,0,0,0,0.5580000000045402
-0.2272,1.0013,0.0657,0.1859,0.1871,-0.0621,-0.0787,-1.3388,-5.67,0,0,0,0.5629999999946449
-0.2272,1.0013,0.0657,0.1859,0.1871,-0.0621,0.385,-0.84,-5.285,0,0,0,0.5739999999932479
-0.2314,1.003,0.0657,0.1859,0.1872,-0.057,0.385,-0.84,-5.285,0,0,0,0.5789999999979045
-0.2291,1.006,0.0679,0.1859,0.1872,-0.057,0.175,-1.0762,-5.4338,0,0,0,0.5889999999926658
-0.2309,1.0063,0.0642,0.1859,0.1872,-0.057,0.315,-0.9887,-5.145,0,0,0,0.5990000000019791
-0.2272,1.0048,0.0666,0.1856,0.1866,-0.0674,0.2275,-1.015,-5.1712,0,0,0,0.6040000000066357
-0.2272,1.0048,0.0667,0.1856,0.1866,-0.0674,0.2275,-1.015,-5.1712,0,0,0,0.614000000001397
-0.2278,1.0071,0.0667,0.1842,0.1842,-0.0612,0.1838,-1.1988,-5.145,0,0,0,0.6190000000060536
-0.2271,1.0071,0.067,0.1842,0.1842,-0.0612,0.3588,-0.7437,-4.76,0,0,0,0.6290000000008149
-0.2288,1.0063,0.0641,0.1842,0.1842,-0.0612,0.3588,-0.7437,-4.8825,0,0,0,0.6390000000101281
-0.2274,1.0067,0.0645,0.1836,0.187,-0.0571,0.1488,-0.9363,-4.8825,0,0,0,0.6440000000002328
-0.2275,1.008,0.0659,0.1836,0.187,-0.0571,0.1838,-1.1287,-4.6813,0,0,0,0.6539999999949941
-0.2275,1.008,0.0659,0.1853,0.1867,-0.058,-0.4288,-1.5313,-4.2787,0,0,0,0.6589999999996508
-0.2302,1.0069,0.0629,0.1853,0.1867,-0.058,-0.4288,-1.5313,-4.2787,0,0,0,0.6699999999982538
-0.227,1.0048,0.0642,0.1853,0.1867,-0.058,-0.35,-0.77,-4.585,0,0,0,0.6750000000029104
-0.2214,1.0059,0.0692,0.185,0.1881,-0.0564,-0.5163,-1.6013,-4.3575,0,0,0,0.6860000000015134
-0.2262,1.0049,0.0644,0.185,0.1881,-0.0564,-0.7,-1.1375,-4.445,0,0,0,0.69100000000617
-0.2262,1.0049,0.0683,0.1857,0.1855,-0.0699,-0.7,-1.1375,-4.445,0,0,0,0.7010000000009313
-0.2257,1.0049,0.0683,0.1857,0.1855,-0.0699,-1.0237,-0.875,-4.4363,0,0,0,0.7079999999987194
-0.2264,1.006,0.0682,0.1838,0.1859,-0.0664,-1.1812,-0.8313,-4.2787,0,0,0,0.7180000000080327
-0.2234,1.0041,0.0659,0.1838,0.1859,-0.0664,-1.4963,-0.6562,-4.2787,0,0,0,0.7240000000019791
-0.2202,1.0016,0.069,0.1838,0.1859,-0.0664,-1.4963,-0.6562,-4.2787,0,0,0,0.7339999999967404
-0.2261,1.0051,0.0673,0.1836,0.1843,-0.062,-1.505,-0.5863,-4.4275,0,0,0,0.739000000001397
-0.2261,1.0051,0.0673,0.1836,0.1843,-0.062,-1.4438,0.0,-4.3575,0,0,0,0.75
-0.2239,1.0049,0.0708,0.1839,0.1857,-0.0628,-0.945,-0.6037,-4.5675,0,0,0,0.7550000000046566
-0.2235,1.0031,0.073,0.1839,0.1857,-0.0628,-0.945,-0.6037,-4.5675,0,0,0,0.7660000000032596
-0.2217,1.0007,0.0648,0.1839,0.1857,-0.0628,-0.5863,-0.2975,-4.6287,0,0,0,0.7710000000079162
-0.227,1.0019,0.0676,0.1848,0.1856,-0.0563,-0.6212,0.0088,-4.6025,0,0,0,0.7810000000026776
-0.227,1.0019,0.0696,0.1848,0.1856,-0.0563,-0.6212,0.0175,-4.655,0,0,0,0.7910000000119908
-0.2249,1.0017,0.0696,0.1833,0.1856,-0.061,-0.0875,0.0175,-4.655,0,0,0,0.7960000000020955
-0.2269,1.0029,0.0694,0.1833,0.1856,-0.061,-0.5075,-0.0263,-4.4187,0.6482443841659679,-4.5969529591073375,0.0,0.8070000000152504
-0.2273,1.0022,0.0708,0.1833,0.1856,-0.061,-0.315,0.105,-4.5937,1.5972075337009028,-6.888107126181815,0.0041229193418404935,0.8120000000053551
-0.2241,1.0026,0.0692,0.1865,0.1872,-0.0532,-0.315,0.105,-4.5937,2.254836313515518,-8.485423238171606,0.013152112717270159,0.8230000000039581
-0.2275,1.0043,0.0707,0.1865,0.1872,-0.0532,-0.245,-0.2275,-4.8475,2.8117424275079888,-8.99789260141697,0.015497635935195236,0.8279999999940628
-0.2275,1.0043,0.0707,0.1827,0.1862,-0.0622,0.0088,-0.0962,-4.7512,3.317133339716166,-9.704961161912845,0.02159661828166774,0.838000000003376
-0.2239,1.0035,0.0714,0.1827,0.1862,-0.0622,-0.2975,-0.5425,-4.7075,3.5344073740214212,-10.321801498521003,0.022482005317739872,0.8439999999973224
-0.2287,1.0025,0.0667,0.1827,0.1862,-0.0622,-0.2975,-0.5425,-4.7075,3.6129503940021603,-10.864770670163413,0.024092773963600864,0.8539999999920838
-0.2269,1.0058,0.0666,0.183,0.1842,-0.0607,-0.0525,-0.6913,-5.2675,3.682106056841122,-11.26621781601206,0.024033080574133642,0.8589999999967404
-0.2253,1.0041,0.0647,0.183,0.1842,-0.0607,-0.35,-0.91,-4.7775,3.6833324110668038,-11.49878891363831,0.021990088466713447,0.8690000000060536
-0.2253,1.0041,0.0647,0.1826,0.186,-0.0574,-0.2537,-0.6212,-4.585,3.6844089621849356,-11.819316325749272,0.022298416931000913,0.8739999999961583
-0.2233,1.0037,0.0682,0.1826,0.186,-0.0574,-0.2537,-0.6212,-4.585,3.7473058613214776,-12.01790911785978,0.02323753733154332,0.8849999999947613
-0.2252,1.003,0.0677,0.1826,0.186,-0.0554,0.2625,-0.6475,-4.6112,3.8033933372042816,-12.183472516284668,0.023403206308598597,0.8899999999994179
-0.2228,1.0056,0.0623,0.1835,0.185,-0.0554,-0.2275,-0.77,-4.3313,3.7201217032849487,-12.29648609717643,0.02271084681557082,0.9009999999980209
-0.223,1.0042,0.0645,0.1835,0.185,-0.0554,-0.1575,-0.84,-4.69,3.704215101696912,-12.341765733043946,0.021928907696898384,0.9060000000026776
-0.2184,1.0044,0.0684,0.1834,0.1846,-0.0602,-0.1575,-0.84,-4.69,3.7718802033502077,-12.318629850680077,0.02059995731889595,0.9160000000119908
-0.2184,1.0044,0.0684,0.1834,0.1846,-0.0602,-0.6825,-0.7875,-4.7863,3.774409524196823,-12.305632770473514,0.0200400109660641,0.9220000000059372
-0.2219,1.0059,0.0653,0.1834,0.1851,-0.0604,-0.4462,-1.1025,-4.865,3.7621063323033628,-12.317303366386275,0.01613119955834618,0.9320000000006985
-0.2205,1.0067,0.0605,0.1834,0.1851,-0.0604,-0.5075,-0.7088,-4.795,3.7092254304409793,-12.319800436704197,0.016159106262938944,0.9420000000100117
-0.2212,1.0036,0.0694,0.1834,0.1851,-0.0604,-0.5075,-0.7088,-4.795,3.7495988113094634,-12.332738148816569,0.016111046420195008,0.9480000000039581
-0.2233,0.9995,0.0689,0.1821,0.1852,-0.0579,-0.5337,-0.7962,-4.795,3.7777075401733353,-12.369751734051516,0.015273894655363445,0.9580000000132713
-0.2233,0.9995,0.0689,0.1821,0.1852,-0.0579,-0.5512,-0.9625,-4.8475,3.799587780564267,-12.393291984741857,0.013263226671810855,0.9660000000003492
-0.2294,0.9956,0.0655,0.1826,0.1858,-0.0629,-0.5512,-0.9625,-4.655,3.794893342139627,-12.530890801764695,0.011272665364714236,0.9740000000019791
-0.227,1.0027,0.0645,0.1826,0.1858,-0.0629,-0.2887,-1.26,-4.655,3.7613809115935966,-12.580419907891867,0.006945809670208562,0.9820000000036089
-0.2256,1.0059,0.0642,0.1826,0.1858,-0.0629,0.2975,-1.155,-4.9088,3.706598135876069,-12.582936328876784,0.003493822538970149,0.9899999999906868
-0.2222,1.0097,0.0674,0.1828,0.1849,-0.0643,0.6475,-1.0675,-4.9875,3.7711695884823686,-12.5823816528358,0.0007693552681402945,0.9980000000068685
-0.2271,1.0138,0.0619,0.1828,0.1849,-0.0643,0.6475,-1.0675,-4.9875,3.61189963273037,-12.582440873347613,-0.0019278673201968118,1.0059999999939464
-0.2271,1.0138,0.0619,0.1826,0.1858,-0.061,0.6475,-1.2425,-5.04,3.544149054741679,-12.583549188621307,-0.005984117695238482,1.0140000000101281
-0.2273,1.0143,0.0651,0.1826,0.1858,-0.061,0.3675,-1.4088,-5.2762,3.610432555913859,-12.588602378398102,-0.01131690154957559,1.021999999997206
-0.2248,1.0107,0.0641,0.1826,0.1858,-0.061,-0.1925,-1.6975,-5.3025,3.616682608825981,-12.570915510768273,-0.01888286157564428,1.0299999999988358
-0.2281,1.0072,0.0609,0.1834,0.1859,-0.056,-0.1925,-1.6975,-5.3025,3.563759488646809,-12.61120719780213,-0.02637316200145228,1.0380000000004657
-0.2272,1.0039,0.0651,0.1834,0.1859,-0.056,-0.6388,-1.8637,-5.2762,3.5726404489601284,-12.637195374127257,-0.03510486342327036,1.0460000000020955
-0.2272,1.0039,0.0651,0.1828,0.1848,-0.0722,-0.6737,-1.715,-5.845,3.5766008003043206,-12.678424505252856,-0.04257154383063034,1.0540000000037253
-0.2281,1.0052,0.0664,0.1828,0.1848,-0.0722,-0.0175,-1.8112,-5.6788,3.6590500065911513,-12.711092030955346,-0.051797915568191986,1.0630000000091968
-0.225,1.0029,0.0651,0.1828,0.1848,-0.0722,-0.0175,-1.8112,-5.6788,3.681388147714805,-12.673439426429995,-0.05878711530453165,1.069999999992433
-0.2247,1.0061,0.0616,0.1806,0.1847,-0.0653,-0.8225,-2.1788,-5.3812,3.6624619088724213,-12.643193563554172,-0.06969026921472941,1.0780000000086147
-0.2256,1.0051,0.0659,0.1806,0.1847,-0.0653,-0.595,-1.9863,-5.1975,3.6711414090088144,-12.63990285384044,-0.07895979154648372,1.0859999999956926
-0.2256,1.0051,0.0671,0.1825,0.185,-0.0662,-0.8487,-1.8637,-4.8738,3.689954980867429,-12.638263174226855,-0.0871656266892141,1.0940000000118744
-0.222,1.0051,0.0671,0.1825,0.185,-0.0662,-0.8487,-1.8637,-4.8738,3.7063807114236273,-12.617307486644112,-0.09528940344779198,1.1019999999989523
-0.2192,1.0035,0.0696,0.1834,0.1855,-0.0625,-1.1988,-1.54,-4.69,3.7929013443652626,-12.543546998803812,-0.10076823845462438,1.110000000000582
-0.2211,1.0036,0.0689,0.1834,0.1855,-0.0625,-1.0938,-1.225,-4.8038,3.8306589012638246,-12.520931755558566,-0.10369748511088019,1.118000000002212
-0.2217,1.0017,0.067,0.1834,0.1855,-0.0625,-1.0938,-0.8487,-4.2263,3.829519825996914,-12.49154153853386,-0.10361714329996628,1.1260000000038417
-0.2211,1.0006,0.0717,0.1838,0.1859,-0.0575,-1.5925,-0.8487,-4.2263,3.9561852380868534,-12.464740754266732,-0.10353760490716152,1.1340000000054715
-0.2211,1.0006,0.0717,0.1838,0.1859,-0.0575,-1.3913,-0.5688,-4.0862,4.014245339071314,-12.448016118878359,-0.10124205389783317,1.1420000000071013
-0.2219,0.9988,0.0736,0.1826,0.1874,-0.0598,-1.2425,-0.595,-4.2613,4.084366092471281,-12.466883879392618,-0.09917696239864038,1.1500000000087311
-0.2238,1.002,0.0684,0.1826,0.1874,-0.0598,-1.2425,-0.595,-4.2613,4.021586881474518,-12.506911663619764,-0.09713252181443952,1.158000000010361
-0.2264,0.9976,0.0692,0.1826,0.1874,-0.0598,-0.8925,-0.0787,-3.85,4.013070348261118,-12.63971008819496,-0.09101942964460043,1.1659999999974389
-0.223,1.0016,0.0697,0.1824,0.1868,-0.0566,-0.735,-0.0613,-4.1475,4.012077173418308,-12.586296640203326,-0.08482966037747534,1.1740000000136206
-0.223,1.0077,0.0714,0.1824,0.1868,-0.0566,-0.9975,0.0437,-4.0862,4.021353239313996,-12.520843532719383,-0.07787018882357175,1.1820000000006985
-0.2211,1.0077,0.0714,0.1811,0.1835,-0.0633,-0.9975,0.0437,-4.0862,4.028520807377351,-12.437718307307245,-0.07098031197409102,1.1900000000023283
-0.2252,1.0088,0.0711,0.1811,0.1835,-0.0633,-1.1375,0.0088,-3.78,4.029430954155706,-12.501241426002188,-0.06443574189316141,1.1980000000039581
-0.2218,1.0067,0.071,0.1811,0.1835,-0.0633,-1.3737,-0.0437,-3.6837,4.031363398679796,-12.441330409336997,-0.05837241752298285,1.205999999991036
-0.2216,1.0015,0.0713,0.1812,0.1862,-0.0621,-1.2862,-0.1575,-3.7887,4.046400872638834,-12.443974911180266,-0.05327102237861506,1.2140000000072177
-0.2252,1.0022,0.067,0.1812,0.1862,-0.0621,-1.2862,-0.1575,-3.7887,3.9647621252525247,-12.549118336735177,-0.04822064120212613,1.2219999999942956
-0.2252,1.0022,0.067,0.182,0.1843,-0.0596,-0.9712,-0.385,-3.5087,3.9351700754824925,-12.601525018174332,-0.045022563824611436,1.2300000000104774
-0.2206,1.0016,0.0741,0.182,0.1843,-0.0596,-0.2975,-0.665,-3.6488,4.020605560871669,-12.479492151948676,-0.04407406722717016,1.2379999999975553
-0.2189,1.0011,0.0686,0.182,0.1843,-0.0596,0.0263,-0.6125,-3.9638,3.9781844309459213,-12.391930271591404,-0.042719255594712235,1.245999999999185
-0.2205,1.0043,0.0692,0.1801,0.1847,-0.06,0.0263,-0.6125,-3.9638,3.962777735700842,-12.373150605639763,-0.041377992078578896,1.254000000000815
-0.2179,1.0099,0.0661,0.1801,0.1847,-0.06,0.2275,-1.12,-3.99,3.857685384477909,-12.262114425303498,-0.044069541198425745,1.2620000000024447
-0.2179,1.0078,0.0675,0.1811,0.1846,-0.0624,0.0263,-1.295,-4.4012,3.8467698234437684,-12.229594766302183,-0.04812017482735649,1.2700000000040745
-0.2175,1.0078,0.0675,0.1811,0.1846,-0.0624,-0.1225,-1.3913,-4.6725,3.8412730543339006,-12.211176131734947,-0.05289299812015331,1.2780000000057044
-0.2165,1.0075,0.0667,0.18,0.1849,-0.0618,-0.1225,-1.3913,-4.6725,3.82157177141738,-12.185214221601754,-0.057618093170465144,1.2859999999927823
-0.2171,1.0045,0.0666,0.18,0.1849,-0.0618,0.5688,-1.26,-4.9875,3.8057162849563717,-12.185170870706239,-0.06494340419611933,1.301000000006752
-0.2184,1.0047,0.0698,0.18,0.1849,-0.0618,-0.1838,-1.4175,-5.145,3.863304356876199,-12.192118919496094,-0.06975549918533633,1.30899999999383
-0.2192,1.0024,0.0683,0.1811,0.1834,-0.0643,-0.1838,-1.4175,-4.9612,3.875135250194102,-12.19476428222864,-0.07383678211190739,1.31600000000617
-0.2192,1.0024,0.0683,0.1811,0.1834,-0.0643,-0.0175,-1.1113,-4.9612,3.884399505789768,-12.19734890629561,-0.07537573306849066,1.3220000000001164
-0.2214,1.0022,0.0662,0.1806,0.1834,-0.0605,-0.0437,-1.365,-5.2325,3.842573212861427,-12.243772121106026,-0.0796677047788337,1.3300000000017462
-0.2197,1.0038,0.067,0.1806,0.1834,-0.0605,-0.0263,-1.3913,-5.215,3.8329035020151103,-12.257851201863017,-0.08543855902760483,1.3399999999965075
-0.2198,1.0024,0.0654,0.1806,0.1834,-0.0605,-0.0263,-1.3913,-5.215,3.792524027381732,-12.273656926284755,-0.08983819848795618,1.3480000000126893
-0.2182,1.004,0.0669,0.1802,0.1844,-0.0655,0.315,-1.5575,-5.0662,3.8024417624541607,-12.270754708567697,-0.09386756327810486,1.3540000000066357
-0.2182,1.004,0.0661,0.1802,0.1844,-0.0655,0.5863,-1.6538,-5.4338,3.7823251647385847,-12.259911823318149,-0.09934528455329633,1.3610000000044238
-0.2169,1.0033,0.0661,0.1814,0.1858,-0.0629,-0.0437,-1.6625,-5.2762,3.777166871122777,-12.240350735356627,-0.10575376074927134,1.3690000000060536
-0.2183,1.0015,0.0644,0.1814,0.1858,-0.0629,-0.0437,-1.6625,-5.2762,3.738251721997415,-12.24749898760665,-0.1120981521832866,1.3770000000076834
-0.2195,1.0053,0.0623,0.1814,0.1858,-0.0629,-0.3938,-1.4612,-4.8738,3.692850895604568,-12.25213650727496,-0.1167848037026369,1.3850000000093132
-0.2189,1.0043,0.067,0.1811,0.1857,-0.0583,-0.3063,-1.5488,-5.04,3.7280553775541834,-12.253051101477862,-0.12211838069510901,1.3929999999963911
-0.2216,1.0035,0.0677,0.1811,0.1857,-0.0583,0.1312,-1.3475,-5.4513,3.7878710327116654,-12.307835930529365,-0.12580432593808363,1.4010000000125729
-0.2216,1.0035,0.0677,0.1807,0.185,-0.0639,0.1312,-1.3475,-5.4513,3.8204765067940896,-12.345190921018595,-0.12945341171077648,1.4089999999996508
-0.2209,1.0052,0.0648,0.1807,0.185,-0.0639,0.5775,-1.2862,-5.46,3.7463388607517993,-12.352948482011419,-0.13258051063456952,1.4170000000012806
-0.2208,1.007,0.0675,0.1807,0.185,-0.0639,0.4988,-1.4,-5.7312,3.794653504357799,-12.347589535527966,-0.13657763456930827,1.4250000000029104
-0.2197,1.0069,0.0644,0.1801,0.185,-0.0583,0.9975,-1.2775,-5.285,3.709590661846136,-12.332989487172403,-0.13956458725658438,1.4329999999899883
-0.2204,1.006,0.0617,0.1801,0.185,-0.0583,0.9975,-1.2775,-5.285,3.583691319251532,-12.333445437842876,-0.14469803495326625,1.445000000006985
-0.2204,1.006,0.0634,0.1799,0.1838,-0.0625,0.91,-1.3125,-4.9088,3.5975363060386005,-12.333464263147432,-0.14672350138023013,1.4510000000009313
-0.2179,1.0085,0.0634,0.1799,0.1838,-0.0625,0.1225,-1.6975,-4.795,3.597385156387178,-12.307208648617,-0.15101561315458528,1.4570000000094296
-0.2188,1.0075,0.0628,0.181,0.1846,-0.0585,0.1225,-1.47,-5.1625,3.583540050007235,-12.295509981757034,-0.15538278605354602,1.4649999999965075
-0.2161,1.0075,0.0565,0.181,0.1846,-0.0585,-0.2275,-1.47,-5.1625,3.4630252019713734,-12.264122063989848,-0.16117561949985268,1.4750000000058208
-0.2167,1.008,0.0579,0.181,0.1846,-0.0585,0.3237,-1.5838,-4.5763,3.3740845127858208,-12.220421615120426,-0.16549516021297994,1.4820000000036089
-0.2146,1.0077,0.0626,0.182,0.1854,-0.0633,-0.0875,-1.7062,-4.2525,3.442936761970063,-12.12710846494204,-0.17255674577205574,1.4909999999945285
-0.2146,1.0077,0.0626,0.182,0.1854,-0.0633,-0.0875,-1.7062,-4.2525,3.485547887154329,-12.073238732706509,-0.17761070722219297,1.4979999999923166
-0.2116,1.0075,0.0575,0.181,0.1836,-0.0597,-0.4638,-1.3913,-4.7863,3.4432070086037814,-12.035024976991881,-0.18437239084409968,1.510999999998603
-0.2146,1.0085,0.0587,0.181,0.1836,-0.0597,-0.105,-1.4262,-4.9963,3.401261531932321,-12.03454487690208,-0.18805909997678538,1.5190000000002328
-0.213,1.0075,0.065,0.181,0.1836,-0.0597,-0.455,-1.5137,-4.76,3.458975550637167,-12.012302380139731,-0.19084608375230827,1.5249999999941792
-0.2104,1.0056,0.059,0.1811,0.1842,-0.0627,-0.455,-1.5137,-4.76,3.438844186499297,-11.972929950207517,-0.19360519770139625,1.5310000000026776
-0.2104,1.0056,0.0617,0.1811,0.1842,-0.0627,-0.665,-1.3913,-4.9963,3.4415099577701618,-11.970899569690204,-0.1956096645099636,1.5370000000111759
-0.2117,1.0066,0.0617,0.1801,0.1842,-0.0657,-1.1638,-0.9975,-4.8387,3.4623418544807976,-11.95616934248703,-0.19578869690141518,1.5449999999982538
-0.2128,1.0055,0.0641,0.1801,0.1842,-0.0657,-0.8838,-0.9887,-4.9788,3.490669599668096,-11.955992461495416,-0.19563806384182994,1.5519999999960419
-0.2085,1.0035,0.0631,0.1801,0.1842,-0.0657,-0.8838,-0.9887,-4.9788,3.5070809996972154,-11.954578999924529,-0.19574711624383243,1.5599999999976717
-0.2094,1.0031,0.06,0.1812,0.1839,-0.0646,-0.8487,-0.9275,-5.145,3.496414956844843,-11.929199576840658,-0.1957655563832343,1.570000000006985
-0.2102,1.0048,0.0656,0.1812,0.1839,-0.0646,-0.4812,-0.4288,-5.1013,3.5398420628562475,-11.914793964874313,-0.19173504773005695,1.577000000004773
-0.2102,1.0048,0.0656,0.1782,0.1845,-0.0607,-0.9275,-0.1488,-5.25,3.5756431741118284,-11.88888936408559,-0.18523112229182198,1.5850000000064028
-0.2089,1.0032,0.0673,0.1782,0.1845,-0.0607,-0.9275,-0.1488,-5.25,3.6236781546371115,-11.857077359273692,-0.17879223610796935,1.5930000000080327
-0.2115,1.0039,0.0623,0.1782,0.1845,-0.0607,-1.1287,-0.1312,-5.6525,3.6020205358878075,-11.864175854587472,-0.17227834678592682,1.6010000000096625
-0.2128,1.0052,0.0644,0.1804,0.1846,-0.0573,-0.9187,-0.0962,-5.4687,3.613313872552763,-11.885394872711682,-0.165552396366149,1.6089999999967404
-0.2128,1.0043,0.0679,0.1804,0.1846,-0.0573,-0.84,-0.14,-5.5738,3.6439178018679046,-11.904498403608406,-0.15924060144153887,1.6169999999983702
-0.2128,1.0043,0.0639,0.1805,0.1849,-0.0638,-0.84,-0.14,-5.5738,3.643520924118431,-11.91763865254482,-0.15299192446617488,1.625
-0.2153,1.0028,0.0639,0.1805,0.1849,-0.0638,-0.6737,-0.175,-5.9763,3.643593643366034,-12.00523974091238,-0.147082934260621,1.6330000000016298
-0.2166,1.0042,0.062,0.1805,0.1847,-0.066,-0.4462,-0.0263,-6.3525,3.62097250051418,-12.088539879844511,-0.14144452369211188,1.6390000000101281
-0.2146,1.0049,0.0651,0.1803,0.1847,-0.066,-0.4462,-0.0263,-6.825,3.6384839833923626,-12.050716862464432,-0.13377870663149796,1.6480000000010477
-0.2166,1.006,0.0686,0.1803,0.1847,-0.066,-0.9187,-0.0875,-6.825,3.685005181551933,-12.097833492341827,-0.12863686634902102,1.6539999999949941
-0.2167,1.0061,0.0641,0.1806,0.1848,-0.071,-0.4462,-0.3413,-6.8775,3.6769177728646607,-12.11963949316312,-0.12428852271933731,1.6620000000111759
-0.2167,1.0061,0.0641,0.1806,0.1848,-0.071,-0.5337,-0.3762,-7.07,3.672356250551969,-12.127425995905394,-0.11782269944234662,1.6770000000105938
-0.2201,1.007,0.0625,0.1822,0.1856,-0.069,-0.5337,-0.3762,-7.07,3.6548342918097125,-12.24831624523623,-0.11351070962108491,1.6860000000015134
-0.2191,1.008,0.0681,0.1822,0.1856,-0.069,-0.28,-0.595,-7.4637,3.7173427515415067,-12.239591682870282,-0.11040184447495065,1.7010000000009313
-0.2203,1.0059,0.0634,0.1822,0.1856,-0.069,-0.28,-1.4,-7.4725,3.6843684709802784,-12.30370123584725,-0.11129392442786956,1.7040000000124564
-0.2218,1.001,0.0667,0.1815,0.1854,-0.0695,-0.6388,-1.3388,-7.4288,3.692115679524732,-12.419495823833719,-0.11562398834809924,1.713000000003376
-0.2218,1.001,0.0667,0.1815,0.1854,-0.0695,-0.6388,-1.3388,-7.4288,3.699393279122351,-12.453116969557264,-0.1199107516379273,1.7220000000088476
-0.2271,0.996,0.0673,0.182,0.1866,-0.0643,0.105,-1.8112,-7.7088,3.773695302811963,-12.718765018247044,-0.1262188230291759,1.7290000000066357
-0.2287,0.9988,0.0738,0.182,0.1866,-0.0643,0.2625,-1.82,-8.5925,3.9958326992698114,-12.831750551326108,-0.13360596384064624,1.7370000000082655
-0.233,0.9978,0.0699,0.182,0.1866,-0.0643,0.4462,-2.7738,-8.9338,4.001943062284876,-13.056013536982547,-0.14442247296997865,1.743000000002212
-0.2381,0.9933,0.0724,0.1838,0.184,-0.0591,0.4462,-2.7738,-8.9338,4.0911872673213345,-13.366751958928292,-0.15918167328357993,1.7510000000038417
-0.2421,0.9914,0.08,0.1838,0.184,-0.0591,1.085,-3.71,-9.3888,4.426132483306388,-13.62225469203215,-0.1753034533128723,1.756999999997788
-0.2421,0.9914,0.08,0.1826,0.1849,-0.0644,1.7413,-5.46,-10.8238,4.559054541393846,-13.67178663197095,-0.20634378174755372,1.7640000000101281
-0.245,0.9923,0.0819,0.1826,0.1849,-0.0644,2.3625,-8.015,-12.0138,4.679090084934673,-13.804886082724224,-0.25477985682412113,1.7710000000079162
-0.2541,0.9905,0.0828,0.1826,0.1849,-0.0644,2.3625,-8.015,-12.0138,4.754036085513474,-14.273588959742451,-0.295517354992208,1.7770000000018626
-0.254,0.9878,0.0902,0.1836,0.1861,-0.0603,3.6225,-10.6838,-13.5625,5.130428718969411,-14.353836318767055,-0.36155647833048477,1.7839999999996508
-0.2505,0.9905,0.0862,0.1836,0.1861,-0.0603,4.795,-13.7113,-15.7325,4.997847527881568,-14.159450971464794,-0.4607693386081288,1.7920000000012806
-0.2505,0.9905,0.0862,0.1872,0.1898,-0.0618,4.795,-15.9513,-17.2375,4.977445173447037,-14.14272960945595,-0.5767308702866106,1.8000000000029104
-0.2485,0.9898,0.0824,0.1872,0.1898,-0.0618,5.9675,-16.5987,-17.2375,4.787347880027614,-14.054016871918568,-0.7123722738397135,1.809000000008382
-0.254,0.9963,0.0789,0.1872,0.1898,-0.0628,7.3325,-19.2413,-19.11,4.556680358769176,-14.246087186114178,-0.851874576171188,1.8170000000100117
-0.2542,0.9981,0.0758,0.1908,0.1906,-0.0628,7.7962,-21.945,-20.86,4.365449910278259,-14.249006862531932,-0.9903902432730156,1.8240000000077998
-0.2572,1.0018,0.0754,0.1908,0.1906,-0.0628,7.7962,-21.945,-20.86,4.310669470992174,-14.35349511465715,-1.1485256696088577,1.8319999999948777
-0.261,1.0077,0.0766,0.1947,0.1936,-0.0653,9.2137,-25.0338,-22.0325,4.343636712508303,-14.473770943867187,-1.3295430383421474,1.8400000000110595
-0.261,1.0077,0.0766,0.1947,0.1936,-0.0653,10.1325,-28.1663,-23.4675,4.346680150990967,-14.480464029935824,-1.560723635882066,1.849000000001979
-0.2622,1.0142,0.0706,0.1971,0.1939,-0.0625,9.8787,-31.8675,-24.955,4.013507202015821,-14.462606788337311,-1.7609137373650567,1.8559999999997672
-0.2569,1.0166,0.0818,0.1971,0.1939,-0.0625,9.8787,-31.8675,-24.955,4.549684459366393,-14.153641021315503,-2.020758319881474,1.8649999999906868
-0.2504,1.0269,0.0833,0.1971,0.1939,-0.0625,9.835,-35.2013,-25.2962,4.62994475368339,-13.683582983144666,-2.2394513090138077,1.8720000000030268
-0.2388,1.0287,0.0807,0.2004,0.1966,-0.064,10.0013,-38.1063,-26.4862,4.497916633904226,-13.059402564073647,-2.550098223757653,1.8809999999939464
-0.2388,1.0287,0.0807,0.2004,0.1966,-0.064,10.4125,-40.2588,-26.9237,4.486600877813705,-13.031638455841843,-2.837681867193358,1.8890000000101281
-0.2292,1.0266,0.0856,0.205,0.1998,-0.0572,10.4125,-40.2588,-26.9237,4.743318236311278,-12.564666325600667,-3.122389673055711,1.896999999997206
-0.2155,1.0305,0.0858,0.205,0.1998,-0.0572,10.0363,-42.0088,-27.8862,4.75812200149992,-11.805151626044845,-3.458978479718764,1.9060000000026776
-0.2101,1.0303,0.0858,0.205,0.1998,-0.0572,9.7563,-43.4875,-28.3762,4.760219548575868,-11.500134358680178,-3.8053766153231963,1.915000000008149
-0.1942,1.0304,0.0883,0.2102,0.2014,-0.0577,9.3538,-45.255,-29.3388,4.88552871843725,-10.66938855896148,-4.119977377640335,1.922999999995227
-0.1898,1.0322,0.093,0.2102,0.2014,-0.0577,9.3538,-45.255,-29.3388,5.124608682788888,-10.389481793232067,-4.4314321336172515,1.9310000000114087
-0.1898,1.0322,0.093,0.2138,0.205,-0.0512,8.2775,-45.3338,-30.4762,5.145999088027772,-10.37842242921521,-4.652076780793752,1.937000000005355
-0.1787,1.026,0.1014,0.2138,0.205,-0.0512,8.085,-45.465,-31.1938,5.593335203580918,-9.853255644309932,-4.959873741453499,1.944999999992433
-0.1749,1.023,0.1048,0.2138,0.205,-0.0512,8.2775,-45.15,-32.4975,5.823557188045707,-9.65941274416389,-5.218120066851689,1.9519999999902211
-0.1716,1.0245,0.1091,0.2206,0.207,-0.0491,8.2775,-45.15,-32.4975,6.053023880673032,-9.46320669916145,-5.517761795934811,1.9600000000064028
-0.1746,1.03,0.1136,0.2206,0.207,-0.0491,8.4525,-44.94,-33.4688,6.270079698990231,-9.560676066402026,-5.812743906449863,1.9679999999934807
-0.1746,1.03,0.1136,0.2264,0.2093,-0.0484,8.2338,-44.4063,-34.9038,6.291400862485811,-9.563987280986899,-6.057307689828967,1.9750000000058208
-0.1685,1.0272,0.1195,0.2264,0.2093,-0.0484,8.2338,-44.4063,-36.155,6.601065086485092,-9.264027958923224,-6.385909040708027,1.9839999999967404
-0.1642,1.0123,0.1204,0.2264,0.2093,-0.0443,8.0238,-43.82,-36.155,6.764053206257921,-9.153566443715269,-8.62575292147987,2.0380000000004657
-0.1588,1.0052,0.1246,0.2302,0.2111,-0.0443,8.1112,-43.1375,-36.8375,7.035306739201361,-8.91763163302801,-8.833393830693174,2.0450000000128057
-0.1563,1.0076,0.1193,0.2302,0.2111,-0.0443,9.17,-41.9738,-37.7475,6.7784124742652985,-8.76204543318454,-9.030893888611718,2.051999999996042
-0.1546,1.0042,0.1262,0.2362,0.2169,-0.0366,9.17,-41.9738,-37.7475,7.127569896125994,-8.687189271680115,-9.226418946545282,2.05899999999383
-0.1546,1.0042,0.1262,0.2362,0.2169,-0.0366,9.7037,-40.3638,-38.0537,7.15983342955684,-8.68497154399187,-9.448070982754793,2.0670000000100117
-0.153,0.9957,0.1244,0.2427,0.2218,-0.0406,10.4563,-38.4825,-38.22,7.124629756727379,-8.66987442929094,-9.764737725305029,2.0780000000086147
-0.1613,0.9848,0.115,0.2427,0.2218,-0.0406,11.2613,-36.6888,-38.8325,6.696343546490589,-9.223800054670528,-10.058704407432245,2.0890000000072177
-0.1738,0.9801,0.1143,0.2427,0.2218,-0.0406,11.2613,-36.6888,-38.8325,6.655263181946839,-9.967371066604713,-10.24292758793788,2.0969999999942956
-0.181,0.9822,0.1108,0.2472,0.2255,-0.0426,12.0575,-34.9125,-39.0687,6.452130148784861,-10.365286196268302,-10.411240241646135,2.1050000000104774
-0.181,0.9822,0.1108,0.2472,0.2255,-0.0426,12.8363,-33.425,-39.655,6.43730649935539,-10.376633449146148,-10.566088767851385,2.1129999999975553
-0.1918,0.9774,0.1031,0.2508,0.23,-0.0327,13.2913,-31.9288,-39.1475,6.049245999556334,-11.023669761535341,-10.645761148765882,2.1189999999915017
-0.2001,0.9798,0.0979,0.2508,0.23,-0.0327,13.2913,-31.9288,-39.1475,5.72885510581113,-11.473686262759125,-10.724636806770217,2.125000000014552
-0.2141,0.9828,0.0953,0.2508,0.23,-0.0327,13.405,-30.3188,-37.695,5.551129719812389,-12.211502387826267,-10.881045241606506,2.1340000000054715
-0.2166,0.9726,0.0915,0.2565,0.2338,-0.0203,13.8337,-29.4,-35.7525,5.3858106824688345,-12.492417608671795,-10.942546985798607,2.139999999999418
-0.2125,0.9781,0.0844,0.2565,0.2338,-0.0203,14.0963,-28.7612,-33.3462,4.96055593895301,-12.222962231934916,-11.027392195193093,2.147000000011758
-0.2125,0.9781,0.0844,0.2592,0.2374,-0.0299,14.0963,-28.7612,-33.3462,4.933640448061969,-12.213785065348167,-11.083635997853158,2.1530000000057044
-0.2081,0.9952,0.0805,0.2592,0.2374,-0.0299,13.58,-27.6413,-30.3713,4.6447158850486225,-11.789907525125997,-11.132665156493331,2.1589999999996508
-0.1999,1.0018,0.0779,0.2592,0.2374,-0.0299,12.5738,-26.0313,-27.0025,4.460266468723087,-11.274927365459241,-11.19669097678299,2.165999999997439
-0.1868,0.995,0.0746,0.261,0.2383,-0.0321,11.7075,-23.9925,-22.8025,4.300587858397381,-10.639448086660693,-11.222915713990893,2.172000000005937
-0.1775,1.0002,0.0731,0.261,0.2383,-0.0321,11.7075,-23.9925,-22.8025,4.189039961523001,-10.068990085868032,-11.248878203491559,2.1779999999998836
-0.1775,1.0002,0.0731,0.2656,0.2434,-0.0252,10.0363,-20.8337,-19.8363,4.180817619600387,-10.038993644526707,-11.295627254529085,2.1860000000015134
-0.1679,0.9944,0.0737,0.2656,0.2434,-0.0252,8.2425,-16.9137,-17.0362,4.232906679233141,-9.59486764768092,-11.278814556899972,2.1920000000100117
-0.1629,0.9889,0.0686,0.2656,0.2438,-0.0295,8.2425,-12.4338,-14.56,3.9948611148786575,-9.357045830417892,-11.2471482080467,2.198999999993248
-0.1665,0.9825,0.061,0.2655,0.2438,-0.0295,7.6825,-13.1163,-14.56,3.59984066665161,-9.577158793392021,-11.26958626055757,2.210000000006403
-0.1698,0.9892,0.0526,0.2655,0.2438,-0.0295,6.965,-8.4,-12.7925,3.107942110752647,-9.70966804075743,-11.225248693053025,2.2189999999973224
-0.181,0.9978,0.0425,0.2664,0.2446,-0.0263,5.9412,-3.9813,-10.9288,2.526475902522939,-10.191435163135342,-11.132321324929867,2.2250000000058208
-0.181,0.9978,0.0425,0.2664,0.2446,-0.0263,5.9412,-3.9813,-10.9288,2.4504128403914764,-10.260813069901939,-11.043544083583443,2.232000000003609
-0.2054,1.0045,0.0304,0.2648,0.2443,-0.0265,5.1537,0.7613,-10.2375,1.8380170772753148,-11.344978261265076,-10.916891113179668,2.243000000002212
-0.227,0.9938,0.0233,0.2648,0.2443,-0.0265,4.5588,5.495,-10.8413,1.422111685516025,-12.641715884889418,-10.758436731077829,2.2510000000038417
-0.2567,0.9775,0.0143,0.2648,0.2443,-0.0265,4.6988,9.2137,-12.6175,0.9293460583657919,-14.472735764184119,-10.59179918260663,2.256999999997788
-0.284,0.9654,0.0089,0.2661,0.2442,-0.0276,4.6988,9.2137,-12.6175,0.5908527418527192,-16.169761033674515,-10.426828009476923,2.2630000000062864
-0.284,0.9654,0.0089,0.2661,0.2442,-0.0276,3.9288,11.9525,-14.9275,0.5393188118577114,-16.371776522284403,-10.23468446731992,2.2700000000040745
-0.311,0.9641,0.0036,0.2672,0.247,-0.0338,3.2462,13.7463,-16.5812,0.27968291548212526,-17.758959092409075,-10.032031326588415,2.2770000000018626
-0.336,0.9632,-0.0035,0.2672,0.247,-0.0338,3.2287,16.0912,-16.975,-0.10927541703574374,-19.117270546426525,-9.81515456026936,2.2839999999996508
-0.3583,0.9697,-0.0098,0.2672,0.247,-0.0338,3.2287,16.0912,-16.975,-0.483779451385656,-20.18874282573328,-9.56714471774556,2.2930000000051223
-0.3815,0.9741,-0.0133,0.2661,0.2497,-0.0357,2.5113,17.9025,-16.2925,-0.711429721994815,-21.28841333738566,-9.342364508518902,2.3000000000029104
-0.4036,0.9798,-0.0239,0.2661,0.2497,-0.0357,2.1,19.775,-14.1925,-1.2169831287326207,-22.274670135978823,-9.106855676388609,2.3070000000006985
-0.4036,0.9798,-0.0239,0.2666,0.2518,-0.037,0.7262,20.16,-12.7487,-1.3230949781974104,-22.36955944633607,-8.829675814681575,2.31600000000617
-0.4133,0.9808,-0.0273,0.2666,0.2518,-0.037,0.7262,20.16,-12.7487,-1.4827202522515222,-22.78824095558409,-8.575946785841976,2.323999999993248
-0.4283,0.9828,-0.0315,0.2666,0.2518,-0.037,-0.28,20.5975,-12.005,-1.587726161234269,-23.443286303793954,-8.321290046681925,2.3320000000094296
-0.4397,0.9972,-0.044,0.267,0.2535,-0.0391,-0.7875,21.21,-12.2937,-1.6606063125864476,-23.734004675256774,-8.086047409173144,2.3390000000072177
-0.4441,1.0161,-0.0493,0.267,0.2535,-0.0391,-1.7763,21.4375,-13.2563,-2.238839153522716,-23.59987854239763,-7.851580623359273,2.345999999990454
-0.4441,1.0161,-0.0493,0.2649,0.2529,-0.0433,-1.7763,21.4375,-13.2563,-2.5177782038023473,-23.585412200788944,-7.619458504764894,2.353000000002794
-0.4488,1.0272,-0.054,0.2649,0.2529,-0.0433,-3.5788,22.925,-14.315,-2.882452094093296,-23.573558785021024,-7.402765616298245,2.3590000000112923
-0.4546,1.0238,-0.064,0.2649,0.253,-0.0473,-5.3113,24.3425,-15.2075,-3.453175534594139,-23.87213323780316,-7.179819707065511,2.3650000000052387
-0.466,1.0179,-0.065,0.2662,0.253,-0.0473,-5.3113,26.1012,-15.12,-3.618003247944823,-24.493186772551393,-6.922095756963606,2.372000000003027
-0.4778,1.0038,-0.0727,0.2662,0.253,-0.0473,-7.0087,26.1012,-15.12,-4.0706192754548844,-25.31485491394713,-6.666949045976209,2.379000000015367
-0.4932,0.9944,-0.0728,0.2666,0.2547,-0.0432,-8.645,27.9738,-14.8925,-4.174120051155798,-26.227368246870082,-6.401376684902786,2.385999999998603
-0.4932,0.9944,-0.0728,0.2666,0.2547,-0.0432,-8.82,28.5513,-13.86,-4.185723132171788,-26.3101423972022,-6.163444392587422,2.3920000000071013
-0.5091,0.9889,-0.08,0.2649,0.2552,-0.0533,-8.82,28.5513,-13.86,-4.5768518464670365,-27.077613163928085,-5.92789142361702,2.3980000000010477
-0.5219,1.0,-0.0709,0.2649,0.2552,-0.0533,-8.6275,29.2775,-12.32,-4.113906402193236,-27.450362068143736,-5.720085714892524,2.4030000000057044
-0.5392,1.0105,-0.0702,0.2649,0.2552,-0.0533,-8.54,28.8488,-10.5962,-3.989819190110004,-27.93979055513204,-5.457918236718365,2.4100000000034925
-0.5488,1.0093,-0.0691,0.2642,0.2575,-0.0416,-8.5575,28.1488,-9.4062,-3.924821588575428,-28.37925729559016,-5.203223433324415,2.4170000000012806
-0.5488,1.0093,-0.0735,0.2642,0.2575,-0.0416,-8.5575,28.1488,-9.4062,-4.137948345775121,-28.454316263941116,-4.979663523528221,2.423000000009779
-0.5614,1.0033,-0.0735,0.2628,0.2553,-0.053,-9.0738,28.2887,-9.1175,-4.184359110169066,-29.025776585051652,-4.757508207246837,2.4290000000037253
-0.5706,1.0065,-0.0612,0.2628,0.2553,-0.053,-9.3713,27.265,-8.6625,-3.552471713839263,-29.40193813851835,-4.488229254169202,2.437000000005355
-0.5749,1.0097,-0.0562,0.2628,0.2553,-0.053,-9.9137,25.8388,-8.365,-3.2217129908043853,-29.568755268795496,-4.259239640595685,2.444000000003143
-0.5797,1.0096,-0.0529,0.2615,0.2549,-0.0636,-9.9137,25.8388,-8.365,-3.0211583217638562,-29.770368245836345,-4.032539923157903,2.4510000000009313
-0.5826,0.994,-0.0468,0.2615,0.2549,-0.0636,-10.2288,24.57,-8.2775,-2.726564516093038,-30.213145276787593,-3.841944920493484,2.4570000000094296
-0.5826,0.994,-0.0468,0.2611,0.2572,-0.055,-11.3663,22.8025,-8.6363,-2.698289286381573,-30.318705564985915,-3.640459709589064,2.463999999992666
-0.5805,0.9899,-0.0358,0.2611,0.2572,-0.055,-11.9438,21.1663,-9.1088,-2.122444222915065,-30.361597559462734,-3.43065294518243,2.4720000000088476
-0.5791,0.9958,-0.0273,0.2611,0.2572,-0.055,-11.9438,21.1663,-9.1088,-1.6154803302276197,-30.20776754817186,-3.2229442490506957,2.4799999999959255
-0.5813,0.9825,-0.0233,0.2614,0.2564,-0.0601,-13.0725,18.9,-8.8813,-1.37773619995861,-30.522913049537312,-3.015830101623868,2.489000000001397
-0.5741,0.9689,-0.0168,0.2614,0.2564,-0.0601,-13.405,16.24,-7.945,-1.0214191114944435,-30.61352622972927,-2.8680841635547853,2.495999999999185
-0.5741,0.9689,-0.0074,0.2581,0.2574,-0.0518,-13.7812,13.3787,-7.3063,-0.47906099484099823,-30.637047797451785,-2.6857823063687474,2.506999999997788
-0.5722,0.9699,-0.0074,0.2581,0.2574,-0.0518,-13.7812,13.3787,-7.3063,-0.440116314276263,-30.567874097156974,-2.5472001083222984,2.514999999999418
-0.5572,0.959,0.0016,0.2595,0.2589,-0.062,-13.8337,10.5525,-6.09,0.05768058692075907,-30.352419631916568,-2.454722453924169,2.5210000000079162
-0.5508,0.975,0.0066,0.2595,0.2589,-0.062,-13.755,8.47,-5.3288,0.3643461623256005,-30.1246048743672,-2.3573277585425956,2.528999999994994
-0.5451,0.9593,0.0153,0.2595,0.2589,-0.062,-13.755,5.9237,-5.46,0.8746422036711425,-29.95664573449031,-2.281073705890611,2.537000000011176
-0.5308,0.9542,0.0242,0.2594,0.2534,-0.0537,-13.5275,5.9237,-5.46,1.4109767295338276,-29.673692891466874,-2.192412000166202,2.547000000005937
-0.5308,0.9542,0.0242,0.2594,0.2534,-0.0537,-13.5363,3.0013,-5.845,1.4497755184591694,-29.398388471173444,-2.140952513198523,2.555000000007567
-0.5175,0.9341,0.0306,0.258,0.2539,-0.0533,-13.6588,0.2887,-6.8162,1.8457091937402013,-29.123773243482457,-2.11249785999341,2.561999999990803
-0.4984,0.9326,0.0411,0.258,0.2539,-0.0533,-13.6588,0.2887,-6.8162,2.4748499542932025,-28.46016435804239,-2.0843277532910562,2.569000000003143
-0.4785,0.9558,0.0533,0.258,0.2539,-0.0533,-13.335,-1.8112,-8.3562,3.13918904104865,-26.99330446068232,-2.0752814711866474,2.5800000000017462
-0.4597,0.9523,0.0576,0.2583,0.2539,-0.0476,-12.7662,-4.0075,-9.835,3.4366658632846923,-25.943351536813534,-2.077256194377599,2.5869999999995343
-0.4597,0.9523,0.0657,0.2583,0.2539,-0.0476,-12.11,-5.985,-10.9375,3.905527472368296,-25.74749726177652,-2.0929152453323114,2.5939999999973224
-0.445,0.9539,0.0657,0.2617,0.2567,-0.0523,-12.11,-5.985,-10.9375,3.937251527209387,-25.07105952778204,-2.108417705853212,2.6010000000096625
-0.4329,0.9368,0.0682,0.2617,0.2567,-0.0523,-11.5937,-7.91,-12.075,4.144788771462983,-24.784673130292685,-2.137105391688953,2.6080000000074506
-0.4303,0.9329,0.0728,0.2617,0.2567,-0.0523,-9.7825,-9.2225,-12.6438,4.430621546912642,-24.705729733274378,-2.1830114667033933,2.6159999999945285
-0.4369,0.9213,0.0795,0.2646,0.2566,-0.0609,-8.33,-10.1062,-13.3,4.873791507883392,-25.226489234738935,-2.2354573852265984,2.62400000001071
-0.433,0.9089,0.0849,0.2646,0.2566,-0.0609,-8.33,-10.1062,-13.3,5.282855771357331,-25.36051264648845,-2.287378844294357,2.631999999997788
-0.433,0.9089,0.0849,0.262,0.2569,-0.0502,-5.8975,-11.5588,-14.2013,5.327832673299399,-25.37505273654016,-2.3502856809088892,2.639999999999418
-0.4421,0.914,0.0858,0.262,0.2569,-0.0502,-3.2987,-13.3437,-14.0262,5.35308574942772,-25.680761559702628,-2.4142102279821747,2.646999999997206
-0.4392,0.9047,0.0956,0.262,0.2569,-0.0502,-0.8487,-14.9713,-14.2362,5.4392647551763496,-25.761453913844583,-2.5169767039495063,2.6560000000026776
-0.4316,0.9085,0.0925,0.2638,0.2578,-0.0477,-0.8487,-14.9713,-14.2362,5.486776305657976,-25.341950516785463,-2.604614561972993,2.6640000000043074
-0.4163,0.9234,0.0962,0.2638,0.2578,-0.0477,0.9887,-16.415,-14.2887,5.77643819760034,-24.267303962996237,-2.702810145418574,2.672000000005937
-0.4163,0.9234,0.0985,0.2658,0.2584,-0.0486,2.4675,-17.6225,-13.9213,6.013887860426116,-24.158428492589298,-2.7594102496922734,2.677000000010594
-0.4109,0.9545,0.0985,0.2658,0.2584,-0.0486,3.6575,-19.425,-13.72,5.9145780383163,-23.281619745035954,-2.9354274245994927,2.688000000009197
-0.4068,0.9246,0.0891,0.2672,0.2613,-0.0499,3.6575,-19.425,-13.72,5.580888112336442,-23.612867251305417,-2.9986237310896926,2.6930000000138534
-0.409,0.9232,0.0947,0.2672,0.2613,-0.0499,4.27,-20.2213,-13.3875,5.810610160278558,-23.76548574949202,-3.1616220246968676,2.702999999994063
-0.4144,0.8999,0.0867,0.2672,0.2613,-0.0499,5.3025,-21.5775,-13.4137,5.547012112401773,-24.534246902165055,-3.29513453352354,2.7109999999956926
-0.4102,0.8833,0.0878,0.2692,0.2613,-0.039,5.3025,-22.575,-13.7725,5.658062328945369,-24.77508172932877,-3.5000979659028277,2.7220000000088476
-0.4102,0.8833,0.0878,0.2692,0.2613,-0.039,7.105,-22.575,-13.7725,5.674453541772381,-24.799687343170877,-3.6164972987912214,2.7289999999920838
-0.4144,0.9069,0.0816,0.2704,0.2639,-0.046,9.3625,-23.7038,-14.6388,5.18961524313402,-24.501317154797484,-3.8987781198536853,2.743000000002212
-0.4121,0.8916,0.0736,0.2704,0.2639,-0.046,10.3863,-25.2087,-15.4525,4.7578958173623995,-24.712340245214204,-4.053678171734648,2.7510000000038417
-0.4175,0.9093,0.0774,0.2704,0.2639,-0.046,10.3863,-25.2087,-15.4525,4.8564279732834095,-24.59484614991291,-4.182793243873695,2.75800000000163
-0.4219,0.9256,0.0719,0.273,0.2658,-0.0386,12.1975,-26.775,-17.57,4.47160792693607,-24.450573727588292,-4.321471624287921,2.764999999999418
-0.4219,0.9256,0.0705,0.273,0.2658,-0.0386,14.28,-28.3237,-20.4225,4.362883272927496,-24.44215191803582,-4.469495711894614,2.771999999997206
-0.4251,0.9231,0.0705,0.2738,0.2662,-0.0406,15.3737,-29.6975,-22.9688,4.3671143390249645,-24.65180711552667,-4.654239884279757,2.7800000000133878
-0.4282,0.9133,0.0654,0.2738,0.2662,-0.0406,15.3737,-29.6975,-22.9688,4.111754313126956,-25.041552232470977,-4.837136614106355,2.7880000000004657
-0.434,0.9252,0.0605,0.2738,0.2662,-0.0406,16.5375,-31.1675,-25.2612,3.761625163103485,-25.081750142486154,-5.0599819683001765,2.797000000005937
-0.433,0.9434,0.0594,0.2766,0.2698,-0.0431,17.8675,-31.8762,-26.7313,3.610916382691714,-24.631834430457364,-5.348586994004096,2.80800000000454
-0.4401,0.9627,0.0511,0.2766,0.2698,-0.0431,18.83,-32.5325,-26.9587,3.0662838917170254,-24.541252015751883,-5.5469934526971825,2.815999999991618
-0.4401,0.9627,0.0511,0.2806,0.2749,-0.0372,18.83,-32.5325,-26.9587,3.039759575202202,-24.537309192790907,-5.743415847719717,2.8240000000078
-0.4426,0.9528,0.0437,0.2806,0.2749,-0.0372,18.6375,-33.005,-26.67,2.6463606043112167,-24.877398974057996,-5.941616217869603,2.8319999999948777
-0.4504,0.9431,0.0461,0.2806,0.2749,-0.0372,18.2,-32.5588,-25.4713,2.7908252392376136,-25.472309538227858,-6.2288384150768845,2.8429999999934807
-0.4656,0.9548,0.0447,0.2847,0.2754,-0.0326,17.8762,-32.5325,-25.3137,2.686046561685039,-25.94769330537147,-6.449928901268395,2.8519999999989523
-0.4787,0.9671,0.0483,0.2847,0.2754,-0.0326,17.8762,-32.5325,-25.3137,2.8503135799266137,-26.289540864273192,-6.637321941805218,2.860000000015134
-0.4787,0.9515,0.0486,0.2879,0.2809,-0.0374,17.605,-33.4075,-24.3775,2.9201549198948538,-26.658028377030845,-6.797418259754809,2.86699999999837
-0.4803,0.945,0.0486,0.2879,0.2809,-0.0374,16.5462,-35.1575,-23.9837,2.942737196671836,-26.898903883908787,-7.002126406252814,2.875
-0.4851,0.9409,0.0515,0.2896,0.2818,-0.026,15.9687,-37.0475,-24.0538,3.12218507419764,-27.222427127834976,-7.183799880543988,2.88200000001234
-0.4855,0.9364,0.0564,0.2896,0.2818,-0.026,15.9687,-37.0475,-24.0538,3.4284304153617273,-27.35622570972502,-7.327700228300882,2.8880000000062864
-0.4876,0.9545,0.0573,0.2896,0.2818,-0.026,15.7325,-39.1912,-25.5588,3.4350235647205944,-27.033856894890548,-7.48289515056736,2.894000000000233
-0.4904,0.9598,0.058,0.291,0.2852,-0.0294,14.6825,-40.3375,-26.7663,3.4567255537111343,-27.022530292581944,-7.643347146174936,2.900000000008731
-0.4904,0.9598,0.058,0.291,0.2852,-0.0294,14.6825,-41.4663,-29.015,3.458049990229725,-27.022031059896324,-7.849230695947085,2.9069999999919673
-0.4973,0.9223,0.0479,0.297,0.2881,-0.0273,14.6213,-41.4663,-29.015,3.0027192767399384,-28.25001995439143,-8.0530554113953,2.9140000000043074
-0.509,0.8999,0.0465,0.297,0.2881,-0.0273,14.7087,-43.2775,-31.3775,2.960706128014301,-29.41638350243001,-8.4358898596525,2.9250000000029104
-0.5449,0.9034,0.0477,0.297,0.2881,-0.0273,15.7413,-46.41,-33.9762,3.018902034901899,-31.006823015276616,-8.668107823865942,2.9320000000006985
-0.5668,0.9049,0.05,0.3,0.2923,-0.0146,15.7413,-46.41,-36.2163,3.154406464297734,-31.990910052200398,-8.852778342791622,2.938000000009197
-0.5668,0.9206,0.0503,0.3,0.2923,-0.0146,16.6775,-51.0825,-36.9338,3.1289006012597995,-31.59430279134131,-9.163058887759526,2.9459999999962747
-0.5668,0.9141,0.0503,0.3053,0.2976,-0.0166,17.4475,-57.2775,-40.3288,3.1485448474816824,-31.75812541775462,-9.575285119358249,2.9550000000017462
-0.5729,0.9398,0.049,0.3053,0.2976,-0.0166,18.4975,-64.0238,-44.835,2.992742295668686,-31.342273595427947,-10.043498621677527,2.9640000000072177
-0.5799,0.931,0.0421,0.3053,0.2976,-0.0166,18.4975,-64.0238,-44.835,2.6091407444678465,-31.87819134713485,-10.381704132232148,2.971000000005006
-0.5815,0.8851,0.0386,0.3104,0.3043,-0.0168,19.3025,-70.0963,-48.9912,2.502469709298581,-33.248319969909566,-11.101983527638367,2.9829999999928987
-0.5783,0.8506,0.0376,0.3104,0.3043,-0.0168,20.2475,-75.7663,-53.2262,2.529757680557689,-34.16571327777671,-11.5109797151887,2.9900000000052387
-0.5783,0.8506,0.0376,0.3161,0.3125,-0.0023,20.3088,-81.4538,-57.0675,2.531000986661406,-34.18437171500818,-11.955300314770042,2.997000000003027
-0.5632,0.8294,0.0393,0.3161,0.3125,-0.0023,20.3088,-81.4538,-57.0675,2.7045926183953646,-34.14909703593463,-12.39517770835557,3.004000000000815
-0.5415,0.8444,0.0415,0.3161,0.3125,-0.0023,21.0525,-86.065,-59.9113,2.808876842780812,-32.66697837530106,-12.862611943995146,3.010999999998603
-0.5212,0.8726,0.0442,0.3226,0.318,0.0118,20.3525,-88.6725,-61.32,2.8956178621062527,-30.84963137641042,-13.343441813539581,3.018000000010943
-0.5009,0.8684,0.0493,0.3226,0.318,0.0118,19.0662,-90.51,-61.9762,3.23222841878455,-29.95254824930058,-13.832197258117583,3.025000000008731
-0.5009,0.8684,0.0497,0.3278,0.3224,0.0215,19.0662,-90.51,-61.9762,3.2734747475698316,-29.93644175457127,-14.316065146956369,3.0319999999919673
-0.4693,0.8671,0.0497,0.3278,0.3224,0.0215,17.3425,-90.6937,-62.0812,3.2800944481152947,-28.410956118454024,-14.885433529968049,3.040000000008149
-0.4513,0.8592,0.0554,0.3347,0.3334,0.0282,15.4088,-89.6175,-61.4425,3.6653338648734346,-27.67510445376504,-15.440584722571215,3.047999999995227
-0.4565,0.8904,0.0583,0.3347,0.3334,0.0282,13.9563,-86.4938,-61.5737,3.741000484799523,-27.104168242084214,-16.135261157436272,3.05800000000454
-0.4527,0.8844,0.0703,0.3347,0.3334,0.0282,13.9563,-86.4938,-61.5737,4.493492601485896,-27.034762893113776,-16.653174371040294,3.06600000000617
-0.4631,0.8911,0.0795,0.3386,0.3414,0.0393,12.355,-84.1225,-62.1075,5.0551657575638,-27.36210627085597,-17.229688396750205,3.0749999999970896
-0.4631,0.8911,0.0795,0.3386,0.3414,0.0393,11.13,-79.8613,-63.2713,5.094826761518861,-27.36774013344089,-17.605785885659447,3.0820000000094296
-0.4734,0.8973,0.0908,0.3425,0.3491,0.0462,11.13,-75.9675,-64.3213,5.7249795640501615,-27.689650947671353,-17.951138364548093,3.0890000000072177
-0.4817,0.8942,0.0955,0.3425,0.3491,0.0462,9.1438,-75.9675,-64.3213,6.061837333265785,-28.167568626835724,-18.367524508980082,3.0969999999942956
-0.4862,0.8924,0.1051,0.3425,0.3491,0.0462,8.4,-70.9887,-65.0125,6.652076738717344,-28.41299477748113,-18.74031469805585,3.1050000000104774
-0.4829,0.8831,0.1106,0.349,0.357,0.0498,8.4963,-65.2225,-65.7562,7.090891692257,-28.482449318302933,-18.99985903791493,3.1119999999937136
-0.4829,0.8987,0.1163,0.349,0.357,0.0498,8.4963,-65.2225,-65.7562,7.3458994655493175,-28.05958357742472,-19.384507218055134,3.120999999999185
-0.485,0.8924,0.1163,0.3518,0.366,0.0609,8.015,-58.975,-66.045,7.41694579342133,-28.31694543864135,-19.594314458657035,3.127999999996973
-0.4926,0.8877,0.1128,0.3518,0.366,0.0609,8.6625,-51.8875,-64.8725,7.258661745700843,-28.823908381697937,-19.803555243930035,3.136000000013155
-0.4996,0.875,0.1069,0.3518,0.366,0.0609,9.1263,-45.5875,-63.2363,6.992469861830225,-29.530586726769915,-20.005218611257465,3.1450000000040745
-0.537,0.8764,0.1038,0.3551,0.3754,0.0738,9.1263,-45.5875,-63.2363,6.776557482840793,-31.289520511555057,-20.116043362956656,3.1520000000018626
-0.5889,0.8686,0.1065,0.3551,0.3754,0.0738,8.75,-39.6987,-60.9525,6.96977014475832,-33.89200570991709,-20.22353156242997,3.1600000000034925
-0.5889,0.8686,0.1065,0.3566,0.382,0.0674,8.3912,-34.58,-57.12,6.988184011863946,-33.93763027864672,-20.3564319079301,3.1699999999982538
-0.6234,0.8413,0.0989,0.3566,0.382,0.0674,7.1838,-30.7475,-53.3662,6.73659818993485,-36.30154955293832,-20.47978089123928,3.180999999996857
-0.6522,0.8463,0.095,0.3566,0.382,0.0674,7.1838,-30.7475,-53.3662,6.442161575201243,-37.42310902350961,-20.483018820171154,3.187999999994645
-0.6629,0.8549,0.098,0.3589,0.3863,0.0667,6.7812,-27.4837,-50.0412,6.527991256455106,-37.6054313989425,-22.052899983944634,3.2550000000046566
-0.6698,0.8675,0.0977,0.3589,0.3863,0.0667,5.4163,-24.3775,-46.6463,6.44008161848464,-37.49987358732617,-21.9962626219634,3.2620000000024447
-0.6698,0.8841,0.1039,0.3617,0.3927,0.0766,4.0775,-21.175,-43.3475,6.657264567018043,-36.97258958784201,-21.897755692401226,3.267999999996391
-0.6811,0.8841,0.1039,0.3617,0.3927,0.0766,4.0775,-21.175,-43.3475,6.694834089676977,-37.40903874674172,-21.800233832429242,3.2740000000048894
-0.6974,0.892,0.1149,0.3634,0.3973,0.0798,2.8437,-18.2175,-41.3613,7.19807097392592,-37.780917453696595,-21.703434331976652,3.2810000000026776
-0.7096,0.894,0.1184,0.3634,0.3973,0.0798,0.0875,-14.8837,-40.1188,7.350948460470755,-38.186434790459984,-21.64055650906731,3.2920000000012806
-0.7283,0.8944,0.1269,0.3634,0.3973,0.0798,-2.3712,-11.6637,-38.1325,7.803845394045031,-38.85606223325824,-21.521588806205873,3.301000000006752
-0.7482,0.8951,0.1314,0.3656,0.4018,0.083,-2.3712,-11.6637,-38.1325,8.146114402135838,-39.56991386091219,-21.39298435120146,3.309000000008382
-0.7482,0.8951,0.1314,0.3656,0.4018,0.083,-4.1912,-8.3038,-34.265,8.30560127222863,-39.59073807369535,-21.239055532632527,3.31699999999546
-0.7612,0.8847,0.1381,0.367,0.4066,0.0886,-4.76,-5.0225,-28.7087,8.760121256332237,-40.3367447666153,-21.0691813886458,3.327000000004773
-0.7754,0.88,0.1352,0.367,0.4066,0.0886,-5.4687,-1.8725,-21.6388,8.738877634756433,-41.01260086698278,-20.868687844935543,3.3360000000102445
-0.7797,0.8671,0.1376,0.367,0.4066,0.0886,-5.4687,-1.8725,-21.6388,8.968819087070276,-41.57428415384552,-20.66793295439368,3.3430000000080327
-0.7674,0.8556,0.1369,0.366,0.4061,0.0816,-6.0287,0.0525,-14.28,9.071295116497561,-41.53401103251891,-20.4519823184191,3.3549999999959255
-0.7674,0.852,0.1377,0.366,0.4061,0.0816,-5.88,1.9162,-7.385,9.16302139411331,-41.61053263496776,-20.221285776510527,3.3650000000052387
-0.7529,0.852,0.1377,0.3671,0.4074,0.0797,-5.88,1.9162,-0.665,9.177871830985422,-41.19622889849168,-19.992896200059132,3.375
-0.7363,0.8489,0.1373,0.3671,0.4074,0.0797,-6.1425,3.3163,-1.3563,9.185907775645767,-40.70620815702518,-19.716895591527607,3.394000000000233
-0.7216,0.8389,0.1346,0.3671,0.4074,0.0797,-6.3,4.6463,3.2638,9.126015824494882,-40.38104255355611,-19.455880985159325,3.4060000000026776
-0.704,0.8326,0.1376,0.3636,0.4043,0.0752,-6.7725,6.0637,6.1163,9.347668538898375,-39.88087686082328,-19.180637812851295,3.4180000000051223
-0.6819,0.8142,0.1335,0.3636,0.4043,0.0752,-6.7725,6.0637,6.1163,9.31672395528708,-39.598278751900985,-18.894699678572525,3.4320000000006985
-0.6819,0.8142,0.1335,0.3638,0.4049,0.0784,-6.755,7.0087,7.1575,9.31234834660351,-39.57475879840667,-18.606182472428653,3.445000000006985
-0.6736,0.8037,0.1324,0.3638,0.4049,0.0784,-7.3238,7.9538,6.4662,9.349208116525109,-39.58875303033042,-18.28260231375635,3.4610000000102445
-0.6661,0.7899,0.1334,0.3638,0.4049,0.0784,-6.3787,8.12,4.76,9.55034391851687,-39.72902738051473,-17.985903650381186,3.474000000001979
-0.6562,0.7736,0.1249,0.3631,0.4018,0.0742,-6.3787,8.12,4.76,9.228191496738834,-39.92284740142818,-17.683412539608657,3.488000000012107
-0.6614,0.765,0.1225,0.3631,0.4018,0.0742,-5.81,8.8638,2.3712,9.118967881339394,-40.419801614734794,-17.38313306798106,3.5010000000038417
-0.6614,0.765,0.1237,0.3634,0.4021,0.0731,-5.5912,8.9425,-0.14,9.173940063268756,-40.47003103459764,-17.103990939744623,3.5120000000024447
-0.6608,0.7557,0.1237,0.3634,0.4021,0.0731,-4.6112,8.5225,-2.1088,9.271338548441111,-40.70901407469149,-16.83221403278997,3.5230000000010477
-0.6675,0.7576,0.1179,0.3626,0.4024,0.075,-4.6112,8.5225,-2.1088,8.932337003739324,-40.95652618957001,-16.544839077094498,3.536000000007334
-0.6771,0.7551,0.1147,0.3626,0.4024,0.075,-4.1475,8.3825,-2.8175,8.703629501969036,-41.368123725382574,-16.2170431266961,3.5540000000037253
-0.6819,0.7515,0.117,0.3626,0.4024,0.075,-2.8525,8.5925,-3.4562,8.803014896602207,-41.67689228442328,-15.944146188966581,3.56600000000617
-0.6847,0.7457,0.1227,0.3614,0.4039,0.074,-2.2138,8.1637,-3.7713,9.128457069797262,-41.95107517889114,-15.687875061519213,3.577000000004773
-0.6847,0.7457,0.1227,0.3614,0.4039,0.074,-2.2138,8.1637,-3.7713,9.258090928766833,-42.07494926150966,-15.434166645346318,3.588000000003376
-0.6886,0.7398,0.1186,0.3612,0.4022,0.0732,-0.9187,8.435,-3.9375,9.231457566089647,-42.335740915587394,-15.007686462803415,3.618000000002212
-0.6983,0.7369,0.1168,0.3612,0.4022,0.0732,-0.0613,8.12,-3.815,9.143523815608077,-42.75024817218324,-14.761255825617617,3.629000000000815
-0.7047,0.7415,0.1148,0.3612,0.4022,0.0732,2.1788,7.5512,-4.0425,8.889033931158242,-42.97019074974354,-14.515287404901402,3.6410000000032596
-0.7108,0.7491,0.1157,0.3619,0.4018,0.0744,0.9712,7.5512,-4.0425,8.820811060257798,-43.0623163277628,-14.296367633977543,3.650000000008731
-0.7108,0.7647,0.1092,0.3619,0.4018,0.0744,1.12,7.4725,-3.4388,8.372713505987566,-42.7935181360319,-14.023509415691304,3.666000000011991
-0.7163,0.7518,0.1092,0.3619,0.4009,0.0689,1.75,7.0437,-3.8588,8.295831803325608,-43.07032220987527,-13.806335352874697,3.676000000006752
-0.7168,0.7554,0.1115,0.3619,0.4009,0.0689,1.75,7.0437,-3.8588,8.367316419678186,-43.133643709274224,-13.575945236887142,3.688000000009197
-0.7194,0.7676,0.1122,0.3619,0.4009,0.0689,2.1088,6.3,-3.6488,8.329479963244834,-42.96649707637658,-13.363651811957991,3.6990000000078
-0.7179,0.7723,0.1099,0.3623,0.401,0.0753,1.61,5.5037,-2.905,8.168520112412434,-42.734569068351234,-13.16832232517073,3.709000000002561
-0.7188,0.7794,0.1089,0.3623,0.401,0.0753,1.6625,4.5413,-2.5025,8.01776024055389,-42.501643078931984,-12.97925737235631,3.720000000001164
-0.7188,0.7794,0.1089,0.3618,0.401,0.0708,1.6625,4.5413,-2.5025,7.972968922679494,-42.43475261042953,-12.792083069070033,3.730999999999767
-0.72,0.7868,0.1102,0.3618,0.401,0.0708,1.1375,3.5438,-1.7675,7.973014068705606,-42.243876495505084,-12.461170436577978,3.779000000009546
-0.7194,0.789,0.1146,0.3618,0.401,0.0708,0.56,2.8437,-1.89,8.13557720966082,-42.10530544968696,-12.28705617604784,3.7930000000051223
-0.7254,0.7942,0.1163,0.3596,0.4016,0.0652,-0.2625,2.5025,-1.6625,8.195364837380284,-42.10521086894873,-12.119412090121509,3.8070000000006985
-0.7352,0.8006,0.1142,0.3596,0.4016,0.0652,-0.2625,2.5025,-1.6625,8.171718846120307,-42.23514564408683,-11.943850118407584,3.8240000000078
-0.7352,0.8006,0.1154,0.3598,0.401,0.0718,-0.3063,2.17,-1.6013,8.18038936464439,-42.26069847755874,-11.804329080139853,3.831000000005588
-0.7354,0.804,0.1154,0.3598,0.401,0.0718,-0.5688,1.7325,-1.855,8.17892157330865,-42.18258398283807,-11.661927700651214,3.8410000000003492
-0.7367,0.8039,0.1156,0.3611,0.3987,0.063,-0.9538,1.7938,-2.3363,8.179734362529613,-42.20281521564284,-11.505364489716564,3.857000000003609
-0.7388,0.8047,0.1169,0.3611,0.3987,0.063,-0.9538,1.7938,-2.3363,8.196938183583546,-42.24237611986097,-11.362849390252887,3.868000000002212
-0.7397,0.8073,0.1139,0.3611,0.3987,0.063,-1.645,1.925,-2.4938,8.116324186380739,-42.2241155595825,-11.222957057664116,3.877999999996973
-0.7399,0.808,0.1142,0.3598,0.399,0.0702,-1.4262,1.3825,-3.36,8.08627584808897,-42.208443807260764,-11.08774508948999,3.889000000010128
-0.7399,0.808,0.1142,0.3598,0.399,0.0702,-1.47,1.5137,-3.5,8.068236836666049,-42.20268000427735,-10.956894866785241,3.8980000000010477
-0.7407,0.8013,0.1103,0.3573,0.3988,0.0616,-1.47,1.5137,-3.5,7.968142365311797,-42.36929657530948,-10.827353146307539,3.9069999999919673
-0.7353,0.7947,0.1096,0.3573,0.3988,0.0616,-0.9887,1.2775,-3.3075,7.942431918023621,-42.456016253883035,-10.697240667277237,3.9179999999905704
-0.7429,0.8023,0.1046,0.3573,0.3988,0.0616,-0.175,0.8138,-2.52,7.764614999106116,-42.52849834985964,-10.578057893619768,3.926000000006752
-0.7407,0.8122,0.11,0.359,0.399,0.0664,-0.175,0.8138,-1.61,7.746738547355336,-42.20154018559899,-10.461593243596946,3.93300000000454
-0.7407,0.8122,0.1089,0.359,0.399,0.0664,-0.0088,0.9013,-1.61,7.701632808073026,-42.130742962335745,-10.34729978595074,3.9389999999984866
-0.7349,0.8168,0.1089,0.3583,0.3997,0.0645,0.7525,0.6737,-0.2713,7.637936514924863,-41.79834808971063,-10.22995081937831,3.9490000000078
-0.7345,0.8221,0.106,0.3583,0.3997,0.0645,0.8662,0.805,0.6737,7.460269621212598,-41.582552899372295,-10.117028224119966,3.955999999991036
-0.7378,0.8258,0.1017,0.3583,0.3997,0.0645,0.8662,0.805,0.6737,7.1918390902654785,-41.56730271542533,-10.005234854770041,3.963000000003376
-0.7341,0.8328,0.0949,0.3582,0.3986,0.0622,1.12,0.805,1.61,6.745676543667615,-41.25912914111257,-9.896077002989443,3.9690000000118744
-0.7303,0.8395,0.0951,0.3582,0.3986,0.0622,1.0588,-0.0175,2.205,6.565347846464809,-40.89112309230849,-9.792896379743807,3.9750000000058208
-0.7303,0.8395,0.0951,0.3582,0.3954,0.063,1.1025,-0.4462,2.9225,6.499484661107535,-40.84568441219824,-9.693294040728057,3.980999999999767
-0.7211,0.8389,0.0882,0.3582,0.3954,0.063,1.1025,-0.4462,2.9225,6.179236672411798,-40.56190222230336,-9.592456558137952,3.9950000000098953
-0.7138,0.8386,0.0836,0.3582,0.3954,0.063,1.3825,-0.4638,3.85,5.850573910560256,-40.29429735953535,-9.494963161338156,4.001000000003842
-0.7039,0.8449,0.0818,0.3546,0.3948,0.0648,1.4612,-0.4288,3.9113,5.631250372646364,-39.73025190060794,-9.397644554764291,4.0090000000054715
-0.6925,0.8499,0.0747,0.3546,0.3948,0.0648,1.3212,-0.4025,4.62,5.2240875064289565,-39.12799727548218,-9.300124361647098,4.0200000000040745
-0.6925,0.8499,0.0747,0.3561,0.3939,0.0674,1.3212,-0.4025,4.62,5.0894672065946,-39.071205982458736,-9.204223688198864,4.029000000009546
-0.6786,0.861,0.0681,0.3561,0.3939,0.0674,1.4525,-1.0412,5.2063,4.702049301088818,-38.23842128523042,-9.114352530226189,4.036000000007334
-0.6629,0.8737,0.0728,0.3561,0.3919,0.0657,0.8138,-0.8313,5.6262,4.738845271290242,-37.19181700104698,-9.023823123703307,4.042000000001281
-0.654,0.8782,0.0761,0.3556,0.3919,0.0657,1.0938,-0.245,5.915,4.876159276620551,-36.62466709871708,-8.929760221505497,4.05000000000291
-0.645,0.879,0.0747,0.3556,0.3919,0.0657,1.0938,-0.245,5.915,4.86416585030411,-36.21051053482838,-8.834725612849272,4.062000000005355
-0.6384,0.8846,0.0789,0.3546,0.3901,0.0711,0.7437,0.77,6.6238,5.001783333829892,-35.749380732360315,-8.73006608415285,4.073000000003958
-0.6384,0.8846,0.0789,0.3546,0.3901,0.0711,0.455,1.7237,7.0437,5.052823348080551,-35.71270626090264,-8.620921551468042,4.08200000000943
-0.6348,0.8879,0.0822,0.3554,0.3882,0.0594,0.455,2.765,7.0525,5.179709400612229,-35.46747972004377,-8.496674513388191,4.093000000008033
-0.627,0.8835,0.0838,0.3554,0.3882,0.0594,-0.7,2.765,7.0525,5.180500784714897,-35.25879050040984,-8.38058591345571,4.101999999998952
-0.6257,0.8752,0.0893,0.3554,0.3882,0.0594,-2.03,4.1388,6.7288,5.548534280397991,-35.408761375590146,-8.243781549757884,4.112999999997555
-0.6211,0.8779,0.0887,0.3534,0.3853,0.0723,-3.325,5.6,6.615,5.70840817418512,-35.1629108298258,-8.061109592319884,4.129000000000815
-0.6211,0.8779,0.0887,0.3534,0.3853,0.0723,-3.325,5.6,6.615,5.752551844232305,-35.14339841716801,-7.930381425426474,4.137000000002445
-0.6219,0.8808,0.0895,0.3539,0.3847,0.0622,-4.9088,6.7025,6.405,5.792528594660642,-35.09059048075939,-7.79222874020022,4.1450000000040745
-0.619,0.8721,0.0933,0.3539,0.3847,0.0622,-6.2125,8.3038,6.65,6.05822785871384,-35.2030091230308,-7.642775285823645,4.153000000005704
-0.6176,0.8592,0.0923,0.3539,0.3847,0.0622,-7.9975,10.0887,6.6238,6.122678334998254,-35.52546813107337,-7.469971511232645,4.161999999996624
-0.6161,0.8481,0.0949,0.3528,0.3832,0.0545,-7.9975,10.0887,6.6238,6.353088881793055,-35.80316668832648,-7.309604221142866,4.169999999998254
-0.6118,0.8408,0.1015,0.3528,0.3832,0.0545,-9.0037,12.1187,6.8162,6.826330381143812,-35.84097943607578,-7.134763003950709,4.177999999999884
-0.6118,0.8408,0.1015,0.3518,0.3831,0.0576,-9.4937,14.4725,7.7525,6.877521347207838,-35.843950410097165,-6.882834467434413,4.190000000002328
-0.6006,0.8507,0.1042,0.3518,0.3831,0.0576,-10.64,17.3162,9.415,6.97355914977315,-35.07500039556363,-6.671096747770955,4.198000000003958
-0.5943,0.8533,0.101,0.3518,0.3831,0.0576,-10.64,17.3162,9.415,6.770759481177989,-34.69578917837017,-6.461476405304131,4.206000000005588
-0.5907,0.8484,0.0938,0.3487,0.3787,0.0567,-11.6287,20.8337,10.8325,6.347774244334407,-34.685255644331605,-6.119363682117525,4.2189999999973224
-0.5921,0.8416,0.0942,0.3487,0.3787,0.0567,-12.0837,24.7275,12.6175,6.383385702288064,-34.945491341953925,-5.881764033262091,4.225999999995111
-0.5921,0.8416,0.0942,0.3501,0.3776,0.05,-13.0988,28.9888,14.0437,6.386281300792213,-34.959537447740466,-5.617009571476433,4.233000000007451
-0.5871,0.8343,0.0999,0.3501,0.3776,0.05,-13.0988,28.9888,14.0437,6.795163282830954,-34.94333236683607,-5.413741746274673,4.238000000012107
-0.5887,0.8294,0.09,0.3501,0.3776,0.047,-13.7025,32.9087,14.5338,6.236068176729486,-35.195696836037264,-5.159802847793513,4.244000000006054
-0.5863,0.823,0.0883,0.3482,0.3749,0.047,-12.4338,36.5225,14.4375,6.132675183625196,-35.30538094879135,-4.813181548832118,4.2519999999931315
-0.6007,0.8226,0.085,0.3482,0.3749,0.047,-11.3225,39.6637,14.3325,5.919556455680518,-35.95994426041421,-4.4451481577367264,4.260000000009313
-0.6192,0.828,0.0807,0.3463,0.3709,0.0392,-11.3225,39.6637,14.3325,5.597050815797594,-36.625814856969036,-4.160770495181429,4.26600000000326
-0.6192,0.828,0.0807,0.3463,0.3709,0.0392,-10.71,41.86,14.6562,5.569439932605451,-36.658615202304645,-3.824028553232872,4.273000000001048
-0.6387,0.848,0.0798,0.3432,0.369,0.0331,-9.9838,42.4987,16.7738,5.394741788555455,-36.85609230814103,-3.4434334926707963,4.2810000000026776
-0.6605,0.8742,0.0795,0.3432,0.369,0.0331,-9.9838,42.4987,21.14,5.215514076785288,-36.9555656679115,-3.109438729748745,4.288000000000466
-0.6737,0.8856,0.0814,0.3432,0.369,0.0331,-9.6075,42.455,21.14,5.247947963960024,-37.13817491546226,-2.8218378388679453,4.294000000008964
-0.67,0.8836,0.0761,0.343,0.3653,0.0226,-9.205,41.335,25.585,4.956706005582709,-37.07193703823475,-2.502123474087349,4.3009999999922
-0.67,0.8836,0.0761,0.343,0.3653,0.0226,-9.1525,39.7163,30.1087,4.926074383599151,-37.06983028882388,-2.116744301297397,4.309999999997672
-0.6515,0.8922,0.0788,0.3398,0.3598,0.0281,-9.1525,39.7163,30.1087,5.034492160696836,-36.060379975547,-1.7352189202353447,4.319000000003143
-0.6145,0.8857,0.0795,0.3398,0.3598,0.0281,-8.82,39.7513,33.6525,5.1187190246386995,-34.681078849639775,-1.3972713640076775,4.327000000004773
-0.6015,0.8832,0.0778,0.3398,0.3598,0.0281,-8.435,41.2475,35.49,5.043809194763478,-34.16643487533681,-0.6768524498872145,4.3439999999973224
-0.6011,0.8819,0.0753,0.3351,0.3547,0.0328,-7.595,43.3387,35.0788,4.901015993898733,-34.181060874895664,-0.321076349722399,4.352000000013504
-0.6048,0.8875,0.0745,0.3351,0.3547,0.0328,-7.595,43.3387,35.0788,4.811375146472712,-34.1795393588142,0.20564577568663725,4.364000000001397
-0.6048,0.8875,0.0745,0.3322,0.349,0.0193,-7.0613,44.625,32.8037,4.800135779949761,-34.17950236029879,0.6076837730054389,4.3730000000068685
-0.6095,0.8843,0.0727,0.3322,0.349,0.0193,-6.0462,44.5025,30.03,4.715641079583209,-34.477753836415,0.8702755882243159,4.379000000000815
-0.6096,0.8781,0.0699,0.3322,0.349,0.0193,-6.1163,44.03,26.005,4.576975348247372,-34.67819965354057,1.5262278403662806,4.394000000000233
-0.6076,0.8799,0.063,0.3312,0.3446,0.006,-6.1163,44.03,26.005,4.170438670361504,-34.56165808707342,1.8211378995994085,4.401000000012573
-0.604,0.8827,0.0669,0.3312,0.3446,0.006,-5.4513,42.3675,22.0063,4.305686531861207,-34.31513912007371,2.1442421910121,4.408999999999651
-0.604,0.8827,0.0669,0.328,0.3409,-0.0003,-5.32,39.9263,18.515,4.329100348625974,-34.306378538949005,2.4045334656886364,4.416000000011991
-0.5996,0.879,0.0647,0.328,0.3409,-0.0003,-5.4862,36.8988,15.7063,4.230382554551895,-34.23103269165353,2.678491697510396,4.423999999999069
-0.598,0.8799,0.0628,0.328,0.3409,0.0202,-5.4862,36.8988,15.7063,4.107971178679898,-34.137785050607896,2.9869607935691085,4.43300000000454
-0.5964,0.8843,0.0648,0.3255,0.3381,0.0085,-5.0925,33.3112,12.3813,4.175631205683723,-33.93742908252995,3.159283516649419,4.438999999998487
-0.5934,0.8821,0.0624,0.3255,0.3381,0.0085,-4.4887,29.0675,9.3013,4.0733886914512825,-33.86789839393121,3.3341728935076795,4.445999999996275
-0.5934,0.8772,0.0656,0.3227,0.3358,0.0066,-4.2088,24.5088,7.0525,4.231662018570169,-33.99271663294846,3.47572158560734,4.452999999994063
-0.5846,0.8772,0.0656,0.3227,0.3358,0.0066,-4.2088,24.5088,7.0525,4.266791152014764,-33.63689303375095,3.6908078286839516,4.463000000003376
-0.5811,0.8779,0.0632,0.323,0.3347,-0.0069,-3.6488,20.2475,4.2613,4.155426947877445,-33.453141464953866,3.8823219979381025,4.474000000001979
-0.5704,0.8742,0.0693,0.323,0.3347,-0.0069,-3.465,16.24,2.065,4.432259185167836,-33.09277457123058,3.944288181077032,4.4799999999959255
-0.5643,0.8795,0.0685,0.323,0.3347,-0.0069,-3.465,16.24,-0.175,4.447853701195209,-32.6898900083886,4.056029404188173,4.489000000001397
-0.5518,0.877,0.0658,0.3218,0.3334,-0.004,-3.605,12.32,-0.1663,4.331036173444637,-32.205745161087876,4.1058911472077195,4.495999999999185
-0.5518,0.877,0.0658,0.3218,0.3334,-0.004,-4.2175,9.8612,-1.6625,4.299695768520458,-32.1285138551109,4.127731566892181,4.5019999999931315
-0.5494,0.8768,0.0691,0.3232,0.3338,-0.003,-4.2088,7.7088,-3.5,4.460309114487024,-32.04656357305041,4.144920672416327,4.5090000000054715
-0.5477,0.8818,0.0686,0.3232,0.3338,-0.003,-4.2088,7.7088,-3.5,4.451035092348232,-31.87990190042154,4.178642578446321,4.517999999996391
-0.5441,0.8738,0.0717,0.3232,0.3338,-0.003,-4.1125,6.265,-5.1363,4.6365127720579355,-31.872490783142744,4.199163007529737,4.527000000001863
-0.5485,0.8665,0.0658,0.3212,0.3349,-0.0081,-3.465,4.9963,-6.9913,4.420714596587093,-32.130895725385976,4.196840173531905,4.533999999999651
-0.5485,0.8616,0.0631,0.3212,0.3349,-0.0081,-2.9838,3.7975,-9.3363,4.2593750163090895,-32.359234093077816,4.186232883941871,4.541000000011991
-0.5535,0.8616,0.0631,0.3206,0.335,-0.006,-2.9838,3.7975,-9.3363,4.210193197266586,-32.593574881776355,4.189172143713788,4.5509999999922
-0.5543,0.8613,0.0587,0.3206,0.335,-0.006,-2.3975,3.0712,-11.0513,4.014404426337186,-32.68786700711055,4.177369397297511,4.559000000008382
-0.5604,0.8667,0.0547,0.3206,0.335,-0.006,-1.155,1.6275,-12.3375,3.888987909358763,-32.81687422466243,4.151918715409377,4.56600000000617
-0.5673,0.8782,0.0552,0.3205,0.335,-0.0152,-0.9013,0.1488,-12.5825,3.840676142206987,-32.81097922007305,4.1173430952166985,4.5740000000078
-0.5784,0.8866,0.0507,0.3205,0.335,-0.0152,-0.9013,0.1488,-12.5825,3.7468445230037632,-33.04591308350381,4.086585014694023,4.585999999995693
-0.5784,0.8866,0.0507,0.3242,0.3362,-0.004,-0.6562,-0.0525,-11.9875,3.725512861809103,-33.07297057452257,4.053074412125879,4.597000000008848
-0.583,0.887,0.0476,0.3242,0.3362,-0.004,-0.6737,-0.595,-11.1912,3.706701304083856,-33.249536182526136,4.013464755092414,4.603999999992084
-0.5872,0.886,0.0531,0.3242,0.3362,-0.004,0.35,-1.89,-10.8062,3.5646365112611225,-33.45244617987054,3.9583740478275162,4.617000000012922
-0.5916,0.8893,0.0474,0.3222,0.3356,-0.0026,0.35,-1.89,-10.8062,3.301147267794258,-33.57500982174834,3.907285646055268,4.627000000007683
-0.5897,0.881,0.0484,0.3222,0.3356,-0.0026,-0.0437,-3.4213,-11.13,3.2388988808827355,-33.73118327173427,3.849547617690613,4.6340000000054715
-0.5897,0.881,0.042,0.3242,0.339,-0.0102,0.3588,-4.2787,-11.2,2.9764747775083964,-33.76155090217575,3.7829299085191317,4.641999999992549
-0.5955,0.8845,0.042,0.3242,0.339,-0.0102,0.3588,-4.2787,-11.4712,2.8436613897247005,-33.89969224715459,3.7029172598141926,4.654000000009546
-0.598,0.8876,0.0462,0.3255,0.3394,-0.0046,0.8838,-5.1887,-11.4712,2.927045700906597,-33.92881200270374,3.6349748333158187,4.661000000007334
-0.599,0.8916,0.0432,0.3255,0.3394,-0.0046,0.9363,-6.1425,-11.515,2.831941761278699,-33.871861931341776,3.5664624382351104,4.667000000001281
-0.6005,0.8991,0.0528,0.3255,0.3394,-0.0046,0.91,-6.3525,-11.1562,3.158465653117249,-33.71796857774197,3.4918194259550757,4.673999999999069
-0.5999,0.8958,0.0483,0.324,0.3415,-0.0023,0.91,-6.3525,-11.1562,3.1139155078298906,-33.76362173948572,3.4067861614950576,4.68300000000454
-0.5999,0.8958,0.0483,0.324,0.3415,-0.0023,0.7525,-6.9037,-10.3775,3.0975458887038307,-33.76986200866067,3.336034125137119,4.688999999998487
-0.6017,0.8989,0.052,0.3226,0.341,-0.0062,0.245,-7.735,-9.5725,3.201337283224256,-33.756085720387865,3.2541146709910915,4.695999999996275
-0.5981,0.899,0.054,0.3226,0.341,-0.0062,0.91,-7.98,-8.4525,3.3470947573495016,-33.62566021307207,3.1713165612825844,4.703000000008615
-0.5973,0.901,0.0556,0.3226,0.341,-0.0062,0.91,-7.98,-8.4525,3.460751202692758,-33.52150371099875,3.0965259989332203,4.709000000002561
-0.596,0.9038,0.0504,0.3249,0.3403,-0.0046,0.2537,-8.3475,-7.245,3.329212552290992,-33.41058075437863,3.012757001050573,4.716000000000349
-0.596,0.9038,0.0477,0.3249,0.3403,-0.0046,0.6125,-7.9887,-6.9563,3.1541496586630275,-33.38084336178698,2.8963712814624945,4.728000000002794
-0.5962,0.9079,0.0477,0.325,0.34,-0.003,0.7088,-8.2513,-6.5012,3.06828965492184,-33.30554530384283,2.8078223435957304,4.736000000004424
-0.5955,0.9046,0.0513,0.325,0.34,-0.003,0.7088,-8.2513,-6.5012,3.172194954451507,-33.31109694058182,2.7350552014248612,4.74199999999837
-0.5799,0.9037,0.0595,0.325,0.34,-0.003,0.4725,-8.2775,-6.1512,3.4935991791340797,-32.94534414616498,2.6628601025670955,4.7480000000068685
-0.569,0.916,0.0558,0.3246,0.3416,0.0065,-0.5163,-7.5775,-5.2238,3.4923988575270752,-32.724362725000155,2.588763863646424,4.755000000004657
-0.5625,0.9184,0.0637,0.3246,0.3416,0.0065,-0.665,-6.8863,-5.11,3.509942518230759,-32.579721111871194,2.508004996806601,4.764000000010128
-0.5625,0.9184,0.0637,0.3259,0.3417,0.0014,-0.665,-6.8863,-5.11,3.5268385864324094,-32.45118506536897,2.440247325030741,4.770999999993364
-0.5661,0.9146,0.0616,0.3259,0.3417,0.0014,-1.4612,-6.0813,-5.3463,3.6675245061230304,-32.25111347399873,2.3840457329553937,4.777000000001863
-0.5683,0.9076,0.0615,0.3259,0.3417,0.0014,-1.2687,-5.145,-5.845,3.7430013673321763,-32.13222132469137,2.3252219465787127,4.7850000000034925
-0.5783,0.9002,0.0525,0.3269,0.3422,-0.004,-1.2687,-4.9437,-6.4575,3.5966279820185263,-32.45430279488988,2.2727543232121574,4.792000000001281
-0.585,0.8958,0.0461,0.3269,0.3422,-0.004,-0.9363,-4.9437,-6.4575,3.4736867052444436,-32.84588914776587,2.2166377469332335,4.80000000000291
-0.585,0.8958,0.0617,0.3246,0.345,0.0007,-0.4375,-5.18,-7.525,3.571642887229729,-33.01703301544126,2.1636184065636503,4.8070000000006985
-0.5894,0.8968,0.0484,0.3246,0.345,0.0007,0.2625,-5.3463,-8.7937,3.3346329078983343,-33.22192275393685,2.109976800598127,4.813999999998487
-0.5941,0.8946,0.0433,0.3246,0.3426,0.003,0.2625,-5.3463,-8.7937,3.057735055850476,-33.487385459728756,2.047727204397129,4.823000000003958
-0.5931,0.8918,0.045,0.3269,0.3426,0.003,1.8288,-5.985,-9.73,2.936542343471067,-33.57435581435996,1.9700002549304285,4.834000000002561
-0.5961,0.8953,0.0346,0.3269,0.3426,0.003,2.0475,-7.3063,-10.5525,2.4060240954255816,-33.62692494471601,1.911224633640549,4.8399999999965075
-0.5965,0.8935,0.0384,0.3261,0.3423,0.0006,2.2138,-7.35,-9.87,2.4468830282848435,-33.68977406605241,1.8396654582534586,4.847999999998137
-0.5965,0.8935,0.0384,0.3261,0.3423,0.0006,2.2138,-7.35,-9.87,2.4573138676291957,-33.70045306650037,1.7491542762500822,4.85899999999674
-0.5922,0.8943,0.0358,0.3266,0.3442,-0.0026,2.3012,-8.2688,-9.7125,2.333582652949981,-33.52770783104897,1.6794043864854573,4.86600000000908
-0.5847,0.8949,0.0356,0.3266,0.3442,-0.0026,2.275,-9.0562,-9.3188,2.2920320908013956,-33.21156366189873,1.6048953137288398,4.8730000000068685
-0.58,0.8951,0.0342,0.3266,0.3442,-0.0026,2.1613,-8.995,-8.7587,2.2149887368121104,-32.983484694821996,1.5397398638610966,4.879000000000815
-0.5707,0.8978,0.0348,0.3278,0.3469,-0.0018,2.1613,-8.995,-8.7587,2.218521211721522,-32.54057888773581,1.4506827200077044,4.888000000006286
-0.5707,0.8978,0.0348,0.3278,0.3469,-0.0018,1.4525,-8.4263,-8.9687,2.219363598683369,-32.44676853374287,1.382826070914485,4.8950000000040745
-0.568,0.9019,0.0429,0.3282,0.3454,0.0038,0.4988,-8.4525,-9.0475,2.4944553625354864,-32.22689779791287,1.3231137634716341,4.900999999998021
-0.569,0.8991,0.0442,0.3282,0.3454,0.0038,-0.1838,-8.1112,-9.5375,2.603848246861127,-32.284082139570714,1.258716446836719,4.908000000010361
-0.5688,0.8953,0.0431,0.3282,0.3454,0.0038,-0.1838,-8.1112,-9.5375,2.6559058472198447,-32.37790470425511,1.1876536494228052,4.915999999997439
-0.5691,0.8986,0.042,0.3297,0.3465,0.0029,-0.28,-7.7613,-10.5962,2.6618885973663984,-32.32755755887291,1.1131096347204785,4.92500000000291
-0.5687,0.9012,0.0412,0.3297,0.3465,0.0029,-1.1812,-6.9037,-11.2875,2.6475543587717643,-32.24066891716024,1.0652943635413148,4.931000000011409
-0.5687,0.9012,0.0412,0.3306,0.3454,0.0048,-2.5113,-6.3875,-11.4625,2.62824081483656,-32.22872674929392,1.0154204820898292,4.937999999994645
-0.5685,0.9006,0.0448,0.3306,0.3454,0.0048,-2.5113,-6.3875,-11.4625,2.769614441958353,-32.2298714968749,0.9492363659167489,4.948000000003958
-0.5655,0.9031,0.0517,0.3306,0.3454,0.0048,-3.3863,-4.8913,-11.5588,3.1388342534098532,-32.04049152780191,0.8985264709791739,4.957999999998719
-0.5649,0.9003,0.0527,0.3294,0.348,0.0074,-4.2962,-3.6312,-11.5937,3.3040587202577845,-32.05954115271078,0.8665471732246977,4.966000000000349
-0.5653,0.8951,0.0538,0.3294,0.348,0.0074,-4.2962,-3.6312,-11.9613,3.410108899815691,-32.20672122598679,0.8348876684477662,4.974000000001979
-0.5653,0.8951,0.0538,0.3307,0.3484,0.0086,-4.9437,-2.2487,-11.9613,3.4339931440514393,-32.22517270572453,0.8114830004492667,4.984000000011292
-0.5627,0.8833,0.0605,0.3307,0.3484,0.0086,-4.2962,-0.945,-13.0638,3.8128125009342573,-32.41469793135931,0.8014339252767255,4.993000000002212
-0.5735,0.8794,0.0567,0.3307,0.3496,0.0093,-3.7275,0.3762,-14.0612,3.7198300798017554,-32.99235006895671,0.8021641609857397,5.001000000003842
-0.5779,0.8661,0.0612,0.3312,0.3496,0.0093,-3.7275,0.3762,-14.0612,3.961860507455511,-33.58213646105393,0.8039801661959568,5.009999999994761
-0.5841,0.8706,0.0637,0.3312,0.3496,0.0093,-3.64,0.9013,-14.07,4.128136060077535,-33.76721351640348,0.8120695732490187,5.0200000000040745
-0.591,0.8763,0.0644,0.3312,0.351,0.0108,-2.73,2.4588,-13.125,4.178370643113039,-33.90798320656734,0.8291876444816704,5.028000000005704
-0.591,0.8763,0.0644,0.3312,0.351,0.0108,-2.3888,2.7912,-12.1363,4.193927442381404,-33.92315472675316,0.8487671429518341,5.035999999992782
-0.6005,0.8763,0.0595,0.3321,0.3509,0.01,-2.3888,2.7912,-12.1363,3.99964180443917,-34.30654899282859,0.8716347683713781,5.044999999998254
-0.6018,0.8774,0.0581,0.3321,0.3509,0.01,-1.3212,3.325,-10.8938,3.9190067789468492,-34.3756966020941,0.9110670271374735,5.0570000000006985
-0.6078,0.8801,0.0611,0.3321,0.3509,0.01,-0.5775,4.0075,-9.9925,3.9248542443534284,-34.5332472219348,0.9394608278337394,5.065000000002328
-0.6116,0.8729,0.0546,0.3331,0.3499,0.017,-1.05,3.9638,-8.0763,3.835871607520979,-34.85915219699003,0.9672245865229722,5.073000000003958
-0.6116,0.8729,0.0546,0.3331,0.3499,0.017,-1.05,3.9638,-8.0763,3.769795653738284,-34.938804405186154,0.9993555035131565,5.08200000000943
-0.6148,0.8732,0.051,0.3322,0.3518,0.0039,0.175,3.3688,-7.6388,3.5700396623912045,-35.057762759734935,1.042086644754502,5.095000000001164
-0.6209,0.8738,0.0511,0.3322,0.3518,0.0039,0.5688,3.1937,-8.015,3.4450831914436524,-35.27783743329427,1.0704897469866184,5.1049999999959255
-0.6248,0.868,0.0537,0.3322,0.3518,0.0039,0.8662,3.1675,-8.365,3.5031640105775614,-35.59980779953773,1.1022058970813646,5.1159999999945285
-0.6341,0.8675,0.0509,0.327,0.3519,0.005,0.8662,3.1675,-8.365,3.4144594888295337,-35.99976189790051,1.1181790501920208,5.122999999992317
-0.6402,0.8769,0.0476,0.327,0.3519,0.005,0.6475,1.1638,-9.1263,3.2378380970546217,-36.07405824109679,1.1388347894934001,5.139999999999418
-0.6402,0.8769,0.0476,0.3333,0.3539,0.0038,-0.49,-1.645,-11.095,3.2148494776422107,-36.08947431896093,1.1192751964234986,5.149000000004889
-0.637,0.8764,0.0516,0.3333,0.3539,0.0038,-0.1575,-3.9375,-13.335,3.2694655742574827,-35.9773370106357,1.0731300420337024,5.1600000000034925
-0.6304,0.8771,0.0562,0.3333,0.3539,0.0038,-0.1575,-3.9375,-13.335,3.409552685564565,-35.68537460365339,1.0306238303300113,5.169999999998254
-0.6261,0.8807,0.056,0.3321,0.3542,0.0037,-1.0938,-6.1512,-14.4462,3.473789151460519,-35.38648851148037,0.9719961048273342,5.179000000003725
-0.6233,0.8785,0.0612,0.3321,0.3542,0.0037,-1.6712,-8.085,-16.0737,3.725234481345634,-35.298400296521464,0.896724498675198,5.187999999994645
-0.6233,0.8785,0.0612,0.3344,0.3545,0.0087,-1.6712,-8.085,-16.0737,3.853009727848006,-35.29111365453628,0.814922092320613,5.198000000003958
-0.616,0.8718,0.0644,0.3344,0.3545,0.0087,-2.765,-9.7738,-17.5,4.103349163800441,-35.17986708841757,0.7440848745072153,5.205000000001746
-0.6134,0.8632,0.0653,0.3344,0.3545,0.0037,-3.3425,-11.585,-19.1012,4.264901083419385,-35.31156285236869,0.6614044128759177,5.211999999999534
-0.6119,0.8517,0.0615,0.3372,0.3574,0.0037,-2.6513,-13.2125,-19.6788,4.175810503431202,-35.60466950347587,0.5682721808644968,5.2189999999973224
-0.6155,0.8533,0.0639,0.3372,0.3574,0.0037,-2.6513,-13.2125,-19.6788,4.246403778302491,-35.719752543458455,0.4513517888182253,5.228000000002794
-0.6217,0.8615,0.0683,0.3369,0.3594,0.0137,-1.9162,-13.9738,-19.1712,4.403457604273237,-35.73016670773522,0.32881741787911817,5.236999999993714
-0.6217,0.8615,0.0683,0.3369,0.3594,0.0137,-0.6125,-15.2075,-17.6138,4.4142395471016345,-35.73084693554894,0.22518570561343532,5.244000000006054
-0.6265,0.8647,0.0687,0.3375,0.361,0.0163,0.7613,-15.68,-15.0937,4.490507220257571,-35.829086757807936,0.08971075352171412,5.252999999996973
-0.6265,0.8613,0.0687,0.3375,0.361,0.0163,0.7613,-15.68,-15.0937,4.532063477118884,-35.93487426630915,-0.05921201523595697,5.2629999999917345
-0.6335,0.8663,0.0756,0.3375,0.361,0.0163,1.1725,-15.4263,-12.5825,4.829090568398689,-36.05730540787467,-0.16047971717316206,5.2700000000040745
-0.6304,0.86,0.0751,0.3381,0.3627,0.0182,2.0912,-15.9338,-10.7537,4.94812970428704,-36.12656549751037,-0.2793055450659654,5.278000000005704
-0.6304,0.86,0.0751,0.3381,0.3627,0.0182,2.4762,-15.6975,-9.8088,4.980535054179306,-36.136509700683284,-0.3950716186794594,5.286000000007334
-0.6285,0.8622,0.0727,0.3385,0.3618,0.0121,2.4762,-15.6975,-9.8088,4.858206428979785,-36.01812969668276,-0.5096800315568185,5.294000000008964
-0.6281,0.866,0.073,0.3385,0.3618,0.0121,2.6862,-15.3038,-9.205,4.827461999081801,-35.88754127326496,-0.6055941279093464,5.3009999999922
-0.624,0.8623,0.0763,0.3385,0.3618,0.0121,2.8175,-14.35,-9.6337,5.005920290126835,-35.80330303946168,-0.6939392497066689,5.30800000000454
-0.6223,0.861,0.0714,0.3379,0.362,0.0184,2.5812,-13.2825,-10.185,4.802456654354571,-35.77109084013181,-0.8112902684444904,5.3179999999993015
-0.6261,0.8641,0.0706,0.3379,0.362,0.0184,2.5812,-13.2825,-10.185,4.701598213596861,-35.8250327324397,-0.9026096948203025,5.326000000000931
-0.6261,0.8641,0.0706,0.339,0.3635,0.0166,2.7825,-11.6375,-10.255,4.6777364456487485,-35.83375129315858,-0.9907880181011944,5.335000000006403
-0.621,0.8669,0.0728,0.339,0.3635,0.0166,2.7475,-10.6225,-9.5988,4.772752677899717,-35.57629523726329,-1.0690409080012342,5.3439999999973224
-0.622,0.8669,0.0789,0.339,0.3635,0.0166,2.7475,-8.925,-7.9887,5.10430807626703,-35.554723316147516,-1.1557318925010611,5.355999999999767
-0.6177,0.8692,0.0778,0.3401,0.363,0.0163,2.9838,-8.925,-7.9887,5.112543598251827,-35.35743946988595,-1.225325734833538,5.3659999999945285
-0.615,0.8691,0.0749,0.3401,0.363,0.0163,2.8175,-7.6475,-6.2825,4.966985277038211,-35.25971881422938,-1.281576388849002,5.376000000003842
-0.615,0.8691,0.0749,0.3411,0.3635,0.0154,2.6163,-6.4925,-5.3463,4.935213954015707,-35.2397221533536,-1.382899447583765,5.396000000007916
-0.6115,0.8685,0.0779,0.3411,0.3635,0.0154,2.6163,-6.4925,-3.1063,5.0813887602677354,-35.10998216105629,-1.4204329233091528,5.405000000013388
-0.6074,0.866,0.0733,0.3411,0.3635,0.0116,2.555,-5.5213,-4.445,4.895231994875149,-35.05361916563788,-1.458428578499432,5.416000000011991
-0.605,0.8666,0.0743,0.3372,0.3617,0.0116,2.1437,-3.8675,-4.2088,4.899060412449933,-34.95227230085421,-1.4656016306175628,5.423000000009779
-0.6054,0.8686,0.0678,0.3372,0.3617,0.0116,1.8988,-2.905,-3.395,4.584248652440581,-34.8552865818368,-1.47034345949318,5.43200000001525
-0.6064,0.87,0.0733,0.3409,0.3629,0.0224,1.8988,-2.905,-3.395,4.751633846603295,-34.81026153062788,-1.472882553910397,5.440000000002328
-0.6064,0.87,0.0733,0.3409,0.3629,0.0224,1.9075,-1.995,-3.885,4.798145292933972,-34.795427607707225,-1.4681890573950833,5.447999999989406
-0.6104,0.8703,0.0721,0.3386,0.3613,0.0191,1.3212,-1.5925,-4.2088,4.756449285281211,-34.86405438983092,-1.4637784603956805,5.460000000006403
-0.6083,0.8744,0.072,0.3386,0.3613,0.0191,1.12,-0.8138,-3.7975,4.724669328147441,-34.79386936326965,-1.4499059289609515,5.4689999999973224
-0.612,0.8741,0.0702,0.3386,0.3613,0.0191,1.12,-0.8138,-3.7975,4.638755706863365,-34.85758379180652,-1.4361721228418072,5.478000000002794
-0.6104,0.8721,0.0718,0.3388,0.3625,0.0142,0.665,-0.9275,-3.9025,4.677922954614291,-34.87862665987069,-1.422995948392193,5.48399999999674
-0.6104,0.8721,0.0718,0.3388,0.3625,0.0142,0.8138,-0.3063,-4.1125,4.695175364362552,-34.88768526323083,-1.405426813941517,5.492000000012922
-0.6124,0.8718,0.0698,0.3393,0.3625,0.017,0.0613,0.0263,-4.3663,4.644219545560597,-34.93069618418671,-1.3853991788517501,5.5
-0.6108,0.868,0.0706,0.3393,0.3625,0.017,0.0613,0.0263,-4.3663,4.646722789573349,-34.97425214055386,-1.3663184909748842,5.506999999997788
-0.6138,0.8714,0.0719,0.3393,0.3625,0.017,0.0437,-0.1575,-5.0225,4.676705566999464,-34.97769534355532,-1.3481376351042151,5.514999999999418
-0.613,0.8672,0.0717,0.3406,0.3626,0.0226,0.175,-0.14,-5.9062,4.699970524906396,-35.06680513687384,-1.3270898184395141,5.528000000005704
-0.613,0.8637,0.07,0.3406,0.3626,0.0226,0.0787,-0.0613,-6.7812,4.670802294924421,-35.201361834398625,-1.3072194515585762,5.538000000000466
-0.6121,0.8637,0.07,0.3394,0.3616,0.0182,0.0787,-0.0613,-6.7812,4.65443429734976,-35.223986932874304,-1.2888676820819147,5.5460000000020955
-0.6139,0.8624,0.0722,0.3394,0.3616,0.0182,-0.35,-0.5075,-7.5425,4.688688056218717,-35.31509020268064,-1.274015125433077,5.554999999993015
-0.6178,0.8635,0.0677,0.3394,0.3616,0.0182,-0.2013,-0.6562,-8.1375,4.619915158930739,-35.45485186718743,-1.2604940196088452,5.565999999991618
-0.6194,0.8604,0.0712,0.3398,0.3629,0.0203,-0.2013,-0.6562,-8.2688,4.656900951046847,-35.61010147786056,-1.247321112451608,5.5740000000078
-0.6327,0.8673,0.072,0.3398,0.3629,0.0203,-0.14,-0.8138,-8.2688,4.688862456088088,-35.92226727789433,-1.235528126365993,5.581999999994878
-0.6327,0.8673,0.072,0.3417,0.3627,0.0162,0.56,-0.7788,-7.8575,4.72053146768799,-35.99277704350429,-1.2236262482726086,5.591000000000349
-0.6398,0.8722,0.0754,0.3417,0.3627,0.0162,-0.2013,-1.8288,-6.2213,4.79416110768071,-36.085312029278,-1.2201090108316588,5.599000000001979
-0.6369,0.8737,0.0766,0.3417,0.3627,0.0162,-0.2013,-1.8288,-6.2213,4.866464726797268,-36.03069140261938,-1.2166269457651187,5.607000000003609
-0.6392,0.8681,0.0772,0.3407,0.3632,0.0205,0.665,-2.0038,-4.4275,4.990955763900889,-36.11177678275109,-1.2158288294843789,5.61600000000908
-0.6387,0.8621,0.0763,0.3407,0.3632,0.0205,0.035,-2.3888,-3.1237,5.019335673510527,-36.31656499535128,-1.2168247662082876,5.623999999996158
-0.6387,0.8623,0.0745,0.3391,0.3622,0.0128,0.28,-2.6337,-1.96,4.978966444918403,-36.39825686343845,-1.2159768933422386,5.630000000004657
-0.6345,0.8623,0.0745,0.3391,0.3622,0.0128,0.28,-2.6337,-1.96,4.958612157280593,-36.28295791222864,-1.2189109574518913,5.638000000006286
-0.6329,0.8594,0.0714,0.3391,0.3631,0.0206,1.1725,-2.3975,-1.6275,4.822080626410638,-36.27722800091099,-1.2232507591927662,5.6480000000156
-0.6263,0.8577,0.0728,0.3391,0.3631,0.0206,1.3475,-2.695,-1.7237,4.841878532908724,-36.095180634088365,-1.2304924128622978,5.657999999995809
-0.6257,0.8565,0.0662,0.3391,0.3631,0.0206,2.0387,-3.0187,-2.38,4.532504949803648,-36.075580471873074,-1.2431341591605067,5.668999999994412
-0.6236,0.8616,0.0679,0.3384,0.3625,0.0166,2.0387,-3.0187,-2.38,4.5130744846863,-35.88488921989259,-1.2488458506456,5.677000000010594
-0.6236,0.8616,0.0679,0.3384,0.3625,0.0166,2.415,-3.1237,-3.5612,4.50770896029897,-35.841887333498576,-1.2577038542876067,5.686000000001513
-0.6227,0.8633,0.0717,0.3388,0.3632,0.0123,3.1063,-3.36,-4.3575,4.697812189875105,-35.790898428922205,-1.2659729447889774,5.694000000003143
-0.6204,0.8627,0.0661,0.3388,0.3632,0.0123,3.2638,-3.36,-5.5563,4.44513093663084,-35.73670089196969,-1.2689478121053133,5.69999999999709
-0.6223,0.864,0.0616,0.3388,0.3632,0.0123,3.2638,-3.36,-5.5563,4.151973112788074,-35.72140230906276,-1.2744986968884966,5.706999999994878
-0.6218,0.8666,0.0644,0.3382,0.3618,0.023,3.185,-3.6925,-6.3,4.229972669990414,-35.644126405932816,-1.2822982978658288,5.714000000007218
-0.6218,0.8678,0.0651,0.3382,0.3618,0.023,3.2287,-3.6137,-6.6062,4.277939217261516,-35.583707455707014,-1.298044606172204,5.724000000001979
-0.626,0.8678,0.0651,0.3398,0.3618,0.019,2.7738,-3.7625,-7.0175,4.287413427629622,-35.68115512080112,-1.3090980891553783,5.732000000003609
-0.6262,0.8651,0.0597,0.3398,0.3618,0.019,2.7738,-3.7625,-7.0175,4.0235670568806565,-35.78371088780505,-1.3170367961671796,5.739000000001397
-0.6262,0.8661,0.054,0.3398,0.3618,0.019,2.9137,-4.2787,-7.175,3.6664245981276924,-35.80491287556291,-1.331988661251237,5.747000000003027
-0.6226,0.8647,0.0563,0.3391,0.3638,0.0142,3.255,-4.4275,-6.895,3.7133694656490177,-35.734170863674194,-1.351632094775467,5.755999999993946
-0.6193,0.8658,0.0578,0.3391,0.3638,0.0142,3.255,-4.4275,-7.105,3.7979721686541814,-35.58563845283184,-1.3637539117829087,5.763000000006286
-0.6193,0.8658,0.0578,0.3395,0.3659,0.0182,2.8175,-4.7512,-7.105,3.8146177621908404,-35.53803648800718,-1.38198080565361,5.770999999993364
-0.6187,0.8642,0.0572,0.3395,0.3659,0.0182,2.5463,-5.1537,-7.9012,3.7933394678841865,-35.53984490892259,-1.3944501724143095,5.777000000001863
-0.6221,0.8646,0.0545,0.3395,0.3659,0.0182,2.31,-5.1537,-8.8638,3.6533275212841283,-35.65291311921244,-1.41993943288414,5.786000000007334
-0.6234,0.8636,0.0523,0.3405,0.3637,0.0237,2.31,-5.1537,-8.8638,3.5123949547052074,-35.74944401536981,-1.4364107423918475,5.79299999999057
-0.6234,0.8607,0.0554,0.3405,0.3637,0.0237,2.59,-5.2587,-9.9925,3.6431338686935963,-35.84105165377717,-1.45344498893328,5.80000000000291
-0.6234,0.8605,0.0514,0.3399,0.3637,0.019,2.6163,-5.6613,-10.535,3.470403666404946,-35.868510793449495,-1.4682148578654532,5.806000000011409
-0.6346,0.8605,0.0514,0.3399,0.3637,0.019,2.5463,-6.2913,-10.9812,3.4306147972806564,-36.28910015638418,-1.486579228033457,5.812000000005355
-0.6411,0.8655,0.0504,0.3414,0.3654,0.0121,2.5463,-6.2913,-10.9812,3.355739023013635,-36.454434590022615,-1.5102677076509399,5.819000000003143
-0.6424,0.867,0.0553,0.3414,0.3654,0.0121,2.7125,-6.545,-10.3162,3.583023475814704,-36.47665344083218,-1.5354774434716925,5.826000000000931
-0.6352,0.8628,0.0551,0.3414,0.3654,0.0121,3.5175,-6.7638,-9.415,3.640447247569325,-36.336720483340564,-1.5739024222396707,5.835000000006403
-0.6342,0.8681,0.0522,0.3426,0.3658,0.0153,3.5,-7.7438,-8.7413,3.4794336793892966,-36.150689947423835,-1.5998377667552273,5.841000000000349
-0.6342,0.8681,0.0522,0.3426,0.3658,0.0153,3.5,-7.7438,-8.7413,3.44848933604211,-36.11157996636242,-1.6255137578256282,5.846999999994296
-0.6304,0.8762,0.0561,0.3421,0.3669,0.0175,3.3512,-8.365,-7.6912,3.6209188249750235,-35.795238971287844,-1.6621836332506714,5.854000000006636
-0.6248,0.878,0.0614,0.3421,0.3669,0.0175,3.6662,-8.8988,-7.2187,3.929626472064933,-35.501709689069905,-1.726453578175788,5.864000000001397
-0.6188,0.8752,0.0611,0.3421,0.3669,0.0175,4.0338,-8.8112,-6.5625,3.98235734076212,-35.31468292641999,-1.7812111296078157,5.8730000000068685
-0.6066,0.8713,0.0598,0.3414,0.3664,0.0165,4.0338,-8.8112,-6.5625,3.936011972121222,-34.98899325348333,-1.82741865136478,5.881000000008498
-0.6066,0.869,0.0629,0.3414,0.3664,0.0165,4.0075,-8.6625,-6.195,4.10425241232959,-34.91096581680321,-2.2961694148388894,5.9429999999993015
-0.6001,0.869,0.0629,0.3386,0.3642,0.0225,4.0775,-8.7413,-5.845,4.133788041037939,-34.747547406318,-2.328740492582953,5.94999999999709
-0.5922,0.8637,0.0679,0.3386,0.3642,0.0225,3.7887,-8.1462,-6.1337,4.429293086110239,-34.5373399627959,-2.3568618166577497,5.95700000000943
-0.588,0.8646,0.0683,0.3386,0.3642,0.0225,3.7887,-8.1462,-6.1337,4.500835000842028,-34.32283088441846,-2.399390135594485,5.966000000000349
-0.5868,0.8588,0.0661,0.3434,0.3658,0.0229,3.4562,-7.91,-6.8162,4.420556227501868,-34.2855519767842,-2.4322783632901284,5.974000000001979
-0.594,0.8629,0.0719,0.3434,0.3658,0.0229,2.4325,-7.14,-7.245,4.680270565843723,-34.39962201118017,-2.4460433763987988,5.9799999999959255
-0.594,0.8629,0.0719,0.3424,0.3658,0.0174,2.4325,-7.14,-7.6737,4.743066779405276,-34.436408440453214,-2.4660187055307694,5.986999999993714
-0.6049,0.8613,0.077,0.3424,0.3658,0.0174,1.8463,-6.9212,-7.6737,5.005655841336574,-34.827967457751235,-2.4904093516146775,5.995000000009895
-0.6165,0.8562,0.0789,0.3424,0.3658,0.0174,1.1025,-7.595,-8.6975,5.17257893147963,-35.468231604968004,-2.506295754837376,6.001000000003842
-0.632,0.8452,0.0755,0.3438,0.3663,0.0268,0.3675,-8.2513,-10.465,5.137409947534474,-36.49151896303254,-2.5333698691825277,6.00800000000163
-0.6444,0.8308,0.0794,0.3438,0.3663,0.0268,0.3675,-8.2513,-10.465,5.3038119490153885,-37.490208167412405,-2.552725089225614,6.013999999995576
-0.6444,0.8161,0.082,0.3434,0.3682,0.0297,-0.1225,-9.205,-12.8975,5.463231664623065,-38.0804662902366,-2.6027286835492767,6.023000000001048
-0.6653,0.8161,0.082,0.3434,0.3682,0.0297,0.8575,-10.2375,-16.1,5.630521334224081,-38.96694691298684,-2.6614318169352953,6.032000000006519
-0.6854,0.8104,0.0819,0.3447,0.3722,0.0218,1.4612,-11.9087,-19.5737,5.7264628598290495,-40.00819838824458,-2.7233693318239824,6.040000000008149
-0.6972,0.8095,0.0812,0.3447,0.3722,0.0218,1.4612,-11.9087,-19.5737,5.7275910108889505,-40.55796137597015,-2.773618492230184,6.046999999991385
-0.7043,0.8076,0.082,0.3447,0.3722,0.0218,2.0475,-14.42,-23.0125,5.778994852073554,-40.92547679784043,-2.86787880255205,6.055999999996857
-0.7105,0.8084,0.0834,0.3457,0.3727,0.0278,2.7037,-16.5462,-25.9613,5.864951836712629,-41.15103252706004,-3.0271212641248137,6.0679999999993015
-0.7105,0.8084,0.0834,0.3457,0.3727,0.0278,2.6775,-17.78,-27.6413,5.8844221232818805,-41.16133072361697,-3.1487841467459337,6.077000000004773
-0.7194,0.8201,0.0904,0.3466,0.3757,0.0294,2.6775,-17.78,-27.6413,6.1976858042930045,-41.089290229721364,-3.286111966490037,6.086999999999534
-0.7293,0.8262,0.0875,0.3466,0.3757,0.0294,3.4913,-19.4338,-26.8013,6.074767497347375,-41.26866408904696,-3.4384391282976066,6.097000000008848
-0.7352,0.8276,0.0923,0.3466,0.3757,0.0294,4.165,-20.79,-24.7975,6.314502393334299,-41.43231790358103,-3.6225308644168845,6.108000000007451
-0.7333,0.8284,0.0944,0.35,0.3786,0.0319,4.4975,-22.6887,-22.2862,6.470986525130798,-41.337383634701474,-3.80371734695882,6.118000000002212
-0.7333,0.8314,0.0939,0.35,0.3786,0.0319,4.4975,-22.6887,-22.2862,6.448180284734081,-41.23816481712058,-3.9613507854618133,6.1269999999931315
-0.7341,0.8314,0.0939,0.349,0.3801,0.0365,4.515,-23.4063,-19.6087,6.444500359849451,-41.2617841135583,-4.1013501030105015,6.135000000009313
-0.7244,0.8364,0.0988,0.349,0.3801,0.0365,4.6025,-23.975,-16.4675,6.6904985893444415,-40.74430922397357,-4.244453530722999,6.142999999996391
-0.7149,0.8449,0.1013,0.349,0.3801,0.0365,4.6025,-24.5525,-14.0963,6.81367512258563,-40.104472817800996,-4.437872406935434,6.153000000005704
-0.7068,0.8502,0.1047,0.3513,0.3818,0.045,4.5237,-24.5525,-14.0963,6.987273207813715,-39.5832725554105,-4.558598070723909,6.1600000000034925
-0.6971,0.8505,0.1028,0.3513,0.3818,0.045,4.655,-25.235,-11.8825,6.906910160144255,-39.19237010645419,-4.658584186649797,6.165999999997439
-0.6971,0.8505,0.1028,0.3484,0.3821,0.0466,5.075,-25.0513,-10.5,6.894124984052952,-39.144397588288065,-4.780559416990449,6.173000000009779
-0.682,0.8571,0.1027,0.3484,0.3821,0.0466,5.075,-25.0513,-10.5,6.841810117648738,-38.43864156763276,-4.877234741454773,6.179000000003725
-0.6706,0.8636,0.1029,0.3484,0.3821,0.0466,5.74,-24.6663,-9.4062,6.801196492578167,-37.78280508407307,-4.97065641267676,6.184999999997672
-0.6476,0.8673,0.1026,0.3524,0.3826,0.0456,6.6675,-24.0888,-8.5138,6.753149058072449,-36.82802055236924,-5.221604464385381,6.198000000003958
-0.6374,0.8694,0.0996,0.3524,0.3826,0.0456,7.2713,-23.6338,-7.2888,6.559675165107433,-36.298745861631375,-5.350803044818487,6.206000000005588
-0.6374,0.873,0.0922,0.3514,0.3825,0.0442,7.2713,-23.6338,-7.2888,6.0879709919987866,-36.0785229918518,-5.56941695198574,6.218000000008033
-0.6307,0.873,0.0922,0.3514,0.3825,0.0442,7.9187,-22.05,-5.8713,6.034967791105246,-35.898554294349886,-5.745920309866395,6.229000000006636
-0.6235,0.8791,0.0907,0.3521,0.3818,0.05,8.82,-20.3088,-4.865,5.9042964219487635,-35.8242061788976,-5.804771575430381,6.235000000000582
-0.6221,0.8785,0.0869,0.3521,0.3818,0.05,9.0562,-19.25,-4.4713,5.6729461092245375,-35.603068340480746,-5.893418788745963,6.243000000002212
-0.6136,0.8759,0.0788,0.3521,0.3818,0.05,9.0562,-19.25,-4.4713,5.190215516776365,-35.36598818757759,-5.962842663727945,6.25
-0.6154,0.8758,0.067,0.352,0.382,0.0494,9.9488,-17.7887,-4.0775,4.444680501616704,-35.19952447721695,-6.0214454909633055,6.256999999997788
-0.6154,0.8758,0.067,0.352,0.382,0.0494,10.3337,-16.1437,-3.36,4.380505698839846,-35.085942339509074,-6.083324069118546,6.264999999999418
-0.6127,0.8747,0.0674,0.3522,0.3831,0.054,10.0712,-15.155,-2.415,4.404035099850885,-34.9739644514345,-6.122470541305768,6.271999999997206
-0.6118,0.8656,0.0559,0.3522,0.3831,0.054,10.0712,-15.155,-2.415,3.7552184487277485,-35.13396173162272,-6.14694273279409,6.278000000005704
-0.612,0.8635,0.0537,0.3522,0.3831,0.054,10.9637,-13.825,-1.645,3.574095411393237,-35.242275372464924,-6.17623611834747,6.2850000000034925
-0.606,0.8619,0.0497,0.3507,0.3814,0.043,10.9025,-13.02,-1.2687,3.3219362263314025,-35.10356500485078,-6.199657920047078,6.292000000001281
-0.606,0.8619,0.0469,0.3507,0.3814,0.043,10.4738,-12.2762,-0.35,3.131680816117106,-35.0768837143889,-6.22912377390524,6.30000000000291
-0.5989,0.8626,0.0469,0.3509,0.381,0.0521,10.4738,-12.2762,-0.35,3.1137414004513237,-34.79361848946534,-6.246862165050899,6.3070000000006985
-0.5929,0.8647,0.0479,0.3509,0.381,0.0521,10.2987,-10.6225,0.5075,3.1659134189733598,-34.45757459246845,-6.272554313623988,6.31600000000617
-0.5927,0.8686,0.0453,0.3509,0.381,0.0521,9.7037,-9.52,1.015,3.0012573347840807,-34.298459250260166,-6.288166265705373,6.3250000000116415
-0.5919,0.8642,0.042,0.3494,0.3784,0.0553,9.7037,-7.28,0.9187,2.8015658362680127,-34.36491011915269,-6.277177132004499,6.332999999998719
-0.5976,0.8603,0.0443,0.3494,0.3784,0.0553,7.6825,-8.12,0.9187,2.9321893837190673,-34.69413773023822,-6.280268855894495,6.342000000004191
-0.5976,0.8603,0.0443,0.3515,0.3793,0.055,6.1337,-6.7288,0.5163,2.945778508412165,-34.74132833235748,-6.264993192298782,6.349999999991269
-0.6024,0.8535,0.0451,0.3515,0.3793,0.055,5.7838,-5.3637,-0.2537,3.0142170881882397,-35.10082035486088,-6.243648122570905,6.35899999999674
-0.6071,0.8492,0.0445,0.3515,0.3793,0.055,5.7838,-5.3637,-0.2537,3.001625673321729,-35.45026424714207,-6.21792707445946,6.367000000012922
-0.6063,0.8492,0.0431,0.3513,0.3758,0.0592,5.4338,-4.41,-1.3388,2.9189485407214075,-35.48199937173869,-6.181264666616802,6.37400000001071
-0.6102,0.8517,0.0407,0.3513,0.3758,0.0592,4.8125,-4.1388,-2.17,2.7639924795351503,-35.56076832200655,-6.139712688710193,6.380000000004657
-0.6102,0.8517,0.0423,0.3502,0.38,0.0585,4.1912,-3.4738,-3.1937,2.829829067340995,-35.57713737539889,-6.097344558727078,6.387000000002445
-0.6054,0.8572,0.0423,0.3502,0.38,0.0585,4.1912,-3.4738,-3.1937,2.8258745563826113,-35.33444338525056,-6.063555394425566,6.396999999997206
-0.6016,0.8653,0.0486,0.348,0.3784,0.0498,3.6488,-2.6862,-3.78,3.142025368147834,-35.02420810331859,-6.014552065277786,6.403000000005704
-0.6013,0.8702,0.0528,0.348,0.3784,0.0498,3.15,-2.1263,-3.9288,3.404173461519879,-34.8037115262429,-5.964097366531946,6.4100000000034925
-0.6034,0.8706,0.0545,0.348,0.3784,0.0498,1.7237,-1.0938,-4.2175,3.530160472600557,-34.74688613598892,-5.906629761649704,6.416000000011991
-0.6035,0.876,0.0609,0.3492,0.3767,0.0483,1.7237,-1.0938,-4.2175,3.8464965386536543,-34.63948783962137,-5.850461289068526,6.423999999999069
-0.6035,0.876,0.0609,0.3492,0.3767,0.0483,-0.2275,-0.49,-4.3663,3.8885196468558862,-34.585997862849986,-5.790307939088361,6.430999999996857
-0.6066,0.8784,0.0698,0.351,0.3756,0.0498,-2.3537,-0.1663,-4.0687,4.2962654346348526,-34.56576247911808,-5.728512881600617,6.438000000009197
-0.6085,0.8785,0.0779,0.351,0.3756,0.0498,-2.905,1.1812,-3.6837,4.826535888624615,-34.58724738228333,-5.659887621576052,6.444000000003143
-0.6165,0.8794,0.0811,0.351,0.3756,0.0498,-2.905,1.1812,-3.6837,5.130819957784153,-34.7744111391676,-5.590058592274472,6.451000000000931
-0.6188,0.8725,0.0814,0.3496,0.3767,0.0487,-4.6287,1.6275,-4.1562,5.289551501818668,-34.98002552980595,-5.517834994266885,6.457999999998719
-0.6188,0.8725,0.0877,0.3496,0.3767,0.0487,-5.67,2.0738,-4.3837,5.664380954101823,-35.06616420838608,-5.43769338147904,6.467000000004191
-0.6306,0.8673,0.0877,0.3498,0.377,0.051,-6.1775,2.0738,-4.6725,5.757095308908813,-35.26021967386495,-5.36667427246104,6.472999999998137
-0.6321,0.8627,0.0966,0.3498,0.377,0.051,-6.1775,2.0738,-4.6725,6.291418092235464,-35.45055170930873,-5.293591658652565,6.4799999999959255
-0.6358,0.8548,0.1064,0.3498,0.377,0.051,-6.5887,1.5313,-4.865,6.978561315260568,-35.55538370055443,-5.222762775102393,6.487999999997555
-0.6331,0.8466,0.1076,0.3502,0.3784,0.0437,-6.09,1.8988,-4.4363,7.2018188471202285,-35.91464857605617,-5.152332026267121,6.494999999995343
-0.6382,0.8447,0.1124,0.3502,0.3784,0.0437,-6.09,1.8988,-4.13,7.520395082449075,-36.33681874434823,-5.08260558488236,6.502000000007683
-0.6382,0.8447,0.1124,0.3496,0.3755,0.0525,-6.2038,1.6187,-4.13,7.570438609428964,-36.564440552884406,-5.0178406478276,6.50800000000163
-0.64,0.8416,0.1195,0.3496,0.3755,0.0525,-5.7312,0.6475,-4.0425,7.9967066454956655,-36.76421621286274,-4.954045652636642,6.518000000010943
-0.6396,0.8391,0.1208,0.3496,0.3755,0.0525,-5.0838,0.07,-4.2525,8.155890319229217,-36.87797797906852,-4.8981857251604835,6.525999999998021
-0.6411,0.8342,0.1235,0.3501,0.3754,0.0507,-5.0838,0.07,-4.2525,8.371925897953055,-37.03242232038223,-4.843674330820625,6.532999999995809
-0.6397,0.8284,0.1198,0.3501,0.3754,0.0507,-4.2875,-0.3063,-4.1912,8.26005669469302,-37.19030289343399,-4.7927332062888715,6.539000000004307
-0.6397,0.8284,0.1198,0.3506,0.375,0.0533,-2.5812,-1.0325,-4.795,8.239690203444148,-37.22202862404784,-4.747218203266474,6.547000000005937
-0.6387,0.8322,0.1192,0.3506,0.375,0.0533,-1.82,-1.0237,-4.3837,8.193062523414637,-37.223153508536,-4.7017958251431615,6.554000000003725
-0.6425,0.8341,0.1174,0.3506,0.3756,0.0479,-1.82,-1.0237,-4.3837,8.09742530889002,-37.265291580162675,-4.657120499932208,6.562000000005355
-0.6417,0.8345,0.1207,0.3502,0.3756,0.0479,-0.875,-1.26,-4.0687,8.116856527237516,-37.268850582877256,-4.615816956237791,6.572000000014668
-0.6433,0.8347,0.1235,0.3502,0.3756,0.0479,-0.07,-1.3125,-3.3775,8.232955640566143,-37.30146799624121,-4.575446197963959,6.581999999994878
-0.6329,0.8418,0.1103,0.3522,0.3768,0.0486,1.295,-1.2163,-3.045,7.721039867028124,-36.90684225545568,-4.535493773552538,6.594000000011874
-0.6329,0.8418,0.1103,0.3522,0.3768,0.0486,1.295,-1.2163,-3.045,7.550306120240574,-36.772602115038104,-4.4949738671074435,6.603999999992084
-0.6403,0.8428,0.1063,0.3494,0.3759,0.0494,0.9187,-1.2513,-3.22,7.326547401991427,-36.92249975861032,-4.453651200352763,6.611000000004424
-0.6519,0.8153,0.1064,0.3494,0.3759,0.0494,1.5575,-1.1113,-3.4562,7.401958202907883,-37.821394017443545,-4.4113920071269375,6.61699999999837
-0.6473,0.8309,0.0994,0.3494,0.3759,0.0494,4.9612,-1.0063,-3.9813,6.908881789280809,-37.771937726778596,-4.369207308965058,6.623999999996158
-0.6375,0.8689,0.0937,0.3494,0.3732,0.0572,4.9612,-1.0063,-3.9813,6.267990061933708,-36.939131778515694,-4.327444457784798,6.630999999993946
-0.6375,0.8689,0.0937,0.3494,0.3732,0.0572,5.04,-1.6888,-1.8637,6.17162707067266,-36.310551319335225,-4.290828960128689,6.638000000006286
-0.6267,0.8547,0.0898,0.3507,0.3742,0.0511,3.9638,-1.6275,-1.785,6.028505120224147,-36.1505143637107,-4.253264217302011,6.644000000000233
-0.6491,0.8541,0.0905,0.3507,0.3742,0.0511,3.9638,-1.6187,-2.1175,6.0449410841503015,-36.839785926851775,-4.21690472903704,6.650999999998021
-0.651,0.869,0.0864,0.3507,0.3742,0.0511,3.6312,-1.6187,-2.1175,5.746746377758475,-36.738452148185296,-4.180908835654719,6.657999999995809
-0.6473,0.8712,0.0872,0.3509,0.375,0.0502,3.7538,-1.8813,-1.4175,5.721472711105503,-36.533205226614534,-4.148234572340033,6.665999999997439
-0.6504,0.8676,0.0859,0.3509,0.375,0.0502,2.8437,-2.1788,-0.91,5.669116622968237,-36.68574803684512,-4.118243251658973,6.673999999999069
-0.6504,0.8676,0.0859,0.3496,0.3736,0.052,2.8437,-2.1788,-0.91,5.657602269386674,-36.71580751035696,-4.085679087913688,6.679999999993015
-0.6449,0.8712,0.0823,0.3496,0.3736,0.052,2.2925,-2.8437,-0.4288,5.461894903146906,-36.447669541261135,-4.0573900718323515,6.686000000001513
-0.6432,0.8767,0.0745,0.3496,0.3736,0.052,2.0213,-3.605,-0.5512,5.019548701324545,-36.2192757494077,-4.036754384017728,6.6929999999993015
-0.6328,0.87,0.0784,0.3486,0.3738,0.0456,1.1287,-3.9113,-0.4638,5.103482567799507,-35.97449942589765,-4.015296158984334,6.6990000000078
-0.6223,0.8806,0.0794,0.3486,0.3738,0.0456,1.1287,-3.9113,-0.4638,5.134989604080194,-35.29011152416186,-3.997204069251659,6.705999999991036
-0.6223,0.8806,0.0794,0.3482,0.3725,0.0477,-0.245,-4.3313,0.1575,5.140394615570347,-35.16337481289511,-3.9786361473694587,6.711999999999534
-0.6178,0.8842,0.0809,0.3482,0.3725,0.0477,-1.7062,-4.025,0.3325,5.18412486159275,-34.88307939805009,-3.9584344827035034,6.718000000008033
-0.6132,0.8805,0.0826,0.3482,0.3725,0.0545,-2.9225,-3.8063,-0.1663,5.304850596271091,-34.76177076411612,-3.9401833597797276,6.725000000005821
-0.6084,0.8743,0.0845,0.3496,0.3736,0.0545,-2.9225,-3.8063,-0.1663,5.453455229526189,-34.717372875607744,-3.9221147480851895,6.732000000003609
-0.6057,0.8686,0.0889,0.3496,0.3736,0.0545,-3.9987,-3.605,-0.5425,5.7529203956018,-34.743387644709365,-3.8999834973670953,6.737999999997555
-0.6197,0.8577,0.0919,0.3481,0.3708,0.0517,-4.6463,-3.7975,-1.505,6.04233844545118,-35.48143012681577,-3.879217009155028,6.743999999991502
-0.6197,0.8577,0.0919,0.3481,0.3708,0.0517,-4.515,-3.605,-2.3625,6.100484657373397,-35.63497416009353,-3.8632113681495683,6.752000000007683
-0.6246,0.8474,0.0951,0.3475,0.3699,0.0526,-4.515,-3.605,-2.3625,6.34033684711168,-36.05995641821269,-3.8445174673717726,6.7590000000054715
-0.6154,0.8427,0.0958,0.3475,0.3699,0.0526,-3.4213,-4.6112,-3.8238,6.446578521247282,-36.00871086228176,-3.829139017454782,6.764999999999418
-0.6122,0.8496,0.0964,0.3475,0.3699,0.0526,-2.3625,-5.635,-4.095,6.463306933653695,-35.81718510058439,-3.8248537402501825,6.772000000011758
-0.603,0.8497,0.0946,0.347,0.3705,0.0518,-2.0038,-5.6788,-4.0075,6.400821372579465,-35.509922118718514,-3.825816227824345,6.779999999998836
-0.603,0.8497,0.0946,0.347,0.3705,0.0518,-2.0038,-5.6788,-4.0075,6.373659311457125,-35.35451903260387,-3.831670468742919,6.789000000004307
-0.5843,0.8468,0.0979,0.3473,0.3699,0.0546,-2.135,-6.4837,-4.795,6.503849459556489,-35.20685504900132,-3.8560342844775297,6.80000000000291
-0.6107,0.8384,0.1022,0.3473,0.3699,0.0546,-0.6212,-5.53,-6.1512,6.537710098860821,-35.563451094414724,-3.8555064706805027,6.80800000000454
-0.6249,0.8496,0.1005,0.3473,0.3699,0.0546,-0.6212,-5.53,-6.02,6.553535186082919,-35.85952951271734,-3.8644920672487926,6.8179999999993015
-0.6034,0.858,0.1033,0.3447,0.372,0.0673,0.8138,-5.6438,-6.02,6.741355057327791,-35.38342825412313,-3.8745144279216297,6.828000000008615
-0.5979,0.8584,0.1063,0.3447,0.372,0.0673,0.525,-7.105,-6.2562,6.916609454765597,-34.97518052122479,-3.8862758126008323,6.835999999995693
-0.5979,0.8584,0.1063,0.3501,0.3708,0.0551,0.1838,-7.4288,-6.9913,6.9836811835684065,-34.760895126224796,-3.887216323214665,6.841999999989639
-0.6063,0.8519,0.1154,0.3501,0.3708,0.0551,0.1838,-7.4288,-6.9913,7.327205703294111,-35.04985494422145,-3.8947813069743806,6.849000000001979
-0.5994,0.8621,0.1158,0.3501,0.3708,0.0551,0.315,-7.4725,-8.2513,7.490249414811946,-34.68273366062316,-3.9092506229555193,6.857000000003609
-0.5977,0.8514,0.1077,0.347,0.3706,0.058,0.6212,-7.8575,-9.03,7.3302672865485645,-34.821700854267945,-3.9195661547230634,6.864000000015949
-0.6166,0.8488,0.1097,0.347,0.3706,0.058,0.6562,-7.91,-9.66,7.34979528690989,-35.60347439760257,-3.9301423559666375,6.870999999999185
-0.6166,0.8488,0.1097,0.3488,0.3722,0.0589,0.6562,-7.91,-9.66,7.358071518580513,-35.7412245682252,-3.926392263090081,6.876000000003842
-0.6156,0.8416,0.1106,0.3488,0.3722,0.0589,1.645,-8.68,-10.465,7.448284152139688,-35.91836056851174,-3.942236303351767,6.88300000000163
-0.6178,0.8478,0.1097,0.3488,0.3722,0.0589,2.5988,-9.205,-11.6988,7.390307225165305,-35.86327403536194,-3.953167837047446,6.888999999995576
-0.6208,0.8416,0.1049,0.3498,0.3731,0.0537,3.5875,-9.7738,-12.7575,7.158848481023584,-36.164563169003685,-3.967368727533078,6.8950000000040745
-0.6245,0.8436,0.1062,0.3498,0.3731,0.0537,3.5875,-9.7738,-12.7575,7.172081735440861,-36.28157903769204,-3.9993384653123423,6.903000000005704
-0.6401,0.8466,0.093,0.3506,0.3752,0.0594,5.6525,-10.15,-13.4137,6.39166112401191,-36.85867077426435,-4.024640143548586,6.9100000000034925
-0.6257,0.8466,0.093,0.3506,0.3752,0.0594,6.1775,-10.3863,-13.7725,6.284453555112362,-36.35980350279872,-4.051326364001951,6.917000000001281
-0.6291,0.8511,0.0903,0.3492,0.3769,0.0622,6.9738,-10.2025,-13.9825,6.082602562371455,-36.32147074936919,-4.076471988387679,6.924000000013621
-0.5996,0.8772,0.0798,0.3492,0.3769,0.0622,6.9738,-10.2025,-13.9825,5.299913213469693,-34.4519708552165,-4.101366156256561,6.930999999996857
-0.6004,0.8735,0.0689,0.3492,0.3769,0.0622,6.9738,-9.7825,-13.6938,4.601071907576497,-34.423092711175045,-4.141028864913043,6.940000000002328
-0.6213,0.8935,0.0593,0.3494,0.3754,0.0649,5.9588,-7.7088,-13.23,3.9019846604281576,-34.718237537290264,-4.1479961231586255,6.947000000000116
-0.6213,0.8935,0.0593,0.3494,0.3754,0.0649,4.5675,-6.6675,-11.7863,3.813783893251666,-34.749444831884134,-4.141797308757011,6.953000000008615
-0.6113,0.8727,0.0555,0.3522,0.3747,0.0609,4.5675,-6.6675,-11.7863,3.6667606857094985,-34.92931932787043,-4.170941629158248,6.9649999999965075
-0.604,0.8546,0.0451,0.3522,0.3747,0.0609,3.0187,-5.075,-12.8713,3.157661047951542,-35.181723321226606,-4.159357525829772,6.972000000008848
-0.618,0.8788,0.0423,0.3522,0.3747,0.0609,3.9987,-2.1613,-12.1275,2.826225539724405,-35.096801542163284,-4.126278269342883,6.978000000002794
-0.6461,0.842,0.0469,0.3513,0.3778,0.0602,3.9987,-2.1613,-12.18,3.124653436633806,-37.16953736593639,-4.094948858556315,6.985000000000582
-0.6461,0.8493,0.0491,0.3513,0.3778,0.0602,2.9925,-0.6737,-12.18,3.2695211531297437,-37.21015407654147,-4.053570003010664,6.993000000002212
-0.6551,0.8493,0.0491,0.3518,0.3793,0.0603,5.74,0.8313,-11.2788,3.303452644299879,-37.545052409548894,-3.992967231660854,7.006000000008498
-0.638,0.8846,0.0411,0.3518,0.3793,0.0603,6.1512,1.6013,-8.4525,2.7420477715226244,-36.168049800407104,-3.9322842715351847,7.014999999999418
-0.634,0.8782,0.0411,0.3518,0.3793,0.0603,6.1512,1.6013,-8.4525,2.6874658991571283,-35.880013351992716,-3.8745140618560745,7.023000000001048
-0.65,0.9069,0.049,0.3498,0.3792,0.0626,5.0487,3.1412,-6.2038,3.032679971683302,-35.72105835340641,-3.79746470250184,7.033000000010361
-0.6581,0.8826,0.0586,0.3498,0.3792,0.0626,2.87,4.2,-3.8238,3.63109598555339,-36.21970565961401,-3.7107037168023793,7.043000000005122
-0.6581,0.8826,0.0586,0.3505,0.3788,0.0609,0.035,3.6225,-2.9838,3.7022251877557277,-36.506105338524684,-3.639141408667336,7.051000000006752
-0.6667,0.8843,0.0609,0.3505,0.3788,0.0609,0.035,3.6225,-2.9838,3.8030579849986412,-36.80113715920639,-3.5553739970166793,7.062000000005355
-0.6501,0.8869,0.0736,0.3505,0.3788,0.0609,-1.505,2.485,-1.995,4.221677020095377,-36.311566837541996,-3.494373986081328,7.070000000006985
-0.6435,0.8755,0.071,0.3501,0.3787,0.0523,-3.0625,1.8463,-2.2838,4.512899398804508,-36.24958376627695,-3.4415909501361517,7.077000000004773
-0.6435,0.8766,0.0721,0.3501,0.3787,0.0523,-4.34,1.0675,-2.9225,4.661193648167701,-36.209315889729496,-3.3947328285487215,7.084000000002561
-0.6435,0.8768,0.0783,0.3512,0.377,0.0566,-4.34,1.0675,-2.9225,5.007786450137152,-36.180931489378935,-3.3483432881513004,7.091000000014901
-0.636,0.8768,0.0783,0.3512,0.377,0.0566,-5.5563,1.0762,-2.695,5.086808218717174,-35.949014671908785,-3.298785208456006,7.100000000005821
-0.6241,0.8778,0.0814,0.3504,0.3771,0.0623,-7.0087,0.5337,-3.64,5.269083108637428,-35.574725153553764,-3.2583033751590067,7.105999999999767
-0.6321,0.8722,0.0809,0.3504,0.3771,0.0623,-8.26,-0.035,-3.4913,5.295722599163092,-35.71865343833494,-3.2209184543089515,7.113000000012107
-0.6372,0.859,0.0809,0.3504,0.3771,0.0623,-8.26,-0.035,-3.4913,5.370332259635193,-36.1547617208714,-3.1839073826773796,7.120000000009895
-0.6235,0.8444,0.0859,0.3506,0.3786,0.0572,-9.6337,-0.7788,-4.3488,5.76452168301562,-36.21164853188191,-3.1525217120201487,7.129000000000815
-0.6235,0.8444,0.0859,0.3506,0.3786,0.0572,-9.9575,-0.8575,-5.075,5.804357376918873,-36.21905761559531,-3.1218945328096637,7.135999999998603
-0.6317,0.8391,0.0947,0.3506,0.3791,0.0602,-9.9575,-1.2337,-6.4313,6.377198103963598,-36.56224041449647,-3.0936799622658224,7.142000000007101
-0.6202,0.8336,0.0963,0.3506,0.3791,0.0602,-9.6425,-1.2337,-6.4313,6.568383665963548,-36.50628620711976,-3.0662482665520567,7.149000000004889
-0.6157,0.8387,0.0989,0.3506,0.3791,0.0602,-9.0037,-1.085,-7.7613,6.708423151624247,-36.20340993107237,-3.0384139129271124,7.157000000006519
-0.6331,0.8372,0.1055,0.351,0.378,0.0594,-7.5425,-0.0962,-7.9713,7.121837927067684,-36.71033776971647,-3.0030266068459226,7.164999999993597
-0.6331,0.8391,0.1138,0.351,0.378,0.0594,-7.5425,-0.0962,-7.9713,7.646676699210898,-36.76536254864969,-2.9692439655521485,7.1710000000020955
-0.6203,0.8391,0.1138,0.3503,0.3778,0.0587,-6.9825,-0.8662,-8.0413,7.712874381278733,-36.357605446866906,-2.940372950675798,7.176999999996042
-0.6398,0.819,0.1212,0.3503,0.3778,0.0587,-6.0813,-1.2513,-9.135,8.30730984373313,-37.43625615509639,-2.9140781399534434,7.18300000000454
-0.6461,0.823,0.1191,0.3503,0.3778,0.0587,-4.2525,-0.56,-9.6687,8.250398342721342,-37.7737638694468,-2.8834412537254184,7.19199999999546
-0.6278,0.833,0.1122,0.3518,0.3777,0.0634,-4.2525,-0.56,-9.6687,7.798536269218499,-36.935601171625024,-2.8532769702254743,7.2000000000116415
-0.6387,0.8472,0.1152,0.3518,0.3777,0.0634,-1.8463,-0.6125,-9.2575,7.7691478863004,-36.793701421592566,-2.8240586473039113,7.206000000005588
-0.6387,0.8472,0.1152,0.3518,0.3785,0.0621,-0.6125,-0.0088,-6.7638,7.767006950853846,-36.77244132414054,-2.791546529615182,7.211999999999534
-0.6307,0.85,0.109,0.3518,0.3785,0.0621,0.3063,0.3063,-5.3987,7.536132623758431,-36.6493650935251,-2.753392355609494,7.222000000008848
-0.6353,0.8495,0.104,0.3518,0.3785,0.0621,0.3063,0.3063,-5.3987,7.256584037103544,-36.631061985119764,-2.7145958524848295,7.233000000007451
-0.6351,0.854,0.101,0.3507,0.3802,0.0627,-0.1575,0.9187,-3.7975,7.075898451632892,-36.53113955390655,-2.672778572144783,7.24199999999837
-0.6323,0.8611,0.0944,0.3507,0.3802,0.0627,0.2187,1.54,-2.625,6.682673087988681,-36.24691484988351,-2.6303341493056287,7.24900000001071
-0.6323,0.8455,0.0918,0.3517,0.3811,0.0622,0.3237,2.3625,-1.7587,6.436398368172641,-36.53917854026009,-2.5856737546110935,7.255000000004657
-0.6358,0.8524,0.0918,0.3517,0.3811,0.0622,0.3237,2.3625,-1.7587,6.289683715460559,-36.555713767414076,-2.5078053662977777,7.271999999997206
-0.6443,0.8434,0.0864,0.3503,0.3793,0.0613,-0.1312,3.2025,-2.3975,6.129353420910968,-37.04432331944765,-2.4399251150702357,7.282999999995809
-0.6507,0.8354,0.0863,0.3503,0.3793,0.0613,0.1925,3.7275,-3.745,6.020009836601706,-37.444882777106905,-2.3934715695489936,7.288000000000466
-0.6353,0.8553,0.0761,0.3503,0.3793,0.0613,0.9187,3.5875,-3.9375,5.44127742235536,-36.95958808753358,-2.3097252296302337,7.302000000010594
-0.6555,0.8521,0.0862,0.3523,0.3773,0.0576,0.9187,3.5875,-3.9375,5.648648136031376,-37.19988159849408,-2.2481776475427253,7.311000000001513
-0.6555,0.8521,0.0862,0.3523,0.3773,0.0576,1.5575,3.4125,-3.4562,5.737287923711282,-37.338593873480214,-2.1929038001006176,7.319000000003143
-0.6477,0.8458,0.0881,0.3493,0.377,0.0535,2.0738,2.4762,-4.655,5.8911724397023715,-37.32783122916643,-2.1487702590166275,7.326000000000931
-0.6245,0.854,0.0811,0.3493,0.377,0.0535,2.0738,2.4762,-5.1975,5.548285825039724,-37.104361276897464,-2.095561837696919,7.3360000000102445
-0.6222,0.8781,0.0758,0.3493,0.377,0.0535,1.9338,2.3975,-5.1975,5.102674416253141,-36.77375938428232,-2.0405704717542723,7.347000000008848
-0.6632,0.8423,0.0952,0.3511,0.3778,0.0581,1.2075,2.205,-5.0487,5.986099318434231,-36.849872940184504,-1.9940325121908427,7.356000000014319
-0.6632,0.858,0.0838,0.3511,0.3778,0.0581,0.63,2.275,-5.7925,5.75308787516682,-37.17213699703642,-1.9413904645030875,7.367000000012922
-0.6543,0.8568,0.0838,0.3502,0.3794,0.0566,0.63,2.275,-5.7925,5.6576618231804,-37.20062171566693,-1.8863019534540497,7.379000000000815
-0.6353,0.8516,0.0752,0.3502,0.3794,0.0566,0.6388,-0.2713,-5.8713,5.307373126720111,-36.92617517933553,-1.8638225589587725,7.387000000002445
-0.6531,0.8573,0.0853,0.3502,0.3794,0.0566,0.0613,-0.5775,-6.195,5.4697619299345055,-37.05671443517216,-1.8436952446699648,7.396999999997206
-0.6526,0.84,0.0874,0.3506,0.3786,0.057,-0.6212,-1.6363,-7.1225,5.505459350655786,-37.491210499337214,-1.8360499297854638,7.408999999999651
-0.6486,0.8403,0.0841,0.3506,0.3786,0.057,-0.6212,-1.6363,-7.1225,5.52138661217165,-37.514471156143735,-1.8266824617828978,7.418999999994412
-0.6486,0.8403,0.0841,0.3519,0.3795,0.0576,0.3675,-2.6425,-8.7937,5.621669204980927,-37.52308924755913,-1.829265489592421,7.429999999993015
-0.6276,0.8538,0.0861,0.3519,0.3795,0.0576,1.085,-2.6163,-9.275,5.709380885668199,-36.433998614087486,-1.831537369123885,7.440999999991618
-0.6607,0.8342,0.0874,0.3519,0.3795,0.0576,0.945,-2.835,-10.0887,5.878510422080523,-37.93382140101547,-1.9258668664604173,7.494999999995343
