AcclX,AcclY,AcclZ,MagX,MagY,MagZ,GyroX,GyroY,GyroZ,Roll,Pitch,Yaw,Time Elapsed(s)
-0.3917,0.9509,0.1635,0.211,0.2605,0.2918,-0.2362,-1.365,-5.9062,0,0,0,0.005000000004656613
-0.3926,0.9521,0.1646,0.2116,0.261,0.2947,-0.2362,-1.365,-5.9062,0,0,0,0.00999999999476131
-0.3926,0.9521,0.1646,0.2116,0.261,0.2947,-0.105,-1.295,-5.8187,0,0,0,0.020000000004074536
-0.3897,0.9515,0.1623,0.2114,0.2582,0.2988,-0.0525,-1.225,-6.02,0,0,0,0.024999999994179234
-0.3916,0.9528,0.1632,0.2114,0.2582,0.2988,-0.0525,-1.225,-6.1512,0,0,0,0.03500000000349246
-0.3913,0.9549,0.1599,0.2114,0.2582,0.2988,-0.6825,-1.4525,-6.1512,0,0,0,0.045000000012805685
-0.3905,0.9509,0.1629,0.2126,0.2599,0.2984,-0.63,-1.2862,-5.7312,0,0,0,0.05000000000291038
-0.3935,0.9529,0.1612,0.2126,0.2599,0.2984,-0.6037,-1.2513,-5.74,0,0,0,0.059999999997671694
-0.3935,0.9529,0.1612,0.2109,0.2599,0.2975,-0.6037,-1.2513,-5.74,0,0,0,0.0650000000023283
-0.3917,0.9549,0.1599,0.2109,0.2599,0.2975,-0.4988,-1.575,-5.775,0,0,0,0.07499999999708962
-0.3879,0.9523,0.1643,0.2109,0.2599,0.2975,-0.2975,-1.575,-5.7575,0,0,0,0.08500000000640284
-0.3899,0.9526,0.1598,0.2101,0.2607,0.3063,-0.3588,-1.4612,-5.9675,0,0,0,0.08999999999650754
-0.3915,0.9521,0.1632,0.2101,0.2607,0.3063,-0.3588,-1.4612,-5.9675,0,0,0,0.10000000000582077
-0.3915,0.9521,0.1632,0.2117,0.2609,0.2928,-0.4462,-1.6712,-5.8625,0,0,0,0.10500000001047738
-0.3896,0.9516,0.1595,0.2117,0.2609,0.2928,-0.6737,-1.5225,-5.9062,0,0,0,0.11500000000523869
-0.3913,0.9529,0.1615,0.2117,0.2609,0.3043,-0.2362,-1.8375,-5.9237,0,0,0,0.125
-0.3894,0.9536,0.1624,0.2117,0.2605,0.3043,-0.2362,-1.8375,-5.9237,0,0,0,0.1299999999901047
-0.3927,0.9532,0.1577,0.2117,0.2605,0.3043,-0.42,-1.6538,-6.0287,0,0,0,0.13999999999941792
-0.3905,0.9525,0.1673,0.2121,0.2595,0.2928,-0.455,-1.4525,-5.9325,0,0,0,0.14500000000407454
-0.3905,0.9525,0.1673,0.2121,0.2595,0.2928,-0.5425,-1.2513,-5.7663,0,0,0,0.15499999999883585
-0.3908,0.9521,0.164,0.2106,0.2614,0.2958,-0.5425,-1.2513,-5.7663,0,0,0,0.16500000000814907
-0.3905,0.9539,0.1613,0.2106,0.2614,0.2958,-0.49,-1.085,-5.7575,0,0,0,0.16999999999825377
-0.3906,0.9543,0.1631,0.2106,0.2614,0.2958,-0.4462,-1.1725,-5.9763,0,0,0,0.180000000007567
-0.3933,0.9518,0.1585,0.211,0.2621,0.2882,-0.6825,-1.4787,-5.9062,0,0,0,0.1850000000122236
-0.3933,0.9518,0.1585,0.211,0.2621,0.2882,-0.6825,-1.4787,-5.9062,0,0,0,0.194999999992433
-0.3914,0.9529,0.1637,0.2114,0.2611,0.2994,-0.5512,-1.1988,-5.5125,0,0,0,0.20500000000174623
-0.3895,0.9511,0.1652,0.2114,0.2611,0.2994,-0.4112,-1.9075,-5.4862,0,0,0,0.20999999999185093
-0.3911,0.9524,0.1596,0.2114,0.2611,0.2994,-0.4112,-1.785,-5.4338,0,0,0,0.22000000000116415
-0.3918,0.9522,0.1611,0.212,0.2611,0.2895,-0.4288,-1.785,-5.4338,0,0,0,0.22500000000582077
-0.3889,0.9546,0.1624,0.212,0.2611,0.2895,-0.28,-1.4875,-5.6175,0,0,0,0.23500000000058208
-0.3889,0.9546,0.1624,0.2123,0.2602,0.2986,-0.2013,-1.4088,-5.775,0,0,0,0.2450000000098953
-0.3927,0.9547,0.1617,0.2123,0.2602,0.2986,-0.2013,-1.4088,-5.775,0,0,0,0.25
-0.3892,0.9537,0.1646,0.2123,0.2602,0.2986,-0.1312,-1.5662,-5.3463,0,0,0,0.2599999999947613
-0.39,0.9521,0.1598,0.2124,0.2597,0.297,-0.42,-1.61,-5.8888,0,0,0,0.2649999999994179
-0.3911,0.9523,0.1623,0.2124,0.2597,0.297,-0.315,-1.015,-6.0025,0,0,0,0.27499999999417923
-0.3911,0.9523,0.1623,0.2131,0.261,0.2985,-0.315,-1.015,-6.0025,0,0,0,0.28500000000349246
-0.392,0.9518,0.1599,0.2131,0.261,0.2985,-0.5163,-1.5925,-5.9938,0,0,0,0.2900000000081491
-0.3928,0.9528,0.1617,0.2131,0.2611,0.3047,-0.4025,-1.5137,-5.74,0,0,0,0.3000000000029104
-0.3915,0.9528,0.1606,0.2116,0.2611,0.3047,-0.1838,-1.4525,-5.88,0,0,0,0.305000000007567
-0.3924,0.952,0.1646,0.2116,0.2611,0.3047,-0.1838,-1.4525,-5.88,0,0,0,0.3150000000023283
-0.3891,0.9526,0.1669,0.211,0.2616,0.2965,-0.21,-1.2513,-5.39,0,0,0,0.3249999999970896
-0.3891,0.9526,0.1669,0.211,0.2616,0.2965,-0.2013,-1.26,-5.8975,0,0,0,0.33000000000174623
-0.3912,0.9534,0.1592,0.2146,0.2601,0.3006,-0.5775,-1.3913,-6.1425,0,0,0,0.33999999999650754
-0.3906,0.9532,0.1621,0.2146,0.2601,0.3006,-0.5775,-1.3913,-6.1425,0,0,0,0.34500000000116415
-0.3933,0.954,0.1606,0.2146,0.2601,0.3006,-0.315,-1.4088,-6.195,0,0,0,0.35499999999592546
-0.391,0.9551,0.1627,0.2119,0.26,0.2981,-0.7,-1.6363,-5.845,0,0,0,0.3650000000052387
-0.391,0.9551,0.1612,0.2119,0.26,0.2981,-0.1138,-1.2862,-5.3725,0,0,0,0.3700000000098953
-0.3914,0.9514,0.1612,0.2115,0.2594,0.2963,-0.1138,-1.2862,-5.3725,0,0,0,0.3800000000046566
-0.3895,0.9523,0.1627,0.2115,0.2594,0.2963,-0.4112,-1.435,-5.5125,0,0,0,0.3850000000093132
-0.3915,0.9523,0.1626,0.2115,0.2594,0.2963,-0.315,-1.4262,-5.6525,0,0,0,0.3949999999895226
-0.3917,0.952,0.1602,0.2118,0.2611,0.3023,-0.315,-1.4787,-5.6525,0,0,0,0.40499999999883585
-0.3886,0.9537,0.1657,0.2118,0.2611,0.3023,-0.0875,-1.4787,-5.6525,0,0,0,0.41000000000349246
-0.3886,0.9537,0.1657,0.2122,0.261,0.2992,-0.21,-1.4787,-5.74,0,0,0,0.41999999999825377
-0.391,0.9513,0.1612,0.2122,0.261,0.2992,-0.0613,-1.5662,-5.6175,0,0,0,0.4250000000029104
-0.3919,0.9543,0.1601,0.2122,0.261,0.2992,-0.0613,-1.5662,-5.6175,0,0,0,0.4349999999976717
-0.3881,0.9521,0.162,0.2107,0.2609,0.2934,-0.385,-1.855,-5.6613,0,0,0,0.4450000000069849
-0.3913,0.9556,0.1604,0.2107,0.2609,0.2934,-0.4988,-1.5662,-5.8538,0,0,0,0.45000000001164153
-0.3913,0.9556,0.1635,0.212,0.2602,0.2889,-0.2975,-1.61,-5.7488,0,0,0,0.4599999999918509
-0.3905,0.9517,0.1635,0.212,0.2602,0.2889,-0.2975,-1.61,-5.7488,0,0,0,0.46499999999650754
-0.3918,0.9518,0.1603,0.2105,0.26,0.2971,-0.0875,-1.9075,-5.7137,0,0,0,0.47499999999126885
-0.3922,0.9535,0.1634,0.2105,0.26,0.2971,-0.0962,-1.7062,-5.8275,0,0,0,0.4850000000005821
-0.3907,0.9524,0.1632,0.2105,0.26,0.2971,-0.1225,-1.33,-6.02,0,0,0,0.4900000000052387
-0.3907,0.9524,0.1615,0.2122,0.2586,0.297,-0.1225,-1.33,-6.02,0,0,0,0.5
-0.3907,0.9524,0.1615,0.2122,0.2586,0.297,-0.2187,-1.61,-5.775,0,0,0,0.5050000000046566
-0.3888,0.9532,0.1637,0.2097,0.2614,0.2989,-0.3938,-1.5225,-6.1163,0,0,0,0.5149999999994179
-0.3908,0.9513,0.1625,0.2097,0.2614,0.2989,-0.5775,-1.3825,-6.3787,0,0,0,0.5249999999941792
-0.388,0.9543,0.1604,0.2097,0.2614,0.2989,-0.5775,-1.3825,-6.3787,0,0,0,0.5299999999988358
-0.3902,0.9532,0.1628,0.2103,0.2604,0.299,-0.42,-1.5925,-5.495,0,0,0,0.5399999999935972
-0.3902,0.9532,0.1577,0.2103,0.2604,0.299,-0.5863,-1.7763,-5.8012,0,0,0,0.5449999999982538
-0.3876,0.951,0.1577,0.2114,0.2618,0.2978,-0.56,-1.5662,-5.9062,0,0,0,0.5549999999930151
-0.3909,0.952,0.1637,0.2114,0.2618,0.2978,-0.56,-1.5662,-5.9062,0,0,0,0.5650000000023283
-0.3902,0.9517,0.1635,0.2114,0.2618,0.2978,-0.3413,-1.225,-5.6262,0,0,0,0.5700000000069849
-0.3889,0.9539,0.1615,0.2113,0.2591,0.3004,-0.6037,-1.05,-5.7488,0,0,0,0.5800000000017462
-0.3905,0.9553,0.1659,0.2113,0.2591,0.3004,-0.6037,-1.05,-5.8625,0,0,0,0.5850000000064028
-0.3905,0.9553,0.1659,0.2113,0.2618,0.2949,-0.2362,-1.3563,-5.8625,0,0,0,0.5950000000011642
-0.3894,0.954,0.1567,0.2113,0.2618,0.2949,0.0,-1.4612,-5.7838,0,0,0,0.5999999999912689
-0.394,0.9531,0.1629,0.2113,0.2618,0.2949,-0.2975,-1.5225,-5.8362,0,0,0,0.6100000000005821
-0.3905,0.9491,0.166,0.2106,0.2603,0.2947,-0.2975,-1.5225,-5.8362,0,0,0,0.6199999999953434
-0.392,0.9537,0.1588,0.2106,0.2603,0.2947,-0.1838,-1.61,-5.7488,0,0,0,0.625
-0.392,0.9537,0.1625,0.2112,0.2605,0.3001,-0.7525,-1.5313,-5.565,0,0,0,0.6350000000093132
-0.389,0.9545,0.1625,0.2112,0.2605,0.3001,-0.98,-1.785,-5.8538,0,0,0,0.6399999999994179
-0.39,0.9527,0.1591,0.2112,0.2596,0.2966,-0.98,-1.785,-5.8538,0,0,0,0.6500000000087311
-0.3891,0.9544,0.1625,0.2112,0.2596,0.2966,-0.5512,-1.6975,-5.7225,0,0,0,0.6599999999889405
-0.388,0.9521,0.1636,0.2112,0.2596,0.2966,-0.6212,-1.7325,-5.9237,0,0,0,0.6649999999935972
-0.3917,0.9505,0.1628,0.21,0.261,0.2963,-0.5863,-1.6712,-6.1863,0,0,0,0.6750000000029104
-0.3917,0.9505,0.1628,0.21,0.261,0.2963,-0.5863,-1.6712,-6.1863,0,0,0,0.6799999999930151
-0.3917,0.9549,0.1607,0.2104,0.2598,0.2974,-0.35,-1.5662,-5.845,0,0,0,0.6900000000023283
-0.3903,0.9541,0.1643,0.2104,0.2598,0.2974,-0.2013,-1.365,-5.7925,0,0,0,0.6999999999970896
-0.3899,0.9525,0.1609,0.2104,0.2598,0.2974,-0.6475,-1.61,-5.8975,0,0,0,0.7050000000017462
-0.3899,0.954,0.1651,0.2133,0.2578,0.2917,-0.6475,-1.61,-5.8975,0,0,0,0.7150000000110595
-0.3899,0.9384,0.156,0.2133,0.2578,0.2917,-0.3237,-1.4088,-5.88,0,0,0,0.7200000000011642
-0.3883,0.9491,0.156,0.2128,0.259,0.2966,-0.07,-1.4088,-5.5475,0,0,0,0.7299999999959255
-0.3919,0.9545,0.1633,0.2128,0.259,0.2966,-0.2362,-1.4262,-5.635,0,0,0,0.7399999999906868
-0.39,0.9537,0.159,0.2128,0.259,0.2966,-0.2362,-1.4262,-5.635,0,0,0,0.7449999999953434
-0.3892,0.9505,0.1621,0.2122,0.2592,0.3028,0.1838,-1.4175,-6.0637,0,0,0,0.7550000000046566
-0.3917,0.9496,0.1627,0.2122,0.2592,0.3028,-0.6737,-1.4175,-5.7575,0,0,0,0.7599999999947613
-0.3917,0.9496,0.1627,0.211,0.2612,0.3018,-0.6737,-1.4175,-5.81,0,0,0,0.7700000000040745
-0.3885,0.9511,0.163,0.211,0.2612,0.3018,-0.3413,-1.3475,-5.81,0,0,0,0.7799999999988358
-0.3914,0.9551,0.1638,0.211,0.2612,0.3018,-0.5425,-1.4963,-5.81,0,0,0,0.7850000000034925
-0.3896,0.9528,0.1557,0.2126,0.2614,0.2943,-0.0962,-1.61,-5.9412,0,0,0,0.7949999999982538
-0.3901,0.9517,0.1651,0.2126,0.2614,0.2943,-0.0962,-1.61,-5.9412,2.1331359584139538,-7.105920415264798,0.0,0.7999999999883585
-0.3901,0.9479,0.166,0.2129,0.2601,0.3032,-0.6037,-1.085,-5.8888,3.5956709348518987,-11.567409147383016,0.0030638916028534638,0.8099999999976717
-0.3916,0.9479,0.166,0.2129,0.2601,0.3032,-0.28,-1.3388,-5.88,4.134503149633138,-14.675132036582047,0.0038601600867928286,0.8249999999970896
-0.3914,0.946,0.1653,0.2114,0.2578,0.3004,-0.3237,-1.4175,-6.1687,4.405531558376576,-17.775523981144083,0.0035937000857126826,0.8350000000064028
-0.3887,0.9481,0.1673,0.2114,0.2578,0.3004,-0.3237,-1.4175,-6.1687,4.668336233585384,-19.516260341396094,0.0034438338850810244,0.8399999999965075
-0.3977,0.9709,0.1634,0.2114,0.2578,0.3004,-0.4112,-1.6013,-5.425,4.848416898432935,-19.608984912628493,0.0013619171443233437,0.8500000000058208
-0.3889,0.9589,0.1579,0.2132,0.2598,0.2947,-0.0263,-1.785,-5.6175,6.007355111218225,-19.90216675707118,-0.0025178104250945634,0.8600000000005821
-0.3889,0.9589,0.1579,0.2132,0.2598,0.2947,-0.3325,-1.0675,-5.9675,6.137261519874233,-20.54129290796736,-0.0008740615240468709,0.8649999999906868
-0.3907,0.9547,0.1527,0.2112,0.2604,0.3002,-0.3325,-1.0675,-5.9675,6.251877954340922,-21.03114195879733,0.0023718206942084136,0.875
-0.3925,0.9543,0.1656,0.2112,0.2604,0.3002,-1.0325,-1.225,-5.6788,7.679725587625061,-21.213126263377745,0.0031870482880476544,0.8800000000046566
-0.3868,0.9376,0.1538,0.2112,0.2604,0.3002,-0.6825,-1.68,-5.9412,8.066436214597605,-21.516272320122752,0.0003285694066479427,0.8899999999994179
-0.3931,0.9466,0.1687,0.2111,0.2608,0.295,-0.1488,-1.6625,-5.9938,8.439671444141304,-21.765716433227265,-0.0010013954886541076,0.8950000000040745
-0.3775,0.9563,0.1653,0.2111,0.2608,0.295,-0.1488,-1.6625,-5.9938,8.689993207927083,-21.588865721397564,-0.0036447399323775633,0.9049999999988358
-0.3885,0.9563,0.1653,0.2115,0.2602,0.2969,-0.1663,-1.6363,-5.6525,8.881250961674711,-21.625082134162373,-0.0048052817341685755,0.9100000000034925
-0.3848,0.9572,0.161,0.2115,0.2602,0.2969,-0.42,-1.2513,-5.6262,8.91121504381996,-21.625100791948693,-0.0033397073155067287,0.9200000000128057
-0.3859,0.9524,0.164,0.2115,0.2602,0.2969,-0.4375,-1.1988,-5.5563,8.96332734620459,-21.637136471661137,-0.002337674444268655,0.9250000000029104
-0.39,0.9562,0.1574,0.2122,0.2603,0.3001,-0.4375,-1.1988,-5.5563,8.986638465949028,-21.66126401305724,-0.000377026100840854,0.9349999999976717
-0.3897,0.9528,0.1604,0.2122,0.2603,0.3001,-0.21,-1.0675,-5.5475,9.066392713963491,-21.68476310445767,0.0028638857584717095,0.944999999992433
-0.3897,0.9528,0.1604,0.2112,0.2597,0.3038,-0.0175,-1.6975,-5.775,9.194755856089063,-21.751428820969835,0.0013353176994900704,0.9499999999970896
-0.3952,0.9494,0.1609,0.2112,0.2597,0.3038,-0.0175,-1.6975,-5.7488,9.305958820099624,-21.876134008551748,-0.0016778938802986744,0.9600000000064028
-0.3948,0.9544,0.1657,0.2112,0.2597,0.297,-0.6125,-1.8637,-5.7488,9.410979145811542,-21.942219811267996,-0.006306353339062198,0.9700000000011642
-0.3884,0.9482,0.1662,0.212,0.2602,0.297,-0.42,-0.945,-5.9062,9.434843760697063,-21.951495000304313,-0.004018344003599438,0.9750000000058208
-0.3863,0.9542,0.1639,0.212,0.2602,0.297,-0.2275,-1.1025,-5.4425,9.474400509271035,-21.947323293981196,-0.001087518965077769,0.9850000000005821
-0.3894,0.955,0.1619,0.2112,0.2602,0.2954,-0.2275,-1.1025,-5.4425,9.493114929155679,-21.946349800984837,0.00036867702591906435,0.9900000000052387
-0.3894,0.955,0.1619,0.2112,0.2602,0.2954,-0.5425,-1.8988,-5.6087,9.51177340747003,-21.94058074354421,-0.0046277381417246,1.0
-0.3909,0.9542,0.1589,0.2118,0.2617,0.3026,-0.4638,-1.8288,-5.9237,9.507004906488707,-21.960408133329643,-0.006731324956052646,1.0049999999901047
-0.3888,0.9509,0.1644,0.2118,0.2617,0.3026,-0.6125,-1.6625,-6.0462,9.565340855132767,-21.9545320387918,-0.00931737010896326,1.014999999999418
-0.3959,0.9506,0.1645,0.2118,0.2617,0.3026,-0.6125,-1.6625,-6.0462,9.61411979598911,-22.0860913495507,-0.011877554806483625,1.0249999999941792
-0.3914,0.95,0.1632,0.2113,0.2606,0.2858,-0.3675,-1.4525,-5.5475,9.614840238487464,-22.087142394295864,-0.012333137658953709,1.0350000000034925
-0.3914,0.95,0.1632,0.2113,0.2606,0.2858,-0.49,-1.4963,-5.74,9.628761057830982,-22.08986132777707,-0.013721773882305511,1.0500000000029104
-0.3903,0.9521,0.1621,0.2117,0.2589,0.2964,-0.2362,-1.3125,-5.9675,9.63278995214437,-22.061320409295053,-0.01317873534310451,1.055000000007567
-0.3902,0.9575,0.1615,0.2117,0.2589,0.2964,-0.2362,-1.3125,-5.9675,9.625704008400596,-22.004744983135378,-0.012235306390098668,1.0650000000023283
-0.3852,0.9541,0.1569,0.2117,0.2589,0.2964,-0.2013,-1.3563,-5.5125,9.583648327345854,-21.991598416702534,-0.01192394252657175,1.069999999992433
-0.3905,0.9516,0.1623,0.2132,0.2598,0.303,-0.4462,-1.2513,-5.845,9.590154221878384,-22.000629455980228,-0.010387181499985871,1.0800000000017462
-0.395,0.9498,0.1631,0.2132,0.2598,0.303,-0.6125,-1.4787,-5.7663,9.619853374858147,-22.067275859995863,-0.010700178884161006,1.084999999991851
-0.395,0.9498,0.1631,0.2126,0.2602,0.2976,-0.6125,-1.4787,-5.7663,9.643812497154613,-22.118445888799755,-0.011010046295707638,1.0899999999965075
-0.3953,0.9537,0.1629,0.2126,0.2602,0.2976,-0.0875,-1.6975,-5.8275,9.654747270809747,-22.146495478922155,-0.013899804235544405,1.1000000000058208
-0.3891,0.9523,0.1624,0.2126,0.2602,0.2976,0.2537,-1.7237,-5.565,9.663630501052484,-22.12737472472002,-0.015390425394706666,1.1050000000104774
-0.3888,0.9544,0.1598,0.2106,0.2606,0.3005,0.21,-1.5137,-5.6962,9.60526935902762,-22.082514414799096,-0.01582664033959172,1.110000000000582
-0.3882,0.9515,0.1602,0.2106,0.2606,0.3005,0.21,-1.5137,-5.6962,9.587499168986518,-22.051147694632757,-0.016848612337294993,1.1200000000098953
-0.3882,0.9515,0.1602,0.2105,0.2603,0.2992,-0.175,-1.3388,-5.8888,9.582462431345936,-22.01088854099535,-0.016404490414467544,1.125
-0.3894,0.952,0.1589,0.2105,0.2603,0.2992,-0.6037,-1.4875,-5.7225,9.562497475616082,-22.00283982345443,-0.017161303909840466,1.1349999999947613
-0.3905,0.9525,0.1667,0.2105,0.2606,0.2977,-0.6037,-1.4875,-5.7925,9.630838654262243,-21.99981638209102,-0.01791054927159969,1.1450000000040745
-0.3942,0.9513,0.1614,0.2119,0.2606,0.2977,-0.6475,-1.855,-5.7925,9.63049724224722,-22.054794195993175,-0.02001099797437232,1.1499999999941792
-0.393,0.954,0.163,0.2119,0.2606,0.2977,-0.5863,-1.47,-5.8362,9.641999080135205,-22.06715703486337,-0.020558496395324873,1.1600000000034925
-0.3917,0.9535,0.1618,0.2123,0.261,0.2978,-0.4025,-1.5838,-6.1337,9.64167782501079,-22.05969887158279,-0.022227139830389785,1.1699999999982538
-0.3917,0.9535,0.1618,0.2123,0.261,0.2978,-0.4025,-1.5838,-6.1337,9.641365798385834,-22.055232504375798,-0.022941982632958647,1.1750000000029104
-0.3909,0.9528,0.158,0.2126,0.2599,0.2964,-0.315,-1.4262,-6.2475,9.628999557099647,-22.0463516163259,-0.023026551206921493,1.1850000000122236
-0.392,0.9535,0.1615,0.2126,0.2599,0.2964,-0.105,-1.5137,-5.5825,9.625680503768855,-22.048315324726584,-0.0233864048936844,1.1900000000023283
-0.3894,0.9527,0.1611,0.2126,0.2599,0.2964,-0.1225,-1.4,-5.8187,9.62010250406003,-22.0225694387235,-0.023179845044693524,1.194999999992433
-0.3908,0.9522,0.1624,0.211,0.2606,0.295,-0.1225,-1.4,-5.8187,9.631858721478396,-22.02374903085342,-0.02302995919424342,1.209999999991851
-0.3908,0.9522,0.1607,0.211,0.2606,0.295,-0.455,-1.6363,-6.02,9.62787770196774,-22.027033343525318,-0.023996648803415774,1.2149999999965075
-0.3892,0.9519,0.1607,0.211,0.2602,0.2968,-0.105,-1.5488,-5.8012,9.61825446801835,-22.009469661900557,-0.025284410716804432,1.2250000000058208
-0.391,0.9534,0.1658,0.211,0.2602,0.2968,-0.595,-1.6888,-6.1425,9.663147599593538,-22.00605448288398,-0.02648843080675317,1.2299999999959255
-0.3921,0.9504,0.163,0.211,0.2602,0.2968,-0.595,-1.6888,-6.1425,9.675646580457798,-22.05533184845019,-0.02913727490139927,1.2400000000052387
-0.3888,0.9536,0.1643,0.2104,0.2604,0.2995,-0.7175,-1.6538,-6.2213,9.701304595988718,-21.98414443866841,-0.03141313055104039,1.25
-0.3887,0.9537,0.1614,0.2104,0.2604,0.2995,-0.1575,-1.2775,-6.125,9.684319353216987,-21.947886028329556,-0.029940857644451393,1.2600000000093132
-0.3887,0.9537,0.1614,0.2103,0.2607,0.298,-0.6825,-1.4175,-5.8975,9.6656807119292,-21.931297610379353,-0.02975537826778141,1.264999999999418
-0.3939,0.9521,0.159,0.2103,0.2607,0.298,-0.6825,-1.4175,-5.8975,9.621990814852756,-22.012181065793932,-0.029685682884984237,1.2749999999941792
-0.3889,0.9519,0.1639,0.2103,0.2607,0.298,-0.3938,-1.4963,-5.5738,9.625007378134306,-22.004142331667637,-0.029892815256603776,1.2799999999988358
-0.3881,0.9507,0.1582,0.2143,0.2593,0.297,-0.525,-1.61,-6.0988,9.601597492844189,-21.976929269575393,-0.03172749550292002,1.2899999999935972
-0.3914,0.9526,0.1637,0.2143,0.2593,0.297,0.3325,-1.0412,-5.7838,9.663305444963422,-21.993426534784955,-0.02966146474626217,1.2949999999982538
-0.3914,0.9526,0.1624,0.2115,0.2593,0.2954,0.3325,-1.0412,-5.7838,9.668066884175246,-22.00702149351295,-0.025867338495542243,1.305000000007567
-0.3891,0.9515,0.1624,0.2115,0.2593,0.2954,-0.4725,-1.6975,-6.0113,9.66967183138612,-21.988462399166615,-0.027108594307618375,1.3099999999976717
-0.3929,0.9541,0.1602,0.2095,0.2606,0.2956,-0.4725,-1.6187,-6.1425,9.657154611570903,-22.034724889795793,-0.029057246766609493,1.320000000006985
-0.3875,0.9502,0.1609,0.2095,0.2606,0.2956,-0.4725,-1.6187,-5.5563,9.652964564064177,-22.023689229569754,-0.029876543499977048,1.3250000000116415
-0.3923,0.9518,0.1606,0.2095,0.2606,0.2956,-0.6825,-1.7587,-5.5563,9.635118521287259,-22.031660228416268,-0.03318351645784131,1.334999999991851
-0.3925,0.9514,0.1637,0.2094,0.261,0.297,-0.8487,-1.3388,-5.6613,9.67629597780756,-22.047125392269162,-0.03230040969274949,1.3450000000011642
-0.3925,0.9514,0.1637,0.2094,0.261,0.297,-0.6562,-1.6538,-5.9412,9.695400962575562,-22.07243298973051,-0.03326101979701746,1.3500000000058208
-0.3881,0.9539,0.1625,0.2126,0.262,0.2971,-0.6562,-1.6538,-5.9412,9.689289978786569,-22.002059769701834,-0.0354956379977024,1.360000000000582
-0.3878,0.9526,0.1675,0.2126,0.262,0.2971,-0.105,-1.8288,-5.7225,9.749163325066688,-21.970419127560294,-0.039440410015472896,1.3699999999953434
-0.3902,0.9537,0.1606,0.2126,0.262,0.2971,-0.4988,-1.47,-5.3637,9.727873880146918,-21.97058484871667,-0.0394198101156663,1.375
-0.3882,0.9536,0.1613,0.2118,0.2605,0.2894,-0.35,-1.2687,-5.9675,9.725022111123973,-21.936860649764384,-0.03778035041334991,1.3850000000093132
-0.3882,0.9529,0.1588,0.2118,0.2605,0.2894,-0.35,-1.2687,-5.9675,9.719113085055113,-21.922014937161393,-0.03615728530986877,1.3950000000040745
-0.3911,0.9529,0.1588,0.2114,0.2586,0.297,-0.3762,-1.785,-5.4513,9.718271401240395,-21.923483127383456,-0.03772876665294445,1.3999999999941792
-0.3919,0.9525,0.1606,0.2114,0.2586,0.297,-0.2013,-1.6363,-5.67,9.696634575000639,-21.950785930559416,-0.03854846818752979,1.4049999999988358
-0.3927,0.9525,0.16,0.2114,0.2586,0.297,-0.0175,-1.3737,-5.7925,9.654372315865526,-21.994131709761938,-0.03785434110566648,1.4199999999982538
-0.3896,0.9536,0.1609,0.2135,0.2594,0.3006,-0.0175,-1.3737,-5.7925,9.634150217453977,-21.981400890119083,-0.03737291689451401,1.4250000000029104
-0.392,0.9531,0.1593,0.2135,0.2594,0.3006,-0.4112,-1.5662,-5.8012,9.628786022449184,-22.00640940644361,-0.03869917612467831,1.4349999999976717
-0.392,0.9531,0.1593,0.2126,0.2606,0.2989,-0.3675,-1.4525,-5.6175,9.628029976058425,-22.016282783140547,-0.03859936356369899,1.4400000000023283
-0.3923,0.9526,0.1606,0.2126,0.2606,0.2989,-0.1488,-1.33,-5.915,9.617327931366043,-22.0427942074021,-0.03789417412776473,1.445000000006985
-0.391,0.952,0.1622,0.2126,0.2606,0.2989,-0.1488,-1.33,-5.915,9.626807190323262,-22.042556165924378,-0.036876840786821526,1.4550000000017462
-0.3916,0.9512,0.1641,0.2102,0.2614,0.2954,-0.4025,-1.61,-5.9062,9.631445047772216,-22.054735162590912,-0.03864168077783559,1.4649999999965075
-0.3908,0.9514,0.1645,0.2102,0.2614,0.2954,-0.4812,-1.5313,-5.985,9.648853319098281,-22.048318762723678,-0.03893250317068797,1.4700000000011642
-0.3908,0.9533,0.1604,0.2083,0.2605,0.3041,-0.5337,-1.645,-5.8275,9.635298691565504,-22.03852860148834,-0.04102328653768185,1.4799999999959255
-0.3898,0.9533,0.1604,0.2083,0.2605,0.3041,-0.5337,-1.645,-5.8275,9.623621479482573,-22.017758948733295,-0.04185310787345993,1.485000000000582
-0.389,0.9557,0.1635,0.2114,0.2605,0.3042,-0.4462,-1.5925,-5.7225,9.62938968572403,-21.985501553386822,-0.043394935193698365,1.4949999999953434
-0.3901,0.9516,0.1613,0.2114,0.2605,0.3042,-0.1925,-1.3038,-5.5563,9.628019035229556,-21.98735259870233,-0.042063214240925274,1.5050000000046566
-0.3907,0.9526,0.1618,0.2114,0.2605,0.3042,-0.1925,-1.3038,-5.9237,9.629811184634654,-21.99635212544847,-0.041193696298097965,1.5100000000093132
-0.3905,0.9515,0.1645,0.212,0.2581,0.2904,-0.2187,-1.6187,-5.9237,9.653702983765994,-22.003384156099532,-0.04300149773395414,1.5200000000040745
-0.3905,0.9515,0.1645,0.212,0.2581,0.2904,-0.3237,-1.6888,-5.9237,9.66097082744765,-22.008201110342128,-0.0454852111550882,1.5299999999988358
-0.3927,0.9536,0.164,0.2109,0.2595,0.2969,-0.3413,-1.61,-5.845,9.663953210814125,-22.030708297861274,-0.04609716324142605,1.5349999999889405
-0.3901,0.9515,0.1649,0.2109,0.2595,0.2969,-0.3413,-1.61,-5.845,9.669104768582505,-22.021369809033036,-0.04776980001099888,1.5449999999982538
-0.392,0.9526,0.1625,0.2109,0.2595,0.2969,0.14,-1.365,-5.635,9.673022772770828,-22.02989698074843,-0.04714615621075297,1.5500000000029104
-0.3866,0.9518,0.166,0.2119,0.2602,0.2899,0.28,-1.5925,-5.5912,9.76001165092973,-22.004854627656766,-0.04863505304761848,1.5599999999976717
-0.3866,0.9517,0.1615,0.2119,0.2602,0.2899,-0.1663,-1.505,-5.6875,9.737942515692723,-21.972137237178888,-0.048695756717651785,1.5650000000023283
-0.39,0.9517,0.1615,0.2115,0.2606,0.2979,-0.1663,-1.505,-5.6875,9.719652530380802,-21.97714745990508,-0.0493029075499021,1.5749999999970896
-0.3893,0.9515,0.1672,0.2115,0.2606,0.2979,-0.5425,-1.5488,-5.7663,9.755429590943123,-21.970359956992414,-0.04957374267511449,1.5800000000017462
-0.3903,0.9524,0.1618,0.2115,0.2606,0.2979,-0.1575,-1.5925,-5.8625,9.73527735030954,-21.978692634930432,-0.05103836365018908,1.5900000000110595
-0.3906,0.9518,0.1658,0.2117,0.2607,0.2988,-0.3675,-1.575,-5.8275,9.73606649025491,-21.98786781917363,-0.0523150884101504,1.5999999999912689
-0.3908,0.9517,0.1632,0.2117,0.2607,0.2988,-0.3675,-1.575,-5.8275,9.736036926155716,-22.000292230793647,-0.05357904592771328,1.610000000000582
-0.3908,0.9517,0.1632,0.2102,0.2613,0.2915,-0.49,-1.3825,-5.9763,9.735465671010585,-22.011868342539138,-0.05298393466855355,1.6149999999906868
-0.3933,0.9534,0.1594,0.2102,0.2613,0.2915,-0.805,-1.3825,-5.845,9.661874864949459,-22.047292746332065,-0.052335453721757526,1.625
-0.3917,0.9513,0.1658,0.2102,0.2613,0.2915,-0.5775,-1.6275,-5.5912,9.700048644932188,-22.05091093542011,-0.05296552838561417,1.6300000000046566
-0.3916,0.9522,0.1613,0.2109,0.2611,0.2944,-0.5775,-1.6275,-5.5912,9.685515194645776,-22.053253337797837,-0.05474273150054954,1.639999999999418
-0.3919,0.952,0.167,0.2109,0.2611,0.2944,-0.6388,-1.3737,-5.495,9.740982265929157,-22.05378935157186,-0.054092423385448236,1.6450000000040745
-0.3919,0.9543,0.1609,0.2127,0.2599,0.2928,-0.3938,-1.4612,-5.6875,9.737493180631239,-22.052288949118378,-0.05421198755124775,1.6549999999988358
-0.3926,0.9543,0.1609,0.2127,0.2599,0.2928,-0.4462,-1.2337,-5.6175,9.726082418961731,-22.056136228243282,-0.05207810607656916,1.6649999999935972
-0.3866,0.953,0.1643,0.2111,0.261,0.2989,-0.4462,-1.2337,-5.6175,9.729886644661567,-22.020688497749404,-0.05076144421506225,1.6699999999982538
-0.3897,0.9508,0.1565,0.2111,0.261,0.2989,-0.5512,-1.505,-5.3987,9.671951068320102,-22.020619943340698,-0.051347938172338466,1.679999999993015
-0.3908,0.9529,0.1645,0.2111,0.261,0.2989,-0.3675,-1.3563,-5.6962,9.672612121444747,-22.017777053313523,-0.05045643719026303,1.6900000000023283
-0.3899,0.9533,0.1582,0.2111,0.2616,0.297,-0.3675,-1.3563,-5.88,9.67126206299895,-22.004677651436985,-0.04976286201818437,1.695000000006985
-0.3899,0.9533,0.1582,0.2111,0.2616,0.297,0.14,-1.4088,-5.88,9.586876374650833,-21.995427641285136,-0.04940696179792829,1.7050000000017462
-0.392,0.9529,0.1615,0.2122,0.2602,0.297,-0.4375,-1.5313,-5.9062,9.58883905957622,-22.020467499515807,-0.049590131380579744,1.7100000000064028
-0.3902,0.9524,0.1614,0.2122,0.2602,0.297,-0.2713,-1.2337,-5.67,9.591560513101292,-22.016264123823547,-0.04750246846760783,1.7200000000011642
-0.3939,0.9542,0.1633,0.2122,0.2602,0.297,-0.2713,-1.2337,-5.67,9.60261668464775,-22.03757730787011,-0.04543568218144932,1.7300000000104774
-0.3891,0.9526,0.1618,0.2123,0.2603,0.2941,-0.42,-1.5488,-5.8625,9.604285917462539,-22.00814986373179,-0.045745189558123095,1.735000000000582
-0.392,0.9529,0.1613,0.2123,0.2603,0.2941,-0.2187,-1.2775,-5.81,9.60472102412796,-22.026050388886272,-0.044129596063148584,1.7449999999953434
-0.392,0.9529,0.1613,0.2121,0.2601,0.2962,-0.5337,-1.6275,-5.9062,9.605111789951094,-22.041910156117048,-0.044841729303591316,1.75
-0.3907,0.9541,0.167,0.2121,0.2601,0.2962,-0.5337,-1.6275,-5.9062,9.649853457902859,-22.01904439196292,-0.04554674121162962,1.7550000000046566
-0.3909,0.9528,0.1586,0.2121,0.2601,0.2962,-0.6212,-1.4,-5.8012,9.61022690355267,-22.02256227722182,-0.045145882199484726,1.764999999999418
-0.3909,0.9531,0.1644,0.2118,0.2609,0.2985,-0.14,-1.4438,-5.81,9.643553822126504,-22.018542036121165,-0.04518265177794458,1.7750000000087311
-0.39,0.9519,0.1627,0.2118,0.2609,0.2985,-0.5337,-1.6625,-5.7225,9.651280930748735,-22.01295094502634,-0.047384183658775135,1.7850000000034925
-0.39,0.9519,0.1627,0.2107,0.261,0.3025,-0.5337,-1.6625,-5.7225,9.65793777808382,-22.00850881171301,-0.048237021023422956,1.790000000008149
-0.3908,0.9521,0.1589,0.2107,0.261,0.3025,-0.5688,-1.3125,-5.6613,9.627975175721478,-22.01388671666229,-0.04694300921479502,1.7999999999883585
-0.3893,0.9537,0.1627,0.2107,0.261,0.2986,-0.2713,-1.2513,-5.3288,9.63290197517284,-22.002617224862764,-0.04576481832198699,1.804999999993015
-0.3885,0.9492,0.1639,0.2101,0.26,0.2986,-0.3588,-1.26,-5.7137,9.635184047263957,-21.99517349881943,-0.043975778537527176,1.8150000000023283
-0.3913,0.9529,0.1608,0.2101,0.26,0.2986,-0.3588,-1.26,-5.7137,9.634391991839465,-22.0049014697479,-0.04287032495346936,1.819999999992433
-0.3909,0.9525,0.1603,0.211,0.2601,0.2943,-0.3675,-1.505,-5.9325,9.633952986916068,-22.01396506083625,-0.043535730104953645,1.8300000000017462
-0.3909,0.9525,0.1603,0.211,0.2601,0.2943,-0.1663,-1.645,-5.6788,9.620093137383932,-22.017386672569028,-0.04558048120260486,1.8399999999965075
-0.3905,0.9525,0.1612,0.2117,0.26,0.3003,0.245,-1.3212,-5.8538,9.614578479512842,-22.015265762558805,-0.04476192059024097,1.8450000000011642
-0.3894,0.9529,0.1607,0.2117,0.26,0.3003,0.245,-1.3212,-5.8538,9.59849505657739,-21.99620652738292,-0.04358878978366289,1.8550000000104774
-0.3928,0.9532,0.1638,0.2117,0.26,0.3003,0.0962,-1.3737,-5.7137,9.647065687658936,-22.017691121842176,-0.04305002108602987,1.860000000000582
-0.3897,0.9525,0.165,0.2115,0.2584,0.3021,-0.7525,-1.7587,-5.8275,9.696771947989951,-22.001197529904818,-0.046225259273280646,1.8699999999953434
-0.3897,0.9525,0.165,0.2115,0.2584,0.3021,-0.7525,-1.7587,-6.09,9.732802047332806,-21.983733300192185,-0.04936874508390595,1.8800000000046566
-0.3922,0.9532,0.1619,0.2122,0.2601,0.2962,-0.2625,-1.8375,-6.09,9.723536984204541,-22.02071068243844,-0.05106798682872696,1.8849999999947613
-0.3917,0.9535,0.1643,0.2122,0.2601,0.2962,-0.6125,-1.6888,-6.0287,9.7338259735522,-22.027630789151427,-0.05347103536315332,1.8950000000040745
-0.3917,0.9518,0.1617,0.2122,0.2601,0.2962,-0.6737,-1.6712,-5.7663,9.712557042518059,-22.040606832883938,-0.054306069206810983,1.8999999999941792
-0.3938,0.9512,0.1627,0.2102,0.259,0.3025,-0.6737,-1.6712,-5.7663,9.711120503335238,-22.077442410710674,-0.05513275271601855,1.9049999999988358
-0.391,0.9509,0.1607,0.2102,0.259,0.3025,-0.4812,-1.5225,-5.5388,9.699504850965042,-22.076897170585102,-0.05648246279062885,1.9200000000128057
-0.391,0.9509,0.1607,0.2106,0.261,0.2978,-0.175,-1.4875,-5.7225,9.681780081466211,-22.07540223088758,-0.05637806736181135,1.9250000000029104
-0.3922,0.9532,0.1649,0.2106,0.261,0.2978,-0.0787,-1.8813,-5.6438,9.712022896076778,-22.0744727647895,-0.06063376508566847,1.9349999999976717
-0.3936,0.9522,0.1613,0.2106,0.261,0.2978,-0.0787,-1.8813,-5.6438,9.689846357210634,-22.089570937248176,-0.062437166637056035,1.9400000000023283
-0.393,0.9518,0.1601,0.2115,0.2607,0.2989,0.0525,-1.5925,-5.8187,9.647572531602776,-22.106773874493275,-0.06377315336965851,1.9499999999970896
-0.3905,0.952,0.166,0.2115,0.2607,0.2989,0.175,-1.5225,-5.7663,9.733811605627315,-22.082730475220185,-0.06440278023714224,1.9600000000064028
-0.3905,0.952,0.166,0.2158,0.2595,0.2974,-0.805,-1.4088,-5.6613,9.78129894507896,-22.06962230629699,-0.06382961663463058,1.9649999999965075
-0.3883,0.9528,0.1583,0.2158,0.2595,0.2974,-0.805,-1.4088,-5.6613,9.676232310987338,-22.041876265394173,-0.06333304886841627,1.9750000000058208
-0.3883,0.9532,0.1626,0.2158,0.2586,0.3002,-0.5775,-1.4,-5.7663,9.676961177454343,-22.003965955812944,-0.06275432677970351,1.985000000000582
-0.3914,0.9536,0.1604,0.2118,0.2586,0.3002,-0.5337,-1.6275,-5.7838,9.659104893290792,-22.011747462227905,-0.0632802127129807,1.9900000000052387
-0.3902,0.9532,0.1675,0.2118,0.2586,0.3002,-0.3588,-1.855,-5.8625,9.663385841031143,-21.99652106553236,-0.06720651898346253,2.0
-0.3863,0.9522,0.1646,0.2115,0.2602,0.2974,-0.3588,-1.855,-5.8625,9.665391444498496,-21.937576417085797,-0.06881400798911654,2.0049999999901047
-0.3863,0.9522,0.1646,0.2115,0.2602,0.2974,-0.385,-1.6013,-5.7663,9.667085771925086,-21.903240777454055,-0.07017334631113223,2.014999999999418
-0.3932,0.9526,0.1596,0.2112,0.2608,0.2981,-0.1488,-1.5313,-6.0462,9.63852331644596,-21.994349142556562,-0.07082609124731135,2.0249999999941792
-0.3878,0.9527,0.1663,0.2112,0.2608,0.2981,-0.4112,-1.4,-5.88,9.648221234846178,-21.952022121517196,-0.07014513453486367,2.029999999998836
-0.3883,0.9528,0.1582,0.2112,0.2608,0.2981,-0.4112,-1.4,-5.88,9.640073787191675,-21.937231750947433,-0.06949829158956589,2.040000000008149
-0.3949,0.9532,0.1609,0.2098,0.2604,0.2923,-0.5075,-1.2163,-6.0113,9.633090445862557,-22.037441599316146,-0.06792129787541577,2.0449999999982538
-0.3949,0.9532,0.1609,0.2098,0.2604,0.2923,-0.4462,-1.3038,-5.845,9.629547651130984,-22.087956676538287,-0.0663443132958255,2.055000000007567
-0.3912,0.9512,0.1643,0.2113,0.2606,0.2974,-0.4462,-1.3038,-5.9412,9.641181909208305,-22.079302865968703,-0.0652319843624492,2.0600000000122236
-0.3934,0.9506,0.1565,0.2113,0.2606,0.2974,-0.0613,-1.5225,-5.9412,9.571741139485725,-22.122340648315824,-0.06584702291631653,2.069999999992433
-0.392,0.9531,0.1618,0.2113,0.2606,0.2974,-0.56,-1.6712,-5.6875,9.581675989191066,-22.113133850971565,-0.06792804108970471,2.0800000000017462
-0.3894,0.9536,0.1648,0.2134,0.2594,0.2904,-0.5337,-1.3212,-5.7312,9.612599741938299,-22.072180926792424,-0.06688600487952559,2.084999999991851
-0.3909,0.954,0.161,0.2134,0.2594,0.2904,-0.5337,-1.3212,-5.7312,9.607967103515666,-22.057047070921342,-0.06549163323005465,2.095000000001164
-0.3909,0.954,0.161,0.2097,0.2604,0.2981,-0.5863,-1.5225,-5.6875,9.602900028261965,-22.046700865591298,-0.06547039609834426,2.1000000000058208
-0.3886,0.953,0.1619,0.2097,0.2604,0.2981,-0.385,-1.2425,-5.9412,9.603362002704063,-21.99942279542332,-0.06331105053814906,2.110000000000582
-0.3898,0.9521,0.1581,0.2097,0.2604,0.2981,-0.3938,-1.19,-6.1775,9.599779351338912,-21.996670897732876,-0.06065354843088221,2.1200000000098953
-0.3901,0.9517,0.1606,0.2128,0.2597,0.2996,-0.3938,-1.19,-6.1775,9.599343379571033,-22.00128424140292,-0.05903481714857659,2.125
-0.3894,0.9511,0.1609,0.2128,0.2597,0.2996,-0.2625,-1.33,-6.1775,9.599603640003775,-21.993745566047814,-0.05780607737742527,2.1349999999947613
-0.3894,0.9511,0.1603,0.212,0.2616,0.2934,0.315,-1.2775,-6.02,9.586241494150421,-21.990706468648195,-0.056648945803111715,2.139999999999418
-0.3916,0.9542,0.1603,0.212,0.2616,0.2934,0.2013,-1.6625,-5.9675,9.568027700649363,-22.00534179708425,-0.05873581474369059,2.1499999999941792
-0.3915,0.9533,0.1632,0.2119,0.2614,0.2955,0.2013,-1.6625,-5.9675,9.621480000768193,-22.016146973011512,-0.06080181499872483,2.1600000000034925
-0.3925,0.9523,0.1604,0.2119,0.2614,0.2955,0.07,-1.5662,-5.5037,9.602864395846904,-22.02007128319155,-0.06104379104952921,2.165000000008149
-0.392,0.9525,0.1621,0.2119,0.2614,0.2955,0.1575,-1.155,-5.5475,9.622069337182015,-22.024940024260705,-0.05806246154027596,2.1750000000029104
-0.3911,0.95,0.1603,0.2112,0.2604,0.2934,-0.6037,-1.5313,-5.8275,9.613747994367529,-22.043484966921834,-0.05815907612550393,2.180000000007567
-0.3911,0.95,0.1603,0.2112,0.2604,0.2934,-0.6037,-1.5313,-5.8275,9.606986940516554,-22.057084455545105,-0.05893196376353933,2.1900000000023283
-0.392,0.9542,0.1662,0.2118,0.2585,0.2964,-0.5075,-1.6712,-5.95,9.63942971997826,-22.04961947027285,-0.06108213252446881,2.1999999999970896
-0.3897,0.9528,0.166,0.2118,0.2585,0.2964,-0.4988,-1.4175,-5.74,9.666668569349588,-22.027251646811763,-0.060585240399330234,2.2050000000017462
-0.3905,0.9555,0.161,0.2118,0.2585,0.2964,-0.0088,-1.3737,-5.5825,9.639368263999957,-22.019027242683965,-0.059773626395444736,2.2149999999965075
-0.3886,0.9518,0.1602,0.2123,0.2598,0.2946,-0.0088,-1.3737,-5.5825,9.616596452513505,-22.009638024616343,-0.05907300933139448,2.220000000001164
-0.3886,0.9518,0.1581,0.2123,0.2598,0.2946,-0.0263,-1.6975,-5.8012,9.568844585635876,-21.991473633274857,-0.061482137636509004,2.2299999999959255
-0.3906,0.9518,0.1581,0.2119,0.2608,0.2979,-0.3325,-1.0325,-5.8625,9.563492036669713,-22.00523250349331,-0.057283674656806394,2.2400000000052387
-0.3889,0.9531,0.1643,0.2119,0.2608,0.2979,-0.3325,-1.0325,-5.5825,9.571935053715023,-21.994639370656238,-0.05491901710856957,2.2450000000098953
-0.3914,0.9516,0.1593,0.2119,0.2608,0.2979,-0.2362,-1.5225,-5.5825,9.56368272604254,-22.003751467581004,-0.05563718533681995,2.2550000000046566
-0.3887,0.9539,0.1642,0.2105,0.2613,0.2951,-0.21,-1.4,-5.915,9.59215576623191,-21.96507838567448,-0.05510811768347718,2.2600000000093132
-0.3917,0.9521,0.1598,0.2105,0.2613,0.2951,-0.2537,-1.3125,-5.81,9.585288912891532,-21.995641218276088,-0.05374539490824871,2.2699999999895226
-0.3917,0.9521,0.1598,0.2122,0.2598,0.294,-0.2537,-1.3125,-5.81,9.5791535429027,-22.018345101648382,-0.05239629935841032,2.279999999998836
-0.39,0.952,0.1596,0.2122,0.2598,0.294,-0.1838,-1.3388,-5.7663,9.569263201877067,-22.014077124347622,-0.05159670056456952,2.2850000000034925
-0.3897,0.9526,0.1632,0.2122,0.2598,0.294,-0.0962,-1.3388,-5.8275,9.602274676783532,-21.999682322224665,-0.05052946195921263,2.2949999999982538
-0.3909,0.9548,0.1616,0.2114,0.2596,0.2892,-0.315,-1.4787,-5.6,9.602494041274975,-21.997584029086614,-0.050857905740396996,2.305000000007567
-0.3887,0.9523,0.1642,0.2114,0.2596,0.2892,-0.315,-1.4787,-5.6,9.612377824364847,-21.987289659958286,-0.05076619588216802,2.3099999999976717
-0.3887,0.9517,0.1617,0.2116,0.2606,0.2941,-0.0613,-0.9887,-6.055,9.619614655624359,-21.96693253726191,-0.04624127231960498,2.320000000006985
-0.3936,0.9517,0.1617,0.2116,0.2606,0.2941,-0.0787,-1.1638,-6.0375,9.62489407539975,-22.04544523811776,-0.044636973795345466,2.3250000000116415
-0.3916,0.9537,0.1673,0.2117,0.2596,0.2957,-0.56,-1.4612,-6.2125,9.67608253694826,-22.034620882886145,-0.04485109245608487,2.334999999991851
-0.3917,0.952,0.1613,0.2117,0.2596,0.2957,-0.56,-1.4612,-6.2125,9.666685678303017,-22.054398763910772,-0.04506306993213916,2.345000000001164
-0.3932,0.952,0.1657,0.2117,0.2596,0.2957,-0.7262,-1.82,-6.1687,9.72072216879785,-22.09052525706196,-0.04671874342864927,2.349999999991269
-0.3909,0.9524,0.164,0.2136,0.2606,0.2986,-0.3325,-1.75,-5.6262,9.722649179475223,-22.081028652300855,-0.04906724272005812,2.3580000000074506
-0.3909,0.9524,0.164,0.2136,0.2606,0.2986,-0.175,-1.5225,-5.635,9.730525330393352,-22.07248033859998,-0.04984392869219362,2.368000000002212
-0.3901,0.9542,0.1642,0.2117,0.2608,0.3022,-0.175,-1.5225,-5.635,9.73604071336533,-22.053794856522266,-0.04997916860401759,2.3729999999923166
-0.3892,0.9524,0.165,0.2117,0.2608,0.3022,-0.4725,-1.5662,-6.2387,9.744435043282332,-22.000783475733694,-0.05117936531956066,2.38300000000163
-0.3904,0.9512,0.1602,0.2117,0.2608,0.3022,-1.0762,-1.5488,-5.5475,9.668271456134196,-22.00339447995615,-0.05219530006556473,2.392999999996391
-0.3897,0.9517,0.1618,0.2113,0.2614,0.3006,-0.455,-1.7325,-5.5563,9.666786113617766,-22.00168592086129,-0.05334652626646735,2.3980000000010477
-0.3897,0.9512,0.1588,0.2113,0.2614,0.3006,-0.455,-1.7325,-5.5563,9.652462808946764,-22.001852081753515,-0.05615941940204964,2.407999999995809
-0.3922,0.9512,0.1588,0.2118,0.2598,0.2966,-0.385,-1.645,-5.6962,9.65038053902811,-22.026242759814576,-0.05683787940918404,2.4130000000004657
-0.3928,0.9549,0.1657,0.2118,0.2598,0.2966,-0.4288,-1.61,-5.6788,9.660641624914117,-22.032653673675917,-0.05840310901707929,2.423000000009779
-0.3881,0.9529,0.1601,0.2118,0.2598,0.2966,-0.4288,-1.61,-5.9675,9.654118957339858,-21.982537407099493,-0.059952686325790774,2.43300000000454
-0.3904,0.9538,0.1607,0.2121,0.2593,0.2886,-0.3588,-1.5662,-5.9675,9.65285829146915,-21.981707467429928,-0.060203153663324495,2.438000000009197
-0.3888,0.952,0.1631,0.2121,0.2593,0.2886,-0.4375,-1.2775,-5.845,9.657036082428341,-21.966522499056243,-0.05902205132783727,2.4429999999993015
-0.3888,0.952,0.1631,0.2114,0.2608,0.3074,0.07,-1.3475,-5.635,9.676895262867653,-21.960700363024074,-0.05796668921480258,2.452999999994063
-0.3905,0.9535,0.1624,0.2114,0.2608,0.3074,0.07,-1.3475,-5.635,9.673506935051927,-21.96430947043668,-0.05692188072222137,2.463000000003376
-0.3914,0.9525,0.1608,0.2114,0.2608,0.3074,-0.175,-1.33,-5.9588,9.658431073218845,-21.995020697337434,-0.055714270315333596,2.4729999999981374
-0.392,0.953,0.1636,0.2134,0.2614,0.3005,-0.4725,-1.2163,-5.8275,9.665901852391261,-22.014416082065953,-0.054275116811358826,2.478000000002794
-0.3908,0.9518,0.1622,0.2134,0.2614,0.3005,-0.56,-1.5925,-5.95,9.666720305271319,-22.021444327262447,-0.055692724042218276,2.4879999999975553
-0.3908,0.9532,0.1612,0.2091,0.2614,0.3011,-0.56,-1.5925,-5.95,9.65600563233442,-22.017994067175373,-0.056115976002708956,2.493000000002212
-0.3894,0.9532,0.1612,0.2091,0.2614,0.3011,-0.4112,-1.5488,-6.0375,9.65389421261133,-21.989395411937263,-0.05708254464410468,2.503000000011525
-0.3905,0.9547,0.1584,0.2107,0.2609,0.2946,0.0875,-1.575,-6.1163,9.580302933993373,-21.98359462058679,-0.05740527339589523,2.50800000000163
-0.3918,0.9523,0.1638,0.2107,0.2609,0.2946,-0.1225,-1.4175,-6.09,9.616218673116324,-22.0172924275121,-0.057059079061816925,2.517999999996391
-0.3928,0.9528,0.1611,0.2107,0.2609,0.2946,-0.1225,-1.4175,-6.09,9.612337619500853,-22.05730528304257,-0.0567163466710794,2.5279999999911524
-0.3861,0.9519,0.1649,0.2111,0.2602,0.2931,-0.5163,-1.575,-5.9675,9.639375291757798,-21.965923883882688,-0.05793629160603299,2.5380000000004657
-0.3861,0.9519,0.1649,0.2111,0.2602,0.2931,-0.6825,-1.8463,-5.7137,9.683954198795668,-21.929653644301997,-0.05959341789205556,2.5430000000051223
-0.3916,0.954,0.1618,0.2124,0.2595,0.2944,-0.4725,-1.7675,-6.02,9.678693515084381,-21.966702862913078,-0.06084391291485463,2.548000000009779
-0.3901,0.9515,0.1629,0.2124,0.2595,0.2944,-0.4725,-1.7675,-6.02,9.681985269107557,-21.979984820838677,-0.06392833218377153,2.55800000000454
-0.3902,0.952,0.1603,0.2124,0.2595,0.2944,-0.42,-1.33,-5.9675,9.67640827088192,-21.989294399006106,-0.06265065726226826,2.5679999999993015
-0.3903,0.9518,0.162,0.2124,0.2608,0.2966,-0.5163,-1.26,-6.23,9.674274879825413,-21.998751341231124,-0.0613584548890256,2.573000000003958
-0.3903,0.9547,0.1636,0.2124,0.2608,0.2966,-0.5163,-1.1375,-5.7225,9.68049946385872,-21.988070297322853,-0.05947279954265285,2.577999999994063
-0.3899,0.9547,0.1636,0.2104,0.2608,0.2981,-0.3413,-1.1375,-5.7225,9.681830314256091,-21.975400511381665,-0.05633392994485692,2.588000000003376
-0.3913,0.9545,0.1599,0.2104,0.2608,0.2981,-0.2013,-1.5313,-5.6962,9.656661810210034,-21.982755035629584,-0.057125069044698794,2.5979999999981374
-0.3884,0.9536,0.1615,0.2104,0.2608,0.2981,-0.5075,-1.4525,-5.5912,9.651400277661073,-21.97108200085894,-0.05712817675478672,2.6080000000074506
-0.39,0.9519,0.1633,0.2122,0.2606,0.2984,-0.5075,-1.4525,-5.5912,9.66124849092906,-21.973134161749183,-0.056844074186670514,2.6129999999975553
-0.3914,0.9527,0.166,0.2122,0.2606,0.2984,-0.2187,-1.295,-5.7663,9.691022550493068,-21.987471014733273,-0.05529074184388656,2.6230000000068685
-0.3914,0.9527,0.166,0.2106,0.2614,0.3021,-0.315,-1.7763,-6.0637,9.701592919903325,-22.005244133398477,-0.05851781282346749,2.63300000000163
-0.3906,0.9518,0.1622,0.2106,0.2614,0.3021,-0.1925,-1.3388,-5.8012,9.696931454126593,-22.010404895214954,-0.05793263469523281,2.63300000000163
-0.3926,0.9534,0.159,0.2106,0.2614,0.3021,-0.1925,-1.3388,-5.8012,9.66196589887397,-22.034515943155863,-0.056526400948312586,2.6480000000010477
-0.3902,0.9514,0.1649,0.2112,0.2595,0.2946,-0.0875,-1.2687,-5.8275,9.699947494801252,-22.026378248918736,-0.05533850614006169,2.6529999999911524
-0.3904,0.952,0.1591,0.2112,0.2595,0.2946,-0.5775,-1.2337,-5.8975,9.66390023154578,-22.02507711630402,-0.05319335947717864,2.6630000000004657
-0.3904,0.9526,0.1621,0.2127,0.26,0.2992,-0.49,-1.225,-5.845,9.663206531401201,-22.018045217386806,-0.05182248008162553,2.6680000000051223
-0.3904,0.9526,0.1621,0.2127,0.26,0.2992,-0.49,-1.225,-5.845,9.66258553502801,-22.012953881241405,-0.04962636368168828,2.6779999999998836
-0.387,0.9525,0.1602,0.2113,0.2595,0.2985,-0.0088,-1.505,-5.7925,9.631776675165582,-21.968832032963242,-0.04967715424538088,2.68300000000454
-0.3911,0.9539,0.1629,0.2113,0.2595,0.2985,-0.6125,-1.6888,-5.985,9.643235315001771,-21.981602655843957,-0.053550975302757486,2.698000000003958
-0.388,0.9537,0.1632,0.2113,0.2595,0.2985,-0.3675,-1.5313,-6.1425,9.64359856408901,-21.92886565442945,-0.05369270475036064,2.7030000000086147
-0.3891,0.9537,0.1634,0.2104,0.2611,0.306,-0.3675,-1.5313,-6.1425,9.644022827544836,-21.919846903207173,-0.05451025610017645,2.712999999988824
-0.3891,0.9537,0.1634,0.2104,0.2611,0.306,-0.2275,-1.33,-6.1163,9.653953662215368,-21.91459980174797,-0.05364595773887742,2.7179999999934807
-0.3888,0.9537,0.165,0.2114,0.2612,0.2983,-0.2537,-1.2075,-5.88,9.67117272629321,-21.906108552004238,-0.05125835655976464,2.728000000002794
-0.3924,0.9509,0.1607,0.2114,0.2612,0.2983,-0.2625,-1.5225,-5.8275,9.66332208602508,-21.968753437061796,-0.05137945219291291,2.7329999999928987
-0.3902,0.9526,0.1668,0.2114,0.2612,0.2983,-0.2625,-1.5225,-5.8275,9.690019323001557,-21.969873133972325,-0.052133016072164105,2.743000000002212
-0.3891,0.9523,0.1633,0.2106,0.2619,0.3051,-0.3588,-1.7675,-5.7575,9.690581959211036,-21.962007867319326,-0.055304544309507896,2.752999999996973
-0.3932,0.9521,0.1654,0.2106,0.2619,0.3051,-0.175,-1.5662,-5.8362,9.71777067159266,-22.010519343936437,-0.055601493067204445,2.75800000000163
-0.3932,0.9521,0.1654,0.2128,0.2608,0.2982,-0.175,-1.61,-5.7225,9.74046719689946,-22.037292565899545,-0.05717908653851949,2.768000000010943
-0.3932,0.9527,0.1608,0.2128,0.2608,0.2982,-0.0437,-1.61,-5.7225,9.700793501238763,-22.059351212720067,-0.05767409987102303,2.7730000000010477
-0.3924,0.9538,0.1662,0.2128,0.2608,0.2982,-0.455,-1.4875,-5.8275,9.714732712026155,-22.06024648518806,-0.0580182172718304,2.782999999995809
-0.3915,0.9512,0.1626,0.21,0.2606,0.3001,-0.245,-1.4175,-5.9675,9.713117593874843,-22.067673708830906,-0.05766589349932432,2.7930000000051223
-0.3922,0.9542,0.1613,0.21,0.2606,0.3001,-0.245,-1.4175,-5.9675,9.69968681201084,-22.06560493817707,-0.057203163764105606,2.797999999995227
-0.3922,0.9542,0.1613,0.2117,0.2595,0.296,-0.0787,-1.3913,-5.6262,9.675818708576804,-22.065031219640833,-0.056599610526435196,2.80800000000454
-0.3891,0.9515,0.1652,0.2117,0.2595,0.296,-0.5163,-1.6625,-6.02,9.697603128310403,-22.022057715043474,-0.05736029361854527,2.812999999994645
-0.3917,0.9547,0.1643,0.2117,0.2595,0.3014,-0.2713,-1.4438,-5.7488,9.703794660357502,-22.02061436327525,-0.05727491908281452,2.823000000003958
-0.39,0.9515,0.1592,0.2103,0.2602,0.3014,-0.2713,-1.4438,-5.7488,9.684851598135076,-22.018593199025503,-0.05719039829244108,2.8330000000132713
-0.3913,0.9542,0.162,0.2103,0.2602,0.3014,-0.21,-1.3475,-5.705,9.677945349823737,-22.01756651914024,-0.05638592350997695,2.838000000003376
-0.3873,0.9522,0.1621,0.2114,0.2611,0.2963,-0.2187,-1.5488,-6.0462,9.675716130013603,-21.955705278846818,-0.057349792674076853,2.8479999999981374
-0.3873,0.9522,0.1621,0.2114,0.2611,0.2963,-0.1225,-1.7237,-5.9675,9.672821323252041,-21.92012440392439,-0.05840591394885379,2.853000000002794
-0.3913,0.9534,0.1617,0.2098,0.261,0.3054,-0.1225,-1.7237,-5.9675,9.66343745733502,-21.957121536511448,-0.061081093207657845,2.8629999999975553
-0.3881,0.9532,0.163,0.2098,0.261,0.3054,-0.35,-1.4787,-5.6525,9.664343921408229,-21.94282425893015,-0.06088715147596951,2.868000000002212
-0.3913,0.9523,0.1631,0.2098,0.261,0.3054,-0.5688,-1.5137,-6.0462,9.673251584539614,-21.98156390669661,-0.06145851836059153,2.877999999996973
-0.3906,0.954,0.1607,0.212,0.2602,0.2942,-0.2975,-1.6275,-5.88,9.665423330207894,-21.982923592722287,-0.06315079157913406,2.8880000000062864
-0.3906,0.954,0.1607,0.212,0.2602,0.2942,-0.2975,-1.6275,-5.88,9.658144104217287,-21.98388372125788,-0.06367271286441695,2.893000000010943
-0.39,0.9533,0.1585,0.2129,0.2601,0.2991,0.0875,-1.26,-5.95,9.589340161271547,-21.98172593148869,-0.06170459413647026,2.9030000000057044
-0.3935,0.9522,0.1609,0.2129,0.2601,0.2991,-0.3237,-1.1375,-5.8625,9.5894215206414,-22.035322751104754,-0.05981547739392085,2.908000000010361
-0.3886,0.9528,0.1642,0.2129,0.2601,0.2991,0.1312,-1.19,-5.5037,9.652617923450531,-22.03000141641616,-0.05719293102398804,2.9179999999905704
-0.3924,0.9509,0.1606,0.2114,0.259,0.2984,0.1312,-1.19,-5.5037,9.630413671067872,-22.034269219881047,-0.05459661011186281,2.9279999999998836
-0.3903,0.9536,0.1627,0.2114,0.259,0.2984,0.14,-1.5662,-5.7575,9.648031275161483,-22.02016786442581,-0.054900638211535804,2.93300000000454
-0.3903,0.9536,0.1627,0.2106,0.2626,0.2982,-0.35,-1.5225,-5.7838,9.648801009493107,-22.008527797186442,-0.05561899022875653,2.9429999999993015
-0.3895,0.9535,0.1585,0.2106,0.2626,0.2982,-0.35,-1.5225,-6.0025,9.644075999161767,-21.987245599717543,-0.055696479527059126,2.948000000003958
-0.3899,0.9532,0.1627,0.2106,0.2626,0.2982,-0.28,-1.68,-6.0025,9.647671533672177,-21.97766178038558,-0.057966123130307766,2.9579999999987194
-0.3921,0.9524,0.1648,0.2124,0.2612,0.3001,-0.2887,-1.9075,-5.775,9.660829402419552,-22.002146694588994,-0.06246532030373476,2.9680000000080327
-0.3924,0.952,0.1594,0.2124,0.2612,0.3001,-0.1488,-1.6187,-5.8012,9.632346198929213,-22.032634451433776,-0.06295053630173106,2.9730000000126893
-0.3924,0.952,0.1594,0.2122,0.2598,0.2928,-0.1488,-1.6187,-5.8012,9.60907796508171,-22.055431592679362,-0.06454076933432076,2.9829999999928987
-0.39,0.9534,0.1595,0.2122,0.2598,0.2928,-0.4988,-1.4438,-5.9237,9.596592271454329,-22.029111186677813,-0.0641394758412049,2.9879999999975553
-0.3924,0.9525,0.1623,0.2122,0.2591,0.2962,-0.4725,-1.7763,-5.8275,9.603237041947567,-22.04876588825946,-0.06727805948081264,2.9979999999923166
-0.3892,0.9536,0.1608,0.2127,0.2591,0.2962,-0.3413,-1.855,-5.9588,9.602261469937563,-22.006999101735705,-0.07116438729025053,3.00800000000163
-0.3916,0.954,0.1612,0.2127,0.2591,0.2962,-0.3413,-1.855,-5.9588,9.601911089724059,-22.016396316714957,-0.07273229761947103,3.0130000000062864
-0.3911,0.9526,0.1666,0.2122,0.259,0.303,-0.6037,-1.6363,-5.6875,9.661576241196077,-22.01696414832537,-0.0743989530420222,3.0230000000010477
-0.3911,0.9526,0.1666,0.2122,0.259,0.303,-0.7437,-1.6975,-5.3812,9.73150812524448,-22.01715797138308,-0.07515489271299888,3.0280000000057044
-0.3914,0.9514,0.1598,0.2109,0.261,0.2966,-0.1925,-1.6275,-5.8362,9.701407394623779,-22.035000597503895,-0.0767102021846604,3.0380000000004657
-0.3936,0.9523,0.1643,0.2109,0.261,0.2966,-0.1925,-1.6275,-5.8362,9.714773360109897,-22.069174455424434,-0.07824995856160531,3.047999999995227
-0.3913,0.9533,0.1574,0.2109,0.261,0.2966,-0.1225,-1.6363,-5.9062,9.646838220598715,-22.06244929459791,-0.07866444817710404,3.0529999999998836
-0.3901,0.952,0.1635,0.2109,0.2618,0.2948,-0.315,-1.47,-5.7663,9.652219261844271,-22.046002032093487,-0.07877493377551578,3.0650000000023283
-0.3901,0.952,0.1591,0.2109,0.2618,0.2948,-0.6737,-1.5925,-5.95,9.614176735680843,-22.033168581903578,-0.07896736363582078,3.069999999992433
-0.3902,0.9532,0.1591,0.2106,0.2587,0.297,-0.6737,-1.5925,-5.95,9.582218989608334,-22.01822442935451,-0.08013804840128831,3.0800000000017462
-0.3924,0.953,0.1646,0.2106,0.2587,0.297,-0.4112,-1.645,-6.0287,9.590222333171981,-22.04218404110219,-0.08057672211482128,3.084999999991851
-0.3911,0.9532,0.1598,0.2106,0.2587,0.297,-0.455,-1.995,-6.0988,9.584660713145883,-22.03782849592845,-0.08571606329920989,3.095000000001164
-0.3919,0.9527,0.161,0.2114,0.2597,0.3038,-0.0613,-1.6363,-6.2737,9.58639999100555,-22.05570449578181,-0.08605589186733258,3.1000000000058208
-0.3911,0.9517,0.1618,0.2114,0.2597,0.3038,-0.0613,-1.6363,-6.2737,9.601199000202143,-22.055218455484393,-0.08758931134740512,3.110000000000582
-0.3911,0.9517,0.1618,0.2124,0.2602,0.296,-0.4112,-1.4438,-5.9588,9.602949715282925,-22.05501975343221,-0.08695753243415842,3.1150000000052387
-0.3917,0.9542,0.1648,0.2124,0.2602,0.296,-0.5863,-1.4963,-5.8538,9.637407235238989,-22.04629860282173,-0.08709593550928879,3.125
-0.392,0.9514,0.1638,0.2124,0.2602,0.296,-0.5863,-1.4963,-5.7225,9.6604942443898,-22.05725782217417,-0.08723295455513466,3.1350000000093132
-0.3916,0.9517,0.1633,0.2109,0.259,0.302,-0.7613,-1.9162,-5.7225,9.68173734472047,-22.060880299351197,-0.0889431192044724,3.139999999999418
-0.3917,0.9539,0.1629,0.2109,0.259,0.302,-0.2013,-1.3475,-5.8538,9.683103570416202,-22.054079004539016,-0.08758854641267134,3.1499999999941792
-0.3917,0.9539,0.1629,0.2118,0.2598,0.297,-0.1225,-0.8138,-5.9938,9.684697844832595,-22.048037566381357,-0.08096388934319068,3.1600000000034925
-0.3943,0.9526,0.1629,0.2118,0.2598,0.297,-0.1225,-0.8138,-5.9938,9.688571143318507,-22.0990556226043,-0.07727986465544737,3.164999999993597
-0.3912,0.9539,0.1652,0.2107,0.2611,0.2962,-0.1575,-1.3212,-5.8275,9.712795375631107,-22.073487969295915,-0.07578155440821721,3.1750000000029104
-0.392,0.9519,0.1649,0.2107,0.2611,0.2962,-0.1138,-1.3212,-5.8012,9.736494696710945,-22.076536035599194,-0.0746609830637972,3.180000000007567
-0.3917,0.9553,0.163,0.2107,0.2611,0.2962,-0.35,-1.7237,-5.9675,9.735294939866078,-22.053549394996203,-0.07717361163145184,3.1900000000023283
-0.3864,0.9527,0.1634,0.212,0.2615,0.295,-0.35,-1.7237,-5.9675,9.735226754949473,-21.96491119246643,-0.07803149471665502,3.195000000006985
-0.3864,0.9527,0.1634,0.212,0.2615,0.295,-0.5775,-1.61,-5.5912,9.734721607237052,-21.945030464518435,-0.07938478816526594,3.2049999999871943
-0.3937,0.9543,0.1604,0.2127,0.2602,0.2941,-0.455,-1.5575,-5.5563,9.720040385573935,-21.961427614888734,-0.0802047986851163,3.2149999999965075
-0.3906,0.9547,0.1646,0.2127,0.2602,0.2941,-0.6737,-1.4875,-5.8713,9.734414838024083,-21.960598913040602,-0.07986317989869396,3.220000000001164
-0.3916,0.9526,0.1598,0.2127,0.2602,0.2941,-0.6737,-1.4875,-5.8713,9.685479697233694,-21.991879085471155,-0.07998540649922461,3.2299999999959255
-0.3911,0.9523,0.1639,0.2111,0.259,0.2985,-0.5163,-1.5225,-5.3987,9.695511747407542,-21.994523016284955,-0.07981923163482253,3.235000000000582
-0.3911,0.9507,0.1599,0.2111,0.259,0.2985,-0.4112,-1.4088,-5.6,9.69004889991645,-22.00495296211846,-0.07916276771840007,3.2449999999953434
-0.3896,0.9507,0.1599,0.2121,0.2609,0.2972,-0.4725,-1.8025,-6.1775,9.677124155767354,-22.00495921649554,-0.08241049844497803,3.2550000000046566
-0.3901,0.9538,0.1637,0.2121,0.2609,0.2972,-0.4725,-1.8025,-6.1775,9.6827048303398,-21.98392318977041,-0.08360607266240923,3.2600000000093132
-0.3899,0.9519,0.1645,0.2121,0.2609,0.2972,-0.63,-1.61,-5.95,9.7076281774681,-21.982625155290442,-0.08490362033466742,3.2700000000040745
-0.3914,0.9529,0.1623,0.2104,0.263,0.3042,-0.5775,-1.3388,-5.8888,9.70055583604729,-22.000856602848103,-0.08350331253160954,3.279999999998836
-0.3886,0.9526,0.1617,0.2104,0.263,0.3042,-0.4462,-1.61,-5.9325,9.696004894987793,-21.97159581697617,-0.08373508360728699,3.2850000000034925
-0.3886,0.9526,0.1617,0.2102,0.261,0.306,-0.4462,-1.61,-5.9325,9.691764661292547,-21.951672223286774,-0.08503134117009639,3.2949999999982538
-0.3922,0.9528,0.1595,0.2102,0.261,0.306,0.0,-1.5925,-5.6262,9.640565273753994,-21.971852954409883,-0.08516120695930829,3.3000000000029104
-0.3911,0.9536,0.1598,0.2102,0.261,0.306,-0.2537,-1.1375,-5.9938,9.626974391033048,-21.989513978692038,-0.08176545329104801,3.3099999999976717
-0.3905,0.9518,0.1603,0.211,0.2601,0.2981,-0.2537,-1.1375,-5.775,9.61983061024245,-21.998445672327463,-0.07840365715576812,3.320000000006985
-0.3906,0.9534,0.1623,0.211,0.2601,0.2981,-0.35,-1.5488,-5.775,9.62075348390791,-21.997120896349532,-0.07838348478492185,3.3250000000116415
-0.3906,0.9512,0.1618,0.2147,0.2604,0.2984,-0.1838,-1.33,-5.8625,9.625987950890853,-22.009142541056647,-0.07696125833740708,3.335000000006403
-0.3903,0.9512,0.1618,0.2147,0.2604,0.2984,-0.3675,-1.47,-5.8012,9.626137263420423,-22.012887981384747,-0.07656544995329323,3.3399999999965075
-0.3919,0.9526,0.1609,0.2118,0.2603,0.297,-0.3675,-1.47,-5.8012,9.625926785195219,-22.029857171973156,-0.07654740385336865,3.349999999991269
-0.3928,0.9525,0.1623,0.2118,0.2603,0.297,-0.1575,-1.715,-5.425,9.633732675779644,-22.033346898192843,-0.07736848401631256,3.3549999999959255
-0.3924,0.9536,0.1609,0.2118,0.2603,0.297,-0.0875,-1.6275,-5.845,9.621191893303816,-22.047669309559723,-0.07890165757829787,3.3650000000052387
-0.3897,0.954,0.1643,0.2107,0.2606,0.2981,-0.2713,-1.225,-6.0025,9.635080523123666,-22.0057559544966,-0.0764347494033939,3.375
-0.3897,0.954,0.1643,0.2107,0.2606,0.2981,-0.2713,-1.225,-6.0025,9.647687937105069,-21.978515610647687,-0.07483145610857864,3.3800000000046566
-0.3902,0.9534,0.1639,0.2115,0.2615,0.3026,-0.4462,-1.4088,-5.6613,9.65497566053398,-21.976607109512987,-0.0742248699474186,3.389999999999418
-0.3914,0.9528,0.1626,0.2115,0.2615,0.3026,-0.7525,-1.3913,-5.7488,9.663102022895442,-21.991718949861745,-0.07346686044792974,3.3950000000040745
-0.3912,0.9519,0.1635,0.2115,0.2615,0.3026,-0.5512,-1.1812,-5.915,9.675663097984383,-22.00975474561574,-0.0706206802445566,3.404999999998836
-0.3913,0.9525,0.1643,0.2093,0.261,0.2855,-0.5512,-1.1812,-5.915,9.692484215205074,-22.01910443842029,-0.0678029618432172,3.414999999993597
-0.3913,0.9536,0.1641,0.2093,0.261,0.2855,-0.0088,-1.6275,-6.02,9.71159958787387,-22.01878045001726,-0.06827836142585925,3.4199999999982538
-0.3872,0.9536,0.1641,0.2109,0.2606,0.2977,-0.3675,-1.9425,-5.9062,9.711882794817697,-21.954516711029235,-0.07302093620875849,3.429999999993015
-0.3894,0.9517,0.157,0.2109,0.2606,0.2977,-0.49,-1.4787,-5.7137,9.675799717079483,-21.960456681152408,-0.07270759604705915,3.4349999999976717
-0.3906,0.9545,0.1622,0.2109,0.2606,0.2977,-0.49,-1.4787,-5.7137,9.672493451069249,-21.96254840427602,-0.07281425848736504,3.445000000006985
-0.3894,0.9521,0.1621,0.2114,0.2602,0.296,-0.525,-1.435,-5.5912,9.671142262265395,-21.962118277167757,-0.07248722430228127,3.4550000000017462
-0.3909,0.9532,0.1623,0.2114,0.2602,0.296,0.1575,-1.4875,-5.8538,9.668320371625434,-21.976169010074386,-0.07222278125968727,3.460000000006403
-0.3909,0.9532,0.1623,0.2115,0.2612,0.2974,0.3675,-1.3475,-5.775,9.666057069992647,-21.984719824467923,-0.07103541184733407,3.470000000001164
-0.3871,0.9523,0.1627,0.2115,0.2612,0.2974,0.3675,-1.3475,-5.775,9.67851718449626,-21.94923066493512,-0.0698599161291044,3.4799999999959255
-0.394,0.9536,0.1609,0.2115,0.2612,0.2974,0.0613,-1.7325,-5.705,9.647859015535134,-21.99146313411295,-0.07083449616937164,3.485000000000582
-0.3897,0.9532,0.166,0.2108,0.2611,0.3031,-0.2362,-1.2075,-5.6175,9.675660089529273,-21.984364299883556,-0.06827500960864769,3.4949999999953434
-0.392,0.9533,0.1574,0.2108,0.2611,0.3031,-0.2362,-1.2075,-5.6525,9.639564087604317,-22.000002525181106,-0.0666666887116992,3.5
-0.392,0.9534,0.1604,0.2109,0.2623,0.3058,-0.525,-1.5838,-5.6525,9.62774250878318,-22.011219336012413,-0.06787425022632773,3.5100000000093132
-0.3912,0.9534,0.1604,0.2109,0.2623,0.3058,-0.105,-1.5225,-5.8362,9.611316456634583,-22.01630113084584,-0.06782918692281037,3.514999999999418
-0.3888,0.9523,0.1613,0.2098,0.2603,0.3068,-0.245,-1.4175,-5.7312,9.611562132734093,-21.99742427098894,-0.06737875345379449,3.525000000008731
-0.3913,0.9512,0.164,0.2098,0.2603,0.3068,-0.245,-1.4175,-5.7312,9.630938582627028,-22.01217027389412,-0.06693282431913719,3.5350000000034925
-0.3913,0.9521,0.165,0.2098,0.2603,0.3068,-0.385,-1.1988,-6.1775,9.63333491269488,-22.026049548094324,-0.06529486027786281,3.539999999993597
-0.3916,0.9523,0.1617,0.2114,0.259,0.3014,-0.4638,-1.015,-5.8275,9.63362991158133,-22.037297617505494,-0.06088502007158531,3.5500000000029104
-0.3916,0.9523,0.1617,0.2114,0.259,0.3014,-0.3762,-1.33,-5.7838,9.63364051130744,-22.044795161623007,-0.05995697407150117,3.554999999993015
-0.3905,0.9534,0.1615,0.2126,0.2598,0.2963,-0.3762,-1.33,-5.7838,9.633577299774077,-22.0316402130214,-0.058719012730191616,3.5650000000023283
-0.3895,0.9532,0.1601,0.2126,0.2598,0.2963,-0.2187,-1.4525,-5.8888,9.62033055788928,-22.006815367660995,-0.05870618100258882,3.5749999999970896
-0.3921,0.9539,0.163,0.2126,0.2598,0.2963,-0.2275,-1.3563,-5.7838,9.63005191907177,-22.01889184116509,-0.0579301083923869,3.5800000000017462
-0.3925,0.9506,0.1583,0.2105,0.2596,0.2946,-0.1138,-1.4875,-5.8625,9.593924427660193,-22.05925395616458,-0.05827166570932066,3.5900000000110595
-0.3769,0.9545,0.1652,0.2105,0.2596,0.2946,-0.1138,-1.4875,-5.8625,9.640283120621309,-21.831479174963285,-0.05814937825131624,3.595000000001164
-0.3893,0.9545,0.1652,0.2119,0.2578,0.2973,-0.3675,-1.575,-5.9237,9.641248268758646,-21.85128129326887,-0.059354992870467464,3.6050000000104774
-0.3884,0.9537,0.1602,0.2119,0.2578,0.2973,-0.14,-1.3388,-5.6087,9.621246445956832,-21.855146473363178,-0.05821017134285379,3.6149999999906868
-0.388,0.9525,0.1601,0.2119,0.2578,0.2973,-0.2275,-1.6363,-5.7663,9.611098389316655,-21.862314954264647,-0.05882505883054004,3.6199999999953434
-0.3893,0.9532,0.1629,0.2106,0.2607,0.3013,-0.2275,-1.6363,-5.7663,9.622137312621323,-21.877705606194866,-0.06063078664446422,3.6300000000046566
-0.3913,0.9515,0.1603,0.2106,0.2607,0.3013,-0.2625,-1.4,-5.67,9.61624360059343,-21.91126644806339,-0.06005178297796554,3.6349999999947613
-0.3913,0.9515,0.1603,0.2122,0.2604,0.2916,-0.665,-1.575,-5.8538,9.604178436035104,-21.956939418121753,-0.06123837354985027,3.6450000000040745
-0.3898,0.9539,0.1634,0.2122,0.2604,0.2916,-0.6913,-1.47,-5.8625,9.63220698015242,-21.951593634602748,-0.06137359821396013,3.654999999998836
-0.3912,0.9525,0.1601,0.2122,0.2604,0.303,-0.6913,-1.47,-5.8625,9.610257584941774,-21.979436409926514,-0.061133666432168665,3.6600000000034925
-0.3915,0.954,0.1646,0.2111,0.258,0.303,-0.5337,-1.435,-5.6438,9.635048650334369,-21.985396316820182,-0.06092343816822055,3.6700000000128057
-0.3895,0.9529,0.1637,0.2111,0.258,0.303,-0.1575,-1.61,-5.3637,9.655027755021424,-21.98145370444312,-0.06138100798132227,3.6749999999883585
-0.3911,0.9518,0.1596,0.2118,0.2598,0.2929,-0.1575,-1.61,-5.775,9.630905688849055,-22.000128828473663,-0.06290080630349612,3.6849999999976717
-0.3911,0.9518,0.1596,0.2118,0.2598,0.2929,-0.0175,-1.5838,-5.775,9.601543258621529,-22.01437214466978,-0.06414602663947933,3.694999999992433
-0.3905,0.9535,0.1649,0.2118,0.2612,0.2951,-0.2713,-1.5925,-5.565,9.620937746100847,-22.01091198842404,-0.0644847455739974,3.6999999999970896
-0.3927,0.9526,0.1614,0.2118,0.2612,0.2951,-0.5337,-1.4525,-6.0375,9.62030348329131,-22.05037313494826,-0.06441425651879235,3.710000000006403
-0.3923,0.9542,0.1644,0.2118,0.2612,0.2951,-0.5337,-1.4525,-6.0375,9.641809071847028,-22.052364946029098,-0.06405729315303607,3.7149999999965075
-0.3889,0.9513,0.1603,0.2116,0.2619,0.2911,-0.4112,-1.5838,-5.8538,9.638971738411248,-22.025227589575543,-0.06529094862325123,3.7250000000058208
-0.3889,0.9513,0.1603,0.2116,0.2619,0.2911,-0.4988,-1.4787,-5.8538,9.630683996804844,-22.005703609249952,-0.06547177753658195,3.735000000000582
-0.392,0.9523,0.1609,0.2104,0.2598,0.2971,-0.3762,-1.5313,-5.7137,9.630551431782013,-22.022827618881063,-0.06549429895987584,3.7399999999906868
-0.389,0.9501,0.1635,0.2104,0.2598,0.2971,-0.3762,-1.5313,-5.7137,9.630987935978279,-22.01307760453437,-0.06619383437153854,3.75
-0.396,0.9514,0.1622,0.2104,0.2598,0.2971,-0.7962,-1.5488,-5.74,9.644102056481636,-22.077061624937826,-0.06629576022853458,3.7550000000046566
-0.3933,0.9507,0.1624,0.2114,0.2602,0.306,-0.77,-1.1375,-6.1075,9.658223053221162,-22.11935411883205,-0.06308866102758204,3.764999999999418
-0.3916,0.9529,0.1604,0.2114,0.2602,0.306,-0.805,-1.4963,-5.8187,9.627057132478914,-22.103936549329774,-0.0629617636177756,3.7700000000040745
-0.3916,0.9529,0.1604,0.2122,0.2599,0.2978,-0.805,-1.4963,-5.8187,9.60529437635267,-22.09255700952664,-0.0633401243810698,3.779999999998836
-0.3908,0.9545,0.1657,0.2122,0.2599,0.2978,-0.4288,-1.8288,-5.6613,9.61815542071414,-22.072172682610972,-0.06700645154126354,3.790000000008149
-0.3872,0.9543,0.159,0.2122,0.2599,0.2978,-0.4638,-1.75,-5.8275,9.604930328230218,-22.00293411494659,-0.06809619122748986,3.7950000000128057
-0.3906,0.9537,0.1582,0.213,0.2595,0.3037,-0.84,-1.82,-5.6,9.545568604379177,-22.002673376728506,-0.07162783771300811,3.805000000007567
-0.3875,0.9519,0.1599,0.213,0.2595,0.3037,-0.84,-1.82,-5.6,9.542366802230557,-21.987168658062984,-0.07512416773367118,3.8150000000023283
-0.3875,0.9519,0.1599,0.211,0.2587,0.2967,-0.5163,-1.7763,-5.3725,9.541507206346177,-21.977636510791548,-0.07626291525259407,3.819999999992433
-0.3931,0.9531,0.1587,0.211,0.2587,0.2967,-0.8225,-1.6888,-5.495,9.514227394445914,-21.98249810291342,-0.07841401450278176,3.8300000000017462
-0.3948,0.9523,0.1659,0.211,0.2612,0.2987,-0.2187,-1.4875,-5.775,9.563409541905358,-22.037976851943192,-0.07809030355818276,3.835000000006403
-0.3936,0.9536,0.1606,0.2115,0.2612,0.2987,-0.2187,-1.4875,-5.775,9.562917554592046,-22.063919562694668,-0.07823025892211853,3.845000000001164
-0.3938,0.9543,0.1643,0.2115,0.2612,0.2987,0.1225,-1.2513,-5.915,9.63110338168704,-22.084574251887364,-0.07673919553223726,3.8500000000058208
-0.3897,0.9543,0.1629,0.2102,0.2606,0.3036,-0.7088,-1.3038,-5.81,9.645177209963053,-22.043986723971745,-0.07507403197738521,3.860000000000582
-0.3897,0.9543,0.1629,0.2102,0.2606,0.3036,-0.7088,-1.3038,-5.4687,9.655712490390288,-22.043420786088433,-0.07342552005677526,3.8700000000098953
-0.39,0.9537,0.1627,0.2102,0.2605,0.3029,-0.2013,-1.68,-5.4687,9.659472753392528,-22.042993242120687,-0.0741045690534105,3.875
-0.3876,0.9514,0.1656,0.2102,0.2605,0.3029,-0.1663,-1.4787,-5.7225,9.696198351849587,-22.007196532214056,-0.07419726176243963,3.8849999999947613
-0.3936,0.9596,0.1651,0.2102,0.2605,0.3029,-0.4112,-1.7413,-6.02,9.698631915219968,-22.00823970543991,-0.07688876754801291,3.8950000000040745
-0.39,0.9534,0.1609,0.2124,0.2607,0.294,-0.4112,-1.7413,-6.02,9.694230034641263,-21.993538314043203,-0.07783661906913526,3.8999999999941792
-0.39,0.9534,0.1609,0.2124,0.2607,0.294,-0.4112,-1.7938,-6.2562,9.689990429200412,-21.98185245238851,-0.08101148128212564,3.9100000000034925
-0.388,0.9452,0.1573,0.2119,0.2586,0.2969,-0.4988,-1.085,-5.5738,9.662997830011063,-21.988039406624868,-0.07866942066787765,3.915000000008149
-0.3886,0.9519,0.1682,0.2119,0.2586,0.2969,-0.7175,-1.05,-5.8713,9.754662476675913,-21.96271084420535,-0.07447233486298548,3.9250000000029104
-0.3927,0.9553,0.1619,0.2119,0.2586,0.2969,-0.7175,-1.05,-5.8713,9.719854700120683,-21.9916012084172,-0.07202241571276755,3.930000000007567
-0.3928,0.9584,0.1633,0.2122,0.2586,0.3,-0.315,-2.0912,-6.3175,9.717106329124805,-21.995482807787873,-0.07819967994198934,3.9399999999877764
-0.3907,0.9496,0.1552,0.2122,0.2586,0.3,-0.2887,-1.5225,-6.16,9.683321951661974,-22.038200194807906,-0.07868504154374976,3.9499999999970896
-0.3907,0.9496,0.1552,0.2102,0.2597,0.297,-0.3675,-0.7175,-5.8888,9.681157985375314,-22.056499730046443,-0.07454712032519134,3.9550000000017462
-0.385,0.9411,0.1569,0.2102,0.2597,0.297,-0.3675,-0.7175,-5.8888,9.679993401557079,-22.032302314145653,-0.06709950752545048,3.9649999999965075
-0.3924,0.9476,0.1689,0.2102,0.2597,0.297,-0.5075,-1.0063,-5.6875,9.730553750570966,-22.059192665511045,-0.0625854908466169,3.9750000000058208
-0.3955,0.9561,0.1647,0.2104,0.2614,0.2995,-0.2013,-1.8637,-5.9237,9.736914753111988,-22.096784489765575,-0.06428225513355412,3.9799999999959255
-0.3894,0.9574,0.1593,0.2104,0.2614,0.2995,-0.6212,-1.6013,-5.775,9.6792111736778,-22.040874144916963,-0.06568691098412545,3.9900000000052387
-0.3894,0.9574,0.1593,0.2114,0.261,0.2935,-0.6212,-1.6013,-5.775,9.632984554377108,-21.998231926369417,-0.06605378107523763,3.9950000000098953
-0.3861,0.9498,0.1581,0.2114,0.261,0.2935,-0.6475,-0.8313,-5.705,9.593690648879285,-21.96948163449555,-0.0598177216674061,4.005000000004657
-0.387,0.9501,0.1637,0.2114,0.2615,0.2956,-0.21,-1.1287,-5.5037,9.619224177078923,-21.965709958153937,-0.05658828285211048,4.014999999999418
-0.3928,0.9538,0.1672,0.2114,0.2615,0.2956,-0.3588,-2.0387,-6.3437,9.623731494257616,-22.01896315392673,-0.05921126921727842,4.019999999989523
-0.3944,0.9556,0.1568,0.2114,0.2615,0.2956,-0.3588,-2.0387,-6.3437,9.619478542097362,-22.084982308962186,-0.06499689493104538,4.029999999998836
-0.3913,0.9541,0.1626,0.2119,0.258,0.2951,-0.4638,-2.0738,-6.265,9.623817626516688,-22.053083542977376,-0.0677095401848666,4.0350000000034925
-0.3913,0.9541,0.1626,0.2119,0.258,0.2951,-0.6125,-1.3038,-5.32,9.633045870055644,-22.04807627499107,-0.06613467318348826,4.044999999998254
-0.3902,0.9492,0.1613,0.211,0.2614,0.2998,-0.6125,-1.3038,-5.46,9.635219168486566,-22.048127333340357,-0.06457555485081727,4.055000000007567
-0.3877,0.9501,0.1668,0.211,0.2614,0.2998,-0.8487,-0.9187,-5.46,9.739087408011523,-22.047543732115713,-0.06157466850697005,4.059999999997672
-0.3894,0.9543,0.1671,0.211,0.2614,0.2998,-0.6212,-1.645,-5.7838,9.777441927047771,-22.011003839827712,-0.06343903022421014,4.070000000006985
-0.3903,0.954,0.1591,0.2112,0.2602,0.2953,-0.9538,-1.855,-5.6788,9.663801657230941,-22.004872575141906,-0.06508419411745667,4.07499999999709
-0.3903,0.954,0.1628,0.2112,0.2602,0.2953,-0.9538,-1.855,-5.6788,9.671308485909421,-21.997588484519852,-0.06899246057389373,4.084999999991851
-0.3885,0.9513,0.1628,0.213,0.2604,0.2976,-0.77,-1.12,-5.67,9.6826450319907,-21.98545310833748,-0.06558514436562403,4.095000000001164
-0.3934,0.9497,0.1618,0.213,0.2604,0.2976,-0.7437,-1.5225,-6.1687,9.678852869600684,-22.079427114821787,-0.06581644380168747,4.101999999998952
-0.3911,0.9531,0.1651,0.213,0.2604,0.2976,-0.6212,-1.8025,-6.1163,9.708416910693494,-22.053853423713342,-0.06879370192588075,4.111000000004424
-0.3929,0.954,0.1607,0.2122,0.259,0.285,-0.6212,-1.8025,-6.1163,9.679222380335593,-22.07334414025794,-0.07133725162728029,4.119000000006054
-0.3882,0.9535,0.1648,0.2122,0.259,0.285,-0.3413,-1.6187,-6.1337,9.683107122181474,-21.98769947611431,-0.07173374831204113,4.12400000001071
-0.3882,0.9535,0.1648,0.2129,0.2601,0.3004,-0.5337,-1.0588,-5.6613,9.700121581855303,-21.9666169571988,-0.06769313923549768,4.13399999999092
-0.3867,0.9492,0.1618,0.2129,0.2601,0.3004,-0.385,-1.3563,-5.8888,9.69980539192634,-21.940946511580652,-0.06682719704296668,4.138999999995576
-0.3904,0.9527,0.1635,0.2129,0.2601,0.3004,-0.385,-1.3563,-5.8888,9.70026225350641,-21.956383867864385,-0.06578090347218496,4.149000000004889
-0.3925,0.9531,0.1595,0.2137,0.2602,0.305,-0.1488,-1.645,-6.0462,9.663658041147636,-22.01119373674191,-0.06760320283616388,4.158999999999651
-0.3933,0.9536,0.1598,0.2137,0.2602,0.305,-0.2713,-1.855,-6.0113,9.649758091239061,-22.05491800642286,-0.06920672500992524,4.164000000004307
-0.3933,0.9379,0.1621,0.2122,0.2606,0.2952,-0.3762,-1.4525,-5.5388,9.650267375666532,-22.082544401915502,-0.06908901615952509,4.173999999999069
-0.3908,0.9496,0.1621,0.2122,0.2606,0.2952,-0.3762,-1.4525,-5.5388,9.650388016318768,-22.082443212513844,-0.0686853051981973,4.179000000003725
-0.3913,0.9521,0.1613,0.2118,0.2602,0.2983,-0.4462,-1.47,-5.3637,9.648003665074233,-22.080254131138503,-0.0687460605469116,4.1890000000130385
-0.388,0.9538,0.1643,0.2118,0.2602,0.2983,-0.6737,-2.0475,-5.9237,9.677081338939116,-22.00625490079415,-0.07129102913504531,4.194000000003143
-0.3927,0.9547,0.1609,0.2118,0.2602,0.2983,-0.42,-1.5137,-6.0988,9.67210622877252,-22.034166701570744,-0.07175835724307658,4.2039999999979045
-0.3856,0.9519,0.1622,0.2115,0.2612,0.2914,-0.42,-1.5137,-6.0988,9.67201596174552,-21.930895437147203,-0.07222101207002753,4.213999999992666
-0.3856,0.9519,0.1622,0.2115,0.2612,0.2914,-0.595,-1.54,-5.88,9.671667517741248,-21.883100641487296,-0.07221910614999809,4.2189999999973224
-0.3887,0.952,0.1627,0.2114,0.261,0.2962,-0.7525,-1.4525,-5.7312,9.67900693741058,-21.891509842222792,-0.07207127348903303,4.229000000006636
-0.389,0.9531,0.1634,0.2114,0.261,0.2962,-0.7525,-1.4525,-5.67,9.692554544670031,-21.89528301895115,-0.07163773995357435,4.23399999999674
-0.3894,0.9536,0.1616,0.2114,0.261,0.2962,-0.5075,-1.505,-5.67,9.683728440343364,-21.901229214710863,-0.07201547095505759,4.244000000006054
-0.3918,0.9544,0.1595,0.2121,0.26,0.2862,-0.7437,-1.8288,-5.9763,9.630686971373848,-21.949344104336816,-0.07559504464325452,4.254000000000815
-0.3918,0.9405,0.1735,0.2121,0.26,0.2862,0.1138,-1.1375,-6.7375,9.899635688260874,-22.13325552119233,-0.07356702339563727,4.2590000000054715
-0.2814,0.9405,0.1735,0.2134,0.261,0.2965,0.1138,-1.1375,-6.7375,10.080535920507765,-18.91929742527037,-0.0702872115630137,4.269000000000233
-0.45,0.9515,0.1569,0.2134,0.261,0.2965,3.57,-4.4012,-14.5075,9.508698333208361,-24.40847725078699,-0.09935082783178983,4.278999999994994
-0.401,0.9503,0.1993,0.2134,0.261,0.2965,1.96,-7.1137,-14.8488,11.143737241006088,-22.62955672025268,-0.12666743877983777,4.283999999999651
-0.3656,0.9621,0.1017,0.2126,0.2613,0.3014,3.5963,-2.0563,-12.4338,7.062368460227396,-20.943338616864164,-0.13195274278860702,4.293999999994412
-0.4466,0.9494,0.2087,0.2126,0.2613,0.3014,3.5963,-2.0563,-12.4338,11.32406296342182,-24.207314746517987,-0.13390920456377198,4.298999999999069
-0.4466,0.9494,0.2087,0.2126,0.2624,0.2969,1.7062,-1.3737,-11.3225,12.049049461606685,-24.607329697532652,-0.13236435091794263,4.309000000008382
-0.3608,1.0174,0.1731,0.2126,0.2624,0.2969,0.3938,-4.3837,-5.1975,11.010433085358557,-23.48471497318148,-0.1458373265794798,4.313999999998487
-0.1396,0.9925,0.205,0.2126,0.2624,0.2969,-5.7663,-13.8162,2.6075,11.567070865584467,-9.5672815692043,-0.2673539418282144,4.3240000000078
-0.3584,0.9484,0.1127,0.213,0.2618,0.2983,-5.7663,-13.8162,2.6075,7.5260357570363805,-19.356267439060844,-0.3876553907455095,4.334000000002561
-0.397,0.9393,0.249,0.213,0.2618,0.2983,-2.1525,-12.6788,-4.62,12.213221999412225,-20.667869143495146,-0.4954935651795305,4.3439999999973224
-0.397,0.9767,0.2128,0.2079,0.261,0.2967,2.2487,-15.33,-6.8425,12.269753813548835,-21.24329514519715,-0.6009079162702203,4.351999999998952
-0.1929,0.9767,0.2128,0.2079,0.261,0.2967,7.7,7.4725,-7.3325,12.288940770856184,-14.520204925380103,-0.5422289520729172,4.358000000007451
0.002,0.9629,0.6462,0.214,0.2587,0.2984,7.7,7.4725,-7.3325,31.487348789523494,-4.997316054734281,-0.4929150918390521,4.362999999997555
-0.0084,1.1093,0.3606,0.214,0.2587,0.2984,3.1412,66.4125,12.8013,20.993868972528308,-0.6505827737327952,0.1833032013045252,4.3730000000068685
-0.1618,0.985,0.2466,0.214,0.2587,0.2984,-36.7238,104.825,40.3725,14.241167661679038,-8.87432824808373,1.2330430603405937,4.38300000000163
-0.1272,1.0003,-0.0595,0.2225,0.2614,0.2874,-49.035,83.1862,16.8962,-3.0487595740326427,-7.304499139584715,1.6393870147086058,4.3879999999917345
-0.1272,1.0003,-0.0595,0.2225,0.2614,0.2874,-49.035,83.1862,16.8962,-3.3969110938303992,-7.237297694874665,2.4603419169413616,4.398000000001048
-0.3265,0.9276,0.4773,0.2266,0.2654,0.29,-28.5163,48.9125,-9.4412,26.177407699204455,-15.341516073129013,2.684758068079123,4.402999999991152
-0.4278,0.9379,0.2302,0.2266,0.2654,0.29,-2.7475,32.0163,-0.665,17.46093503378727,-22.4177106063669,2.9886772493063827,4.413000000000466
-0.6191,0.8926,0.022,0.2266,0.2654,0.29,-2.7475,32.0163,0.1575,6.167759280022527,-32.87621410799406,3.2895572387213696,4.423000000009779
-0.721,0.7981,-0.155,0.2283,0.263,0.2836,19.6175,19.7488,0.1575,-10.173225459273368,-40.25483060614764,3.8846172008051894,4.452999999994063
-0.6445,0.7504,0.0989,0.2283,0.263,0.2836,45.8763,4.9612,-38.71,7.1338888309506014,-40.41010930641121,3.908692300455737,4.463000000003376
-0.6445,0.7504,0.0989,0.2382,0.2649,0.2772,65.5638,12.6438,-73.4388,7.5025124204729865,-40.41471216920952,3.939094883113656,4.467999999993481
-0.5991,0.952,-0.1058,0.2382,0.2649,0.2772,65.5638,12.6438,-73.4388,-6.134690298757118,-32.145818081955,4.038682946011954,4.478000000002794
-0.8164,0.983,-0.1315,0.2382,0.2649,0.2772,50.295,4.7863,-69.6675,-7.590721557598371,-39.348541319381866,4.059485878119779,4.487999999997555
-0.7535,0.9398,0.1062,0.2419,0.2688,0.2671,26.5737,2.6337,-40.0225,5.944918496811138,-38.56680273574708,4.038830530157151,4.493000000002212
-0.5287,0.8991,0.3442,0.2419,0.2688,0.2671,22.2862,-12.5037,-16.2225,20.31406481679332,-29.606897741054055,3.8884609863531514,4.503000000011525
-0.5287,0.8991,0.3442,0.2406,0.2624,0.2706,22.2862,-12.5037,-16.2225,20.921405406410337,-28.844913585160896,3.7945857573984494,4.50800000000163
-0.7216,0.9522,0.24,0.2406,0.2624,0.2706,34.8425,-40.8625,10.325,14.333692430405439,-35.8653556117556,3.365906541629158,4.517999999996391
-0.4956,0.8938,0.2832,0.2406,0.2624,0.2762,59.6225,-61.6963,39.6987,17.527539441499222,-28.033781271383383,3.033753486734872,4.523000000001048
-0.4022,0.8705,0.3997,0.2294,0.2514,0.2762,104.3788,-74.3925,45.5,24.59528938090169,-22.87803931537813,2.2807355938461127,4.532999999995809
-0.6712,1.0168,-0.0235,0.2294,0.2514,0.2762,104.3788,-74.3925,45.5,-1.0788731189034613,-33.21926094701201,1.8965880583711272,4.538000000000466
-0.5556,1.0001,-0.0262,0.2126,0.2326,0.2698,137.5587,-68.81,67.5325,-1.4976201814317702,-29.102175920065402,1.5439153732766273,4.543000000005122
-0.5556,1.0001,-0.0262,0.2126,0.2326,0.2698,144.3488,-48.0988,111.6237,-1.5006352510931473,-29.04625229725833,1.0661034913860836,4.552999999999884
-0.5325,0.9752,-0.0157,0.1886,0.208,0.2548,146.5538,-18.4713,148.7325,-0.9262494030996418,-28.635925215197286,0.9709122171934979,4.55800000000454
-0.4458,1.0035,-0.1648,0.1886,0.208,0.2548,146.5538,-18.4713,148.7325,-9.269379877708646,-23.70333797667295,0.7921426167101284,4.5679999999993015
-0.433,0.9895,-0.0976,0.1886,0.208,0.2548,140.3237,5.7663,177.17,-5.658848421496912,-23.533164868712056,0.8196670713760387,4.573000000003958
0.4371,0.7635,0.5467,0.1642,0.1824,0.237,141.1288,27.3875,187.9588,35.31478744285044,24.711182444790676,1.0964120421130061,4.582999999998719
0.4371,0.7635,-0.1404,0.1642,0.1824,0.237,201.6613,93.6425,124.285,-10.194456052439254,29.346148585317717,1.8381408351252198,4.591000000000349
-0.0981,0.941,-0.1251,0.1554,0.1594,0.1985,201.6613,93.6425,124.285,-7.585619396193126,-5.630519692577073,2.384279111164405,4.596999999994296
-0.3816,1.0565,-0.3049,0.1554,0.1594,0.1985,216.9125,64.2425,82.8012,-16.058848708899287,-18.986991371387795,3.0102424622579402,4.607000000003609
-0.2369,0.9124,0.1015,0.1554,0.1594,0.1985,206.5087,77.5512,103.9413,6.239987710369105,-14.510593367869392,3.761702308825925,4.61699999999837
-0.0597,0.8968,-0.1606,0.1422,0.1419,0.1605,206.5087,77.5512,102.2613,-10.074115881289131,-3.848072899690397,4.114866421901609,4.622000000003027
-0.15,1.0002,-0.2912,0.1422,0.1419,0.1605,216.37,65.8613,102.2613,-16.20420160366516,-8.15381677201102,4.739550019902698,4.63200000001234
-0.15,1.0002,-0.2912,0.1281,0.1279,0.1337,209.195,51.8613,88.9525,-16.232350036178193,-8.19336759206173,4.955770649214735,4.636999999987893
-0.0218,0.9673,-0.4768,0.1281,0.1279,0.1337,180.0137,53.9087,82.9063,-26.18436699615847,-1.2367748218260335,5.1799637037775375,4.641999999992549
0.0876,0.9308,-0.4709,0.1281,0.1279,0.1337,180.0137,53.9087,82.9063,-26.831665952890532,4.732738517370387,5.675665588849663,4.652000000001863
-0.0803,0.9844,-0.4649,0.118,0.1213,0.1194,148.645,26.0575,53.3225,-25.29018165149877,-4.068808746283482,5.890683574418792,4.661999999996624
-0.0991,0.9698,-0.4421,0.118,0.1213,0.1194,120.4788,10.7975,34.0288,-24.513115810396773,-5.281405375728917,5.892127059530809,4.667000000001281
-0.0991,0.9698,-0.3859,0.1124,0.1171,0.0916,100.2312,5.7312,30.0825,-21.72615719944391,-5.419816932085709,5.86847792476835,4.672000000005937
-0.0397,0.9402,-0.3859,0.1124,0.1171,0.0916,100.2312,5.7312,30.0825,-22.30963317057141,-2.3240815999105955,5.880337417083711,4.6820000000006985
-0.1277,0.9728,-0.376,0.1069,0.1138,0.0806,90.5013,-13.1512,22.0675,-21.14498898421206,-6.817496430073636,5.763338298658675,4.687000000005355
-0.1531,0.9648,-0.371,0.1069,0.1138,0.0806,83.8163,-23.6425,17.6663,-21.03483978600955,-8.358358538416457,5.573551700765422,4.6929999999993015
-0.0523,0.9383,-0.5029,0.1069,0.1138,0.0806,72.9488,-27.58,14.2537,-28.093670197955905,-3.0802344345371404,5.258579575116335,4.703000000008615
-0.049,0.959,-0.5057,0.1039,0.1118,0.074,72.9488,-27.58,14.2537,-27.807486788520265,-2.6115531912925993,4.946757171100978,4.713000000003376
-0.049,0.959,-0.5057,0.1039,0.1118,0.074,57.6712,-36.4087,2.8525,-27.803649774703885,-2.5903348424473798,4.72396923053298,4.717999999993481
-0.0617,0.9749,-0.5383,0.104,0.1122,0.0659,40.075,-36.7938,-5.0575,-28.879099671327303,-2.75815929135088,4.326276309501265,4.728000000002794
-0.0812,0.9902,-0.55,0.104,0.1122,0.0659,14.9187,-34.3787,-10.815,-29.03921987743716,-3.8890416586641283,4.119741677529377,4.732999999992899
-0.1035,0.9764,-0.5455,0.104,0.1122,0.0659,14.9187,-34.3787,-10.815,-29.18209261678258,-5.066915019462504,3.7520005220499657,4.743000000002212
-0.0765,0.9584,-0.5386,0.1043,0.1136,0.0723,-17.2725,-39.62,-18.4625,-29.32649684001866,-4.05812523432597,3.5252642124532447,4.7480000000068685
-0.0765,0.9428,-0.5472,0.1043,0.1136,0.0723,-46.865,-42.665,-27.685,-30.11389242624363,-4.016185684560854,3.0814334621427535,4.75800000000163
-0.0447,0.9453,-0.5472,0.1088,0.1161,0.0891,-74.0075,-48.2475,-41.1862,-30.065653940508508,-2.3890446427704117,2.8186966981053314,4.763000000006286
-0.1383,1.0641,-0.5028,0.1088,0.1161,0.0891,-74.0075,-48.2475,-41.1862,-25.355265401662752,-6.584702989728214,2.326664872967272,4.773000000001048
-0.1392,0.9925,-0.5165,0.1088,0.1161,0.0891,-117.74,-52.6662,-51.5462,-27.4745483072552,-7.0811429348152215,2.049603229801234,4.778000000005704
-0.0511,0.8846,-0.6287,0.119,0.1234,0.1156,-162.3475,-40.7575,-57.4525,-35.35340168614578,-2.778578160658139,1.63941333930737,4.788000000000466
0.039,0.9212,-0.697,0.119,0.1234,0.1156,-162.3475,-40.7575,-66.7712,-37.10115326149025,1.8580143526363588,1.4281722770999101,4.79299999999057
0.039,0.9212,-0.697,0.1281,0.1295,0.1355,-184.7213,-30.0212,-66.7712,-37.11188532864159,1.9324292092029516,1.13048606566497,4.802999999999884
-0.0605,0.9253,-0.5503,0.1281,0.1295,0.1355,-206.01,-20.0462,-78.8112,-30.771882305985052,-3.1472030950715526,1.0268552107223352,4.80800000000454
-0.1334,0.9565,-0.4721,0.1281,0.1295,0.1355,-234.3687,-1.1812,-87.0888,-26.28873760127853,-7.080378340486175,1.0186981702140057,4.8179999999993015
-0.1737,0.934,-0.337,0.1417,0.145,0.1731,-234.3687,-1.1812,-87.0888,-19.86757985703214,-9.888258320991886,1.0095669443128488,4.823000000003958
-0.1888,0.9409,-0.2457,0.1417,0.145,0.1731,-259.6038,19.39,-90.405,-14.655110235875068,-10.97441763228382,1.2052376663619258,4.832999999998719
-0.1888,0.9279,-0.2036,0.1583,0.1627,0.2059,-274.0063,34.02,-87.9463,-12.384027723844223,-11.237431988985058,1.4386076637407568,4.8399999999965075
-0.1493,0.9279,-0.2036,0.1583,0.1627,0.2059,-277.2613,36.8462,-85.3475,-12.375757863266415,-8.960174859389197,1.6513712503850808,4.846000000005006
-0.2288,0.9635,-0.0116,0.1731,0.189,0.242,-277.2613,36.8462,-85.3475,-0.7318285397406885,-13.303159616819002,2.013440309282902,4.855999999999767
-0.3088,0.9801,0.0875,0.1731,0.189,0.242,-273.875,33.5387,-93.7125,5.0803963058073816,-17.376830164480825,2.1662251671511163,4.861000000004424
-0.3371,0.9237,0.0686,0.1731,0.189,0.242,-264.6875,31.4738,-95.9875,4.25050156583642,-19.9699781253625,2.46995892690914,4.870999999999185
-0.3364,0.8864,0.2351,0.1867,0.2154,0.2729,-254.17,29.5313,-92.0325,14.812929800463651,-20.142520290892122,2.5983419685826177,4.876000000003842
-0.3364,0.8864,0.2351,0.1867,0.2154,0.2729,-254.17,29.5313,-92.0325,14.854384076158041,-20.144490655463567,2.7254411798393607,4.881000000008498
-0.3333,0.9064,0.1847,0.2022,0.2417,0.2867,-237.7462,21.8838,-91.2275,11.53165052999803,-19.818590660032065,2.9286417791848827,4.890999999988708
-0.3459,0.8749,0.3068,0.2022,0.2417,0.2867,-219.4937,22.3563,-90.2913,19.288767796663738,-20.45234412058968,3.1344881232120185,4.900999999998021
-0.3518,0.8952,0.2907,0.2022,0.2417,0.2867,-197.9775,21.28,-88.375,17.996805314295965,-20.49380459558705,3.2153819378844286,4.9060000000026776
-0.3686,0.5221,0.9704,0.2142,0.268,0.3092,-197.9775,21.28,-88.375,61.49846791544787,-18.519007645812334,3.4077055099879874,4.915999999997439
-0.9173,0.2964,-0.5652,0.2142,0.268,0.3092,-94.4737,16.8612,-75.4338,-61.024716018903035,-54.65560112080535,3.5543597266564264,4.926000000006752
-0.9173,0.2964,-0.5652,0.2187,0.2591,0.2922,45.7887,100.8438,81.83,-62.299150158606174,-55.16621056135955,4.024895634188301,4.930999999996857
0.2738,0.5426,1.0271,0.2187,0.2591,0.2922,4.8125,27.055,19.3813,42.03297560962079,10.615240023567653,4.266296569708725,4.94100000000617
-0.49,1.1773,-0.3418,0.2187,0.2591,0.2922,4.8125,27.055,19.3813,-6.776523943672566,-20.53299983319046,4.364458549942792,4.946000000010827
-0.5276,0.8985,0.4776,0.2186,0.2623,0.2994,-25.8913,-47.88,-66.5437,26.68184562590916,-27.296073664289622,3.8606073562844516,4.956000000005588
-0.5208,0.756,0.4156,0.2186,0.2623,0.2994,-17.045,-23.0212,-33.6175,28.679344097241987,-30.987540693995935,3.6078967944337696,4.966000000000349
-0.5208,0.756,0.4156,0.2174,0.2643,0.299,-17.045,-26.6963,-7.35,28.792375439532094,-31.073229011580757,3.446573837537297,4.970999999990454
-0.3461,0.8581,0.4862,0.2174,0.2643,0.299,14.3763,-26.6963,-7.35,29.488706789312385,-23.40334269762229,3.161620120528639,4.980999999999767
-0.2779,0.9571,0.1602,0.2174,0.2643,0.3052,32.4888,-47.8275,-5.1887,10.092360319365984,-21.801599453588885,2.9001604899092945,4.986000000004424
-0.2877,0.9106,0.292,0.2119,0.2614,0.3052,39.7425,-70.4725,-22.3563,17.59240564757328,-17.026872512191215,2.187286526968461,4.995999999999185
-0.3742,0.9457,0.2216,0.2119,0.2614,0.3052,39.7425,-70.4725,-22.3563,13.294955991205342,-20.84327901719134,1.481541302661871,5.006000000008498
-0.4396,0.9742,0.2072,0.2076,0.2607,0.3048,47.355,-76.6937,-29.8725,12.033596698552227,-23.698239523033372,1.0939947711729097,5.010999999998603
-0.4396,0.9742,0.2072,0.2076,0.2607,0.3048,54.6263,-65.695,-22.2337,12.007640516015487,-23.80862241318314,0.44647971446832396,5.021000000007916
-0.3874,0.9864,0.0965,0.2038,0.2526,0.2963,54.0575,-38.0363,-2.4762,5.703317629227395,-21.96603313435708,0.0792609396415528,5.030999999988126
-0.3026,0.9453,0.0349,0.2038,0.2526,0.2963,54.0575,-38.0363,-2.4762,2.1791178865632257,-18.799077837350595,-0.10290865912378319,5.035999999992782
-0.3063,0.9934,0.0199,0.2038,0.2526,0.2963,36.75,-18.095,-2.45,1.174665222285655,-17.54817706235983,-0.2672146810865257,5.0460000000020955
-0.298,1.029,0.0177,0.203,0.2525,0.303,12.3988,-12.3462,-13.8162,0.9991959287661122,-16.29845894040578,-0.31875352852614836,5.051000000006752
-0.298,1.029,0.0802,0.203,0.2525,0.303,-9.555,-2.6513,-21.6737,4.117050337022878,-16.11605322602086,-0.32800847163436864,5.061000000001513
-0.2796,0.9414,0.089,0.2054,0.2577,0.3025,-9.555,-2.6513,-21.6737,5.2746247768155365,-16.451516076572524,-0.3371708653115067,5.070999999996275
-0.2461,0.7272,0.5539,0.2054,0.2577,0.3025,-18.2525,-2.1175,-40.4775,35.600022190701765,-15.106285594182353,-0.33737808586172474,5.076000000000931
-0.5937,1.0953,-0.1469,0.2054,0.2577,0.3025,7.9975,18.3925,-33.1275,-3.024442482003966,-27.787743327277955,-0.1381131632206697,5.0860000000102445
-0.3564,0.8821,0.2344,0.2099,0.2598,0.3052,-1.3388,25.1038,-18.935,5.7730111307902225,-21.77613217454993,-0.005565525666304674,5.091000000014901
-0.3789,0.9384,0.1881,0.2099,0.2598,0.3052,-1.3388,25.1038,-18.935,8.505530150401622,-21.610754375859884,0.25682314067118545,5.100999999995111
-0.3789,0.9384,0.1881,0.2144,0.2619,0.2975,-4.2875,13.3787,-31.9638,10.758941577505723,-21.59892435024056,0.32738217013257864,5.105999999999767
-0.4088,0.9987,0.188,0.2144,0.2619,0.2975,-3.6312,21.4725,-27.2738,10.68390064356906,-21.899504019923086,0.5504914899126577,5.1159999999945285
-0.3624,1.027,-0.042,0.2144,0.2619,0.2975,-20.2038,6.44,-10.9637,-1.7165426037147953,-19.802753224121894,0.6225479666857657,5.126000000003842
-0.4635,0.9052,0.4063,0.2167,0.2645,0.3092,-20.2038,6.44,-10.9637,22.930135435559865,-24.233632424399495,0.6551031828550253,5.131000000008498
-0.469,0.7751,0.5674,0.2167,0.2645,0.3092,2.1088,25.6462,-3.745,32.39257024355298,-25.36529725370869,0.9162549224862339,5.14100000000326
-0.469,0.7751,0.2233,0.2201,0.2617,0.2867,22.8463,39.69,4.0687,16.745159402984676,-29.71856273932008,1.110460569250773,5.146000000007916
-0.5619,0.9431,0.2233,0.2201,0.2617,0.2867,-6.2737,38.5262,-3.2462,13.816982514271098,-29.98416297135612,1.4945707349512245,5.1560000000026776
-0.2976,0.751,-0.0095,0.2223,0.2642,0.292,-5.9675,38.5262,-3.2462,1.480362201883126,-24.216326327960058,1.8748397989946715,5.165999999997439
-0.1378,1.1255,-0.0886,0.2223,0.2642,0.292,-40.4863,32.6375,-24.8587,-4.3555876678447305,-7.805086758434635,2.024549721961614,5.1710000000020955
-0.3082,1.2145,0.0737,0.2223,0.2642,0.292,-21.98,-9.3013,-33.25,3.126371197503363,-13.991471145951218,1.926026746383005,5.180999999996857
-0.4466,0.8818,0.2573,0.225,0.2671,0.2937,-21.98,-9.3013,0.35,15.685443568310145,-24.176649227178288,1.867627739682724,5.186000000001513
-0.4466,0.8818,0.2573,0.225,0.2671,0.2937,-6.2562,-0.9187,1.0412,16.182248161459405,-25.695103973075476,1.8536617238834292,5.195999999996275
-0.2488,0.945,0.1695,0.2239,0.2671,0.2966,1.33,0.1838,-6.4225,12.393551579225438,-20.22958177441374,1.8429376124518708,5.201000000000931
-0.4488,0.9049,0.355,0.2239,0.2671,0.2966,11.7338,-2.4588,-14.455,20.731774706281225,-24.32737207833908,1.8139715079175391,5.2110000000102445
-0.5251,1.0091,0.0245,0.2239,0.2671,0.2966,11.7338,-2.4588,-14.455,2.8664662134517247,-27.168025298032365,1.7852950644438836,5.221000000005006
-0.2632,0.972,0.0335,0.2253,0.2662,0.2885,11.025,4.4538,0.9887,2.0459105768720938,-16.756323794434273,1.796391119542153,5.225999999995111
-0.2632,0.9368,0.1957,0.2253,0.2662,0.2885,-4.2438,7.56,1.8112,9.797107731935784,-15.543942261591145,1.8670765999002907,5.235999999989872
-0.335,0.9368,0.1957,0.2253,0.2668,0.2931,-9.835,-4.2875,-12.88,11.60814791147619,-18.846911288769924,1.819764975474614,5.245999999999185
-0.3943,0.9191,0.2512,0.2253,0.2668,0.2931,-9.835,-4.2875,-12.88,14.934671788787531,-22.04935619181667,1.772926467334872,5.255999999993946
-0.4074,0.9456,0.2125,0.2253,0.2668,0.2931,-2.345,-15.1812,-17.92,13.428922783439605,-22.74388990549242,1.6869529583979657,5.260999999998603
-0.4909,0.9706,0.1472,0.226,0.2686,0.2864,3.605,-5.7312,-11.5675,9.589000149368797,-26.029169337968625,1.627149940374001,5.271000000007916
-0.4021,0.9471,0.1957,0.226,0.2686,0.2864,3.57,8.3825,4.025,11.25279532306793,-22.905552649421168,1.6592745116744823,5.275999999998021
-0.4021,0.9471,0.1957,0.224,0.2639,0.2862,3.57,8.3825,4.025,11.589396730190341,-22.607749106749903,1.69107783740281,5.2810000000026776
-0.3181,0.9636,0.0874,0.224,0.2639,0.2862,1.715,11.6725,8.05,7.257414019380987,-18.502892757687,1.8035302007492606,5.291000000011991
-0.3196,0.9309,0.1947,0.224,0.2639,0.2862,-3.535,-2.6425,-7.105,10.718651215943558,-18.547717078915202,1.77313954036622,5.3009999999922
-0.3882,0.9442,0.1896,0.2263,0.267,0.2935,-2.3888,-13.2913,-17.6488,11.14351240985309,-21.695766445502244,1.696518905707713,5.305999999996857
-0.4425,0.9704,0.1521,0.2263,0.267,0.2935,-2.3888,-13.2913,-17.6488,9.649271085843921,-24.05760611846871,1.5617752383123364,5.315999999991618
-0.4425,0.9475,0.2117,0.2258,0.2671,0.2877,-0.5512,-8.2075,-13.055,10.09492751545243,-24.450779964842678,1.5124330566978048,5.320999999996275
-0.4403,0.9475,0.2117,0.2258,0.2671,0.2877,0.5163,4.2263,-0.8138,11.271544239583434,-24.40485599105097,1.5529544877826509,5.331000000005588
-0.3773,0.949,0.1674,0.2249,0.2654,0.2962,2.0125,7.3412,2.8,10.378304240452923,-21.70823268736474,1.6239082144595183,5.341000000000349
-0.3483,0.946,0.1601,0.2249,0.2654,0.2962,2.0125,7.3412,2.8,9.833884668673567,-20.14148726803896,1.650910768155195,5.346000000005006
-0.3655,0.9472,0.1657,0.2249,0.2654,0.2962,0.2713,1.085,-3.7362,9.868692814811723,-20.566110897160264,1.661403241230214,5.357000000003609
-0.3849,0.9536,0.156,0.2256,0.2665,0.2939,-1.5225,-6.895,-11.0775,9.559616373095421,-21.544720612294686,1.6066706329499567,5.364000000001397
-0.3849,0.9536,0.156,0.2256,0.2665,0.2939,-1.5225,-6.895,-11.7338,9.415831532868184,-21.695068331696145,1.5361488182489844,5.373999999996158
-0.4211,0.9553,0.1846,0.2264,0.2678,0.2959,-2.1263,-6.6062,-11.7338,10.38446545111225,-23.167931420425166,1.4949893358424682,5.379000000000815
-0.4077,0.9465,0.1932,0.2264,0.2678,0.2959,-1.1113,-0.9712,-5.9938,10.873901148500513,-23.06882152432141,1.4842299540879462,5.389000000010128
-0.3842,0.9489,0.1758,0.2264,0.2678,0.2959,0.5337,2.275,-2.1088,10.6942126848504,-22.020660384091663,1.487551600311119,5.394000000000233
-0.3779,0.9517,0.167,0.2259,0.265,0.2828,0.5337,2.275,-2.1088,10.341602548205444,-21.51218322048805,1.5090039758889768,5.403999999994994
-0.3695,0.9537,0.1567,0.2259,0.265,0.2828,1.0762,1.575,-3.0712,9.743491276876266,-21.09628522568728,1.5086128819437765,5.408999999999651
-0.3695,0.9537,0.1567,0.223,0.2663,0.2925,-0.5075,-2.1875,-5.5563,9.694534765722928,-21.081575214640488,1.4856758947284516,5.418999999994412
-0.375,0.9495,0.1564,0.223,0.2663,0.2925,-1.7413,-4.0075,-9.0037,9.49759365786383,-21.244509881851915,1.4449502773570748,5.429000000003725
-0.4019,0.9493,0.1807,0.223,0.2663,0.2925,-1.7413,-4.0075,-9.0037,10.237006273648971,-22.28760466421835,1.4175663453714578,5.434000000008382
-0.4039,0.9512,0.1861,0.2254,0.2667,0.2874,-1.82,-3.8412,-8.2513,10.729566933390746,-22.5340836503158,1.3791681935304325,5.444000000003143
-0.3935,0.9521,0.1726,0.2254,0.2667,0.2874,-0.0437,-1.19,-5.4163,10.617025695342539,-22.515743127973245,1.3674009031940677,5.4539999999979045
-0.3935,0.9521,0.1726,0.2253,0.2668,0.2895,0.175,0.8313,-3.1762,10.496024157181022,-22.247353837370426,1.364744524972388,5.459000000002561
-0.3838,0.9508,0.1649,0.2253,0.2668,0.2895,0.175,0.8313,-3.1762,10.26349120634616,-21.858726496815216,1.3731323413111205,5.4689999999973224
-0.3714,0.9521,0.1628,0.2253,0.266,0.289,0.0525,0.5512,-3.605,10.096267013228873,-21.321167751824976,1.369032153706979,5.474000000001979
-0.3753,0.9507,0.1696,0.2243,0.266,0.289,-1.4088,-2.3187,-6.3,10.105731264181452,-21.283035916517186,1.3461920937747023,5.48399999999674
-0.3924,0.95,0.1812,0.2243,0.266,0.289,-1.5488,-4.1125,-8.1112,10.480226576835465,-21.864592807232654,1.305821814411895,5.494000000006054
-0.4002,0.9528,0.1737,0.2257,0.2673,0.2905,-1.5488,-4.1125,-8.1112,10.400032109429189,-22.290320948495886,1.2793094170944026,5.498999999996158
-0.4002,0.9528,0.1737,0.2257,0.2673,0.2905,-0.7875,-2.555,-7.0262,10.380044504688248,-22.388373946523757,1.2550272145127583,5.5090000000054715
-0.3991,0.9515,0.173,0.2257,0.2657,0.2895,0.07,0.2975,-4.3925,10.35696150456987,-22.40722977764322,1.2508522631754309,5.514000000010128
-0.3812,0.949,0.1687,0.2257,0.2657,0.2895,0.1925,0.7613,-3.9288,10.256905385590015,-21.90516127580222,1.2596860021324958,5.524000000004889
-0.3751,0.9513,0.1766,0.2257,0.2657,0.2895,0.1925,0.7613,-3.9288,10.350745191333273,-21.47226826434841,1.2684314036999902,5.533999999999651
-0.3831,0.9485,0.1695,0.225,0.2662,0.2898,-0.3413,-1.47,-5.88,10.344039311967263,-21.53415654184753,1.25537328546373,5.5389999999897555
-0.3831,0.9485,0.1851,0.225,0.2662,0.2898,-0.9363,-3.0712,-7.8138,10.595736138242325,-21.597534615804477,1.2262200641936334,5.548999999999069
-0.3925,0.952,0.175,0.2254,0.2662,0.292,-0.9363,-3.0712,-6.86,10.530976874436018,-21.8741898993046,1.2056581193439673,5.554000000003725
-0.3946,0.952,0.1731,0.2254,0.2662,0.292,-0.77,-2.4237,-6.86,10.466856772167223,-22.055922715549254,1.1834122997558654,5.563999999998487
-0.3936,0.9506,0.1726,0.2254,0.2662,0.292,-0.1838,-0.84,-5.0487,10.438896466751274,-22.08811413430817,1.174322872560863,5.569000000003143
-0.3817,0.9499,0.1693,0.2243,0.2667,0.2991,0.2013,-0.105,-4.515,10.317347771144622,-21.84249560564218,1.1753455354285667,5.5789999999979045
-0.3812,0.9506,0.1665,0.2243,0.2667,0.2991,0.2013,-0.105,-4.515,10.177779923843946,-21.70196438483944,1.1699750258802257,5.584000000002561
-0.3812,0.9506,0.1665,0.2252,0.2674,0.2918,-0.1838,-1.3913,-5.4338,10.139123333941448,-21.69764361207275,1.1583225580214216,5.599000000001979
-0.3869,0.9508,0.1733,0.2252,0.2674,0.2918,-0.7613,-1.9162,-6.6413,10.192453211326505,-21.762437503738347,1.1441568382463183,5.603999999992084
-0.3928,0.9497,0.1749,0.2252,0.2674,0.2918,-0.8575,-1.8463,-6.4662,10.271578089564622,-21.948795171320157,1.1282422914596892,5.614000000001397
-0.3912,0.9529,0.1727,0.2277,0.2662,0.2961,-0.8575,-1.8463,-6.4662,10.271900734384598,-21.97268574426219,1.1147233793495186,5.618999999991502
-0.3927,0.9517,0.1694,0.2277,0.2662,0.2961,-0.7962,-1.6888,-5.9062,10.218633430408403,-22.014548849123397,1.10066241715331,5.629000000000815
-0.3927,0.9517,0.1735,0.2282,0.267,0.2906,-0.63,-1.225,-5.2937,10.241789342755006,-22.026126834931517,1.0904947387825583,5.6340000000054715
-0.3875,0.9488,0.1735,0.2282,0.267,0.2906,0.0613,-0.91,-5.1275,10.27841416244891,-21.99129564893196,1.08438618299222,5.644000000000233
-0.3816,0.949,0.1671,0.2282,0.2662,0.2878,0.0613,-0.91,-5.1275,10.189967917751957,-21.89389713719352,1.0783387127667645,5.654000000009546
-0.3856,0.9523,0.1728,0.2269,0.2662,0.2878,-0.35,-1.3563,-5.95,10.19209146676522,-21.837914269479242,1.067744336438723,5.658999999999651
-0.3904,0.9529,0.1726,0.2269,0.2662,0.2878,-0.35,-1.9863,-6.405,10.193764470022407,-21.89525596009383,1.0512079146774052,5.668999999994412
-0.3912,0.9513,0.173,0.2287,0.2658,0.2926,-0.0962,-1.8288,-5.9062,10.218300487266392,-21.935907832076982,1.0385459713286287,5.673999999999069
-0.3912,0.9513,0.173,0.2287,0.2658,0.2926,-0.0962,-1.8288,-5.9062,10.23751843667753,-21.964092303240815,1.0238607832175948,5.68399999999383
-0.3877,0.949,0.1756,0.227,0.2668,0.2916,-0.3675,-1.3388,-5.3637,10.238844155399166,-21.956994346341872,1.0141734469859323,5.694000000003143
-0.3861,0.9498,0.1697,0.227,0.2668,0.2916,-0.3762,-0.8662,-5.2413,10.238489072738167,-21.930196610505245,1.0066467183108976,5.698999999993248
-0.3844,0.9504,0.1742,0.227,0.2668,0.2916,-0.385,-1.3737,-5.6525,10.240255421451847,-21.892762593514597,0.9967860127279802,5.709000000002561
-0.3897,0.9531,0.1688,0.2266,0.2665,0.2913,-0.385,-1.3737,-5.6525,10.237905351132623,-21.898711758909737,0.9869210334007962,5.714000000007218
-0.3897,0.9531,0.1731,0.2266,0.2665,0.2913,-0.6825,-2.0125,-6.3875,10.251103572577398,-21.906383473437078,0.9709334646699934,5.724000000001979
-0.3888,0.9534,0.1731,0.2267,0.2674,0.291,-0.8662,-1.7237,-6.2213,10.264139566354674,-21.88760935881324,0.9595945108217758,5.729000000006636
-0.3909,0.9496,0.1701,0.2267,0.2674,0.291,-0.8662,-1.7237,-5.7137,10.22827741381549,-21.92160555364899,0.9467393273152654,5.739000000001397
-0.3858,0.9518,0.1717,0.2267,0.2674,0.291,0.0088,-1.54,-5.7137,10.227619525256959,-21.886699336492914,0.9358313256428674,5.748999999996158
-0.387,0.9494,0.1696,0.227,0.2661,0.2966,0.0,-1.33,-5.1887,10.200677277691536,-21.881861922011808,0.926792208186736,5.754000000000815
-0.3884,0.9513,0.1678,0.227,0.2661,0.2966,-0.4375,-1.4262,-5.4425,10.188717517122365,-21.88232241302304,0.9172102977050332,5.763999999995576
-0.3884,0.9513,0.1678,0.2251,0.2677,0.2868,-0.4375,-1.4262,-5.4425,10.177483222371055,-21.88277327806562,0.9077242063276904,5.774000000004889
-0.3861,0.9506,0.1721,0.2251,0.2677,0.2868,-0.0962,-1.5137,-5.8187,10.195775360712354,-21.857160460071746,0.8980568450638639,5.779000000009546
-0.3881,0.9516,0.1726,0.2251,0.2677,0.2868,-0.5425,-1.4088,-6.1687,10.208055408907633,-21.86048177249792,0.8889345482132994,5.789000000004307
-0.3875,0.9512,0.1726,0.2244,0.2644,0.2864,-0.56,-1.4875,-5.5912,10.220134528753356,-21.858464527283505,0.8795847735307376,5.794000000008964
-0.3894,0.9521,0.1705,0.2244,0.2644,0.2864,-0.56,-1.4875,-5.5912,10.20952098423243,-21.86643732015318,0.8698680673972526,5.803999999989173
-0.3894,0.9529,0.1746,0.2251,0.2675,0.2913,-0.105,-1.1638,-5.8012,10.246207731343677,-21.874382055131854,0.863453158325407,5.813999999998487
-0.387,0.9529,0.1746,0.2251,0.2675,0.2913,-0.2537,-1.155,-5.6,10.260794001793387,-21.86254788774194,0.856004072543257,5.819000000003143
-0.3848,0.9503,0.1702,0.2254,0.2667,0.284,-0.4462,-1.12,-5.53,10.253509126842415,-21.854408288038254,0.8501614234164009,5.8289999999979045
-0.3908,0.9506,0.1695,0.2254,0.2667,0.284,-0.4462,-1.12,-5.53,10.243715962053754,-21.86557729246096,0.8430185049835022,5.834000000002561
-0.3877,0.9514,0.171,0.2254,0.2667,0.284,-0.5863,-1.3212,-5.635,10.234142034476205,-21.863977290710256,0.835313831533287,5.8439999999973224
-0.3857,0.9511,0.1677,0.2254,0.2655,0.2937,-0.5337,-1.7413,-6.055,10.201674488667646,-21.829165689816143,0.8235272148147563,5.854000000006636
-0.3857,0.9511,0.1677,0.2254,0.2655,0.2937,-0.4812,-1.82,-6.265,10.181945150479281,-21.80297238743941,0.8131856384646471,5.859000000011292
-0.3858,0.9511,0.1701,0.2266,0.2649,0.2928,-0.4812,-1.82,-6.265,10.177836599285705,-21.786892236239044,0.8008411736883376,5.868999999991502
-0.389,0.95,0.172,0.2266,0.2649,0.2928,-0.2887,-1.7325,-5.8362,10.184404167741256,-21.829964148193206,0.7898210393896233,5.877999999996973
-0.3872,0.9515,0.172,0.2266,0.2649,0.2928,-0.7175,-1.68,-5.6788,10.200329416326406,-21.82881220105951,0.7796615422752664,5.885999999998603
-0.3877,0.9508,0.1698,0.2242,0.2678,0.2874,-0.7,-1.7938,-6.1337,10.181888143082013,-21.845763234770462,0.7687023441318694,5.894000000000233
-0.3877,0.9515,0.1719,0.2242,0.2678,0.2874,-0.7,-1.7938,-6.1337,10.196386865637386,-21.847200433275617,0.7578527379699065,5.902000000001863
-0.3899,0.9515,0.1719,0.223,0.2675,0.2926,-0.595,-1.61,-5.9412,10.204442216707545,-21.88415345791903,0.7489940455483941,5.908000000010361
-0.3869,0.9492,0.1731,0.223,0.2675,0.2926,-0.7175,-1.19,-5.4687,10.237931472948008,-21.883990758429526,0.742516300890907,5.913000000000466
-0.3881,0.9493,0.1701,0.223,0.2675,0.2926,-0.7175,-1.19,-5.8362,10.217631340097547,-21.893966787084295,0.7371155294809375,5.922999999995227
-0.385,0.95,0.1725,0.2239,0.2664,0.2965,-0.7088,-1.085,-5.8362,10.236223418641782,-21.852001045806137,0.732808265784523,5.932999999989988
-0.3879,0.9507,0.1722,0.2239,0.2664,0.2965,-0.5688,-1.3388,-5.845,10.241208176372009,-21.858235205165684,0.7257558189269345,5.937999999994645
-0.3879,0.9507,0.1722,0.226,0.2663,0.2834,-0.4638,-1.4,-6.02,10.243328180197679,-21.864080715868727,0.7184436523376143,5.948000000003958
-0.3861,0.9534,0.1715,0.226,0.2663,0.2834,-0.4638,-1.4,-6.02,10.239506610764025,-21.81650743060093,0.7112046074142668,5.957999999998719
-0.3893,0.9494,0.1721,0.226,0.2663,0.2834,-0.2625,-1.715,-6.5188,10.242993648779434,-21.896716208905907,0.7025060071386466,5.963000000003376
-0.3858,0.9519,0.1708,0.2266,0.2639,0.2936,-0.5688,-1.5575,-5.7488,10.231426146139592,-21.86378866869373,0.6938670886681055,5.972999999998137
-0.3866,0.9504,0.1726,0.2266,0.2639,0.2936,-0.63,-1.5575,-5.5125,10.244053914536744,-21.861420736793836,0.6853145593799215,5.983000000007451
-0.3866,0.9506,0.172,0.2246,0.266,0.2954,-0.63,-1.5575,-5.5125,10.246505449513927,-21.85907744526858,0.6776544845853707,5.988000000012107
-0.3894,0.9506,0.172,0.2246,0.266,0.2954,-0.6475,-1.1988,-5.7225,10.248559794599545,-21.87856564501849,0.672815211335683,5.997999999992317
-0.3873,0.9516,0.1759,0.225,0.2656,0.2938,0.0875,-1.4963,-5.9325,10.319229608855412,-21.857392913259403,0.6655830700218568,6.002999999996973
-0.3865,0.9509,0.1684,0.225,0.2656,0.2938,0.0263,-1.6013,-6.0025,10.240328711668836,-21.84175959671058,0.6568797609197313,6.013000000006286
-0.3899,0.9517,0.1715,0.225,0.2656,0.2938,0.0263,-1.6013,-6.0025,10.233183651653595,-21.882796460543172,0.6482634849116067,6.023000000001048
-0.3883,0.9501,0.1768,0.2244,0.2659,0.2938,-0.2887,-1.7237,-5.6613,10.257122632223055,-21.883997674775806,0.6401512308609729,6.028000000005704
-0.3883,0.9501,0.1768,0.2244,0.2659,0.2938,-0.4812,-1.5925,-5.9412,10.284891237285859,-21.885963373073835,0.6317893601533902,6.038000000000466
-0.3887,0.9494,0.1665,0.2254,0.2667,0.2938,-0.56,-1.3038,-5.8538,10.23164660597512,-21.907393941690028,0.6259203523522743,6.043000000005122
-0.3876,0.9518,0.1734,0.2254,0.2667,0.2938,-0.56,-1.3038,-5.8538,10.246354621077366,-21.88644579940661,0.6205589204295876,6.0530000000144355
-0.385,0.9514,0.1713,0.2254,0.2667,0.2938,-0.2887,-1.1375,-5.8888,10.243279918228644,-21.83548218962224,0.6168974728202566,6.062999999994645
-0.3865,0.9514,0.1767,0.2256,0.2646,0.291,-0.0787,-1.3475,-5.7575,10.306517969430816,-21.82116637937606,0.6109610688922706,6.0679999999993015
-0.3871,0.9501,0.1703,0.2256,0.2646,0.291,-0.2537,-1.7325,-5.8275,10.291126355813562,-21.829582659227437,0.6015050998051009,6.077999999994063
-0.3871,0.9501,0.1703,0.224,0.2656,0.2929,-0.2537,-1.7325,-5.8275,10.277374315455909,-21.835754536066343,0.5938168696054916,6.082999999998719
-0.3889,0.9505,0.1727,0.224,0.2656,0.2929,-0.28,-1.715,-5.7663,10.279123755955256,-21.85714117050903,0.5847055925064815,6.093000000008033
-0.3877,0.9519,0.1721,0.224,0.2656,0.2929,-0.385,-1.7675,-5.6613,10.278754304921423,-21.854407736625472,0.5770121073850708,6.097999999998137
-0.3878,0.9496,0.1713,0.2254,0.266,0.2871,-0.385,-1.7675,-5.7925,10.27812142206558,-21.864444677737,0.5675491279077808,6.108000000007451
-0.3877,0.9507,0.1715,0.2254,0.266,0.2871,-0.3413,-1.54,-5.7925,10.27651767454496,-21.86505918967841,0.5604330282294576,6.118000000002212
-0.3877,0.9507,0.1715,0.224,0.2664,0.2998,-0.5075,-1.3475,-5.8888,10.270502430945168,-21.86561680525626,0.5550612687467028,6.122999999992317
-0.3869,0.9517,0.17,0.224,0.2664,0.2998,-0.21,-1.4175,-5.845,10.250509624205433,-21.85063775965625,0.5492827976590235,6.13300000000163
-0.3861,0.95,0.1756,0.224,0.2664,0.2938,-0.21,-1.4175,-5.845,10.281606037648595,-21.83229521617088,0.5436760404826588,6.1379999999917345
-0.3899,0.9501,0.1686,0.2237,0.2663,0.2938,-0.3237,-1.6013,-5.9675,10.271334727003316,-21.88910964726367,0.5361918016759254,6.148000000001048
-0.3899,0.9518,0.1722,0.2237,0.2663,0.2938,-0.7875,-1.5225,-5.985,10.266560160446302,-21.911479668275916,0.52956252525983,6.157999999995809
-0.3889,0.9499,0.1737,0.225,0.2658,0.2924,-0.7525,-1.3038,-5.7838,10.293009991943482,-21.91749573984667,0.5247157858076498,6.163000000000466
-0.3889,0.9499,0.1737,0.225,0.2658,0.2924,-0.7525,-1.3038,-5.7838,10.312182427167913,-21.922053542468557,0.5203663995504093,6.173000000009779
-0.3873,0.9528,0.1725,0.2248,0.2662,0.2976,-0.7875,-1.5313,-5.8275,10.297468517529637,-21.889667286939538,0.5144854963562455,6.177999999999884
-0.3872,0.9503,0.1715,0.2248,0.2662,0.2976,-0.315,-1.8813,-5.6262,10.293775434904335,-21.88404978512281,0.5045211629881946,6.188000000009197
-0.3895,0.9522,0.1729,0.2248,0.2662,0.2976,-0.07,-1.33,-5.7925,10.293271532872627,-21.89377906939427,0.4997951471576809,6.1929999999993015
-0.3887,0.947,0.1726,0.2263,0.2646,0.3035,-0.07,-1.33,-5.7925,10.301656345777412,-21.91732119899914,0.49543558728576964,6.202999999994063
-0.3887,0.947,0.1726,0.2263,0.2646,0.3035,-0.1138,-1.2163,-5.9237,10.307352724171817,-21.939885405534742,0.49224525301455485,6.213000000003376
-0.3873,0.952,0.1737,0.2251,0.2661,0.2914,-0.2625,-1.47,-5.5912,10.310631821452937,-21.925472372420636,0.4869489962851491,6.217999999993481
-0.3863,0.9507,0.1706,0.2251,0.2661,0.2914,-0.0787,-1.33,-5.845,10.279403414851387,-21.89047023002114,0.48271789792289216,6.228000000002794
-0.3889,0.952,0.1702,0.2251,0.2661,0.2914,-0.0787,-1.33,-5.845,10.246879051924996,-21.894936101573926,0.47820991474396046,6.233000000007451
-0.3894,0.9495,0.1676,0.2246,0.2658,0.2953,-0.0525,-1.1113,-5.5475,10.189490711767945,-21.902441463864356,0.4762313371950522,6.243000000002212
-0.388,0.9513,0.1787,0.2246,0.2658,0.2953,0.21,-1.3475,-5.6262,10.354999216062975,-21.894204822663,0.47193416542353483,6.253000000011525
-0.388,0.9513,0.1787,0.2247,0.2666,0.2922,-0.105,-1.3038,-6.055,10.414995834557688,-21.875355991435065,0.4676637095684111,6.25800000000163
-0.3875,0.95,0.1737,0.2247,0.2666,0.2922,-0.105,-1.3038,-6.055,10.403718167226932,-21.87068047500903,0.4638848440722566,6.267999999996391
-0.3898,0.9515,0.1694,0.2247,0.2666,0.2922,-0.105,-1.5575,-6.1512,10.338454849641181,-21.909322673461027,0.4576321372323795,6.277999999991152
-0.3884,0.9516,0.1708,0.2262,0.2644,0.2871,-0.4988,-1.7325,-6.1775,10.320237266377546,-21.900047322209225,0.4497094574569392,6.288000000000466
-0.3891,0.9515,0.1732,0.2262,0.2644,0.2871,-0.4988,-1.7325,-6.1775,10.31981986663455,-21.90669906787009,0.4435391836808115,6.293000000005122
-0.3891,0.9515,0.1576,0.225,0.2658,0.2918,-0.175,-1.4875,-5.9938,10.168621514141284,-21.928956753908146,0.4381829334444858,6.302999999999884
-0.3852,0.952,0.1716,0.225,0.2658,0.2918,-0.2625,-1.4787,-5.9325,10.173528294827907,-21.859939948270107,0.43338423490965267,6.30800000000454
-0.387,0.9524,0.1712,0.225,0.2654,0.2898,-0.3325,-1.7587,-5.4513,10.174185923216045,-21.859172785253733,0.4272475233588771,6.313000000009197
-0.3861,0.9513,0.1713,0.2261,0.2654,0.2898,-0.3325,-1.7587,-5.4513,10.175492877826008,-21.858114788603014,0.4193693097271773,6.323000000003958
-0.389,0.9523,0.1699,0.2261,0.2654,0.2898,-0.3938,-1.5313,-5.6962,10.17427051884831,-21.867289826301175,0.4144983774312458,6.327999999994063
-0.3857,0.9507,0.1722,0.2247,0.2662,0.2924,-0.8138,-1.6712,-5.9412,10.20253863915481,-21.833317455399715,0.40761390525438196,6.338000000003376
-0.3857,0.9507,0.1722,0.2247,0.2662,0.2924,-0.8225,-1.3388,-6.1337,10.222424417862854,-21.8047685783103,0.40408903780154937,6.347999999998137
-0.3891,0.9531,0.1696,0.2237,0.2654,0.2956,-0.8225,-1.3388,-6.1337,10.18132954238381,-21.84169207823944,0.4003237832237906,6.353000000002794
-0.3863,0.9493,0.1743,0.2237,0.2654,0.2956,-0.3063,-1.2163,-6.1775,10.195246628622401,-21.829869847715486,0.39808456699062855,6.362999999997555
-0.3895,0.9509,0.1687,0.2237,0.2654,0.2956,-0.2975,-1.3388,-5.6875,10.185776553251879,-21.854551948085927,0.3946549929212357,6.3730000000068685
-0.3879,0.9514,0.1735,0.2244,0.2662,0.2872,-0.35,-1.435,-5.9237,10.189121838521645,-21.854919644961445,0.3905078887918365,6.378000000011525
-0.3879,0.9514,0.172,0.2244,0.2662,0.2872,-0.35,-1.435,-5.9237,10.190432361691814,-21.85689987835074,0.3862017015041283,6.388000000006286
-0.3884,0.952,0.172,0.2243,0.2658,0.2921,-0.49,-1.4963,-6.0113,10.195761350035362,-21.863171380663974,0.38183569529008443,6.392999999996391
-0.3836,0.9511,0.1697,0.2243,0.2658,0.2921,-0.4375,-1.6975,-5.775,10.190955867805934,-21.813922507027637,0.3750174799387551,6.402999999991152
-0.3873,0.9513,0.1696,0.2243,0.2658,0.2921,-0.4288,-1.6538,-6.1337,10.186598714182708,-21.824891494918138,0.36870007673697663,6.413000000000466
-0.3849,0.9506,0.1726,0.2259,0.2654,0.2896,-0.4288,-1.6538,-6.1337,10.192126464010174,-21.783524014663286,0.3637294617684114,6.418000000005122
-0.385,0.9532,0.1684,0.2259,0.2654,0.2896,-0.91,-1.9338,-5.7312,10.131616981408259,-21.76376425161749,0.3547529387535243,6.427999999999884
-0.385,0.9532,0.1684,0.2253,0.2648,0.2878,-0.6562,-1.6625,-6.0725,10.106746888773442,-21.73579971631107,0.34987873016475346,6.43300000000454
-0.387,0.9496,0.1756,0.2253,0.2648,0.2878,0.2625,-1.9075,-6.2475,10.250520375794313,-21.780805438549283,0.34130108446576657,6.4429999999993015
-0.392,0.951,0.1737,0.2253,0.2648,0.2878,0.2625,-1.9075,-6.2475,10.28954710924797,-21.908757042348885,0.33280921521637885,6.453000000008615
-0.387,0.9494,0.1754,0.2246,0.2654,0.2993,-0.0875,-1.3475,-5.8625,10.3290101584548,-21.890017813147008,0.32971369386375476,6.457999999998719
-0.3908,0.9507,0.1706,0.2246,0.2654,0.2993,-0.2013,-1.3737,-5.6613,10.30619603831579,-21.91283500154313,0.3266223185250094,6.467999999993481
-0.3908,0.9507,0.1731,0.2246,0.2662,0.2867,-0.2013,-1.3737,-5.6788,10.308095817365565,-21.93165784203144,0.32345897613985514,6.472999999998137
-0.385,0.9498,0.1731,0.2246,0.2662,0.2867,-0.2013,-1.645,-5.6788,10.311118828374816,-21.897947892485533,0.31774427797975585,6.482999999992899
-0.3869,0.9512,0.1688,0.2259,0.2672,0.2915,-0.1138,-1.4262,-5.6175,10.260046480503657,-21.888326958861043,0.3142528467996658,6.493000000002212
-0.3859,0.9521,0.174,0.2259,0.2672,0.2915,-0.2187,-1.435,-5.775,10.272965807365185,-21.852584594297504,0.31090976413148236,6.4980000000068685
-0.3901,0.9497,0.1732,0.2259,0.2672,0.2915,-0.2187,-1.435,-5.775,10.281339625681818,-21.888384956669203,0.30739955809037767,6.50800000000163
-0.39,0.9492,0.174,0.2255,0.2661,0.288,-0.3938,-1.5313,-6.1075,10.283514392017768,-21.934253126129388,0.30364832330884317,6.513000000006286
-0.39,0.9492,0.174,0.2255,0.2661,0.288,-0.5337,-1.6538,-5.7838,10.297943454464052,-21.951526861773857,0.2980446116770996,6.523000000001048
-0.3868,0.9507,0.1725,0.2254,0.2675,0.2912,-0.5512,-1.7938,-5.6875,10.295858211264576,-21.926993329564144,0.2911109371623996,6.532999999995809
-0.3882,0.95,0.1703,0.2254,0.2675,0.2912,-0.5512,-1.7938,-5.6875,10.275767861605452,-21.92406571923728,0.2862232135889347,6.538000000000466
-0.3869,0.9511,0.1721,0.2254,0.2675,0.2912,-0.245,-1.4787,-5.7312,10.273593660836283,-21.901229994602776,0.2825272430534821,6.547999999995227
-0.3869,0.9512,0.172,0.2259,0.2661,0.2877,-0.1838,-1.3913,-5.67,10.269795013822467,-21.886349480998568,0.27971773142296197,6.552999999999884
-0.3869,0.9513,0.1738,0.2259,0.2661,0.2877,-0.3413,-1.54,-6.0813,10.27236402820855,-21.855514567523997,0.27547994570948703,6.562999999994645
-0.3869,0.9513,0.1738,0.2257,0.266,0.2917,-0.3413,-1.54,-6.0813,10.274854290538704,-21.836450662318537,0.2712845378510505,6.573000000003958
-0.3898,0.9492,0.1706,0.2257,0.266,0.2917,-0.4375,-1.47,-5.7488,10.269646783279468,-21.874456750897927,0.2681978882721919,6.578000000008615
-0.3908,0.9516,0.1709,0.2257,0.266,0.2917,-0.3237,-1.4612,-5.6087,10.265504078429409,-21.89148555747115,0.26485542098981596,6.588000000003376
-0.3844,0.9484,0.1721,0.2221,0.2682,0.2874,-0.28,-1.3212,-5.4075,10.26717654271043,-21.88352094775634,0.26278727606003605,6.596000000005006
-0.3894,0.9514,0.1692,0.2221,0.2682,0.2874,-0.28,-1.3212,-5.4075,10.251621852776475,-21.886954475867604,0.26088491489905563,6.605999999999767
-0.3894,0.9514,0.1692,0.2257,0.2662,0.2846,-0.1838,-1.5313,-5.7225,10.224999099809555,-21.89947591335484,0.2575988265494344,6.611000000004424
-0.3875,0.951,0.1733,0.2257,0.2662,0.2846,-0.3588,-1.6363,-6.1687,10.226428646178157,-21.8765767168596,0.2526288598851941,6.620999999999185
-0.3915,0.9507,0.1736,0.2257,0.2662,0.305,-0.2537,-1.4612,-5.81,10.239413944666886,-21.921951896861867,0.24977232708603458,6.626000000003842
-0.3851,0.9507,0.1737,0.227,0.2671,0.2906,-0.2537,-1.4612,-5.81,10.25163725915991,-21.87155887094785,0.24661411541552025,6.635999999998603
-0.3892,0.9503,0.1701,0.227,0.2671,0.2906,-0.5337,-1.5575,-6.1075,10.237317399186047,-21.904900914027408,0.2425341158622105,6.645999999993364
-0.3885,0.9499,0.1731,0.2252,0.2656,0.294,-0.2362,-1.33,-5.6788,10.24818480101269,-21.907234089383376,0.24042797050388565,6.650999999998021
-0.3885,0.9499,0.1731,0.2252,0.2656,0.294,-0.2362,-1.33,-5.95,10.257745082863552,-21.91078481877743,0.23866208239851233,6.660999999992782
-0.389,0.9508,0.1698,0.2254,0.2666,0.2912,-0.1488,-1.4612,-5.95,10.23353350708157,-21.919509142234297,0.23594521737421964,6.665999999997439
-0.3888,0.9545,0.1708,0.2254,0.2666,0.2912,-0.35,-1.47,-5.8538,10.231554788022102,-21.899740997572362,0.23283815679978118,6.676000000006752
-0.3892,0.9509,0.1774,0.2254,0.2666,0.2912,-0.4638,-1.3212,-5.7838,10.259551138182267,-21.904071745316454,0.23123528683140326,6.686000000001513
-0.3865,0.9481,0.1742,0.2254,0.2661,0.2915,-0.4638,-1.3212,-5.7838,10.272181923337328,-21.89050751175087,0.2292856897634271,6.69100000000617
-0.3865,0.9481,0.1742,0.2254,0.2661,0.2915,-0.4638,-1.5925,-5.6525,10.283760494279452,-21.883779047338493,0.22503247446681976,6.701000000000931
-0.3867,0.9512,0.1724,0.2242,0.2669,0.2917,-0.5163,-1.61,-5.5912,10.282416055890417,-21.874596480265055,0.22171534552426284,6.705999999991036
-0.3877,0.9506,0.1694,0.2242,0.2669,0.2917,-0.5075,-1.5925,-5.7312,10.261280386917703,-21.875008322355107,0.21753783366719448,6.716000000000349
-0.3872,0.9507,0.1707,0.2242,0.2669,0.2917,-0.5075,-1.5925,-5.7312,10.251533134986415,-21.868527381959012,0.21438227612960967,6.721000000005006
-0.3847,0.9509,0.1742,0.2246,0.2664,0.2922,-0.6388,-1.61,-5.9675,10.27876372979344,-21.81196846286019,0.2101048449694313,6.730999999999767
-0.3894,0.9504,0.1699,0.2246,0.2664,0.2922,-0.5512,-1.575,-5.985,10.25709080043382,-21.864606619235154,0.2071102423189048,6.736000000004424
-0.3894,0.9504,0.1699,0.2254,0.266,0.2928,-0.3675,-1.6538,-5.8012,10.256434964562061,-21.890085101878814,0.20247191149706062,6.745999999999185
-0.3863,0.9519,0.1759,0.2254,0.266,0.2928,-0.3675,-1.6538,-5.8012,10.25758434399395,-21.856047738697317,0.1978799639796991,6.756000000008498
-0.3889,0.9491,0.1688,0.2254,0.266,0.2928,-0.0875,-1.8375,-5.6525,10.219209131843145,-21.874199530819723,0.19370823513785976,6.761000000013155
-0.3904,0.9498,0.1764,0.2237,0.2652,0.2851,-0.0962,-1.5225,-6.0813,10.284682486976854,-21.924047196064237,0.19050379438898932,6.770999999993364
-0.3895,0.9496,0.1701,0.2237,0.2652,0.2851,-0.2537,-1.3038,-5.8713,10.270929510020633,-21.942044267110067,0.1894965280459355,6.7810000000026776
-0.3895,0.9496,0.1857,0.2263,0.2661,0.2932,-0.2537,-1.3038,-5.8713,10.35550590426205,-21.937729744117284,0.18805044856458777,6.785999999992782
-0.3876,0.9513,0.1726,0.2263,0.2661,0.2932,-0.6388,-1.7325,-5.6613,10.340412614553596,-21.92255747272177,0.18282358567582535,6.7960000000020955
-0.3888,0.951,0.1739,0.2058,0.2677,0.2954,-0.0613,-1.33,-6.02,10.345690133022448,-21.917437995517872,0.18163374141873265,6.805999999996857
-0.3859,0.9506,0.1724,0.2251,0.2677,0.2954,-0.2362,-1.0325,-5.8625,10.337715017051751,-21.876457574543696,0.18160922480621408,6.811000000001513
-0.3876,0.949,0.1737,0.2251,0.2677,0.2954,-0.2362,-1.0325,-5.8625,10.34187570303004,-21.879767906868228,0.18337677416148945,6.821000000010827
-0.3882,0.9523,0.1731,0.2248,0.2672,0.2998,-0.2537,-1.4088,-6.2213,10.337649206292976,-21.868822586897295,0.1814012780199488,6.831000000005588
-0.3882,0.9523,0.1731,0.2248,0.2672,0.2998,0.3063,-1.3475,-5.7838,10.32331012787123,-21.86531991767466,0.17981983603928903,6.835999999995693
-0.386,0.9503,0.1708,0.2255,0.2657,0.2983,0.3063,-1.4525,-5.8362,10.269039832683527,-21.845052464022192,0.17773445847862868,6.841000000000349
-0.3911,0.9515,0.1717,0.2255,0.2657,0.2983,0.0613,-1.4525,-5.8362,10.256933203551572,-21.89345169433415,0.17538275549414328,6.850999999995111
-0.3897,0.9484,0.1749,0.2255,0.2657,0.2983,-0.1663,-1.9162,-5.6613,10.289797902421528,-21.911527689757502,0.1710464337367967,6.855999999999767
-0.3898,0.9513,0.1703,0.2258,0.2676,0.2968,-0.5075,-1.7938,-5.5213,10.273153835886745,-21.91450546725315,0.16538274100149972,6.8659999999945285
-0.3898,0.9513,0.1737,0.2258,0.2676,0.2968,-0.5075,-1.7938,-5.5213,10.282004530936339,-21.916645899200287,0.15977568518780297,6.876000000003842
-0.3882,0.9495,0.1737,0.2252,0.265,0.2919,-0.5863,-1.645,-5.6087,10.29694482681097,-21.91563234746689,0.15693787413477003,6.881000000008498
-0.3886,0.9504,0.175,0.2252,0.265,0.2919,-0.4288,-1.33,-5.4338,10.304154213432406,-21.915353190662643,0.15600688699308787,6.89100000000326
-0.3873,0.9521,0.1723,0.2252,0.265,0.2919,-0.6562,-1.505,-6.2562,10.2939014203786,-21.871166086840798,0.1538997639226475,6.896000000007916
-0.3876,0.952,0.1737,0.2274,0.2664,0.2848,-0.6562,-1.505,-6.2562,10.30414968117075,-21.85190848111442,0.15126665788558633,6.905999999988126
-0.3872,0.9531,0.1702,0.2274,0.2664,0.2848,-0.665,-1.54,-6.2737,10.263625397884093,-21.82769105404858,0.14831338290538879,6.915999999997439
-0.3872,0.9531,0.1702,0.2266,0.2669,0.2922,-0.3675,-1.4088,-5.775,10.262876901160977,-21.820594609068266,0.1467593848762689,6.9210000000020955
-0.3858,0.9515,0.1709,0.2266,0.2669,0.2922,-0.14,-1.5313,-6.0287,10.24767159139795,-21.797243416803664,0.14393731262821577,6.930999999996857
-0.3877,0.9503,0.1708,0.2266,0.2669,0.2922,-0.14,-1.5313,-6.0287,10.236613688869046,-21.8262300546116,0.14114346110067214,6.94100000000617
-0.3861,0.9512,0.1673,0.2247,0.2666,0.2942,-0.56,-1.5575,-5.775,10.195437313224522,-21.817666880062436,0.13892509729126234,6.945999999996275
-0.3856,0.9522,0.1758,0.2247,0.2666,0.2942,-0.1488,-1.6275,-5.8975,10.243957606926205,-21.786240196884403,0.13522898791620128,6.956000000005588
-0.3856,0.9511,0.1676,0.2257,0.2669,0.2976,-0.2275,-1.1287,-6.1425,10.212208701078023,-21.77786161705448,0.13519232883826454,6.9610000000102445
