AcclX,AcclY,AcclZ,MagX,MagY,MagZ,GyroX,GyroY,GyroZ,Roll,Pitch,Yaw,Time Elapsed(s)
-0.4796,0.9184,0.1671,-0.0666,-0.0754,-0.2151,-0.2713,-1.2862,-5.4775,0,0,0,0.0
-0.4775,0.9201,0.1636,-0.0697,-0.0734,-0.2123,-0.2713,-1.2862,-5.4775,0,0,0,0.010000000009313226
-0.4796,0.9193,0.1574,-0.0697,-0.0734,-0.2123,-0.4288,-1.4262,-5.46,0,0,0,0.010000000009313226
-0.4814,0.9211,0.1627,-0.0697,-0.0734,-0.2123,-0.2362,-1.3563,-5.5125,0,0,0,0.020000000004074536
-0.4815,0.9199,0.1646,-0.0702,-0.0766,-0.2065,-0.2362,-1.225,-5.2413,0,0,0,0.029999999998835847
-0.4815,0.9199,0.1654,-0.0702,-0.0766,-0.2065,-0.105,-1.225,-5.2413,0,0,0,0.03999999999359716
-0.4781,0.9208,0.1654,-0.0712,-0.0757,-0.2134,-0.7262,-1.2862,-4.8212,0,0,0,0.05000000000291038
-0.4775,0.9184,0.1652,-0.0712,-0.0757,-0.2134,-0.4812,-1.155,-4.9788,0,0,0,0.05000000000291038
-0.4755,0.9182,0.1618,-0.0712,-0.0757,-0.2134,-0.4812,-1.155,-4.9788,0,0,0,0.059999999997671694
-0.4795,0.9176,0.1618,-0.0714,-0.0759,-0.213,-0.6212,-1.3913,-5.0838,0,0,0,0.07000000000698492
-0.4819,0.9183,0.1617,-0.0714,-0.0759,-0.213,-0.9275,-1.8112,-5.4075,0,0,0,0.08000000000174623
-0.4819,0.9183,0.1617,-0.0705,-0.0768,-0.2151,-0.2187,-1.4175,-5.1275,0,0,0,0.08999999999650754
-0.4797,0.9187,0.1627,-0.0705,-0.0768,-0.2151,-0.2187,-1.4175,-5.1275,0,0,0,0.08999999999650754
-0.4799,0.9205,0.1599,-0.0705,-0.0768,-0.2151,-0.2537,-1.0938,-4.8825,0,0,0,0.09999999999126885
-0.4806,0.9182,0.1656,-0.0678,-0.0755,-0.2122,-0.2275,-1.365,-5.2063,0,0,0,0.11000000000058208
-0.4825,0.9182,0.1588,-0.0678,-0.0755,-0.2122,-0.21,-0.805,-5.6087,0,0,0,0.1200000000098953
-0.4825,0.9182,0.1645,-0.0695,-0.0744,-0.2198,-0.21,-0.805,-5.6087,0,0,0,0.1300000000046566
-0.4785,0.9198,0.1645,-0.0695,-0.0744,-0.2198,-0.1312,-1.4612,-5.6262,0,0,0,0.1300000000046566
-0.4814,0.9204,0.1603,-0.0698,-0.0756,-0.2145,-0.0437,-1.3737,-5.3288,0,0,0,0.13999999999941792
-0.4773,0.9188,0.1599,-0.0698,-0.0756,-0.2145,-0.805,-1.7062,-5.1363,0,0,0,0.15000000000873115
-0.4773,0.9179,0.1627,-0.0698,-0.0756,-0.2145,-0.805,-1.7062,-5.1363,0,0,0,0.16000000000349246
-0.4804,0.9187,0.1641,-0.0698,-0.0752,-0.2162,-0.7175,-1.5662,-5.1363,0,0,0,0.16999999999825377
-0.4804,0.9187,0.1641,-0.0698,-0.0752,-0.2162,-0.6388,-1.2337,-5.1625,0,0,0,0.16999999999825377
-0.4815,0.92,0.1596,-0.0712,-0.0772,-0.2111,-0.7088,-1.5225,-5.4075,0,0,0,0.180000000007567
-0.4802,0.9182,0.1678,-0.0712,-0.0772,-0.2111,-0.7088,-1.5225,-5.4075,0,0,0,0.1900000000023283
-0.4827,0.9191,0.1638,-0.0712,-0.0772,-0.2111,-0.49,-1.61,-5.53,0,0,0,0.20000000001164153
-0.478,0.9182,0.1602,-0.0702,-0.0763,-0.2249,-0.4112,-1.6363,-5.5125,0,0,0,0.21000000000640284
-0.478,0.9182,0.159,-0.0702,-0.0763,-0.2249,-0.4112,-1.3737,-5.5825,0,0,0,0.21000000000640284
-0.4801,0.9172,0.159,-0.0703,-0.0752,-0.2146,-0.0088,-1.3737,-5.5825,0,0,0,0.22000000001571607
-0.4782,0.9202,0.1635,-0.0703,-0.0752,-0.2146,-0.84,-1.8463,-5.46,0,0,0,0.22999999999592546
-0.4796,0.9183,0.1651,-0.0703,-0.0752,-0.2146,-0.455,-1.645,-5.5388,0,0,0,0.2400000000052387
-0.4809,0.9185,0.1633,-0.0692,-0.0774,-0.2246,-0.455,-1.645,-5.5388,0,0,0,0.2400000000052387
-0.4803,0.9189,0.1649,-0.0692,-0.0774,-0.2246,-0.875,-1.6013,-5.285,0,0,0,0.25
-0.4803,0.9189,0.1649,-0.0695,-0.0761,-0.2131,-0.3762,-1.1638,-5.4338,0,0,0,0.2600000000093132
-0.4815,0.9202,0.164,-0.0695,-0.0761,-0.2131,-0.3675,-1.4,-5.4338,0,0,0,0.27000000000407454
-0.4792,0.9188,0.1631,-0.0695,-0.0761,-0.2131,-0.3675,-1.4,-5.4338,0,0,0,0.28000000001338776
-0.4776,0.9204,0.1687,-0.069,-0.0765,-0.2154,-0.4025,-1.33,-5.2675,0,0,0,0.28000000001338776
-0.4785,0.9177,0.1631,-0.069,-0.0765,-0.2154,-0.3675,-1.1812,-5.0312,0,0,0,0.28999999999359716
-0.4785,0.9177,0.1631,-0.0702,-0.0758,-0.2204,-0.7175,-1.0762,-5.2675,0,0,0,0.3000000000029104
-0.4797,0.9175,0.1648,-0.0702,-0.0758,-0.2204,-0.7175,-1.0762,-5.2675,0,0,0,0.3130000000091968
-0.4774,0.919,0.1647,-0.0702,-0.0758,-0.2156,-0.2362,-1.3737,-5.005,0,0,0,0.3130000000091968
-0.4791,0.919,0.1657,-0.0709,-0.0758,-0.2156,-0.4025,-1.9162,-5.0838,0,0,0,0.3230000000039581
-0.4795,0.9175,0.16,-0.0709,-0.0758,-0.2156,-0.3063,-1.4612,-5.2762,0,0,0,0.33299999999871943
-0.4809,0.9181,0.1626,-0.0654,-0.0766,-0.213,-0.3063,-1.4612,-5.2762,0,0,0,0.34299999999348074
-0.4809,0.9181,0.1626,-0.0654,-0.0766,-0.213,-0.42,-1.3038,-5.3463,0,0,0,0.35300000000279397
-0.4827,0.9201,0.1625,-0.0688,-0.0772,-0.2078,-0.42,-1.2337,-5.0225,0,0,0,0.35300000000279397
-0.4801,0.9201,0.1638,-0.0688,-0.0772,-0.2078,-0.77,-1.225,-5.3025,0,0,0,0.3629999999975553
-0.48,0.9194,0.1663,-0.0688,-0.0772,-0.2078,-0.77,-1.225,-5.3025,0,0,0,0.3730000000068685
-0.4776,0.9202,0.1642,-0.0692,-0.0756,-0.2106,-0.3063,-1.2775,-5.3812,0,0,0,0.3830000000016298
-0.4776,0.9202,0.1642,-0.0692,-0.0756,-0.2106,0.2625,-1.2775,-5.3812,0,0,0,0.39300000001094304
-0.4791,0.9193,0.164,-0.0683,-0.0748,-0.2148,0.2625,-1.2775,-5.0487,0,0,0,0.39300000001094304
-0.4787,0.9191,0.1616,-0.0683,-0.0748,-0.2148,0.0263,-1.4262,-5.0487,0,0,0,0.40299999999115244
-0.482,0.9204,0.1684,-0.0683,-0.0748,-0.2148,0.3588,-1.5838,-5.3375,0,0,0,0.41300000000046566
-0.4783,0.9191,0.1664,-0.0695,-0.0748,-0.2133,-0.1838,-1.26,-5.4513,0,0,0,0.42299999999522697
-0.4809,0.9183,0.1654,-0.0695,-0.0748,-0.2133,-0.1838,-1.26,-5.4513,0,0,0,0.4330000000045402
-0.4809,0.9183,0.1654,-0.0687,-0.0758,-0.2138,-0.3325,-1.5225,-5.1188,0,0,0,0.4330000000045402
-0.4791,0.9198,0.1626,-0.0687,-0.0758,-0.2138,-0.7525,-1.5488,-5.495,0,0,0,0.4429999999993015
-0.478,0.9196,0.1652,-0.0687,-0.0758,-0.2138,-0.8575,-1.5313,-5.67,0,0,0,0.45300000000861473
-0.4785,0.9208,0.1638,-0.0701,-0.077,-0.2174,-0.8575,-1.5313,-5.67,0,0,0,0.46300000000337604
-0.4782,0.9193,0.1622,-0.0701,-0.077,-0.2174,-0.245,-1.3388,-5.8975,0,0,0,0.47299999999813735
-0.4782,0.9193,0.1622,-0.0697,-0.0764,-0.217,-0.6737,-1.6625,-5.2675,0,0,0,0.47299999999813735
-0.4826,0.919,0.1666,-0.0697,-0.0764,-0.217,-0.4462,-0.98,-5.775,0,0,0,0.48299999999289867
-0.4831,0.9204,0.1631,-0.0697,-0.0778,-0.2158,-0.4462,-0.98,-5.775,0,0,0,0.4930000000022119
-0.4796,0.919,0.1643,-0.0703,-0.0778,-0.2158,-0.5688,-1.365,-5.5388,0,0,0,0.5030000000115251
-0.482,0.9182,0.1581,-0.0703,-0.0778,-0.2158,0.0525,-1.5313,-5.4425,0,0,0,0.5130000000062864
-0.481,0.9196,0.1571,-0.0686,-0.0742,-0.2139,-0.6475,-1.1375,-5.2587,0,0,0,0.5130000000062864
-0.481,0.9196,0.1571,-0.0686,-0.0742,-0.2139,-0.6475,-1.1375,-5.2587,0,0,0,0.5230000000010477
-0.4758,0.9184,0.1659,-0.069,-0.0753,-0.2105,-0.3237,-1.4438,-5.3113,0,0,0,0.532999999995809
-0.48,0.9187,0.1629,-0.069,-0.0753,-0.2105,-0.455,-1.3212,-5.0312,0,0,0,0.5430000000051223
-0.4812,0.9187,0.1648,-0.069,-0.0753,-0.2105,-0.8225,-1.0588,-5.0312,0,0,0,0.5529999999998836
-0.4805,0.9208,0.1649,-0.0709,-0.0756,-0.2231,-0.8225,-1.0588,-5.0312,0,0,0,0.5529999999998836
-0.4805,0.9208,0.1649,-0.0709,-0.0756,-0.2231,-1.0325,-1.4963,-5.1625,0,0,0,0.5630000000091968
-0.4802,0.9195,0.165,-0.0695,-0.0758,-0.2146,-0.21,-1.3913,-5.3637,0,0,0,0.5740000000077998
-0.4795,0.9177,0.1602,-0.0695,-0.0758,-0.2146,-0.21,-1.3913,-5.2762,0,0,0,0.5840000000025611
-0.4806,0.9196,0.1649,-0.0695,-0.0758,-0.2146,-0.4112,-1.505,-5.2762,0,0,0,0.5840000000025611
-0.4792,0.9199,0.162,-0.0692,-0.077,-0.2102,-0.6562,-1.7763,-5.0838,0,0,0,0.5940000000118744
-0.4793,0.9182,0.1624,-0.0692,-0.077,-0.2102,-0.5425,-1.5575,-5.6262,0,0,0,0.6040000000066357
-0.4793,0.9182,0.1624,-0.0705,-0.0775,-0.2143,-0.5425,-1.5575,-5.6262,0,0,0,0.614000000001397
-0.481,0.9179,0.1673,-0.0705,-0.0775,-0.2143,-0.4025,-0.9013,-5.5475,0,0,0,0.6239999999961583
-0.4806,0.9179,0.1648,-0.0705,-0.0775,-0.2143,-0.4375,-1.4525,-5.6788,0,0,0,0.6239999999961583
-0.4777,0.9198,0.1638,-0.0687,-0.0758,-0.2066,-0.49,-1.6013,-5.7488,0,0,0,0.6340000000054715
-0.4784,0.9179,0.1638,-0.0687,-0.0758,-0.2066,-0.49,-1.6013,-5.7488,0,0,0,0.6440000000002328
-0.4784,0.9179,0.1638,-0.0691,-0.0746,-0.2086,-0.665,-1.4088,-5.39,0,0,0,0.6540000000095461
-0.4814,0.9204,0.1624,-0.0691,-0.0746,-0.2086,-0.4725,-1.1025,-5.6262,0,0,0,0.6640000000043074
-0.4821,0.9193,0.1614,-0.0691,-0.0746,-0.2141,-0.1312,-1.4175,-5.2762,0,0,0,0.6640000000043074
-0.4813,0.917,0.1637,-0.0651,-0.0739,-0.2141,-0.1312,-1.4175,-5.2762,0,0,0,0.6740000000136206
-0.481,0.9193,0.1642,-0.0651,-0.0739,-0.2141,-0.1312,-1.3212,-5.215,0,0,0,0.68399999999383
-0.4795,0.9193,0.1594,-0.069,-0.0774,-0.209,0.1488,-1.1988,-5.4862,0,0,0,0.6940000000031432
-0.4795,0.9193,0.1594,-0.069,-0.0774,-0.209,-0.49,-1.1287,-5.32,0,0,0,0.7039999999979045
-0.4796,0.921,0.1637,-0.0699,-0.0764,-0.2102,-0.49,-1.1287,-5.32,0,0,0,0.7039999999979045
-0.48,0.9196,0.1652,-0.0699,-0.0764,-0.2102,-0.6562,-1.5225,-5.7312,0,0,0,0.7140000000072177
-0.4803,0.9197,0.1628,-0.0699,-0.0764,-0.2102,-0.5075,-1.7938,-5.6175,0,0,0,0.7240000000019791
-0.4814,0.9198,0.1594,-0.0692,-0.0777,-0.2077,-0.5075,-1.47,-5.46,0,0,0,0.7340000000112923
-0.4814,0.9198,0.1594,-0.0692,-0.0777,-0.2077,-0.21,-1.47,-5.46,0,0,0,0.7440000000060536
-0.4791,0.9193,0.1639,-0.0693,-0.0763,-0.213,-0.595,-1.3563,-5.6438,0,0,0,0.7440000000060536
-0.4779,0.9175,0.165,-0.0693,-0.0763,-0.213,-0.8575,-1.785,-5.0487,0,0,0,0.7540000000008149
-0.4834,0.9183,0.1617,-0.0693,-0.0763,-0.213,-0.8575,-1.785,-5.0487,0,0,0,0.7639999999955762
-0.4792,0.9211,0.1629,-0.0682,-0.0756,-0.2197,-0.56,-1.26,-5.11,0,0,0,0.7740000000048894
-0.4799,0.9212,0.1676,-0.0682,-0.0756,-0.2197,-0.4462,-1.645,-5.3637,0,0,0,0.7839999999996508
-0.4799,0.9212,0.1676,-0.0702,-0.0751,-0.2141,-0.5775,-1.6013,-5.6613,0,0,0,0.7839999999996508
-0.4801,0.9195,0.1659,-0.0702,-0.0751,-0.2141,-0.5775,-1.6013,-5.6613,1.4123706021242113,-10.585749454507736,0.0,0.794000000008964
-0.4818,0.9195,0.1599,-0.0702,-0.0751,-0.2141,-0.5163,-1.9162,-5.1537,2.1739480440373584,-12.505373715968195,-0.006047642696831821,0.8040000000037253
-0.4814,0.9182,0.1656,-0.0694,-0.0752,-0.2206,-0.3413,-1.3038,-4.935,2.7423616811709266,-13.713658895834511,-0.005972048969871417,0.8139999999984866
-0.4781,0.9199,0.1664,-0.0694,-0.0752,-0.2206,-0.4638,-1.5575,-5.3463,3.0762461512465995,-16.97331009599837,-0.008408841178864854,0.8239999999932479
-0.4781,0.9199,0.1664,-0.0708,-0.0761,-0.2166,-0.4638,-1.5575,-5.3463,3.3952884543400605,-19.438421408563965,-0.01082126546940126,0.8340000000025611
-0.4817,0.92,0.1607,-0.0708,-0.0761,-0.2166,-0.3675,-1.19,-5.4513,3.704117318358432,-21.787158437294348,-0.009571315515305361,0.8439999999973224
-0.48,0.9187,0.161,-0.0708,-0.0761,-0.2091,-0.6737,-1.6712,-5.1275,4.976791249306115,-22.297898157005818,-0.013097745063525686,0.8540000000066357
-0.4794,0.9196,0.1615,-0.0698,-0.0775,-0.2091,-0.4988,-1.7062,-4.7512,5.35245965105842,-23.343915769780974,-0.016935410310811375,0.864000000001397
-0.4815,0.9191,0.1635,-0.0698,-0.0775,-0.2091,-0.4988,-1.7062,-4.7512,5.7093247272871315,-24.18835884638498,-0.017162920479227895,0.8650000000052387
-0.4802,0.9191,0.1651,-0.0669,-0.0766,-0.2138,-0.2537,-1.3563,-5.3025,6.338324939133578,-24.847448296035726,-0.01749592397417125,0.875
-0.4802,0.9191,0.1651,-0.0669,-0.0766,-0.2138,-0.3938,-1.26,-5.495,6.426536174143488,-25.605178046225845,-0.01732096473442954,0.875
-0.4803,0.9189,0.1647,-0.0684,-0.0757,-0.2112,-0.3675,-1.365,-5.2675,6.6036460820164375,-25.922467223045302,-0.017738517787635428,0.8850000000093132
-0.4771,0.9209,0.1598,-0.0684,-0.0757,-0.2112,-0.3675,-1.365,-5.2675,6.757312011426943,-26.141727456990605,-0.018151895309449585,0.8950000000040745
-0.4815,0.9187,0.1642,-0.0684,-0.0757,-0.2112,-0.8487,-1.47,-5.3113,7.774879608091326,-26.398178375459516,-0.01960063905550104,0.9049999999988358
-0.4783,0.9202,0.1631,-0.0701,-0.075,-0.2214,-1.0325,-1.2687,-5.1363,8.64181258013356,-26.469389225303697,-0.019042025365135985,0.9149999999935972
-0.4783,0.9202,0.1631,-0.0701,-0.075,-0.2214,-1.0325,-1.2687,-4.9437,9.178539735143453,-26.516510100402186,-0.018488997811146914,0.9250000000029104
-0.4803,0.9176,0.1577,-0.0687,-0.0747,-0.2123,-1.0325,-1.5313,-4.9437,9.396837925156307,-26.57382787104597,-0.018304107833035443,0.9250000000029104
-0.4786,0.9192,0.1632,-0.0687,-0.0747,-0.2123,-0.7525,-1.4,-5.2762,9.565266605214923,-26.688280595834588,-0.019058329455577977,0.9350000000122236
-0.4803,0.9183,0.1656,-0.0687,-0.0747,-0.2123,-0.595,-1.6363,-5.705,9.664439585873305,-26.91025419801601,-0.022144378859305668,0.9450000000069849
-0.4788,0.9195,0.1645,-0.0701,-0.0746,-0.2237,-0.595,-1.6363,-5.705,9.736655857715322,-27.00282383460011,-0.02519956776899608,0.9550000000017462
-0.482,0.92,0.1615,-0.0701,-0.0746,-0.2237,-0.5688,-1.7938,-5.5825,9.765577955303515,-27.10744209543278,-0.029783454788772746,0.9649999999965075
-0.482,0.92,0.1615,-0.0709,-0.0769,-0.2143,-0.77,-1.4963,-5.2063,9.815349376752717,-27.136326313805263,-0.029485620240885017,0.9649999999965075
-0.4806,0.9198,0.1647,-0.0709,-0.0769,-0.2143,-0.8487,-1.5662,-5.67,9.916763757072337,-27.16833166691871,-0.03177340674088144,0.9750000000058208
-0.4793,0.9204,0.1652,-0.0709,-0.0769,-0.2143,-0.8487,-1.5662,-5.67,9.99474844960978,-27.15639193778694,-0.03403831537211965,0.9850000000005821
-0.4793,0.9189,0.161,-0.0706,-0.0764,-0.2118,-0.4025,-1.2337,-5.5213,9.993920395569976,-27.168546821290132,-0.03298882491773804,0.9950000000098953
-0.4814,0.9181,0.1652,-0.0706,-0.0764,-0.2118,-0.2537,-1.3563,-5.7312,10.02295735634764,-27.221456464044874,-0.03316356936829629,1.0050000000046566
-0.4814,0.9181,0.1652,-0.0694,-0.0747,-0.2112,-0.3413,-0.9538,-5.3463,10.035492040267506,-27.239692420800516,-0.029351816371372214,1.0150000000139698
-0.4781,0.9212,0.1616,-0.0694,-0.0747,-0.2112,-0.3413,-0.9538,-5.3463,10.029439571445513,-27.19972185403678,-0.02557818090948161,1.0250000000087311
-0.4804,0.9204,0.1642,-0.0694,-0.0747,-0.2106,-0.07,-1.155,-5.5213,10.051543234973655,-27.198368741578765,-0.02383416180116643,1.0350000000034925
-0.4817,0.92,0.1623,-0.0662,-0.0744,-0.2106,-0.3588,-1.2425,-5.2675,10.048959778690582,-27.21371969881627,-0.0229738328834806,1.0449999999982538
-0.4801,0.9182,0.1623,-0.0662,-0.0744,-0.2106,-0.0525,-1.7237,-4.9612,10.042287933285547,-27.21547598659973,-0.022744094554645794,1.0449999999982538
-0.4801,0.9179,0.164,-0.0682,-0.0756,-0.212,-0.0525,-1.7237,-4.9612,10.0657510740499,-27.2171254446168,-0.02665854631295677,1.055000000007567
-0.4798,0.9179,0.164,-0.0682,-0.0756,-0.212,-0.0088,-1.5838,-5.005,10.084405233118357,-27.21734340380138,-0.029148843548382954,1.0650000000023283
-0.482,0.9209,0.1655,-0.0707,-0.0768,-0.2094,-0.35,-1.4525,-5.25,10.090947201944548,-27.224317290742466,-0.028857355112899125,1.0650000000023283
-0.4798,0.919,0.1596,-0.0707,-0.0768,-0.2094,-0.4462,-1.435,-5.1887,10.084234356275388,-27.223823726308954,-0.029852544262965727,1.0750000000116415
-0.4769,0.9185,0.1643,-0.0707,-0.0768,-0.2094,-0.4462,-1.435,-5.1887,10.085850360561679,-27.20231503727731,-0.03083778151966354,1.0850000000064028
-0.4806,0.9191,0.1623,-0.0691,-0.0754,-0.2164,-0.3588,-1.3913,-5.3725,10.081901807115553,-27.213493325621716,-0.030529403704466905,1.0850000000064028
-0.4806,0.9191,0.1623,-0.0691,-0.0754,-0.2164,-0.4288,-1.26,-5.2762,10.081132759276025,-27.219953521916757,-0.02977537236765731,1.0950000000011642
-0.4829,0.9208,0.16,-0.0701,-0.0775,-0.212,-0.4288,-1.26,-5.2937,10.078584534264433,-27.242284771188828,-0.029028881344215808,1.1049999999959255
-0.4807,0.9198,0.1638,-0.0701,-0.0775,-0.212,-0.7613,-1.3825,-5.2937,10.083427334824677,-27.23896784543475,-0.029502605231485186,1.1150000000052387
-0.4803,0.919,0.1648,-0.0701,-0.0775,-0.212,-1.2337,-1.7938,-4.9175,10.120778342059594,-27.237385904435133,-0.029207579179170336,1.1150000000052387
-0.4798,0.919,0.1613,-0.0687,-0.0751,-0.2117,-0.665,-1.995,-5.1712,10.087860395270253,-27.234323818406462,-0.035743266083801774,1.125
-0.4798,0.9205,0.1624,-0.0687,-0.0751,-0.2117,-0.665,-1.995,-5.1712,10.0715075101301,-27.226317002861364,-0.0422135961293226,1.1350000000093132
-0.4826,0.9205,0.1624,-0.069,-0.0759,-0.2144,-0.4462,-1.6013,-5.4163,10.069652002108658,-27.249221153810847,-0.04472159286649436,1.1450000000040745
-0.4789,0.9173,0.1611,-0.069,-0.0759,-0.2144,-0.3237,-1.4875,-5.4687,10.060349231846864,-27.23791521661171,-0.04607788963950907,1.1550000000133878
-0.48,0.9198,0.1656,-0.069,-0.0759,-0.2144,-0.4375,-1.7938,-5.6788,10.06323895176089,-27.21690135436557,-0.045617110743113976,1.1550000000133878
-0.4782,0.9185,0.1654,-0.0682,-0.075,-0.2114,-0.4375,-1.7938,-5.6788,10.066112174572478,-27.182572718003378,-0.04999682232611233,1.1649999999935972
-0.4797,0.9191,0.1605,-0.0682,-0.075,-0.2114,-0.0437,-1.6363,-5.355,10.022437184630654,-27.18930719246625,-0.0527734868059028,1.1750000000029104
-0.4797,0.9191,0.1605,-0.0684,-0.0751,-0.2154,-0.3762,-1.6975,-5.5037,10.017824151910897,-27.195902908632902,-0.05612826463580984,1.1849999999976717
-0.4801,0.9186,0.1649,-0.0684,-0.0751,-0.2154,-0.2362,-1.7237,-5.4862,10.042213928770959,-27.204219415178432,-0.05970887469330917,1.195000000006985
-0.4813,0.922,0.1688,-0.0684,-0.0751,-0.2154,-0.2362,-1.7237,-5.4862,10.093209287332458,-27.196473483682382,-0.06325367864420625,1.2050000000017462
-0.481,0.9189,0.1611,-0.0695,-0.0747,-0.2176,-0.3237,-1.7062,-5.4862,10.080436179799289,-27.221327473093346,-0.06262114185776418,1.2050000000017462
-0.4835,0.9184,0.1608,-0.0695,-0.0747,-0.2176,-0.4112,-1.505,-5.4687,10.079533778226196,-27.279381682605624,-0.06397169314102755,1.2150000000110595
-0.4835,0.9191,0.1621,-0.0705,-0.0745,-0.2133,-0.5512,-1.3913,-5.5125,10.070410916591236,-27.31469344099002,-0.0641831089091714,1.2250000000058208
-0.4812,0.9191,0.1621,-0.0705,-0.0745,-0.2133,-0.5512,-1.3913,-5.5125,10.062365504578441,-27.301844608997875,-0.06439241051963379,1.235000000000582
-0.4796,0.9198,0.1641,-0.0687,-0.075,-0.2154,-0.5075,-1.1812,-5.5213,10.066772271493312,-27.258716289274073,-0.0625196291150812,1.2449999999953434
-0.4812,0.9196,0.1621,-0.0687,-0.075,-0.2154,-0.5688,-1.0325,-5.3637,10.057586275314323,-27.25986208660901,-0.06189443282393039,1.2449999999953434
-0.4768,0.918,0.1679,-0.0687,-0.075,-0.2154,-0.49,-1.3913,-5.18,10.078406026595628,-27.23331583009301,-0.06212662119648375,1.2550000000046566
-0.4779,0.9177,0.1601,-0.0686,-0.0731,-0.2157,-0.49,-1.3913,-5.18,10.066047611269902,-27.223189088679735,-0.06235648768407303,1.264999999999418
-0.4779,0.9177,0.1601,-0.0686,-0.0731,-0.2157,-0.3325,-1.6275,-5.3113,10.052766024484296,-27.208702089193807,-0.06556033804801205,1.2770000000018626
-0.4807,0.9194,0.1597,-0.0694,-0.0757,-0.2127,-0.2187,-1.6712,-5.2762,10.019830039212854,-27.21787497586486,-0.06780244882812225,1.2850000000034925
-0.4807,0.9198,0.1627,-0.0694,-0.0757,-0.2127,-0.2187,-1.6712,-5.53,10.021693288914562,-27.222441700253697,-0.07038435276655197,1.293999999994412
-0.4807,0.9209,0.168,-0.0694,-0.0757,-0.2127,-0.0613,-1.435,-5.53,10.10493884971931,-27.20856551046909,-0.07045076685997743,1.3000000000029104
-0.4807,0.9183,0.1585,-0.0691,-0.0735,-0.214,-0.2713,-1.2513,-5.2937,10.065184290815212,-27.225118153287,-0.069264878621085,1.309000000008382
-0.4807,0.9187,0.1585,-0.0691,-0.0735,-0.214,-0.42,-1.68,-5.2587,10.064433943478328,-27.23490812665459,-0.07153963999547869,1.3170000000100117
-0.4795,0.9187,0.1585,-0.0674,-0.0755,-0.2154,-0.42,-1.68,-5.2587,10.063685632296169,-27.23175620395844,-0.07119516986694889,1.3180000000138534
-0.4784,0.9208,0.1662,-0.0674,-0.0755,-0.2154,-0.595,-1.2775,-4.8913,10.089002440374784,-27.213984538145585,-0.07020773086842372,1.3280000000086147
-0.4789,0.9195,0.1624,-0.0674,-0.0755,-0.2154,-0.35,-1.0675,-5.0138,10.084410318824421,-27.21336724763343,-0.06715116626097291,1.338000000003376
-0.4792,0.9179,0.1632,-0.0685,-0.0763,-0.2162,-0.4988,-1.1113,-5.4425,10.084204041572098,-27.210359502836607,-0.06455878729936945,1.3479999999981374
-0.4831,0.92,0.1581,-0.0685,-0.0763,-0.2162,-0.4988,-1.1113,-5.4425,10.059081786115119,-27.255272524033455,-0.06391319942637576,1.3479999999981374
-0.4831,0.92,0.1581,-0.0694,-0.0755,-0.2176,-0.4638,-1.2075,-5.3725,10.045382743297584,-27.283007452408317,-0.062305580131210014,1.3580000000074506
-0.4836,0.919,0.1625,-0.0694,-0.0755,-0.2176,-0.1312,-1.085,-4.8913,10.041413784033615,-27.29583869376289,-0.059501287031040594,1.368000000002212
-0.4814,0.9175,0.1645,-0.0694,-0.0755,-0.2176,-0.2275,-1.0063,-4.935,10.061071194610165,-27.29733586964783,-0.05594590685797312,1.3780000000115251
-0.4806,0.9201,0.1639,-0.0713,-0.0749,-0.2134,-0.2275,-1.0063,-4.935,10.06733096857127,-27.29052754629362,-0.05242608049094422,1.3880000000062864
-0.4815,0.9172,0.1602,-0.0713,-0.0749,-0.2134,-0.2187,-1.365,-5.4075,10.040842884148198,-27.305688978421344,-0.05190181968603478,1.3880000000062864
-0.4815,0.9196,0.1619,-0.0673,-0.0754,-0.2114,-0.245,-1.4875,-5.3375,10.032617815072289,-27.29923412757206,-0.05318631419085408,1.3980000000155997
-0.479,0.9196,0.1619,-0.0673,-0.0754,-0.2114,-0.2537,-1.715,-5.3812,10.025906016938642,-27.261886256367948,-0.05671021374091893,1.407999999995809
-0.4809,0.9216,0.1611,-0.0693,-0.0752,-0.221,-0.2537,-1.715,-5.3812,10.010368975519349,-27.246617823506543,-0.06019887430728696,1.4180000000051223
-0.4776,0.9184,0.1649,-0.0693,-0.0752,-0.221,-0.5425,-1.7763,-5.4075,10.029143562533184,-27.207532497731624,-0.06425951826177148,1.4279999999998836
-0.4779,0.9179,0.1632,-0.0693,-0.0752,-0.221,-0.5863,-1.7763,-5.3987,10.0367385447594,-27.1891083346928,-0.06827955578349618,1.4380000000091968
-0.4783,0.9198,0.1628,-0.0683,-0.0752,-0.2199,-0.5863,-1.19,-5.53,10.036793155719835,-27.164047491907827,-0.06645502292625934,1.4480000000039581
-0.4783,0.9198,0.1628,-0.0683,-0.0752,-0.2199,-0.6737,-1.19,-5.53,10.036859097026777,-27.14740698074062,-0.06579047269699674,1.4480000000039581
-0.481,0.9201,0.1639,-0.0671,-0.0734,-0.2164,-0.6212,-1.26,-5.1887,10.047607390239861,-27.159569259333587,-0.06468383066960885,1.4580000000132713
-0.4799,0.919,0.1657,-0.0671,-0.0734,-0.2164,-0.07,-1.4875,-5.32,10.092271161721415,-27.168608022101107,-0.0658405050593435,1.4679999999934807
-0.4801,0.9199,0.1607,-0.0671,-0.0734,-0.2164,-0.07,-1.4875,-5.32,10.045074931637656,-27.1777291228734,-0.06518210000875006,1.4679999999934807
-0.4807,0.9182,0.1639,-0.0684,-0.0742,-0.2113,0.245,-1.3388,-4.9,10.07523871031356,-27.187420100247476,-0.06486166170897119,1.478000000002794
-0.4807,0.9182,0.1646,-0.0684,-0.0742,-0.2113,-0.595,-1.505,-5.1975,10.08849867879053,-27.198521141075368,-0.0661898077908459,1.4879999999975553
-0.4799,0.9195,0.1646,-0.0691,-0.0758,-0.2153,-0.5688,-1.0938,-5.355,10.096464907755522,-27.19683004062474,-0.06343379241098714,1.4980000000068685
-0.4817,0.9199,0.1648,-0.0691,-0.0758,-0.2153,-0.5688,-1.0938,-5.355,10.104402502231162,-27.214601442956578,-0.0607053371879743,1.5080000000016298
-0.4795,0.9209,0.1653,-0.0691,-0.0758,-0.2153,-0.3413,-1.7763,-5.39,10.109467388640315,-27.19325579833393,-0.060098283816094555,1.5080000000016298
-0.4799,0.9202,0.1634,-0.0695,-0.0772,-0.2126,-0.6475,-1.3737,-5.3812,10.101906139011883,-27.189713281326306,-0.06017419367856401,1.518000000010943
-0.4812,0.9182,0.1607,-0.0695,-0.0772,-0.2126,-0.4112,-1.1638,-5.2937,10.100850237713466,-27.21394627691219,-0.058171334442512365,1.5280000000057044
-0.4812,0.9182,0.1607,-0.0694,-0.0769,-0.208,-0.4112,-1.1638,-5.2937,10.099800716454784,-27.233031673769975,-0.05618850379882124,1.5380000000004657
-0.4801,0.9198,0.1606,-0.0694,-0.0769,-0.208,-0.105,-1.3563,-5.5388,10.053250220432586,-27.22569009925632,-0.05613125146056866,1.547999999995227
-0.4798,0.9197,0.163,-0.0694,-0.0769,-0.208,-0.315,-0.945,-5.4425,10.052973325588807,-27.21485165222519,-0.055569938945962974,1.547999999995227
-0.4773,0.9187,0.166,-0.068,-0.0742,-0.213,-0.07,-1.1812,-5.2325,10.101766624452264,-27.191381064680673,-0.05378538225535887,1.5580000000045402
-0.4811,0.9184,0.1652,-0.068,-0.0742,-0.213,-0.07,-1.1812,-5.2325,10.12636727654425,-27.205693170970658,-0.05201867113344904,1.5679999999993015
-0.4811,0.9184,0.1602,-0.0677,-0.0741,-0.2211,0.0437,-1.3563,-5.4338,10.05329054772848,-27.231990821949296,-0.05200311712258452,1.5780000000086147
-0.4795,0.9189,0.1602,-0.0677,-0.0741,-0.2211,0.245,-1.3913,-5.3637,9.98802885845684,-27.22543700732463,-0.052334218650912784,1.588000000003376
-0.4828,0.9203,0.1629,-0.0687,-0.0718,-0.2133,-0.1312,-1.3212,-5.39,9.999102452956087,-27.25078248078077,-0.05181087646440365,1.588000000003376
-0.4784,0.9195,0.1621,-0.0687,-0.0718,-0.2133,-0.1312,-1.3212,-5.39,9.99886307552144,-27.218357262849832,-0.05144991039990596,1.5980000000126893
-0.4793,0.9198,0.1627,-0.0687,-0.0718,-0.2133,-0.4025,-1.4963,-5.0662,9.999332219848844,-27.21613657534316,-0.052826043992165214,1.6079999999928987
-0.4812,0.9199,0.165,-0.0686,-0.0742,-0.2153,-0.8138,-1.6187,-5.3288,10.047466424360788,-27.222454968868416,-0.05540017625513288,1.618000000002212
-0.4812,0.9199,0.165,-0.0686,-0.0742,-0.2153,-0.8138,-1.6187,-5.32,10.081933650068061,-27.227189471036866,-0.0579485671909563,1.6279999999969732
-0.4813,0.9199,0.1619,-0.0702,-0.0754,-0.2122,-0.805,-1.68,-5.32,10.053924576181844,-27.235041799177154,-0.061078344222501246,1.6380000000062864
-0.4783,0.9194,0.1607,-0.0702,-0.0754,-0.2122,-0.3237,-1.2862,-5.215,10.041989898396425,-27.218738792577216,-0.06027820348037543,1.6480000000010477
-0.4816,0.9209,0.1646,-0.0702,-0.0754,-0.2122,-0.07,-1.3038,-5.3025,10.065688909013218,-27.22332012684723,-0.059675421445571676,1.6480000000010477
-0.4808,0.9197,0.1615,-0.071,-0.0758,-0.2156,-0.07,-1.3038,-5.3025,10.038353177633208,-27.227819588882237,-0.05906354993110187,1.658000000010361
-0.4808,0.9197,0.1602,-0.071,-0.0758,-0.2156,-0.7788,-1.1725,-4.9963,9.996586227447564,-27.22840551930953,-0.057157927132479726,1.6680000000051223
-0.4824,0.9176,0.1602,-0.069,-0.0737,-0.2146,-0.665,-1.0938,-5.0487,9.978049690164694,-27.232037565585898,-0.05658634786115493,1.6680000000051223
-0.4799,0.9196,0.1622,-0.069,-0.0737,-0.2146,-0.28,-1.1113,-5.18,9.981061843467844,-27.227678349105187,-0.054099617083549656,1.6779999999998836
-0.4784,0.9189,0.1662,-0.069,-0.0737,-0.2146,-0.28,-1.1113,-5.18,10.013785905934627,-27.21402711615743,-0.05163775361372044,1.687999999994645
-0.4781,0.9188,0.1638,-0.0698,-0.0751,-0.214,-0.5775,-1.3913,-5.2937,10.026833400728322,-27.195107025841917,-0.051972508778375906,1.6980000000039581
-0.4773,0.9191,0.1599,-0.0698,-0.0751,-0.214,-0.5512,-1.4438,-5.0838,10.008219396523648,-27.189486893565768,-0.05282366638987397,1.7079999999987194
-0.4773,0.9191,0.1599,-0.0674,-0.0731,-0.2151,-0.455,-1.54,-5.355,10.003167043177612,-27.166119652995963,-0.05461869242813893,1.7180000000080327
-0.4795,0.9184,0.163,-0.0674,-0.0731,-0.2151,-0.455,-1.54,-5.355,10.005385641968001,-27.176119227607234,-0.05407250550385754,1.7180000000080327
-0.4796,0.921,0.1678,-0.0674,-0.0731,-0.2151,-0.1225,-1.0762,-5.2413,10.078299005679641,-27.167223154015307,-0.05126342315000728,1.728000000002794
-0.4795,0.9201,0.1624,-0.0677,-0.0749,-0.2177,-0.0263,-1.4525,-5.3113,10.059032804237571,-27.16721377714478,-0.05220780161774392,1.7379999999975553
-0.4804,0.9174,0.1618,-0.0677,-0.0749,-0.2177,-0.6825,-1.19,-5.2762,10.047135863077179,-27.189914127675138,-0.05054398630216459,1.7479999999923166
-0.4804,0.9174,0.1618,-0.0695,-0.0738,-0.2088,-0.6825,-1.19,-5.2762,10.037732809254651,-27.20804229948152,-0.05003854643914295,1.7479999999923166
-0.4792,0.9177,0.1643,-0.0695,-0.0738,-0.2088,-0.1925,-1.3563,-5.6525,10.05840727112451,-27.206198472408122,-0.050042793675221485,1.7580000000016298
-0.4801,0.9185,0.1663,-0.0695,-0.075,-0.2151,-0.595,-1.4262,-5.1625,10.089216277345495,-27.207691118868663,-0.050739008437842376,1.7679999999963911
-0.479,0.9196,0.1599,-0.0692,-0.075,-0.2151,-0.8138,-1.3038,-5.04,10.025259972679391,-27.207032824407197,-0.050216501053449866,1.7780000000057044
-0.4799,0.9195,0.1627,-0.0692,-0.075,-0.2151,-0.8138,-1.3038,-5.04,10.027821778499426,-27.206922351040923,-0.04969921874292328,1.7880000000004657
-0.4805,0.918,0.1636,-0.0709,-0.0749,-0.2142,-0.3588,-1.1638,-5.2937,10.032074505065598,-27.218646744712046,-0.04920222655549405,1.7880000000004657
-0.4805,0.918,0.1636,-0.0709,-0.0749,-0.2142,-0.2362,-1.3212,-5.4513,10.043224037684867,-27.231660855471485,-0.04886734699008545,1.7980000000097789
-0.478,0.92,0.1657,-0.069,-0.0754,-0.2221,-0.2362,-1.3212,-5.4513,10.068794472801196,-27.186966915879868,-0.048535816220102265,1.8080000000045402
-0.4796,0.9191,0.1627,-0.069,-0.0754,-0.2221,-0.42,-1.5662,-5.075,10.06871242990271,-27.1873706836663,-0.05063310075654827,1.8179999999993015
-0.4816,0.9169,0.1604,-0.069,-0.0754,-0.2221,0.3413,-1.4875,-5.0575,10.005754156758906,-27.192859438632375,-0.051930282448037976,1.8279999999940628
-0.481,0.9185,0.1634,-0.068,-0.0755,-0.2174,0.105,-1.2163,-5.5475,10.033737425550854,-27.221066373280983,-0.050529612322736756,1.838000000003376
-0.481,0.9185,0.1634,-0.068,-0.0755,-0.2174,0.105,-1.2163,-5.5475,10.052119909177014,-27.239580764778932,-0.05002431619950939,1.838000000003376
-0.4818,0.9193,0.164,-0.0682,-0.0742,-0.2147,-0.3588,-1.19,-5.4862,10.055591945611065,-27.255963729304447,-0.04838233573645096,1.8480000000126893
-0.4803,0.9188,0.1638,-0.0682,-0.0742,-0.2147,-0.14,-1.4612,-5.5388,10.067027111840407,-27.247765643891217,-0.049441655078278045,1.8580000000074506
-0.4821,0.9188,0.1618,-0.0682,-0.0742,-0.2147,-0.3063,-1.6712,-5.46,10.059067477890387,-27.272089435107972,-0.05256938122559773,1.868000000002212
-0.4794,0.9192,0.1633,-0.0686,-0.0744,-0.2142,-0.3063,-1.6712,-5.46,10.060534153806428,-27.244281207836238,-0.05566583011144422,1.8779999999969732
-0.4795,0.9218,0.1627,-0.0686,-0.0744,-0.2142,-0.4812,-1.4,-5.6875,10.057483174739069,-27.196401872817763,-0.05510917181032978,1.8779999999969732
-0.4795,0.9218,0.1627,-0.0685,-0.0735,-0.2154,-0.4375,-1.4,-5.6175,10.056537146636114,-27.16952534858608,-0.05549534279309937,1.8880000000062864
-0.4798,0.9203,0.1674,-0.0685,-0.0735,-0.2154,-0.5075,-1.8112,-5.7838,10.077448634668658,-27.16320291389868,-0.05994853206254475,1.8980000000010477
-0.478,0.9194,0.1668,-0.0685,-0.0735,-0.2154,-0.5075,-1.8112,-5.7838,10.094451443408747,-27.1325404324956,-0.0643571894465835,1.908000000010361
-0.4806,0.9198,0.1619,-0.0687,-0.0739,-0.2098,-0.4812,-1.61,-5.32,10.087740214885628,-27.154820211731355,-0.06371361755211767,1.908000000010361
-0.4807,0.9194,0.1617,-0.0687,-0.0739,-0.2098,-0.2013,-1.0938,-5.25,10.067700333941344,-27.171562632324328,-0.06098236407769353,1.9180000000051223
-0.4807,0.9194,0.1617,-0.0708,-0.0732,-0.2105,-0.1312,-1.225,-5.5213,10.047060702244872,-27.1961663483813,-0.059577303136175964,1.9280000000144355
-0.4794,0.919,0.1659,-0.0708,-0.0732,-0.2105,-0.1312,-1.225,-5.5213,10.088412190259534,-27.188798677699783,-0.05818629280638802,1.937999999994645
-0.4812,0.9198,0.162,-0.0708,-0.0732,-0.2144,-0.2975,-1.0237,-5.075,10.077755887926514,-27.192193868669126,-0.0548163225757275,1.9480000000039581
-0.481,0.9179,0.1679,-0.069,-0.0753,-0.2144,-0.7088,-1.4438,-5.1537,10.142774534653496,-27.201096866011653,-0.05426815934997022,1.9480000000039581
-0.4792,0.9182,0.161,-0.069,-0.0753,-0.2144,-0.7088,-1.4438,-4.9963,10.098204444587294,-27.2012114320951,-0.05509636045575235,1.9579999999987194
-0.4802,0.9187,0.1617,-0.0678,-0.0758,-0.223,-1.0237,-1.3212,-4.9963,10.054473989197623,-27.202218677133654,-0.05470253955134117,1.9680000000080327
-0.4802,0.9187,0.1617,-0.0678,-0.0758,-0.223,-0.42,-1.3038,-5.1712,10.054278303899169,-27.206887201149364,-0.054140396855835674,1.978000000002794
-0.482,0.92,0.1626,-0.0691,-0.0754,-0.2205,-0.42,-1.2775,-5.5125,10.054193157291715,-27.234160110042883,-0.05359899288727732,1.978000000002794
-0.4775,0.9202,0.1616,-0.0691,-0.0754,-0.2205,-0.42,-1.2775,-5.5125,10.053938573589981,-27.18061872931275,-0.052787515658147974,1.9880000000121072
-0.478,0.9166,0.1644,-0.0691,-0.0754,-0.2205,0.07,-1.2163,-5.2413,10.091429201117082,-27.17899048452532,-0.05137827320202821,1.9980000000068685
-0.4798,0.9196,0.1603,-0.0657,-0.0748,-0.2276,-0.07,-1.4963,-5.075,10.039032646500495,-27.180159263491536,-0.05275512316901748,2.00800000000163
-0.4798,0.9196,0.1603,-0.0657,-0.0748,-0.2276,0.105,-1.1463,-5.0838,9.98726808781217,-27.181452316126553,-0.05065320463815206,2.017999999996391
-0.4784,0.9185,0.161,-0.0681,-0.0729,-0.2164,0.105,-1.1463,-5.0838,9.9717826269671,-27.18018896221227,-0.04857230529030429,2.0280000000057044
-0.4801,0.9185,0.1627,-0.0681,-0.0729,-0.2164,-0.4462,-1.5313,-5.46,9.973840198783247,-27.196624835082787,-0.04808658223740125,2.0280000000057044
-0.4799,0.9195,0.1699,-0.0681,-0.0729,-0.2164,-0.7437,-1.5225,-5.635,10.09562490229145,-27.185803741078796,-0.0497557291139009,2.0380000000004657
-0.4795,0.9198,0.1637,-0.0674,-0.074,-0.219,-0.3325,-1.4088,-5.3637,10.095299916619307,-27.18151442836338,-0.05028255452371592,2.048000000009779
-0.4807,0.9187,0.1601,-0.0674,-0.074,-0.219,-0.3325,-1.4088,-5.3637,10.078906928378807,-27.203895307155715,-0.05080411167794211,2.05800000000454
-0.4807,0.9187,0.1601,-0.0688,-0.0749,-0.2149,-0.6125,-1.2337,-5.95,10.047324308321192,-27.235570684934146,-0.04958696326050228,2.0680000000138534
-0.4817,0.9196,0.1647,-0.0688,-0.0749,-0.2149,-0.8225,-1.4438,-5.1537,10.078085106910022,-27.24022477661117,-0.04909109362789726,2.0680000000138534
-0.4806,0.9187,0.166,-0.0688,-0.0749,-0.2149,-0.4725,-1.2425,-4.9963,10.0866770159843,-27.240195825293483,-0.047978195392849234,2.077999999994063
-0.4814,0.9191,0.1632,-0.0688,-0.0742,-0.2134,-0.4725,-1.2425,-4.9963,10.085740459002839,-27.241280224393076,-0.04687642613834146,2.088000000003376
-0.4845,0.9198,0.1634,-0.0688,-0.0742,-0.2134,-0.2362,-1.3038,-5.2675,10.083841079127925,-27.274786724055865,-0.04639254457696596,2.0979999999981374
-0.4845,0.9198,0.1634,-0.0706,-0.0771,-0.2207,-0.9187,-1.3475,-4.8825,10.080338049767414,-27.291841578033285,-0.04634613183158513,2.1080000000074506
-0.4823,0.919,0.1612,-0.0706,-0.0771,-0.2207,-0.4988,-1.4438,-5.1275,10.070432918854628,-27.295912210291675,-0.04588267051326928,2.1080000000074506
-0.4834,0.921,0.1602,-0.0706,-0.0771,-0.2207,-0.4988,-1.4438,-5.1275,10.055127714440378,-27.300374632354657,-0.046794726507418415,2.118000000002212
-0.4803,0.9191,0.1641,-0.0696,-0.0745,-0.2099,-0.4812,-0.98,-5.39,10.059215214336527,-27.279682992703087,-0.043106041939344676,2.128000000011525
-0.482,0.9197,0.1635,-0.0696,-0.0745,-0.2099,-1.0588,-1.3913,-4.8825,10.0675193458654,-27.281388787368485,-0.043526114218266784,2.1379999999917345
-0.482,0.9182,0.1616,-0.0682,-0.073,-0.2198,-1.0588,-1.3913,-5.075,10.033955217100866,-27.28417078369074,-0.04394198577687679,2.1480000000010477
-0.4753,0.9182,0.1616,-0.0682,-0.073,-0.2198,-0.3413,-0.9275,-5.075,10.030260728940458,-27.271001123611835,-0.04350256591910802,2.1480000000010477
-0.4829,0.9187,0.1618,-0.0669,-0.074,-0.2228,-0.5512,-1.3212,-5.3113,10.025318061038545,-27.292897629152545,-0.04322468295983461,2.157999999995809
-0.4801,0.9173,0.1623,-0.0669,-0.074,-0.2228,-0.35,-1.19,-5.4513,10.025842219075658,-27.284733887877216,-0.04165069882917293,2.1680000000051223
-0.4775,0.9196,0.1635,-0.0669,-0.074,-0.2228,-0.35,-1.19,-5.4513,10.029353130128198,-27.22268756026947,-0.04009245454147932,2.1779999999998836
-0.4815,0.9177,0.1656,-0.0683,-0.0734,-0.2201,-0.5425,-1.015,-5.0925,10.05157189288117,-27.228234932118042,-0.039691529996064526,2.1779999999998836
-0.4815,0.9177,0.1656,-0.0683,-0.0734,-0.2201,-0.595,-1.6888,-5.4338,10.078347481890018,-27.25177094681466,-0.043090997399639536,2.188000000009197
-0.4796,0.9192,0.1621,-0.0682,-0.075,-0.2115,-0.4462,-1.6888,-5.6262,10.076179674855409,-27.23059564760875,-0.04645647012365433,2.198000000003958
-0.4799,0.9185,0.1674,-0.0682,-0.075,-0.2115,-0.4462,-1.6888,-5.6262,10.08328591540185,-27.22054362548681,-0.04978828812042898,2.2079999999987194
-0.4809,0.9203,0.166,-0.0682,-0.075,-0.2115,-0.4988,-1.5313,-5.32,10.093955542910962,-27.219144068639974,-0.05152753793805272,2.2179999999934807
-0.4769,0.9184,0.1599,-0.0694,-0.0748,-0.2045,-0.0175,-1.4612,-5.2587,10.031878806395147,-27.195208184950335,-0.05255540526010934,2.228000000002794
-0.4769,0.9174,0.1618,-0.0694,-0.0748,-0.2045,-0.1225,-1.26,-5.0662,10.025139929840188,-27.191741188361117,-0.05202985120750825,2.228000000002794
-0.4779,0.9174,0.1618,-0.0701,-0.0754,-0.2142,-0.1225,-1.26,-5.0662,10.019935275953335,-27.19038765929415,-0.051060815395668244,2.2379999999975553
-0.4814,0.9177,0.1638,-0.0701,-0.0754,-0.2142,-0.385,-1.5137,-5.2325,10.023068446412719,-27.211424899215896,-0.05261309994363277,2.2480000000068685
-0.4796,0.9198,0.1634,-0.0701,-0.0754,-0.2142,-0.3588,-1.2687,-5.1712,10.025846510894858,-27.206757256789363,-0.051724361644386395,2.25800000000163
-0.4773,0.919,0.1638,-0.07,-0.0738,-0.2218,-0.7175,-1.5662,-5.0138,10.04438010382395,-27.20549063752914,-0.05120711802794253,2.25800000000163
-0.4773,0.9196,0.1618,-0.07,-0.0738,-0.2218,-0.7175,-1.5662,-5.0138,10.029244996549686,-27.204176080718796,-0.053277689550068376,2.268000000010943
-0.4773,0.9196,0.1618,-0.0684,-0.0762,-0.2149,-0.735,-1.5575,-5.1537,10.017089662741158,-27.189357929284377,-0.055241425349626935,2.2779999999911524
-0.4828,0.9179,0.1619,-0.0684,-0.0762,-0.2149,-0.7,-1.5313,-4.8825,10.013982978677662,-27.2134334891887,-0.05692614379821415,2.2880000000004657
-0.477,0.9197,0.1585,-0.0684,-0.0762,-0.2149,0.0088,-1.6625,-5.7225,9.943546877518951,-27.155332162543676,-0.059892895058379594,2.297999999995227
-0.4784,0.9198,0.1656,-0.0678,-0.0765,-0.2158,0.0088,-1.6625,-5.7225,10.022005292222058,-27.135513173777635,-0.0592939661077958,2.297999999995227
-0.4798,0.9179,0.1642,-0.0678,-0.0765,-0.2158,-0.3063,-1.3038,-5.1975,10.03400890718169,-27.149179782693935,-0.05868590914670375,2.30800000000454
-0.4798,0.9197,0.1615,-0.0679,-0.0772,-0.2225,-0.35,-1.2075,-5.1275,10.029320795270198,-27.153520383278106,-0.05713056275574407,2.3179999999993015
-0.4785,0.9197,0.1615,-0.0679,-0.0772,-0.2225,-0.35,-1.2075,-5.3725,10.024928211970524,-27.148039007509226,-0.05559076982728465,2.3280000000086147
-0.4811,0.9199,0.1591,-0.0706,-0.0742,-0.211,-0.35,-1.155,-5.3725,10.01153335028012,-27.177981412453693,-0.05354662482979144,2.338000000003376
-0.4779,0.9193,0.1618,-0.0706,-0.0742,-0.211,-0.7962,-1.3038,-5.0312,10.003423972594433,-27.177506384440726,-0.05301115858149352,2.338000000003376
-0.4807,0.9188,0.1651,-0.0706,-0.0742,-0.211,-0.665,-1.19,-5.1625,10.039834905046444,-27.18578225987024,-0.0513393096962767,2.3479999999981374
-0.4782,0.9189,0.1625,-0.0697,-0.0714,-0.2198,-0.665,-1.19,-5.1625,10.037606175335306,-27.179364400207344,-0.04968417929991205,2.3579999999928987
-0.4782,0.9189,0.1625,-0.0697,-0.0714,-0.2198,-0.2275,-0.9887,-5.1537,10.03617109427489,-27.17404436034483,-0.04605273020399359,2.368000000002212
-0.4821,0.9194,0.1611,-0.0697,-0.074,-0.2127,-0.4112,-1.575,-5.1363,10.035581789662606,-27.188389436407174,-0.048261965604440064,2.378000000011525
-0.4791,0.9191,0.1672,-0.0697,-0.074,-0.2127,-0.2275,-1.4438,-5.2762,10.07940661696575,-27.180896676132956,-0.04915022864767749,2.3880000000062864
-0.4817,0.9186,0.1594,-0.0697,-0.074,-0.2127,-0.2275,-1.4438,-5.2762,10.041892692338545,-27.209673698245485,-0.048658726361200715,2.3880000000062864
-0.4813,0.919,0.1577,-0.0684,-0.0756,-0.2216,0.035,-1.4875,-5.2063,9.946970680974351,-27.22386936731936,-0.0499756517966439,2.3980000000010477
-0.4813,0.9184,0.1636,-0.0684,-0.0756,-0.2216,-0.5337,-1.5313,-5.075,9.962979383287616,-27.227131944450953,-0.05171302797750549,2.407999999995809
-0.4812,0.9184,0.1636,-0.0698,-0.0748,-0.2138,-0.4988,-1.4,-5.3812,9.973344145556085,-27.24268780891229,-0.05213316039860332,2.4180000000051223
-0.4784,0.9201,0.1629,-0.0698,-0.0748,-0.2138,-0.4988,-1.4,-5.3812,9.978364504470399,-27.20818529586437,-0.052549091494126274,2.4279999999998836
-0.482,0.9184,0.1615,-0.0698,-0.0748,-0.2138,-0.315,-1.1113,-5.39,9.977908883687387,-27.24195045228344,-0.05202360057918501,2.4279999999998836
-0.4794,0.9175,0.1643,-0.0694,-0.0741,-0.2145,-0.1138,-1.05,-5.355,10.01856939769306,-27.235971241330265,-0.04897562727103902,2.438000000009197
-0.4818,0.9199,0.1642,-0.0694,-0.0741,-0.2145,-0.6562,-1.82,-5.3375,10.038240916707688,-27.245470674710415,-0.05358113369565937,2.448000000003958
-0.4818,0.9199,0.1642,-0.0702,-0.0743,-0.2176,-0.6562,-1.82,-5.3375,10.05411886131806,-27.252702750942685,-0.0581405850634481,2.4580000000132713
-0.4786,0.9179,0.1629,-0.0702,-0.0743,-0.2176,-0.7088,-1.19,-5.5563,10.056240954840021,-27.22581618850386,-0.056417441913411734,2.4680000000080327
-0.4809,0.9179,0.1614,-0.0702,-0.0743,-0.2176,-0.4025,-0.91,-5.3463,10.055024620028412,-27.24233932598659,-0.05585326749427762,2.4680000000080327
-0.4796,0.92,0.163,-0.0678,-0.0732,-0.2102,-0.4025,-1.2687,-5.11,10.054908561045623,-27.23675924301278,-0.054932127519524795,2.478000000002794
-0.4804,0.9179,0.164,-0.0678,-0.0732,-0.2102,-0.7525,-1.2687,-5.11,10.07377926727727,-27.238438843091583,-0.0540201989445195,2.4879999999975553
-0.4804,0.9179,0.1616,-0.0674,-0.0721,-0.2183,-0.4638,-1.7587,-5.32,10.069825307347847,-27.245294669423007,-0.057968389659254445,2.4980000000068685
-0.4818,0.9179,0.1616,-0.0674,-0.0721,-0.2183,0.1138,-0.9887,-5.0225,10.040344134901886,-27.245429869820832,-0.05425409846430401,2.50800000000163
-0.4807,0.9197,0.1609,-0.0702,-0.0738,-0.2226,0.1138,-0.9887,-5.0225,9.999771275085525,-27.24542435224103,-0.05057695017674164,2.518000000010943
-0.4795,0.922,0.1656,-0.0702,-0.0738,-0.2226,0.0787,-1.155,-5.075,10.060288062644355,-27.2386926489113,-0.05007118067497422,2.518000000010943
-0.4784,0.9197,0.1679,-0.0702,-0.0738,-0.2226,-0.1575,-1.505,-5.425,10.119196054019731,-27.19881883735676,-0.05154723156718891,2.5280000000057044
-0.4795,0.9191,0.1629,-0.0702,-0.0754,-0.2142,-0.6475,-0.91,-5.075,10.106368339914276,-27.1983693697852,-0.04711802194787206,2.5380000000150176
-0.4795,0.9191,0.1629,-0.0702,-0.0754,-0.2142,-0.6475,-0.91,-5.075,10.095941177554458,-27.197941718420363,-0.042733104436138855,2.547999999995227
-0.4814,0.9171,0.1622,-0.0696,-0.0759,-0.215,-0.735,-1.0412,-5.005,10.079974031819125,-27.200479558403494,-0.039690916089342186,2.55800000000454
-0.4795,0.919,0.1626,-0.0696,-0.0759,-0.215,-0.4462,-1.5488,-5.3288,10.078670141237623,-27.19880724504433,-0.041704389627186034,2.5679999999993015
-0.4789,0.9194,0.1655,-0.0696,-0.0759,-0.215,-0.385,-1.3475,-5.1625,10.082603440166476,-27.191854950737948,-0.04128734573091417,2.5679999999993015
-0.4782,0.9191,0.161,-0.0698,-0.0758,-0.2156,-0.385,-1.3475,-5.1625,10.078012068768265,-27.184889415546106,-0.04129198497399386,2.5780000000086147
-0.4782,0.9188,0.1635,-0.0698,-0.0758,-0.2156,-0.0263,-1.54,-5.3113,10.081419659841352,-27.172891319869073,-0.040879065124253926,2.5780000000086147
-0.4794,0.9188,0.1635,-0.0676,-0.074,-0.2162,-0.4725,-1.0762,-5.5037,10.081875754390392,-27.17826077920223,-0.038201917174199705,2.588000000003376
-0.4798,0.9202,0.1643,-0.0676,-0.074,-0.2162,0.0962,-1.1812,-4.9875,10.095956466046774,-27.178005727466196,-0.03659104070131324,2.5980000000126893
-0.4803,0.9185,0.1612,-0.0676,-0.074,-0.2162,0.0962,-1.1812,-4.9875,10.047875020862277,-27.18055921039622,-0.03499627299673209,2.6079999999928987
-0.4787,0.9193,0.1607,-0.0686,-0.0733,-0.2136,0.1138,-1.68,-4.9963,10.001962505022984,-27.179878433780782,-0.03835557297021928,2.618000000002212
-0.4791,0.9182,0.164,-0.0686,-0.0733,-0.2136,-0.0175,-1.365,-5.1188,10.037625235465303,-27.18053239343103,-0.0385627799402076,2.627999999996973
-0.4791,0.9182,0.164,-0.0689,-0.0738,-0.2118,-0.56,-1.4875,-5.1625,10.048766700074493,-27.181371532186898,-0.03998066484248517,2.6380000000062864
-0.4798,0.9172,0.1667,-0.0689,-0.0738,-0.2118,-0.56,-1.4875,-5.1625,10.080269366253097,-27.187783616624653,-0.04138437089311551,2.6480000000010477
-0.4781,0.9193,0.1642,-0.0689,-0.0738,-0.2118,-0.245,-1.19,-4.9088,10.087143470979916,-27.17984781655533,-0.040970527184184355,2.6480000000010477
-0.4797,0.9223,0.1659,-0.0695,-0.0754,-0.2161,-0.0525,-1.3038,-5.32,10.116536421188936,-27.163388577981646,-0.040545704612328426,2.658000000010361
-0.4804,0.9204,0.1606,-0.0695,-0.0754,-0.2161,-0.0525,-1.3038,-5.11,10.05808697739363,-27.16717845355987,-0.04012513026621306,2.6680000000051223
-0.4804,0.9204,0.1624,-0.0703,-0.0754,-0.2099,-0.5163,-1.2337,-5.11,10.053444371124563,-27.17005387662601,-0.03972387896355093,2.6680000000051223
-0.479,0.9184,0.1624,-0.0703,-0.0754,-0.2099,-0.35,-1.4,-5.1013,10.051834660935084,-27.17110082572534,-0.040263902873424406,2.6779999999998836
-0.4785,0.9202,0.16,-0.07,-0.0758,-0.2107,-0.2362,-1.7938,-5.2762,10.022991231295208,-27.162112816940592,-0.04469714654215679,2.687999999994645
-0.481,0.9201,0.1662,-0.07,-0.0758,-0.2107,-0.2362,-1.7938,-5.2762,10.056120354273476,-27.174433065196954,-0.049086057781238986,2.698000000003958
-0.4817,0.9184,0.1623,-0.07,-0.0758,-0.2107,-0.7613,-1.4438,-5.0138,10.047350722144442,-27.17586227694199,-0.048595197203426595,2.698000000003958
-0.4812,0.919,0.1579,-0.0692,-0.0745,-0.213,-0.56,-1.12,-5.5213,10.010113940633971,-27.215775617581,-0.046274507932353486,2.7079999999987194
-0.4812,0.919,0.1579,-0.0692,-0.0745,-0.213,-0.4638,-1.3212,-5.18,9.998515880648506,-27.226607099306687,-0.045968905553176294,2.7180000000080327
-0.4788,0.92,0.1609,-0.0693,-0.0764,-0.2118,-0.4638,-1.3212,-5.18,9.99503462254808,-27.21520322582349,-0.0456663591975622,2.728000000002794
-0.4787,0.9179,0.1643,-0.0693,-0.0764,-0.2118,-0.6388,-1.3737,-5.2675,10.02281427559187,-27.207141833198097,-0.04588658830621698,2.738000000012107
-0.4823,0.9199,0.1592,-0.0693,-0.0764,-0.2118,0.0175,-1.365,-5.1887,9.960897148268094,-27.223333093984873,-0.046018485121985656,2.7479999999923166
-0.4798,0.9205,0.1617,-0.0678,-0.0748,-0.2101,-0.5425,-1.0938,-5.4687,9.961157097361113,-27.208439963484878,-0.0455583002707658,2.7479999999923166
-0.4798,0.9205,0.1634,-0.0678,-0.0748,-0.2101,-0.5425,-1.0938,-5.4687,9.972807720519882,-27.19586517582384,-0.04300859996610784,2.75800000000163
-0.4829,0.9177,0.1634,-0.0672,-0.0742,-0.2146,-0.4025,-1.4088,-5.4075,9.974600834342015,-27.2487969536838,-0.043602896665910114,2.767999999996391
-0.4782,0.9201,0.1632,-0.0672,-0.0742,-0.2146,-0.6388,-1.4262,-5.6525,9.989736158936843,-27.191593001673084,-0.044363510400365465,2.7780000000057044
-0.4771,0.9187,0.1638,-0.0672,-0.0742,-0.2146,-0.5425,-1.4963,-5.11,10.003046950654186,-27.182656229332363,-0.04391987529636181,2.7780000000057044
-0.4803,0.9193,0.1613,-0.0694,-0.0751,-0.2185,-0.5425,-1.4963,-5.11,9.997343179400428,-27.186439105796897,-0.045371309242407745,2.7880000000004657
-0.481,0.918,0.162,-0.0694,-0.0751,-0.2185,0.07,-1.2862,-5.2587,10.000828068618572,-27.206768824722992,-0.044728238849807304,2.798000000009779
-0.481,0.918,0.162,-0.0694,-0.0751,-0.2167,-0.63,-1.1113,-5.1712,10.002082539974962,-27.217883507048743,-0.04236008916511074,2.8079999999899883
-0.4826,0.9222,0.1635,-0.0694,-0.0751,-0.2167,-0.63,-1.3737,-5.2238,10.011135743393385,-27.22507408327638,-0.04261338097409004,2.8179999999993015
-0.4803,0.9203,0.164,-0.0694,-0.0751,-0.2167,-0.3237,-1.3737,-5.2238,10.019099370551352,-27.219920150585715,-0.042187247164349136,2.8179999999993015
-0.4821,0.9174,0.1613,-0.0694,-0.0757,-0.2078,-0.56,-1.575,-5.5738,10.013215749370792,-27.27125692706208,-0.044435137391307035,2.827999999994063
-0.4802,0.92,0.1546,-0.0694,-0.0757,-0.2078,-0.6037,-1.6013,-5.1363,9.938711950280297,-27.267763852434268,-0.046920918720122856,2.838000000003376
-0.4802,0.92,0.1623,-0.0686,-0.0739,-0.215,-0.6037,-1.6013,-5.1363,9.949093506120853,-27.26132913736391,-0.04938184223138661,2.8479999999981374
-0.4815,0.9198,0.1623,-0.0686,-0.0739,-0.215,-0.4988,-1.3825,-5.2762,9.953451778239364,-27.263476036517222,-0.04965203650978428,2.8580000000074506
-0.4969,0.9347,0.1794,-0.07,-0.0754,-0.2152,-0.4462,-0.945,-4.095,9.979069051561964,-27.410318766572093,-0.0455882788465552,2.868000000002212
-0.4915,0.9488,0.1356,-0.07,-0.0754,-0.2152,-0.28,-0.5337,-1.6888,9.756291645309528,-27.20950763912111,-0.037493288762091535,2.877999999996973
-0.4633,0.8813,0.1911,-0.07,-0.0754,-0.2152,-0.28,-0.5337,-1.6888,10.055436817673858,-27.196297448275818,-0.03711835587447062,2.877999999996973
-0.4419,0.8863,0.1381,-0.0693,-0.0754,-0.2143,-6.2387,-2.5287,-3.2638,9.032176436825695,-26.578130918385437,-0.04885856500938113,2.8879999999917345
-0.4419,0.8863,0.1381,-0.0693,-0.0754,-0.2143,0.1925,-0.9975,-6.2387,8.965593437122772,-26.38551006157146,-0.045322492056449115,2.8980000000010477
-0.4668,0.9009,0.1509,-0.0673,-0.0753,-0.213,5.0662,-0.9363,-8.68,9.42495385099839,-26.921706364063876,-0.04121589983248215,2.908000000010361
-0.562,0.974,0.2486,-0.0673,-0.0753,-0.213,5.0662,-0.9363,-8.68,13.563521028669308,-28.717448104425777,-0.04080374083415733,2.908000000010361
-0.4724,0.9331,0.12,-0.0673,-0.0753,-0.213,-1.1988,-2.1263,-6.055,10.828206863245121,-27.674429954692688,-0.04852333612155794,2.9180000000051223
-0.4294,0.904,0.1119,-0.0673,-0.0745,-0.2176,-3.8325,-2.3975,-2.31,7.9106429766691715,-25.8949614712996,-0.058850615454678006,2.9279999999998836
-0.4294,0.904,0.1784,-0.0673,-0.0745,-0.2176,-0.56,-0.3413,-4.27,8.31692297952197,-25.504266863571942,-0.058262109300131225,2.9279999999998836
-0.4923,0.921,0.1784,-0.0686,-0.0741,-0.2146,-0.56,-0.3413,-4.27,8.647353485313825,-26.443544872723496,-0.048135620898241485,2.938000000009197
-0.4873,0.9054,0.1868,-0.0686,-0.0741,-0.2146,-0.0437,-0.6562,-5.2325,9.46605364709921,-26.676602359019842,-0.041227907392625635,2.948000000003958
-0.4621,0.9044,0.159,-0.0686,-0.0741,-0.2146,-1.7763,-2.6075,-6.8513,9.757015560171904,-26.7000320505716,-0.05370714101194591,2.9579999999987194
-0.472,0.9164,0.1477,-0.0691,-0.0744,-0.2166,0.6125,-1.0063,-7.595,9.452028007756887,-26.882292580242247,-0.05020970229906938,2.9680000000080327
-0.5064,0.9493,0.1699,-0.0691,-0.0744,-0.2166,0.6125,-1.0063,-7.595,9.804623097752541,-27.473935209273368,-0.04674723797762952,2.978000000002794
-0.5064,0.9493,0.1699,-0.0699,-0.0745,-0.2149,1.3038,0.5163,-6.615,10.021189900053391,-27.615240771804952,-0.028245658281057653,2.988000000012107
-0.4839,0.9204,0.173,-0.0699,-0.0745,-0.2149,-1.7237,-1.6187,-4.3925,10.374652956377675,-27.50307960429552,-0.027963201698247075,2.988000000012107
-0.4638,0.9035,0.1523,-0.0699,-0.0745,-0.2149,-1.7237,-1.6187,-5.8538,9.91786138223498,-27.20615591892355,-0.03078596237963935,2.9980000000068685
-0.4751,0.9184,0.1679,-0.0685,-0.0754,-0.2138,-0.9887,-1.435,-5.8538,10.078741644886295,-27.09931899688458,-0.03176186545517042,3.00800000000163
-0.4946,0.9349,0.1662,-0.0685,-0.0754,-0.2138,0.5512,-0.525,-6.1512,10.079525049886863,-27.318969669062756,-0.023719009504665725,3.017999999996391
-0.4946,0.9349,0.1568,-0.0674,-0.075,-0.2104,-0.7,-1.4262,-5.46,9.956410504961703,-27.39016174546844,-0.02348181940961907,3.017999999996391
-0.4831,0.9242,0.1568,-0.0674,-0.075,-0.2104,-0.7,-1.4262,-5.46,9.884274321295171,-27.352058232785446,-0.024443643916637333,3.0280000000057044
-0.4758,0.913,0.1613,-0.0674,-0.0747,-0.215,-1.6625,-2.2225,-4.725,9.959037428841423,-27.30935237889874,-0.033279220172714216,3.0380000000004657
-0.4757,0.9184,0.1659,-0.0688,-0.0747,-0.215,-0.8313,-1.6538,-4.76,10.041156530287207,-27.246558646504862,-0.03639631067420002,3.048000000009779
-0.484,0.921,0.1634,-0.0688,-0.0747,-0.215,-0.455,-1.1725,-4.9612,10.041859489456444,-27.25318020586507,-0.034717360268146896,3.05800000000454
-0.4768,0.9088,0.1632,-0.0684,-0.0725,-0.2184,-0.455,-1.1725,-4.9612,10.046899860799215,-27.256612202113253,-0.03437018666546543,3.05800000000454
-0.4768,0.9088,0.1632,-0.0684,-0.0725,-0.2184,-0.8575,-1.3125,-5.0925,10.087743172900424,-27.260117162349417,-0.03409749749887691,3.0680000000138534
-0.4742,0.9162,0.1607,-0.0699,-0.0735,-0.2115,-0.6825,-0.9625,-5.4775,10.058531683042249,-27.182715055102353,-0.03036253523060504,3.077999999994063
-0.4808,0.9187,0.168,-0.0699,-0.0735,-0.2115,-0.0962,-1.1375,-6.0375,10.132533213241405,-27.2115091442242,-0.028397422576751603,3.088000000003376
-0.4905,0.9341,0.1741,-0.0699,-0.0735,-0.2115,-0.0962,-1.1375,-6.0375,10.235890260592422,-27.25778634154694,-0.026451961051854482,3.0979999999981374
-0.5275,0.9627,0.1615,-0.071,-0.0745,-0.2214,0.1225,-0.1575,-3.9113,9.986022149262375,-27.85209067167047,-0.01482395413075286,3.1080000000074506
-0.5275,0.9627,0.1771,-0.071,-0.0745,-0.2214,-2.5988,0.0875,-0.8313,10.286124436392848,-28.229906975300352,-0.0008867272966689497,3.118000000002212
-0.4776,0.9508,0.181,-0.0703,-0.0794,-0.2138,-6.9037,-6.2125,-0.245,10.712475905103787,-26.604296966231498,-0.0008778600237022603,3.118000000002212
-0.3426,0.7748,0.0562,-0.0703,-0.0794,-0.2138,-6.9037,-6.2125,-0.245,5.02543586515766,-24.28396557316965,-0.04945009416870984,3.128000000011525
-0.4795,0.8592,0.2774,-0.0703,-0.0794,-0.2138,2.7125,-6.755,-12.5125,14.77728630290597,-27.53756941746706,-0.10290735589875907,3.1380000000062864
-0.5636,0.9459,0.2417,-0.069,-0.0754,-0.2188,11.69,-6.9388,-16.905,14.367570110685897,-29.806301591414552,-0.10187828233977148,3.1380000000062864
-0.5443,1.0404,0.1406,-0.069,-0.0754,-0.2188,7.1575,-7.2187,-10.2725,8.474349659875068,-27.78891606391424,-0.15940189218570522,3.1480000000010477
-0.5443,1.0404,0.1406,-0.0655,-0.074,-0.2181,7.1575,-7.2187,-10.2725,7.7870759177983535,-27.466057616689774,-0.2163502659331796,3.157999999995809
-0.4632,0.9277,0.1251,-0.0655,-0.074,-0.2181,2.3275,-7.315,-0.3413,7.7085832266133645,-26.52756991890686,-0.2736825260292575,3.1680000000051223
-0.4664,0.9012,0.1617,-0.0655,-0.074,-0.2181,5.5125,-7.4637,1.54,9.816683499376138,-26.93248402456286,-0.27094570076896496,3.1680000000051223
-0.4488,0.8128,0.2432,-0.0681,-0.0733,-0.2143,5.5125,-7.4637,-3.0625,15.67063340202041,-27.559078032739304,-0.3292041364293361,3.1779999999998836
-0.4745,0.8722,0.2138,-0.0681,-0.0733,-0.2143,11.1213,-9.1875,-3.0625,13.924508572799354,-27.75258413041536,-0.4039456078377171,3.188000000009197
-0.4745,0.8722,0.1513,-0.0687,-0.075,-0.2241,17.8237,-10.1062,-9.6425,10.053354683071131,-28.11400933746327,-0.48703479441369596,3.198000000003958
-0.4472,0.8339,0.1416,-0.0687,-0.075,-0.2241,21.0613,-6.6937,-13.7463,9.655675262812268,-27.8912692177805,-0.5355093392192403,3.2080000000132713
-0.5072,1.0,0.091,-0.0687,-0.0769,-0.2319,21.0613,-6.6937,-13.7463,5.397831625567799,-26.91128317017195,-0.5834991384214752,3.2179999999934807
-0.4511,0.8238,0.0842,-0.0694,-0.0769,-0.2319,18.3312,-2.625,-12.3813,5.813712224812532,-28.37960476787834,-0.5776641470372604,3.2179999999934807
-0.6162,0.9347,0.0647,-0.0694,-0.0769,-0.2319,24.6575,8.6713,-13.16,4.03080536055686,-32.78986306300542,-0.4731188981749024,3.228000000002794
-0.4178,0.8808,0.122,-0.0733,-0.0744,-0.2379,18.1825,10.3775,-17.6925,7.689198583875389,-25.724469609056978,-0.352727721953744,3.2379999999975553
-0.4178,0.8808,0.122,-0.0733,-0.0744,-0.2379,18.1825,10.3775,-17.6925,7.8758534039791535,-25.207559471353026,-0.23354045732648981,3.2480000000068685
-0.3831,0.963,0.0539,-0.0758,-0.071,-0.2419,26.3375,19.1187,-14.84,3.3718973300665884,-21.990586274000478,-0.02900718555915007,3.25800000000163
-0.5402,0.9964,0.2083,-0.0758,-0.071,-0.2419,36.5925,17.8587,-10.43,11.585839566140066,-27.023074952260373,-0.02871711370355857,3.25800000000163
-0.5171,0.9468,0.0918,-0.0758,-0.071,-0.2419,31.2813,7.2975,-7.6737,5.722941279936057,-28.1162255667423,0.05673804481279589,3.268000000010943
-0.6434,0.9726,-0.0018,-0.0772,-0.0666,-0.2647,31.2813,7.2975,-7.6737,0.07222626620059933,-32.014437268369804,0.14133865149611535,3.2779999999911524
-0.6434,0.9726,0.2324,-0.0772,-0.0666,-0.2647,37.6688,-4.8387,-3.2462,13.096706502251578,-32.49015417617835,-0.034976698579929584,3.3280000000086147
-0.6964,0.9659,0.224,-0.0786,-0.0626,-0.2645,37.2925,-6.0637,10.4913,13.05758984040138,-34.92520194108138,-0.0817348242694519,3.338000000003376
-0.5264,0.9108,0.2288,-0.0786,-0.0626,-0.2645,36.1113,1.47,21.8663,14.073539811262002,-29.474952258343325,-0.05344173874115106,3.3479999999981374
-0.4469,0.8373,0.1246,-0.0786,-0.0626,-0.2645,36.1113,1.47,21.8663,8.61363462267175,-27.8896900087995,-0.025431584068133225,3.3579999999928987
-0.5089,0.8326,0.1269,-0.086,-0.0628,-0.277,50.5925,1.1113,16.7213,8.664986210680352,-30.99905582370428,-0.025177268227451893,3.3579999999928987
-0.5187,0.9459,0.0185,-0.086,-0.0628,-0.277,60.6725,-1.19,11.2175,1.2419633855400423,-28.86563159669024,-0.023783758244114044,3.368000000002212
-0.5187,0.9459,0.0185,-0.0937,-0.0664,-0.2976,65.9925,7.21,13.3088,1.1222558820601498,-28.74106962164012,0.06075581659416404,3.377999999996973
-0.4838,1.0059,0.016,-0.0937,-0.0664,-0.2976,65.9925,7.21,13.3088,0.9144083994262775,-25.841152603060646,0.14444999580673454,3.3880000000062864
-0.5205,1.0681,-0.0263,-0.0937,-0.0664,-0.2976,67.1387,15.8988,16.3363,-1.3766054554879568,-25.96785001256859,0.1430054958486672,3.3880000000062864
-0.526,0.9365,-0.1873,-0.1022,-0.0606,-0.3225,68.1888,16.52,21.4725,-11.167224722610566,-28.739547256637543,0.3709873992343189,3.400999999998021
-0.5626,0.9195,-0.1377,-0.1022,-0.0606,-0.3225,68.1888,16.52,29.1462,-8.555127303874972,-31.109065924067227,0.49080704156974103,3.408000000010361
-0.5626,0.9195,-0.0253,-0.1107,-0.0546,-0.3334,82.0663,21.0788,29.1462,-1.6596907548774469,-31.441186631918892,0.552379828276969,3.411000000007334
-0.5686,0.9699,-0.0253,-0.1107,-0.0546,-0.3334,88.4275,31.7975,35.455,-1.4960725426708075,-30.39806201086015,0.8745740171225179,3.4210000000020955
-0.4545,0.9751,-0.0563,-0.1107,-0.0445,-0.3613,85.4262,37.24,42.0875,-3.2836325162206035,-25.067176588318997,0.8658282769512927,3.4210000000020955
-0.4548,1.1259,-0.1072,-0.1207,-0.0445,-0.3613,85.4262,37.24,42.0875,-5.414073392297332,-21.971986796184876,1.2387687318371714,3.4310000000114087
-0.4908,1.1846,-0.0423,-0.1207,-0.0445,-0.3613,92.5925,26.9237,48.265,-2.080900252089663,-22.48257445972727,1.2263810445187997,3.4310000000114087
-0.573,1.3093,-0.0562,-0.1234,-0.0346,-0.375,83.3875,10.1938,54.0488,-2.453393326440341,-23.597793451117603,1.3279585913139738,3.44100000000617
-0.573,1.3093,-0.0562,-0.1234,-0.0346,-0.375,57.1375,7.9012,51.8438,-2.4577621897981814,-23.61634593900227,1.4058236226530862,3.4510000000009313
-0.5403,1.3714,-0.0212,-0.119,-0.0349,-0.3776,57.1375,7.9012,51.8438,-0.9124938220162622,-21.537518485535667,1.4829100036788077,3.4609999999956926
-0.5005,1.3721,-0.0685,-0.119,-0.0349,-0.3776,26.3113,0.0962,47.4775,-2.7878679518918834,-20.0458832357678,1.4680809036420195,3.4609999999956926
-0.4723,1.3221,-0.0542,-0.119,-0.0349,-0.3776,5.6525,-11.1475,46.4888,-2.409830065422021,-19.65092297593235,1.3559625818148535,3.471000000005006
-0.4746,1.2945,-0.002,-0.1016,-0.0424,-0.3686,-6.2125,-21.3587,43.6975,-0.4301307418348897,-20.12460822068397,1.143874563400708,3.480999999999767
-0.4746,1.2945,-0.0235,-0.1016,-0.0424,-0.3686,-6.2125,-21.3587,43.6975,-0.9502653798558073,-20.13116744734363,0.9339074248818069,3.4910000000090804
-0.4367,1.2563,-0.0235,-0.0767,-0.0521,-0.3538,-21.7,-26.1887,38.5612,-1.0661872515757267,-19.18643082836689,0.9245683506329888,3.4910000000090804
-0.3914,1.1921,-0.0767,-0.0767,-0.0521,-0.3538,-34.5625,-28.5863,36.6188,-3.60693974843966,-18.165924256882896,0.6452410345681463,3.5010000000038417
-0.3457,1.1258,-0.035,-0.0767,-0.0521,-0.3538,-43.1637,-29.2075,40.7137,-1.822441283450841,-17.086025212755214,0.36255711126520423,3.511000000013155
-0.3364,1.0315,-0.0553,-0.0541,-0.0587,-0.3322,-43.1637,-29.2075,40.7137,-3.0402707015568393,-18.017947756565125,0.08270002799923105,3.5209999999933643
-0.3013,0.9165,-0.0511,-0.0541,-0.0587,-0.3322,-48.825,-28.4113,45.1325,-3.188200063259573,-18.16893992271054,0.08187302771923874,3.5209999999933643
-0.3013,0.9165,-0.0511,-0.0328,-0.0613,-0.2946,-47.1538,-25.9875,48.2912,-3.1911919514718066,-18.171894919213432,-0.1632992154855256,3.5310000000026776
-0.2774,0.8617,-0.0757,-0.0328,-0.0613,-0.2946,-37.0737,-26.2675,49.49,-4.971942873953296,-17.787407967866258,-0.40879173590120893,3.540999999997439
-0.2771,0.8079,-0.0902,-0.0328,-0.0613,-0.2946,-37.0737,-26.2675,49.49,-6.333405733248975,-18.8040578641212,-0.40470381854219684,3.540999999997439
-0.2905,0.8043,-0.0639,-0.0174,-0.0594,-0.2854,-22.1287,-28.0,48.1425,-4.621347081708766,-19.782955558104327,-0.6649340433029022,3.551000000006752
-0.2899,0.8244,-0.0446,-0.0174,-0.0594,-0.2854,-9.6687,-23.4237,49.1312,-3.245407497530374,-19.35590671098534,-0.8772565954551605,3.5610000000015134
-0.2899,0.8556,-0.0265,-0.008,-0.0538,-0.2613,-9.6687,-16.7038,48.7725,-1.91755159425052,-18.721196379656867,-0.868484029500609,3.5610000000015134
-0.2774,0.8477,-0.0265,-0.008,-0.0538,-0.2613,-1.5925,-16.5375,48.7725,-1.8489321706229682,-18.122935405916934,-1.0105977020460448,3.5710000000108266
-0.2765,0.8999,-0.0101,-0.0024,-0.0465,-0.2514,4.6813,-12.1187,45.745,-0.8407652955636401,-17.099062798451172,-1.0004917250255843,3.5710000000108266
-0.2805,0.9557,-0.0092,-0.0024,-0.0465,-0.2514,8.1988,-10.6488,43.8112,-0.5816154885118843,-16.37126289024308,-1.0829871904268704,3.581000000005588
-0.2639,0.9945,-0.0032,-0.0024,-0.0465,-0.2514,8.1988,-10.6488,43.8112,-0.2256714448088549,-14.89169404268462,-1.1646577011741437,3.5910000000003492
-0.2616,1.0231,0.0157,0.0006,-0.0413,-0.239,7.5425,-10.64,43.89,0.7558538221778706,-14.35226258084339,-1.1530111241624021,3.5910000000003492
-0.2616,1.0231,0.0157,0.0006,-0.0413,-0.239,3.7275,-10.0975,44.17,0.8551963322500579,-14.34145412765988,-1.2285235255751792,3.6009999999951106
-0.2452,1.0451,-0.0296,0.0029,-0.035,-0.2324,0.0613,-14.7875,43.9425,0.05328162989714456,-13.221607980612069,-1.3497118031437343,3.611000000004424
-0.2766,1.0346,-0.0553,0.0029,-0.035,-0.2324,0.0613,-14.7875,43.9425,-0.9542746462768036,-14.913025252317789,-1.336214685112297,3.611000000004424
-0.2796,1.0283,-0.0264,0.0029,-0.035,-0.2324,-1.4438,-18.725,45.71,-1.215844654630048,-15.2008120252351,-1.4953073008708302,3.620999999999185
-0.2649,1.0147,-0.0451,0.0053,-0.0301,-0.2228,-6.72,-20.8162,50.1987,-2.3629310174484135,-14.627781662204047,-1.673511870742014,3.6310000000084983
-0.2649,1.0147,-0.0611,0.0053,-0.0301,-0.2228,-10.43,-26.1975,52.85,-3.3475579783901908,-14.606267928522618,-1.9032092646054954,3.6410000000032596
-0.2529,0.9878,-0.0611,0.0053,-0.0258,-0.2073,-10.43,-26.1975,52.85,-3.5220705168174873,-14.338954945000436,-1.8841771719594405,3.6410000000032596
-0.2841,0.9472,-0.0619,0.0053,-0.0258,-0.2073,-12.9062,-33.145,53.3488,-3.7229101599439987,-16.62321639640167,-2.180548162774716,3.650999999998021
-0.3303,0.8721,-0.1069,0.0053,-0.0258,-0.2073,-17.2025,-37.135,53.9263,-6.80472011079621,-20.536232412358263,-2.5134564436611453,3.6609999999927823
-0.4197,0.7532,-0.1633,0.006,-0.022,-0.1988,-21.14,-40.25,52.8937,-11.982989087721986,-28.435027675604545,-2.8738741422836074,3.6710000000020955
-0.4163,0.6756,-0.1392,0.006,-0.022,-0.1988,-21.14,-40.25,52.8937,-11.657934100510857,-31.066219137842033,-3.2306876633587924,3.680999999996857
-0.4163,0.6756,-0.1392,0.0074,-0.0206,-0.1859,-20.965,-40.8975,53.4975,-11.642976140416403,-31.110885731049713,-3.1983807867252043,3.680999999996857
-0.3525,0.5449,-0.1815,0.0074,-0.0206,-0.1859,-10.5437,-40.1712,55.6675,-17.813027701550162,-31.532801119182544,-3.5511691219162995,3.69100000000617
0.0484,0.6174,0.1028,0.0074,-0.0206,-0.1859,12.5212,-40.4688,52.8237,7.497102106734385,3.8108291408259167,-3.903375813194023,3.7010000000009313
-0.0928,0.6243,-0.1571,0.0034,-0.0166,-0.1874,12.5212,-40.4688,52.8237,-12.573511683458792,-7.998670111354678,-4.2520604381231735,3.7110000000102445
-0.144,0.8969,-0.0279,0.0034,-0.0166,-0.1874,43.8988,-33.6,31.4037,-2.01987824083262,-9.086957748489372,-4.529257095809202,3.720999999990454
-0.144,0.8969,-0.1513,0.0064,-0.0078,-0.1999,54.8363,-25.5063,18.8738,-9.440892465099468,-8.999832172522737,-4.4839645248511095,3.720999999990454
-0.0178,1.0182,-0.1513,0.0064,-0.0078,-0.1999,54.8363,-25.5063,23.66,-8.46962997494991,-1.2604724894667494,-4.678714512525733,3.730999999999767
-0.0057,1.1654,-0.2107,0.0066,-0.0012,-0.2138,52.535,-19.8275,23.66,-10.215195106910535,-0.3089352954980653,-4.815296880004414,3.7409999999945285
-0.0007,1.1998,-0.0676,0.0066,-0.0012,-0.2138,53.9,-24.2288,34.8425,-3.3511600669944284,-0.04011810937428296,-4.994086294115727,3.7510000000038417
-0.1601,1.211,-0.2014,0.0066,-0.0012,-0.2138,47.9063,-30.9225,34.8075,-9.318878009808264,-7.24922228607208,-4.94414543117457,3.7510000000038417
-0.3292,1.1581,-0.2009,0.0074,0.009,-0.2222,47.9063,-30.9225,34.8075,-9.830783517467811,-15.44061989857399,-5.18791398940922,3.760999999998603
-0.3292,1.1581,-0.2009,0.0074,0.009,-0.2222,32.34,-31.4387,35.63,-9.841062996303776,-15.641334082852614,-5.434355242492961,3.7710000000079162
-0.4374,1.0571,-0.2115,0.0045,0.0138,-0.2138,13.1687,-33.775,55.44,-11.213111666044014,-21.97916967900903,-5.701461452599634,3.7810000000026776
-0.3257,0.8209,-0.0517,0.0045,0.0138,-0.2138,0.595,-42.2363,82.9675,-7.385193862212254,-21.606568255178356,-6.049663470561358,3.790999999997439
-0.0769,0.7438,0.1701,0.0045,0.0138,-0.2138,0.595,-42.2363,82.9675,2.8099797756224647,-5.933304780430217,-5.989166835855744,3.790999999997439
-0.1381,0.5764,-0.0924,-0.0024,0.0184,-0.2074,7.1925,-51.205,97.4837,-7.723174034984007,-13.238512559791232,-6.917288693098471,3.8110000000015134
-0.1381,0.5764,0.1419,-0.0024,0.0184,-0.2074,26.8363,-63.6738,99.3562,13.067381099868687,-13.09792941976127,-6.8481158061674865,3.8110000000015134
0.0193,0.7536,0.1527,-0.0127,0.0257,-0.2238,50.7938,-59.3775,97.2825,11.485496899206982,1.2971343010469931,-7.354549161341242,3.8210000000108266
-0.1065,0.8755,-0.4169,-0.0127,0.0257,-0.2238,50.7938,-59.3775,97.2825,-24.755413872709887,-6.194363305017056,-7.85591818212665,3.831000000005588
-0.0658,0.9378,-0.228,-0.0127,0.0257,-0.2238,52.4738,-69.86,104.8163,-13.87055675009968,-3.9209838778341473,-8.456050262649837,3.8410000000003492
0.0227,1.0435,-0.3059,-0.0214,0.0353,-0.224,46.7425,-64.89,121.9137,-16.287153917515234,1.1558940136598697,-8.371489760023339,3.8410000000003492
0.0554,0.7907,-0.2685,-0.0214,0.0353,-0.224,31.0275,-77.1838,124.9762,-18.67997995699254,3.7755063982718524,-9.038971745822712,3.8510000000096625
0.0554,0.7907,-0.2685,-0.0326,0.0438,-0.2338,31.0275,-77.1838,124.9762,-18.75373068401945,3.795503410983055,-9.699778910670956,3.861000000004424
0.0655,0.9299,-0.2398,-0.0326,0.0438,-0.2338,34.8512,-73.3775,121.9837,-14.578611891957493,3.9010588593338325,-10.316295633890459,3.870999999999185
0.1171,0.9014,-0.1665,-0.0326,0.0438,-0.2338,43.9775,-77.1488,112.4375,-10.55591129811537,7.251466959929756,-10.963983060950838,3.8810000000084983
0.13,1.0816,-0.0246,-0.0386,0.053,-0.2413,46.1388,-78.5225,115.4388,-1.497485527124488,6.855169826454638,-10.85434323034133,3.8810000000084983
0.0332,0.9645,-0.2804,-0.0386,0.053,-0.2413,46.1388,-78.5225,115.4388,-15.900858241192546,1.9339887763952108,-11.510249810337445,3.8910000000032596
0.0332,0.9645,-0.1559,-0.049,0.0612,-0.2401,32.6287,-91.2975,142.4413,-9.379123333698022,1.9461329021927667,-12.286069825763807,3.901000000012573
0.1771,0.611,-0.1559,-0.049,0.0612,-0.2401,36.26,-89.9238,160.6588,-14.182940839223644,15.605191502115181,-13.040532009746565,3.911000000007334
0.2406,0.7218,-0.0562,-0.059,0.0715,-0.2411,36.26,-89.9238,123.5325,-4.710386562364831,18.36162565597579,-13.787449571889496,3.9210000000020955
0.2147,0.728,-0.2893,-0.059,0.0715,-0.2411,53.8913,-79.6687,123.5325,-21.365704197805925,15.350129404716716,-13.649575076170601,3.9210000000020955
0.1807,0.9278,-0.2869,-0.059,0.0715,-0.2411,67.3575,-67.9963,95.2438,-17.243792882199177,10.587915213915922,-14.173319957763015,3.930999999996857
0.2821,1.007,-0.2587,-0.0655,0.0839,-0.255,68.355,-58.3275,103.4163,-14.448457669716236,15.13852963151596,-14.596106271411134,3.94100000000617
0.2821,1.007,-0.2587,-0.0655,0.0839,-0.255,68.355,-58.3275,103.4163,-14.408393976046675,15.180110429446255,-15.014664721101289,3.9510000000009313
0.4307,0.9355,-0.1758,-0.0699,0.0958,-0.251,52.9375,-75.5125,112.49,-10.71222545394191,24.268245714457418,-15.599169087274474,3.9610000000102445
0.5494,0.7512,-0.1081,-0.0699,0.0958,-0.251,39.2175,-90.7725,119.1925,-8.25092299739998,35.808110903571325,-15.44317739640173,3.9610000000102445
0.7225,0.5944,-0.0588,-0.0699,0.0958,-0.251,28.84,-83.3875,134.3825,-5.735482731884697,50.31490436946653,-16.10135913471201,3.971000000005006
0.9191,0.5269,-0.0694,-0.0808,0.103,-0.2598,28.84,-83.3875,134.3825,-7.4450211540370805,59.89351839946936,-16.752959056821695,3.981000000014319
0.9191,0.6362,-0.1932,-0.0808,0.103,-0.2598,39.585,-71.925,142.8087,-16.6619757355268,54.15635934851869,-17.284564227569845,3.9909999999945285
0.9176,0.6309,-0.1932,-0.0963,0.1168,-0.2619,64.6888,-66.6137,140.7525,-17.02060912915958,54.280357341324105,-17.758271478596296,4.001000000003842
1.1494,0.2655,0.0578,-0.0963,0.1168,-0.2619,113.5488,-18.1825,113.3037,12.02691668246033,76.51154944723568,-17.747772776422803,4.010999999998603
0.0224,1.6211,0.0783,-0.0963,0.1168,-0.2619,113.5488,-18.1825,113.3037,2.845827672023792,1.4252903277298827,-17.570295048658576,4.010999999998603
0.7829,1.407,-0.4848,-0.0986,0.1296,-0.2763,86.8613,-19.075,-12.6875,-18.764449981987,24.70957614163426,-17.57051186103583,4.021000000007916
0.6184,1.6745,-0.6861,-0.0986,0.1296,-0.2763,-5.8012,-47.5387,69.3175,-21.729811691868445,18.944455158807564,-17.85251713488569,4.0310000000026776
0.6184,1.6745,-0.6861,-0.1088,0.1299,-0.2629,-12.775,-47.985,95.6637,-22.239359589975003,18.867668603905713,-17.673991963536835,4.0310000000026776
0.2928,1.2532,-0.0967,-0.1088,0.1299,-0.2629,-12.775,-47.985,95.6637,-5.74692568809422,13.169749182841713,-17.959380807031856,4.041000000011991
0.5633,0.1086,-0.4429,-0.1088,0.1299,-0.2629,-61.95,-92.3213,21.1225,-75.09575369082636,49.614204195584655,-18.6808451311895,4.051000000006752
0.4895,0.7191,0.0423,-0.1071,0.1257,-0.2602,-34.9212,26.88,24.08,1.1565015337253346,34.70968445260179,-18.215001942723784,4.061000000001513
0.6378,0.6377,-0.0656,-0.1071,0.1257,-0.2602,-14.0,39.8037,23.6863,-5.391273049680395,44.512279149522094,-17.62587255620975,4.070999999996275
0.6378,0.5441,0.014,-0.1213,0.1253,-0.2538,-14.0,39.8037,23.6863,1.0031511380275049,49.354846446528875,-17.042634462968625,4.081000000005588
0.6557,0.5441,0.014,-0.1213,0.1253,-0.2538,22.435,36.2075,37.3275,1.4541903499665634,50.28287486936087,-16.87220811833894,4.081000000005588
0.4593,0.77,-0.0292,-0.1346,0.1303,-0.2584,31.8587,46.6113,56.3237,-2.0627691383461983,31.11021737852533,-16.22911143010406,4.091000000000349
0.5619,0.6823,-0.1652,-0.1346,0.1303,-0.2584,31.8587,44.3713,38.465,-13.263616836550845,38.504140401697484,-15.614621708081875,4.1010000000096625
0.4073,0.539,-0.7879,-0.1346,0.1303,-0.2584,15.2863,44.5725,38.465,-53.08807566974801,23.452116328848202,-15.004285003938993,4.111000000004424
0.2291,0.9956,-0.5352,-0.1488,0.1363,-0.2522,34.9825,48.6413,24.57,-28.943000286430426,11.84973014190976,-14.854242153899602,4.111000000004424
0.2291,0.9956,-0.5352,-0.1488,0.1363,-0.2522,42.7612,43.61,0.2713,-28.2763706839842,11.519955081088906,-14.26103799529355,4.120999999999185
0.4036,1.0429,-0.4501,-0.155,0.1402,-0.2529,42.7612,43.61,0.2713,-23.455943050716424,18.28373373197625,-13.67376587827356,4.130999999993946
0.5417,0.9007,-0.5357,-0.155,0.1402,-0.2529,19.7663,31.5613,16.4237,-30.398502556259768,26.931491280969706,-13.081496768941276,4.1450000000040745
0.4757,0.8409,-0.2195,-0.155,0.1402,-0.2529,24.5875,20.7025,28.14,-15.235861798799805,28.643054466578462,-12.950681801251864,4.1450000000040745
0.4626,0.7167,-0.1933,-0.1638,0.1445,-0.2633,25.9438,-3.045,14.595,-15.099185747294523,31.771297055408123,-12.838397745955385,4.155000000013388
0.4626,0.6943,-0.2161,-0.1638,0.1445,-0.2633,25.9438,-3.045,14.595,-17.208665241358467,32.430106347894004,-12.72723653118681,4.165000000008149
0.4427,0.6943,-0.2161,-0.17,0.1485,-0.2592,26.9762,9.2487,19.215,-17.285869402391842,31.37702751158747,-12.495479298629677,4.17500000000291
0.4272,0.7915,-0.1713,-0.17,0.1485,-0.2592,32.4975,25.55,29.2337,-12.361479894070568,27.91371176728938,-12.104656768482661,4.184999999997672
0.4268,0.8614,-0.2783,-0.17,0.1485,-0.2592,33.6087,22.435,27.615,-17.746284480754866,25.322188590937724,-11.983610200797834,4.184999999997672
0.4053,0.9137,-0.3712,-0.1771,0.1537,-0.258,33.6087,22.435,27.615,-21.985369176269046,22.42940686945077,-11.628744861270967,4.195000000006985
0.3849,0.9536,-0.3728,-0.1771,0.1537,-0.258,31.7887,23.485,32.2438,-21.37155542994686,20.65011373086353,-11.267033175486828,4.205000000001746
0.3849,0.9536,-0.3728,-0.1869,0.1598,-0.2687,22.5925,23.1087,34.2475,-21.353290231727154,20.603555808611976,-10.912663976206861,4.2150000000110595
0.4432,0.9342,-0.3716,-0.1869,0.1598,-0.2687,13.3525,16.0125,29.2425,-21.668462883708358,23.69863595942558,-10.632090849234608,4.225000000005821
0.486,0.8816,-0.3657,-0.1869,0.1598,-0.2482,13.3525,16.0125,29.2425,-22.47106939189917,26.89197123315732,-10.525769940742261,4.225000000005821
0.4787,0.8213,-0.2879,-0.1944,0.1629,-0.2568,10.9375,8.7762,29.6275,-19.572932830337063,28.75872238112275,-10.320705123941886,4.235000000015134
0.485,0.7657,-0.2616,-0.1944,0.1629,-0.2568,7.9538,5.845,31.1938,-18.938434750267913,30.879538652424134,-10.146709835542561,4.244999999995343
0.4934,0.7504,-0.2767,-0.2006,0.1662,-0.2528,7.4025,4.9612,28.6038,-20.093118401362254,31.64809638386799,-9.983204119829356,4.255000000004657
0.4934,0.7504,-0.2767,-0.2006,0.1662,-0.2528,7.4025,4.9612,28.6038,-20.22403819550838,31.670291211208205,-9.883372078631062,4.255000000004657
0.4687,0.781,-0.2782,-0.2072,0.166,-0.2574,7.9012,4.1562,25.9438,-19.672687144117685,29.549378300830785,-9.676400123222722,4.275000000008731
0.4801,0.7855,-0.3179,-0.2072,0.166,-0.2574,0.6125,2.3363,28.5075,-20.87050782340393,29.534717985926186,-9.579636121990495,4.275000000008731
0.5144,0.784,-0.3773,-0.2072,0.166,-0.2574,-6.1075,-1.0325,34.7287,-24.977434263744495,30.566511637169917,-9.481138773472004,4.2850000000034925
0.5392,0.7494,-0.3953,-0.2131,0.1694,-0.2606,-5.3113,-1.0325,34.7287,-27.330362401358894,32.425848475488664,-9.38362639843477,4.295000000012806
0.5392,0.7494,-0.3953,-0.2131,0.1694,-0.2606,-5.5825,-4.5937,39.0337,-27.73315649508078,32.47158302386276,-9.28979013445042,4.295000000012806
0.5558,0.7063,-0.4127,-0.2183,0.1701,-0.2519,-3.6837,-3.8937,41.7638,-29.697046714324784,34.15745612480839,-9.222517125792491,4.305000000007567
0.5662,0.6722,-0.4214,-0.2183,0.1701,-0.2519,-3.6837,-3.8937,41.7638,-31.524116581829063,35.485822032078914,-9.15591684722114,4.315000000002328
0.5865,0.6518,-0.3848,-0.2183,0.1701,-0.2519,0.07,-1.435,41.8075,-31.20697114403428,37.72290069914887,-9.065641441448257,4.32499999999709
0.5853,0.6277,-0.3589,-0.2253,0.1755,-0.2561,5.6875,-0.8487,39.5675,-29.963338749596915,38.9615551869988,-8.970464419729565,4.335000000006403
0.5751,0.6448,-0.3453,-0.2253,0.1755,-0.2561,13.1862,0.0175,38.6925,-28.292534213643727,38.19414948361655,-8.880759775532269,4.335000000006403
0.5751,0.6448,-0.3453,-0.2334,0.1779,-0.2506,13.1862,0.0175,38.6925,-28.178122809624643,38.17698790022688,-8.778856190483808,4.345000000001164
0.5743,0.6629,-0.3297,-0.2334,0.1779,-0.2506,20.5362,2.7738,39.9087,-26.522913135019675,37.80891633146179,-8.650684271241358,4.355000000010477
0.5754,0.6883,-0.3256,-0.2334,0.1779,-0.2506,28.49,5.6962,40.9063,-25.35680828671259,37.09339461326225,-8.494862311265257,4.365000000005239
0.5629,0.7313,-0.3134,-0.239,0.1849,-0.249,37.4675,10.8062,38.0363,-23.253172141258165,35.32035520394122,-8.29000957091542,4.375
0.547,0.8026,-0.3012,-0.239,0.1849,-0.249,37.4675,10.8062,38.0363,-20.639125791836218,32.60430185049133,-8.207109475206265,4.375
0.547,0.8026,-0.3012,-0.2476,0.1894,-0.2555,39.2525,16.6775,31.3075,-20.57182247088256,32.5429158595979,-7.947008393247465,4.384999999994761
0.5472,0.8669,-0.3046,-0.2476,0.1894,-0.2555,34.9388,21.7612,22.96,-19.393127019435248,30.835774672143575,-7.6391796918023145,4.3950000000040745
0.5461,0.9423,-0.2849,-0.2476,0.1894,-0.2485,25.6725,21.1488,14.4025,-16.91734124206728,29.107779242994386,-7.340492037700745,4.404999999998836
0.5392,0.9753,-0.2922,-0.2541,0.1962,-0.2485,25.6725,21.1488,14.4025,-16.687049316834464,27.964450567107697,-7.044791259816709,4.415000000008149
0.5491,0.9678,-0.2911,-0.2541,0.1962,-0.2485,11.2,15.3825,8.12,-16.73627642219681,28.477264390397718,-6.974343347218541,4.415000000008149
0.5487,0.9299,-0.2758,-0.2557,0.1969,-0.2515,-1.5137,8.5312,2.94,-16.623104091871678,29.383342011989992,-6.709836679106678,4.435000000012224
0.5487,0.9299,-0.2758,-0.2557,0.1969,-0.2515,-11.6812,2.24,-2.5638,-16.52830085515652,29.464233609914274,-6.607639575085073,4.444999999992433
0.5401,0.8942,-0.2935,-0.2545,0.1942,-0.2414,-11.6812,2.24,-2.5638,-18.037236858297568,29.739015577584208,-6.541563179334222,4.444999999992433
0.5368,0.8527,-0.307,-0.2545,0.1942,-0.2414,-18.5238,-0.735,-6.265,-19.708253767924045,30.237236975019407,-6.470501310235621,4.455000000001746
0.5453,0.8064,-0.3233,-0.2545,0.1942,-0.2414,-24.675,-2.345,-7.77,-21.762055095631716,31.613357391664945,-6.416089059827873,4.4649999999965075
0.5409,0.7515,-0.3352,-0.2538,0.1914,-0.2499,-25.375,-4.41,-9.8962,-23.951131383060254,33.0279848520106,-6.3826644319582195,4.475000000005821
0.5409,0.7515,-0.3352,-0.2538,0.1914,-0.2499,-25.375,-4.41,-9.8962,-24.03546375905846,33.26888674358773,-6.349574050322535,4.485000000000582
0.5224,0.7069,-0.3318,-0.2541,0.1887,-0.2385,-22.0325,-3.1063,-11.4888,-25.0950858531389,33.712856955353416,-6.303907942535915,4.495000000009895
0.5248,0.6683,-0.33,-0.2541,0.1887,-0.2385,-16.5462,1.8288,-13.02,-26.210549892843503,34.99011845697442,-6.234663291671867,4.497000000003027
0.5026,0.7041,-0.2963,-0.2541,0.1887,-0.2385,-16.5462,1.8288,-15.0238,-23.020179994326302,33.492134939642874,-6.141288801471403,4.506999999997788
0.5195,0.719,-0.3228,-0.2542,0.186,-0.2302,-12.81,7.28,-15.0238,-24.091571113940365,33.400038835903764,-6.079875913456689,4.506999999997788
0.5319,0.7313,-0.3392,-0.2542,0.186,-0.2302,-15.4175,6.9388,-14.4113,-24.833871198687167,33.41570535828986,-5.93746029694611,4.517000000007101
0.5319,0.7313,-0.3392,-0.2529,0.1848,-0.2318,-15.9775,5.5475,-10.2288,-24.88036890019441,33.41710529275438,-5.81024270671219,4.527000000001863
0.5372,0.7121,-0.3262,-0.2529,0.1848,-0.2318,-15.9775,5.5475,-10.2288,-24.627877190430123,34.27884229322569,-5.6842972923806085,4.536999999996624
0.5409,0.7111,-0.3381,-0.2529,0.1848,-0.2318,-17.2813,1.785,-9.1438,-25.384385063882814,34.44667765579343,-5.596860082128309,4.547000000005937
0.5483,0.7227,-0.344,-0.2503,0.1842,-0.2323,-17.8412,-1.4088,-11.4187,-25.45032750451027,34.41720412270814,-5.540891481307026,4.547000000005937
0.5523,0.7351,-0.3506,-0.2503,0.1842,-0.2323,-20.1163,-6.1337,-9.7475,-25.496106774653132,34.190875787960174,-5.5332834591689135,4.5570000000006985
0.5523,0.7351,-0.3584,-0.2489,0.1811,-0.2194,-20.1163,-6.1337,-9.7475,-25.967732288149847,34.06021561831021,-5.525751517252183,4.56699999999546
0.5794,0.6952,-0.3584,-0.2489,0.1811,-0.2194,-20.4225,-14.0175,-2.45,-27.2105684884682,35.839221212587695,-5.5963445148968685,4.577000000004773
0.5753,0.6453,-0.3131,-0.2491,0.1811,-0.2237,-14.5162,-19.4425,4.97,-25.9706381508822,38.469696272785804,-5.719939082615126,4.587000000014086
0.5427,0.6447,-0.3051,-0.2491,0.1811,-0.2237,-9.1875,-17.29,9.345,-25.39156954328723,37.34519800106336,-5.662739691788975,4.587000000014086
0.5653,0.6504,-0.3099,-0.2491,0.1811,-0.2237,-9.1875,-17.29,9.345,-25.467968502080286,38.068822803887024,-5.7643605574881835,4.597000000008848
0.572,0.6857,-0.3101,-0.2509,0.1806,-0.2182,-10.5962,-12.2063,12.8013,-24.43572803623864,37.281622523907494,-5.814636584556766,4.607000000003609
0.572,0.6857,-0.3101,-0.2509,0.1806,-0.2182,-11.9175,-12.7225,16.5812,-24.342431046454614,37.239414146426995,-5.869520231351985,4.61699999999837
0.5894,0.6691,-0.3197,-0.2533,0.1792,-0.2222,-12.67,-19.215,21.9363,-25.44848146883922,38.43396511613113,-5.988130791903594,4.627000000007683
0.5918,0.63,-0.3068,-0.2533,0.1792,-0.2222,-12.67,-19.215,21.9363,-25.92634631050457,40.120045501971966,-5.928249483984558,4.627000000007683
0.5762,0.594,-0.2913,-0.2533,0.1792,-0.2222,-10.6838,-20.3438,26.1537,-26.106017988321153,41.02494264336443,-6.057447871745974,4.637000000002445
0.5854,0.5933,-0.2888,-0.2527,0.1818,-0.2141,-8.7238,-18.3575,24.5175,-25.97156571931093,41.5601312323203,-6.165689905885737,4.647000000011758
0.5854,0.5933,-0.3144,-0.2527,0.1818,-0.2141,-5.845,-18.4713,20.6238,-27.616781723436723,41.10104199366289,-6.273976139437852,4.657000000006519
0.5838,0.6274,-0.3144,-0.2545,0.1827,-0.2168,-5.845,-18.4713,20.6238,-26.771840452173457,39.807473517514275,-6.211236378043473,4.657000000006519
0.5866,0.6468,-0.3537,-0.2545,0.1827,-0.2168,-5.1188,-22.6625,23.03,-28.338618688878178,38.554652123123155,-6.360560027159954,4.6670000000158325
0.55,0.6669,-0.3396,-0.2545,0.1827,-0.2168,-4.9525,-24.5088,28.0525,-27.23051740240466,36.37845939645512,-6.526668809133736,4.676999999996042
0.5452,0.6784,-0.3684,-0.2543,0.1872,-0.2147,-4.9525,-28.9888,30.8962,-28.273798907215994,35.26236406186208,-6.735468503997643,4.687000000005355
0.5324,0.7182,-0.3684,-0.2543,0.1872,-0.2147,-7.6737,-27.0725,30.8962,-27.290956549525934,33.4584726485309,-6.92320883152403,4.697000000000116
0.5324,0.7182,-0.3684,-0.2576,0.1858,-0.2166,-8.0588,-30.45,33.0838,-27.171185731755358,33.409537343235264,-7.142509006177506,4.70700000000943
0.5219,0.7376,-0.3565,-0.2576,0.1858,-0.2166,-11.1737,-38.9463,36.3387,-25.912613318177982,32.520971651698716,-7.071083916115731,4.70700000000943
0.5117,0.7437,-0.3669,-0.2576,0.1858,-0.2166,-11.1737,-38.9463,36.3387,-26.22967842273713,31.696238584068244,-7.373018709459356,4.717000000004191
0.503,0.741,-0.3479,-0.259,0.1858,-0.2143,-13.9125,-46.305,38.6225,-25.224566239735065,31.571884899829126,-7.744785285479663,4.727000000013504
0.4923,0.7197,-0.3502,-0.259,0.1858,-0.2143,-19.95,-51.8438,37.2225,-25.911974273432403,31.59442595698058,-8.167668314334682,4.736999999993714
0.4923,0.7042,-0.3456,-0.2598,0.1862,-0.2141,-27.5275,-51.5462,32.0775,-26.132277593326805,32.09823163740774,-8.58337627435456,4.747000000003027
0.4995,0.7042,-0.3456,-0.2598,0.1862,-0.2141,-27.5275,-51.5462,32.0775,-26.14011471847407,32.477327221540996,-8.497542511611014,4.747000000003027
0.5259,0.7004,-0.3435,-0.2562,0.185,-0.2098,-32.6463,-49.6912,25.6375,-26.125361964398934,33.93809329180745,-8.89158722894396,4.756999999997788
0.5527,0.6731,-0.3534,-0.2562,0.185,-0.2098,-34.6237,-49.455,19.11,-27.656220660804653,35.93491336086794,-9.279353119798465,4.767000000007101
0.5566,0.6651,-0.3267,-0.2562,0.185,-0.2098,-34.8338,-45.0187,13.3962,-26.202703763284518,36.86139278983387,-9.61932198107377,4.777000000001863
0.594,0.6547,-0.3189,-0.2549,0.183,-0.2102,-34.8338,-45.0187,13.3962,-25.976963133696156,39.08246004315632,-9.523128761263031,4.777000000001863
0.594,0.6547,-0.3189,-0.2549,0.183,-0.2102,-36.68,-36.7762,5.74,-25.9705800786711,39.19278818989594,-9.779059116677445,4.787000000011176
0.6339,0.6593,-0.2967,-0.2504,0.1807,-0.2022,-35.6388,-30.7738,-3.0888,-24.27691542349617,40.54495950845875,-9.973006408057838,4.797000000005937
0.6486,0.685,-0.2768,-0.2504,0.1807,-0.2022,-31.6138,-31.9113,-10.92,-22.073647939434725,41.173206904130794,-10.176275476518528,4.8070000000006985
0.6537,0.7022,-0.2749,-0.2504,0.1807,-0.2022,-31.6138,-31.9113,-10.92,-21.401101998555223,40.957610936584814,-10.377511854294612,4.81699999999546
0.6513,0.7158,-0.2609,-0.2443,0.1799,-0.2104,-29.1025,-35.8925,-15.7937,-20.072472684612503,40.56297260164261,-10.616149748770562,4.827000000004773
0.6513,0.7124,-0.2666,-0.2443,0.1799,-0.2104,-30.0212,-37.135,-20.1338,-20.502720933707163,40.57095565390245,-10.509988251282856,4.827000000004773
0.6475,0.7124,-0.2666,-0.2408,0.1746,-0.1988,-31.1588,-35.1225,-24.5613,-20.516796552381955,40.41395899723903,-10.739678381294642,4.836999999999534
0.6512,0.7239,-0.2878,-0.2408,0.1746,-0.1988,-31.1588,-35.1225,-24.5613,-21.644536555712115,39.91862887953195,-10.967071610493493,4.847000000008848
0.6664,0.7326,-0.2962,-0.2408,0.1746,-0.1988,-30.4675,-33.8537,-28.245,-22.002240169261118,40.13228715756954,-11.179629786919753,4.857000000003609
0.6536,0.7591,-0.296,-0.2326,0.1695,-0.1928,-28.5688,-32.1563,-31.6225,-21.326574405858647,38.78683460516726,-11.373258122035002,4.867000000012922
0.6493,0.7768,-0.3016,-0.2326,0.1695,-0.1928,-29.9513,-28.385,-35.1488,-21.222693440791584,37.953239849935784,-11.259525540814652,4.867000000012922
0.6493,0.7768,-0.3016,-0.2258,0.1649,-0.1922,-29.9513,-28.385,-35.1488,-21.219291302400865,37.92645752907656,-11.415019047575942,4.8769999999931315
0.6543,0.786,-0.2953,-0.2258,0.1649,-0.1922,-36.12,-23.4325,-39.6813,-20.608299988778036,37.92785634965743,-11.519927870004198,4.887000000002445
0.6568,0.7788,-0.3019,-0.2258,0.1649,-0.1718,-43.785,-19.6087,-43.8725,-21.175623369082643,38.172874278043864,-11.585931983909228,4.896999999997206
0.6758,0.7624,-0.2811,-0.216,0.161,-0.1838,-43.785,-19.6087,-46.9,-20.26024435482887,39.71289787677683,-11.651276056938894,4.907000000006519
0.6952,0.7357,-0.2861,-0.216,0.161,-0.1838,-49.8312,-15.5925,-46.9,-21.230494522834764,41.3317284446803,-11.676206308995408,4.917000000001281
0.6952,0.7269,-0.2945,-0.2097,0.1568,-0.18,-52.1413,-12.6088,-48.1162,-22.03945118386715,41.54888847755229,-11.559444245905453,4.917000000001281
0.6997,0.7269,-0.2945,-0.2097,0.1568,-0.18,-51.1087,-10.9462,-48.1512,-22.054788485918206,41.73322671868842,-11.539294446235289,4.927000000010594
0.6968,0.7214,-0.2963,-0.2053,0.1509,-0.1738,-51.1087,-10.9462,-48.1512,-22.3240722924579,41.778827149270505,-11.519346144284045,4.936999999990803
0.7063,0.7001,-0.2981,-0.2053,0.1509,-0.1738,-50.1813,-8.1025,-46.6287,-23.049547804580396,42.842371303730204,-11.471444695603875,4.947000000000116
0.6904,0.7086,-0.2852,-0.2053,0.1509,-0.1738,-46.83,-3.7538,-43.8375,-21.947724673074656,42.127370375668676,-11.356730248647835,4.947000000000116
0.6878,0.7086,-0.2858,-0.1982,0.1485,-0.1686,-44.2137,-0.5688,-40.0925,-21.965322160834013,41.99679110326043,-11.235871328865178,4.956999999994878
0.6878,0.7086,-0.2858,-0.1982,0.1485,-0.1686,-44.2137,-0.5688,-40.0925,-21.96571499328282,41.99317079130612,-11.116220998269736,4.967000000004191
0.683,0.7097,-0.2828,-0.193,0.1428,-0.1602,-40.4075,1.9863,-36.0238,-21.732048514751426,41.8032957719274,-10.972471681004109,4.976999999998952
0.6746,0.7055,-0.2697,-0.193,0.1428,-0.1602,-35.9012,4.0512,-33.0313,-20.94319036080654,41.77118515775365,-10.862746964194068,4.976999999998952
0.6606,0.7139,-0.2557,-0.193,0.1428,-0.1602,-31.5263,8.1812,-31.8675,-19.744699528608155,41.086154701878094,-10.66020287716466,4.9870000000082655
0.6408,0.7424,-0.2533,-0.1892,0.1418,-0.1602,-31.5263,8.1812,-31.8675,-18.86736737251872,39.31171980954941,-10.459684231142214,4.997000000003027
0.6309,0.7621,-0.2536,-0.1892,0.1418,-0.1602,-30.275,11.3488,-31.1588,-18.420586715077075,38.1923166678014,-10.22981153159642,5.006999999997788
0.6309,0.7621,-0.2536,-0.1864,0.1374,-0.1511,-31.71,11.9438,-29.4438,-18.4060864348625,38.15116977064115,-9.99634705904917,5.016999999992549
0.6237,0.7535,-0.2544,-0.1864,0.1374,-0.1511,-33.2588,11.7163,-27.0462,-18.6485552521074,38.10714034276004,-9.767469481038617,5.027000000001863
0.6057,0.7412,-0.2659,-0.1864,0.1374,-0.1511,-33.2588,11.7163,-27.0462,-19.70296568562927,37.59058043456218,-9.66979478622823,5.027000000001863
0.5905,0.7348,-0.2693,-0.1843,0.1346,-0.1482,-33.39,12.9237,-26.7575,-20.115097489131024,37.06047250041448,-9.432229471139744,5.036999999996624
0.5762,0.7393,-0.2876,-0.1843,0.1346,-0.1482,-32.3312,13.055,-26.635,-21.222173699768387,36.040356357486615,-9.195739938995942,5.047000000005937
0.5762,0.7393,-0.2876,-0.183,0.133,-0.1348,-29.8813,13.0813,-25.1475,-21.255724442760346,35.995387471515286,-8.961354932380596,5.0570000000006985
0.5684,0.7446,-0.2798,-0.183,0.133,-0.1348,-29.8813,13.0813,-25.1475,-20.616520194529407,35.5698853545794,-8.87174138305679,5.0570000000006985
0.5549,0.7462,-0.2858,-0.183,0.133,-0.1379,-26.3988,11.375,-21.4813,-20.944574973309944,34.82309150977708,-8.657488731809309,5.067000000010012
0.532,0.7577,-0.2769,-0.1823,0.1316,-0.1379,-22.6975,9.5813,-16.9137,-20.11209707626608,33.51369247628433,-8.463136237247678,5.077000000004773
0.5123,0.7598,-0.2522,-0.1823,0.1316,-0.1379,-22.6975,9.5813,-14.7175,-18.437678389090248,32.70011522357965,-8.270727267631662,5.086999999999534
0.4954,0.7536,-0.2455,-0.1822,0.1286,-0.1398,-21.0175,8.1025,-14.7175,-18.062260828062488,32.072115025380455,-8.094882507704137,5.096999999994296
0.4954,0.7536,-0.2455,-0.1822,0.1286,-0.1398,-21.9538,8.7675,-14.945,-18.044845511259798,32.013261614513986,-7.914212695234223,5.107000000003609
0.4896,0.7495,-0.2441,-0.1803,0.1279,-0.126,-25.27,11.4187,-16.5725,-18.039793146026273,31.85879362251527,-7.709102700864564,5.117000000012922
0.4923,0.747,-0.2445,-0.1803,0.1279,-0.126,-25.27,11.4187,-16.5725,-18.120502207170723,32.04445448925443,-7.632011673855919,5.117000000012922
0.5044,0.7413,-0.2546,-0.1803,0.1279,-0.126,-28.735,12.1713,-20.0375,-18.926603397566506,32.71762649250258,-7.422272949887253,5.127000000007683
0.5264,0.7236,-0.2676,-0.1762,0.1251,-0.1148,-31.6138,12.1975,-22.9425,-20.25276970261341,34.222158093894954,-7.21437223315841,5.137000000002445
0.5264,0.7236,-0.2676,-0.1762,0.1251,-0.1148,-30.2663,10.2113,-23.8787,-20.29390176917511,34.30189431276435,-7.028213903586554,5.146999999997206
0.5395,0.702,-0.2705,-0.1774,0.1242,-0.1227,-30.2663,10.2113,-23.8787,-21.047795705755686,35.57748985713872,-6.843917157144504,5.157000000006519
0.5377,0.6948,-0.2522,-0.1774,0.1242,-0.1227,-24.5525,7.525,-24.1238,-19.99366954726972,36.01134288185598,-6.775477985573059,5.157000000006519
0.5293,0.6965,-0.2346,-0.1774,0.1242,-0.1227,-18.2,7.1487,-23.1437,-18.688319831997966,35.77401940580039,-6.624028338461174,5.167000000001281
0.5164,0.7032,-0.2216,-0.1772,0.1221,-0.115,-14.7875,7.9625,-22.0763,-17.569129088843855,35.04996198717105,-6.466036567691112,5.177000000010594
0.528,0.7005,-0.2173,-0.1772,0.1221,-0.115,-14.7875,7.9625,-22.0763,-17.256042839748783,35.711511568154606,-6.3004495659970186,5.188000000009197
0.528,0.7005,-0.2173,-0.1745,0.1213,-0.1175,-13.2913,8.1375,-19.95,-17.235826039872485,35.747870894576074,-6.2280966717071715,5.188999999998487
0.5322,0.6895,-0.2142,-0.1745,0.1213,-0.1175,-9.485,8.505,-17.1763,-17.25572927421551,36.34527052576295,-6.068693467599648,5.1990000000078
0.5278,0.6762,-0.2063,-0.1745,0.1213,-0.1175,-4.9875,9.3713,-15.505,-17.018243280775447,36.70908082690093,-5.902307925679024,5.209000000002561
0.5209,0.6705,-0.2033,-0.1721,0.1217,-0.1144,-4.9875,9.3713,-15.505,-16.89468367033743,36.6362576707392,-5.843284846422233,5.209000000002561
0.5231,0.6733,-0.1997,-0.1721,0.1217,-0.1144,-0.6913,13.125,-13.7113,-16.814158948889002,36.675931243986646,-5.641991760524962,5.219000000011874
0.5231,0.6733,-0.2153,-0.1723,0.1211,-0.1151,2.0912,18.1038,-12.985,-17.47084303254171,36.52113651242215,-5.393421485720374,5.229000000006636
0.5322,0.6836,-0.2048,-0.1723,0.1211,-0.1151,4.865,21.1663,-11.8825,-16.803960436204015,36.6900674261497,-5.117018163679715,5.239000000001397
0.5449,0.7011,-0.2132,-0.1723,0.1222,-0.1128,4.865,21.1663,-11.8825,-16.896634776122305,36.64113001813062,-4.843378874859463,5.248999999996158
0.5549,0.7172,-0.2233,-0.1732,0.1222,-0.1128,10.0887,20.4225,-9.4937,-17.259428794805036,36.48840750071428,-4.794945086110868,5.248999999996158
0.5475,0.7313,-0.2211,-0.1732,0.1222,-0.1128,15.2163,17.255,-6.7638,-16.848370935638258,35.9410948013461,-4.563248397778631,5.2590000000054715
0.5402,0.7383,-0.219,-0.1746,0.1225,-0.1155,15.2163,15.015,-4.06,-16.54143221532163,35.503003230350764,-4.356044676585487,5.269000000000233
0.5402,0.7383,-0.219,-0.1746,0.1225,-0.1155,18.5413,14.945,-4.06,-16.522782619214077,35.27994075893022,-4.151605992369802,5.279000000009546
0.5368,0.7367,-0.2142,-0.1778,0.1261,-0.1245,21.9888,13.1687,-1.2687,-16.225383373628564,35.042837566332615,-3.966797065221171,5.289000000004307
0.5255,0.7422,-0.2069,-0.1778,0.1261,-0.1245,26.635,12.425,1.2163,-15.599779381922392,34.39828202349594,-3.7911988573401687,5.298999999999069
0.5095,0.7507,-0.2067,-0.1778,0.1261,-0.1245,26.635,12.425,1.2163,-15.401838069146741,33.36436111637846,-3.753286868766767,5.298999999999069
0.4939,0.7729,-0.202,-0.1804,0.1254,-0.1163,32.095,11.655,4.0512,-14.66935279544854,31.889204661529945,-3.5874467628463154,5.30899999999383
0.4939,0.7729,-0.202,-0.1804,0.1254,-0.1163,36.3213,11.865,8.8813,-14.647420287484605,31.737561733598145,-3.4211860577964206,5.319000000003143
0.4724,0.7982,-0.1959,-0.1809,0.13,-0.1326,39.3575,12.0662,12.9675,-13.810432915142883,29.98650131194884,-3.386974197218456,5.319000000003143
0.443,0.8234,-0.1949,-0.1809,0.13,-0.1326,39.3575,12.0662,12.9675,-13.329005667519786,27.758010588263847,-3.0883482205923336,5.339000000007218
0.4286,0.8531,-0.211,-0.1809,0.13,-0.1326,37.5288,12.9062,13.6588,-13.877883417824673,26.08819239511529,-3.05746473838641,5.339000000007218
0.438,0.8732,-0.2245,-0.1866,0.1308,-0.1328,30.17,13.1512,11.8475,-14.401372498176212,25.920610552787757,-2.8837704737775223,5.349000000001979
0.4564,0.8843,-0.2556,-0.1866,0.1308,-0.1328,19.95,11.2437,8.7762,-16.041020296681587,26.34248090032057,-2.7306974016240435,5.359000000011292
0.4564,0.8843,-0.2556,-0.1894,0.1336,-0.1385,19.95,11.2437,8.7762,-16.117756684057134,26.370985295301328,-2.5791550605536724,5.368999999991502
0.4865,0.8652,-0.2691,-0.1894,0.1336,-0.1385,11.83,5.9588,4.7337,-17.18955715154447,28.059494963956222,-2.4814486525811597,5.379000000000815
0.4961,0.8451,-0.2649,-0.1894,0.1336,-0.1385,8.3212,-1.96,0.455,-17.38180916349861,29.071052935158136,-2.456634166055348,5.379000000000815
0.4861,0.8349,-0.2532,-0.189,0.1325,-0.1408,6.9212,-8.8112,-4.4538,-16.932231787410085,29.09068051797445,-2.5063759670558663,5.388999999995576
0.4788,0.8187,-0.2594,-0.189,0.1325,-0.1408,6.9212,-8.8112,-4.4538,-17.50273920703931,29.108696527506787,-2.5556203501545127,5.399000000004889
0.4788,0.8187,-0.2678,-0.1902,0.1318,-0.1404,3.3338,-11.2262,-9.6075,-17.984651825601762,29.0748053380945,-2.5300641466529674,5.399000000004889
0.4832,0.8042,-0.2678,-0.1902,0.1318,-0.1404,-1.4525,-10.6313,-14.6213,-18.20499838276904,29.628431250583674,-2.5970906378380705,5.408999999999651
0.4914,0.7998,-0.2748,-0.1854,0.1322,-0.1346,-3.9462,-9.1263,-18.515,-18.79485054412461,30.122635413717628,-2.6485473642317996,5.419000000008964
0.4957,0.797,-0.2795,-0.1854,0.1322,-0.1346,-3.9462,-9.1263,-18.515,-19.20814610390478,30.38945871654803,-2.69948952324892,5.429000000003725
0.4875,0.8137,-0.2703,-0.1854,0.1322,-0.1346,-6.8425,-7.6737,-22.26,-18.487880551174857,29.663218108455954,-2.735541520683402,5.438999999998487
0.5339,0.761,-0.3007,-0.1828,0.1317,-0.1392,-14.0087,-7.455,-26.4075,-21.35025642200319,32.96927625491377,-2.7690678681446736,5.448999999993248
0.5339,0.761,-0.3007,-0.1828,0.1317,-0.1392,-16.2488,-8.2163,-30.9925,-21.548345748395818,33.11815115876997,-2.741377189463227,5.448999999993248
0.5356,0.7673,-0.2606,-0.1759,0.1278,-0.1395,-16.065,-8.2163,-30.9925,-18.926697486051555,33.44999974962563,-2.782382050332314,5.459000000002561
0.5517,0.7425,-0.2455,-0.1759,0.1278,-0.1395,-16.5637,-9.905,-34.3525,-18.332724565294395,35.14400172947049,-2.8396949924843904,5.4689999999973224
0.5605,0.7387,-0.2244,-0.1759,0.1278,-0.1395,-16.2138,-10.0275,-34.23,-16.983013622160215,35.95221666747156,-2.8976475553399657,5.479000000006636
0.5594,0.7289,-0.2307,-0.1725,0.129,-0.1358,-16.2138,-10.0275,-31.99,-17.52828593166797,36.1837552954012,-2.95502059244133,5.489000000001397
0.5594,0.7289,-0.2397,-0.1725,0.129,-0.1358,-14.0963,-8.4263,-32.7425,-18.15753669460841,36.096999720145305,-2.9254703865169165,5.489000000001397
0.556,0.7368,-0.2397,-0.1687,0.1261,-0.1338,-10.99,-4.76,-30.625,-18.032834824287164,35.67936135314191,-2.9304169453338305,5.498999999996158
0.5566,0.7646,-0.2518,-0.1687,0.1261,-0.1338,-9.5813,2.03,-27.23,-18.208688647807588,34.70513929849321,-2.86809303854974,5.5090000000054715
0.5687,0.798,-0.2722,-0.1687,0.1261,-0.1338,-9.5813,2.03,-27.23,-18.773064319852683,34.02994703817069,-2.8063923708815404,5.519000000000233
0.5624,0.826,-0.2689,-0.1666,0.1263,-0.123,-8.26,5.8187,-23.2838,-18.116150415586706,32.977787720762365,-2.7078005799096725,5.528999999994994
0.5446,0.8392,-0.2445,-0.1666,0.1263,-0.123,-7.735,5.2413,-19.2325,-16.468573146803642,31.994061210827315,-2.615910966750215,5.539000000004307
0.5446,0.8392,-0.2445,-0.1655,0.1231,-0.1314,-12.4687,2.94,-16.7738,-16.26067510273716,31.930256483325472,-2.589751857082713,5.539000000004307
0.5249,0.8421,-0.2234,-0.1655,0.1231,-0.1314,-12.4687,2.94,-16.7738,-14.965201850090493,31.135828891582072,-2.521825601172744,5.549000000013621
0.5464,0.8053,-0.1879,-0.1655,0.1231,-0.1314,-21.7875,3.1237,-13.3875,-13.21566535493046,33.20731723096592,-2.4527599778839866,5.559000000008382
0.571,0.7488,-0.1498,-0.164,0.1227,-0.1314,-25.8738,1.365,-10.3687,-11.384796794888283,36.22266759055004,-2.401796140818996,5.569000000003143
0.549,0.725,-0.1147,-0.164,0.1227,-0.1314,-18.2962,-3.5438,-6.72,-9.116922424119295,36.582237915774805,-2.3999390620991963,5.5789999999979045
0.549,0.725,-0.0855,-0.1641,0.1194,-0.1292,-18.2962,-3.5438,-6.72,-6.85253594313883,36.80998012621778,-2.3759396714782044,5.5789999999979045
0.4959,0.7297,-0.0855,-0.1641,0.1194,-0.1292,-8.2863,-7.8663,0.4112,-6.702076852731674,34.452227917592666,-2.4171339075239153,5.589000000007218
0.438,0.7508,-0.0817,-0.1672,0.1195,-0.126,-2.1962,-8.6275,9.73,-6.3872887003296634,30.38728283827393,-2.4654520811107012,5.599000000001979
0.4052,0.7789,-0.0824,-0.1672,0.1195,-0.126,-1.8463,-6.5975,19.1887,-6.182310933389496,27.474367154209435,-2.4931900730483885,5.609000000011292
0.3892,0.7902,-0.0971,-0.1672,0.1195,-0.126,-1.8463,-6.5975,19.1887,-6.666545454100829,26.108416943360904,-2.4682581723179045,5.609000000011292
0.3763,0.8125,-0.1105,-0.1722,0.1168,-0.1233,-3.5875,-4.7863,27.1775,-7.486171468440695,24.69494144753716,-2.4780372232766723,5.619000000006054
0.3763,0.8125,-0.1105,-0.1722,0.1168,-0.1233,-6.51,-4.8738,31.8587,-7.708259221468468,24.652205420307922,-2.4885847337768072,5.629000000015367
0.3721,0.8172,-0.0985,-0.1796,0.1201,-0.1181,-11.0425,-7.315,32.585,-6.944763460651003,24.334427962003478,-2.5231946490212938,5.638999999995576
0.3694,0.8139,-0.1067,-0.1796,0.1201,-0.1181,-11.0425,-7.315,32.585,-7.423651918712743,24.23113563988095,-2.5574584652864907,5.649000000004889
0.3945,0.7967,-0.1365,-0.1796,0.1201,-0.1181,-19.1887,-10.4913,31.8062,-9.605933479980422,25.967815472556,-2.5318838806336257,5.649000000004889
0.436,0.7735,-0.1635,-0.1827,0.1201,-0.1092,-24.9112,-14.5513,29.2863,-11.843944260707628,28.793756388326294,-2.6377001744585917,5.658999999999651
0.436,0.7366,-0.1764,-0.1827,0.1201,-0.1092,-24.9112,-14.5513,25.8825,-13.40380405217592,29.890643199951302,-2.7424583055361347,5.669000000008964
0.463,0.7366,-0.1764,-0.1854,0.1182,-0.1158,-23.5987,-23.065,25.8825,-13.464854026651718,31.388140206731073,-2.930454485067921,5.679000000003725
0.4766,0.6912,-0.1582,-0.1854,0.1182,-0.1158,-17.815,-32.1475,20.7813,-12.922812173541308,33.81286429819684,-3.2064874532016097,5.6890000000130385
0.4828,0.6363,-0.1237,-0.1854,0.1182,-0.1158,-8.155,-37.1875,15.1988,-11.221273502909082,36.544318967037654,-3.1744225786695934,5.6890000000130385
0.4847,0.6062,-0.0858,-0.1862,0.1175,-0.1146,-8.155,-37.1875,15.1988,-8.418243206279799,38.282047293285714,-3.4979118653968015,5.6990000000078
0.4915,0.6282,-0.0711,-0.1862,0.1175,-0.1146,6.685,-36.12,10.4913,-6.6993124264042985,37.887986055408426,-3.807598009262274,5.709000000002561
0.4915,0.6282,-0.0711,-0.1874,0.1225,-0.1231,24.7975,-31.5613,8.6713,-6.466519583089574,37.86431612423543,-4.0690561617127345,5.7189999999973224
0.4784,0.6972,-0.0512,-0.1874,0.1225,-0.1231,41.3,-26.1887,9.9137,-4.253125062526577,34.6033313065274,-4.028365600095607,5.7189999999973224
0.4563,0.8188,-0.0566,-0.1874,0.1225,-0.1231,41.3,-26.1887,9.9137,-3.961307037818409,29.419031812614488,-4.234427337024078,5.729000000006636
0.4362,0.9571,-0.0641,-0.1898,0.1226,-0.1244,49.3587,-20.6238,15.9075,-3.8341122139642225,24.679302762581784,-4.383335946253646,5.739000000001397
0.4302,1.077,-0.0626,-0.1898,0.1226,-0.1244,44.1,-17.8237,25.6462,-3.3376922952380044,21.83341328886676,-4.503034479643411,5.74900000001071
0.4302,1.1515,-0.0762,-0.1943,0.1257,-0.1336,28.595,-23.9487,35.6738,-3.771065186681104,20.477971407166073,-4.6821735274295415,5.7590000000054715
0.4252,1.1515,-0.0762,-0.1943,0.1257,-0.1336,28.595,-23.9487,35.6738,-3.785505039497449,20.232435319009518,-4.859521184737811,5.769000000000233
0.4306,1.1532,-0.0967,-0.199,0.1278,-0.1254,6.055,-37.94,43.505,-4.658381477090537,20.406146007398167,-4.810925972890432,5.769000000000233
0.4421,1.091,-0.0731,-0.199,0.1278,-0.1254,-17.3337,-51.4762,45.0363,-3.8793000863826514,21.982874148667698,-5.2595083556013265,5.778999999994994
0.4502,1.0244,-0.1481,-0.199,0.1278,-0.1254,-37.4762,-60.3138,42.2625,-8.112172365743747,23.475298192923848,-5.7910971552893775,5.789000000004307
0.5001,0.9157,-0.1671,-0.2002,0.1254,-0.1294,-37.4762,-60.3138,42.2625,-10.283151862187655,28.148848544795136,-6.317370066130448,5.798999999999069
0.5001,0.9157,-0.1671,-0.2002,0.1254,-0.1294,-54.8538,-61.6,34.16,-10.340676957349821,28.245223787181672,-6.851113628725066,5.809000000008382
0.5424,0.8178,-0.2241,-0.2006,0.1218,-0.1203,-61.5125,-62.3175,20.72,-15.244195770492174,32.44242734674613,-6.782602492437815,5.809000000008382
0.5807,0.722,-0.2258,-0.2006,0.1218,-0.1203,-61.5563,-56.5425,6.615,-17.332518745177772,37.109877438568766,-7.26162447992696,5.819000000003143
0.6034,0.6629,-0.2139,-0.2006,0.1218,-0.1203,-61.5563,-56.5425,6.615,-17.874627798120237,40.60119181104849,-7.735856248336982,5.829000000012456
0.6362,0.6095,-0.2006,-0.1984,0.1194,-0.1151,-57.26,-48.0288,-6.1775,-18.21159656235496,42.826193536306256,-8.121060067638174,5.838999999992666
0.6362,0.5912,-0.1576,-0.1984,0.1194,-0.1151,-51.205,-38.92,-19.565,-14.990023580963197,45.906114305846856,-8.039849466961792,5.838999999992666
0.6495,0.5912,-0.1576,-0.1922,0.1153,-0.1094,-51.205,-38.92,-30.9312,-14.927816306358627,46.68003896942722,-8.331836235338985,5.849000000001979
0.7099,0.4191,-0.2016,-0.1922,0.1153,-0.1094,-43.7938,-31.3425,-30.9312,-25.446489711577428,56.395527634228,-8.545885885529813,5.85899999999674
0.558,0.6242,-0.1967,-0.1922,0.1153,-0.1094,-3.7713,-11.1562,-48.8688,-19.318049068465676,40.8068718025773,-8.557950669465342,5.869000000006054
0.4773,0.8653,0.1092,-0.1832,0.1134,-0.1173,13.0113,5.7925,-85.5137,5.355273394516627,28.838811803354144,-8.4021026755075,5.879000000000815
0.5806,1.0208,-0.0797,-0.1832,0.1134,-0.1173,13.0113,5.7925,-85.5137,-3.783800696834516,29.546349873831208,-8.318081648752425,5.879000000000815
0.5806,1.0208,-0.0797,-0.1698,0.1079,-0.1038,-15.5575,11.8125,-88.0512,-4.42220363525647,29.55503567592265,-8.105034344843954,5.889000000010128
0.6059,1.1499,0.0709,-0.1698,0.1079,-0.1038,-55.4837,-11.9788,-64.4613,3.386445825936275,27.770650956847295,-8.129651384040159,5.899000000004889
0.6392,0.8028,-0.2095,-0.1698,0.1079,-0.0834,-70.175,-45.92,-36.9863,-14.371250480154698,37.31256450932472,-8.490040132668373,5.908999999999651
0.5238,0.4985,-0.2084,-0.16,0.106,-0.1019,-70.175,-45.92,-36.9863,-22.570036897100913,43.90495650619891,-8.935162046689669,5.9210000000020955
0.4614,0.6537,-0.3265,-0.16,0.106,-0.1019,-45.7625,-37.94,-20.8775,-26.45483279897573,32.9605932022028,-9.09968871003255,5.927999999999884
0.4614,0.7559,-0.3167,-0.1543,0.1027,-0.0998,-24.3862,-18.4538,-39.2,-22.881347320314877,29.480591942052126,-9.09357676436128,5.93300000000454
0.4662,0.7559,-0.3167,-0.1543,0.1027,-0.0998,-25.9525,-15.0588,-44.0213,-22.737877534648305,29.629126755319273,-9.138800379544477,5.943000000013853
0.5146,0.8165,-0.3762,-0.1498,0.1022,-0.095,-25.9525,-15.0588,-44.0213,-24.662382962906282,29.78349402647059,-9.183571758377703,5.953000000008615
0.4811,0.9069,-0.1466,-0.1498,0.1022,-0.095,-24.0888,-10.92,-28.3237,-9.809850774351393,27.728805846309452,-9.18692130344406,5.963000000003376
0.5068,0.7776,-0.0491,-0.1498,0.1022,-0.095,-35.245,-26.7575,-19.2763,-3.7859925670836563,32.69377071701869,-9.09505209040962,5.963000000003376
0.5409,0.6864,-0.0367,-0.1502,0.1004,-0.0846,-43.2337,-30.8088,-10.2375,-3.077096815050222,37.31317971189599,-9.29618595205251,5.972999999998137
0.5409,0.6864,-0.0367,-0.1502,0.1004,-0.0846,-43.2337,-30.8088,-10.2375,-3.060918046089758,38.056625207452505,-9.49530847550401,5.983000000007451
0.5662,0.6358,-0.0462,-0.1469,0.0969,-0.0856,-37.7475,-29.96,-5.1275,-4.1274854496729265,38.39005442964305,-9.684036653300357,5.993000000002212
0.5616,0.6755,-0.1762,-0.1469,0.0969,-0.0856,-25.3838,-33.0662,-11.5325,-14.21543380919236,38.758855878000674,-9.901628929760191,6.003000000011525
0.5273,0.7161,-0.3009,-0.1469,0.0969,-0.0856,-20.3875,-26.46,-8.8638,-22.38281301423676,35.11878072533876,-9.80261264046259,6.003000000011525
0.5577,0.7476,-0.4097,-0.1426,0.0979,-0.0765,-20.3875,-26.46,-8.8638,-28.421264375793587,33.59041809265702,-9.953617776627503,6.013000000006286
0.5577,0.7093,-0.3846,-0.1426,0.0979,-0.0765,-20.055,-23.835,-2.6337,-28.465396813314953,34.33897244825803,-10.077125361444383,6.023000000001048
0.555,0.7093,-0.3846,-0.141,0.0961,-0.0754,-15.5575,-31.1325,-3.8063,-28.467504905348356,34.43957395348445,-9.97635410782994,6.023000000001048
0.7029,0.8445,-0.166,-0.141,0.0961,-0.0754,-15.5575,-31.1325,3.5438,-12.195383867747836,38.736893291972144,-10.171879579296947,6.032999999995809
0.7904,0.484,0.0542,-0.141,0.0961,-0.0754,-27.8512,-30.4587,3.5438,5.735941258647121,56.30871488511184,-10.358779176472774,6.043000000005122
0.9411,0.5053,-0.1423,-0.144,0.0935,-0.0645,-25.9263,-23.9137,28.9713,-14.918324922337138,60.71712385203257,-10.479014277290792,6.052999999999884
0.6425,0.6988,-0.1314,-0.144,0.0935,-0.0645,10.1763,-24.1325,26.495,-11.017573497157533,42.67336051787657,-10.600213147428352,6.063000000009197
0.6425,0.6988,-0.1314,-0.1518,0.0956,-0.0726,10.1763,-24.1325,26.495,-10.681115581514778,42.11849194558602,-10.720200028535679,6.073000000003958
0.7144,0.4415,-0.2219,-0.1518,0.0956,-0.0726,6.2737,-20.6763,29.2863,-24.603543997484085,54.95549923981993,-10.612998028250322,6.073000000003958
0.7383,0.5518,-0.5518,-0.1518,0.0956,-0.081,28.2362,0.4288,48.0288,-44.312173252841056,43.626993243824224,-10.489700190651831,6.083000000013271
0.5756,0.5487,-0.6656,-0.1578,0.0978,-0.081,83.6413,-10.745,25.62,-50.42615299012328,34.02755298145233,-10.478255951260365,6.092999999993481
0.2997,0.7876,-0.4758,-0.1578,0.0978,-0.081,83.6413,-10.745,25.62,-31.363529643807695,18.545811935408715,-10.466926154534796,6.103000000002794
0.2865,0.8267,-0.3779,-0.1588,0.1031,-0.0949,96.5738,-1.8025,-1.6888,-24.63539338852973,17.736839732115307,-10.362256892989448,6.103000000002794
0.2865,0.8267,-0.3779,-0.1588,0.1031,-0.0949,65.52,33.6963,7.105,-24.567061101840498,17.512757795224996,-9.565602109318364,6.1230000000068685
0.4858,0.8229,-0.1073,-0.1625,0.1064,-0.1086,59.4388,25.1825,0.2275,-7.710642492015426,28.29192684638838,-9.46994608822518,6.1230000000068685
0.4502,0.8144,0.0074,-0.1625,0.1064,-0.1086,59.4388,25.1825,0.2275,0.385343033144968,28.830283708631946,-9.113017140180302,6.13300000000163
0.3754,0.9107,0.1022,-0.1625,0.1064,-0.1086,69.72,3.8238,-7.42,6.31842886741511,24.205937727442997,-8.971108611431209,6.143000000010943
0.4006,0.9622,0.0336,-0.1629,0.1098,-0.1259,56.8225,10.2375,1.085,2.0741044469759493,22.8185215017092,-8.881397525316897,6.143000000010943
0.4006,0.9622,0.0336,-0.1629,0.1098,-0.1259,37.45,12.985,1.1113,2.001862309758597,22.62324001786368,-8.651109312837843,6.153000000005704
0.4703,1.0085,-0.1629,-0.1638,0.1118,-0.1155,37.45,12.985,1.1113,-8.887985128150593,24.426039850703713,-8.42312398248358,6.163000000000466
0.4926,1.0419,-0.2652,-0.1638,0.1118,-0.1155,29.7675,5.6,-6.51,-14.107609918705647,24.53978985535216,-8.270530005394557,6.172999999995227
0.5083,1.0508,-0.292,-0.1638,0.1118,-0.1155,19.2237,5.11,-9.1088,-15.460837133016112,24.90037919739766,-8.12431296798146,6.18300000000454
0.5668,1.0147,-0.2919,-0.1638,0.1116,-0.1198,9.4762,4.7775,-11.97,-15.995012155330974,27.808965781236193,-7.982849851033193,6.1929999999993015
0.5879,0.9511,-0.2598,-0.1638,0.1116,-0.1198,9.4762,4.7775,-11.97,-15.343869663362039,30.429536099527283,-7.8428013651667765,6.203000000008615
0.5879,0.9511,-0.2598,-0.1627,0.1124,-0.1203,10.255,0.1312,-17.36,-15.283692943491712,30.77852287833324,-7.750151734222559,6.213000000003376
0.5573,0.926,-0.1641,-0.1627,0.1124,-0.1203,13.93,2.38,-21.6563,-10.390337688622076,30.65831628275404,-7.672650216880333,6.213000000003376
0.5088,0.9399,-0.1302,-0.1627,0.1124,-0.1203,13.93,2.38,-29.2775,-8.049858572056893,28.29813863645342,-7.559438977430643,6.222999999998137
0.4831,1.001,-0.1327,-0.1586,0.1123,-0.1222,9.52,7.8837,-29.2775,-7.597085741117544,25.67604173377968,-7.392873220403994,6.232999999992899
0.4857,0.9911,-0.1718,-0.1586,0.1123,-0.1222,-2.3012,9.1175,-33.1275,-9.058407023254096,25.77070727500752,-7.318944488199954,6.232999999992899
0.4857,0.9911,-0.1718,-0.1567,0.1113,-0.1162,-9.5288,7.2362,-24.115,-9.757375217844663,25.773908074249693,-7.161193925939201,6.243000000002212
0.4759,0.9046,-0.2158,-0.1567,0.1113,-0.1162,-9.5288,7.2362,-24.115,-13.055626099131116,27.034134480614657,-6.971196422374164,6.25700000001234
0.4202,1.0075,-0.0823,-0.1567,0.1113,-0.1162,-0.1925,13.02,-31.01,-11.51663897026648,22.737387080617765,-6.788027868493685,6.264999999999418
0.3802,1.1798,-0.2411,-0.1506,0.1092,-0.1162,-12.0662,3.9462,-44.4412,-11.547130705631101,17.651633118900833,-6.678555495960274,6.273000000001048
0.4069,1.0582,-0.185,-0.1506,0.1092,-0.1162,-40.9938,6.8688,-39.6725,-9.9557454818712,20.65869860978485,-6.547030855147482,6.2810000000026776
0.3522,1.0131,-0.3576,-0.1463,0.1069,-0.1079,-40.9938,6.8688,-39.6725,-19.213650598690318,18.22070161103989,-6.4330062322649955,6.286999999996624
0.3522,1.0131,-0.3576,-0.1463,0.1069,-0.1079,-47.8013,-1.9075,-31.3162,-19.43709417372919,18.152916089198975,-6.374637682647898,6.297000000005937
0.3578,0.955,-0.2471,-0.1407,0.1035,-0.1127,-43.9513,-27.405,-38.6225,-14.617468961711852,19.884909026689705,-6.569278068386058,6.3070000000006985
0.3437,0.8113,-0.3211,-0.1407,0.1035,-0.1127,-42.98,-32.0863,-39.48,-21.432769905839127,21.454465842423005,-6.503585287702197,6.3070000000006985
0.3456,0.7904,-0.3701,-0.1407,0.1035,-0.1127,-42.98,-32.0863,-39.48,-25.007080363704464,21.59869392463683,-6.7432810678089785,6.317000000010012
0.2807,0.8041,-0.2888,-0.1324,0.1024,-0.1118,-32.9,-24.1325,-42.595,-19.91304611936136,18.275785956039037,-6.9018372697125,6.327000000004773
0.2807,0.8041,-0.2888,-0.1324,0.1024,-0.1118,-29.4088,-20.4837,-50.26,-19.761452135044763,18.18925543075655,-7.022684789892201,6.337000000014086
0.309,0.7702,-0.3297,-0.122,0.0986,-0.0993,-27.825,-11.1912,-48.9125,-23.054205363466263,20.199323277280666,-6.95245794199328,6.337000000014086
0.3687,0.835,-0.218,-0.122,0.0986,-0.0993,-27.825,-11.1912,-48.9125,-14.928520853572012,23.068558115430807,-6.980803505079656,6.346999999994296
0.3045,0.9464,-0.1752,-0.122,0.0986,-0.0993,-24.1325,-13.4925,-53.7775,-10.667675442909138,17.666618623705492,-7.031648482841226,6.357000000003609
0.514,0.7369,-0.2308,-0.1125,0.0985,-0.0871,-32.6287,-30.1613,-61.9675,-17.188329913184877,33.37318381792136,-7.2470061305631575,6.36699999999837
0.3601,0.9074,-0.0055,-0.1125,0.0985,-0.0871,-27.51,-14.14,-66.8325,-0.9467620313185627,21.83192599452948,-7.301599332075863,6.377000000007683
0.3601,0.9074,-0.0055,-0.0992,0.0962,-0.0882,-27.51,-14.14,-66.8325,-0.36862053046977306,21.648172915712934,-7.35564660138854,6.387000000002445
0.6046,0.6959,-0.1661,-0.0992,0.0962,-0.0882,-44.38,-16.485,-81.8913,-13.134033083137528,39.96172579461894,-7.282090135374655,6.387000000002445
0.5822,0.7119,-0.2291,-0.0992,0.0962,-0.0882,-34.3263,-11.4625,-98.6738,-17.704170456930598,37.922258452519394,-7.309825246814558,6.397000000011758
0.6268,0.6947,-0.1817,-0.083,0.0937,-0.0932,-34.3263,-11.4625,-107.8438,-14.744739314027452,41.086822894738404,-7.337283006993735,6.407000000006519
0.5956,0.6357,-0.2464,-0.083,0.0937,-0.0932,-22.75,-17.8937,-107.8438,-20.910456440949634,41.139698699622016,-7.428135069537765,6.417000000001281
0.5956,0.6357,-0.2464,-0.063,0.095,-0.0786,-15.0675,-14.9362,-115.3512,-21.16889996671013,41.140208337252744,-7.488799361471694,6.426999999996042
0.5596,0.631,-0.2555,-0.063,0.095,-0.0786,-1.9338,-9.7913,-114.3013,-21.6960512886428,39.436349755403434,-7.413911367856977,6.426999999996042
0.5539,0.571,-0.2026,-0.063,0.095,-0.0884,-1.9338,-9.7913,-114.3013,-20.394049892025386,42.40671418165958,-7.423783386956648,6.437000000005355
0.5322,0.581,-0.1293,-0.0443,0.0995,-0.0884,17.7712,-7.0262,-108.4212,-12.955526304087796,41.806734823270574,-7.406182195757411,6.447000000000116
0.4548,0.6048,-0.0792,-0.0443,0.0995,-0.0884,42.6475,-2.9838,-105.3675,-7.585267992434819,36.7591837167355,-7.348737256515313,6.45700000000943
0.3627,0.7198,-0.0983,-0.0287,0.1026,-0.0952,61.1888,5.8538,-99.6537,-7.773477420218638,26.637889312712108,-7.204374526687289,6.467000000004191
0.3627,0.7198,-0.0983,-0.0287,0.1026,-0.0952,61.1888,5.8538,-99.6537,-7.7764836686659145,26.532050928587864,-7.132330781420416,6.467000000004191
0.3108,0.7955,-0.2072,-0.014,0.1086,-0.1113,70.105,8.5312,-94.4737,-14.503782617776867,20.775119474880785,-6.963625856357227,6.476999999998952
0.2183,0.8192,-0.2798,-0.014,0.1086,-0.1113,76.195,5.6788,-90.2387,-18.801643043224402,14.230325358311985,-6.824846740529877,6.486999999993714
0.1014,0.9297,-0.3525,-0.014,0.1086,-0.1113,79.4938,6.9913,-93.9925,-20.74019261761858,5.916513299272179,-6.674461665748083,6.497000000003027
0.0285,1.0116,-0.4178,0.003,0.1158,-0.1191,79.4938,6.9913,-93.9925,-22.42004884793871,1.5408109736875457,-6.607717049090603,6.497000000003027
0.0285,1.0116,-0.4178,0.003,0.1158,-0.1191,70.1575,5.5912,-104.5975,-22.440776715771275,1.4921174007686846,-6.4733642613354645,6.506999999997788
0.0093,1.0711,-0.4487,0.0177,0.1234,-0.1283,57.6275,2.0563,-107.3538,-22.72465688447705,0.4688351511269156,-6.375350511391115,6.517000000007101
-0.0018,1.0895,-0.4169,0.0177,0.1234,-0.1283,47.635,-4.2438,-102.165,-20.97587256788128,-0.08273073001199197,-6.3406878889619644,6.527000000001863
-0.0866,1.1079,-0.3307,0.0177,0.1234,-0.1283,47.635,-4.2438,-102.165,-16.70877839286081,-4.2406728411700625,-6.306371892799438,6.537000000011176
-0.0698,1.1223,-0.2014,0.0341,0.1282,-0.136,40.3375,-17.8062,-92.5488,-10.330121669761892,-3.5113705401676762,-6.243308173871444,6.537000000011176
-0.1194,1.1706,-0.0886,0.0341,0.1282,-0.136,31.255,-31.4913,-94.7363,-4.5120288601334035,-5.782160830269753,-6.4797162242413044,6.546999999991385
-0.1194,1.1706,-0.0886,0.0514,0.1344,-0.1362,14.49,-49.245,-98.1312,-4.339880134653055,-5.807203774412836,-6.889521825140899,6.5570000000006985
-0.0906,1.2371,-0.1076,0.0514,0.1344,-0.1362,14.49,-49.245,-98.1312,-4.931268735561634,-4.19029154715381,-7.29522936934086,6.56699999999546
-0.0894,1.2848,-0.0805,0.0514,0.1344,-0.1362,-9.1088,-63.3063,-95.8913,-3.724108065101141,-3.974990167237351,-7.222277075647451,6.56699999999546
-0.0966,1.1927,-0.2297,0.0712,0.139,-0.1318,-38.1763,-77.6038,-91.07,-10.715859755593588,-4.540657846113785,-7.905409188294455,6.577000000004773
-0.0557,1.0612,-0.3201,0.0712,0.139,-0.1318,-38.1763,-77.6038,-93.3975,-16.628796882482373,-2.895391162447053,-8.581709978715804,6.586999999999534
-0.0557,1.0612,-0.3669,0.0911,0.1394,-0.1161,-61.6875,-84.9275,-93.3975,-19.033108063240906,-2.840537244188639,-9.32375239239965,6.597000000008848
0.0836,0.9165,-0.3741,0.0911,0.1394,-0.1161,-65.9837,-89.9587,-98.49,-22.156820838792505,4.7461222362694615,-10.10818326071587,6.607000000003609
0.1658,0.8432,-0.3331,0.1116,0.1418,-0.1015,-54.9412,-83.5713,-98.4025,-21.566954434700236,10.304152679124655,-10.821534560382055,6.61699999999837
0.2292,0.7926,-0.378,0.1106,0.1418,-0.1015,-54.9412,-83.5713,-98.4025,-25.426226598184336,14.58266775593368,-11.527752347051578,6.6269999999931315
0.2128,0.7756,-0.4034,0.1106,0.1418,-0.1015,-35.2625,-78.6012,-100.1438,-27.422265521628535,13.68986499147562,-11.412474823581062,6.6269999999931315
0.1607,0.8272,-0.4019,0.1302,0.1468,-0.1045,-9.7563,-72.1263,-102.0075,-26.05904326015291,9.950215024487443,-11.999477708698228,6.637000000002445
0.1607,0.8272,-0.4019,0.1302,0.1468,-0.1045,9.695,-58.4588,-98.3675,-25.926208656554337,9.912064093883203,-12.44530231401483,6.646999999997206
0.0952,0.9029,-0.4019,0.147,0.1548,-0.095,9.695,-58.4588,-98.3675,-24.16866656078802,5.54885717604356,-12.320849290874682,6.646999999997206
0.0522,0.9854,-0.479,0.147,0.1548,-0.095,18.7425,-39.1213,-89.4425,-25.837164912811755,2.7606993540299936,-12.572018931014602,6.657000000006519
0.0176,1.0849,-0.5178,0.147,0.1548,-0.095,24.3775,-22.2775,-79.6687,-25.526685664305493,0.8641938986901146,-12.653923254295687,6.667000000001281
-0.0257,1.1792,-0.5227,0.1573,0.1609,-0.103,24.1325,-12.3462,-74.27,-23.96953959929655,-1.1128989332441919,-12.636688664554528,6.677000000010594
-0.0257,1.1792,-0.5383,0.1573,0.1609,-0.103,24.1325,-12.3462,-74.27,-24.51431411373759,-1.1354900441572193,-12.619626420392663,6.686999999990803
-0.0709,1.2317,-0.5439,0.1661,0.1669,-0.105,20.02,-6.4575,-71.3125,-23.857654919449153,-2.986331120468329,-12.54443666893624,6.697000000000116
-0.1023,1.3275,-0.5146,0.1661,0.1669,-0.105,12.53,-4.1737,-68.6525,-21.379985798133188,-4.092393668108495,-12.418992302246878,6.697000000000116
-0.1178,1.3346,-0.4632,0.1661,0.1669,-0.105,-2.065,-3.7013,-61.81,-19.98623440134309,-4.755005700917194,-12.3185225119465,6.70700000000943
-0.1279,1.3124,-0.4702,0.1759,0.1725,-0.1006,-2.065,-3.7013,-61.81,-19.815155725066848,-5.233475762392637,-12.219057419514607,6.717000000004191
-0.1408,1.2726,-0.4096,0.1759,0.1725,-0.1006,-13.3437,-5.0225,-48.2388,-17.983062197420974,-5.994549037845888,-12.133666858000183,6.726999999998952
-0.1408,1.2726,-0.4096,0.18,0.1749,-0.1011,-21.49,-5.39,-31.6838,-17.847750890891888,-6.011523721287191,-12.05276845215784,6.7370000000082655
-0.1522,1.2387,-0.3585,0.18,0.1749,-0.1011,-28.8663,-0.5775,-15.8025,-16.199252027710262,-6.670200948948422,-11.932240767636262,6.7370000000082655
-0.1427,1.1967,-0.3655,0.18,0.1749,-0.1011,-28.8663,-0.5775,-15.8025,-16.957245728937394,-6.520058601070169,-11.805712872663674,6.747000000003027
-0.1548,1.2069,-0.3886,0.1793,0.1708,-0.0964,-31.4738,2.1613,-3.08,-17.81984568294374,-6.8110805428931,-11.653336136655017,6.756999999997788
-0.1775,1.2271,-0.3425,0.1793,0.1708,-0.0964,-30.5812,-0.8838,4.3663,-15.666515550016326,-7.823813262187472,-11.53262965798458,6.767000000007101
-0.1775,1.2271,-0.3156,0.1768,0.1685,-0.0948,-30.5812,-5.3637,11.6375,-14.463290410267497,-7.966170836425275,-11.417303361404734,6.767000000007101
-0.2159,1.205,-0.3156,0.1768,0.1685,-0.0948,-33.915,-5.5037,11.6375,-14.670421583113395,-9.727343466682719,-11.344694220468911,6.777000000001863
-0.2375,1.1819,-0.3049,0.1734,0.1629,-0.0887,-38.5262,-8.7937,20.7813,-14.470696583721265,-10.962990268410541,-11.305382171033266,6.787000000011176
-0.2582,1.1558,-0.2432,0.1734,0.1629,-0.0887,-45.3075,-9.7825,28.6563,-11.939058096049461,-12.291866660758561,-11.276252361978967,6.797000000005937
-0.2593,1.099,-0.2412,0.1734,0.1629,-0.0887,-45.3075,-9.7825,28.6563,-12.36899576380446,-12.957841565385802,-11.247413851137338,6.80700000001525
