AcclX,AcclY,AcclZ,MagX,MagY,MagZ,GyroX,GyroY,GyroZ,Roll,Pitch,Yaw,Time Elapsed(s)
-0.3974,0.9502,0.1656,0.1854,0.2542,0.3174,-0.4112,-1.5575,-5.6262,0,0,0,0.0
-0.3995,0.949,0.164,0.1854,0.2542,0.3174,-0.2187,-1.6363,-5.88,0,0,0,0.00999999999476131
-0.398,0.9503,0.1669,0.1842,0.2547,0.3068,-0.3762,-1.3212,-5.67,0,0,0,0.01999999998952262
-0.398,0.9503,0.1669,0.1842,0.2547,0.3068,-0.3762,-1.3212,-5.67,0,0,0,0.01999999998952262
-0.398,0.9483,0.1617,0.1846,0.2577,0.315,0.0437,-1.2862,-5.8362,0,0,0,0.029999999998835847
-0.3976,0.9496,0.1644,0.1846,0.2577,0.315,0.07,-1.4175,-5.7925,0,0,0,0.03999999999359716
-0.3978,0.9501,0.1622,0.1846,0.2577,0.315,-0.14,-1.1287,-6.1863,0,0,0,0.05000000000291038
-0.3994,0.9501,0.1626,0.1849,0.2562,0.3161,-0.14,-1.1287,-6.1863,0,0,0,0.059999999997671694
-0.3962,0.9512,0.1643,0.1849,0.2562,0.3161,-0.0263,-1.1812,-5.8538,0,0,0,0.059999999997671694
-0.3962,0.9512,0.1643,0.1833,0.2559,0.3165,-0.1925,-1.3913,-6.16,0,0,0,0.07000000000698492
-0.396,0.9482,0.1618,0.1833,0.2559,0.3165,-0.525,-1.1988,-6.1512,0,0,0,0.08999999999650754
-0.398,0.9503,0.1615,0.1833,0.2559,0.3165,-0.525,-1.1988,-6.1512,0,0,0,0.08999999999650754
-0.3954,0.9492,0.1636,0.1832,0.2562,0.3162,-0.3762,-1.7763,-6.0113,0,0,0,0.09999999999126885
-0.3978,0.9501,0.1615,0.1832,0.2562,0.3162,-1.1113,-1.7675,-6.0025,0,0,0,0.11000000000058208
-0.3978,0.9501,0.1615,0.186,0.2545,0.3105,-0.5163,-1.3563,-5.7838,0,0,0,0.11000000000058208
-0.3966,0.9511,0.1606,0.186,0.2545,0.3105,-0.5163,-1.3563,-5.7838,0,0,0,0.1300000000046566
-0.3967,0.9503,0.1632,0.186,0.2545,0.3176,-0.2187,-1.7062,-5.7575,0,0,0,0.139999999984866
-0.3966,0.9497,0.1617,0.1835,0.255,0.3176,-0.42,-1.365,-5.5388,0,0,0,0.139999999984866
-0.3955,0.95,0.1626,0.1835,0.255,0.3176,-0.3325,-1.5225,-5.5037,0,0,0,0.14999999999417923
-0.3963,0.9511,0.1593,0.1838,0.2566,0.3111,-0.3325,-1.5225,-5.5037,0,0,0,0.15999999998894054
-0.3963,0.9511,0.1593,0.1838,0.2566,0.3111,-0.2887,-1.1988,-5.5563,0,0,0,0.15999999998894054
-0.3985,0.9516,0.1626,0.1825,0.2559,0.3189,-0.2713,-1.5662,-5.4163,0,0,0,0.16999999999825377
-0.3933,0.9487,0.1618,0.1825,0.2559,0.3189,-0.2713,-1.5662,-6.1337,0,0,0,0.17999999999301508
-0.3974,0.9493,0.1621,0.1825,0.2559,0.3189,-0.105,-1.1375,-6.1337,0,0,0,0.17999999999301508
-0.3966,0.9512,0.1672,0.1838,0.2561,0.3155,-0.2975,-1.1375,-5.7137,0,0,0,0.1900000000023283
-0.3966,0.9512,0.1672,0.1838,0.2561,0.3155,-0.4638,-1.1725,-5.7225,0,0,0,0.19999999999708962
-0.3977,0.9503,0.1639,0.1845,0.2566,0.3168,-0.4638,-1.1725,-5.7225,0,0,0,0.20999999999185093
-0.3989,0.9515,0.1621,0.1845,0.2566,0.3168,-0.9538,-1.19,-5.9412,0,0,0,0.21999999998661224
-0.3987,0.9503,0.1657,0.1845,0.2566,0.3168,-0.035,-1.2862,-5.705,0,0,0,0.21999999998661224
-0.3966,0.9486,0.1639,0.1855,0.2556,0.3142,-0.105,-1.5313,-5.5912,0,0,0,0.22999999999592546
-0.3988,0.9489,0.1641,0.1855,0.2556,0.3142,-0.105,-1.5313,-5.5912,0,0,0,0.23999999999068677
-0.3988,0.9489,0.1641,0.1853,0.2565,0.3144,-0.1663,-1.5838,-5.95,0,0,0,0.25
-0.397,0.9493,0.1615,0.1853,0.2565,0.3144,-0.105,-1.6538,-5.9062,0,0,0,0.2599999999947613
-0.4022,0.9499,0.1598,0.1853,0.2565,0.3144,-0.6212,-1.4963,-5.8888,0,0,0,0.2599999999947613
-0.3952,0.9499,0.1668,0.1842,0.2546,0.3186,-0.6212,-1.4963,-5.8888,0,0,0,0.27000000000407454
-0.3996,0.9485,0.166,0.1842,0.2546,0.3186,-0.4725,-1.4787,-5.9938,0,0,0,0.27999999998428393
-0.3996,0.9485,0.165,0.1835,0.2557,0.3106,-0.2625,-1.4262,-6.2038,0,0,0,0.28999999999359716
-0.3966,0.9509,0.165,0.1835,0.2557,0.3106,-0.5075,-1.3913,-5.915,0,0,0,0.29999999998835847
-0.396,0.9506,0.1647,0.1837,0.2574,0.3228,-0.5075,-1.3913,-5.915,0,0,0,0.29999999998835847
-0.3947,0.9498,0.1614,0.1837,0.2574,0.3228,0.0525,-1.4088,-5.985,0,0,0,0.3099999999976717
-0.3972,0.9503,0.1666,0.1837,0.2574,0.3228,-0.4375,-1.5925,-6.0287,0,0,0,0.319999999992433
-0.3967,0.9502,0.1629,0.185,0.2551,0.317,-0.4288,-1.5838,-6.055,0,0,0,0.33000000000174623
-0.3967,0.9502,0.1629,0.185,0.2551,0.317,-0.4288,-1.5838,-6.055,0,0,0,0.33999999999650754
-0.3972,0.9492,0.1649,0.1862,0.2555,0.3165,-0.665,-1.3388,-5.9325,0,0,0,0.33999999999650754
-0.3967,0.949,0.1633,0.1862,0.2555,0.3165,-0.0613,-0.98,-5.7225,0,0,0,0.34999999999126885
-0.3985,0.9504,0.1629,0.1862,0.2555,0.3165,-0.0613,-0.98,-5.81,0,0,0,0.35999999998603016
-0.3957,0.9511,0.1658,0.1856,0.2569,0.3134,-0.1838,-1.05,-5.81,0,0,0,0.3699999999953434
-0.3957,0.9511,0.1633,0.1856,0.2569,0.3134,-0.4638,-1.7062,-5.8975,0,0,0,0.3799999999901047
-0.3978,0.9507,0.1633,0.1835,0.2551,0.3151,-0.4812,-1.295,-5.5563,0,0,0,0.3799999999901047
-0.3969,0.952,0.1607,0.1835,0.2551,0.3151,-0.4812,-1.295,-5.5563,0,0,0,0.3899999999994179
-0.3974,0.9497,0.1652,0.1835,0.2551,0.3151,-0.5775,-1.12,-5.9675,0,0,0,0.39999999999417923
-0.3983,0.95,0.1631,0.1846,0.2549,0.3158,-0.56,-1.2075,-6.055,0,0,0,0.40999999998894054
-0.3958,0.9496,0.1645,0.1846,0.2549,0.3158,-0.5075,-1.4438,-5.88,0,0,0,0.41999999998370185
-0.3958,0.9496,0.1645,0.1846,0.2554,0.3119,-0.5075,-1.4438,-5.88,0,0,0,0.41999999998370185
-0.3949,0.949,0.166,0.1846,0.2554,0.3119,-0.4812,-1.6013,-6.0462,0,0,0,0.4299999999930151
-0.3999,0.9505,0.1649,0.1846,0.2554,0.3119,-0.4025,-1.2075,-5.8538,0,0,0,0.4399999999877764
-0.3956,0.9489,0.1656,0.1838,0.2554,0.3201,-0.5775,-1.26,-5.7575,0,0,0,0.4499999999970896
-0.3991,0.9511,0.1618,0.1838,0.2554,0.3201,-0.5775,-1.26,-5.7575,0,0,0,0.4499999999970896
-0.3991,0.9511,0.1658,0.1846,0.2552,0.3175,0.0,-1.4262,-5.775,0,0,0,0.4599999999918509
-0.3938,0.9512,0.1658,0.1846,0.2552,0.3175,-0.2013,-1.505,-5.985,0,0,0,0.47000000000116415
-0.3975,0.9515,0.161,0.1846,0.2558,0.3152,-0.5075,-1.5925,-5.8625,0,0,0,0.47999999999592546
-0.3975,0.9504,0.167,0.1846,0.2558,0.3152,-0.5075,-1.5925,-5.8625,0,0,0,0.4899999999906868
-0.3978,0.9481,0.1646,0.1846,0.2558,0.3152,-0.2537,-1.3913,-5.67,0,0,0,0.4899999999906868
-0.3973,0.9515,0.1637,0.1838,0.257,0.3138,-0.07,-1.19,-5.8888,0,0,0,0.4999999999854481
-0.3973,0.9515,0.1637,0.1838,0.257,0.3138,-0.1575,-1.6712,-5.7488,0,0,0,0.5099999999947613
-0.3956,0.9511,0.1612,0.1834,0.2559,0.3192,-0.1575,-1.6712,-5.7488,0,0,0,0.5200000000040745
-0.4012,0.9506,0.1605,0.1834,0.2559,0.3192,-0.0875,-1.7763,-5.4687,0,0,0,0.5299999999988358
-0.3988,0.9495,0.1672,0.1834,0.2559,0.3192,-0.4988,-1.715,-5.88,0,0,0,0.5299999999988358
-0.3991,0.9496,0.1621,0.1846,0.2561,0.3199,-0.4988,-1.715,-5.8362,0,0,0,0.5469999999913853
-0.3991,0.9496,0.1644,0.1846,0.2561,0.3199,-0.4375,-1.7413,-5.8362,0,0,0,0.5529999999998836
-0.3982,0.9506,0.1644,0.1843,0.2558,0.3156,-0.6913,-1.3388,-5.8975,0,0,0,0.5629999999946449
-0.3941,0.9514,0.1642,0.1843,0.2558,0.3156,-0.4988,-1.7587,-5.7137,0,0,0,0.5629999999946449
-0.4006,0.9492,0.1609,0.1843,0.2558,0.3156,-0.4988,-1.7587,-5.7137,0,0,0,0.5730000000039581
-0.3993,0.9517,0.1656,0.1853,0.2552,0.317,-0.49,-1.68,-5.6087,0,0,0,0.5829999999841675
-0.3983,0.9496,0.1618,0.1853,0.2552,0.317,-0.5688,-1.5137,-5.7925,0,0,0,0.5929999999934807
-0.3983,0.9496,0.1618,0.185,0.2553,0.311,-0.3588,-1.6013,-5.9938,0,0,0,0.602999999988242
-0.3975,0.9515,0.166,0.185,0.2553,0.311,-0.3588,-1.6013,-5.9938,0,0,0,0.602999999988242
-0.3967,0.9504,0.1609,0.185,0.2553,0.311,-0.77,-1.7237,-5.635,0,0,0,0.6129999999975553
-0.3994,0.9492,0.1623,0.1836,0.255,0.319,-0.3762,-1.715,-5.6,0,0,0,0.6229999999923166
-0.3965,0.9497,0.1618,0.1836,0.255,0.319,-0.8575,-1.61,-5.845,0,0,0,0.6330000000016298
-0.3965,0.9498,0.1634,0.1826,0.2542,0.3117,-0.8575,-1.61,-5.845,0,0,0,0.6429999999963911
-0.3989,0.9498,0.1634,0.1826,0.2542,0.3117,-0.3237,-1.5225,-5.81,0,0,0,0.6429999999963911
-0.3975,0.9512,0.1636,0.1847,0.2566,0.3079,-0.0962,-1.4963,-5.775,0,0,0,0.6529999999911524
-0.3987,0.9508,0.1629,0.1847,0.2566,0.3079,0.0263,-1.3825,-5.6962,0,0,0,0.6629999999859137
-0.3974,0.9491,0.1673,0.1847,0.2566,0.3079,0.0263,-1.3825,-5.6962,0,0,0,0.672999999995227
-0.3961,0.95,0.1654,0.1838,0.2553,0.3168,0.0613,-1.7325,-5.6262,0,0,0,0.6829999999899883
-0.3961,0.95,0.1654,0.1838,0.2553,0.3168,0.1575,-1.7587,-5.6,0,0,0,0.6829999999899883
-0.398,0.9504,0.1624,0.1852,0.2554,0.3129,-0.1138,-1.7763,-5.3288,0,0,0,0.6929999999993015
-0.3953,0.9496,0.1644,0.1852,0.2554,0.3129,-0.1138,-1.7763,-5.3288,0,0,0,0.7029999999940628
-0.3985,0.9484,0.1626,0.1852,0.2554,0.3129,-0.7088,-1.4875,-5.705,0,0,0,0.713000000003376
-0.3964,0.9511,0.1652,0.1851,0.2548,0.3102,-0.6037,-1.8288,-5.6175,0,0,0,0.7229999999835854
-0.3964,0.9507,0.1647,0.1851,0.2548,0.3102,-0.6037,-1.8288,-5.7137,0,0,0,0.7229999999835854
-0.3977,0.9507,0.1647,0.1847,0.2568,0.3161,-0.4638,-1.6363,-5.7137,0,0,0,0.7329999999928987
-0.3981,0.9495,0.1624,0.1847,0.2568,0.3161,-0.5863,-1.225,-5.2675,0,0,0,0.74299999998766
-0.3963,0.9493,0.1631,0.1847,0.2568,0.3161,-0.5425,-0.98,-5.6962,0,0,0,0.7529999999969732
-0.3956,0.9506,0.1609,0.185,0.2549,0.3201,-0.5425,-0.98,-5.6962,0,0,0,0.7629999999917345
-0.3955,0.95,0.1641,0.185,0.2549,0.3201,-0.35,-1.3388,-5.845,0,0,0,0.7629999999917345
-0.3955,0.95,0.1641,0.1839,0.2587,0.3214,-0.7,-1.7062,-5.9237,0,0,0,0.7730000000010477
-0.3972,0.9501,0.1594,0.1839,0.2587,0.3214,-0.1312,-1.155,-5.7838,0,0,0,0.7829999999812571
-0.4012,0.9499,0.1643,0.1839,0.2587,0.3194,-0.1312,-1.155,-5.7838,0,0,0,0.7929999999905704
-0.398,0.9487,0.1627,0.1848,0.2548,0.3194,-0.5337,-1.4875,-5.8975,1.5053280275470866,-6.849350409402454,0.0,0.8029999999853317
-0.3978,0.9507,0.1595,0.1848,0.2548,0.3194,-0.455,-1.7587,-5.74,2.2626326775792465,-10.267131629003394,0.0,0.8029999999853317
-0.4001,0.9515,0.1627,0.1842,0.2542,0.3201,-0.4988,-1.645,-5.67,3.2224185871584807,-12.401955223528462,-0.0027545958025654224,0.8129999999946449
-0.4001,0.9515,0.1627,0.1842,0.2542,0.3201,-0.4988,-1.645,-5.67,4.058400579555648,-14.164613014686267,-0.005481645643096726,0.8229999999894062
-0.3966,0.9493,0.1618,0.1838,0.2551,0.3165,-0.5512,-1.4875,-5.5213,4.996029394443689,-14.647658420710155,-0.006622174987779017,0.8329999999987194
-0.3961,0.9494,0.164,0.1838,0.2551,0.3165,-0.4112,-1.7413,-5.7312,5.270097292488471,-16.296024285164826,-0.010263919035958744,0.8429999999934807
-0.3974,0.9498,0.1632,0.1838,0.2551,0.3165,-0.2537,-1.1463,-5.4425,5.666217497438698,-16.394434076279342,-0.007978745646742525,0.852999999988242
-0.3987,0.9509,0.1613,0.1842,0.2562,0.3117,-0.2537,-1.1463,-5.4425,6.016494275234143,-16.492064243589503,-0.007898958190275099,0.852999999988242
-0.3987,0.9509,0.1613,0.1842,0.2562,0.3117,-0.21,-1.4088,-5.4163,6.4618957391579945,-16.735668312217424,-0.008236184408759985,0.8629999999975553
-0.3965,0.9498,0.1629,0.1862,0.2547,0.3158,-0.0437,-1.4525,-5.355,7.23004224001807,-17.265292697961968,-0.009002668364227705,0.8729999999923166
-0.398,0.95,0.1633,0.1862,0.2547,0.3158,-0.3413,-1.6013,-5.6962,7.253556924016071,-18.25697784644092,-0.011234607479369028,0.8829999999870779
-0.4005,0.9506,0.1616,0.1862,0.2547,0.3158,-0.3413,-1.6013,-5.6962,7.275868516975469,-19.081541773801508,-0.011122261404575338,0.8829999999870779
-0.3956,0.9491,0.1635,0.1854,0.2566,0.3071,0.0613,-1.365,-5.7488,8.004886109832508,-19.81195821929012,-0.010981451650517234,0.8999999999941792
-0.399,0.9502,0.161,0.1854,0.2566,0.3071,-0.2275,-1.5225,-5.8975,8.181693371504556,-20.62851301971381,-0.011488375454137709,0.9039999999949941
-0.399,0.9502,0.161,0.1842,0.255,0.3153,-0.2275,-1.5225,-5.8275,8.339106403194243,-21.129920099209873,-0.012915337501032293,0.9140000000043074
-0.3977,0.9495,0.1633,0.1842,0.255,0.3153,-0.595,-1.925,-5.8275,8.617789879082228,-21.48020644733442,-0.018312779923126764,0.9239999999990687
-0.3987,0.9507,0.1636,0.1842,0.255,0.3153,-0.595,-1.5838,-5.6788,8.842834904888116,-21.656007520608938,-0.018129652123895498,0.9239999999990687
-0.3983,0.9512,0.1657,0.1872,0.2555,0.3215,-0.3588,-1.4525,-5.7663,8.85117693798105,-21.83500255349594,-0.018797201402211864,0.93399999999383
-0.3974,0.9501,0.1686,0.1872,0.2555,0.3215,-0.3588,-1.4525,-5.7663,8.860904032034359,-21.964027744501383,-0.019458075187745064,0.9439999999885913
-0.3974,0.9501,0.1686,0.1846,0.2553,0.3155,-0.175,-1.75,-5.8625,9.040504627647893,-22.084712731178932,-0.023057590239401144,0.9539999999979045
-0.3981,0.9511,0.1605,0.1846,0.2553,0.3155,-0.0875,-1.785,-5.9412,9.152610039310794,-22.19626225768071,-0.026967610134838005,0.9639999999926658
-0.3992,0.9503,0.1631,0.1846,0.2555,0.316,-0.1925,-1.68,-5.6525,9.232679769066758,-22.244033913378438,-0.026697934033489624,0.9639999999926658
-0.3949,0.9504,0.1644,0.1824,0.2555,0.316,-0.1925,-1.68,-5.6525,9.312071638151954,-22.247534563060274,-0.029532050496042853,0.9740000000019791
-0.3963,0.9511,0.1621,0.1824,0.2555,0.316,-0.2275,-1.3825,-5.4338,9.35157730052921,-22.24956353759937,-0.02939257579100079,0.9839999999967404
-0.3975,0.9509,0.1669,0.1829,0.2564,0.3231,-0.2713,-1.6187,-5.4163,9.395970488202527,-22.254826771169252,-0.03159287583541371,0.9940000000060536
-0.3975,0.9509,0.1669,0.1829,0.2564,0.3231,-0.07,-1.8025,-5.4338,9.518506929366078,-22.25785012868459,-0.035590792868522216,1.003999999986263
-0.3995,0.9484,0.1643,0.1847,0.2549,0.313,-0.07,-1.8025,-5.4338,9.58641292936176,-22.264774316177334,-0.035234884939836994,1.003999999986263
-0.3987,0.9525,0.1638,0.1847,0.2549,0.313,-0.6825,-1.6187,-5.8362,9.629068404363368,-22.306610424534497,-0.037376761892761554,1.0139999999955762
-0.4,0.9488,0.1621,0.1847,0.2549,0.313,-0.2975,-1.7062,-5.4513,9.632410593849759,-22.308556991397744,-0.04036347007207349,1.0239999999903375
-0.3972,0.9492,0.1622,0.1844,0.2555,0.3059,-0.2625,-1.3125,-5.7575,9.63765274625032,-22.33305948783315,-0.0394226811708525,1.0339999999996508
-0.3972,0.9492,0.1622,0.1844,0.2555,0.3059,-0.2625,-1.3125,-5.7575,9.642469988942013,-22.35192731517809,-0.038491300159425375,1.043999999994412
-0.3988,0.9504,0.1637,0.1841,0.2559,0.3156,-0.7613,-1.61,-6.0025,9.680440736190969,-22.392187036158475,-0.03810638715783112,1.043999999994412
-0.3964,0.9487,0.1615,0.1841,0.2559,0.3156,-0.5425,-1.5313,-5.9938,9.677314896118906,-22.39045276119624,-0.03935428908776991,1.0540000000037253
-0.399,0.951,0.1631,0.1841,0.2559,0.3156,-0.3675,-1.6625,-6.09,9.678214129762654,-22.419729331154002,-0.04188859199109783,1.0639999999839347
-0.3956,0.9481,0.1638,0.1859,0.2565,0.3074,-0.3675,-1.6625,-6.09,9.680259246425134,-22.393027571932244,-0.04439755187391363,1.073999999993248
-0.3975,0.9502,0.1579,0.1859,0.2565,0.3074,-0.4638,-1.4525,-5.6962,9.655334126718932,-22.399095759756285,-0.044802422154729814,1.0839999999880092
-0.3975,0.9502,0.1579,0.1826,0.2568,0.3159,-0.4988,-1.5225,-5.8538,9.626905380661237,-22.406334528661517,-0.044354397933182514,1.0839999999880092
-0.3956,0.9503,0.1642,0.1826,0.2568,0.3159,-0.4988,-1.5225,-5.7925,9.649646051215804,-22.380728945524407,-0.04545269975528665,1.0939999999973224
-0.3951,0.9511,0.1643,0.1826,0.2568,0.3159,-0.2187,-1.4,-5.7925,9.667291773769525,-22.350970619899183,-0.04532726855756139,1.1039999999920838
-0.3957,0.9492,0.1613,0.184,0.257,0.3186,-0.3237,-1.4262,-5.95,9.666686938385249,-22.348001152532827,-0.045462471672533845,1.114000000001397
-0.398,0.9511,0.165,0.184,0.257,0.3186,-0.4725,-1.3825,-6.1075,9.68571076765539,-22.37104368418065,-0.04516369275572687,1.1239999999961583
-0.398,0.9511,0.165,0.1841,0.2559,0.308,-0.4725,-1.3825,-6.1075,9.70266916578387,-22.38502038353558,-0.044712055828169596,1.1239999999961583
-0.3957,0.948,0.1663,0.1841,0.2559,0.308,-0.3762,-1.4438,-5.53,9.70881042716045,-22.382621313042694,-0.04502765106948834,1.1339999999909196
-0.3997,0.9506,0.1615,0.2046,0.2555,0.32,-0.4112,-1.645,-5.5563,9.705003338889384,-22.394423111807114,-0.047331970357350414,1.143999999985681
-0.3939,0.9502,0.1652,0.1848,0.2555,0.32,-0.4288,-1.2163,-5.74,9.716430285151153,-22.35526343263645,-0.045369116452389675,1.1539999999949941
-0.3972,0.95,0.162,0.1848,0.2555,0.32,-0.4288,-1.2163,-5.74,9.713599525478122,-22.364923350274033,-0.044915425287865775,1.1539999999949941
-0.3996,0.9509,0.1649,0.1843,0.2544,0.3178,-0.5775,-1.7325,-5.6262,9.736613299694197,-22.383166145159628,-0.04808711683309027,1.1639999999897555
-0.3996,0.9509,0.1649,0.1843,0.2544,0.3178,-0.1575,-1.8025,-5.425,9.753044204061812,-22.38673666814043,-0.051920091468776956,1.1739999999990687
-0.3992,0.95,0.1657,0.184,0.2562,0.3135,0.0088,-1.61,-5.5475,9.790333388427749,-22.394952205330284,-0.053808986352827666,1.18399999999383
-0.3971,0.9485,0.162,0.184,0.2562,0.3135,0.0088,-1.61,-5.5475,9.764426896153179,-22.397415620050793,-0.055678992291542106,1.1940000000031432
-0.3967,0.9524,0.161,0.184,0.2562,0.3135,-0.07,-1.365,-5.6962,9.72728008584698,-22.384090131710906,-0.05512220236862669,1.1940000000031432
-0.3963,0.9501,0.166,0.1846,0.2566,0.3142,-0.28,-1.575,-5.635,9.739385452828094,-22.377075559075717,-0.056632576140860404,1.2039999999833526
-0.3963,0.9501,0.166,0.1846,0.2566,0.3142,-0.2625,-1.4963,-6.09,9.753262871881848,-22.361666371708576,-0.05734871618064619,1.2139999999926658
-0.3988,0.9517,0.1617,0.1833,0.2556,0.3147,-0.2625,-1.4963,-6.09,9.744312204200856,-22.394472363380697,-0.058057694818167895,1.2239999999874271
-0.3969,0.9503,0.1628,0.1833,0.2556,0.3147,-0.6913,-1.54,-5.9412,9.738445171954742,-22.388144961260334,-0.05919221367158353,1.2339999999967404
-0.396,0.9503,0.161,0.1833,0.2556,0.3147,-0.21,-1.1113,-5.915,9.723311260353945,-22.371683056960926,-0.05607125733619258,1.2439999999915017
-0.3958,0.9515,0.162,0.1858,0.2559,0.3187,-0.035,-1.19,-6.0725,9.708691489113413,-22.343375329649636,-0.055510544762830655,1.2439999999915017
-0.3966,0.951,0.1626,0.1858,0.2559,0.3187,-0.035,-1.19,-6.0725,9.707204216468583,-22.34439950117593,-0.05320553511357263,1.254000000000815
-0.3966,0.951,0.1626,0.1846,0.2548,0.3166,-0.1488,-1.3563,-5.5738,9.706412833907125,-22.34457155964376,-0.052569945562491144,1.2639999999955762
-0.3972,0.9501,0.1647,0.1846,0.2548,0.3166,0.0175,-0.98,-5.5912,9.740883315704568,-22.3496052537146,-0.04783245148740113,1.2749999999941792
-0.3968,0.9499,0.1617,0.1846,0.2548,0.3166,0.0175,-0.98,-5.5912,9.719322506630755,-22.353399557402206,-0.044291003611903086,1.282999999995809
-0.3982,0.9498,0.161,0.1838,0.2558,0.3137,-0.2713,-1.26,-6.125,9.712068983182679,-22.39511657517033,-0.043319641475291895,1.2880000000004657
-0.3957,0.9502,0.1626,0.1838,0.2558,0.3137,-0.315,-1.1113,-5.7838,9.712015120320968,-22.37590567824048,-0.04035741086186386,1.297999999995227
-0.3957,0.9502,0.162,0.1842,0.2568,0.3196,-0.4462,-1.4438,-5.6087,9.708819291846519,-22.368476246331063,-0.03995383675324522,1.297999999995227
-0.3969,0.9503,0.162,0.1842,0.2568,0.3196,-0.4462,-1.4438,-5.6087,9.705814969698427,-22.369697266587433,-0.04031701418642311,1.3080000000045402
-0.3964,0.9516,0.163,0.1842,0.2557,0.3187,-0.1663,-1.2425,-5.8012,9.708006533543534,-22.357574027432833,-0.038683689846993434,1.3179999999847496
-0.3969,0.9503,0.1655,0.1829,0.2557,0.3187,-0.2975,-1.365,-5.845,9.716659553097843,-22.359758852144147,-0.0382794487485073,1.3279999999940628
-0.3983,0.9514,0.161,0.1829,0.2557,0.3187,-0.2537,-1.3475,-5.9763,9.706771920811898,-22.383621524764344,-0.03770600006112211,1.3379999999888241
-0.3991,0.9511,0.1684,0.1822,0.2567,0.3156,-0.2537,-1.3475,-5.9763,9.73629379815482,-22.40627489668789,-0.037328940060510886,1.3379999999888241
-0.3991,0.9511,0.1684,0.1822,0.2567,0.3156,-0.4725,-1.4,-6.0988,9.769335176475984,-22.423358700704092,-0.03728474646021227,1.3479999999981374
-0.3958,0.9496,0.1617,0.1844,0.2548,0.3182,-0.455,-1.3475,-5.8275,9.759364289305445,-22.400204302235522,-0.03672124479571003,1.3579999999928987
-0.3982,0.9512,0.1637,0.1844,0.2548,0.3182,-0.6125,-1.19,-5.8012,9.760503944335408,-22.405070103739035,-0.034604128146123216,1.368000000002212
-0.3947,0.9507,0.1634,0.1844,0.2548,0.3182,-0.6125,-1.19,-5.8012,9.758808755220235,-22.366241374876086,-0.03250818266557871,1.3779999999969732
-0.3975,0.9504,0.1623,0.185,0.2541,0.325,-0.2187,-1.4175,-5.4687,9.750893207254629,-22.366621055257358,-0.032183100838922916,1.3779999999969732
-0.3975,0.9504,0.1666,0.185,0.2541,0.325,-0.2275,-1.3913,-6.0025,9.771924328226602,-22.374808150294765,-0.03210423563040641,1.3879999999917345
-0.3986,0.9496,0.1666,0.1845,0.2559,0.3164,-0.3325,-1.5662,-5.5388,9.77512328248846,-22.38127779511057,-0.033757669073067986,1.3979999999864958
-0.3988,0.9477,0.1643,0.1845,0.2559,0.3164,-0.3325,-1.5662,-5.5388,9.776201812447702,-22.39154927102491,-0.03539456818417619,1.407999999995809
-0.3979,0.9495,0.158,0.1845,0.2559,0.3164,-0.2537,-1.5838,-5.74,9.747148074480727,-22.406383737291623,-0.03718933830120879,1.4179999999905704
-0.3967,0.9517,0.1657,0.1834,0.2558,0.3266,-0.105,-1.225,-5.7663,9.772707436463302,-22.38742507823534,-0.03541404071688969,1.4279999999998836
-0.3988,0.9499,0.1596,0.1834,0.2558,0.3266,-0.4725,-1.2513,-5.7312,9.747183959211222,-22.40960291671481,-0.03505990030972079,1.4279999999998836
-0.3988,0.9499,0.1596,0.1842,0.2559,0.3211,-0.4725,-1.2513,-5.7312,9.724431584664668,-22.427033678861907,-0.03356626710722239,1.437999999994645
-0.3977,0.9517,0.1654,0.1842,0.2559,0.3211,-0.1488,-1.3125,-5.8625,9.747071250430869,-22.41280852799744,-0.0326934502356499,1.4480000000039581
-0.3976,0.9492,0.1657,0.1842,0.2559,0.3211,-0.1575,-1.085,-5.7838,9.7721949322133,-22.415294809562514,-0.029577111538813806,1.4579999999841675
-0.3985,0.9504,0.1605,0.1842,0.2562,0.3178,-0.1575,-1.085,-5.6262,9.74195796516752,-22.422034178918373,-0.026491936220827836,1.4679999999934807
-0.3979,0.9514,0.1638,0.1842,0.2562,0.3178,-0.42,-1.68,-5.6262,9.743690486564605,-22.418816291278432,-0.026227016858619556,1.4679999999934807
-0.3979,0.9492,0.164,0.185,0.254,0.3155,-0.3588,-1.4,-6.09,9.744163628099946,-22.428673592562838,-0.026293842489860962,1.477999999988242
-0.3986,0.9492,0.164,0.185,0.254,0.3155,-0.2887,-1.61,-6.1337,9.747576614992202,-22.449294155552565,-0.02843899986720507,1.4879999999975553
-0.3989,0.9507,0.1662,0.1843,0.2541,0.3112,-0.2887,-1.61,-6.1337,9.75741936684629,-22.452058262461662,-0.030562705667271498,1.4979999999923166
-0.3964,0.9515,0.1616,0.1843,0.2541,0.3112,-0.3762,-1.2337,-6.0813,9.754474782570277,-22.404896311950463,-0.02893980440937198,1.5080000000016298
-0.3963,0.9519,0.1604,0.1843,0.2541,0.3112,-0.2713,-1.26,-5.915,9.740519891251255,-22.37830103330532,-0.02865040636527826,1.5080000000016298
-0.3939,0.9511,0.1642,0.183,0.2551,0.3181,-0.5075,-1.4438,-6.1337,9.747919910007537,-22.30689899787216,-0.02912661810122592,1.5179999999963911
-0.3939,0.9511,0.1642,0.183,0.2551,0.3181,-0.5075,-1.4438,-6.1337,9.754316916524068,-22.264266819236983,-0.029598067719814103,1.5279999999911524
-0.3961,0.9506,0.1589,0.1841,0.2561,0.3122,-0.28,-1.26,-5.7137,9.736841626554893,-22.280008575557847,-0.028245182843169646,1.5379999999859137
-0.3977,0.9507,0.161,0.1841,0.2561,0.3122,0.1225,-1.1025,-5.7663,9.696672085925947,-22.311454594103044,-0.025346576812301472,1.547999999995227
-0.3949,0.9513,0.1638,0.1841,0.2561,0.3122,-0.3325,-1.1725,-5.7925,9.697977860124492,-22.295899230395456,-0.025093111044178457,1.547999999995227
-0.3988,0.9483,0.1619,0.1838,0.2563,0.3123,-0.3325,-1.1725,-5.7925,9.697808394745694,-22.351001139700976,-0.022919025734744157,1.5579999999899883
-0.3988,0.9504,0.1638,0.1838,0.2563,0.3123,-0.5075,-1.6625,-5.915,9.708782504402048,-22.3869893435747,-0.02561768128012349,1.5679999999993015
-0.3991,0.9504,0.1638,0.1827,0.2552,0.3166,-0.6475,-1.4787,-5.6262,9.724801083142614,-22.40048097416529,-0.026469730266741695,1.5779999999940628
-0.3941,0.9506,0.1603,0.1827,0.2552,0.3166,-0.8313,-1.1463,-5.5037,9.675123527007536,-22.39338638051128,-0.02620503296407428,1.5779999999940628
-0.3972,0.9515,0.1645,0.1827,0.2552,0.3166,-0.8313,-1.1463,-5.5037,9.718455609490869,-22.391933148804757,-0.0237604484355769,1.5879999999888241
-0.3953,0.9487,0.1609,0.1842,0.2559,0.3172,-0.4725,-1.5838,-5.7488,9.708395644614676,-22.37875428452774,-0.02567155975009549,1.5979999999835854
-0.3982,0.9514,0.1619,0.1842,0.2559,0.3172,-0.3325,-1.5575,-5.6613,9.707486090852536,-22.385952924438428,-0.0273031899543532,1.6079999999928987
-0.3982,0.9514,0.1619,0.1858,0.2564,0.3251,-0.385,-1.6187,-5.6175,9.705829604072118,-22.39082168130255,-0.029524383853503026,1.61799999998766
-0.3966,0.9492,0.1626,0.1858,0.2564,0.3251,-0.385,-1.6187,-5.6175,9.706317412932808,-22.389775081260503,-0.031723365817290926,1.6279999999969732
-0.3983,0.9511,0.1596,0.1858,0.2564,0.3251,-0.6475,-1.61,-6.0375,9.665004755409248,-22.40848184305179,-0.031406132159118014,1.6279999999969732
-0.3944,0.9525,0.1599,0.1838,0.2562,0.3152,-0.5425,-1.4262,-5.8975,9.643216704341382,-22.34883509938526,-0.03168054663721855,1.6379999999917345
-0.3988,0.9504,0.1624,0.1838,0.2562,0.3152,-0.5425,-1.4262,-5.74,9.651837761413182,-22.3756118583491,-0.031952216971394436,1.6480000000010477
-0.3988,0.9504,0.1667,0.1835,0.2564,0.3184,-0.7088,-1.0938,-5.74,9.730052462833521,-22.39313609834661,-0.02893041060702848,1.6579999999812571
-0.3977,0.9504,0.1667,0.1835,0.2564,0.3184,-0.5688,-1.4787,-5.775,9.769159441216006,-22.394702884935153,-0.028641106500958195,1.6579999999812571
-0.3964,0.9493,0.1618,0.1849,0.2558,0.315,-0.1488,-1.2687,-6.1075,9.752942340065925,-22.38646347433631,-0.02738392123504451,1.6679999999905704
-0.3981,0.9515,0.1634,0.1849,0.2558,0.315,-0.1488,-1.2687,-6.1075,9.75148904942131,-22.395365035308895,-0.026139307821789963,1.6779999999998836
-0.3966,0.9485,0.1639,0.1849,0.2558,0.315,-0.3938,-1.54,-6.2125,9.753652185376081,-22.394355522485654,-0.02759301054267358,1.687999999994645
-0.3989,0.9503,0.1607,0.1838,0.2556,0.3208,-0.3325,-1.5838,-5.985,9.750872097700693,-22.425254641516506,-0.02946579623612121,1.6979999999894062
-0.3989,0.9503,0.1607,0.1838,0.2556,0.3208,-0.1488,-1.5225,-5.355,9.725220012375736,-22.430780295836616,-0.029171138273759997,1.6979999999894062
-0.3986,0.9506,0.1721,0.1852,0.2562,0.3169,-0.1488,-1.5225,-5.355,9.815372180952778,-22.429894964451474,-0.030421272692458357,1.7079999999987194
-0.3983,0.9493,0.161,0.1852,0.2562,0.3169,-0.385,-1.6013,-5.6262,9.80908304304495,-22.436099647009623,-0.03243902576769628,1.7180000000080327
-0.3955,0.9502,0.162,0.1852,0.2562,0.3169,-0.1663,-1.6363,-5.775,9.788261957007151,-22.40550259340987,-0.034783101304738266,1.727999999988242
-0.3998,0.9482,0.1632,0.1863,0.2562,0.3116,-0.3325,-1.4963,-5.8187,9.787860568440502,-22.44755123479159,-0.035717736092885276,1.7379999999975553
-0.3953,0.9514,0.1645,0.1863,0.2562,0.3116,-0.3325,-1.4963,-5.8187,9.788249818616357,-22.399266797501678,-0.03536055873195642,1.7379999999975553
-0.3953,0.9514,0.1645,0.1847,0.2574,0.3147,-0.1488,-1.4612,-5.6962,9.791841460280105,-22.373528527662298,-0.03594192894414705,1.7479999999923166
-0.3967,0.9492,0.1637,0.1847,0.2574,0.3147,-0.2887,-1.3825,-6.02,9.791444047671751,-22.377422078776803,-0.03573835545485073,1.7580000000016298
-0.399,0.9504,0.165,0.1847,0.2574,0.3147,-0.2975,-1.3125,-5.8975,9.794352399958077,-22.406179817053996,-0.034843817700583625,1.7679999999963911
-0.3962,0.9486,0.1602,0.1829,0.2556,0.3107,-0.2975,-1.3125,-5.8975,9.783811183033846,-22.399311404379006,-0.03395822532307753,1.7780000000057044
-0.3976,0.9506,0.1617,0.1829,0.2556,0.3107,-0.2187,-1.5488,-5.8187,9.768648637407576,-22.401682456048206,-0.03361864306984676,1.7780000000057044
-0.3976,0.9506,0.1617,0.184,0.2562,0.3146,-0.6913,-1.82,-5.7312,9.739466427901805,-22.403092847885777,-0.03776955243026806,1.7879999999859137
-0.3969,0.9498,0.1607,0.184,0.2562,0.3146,-0.3588,-1.8112,-5.8975,9.738371773126017,-22.39993140207479,-0.04179183271006318,1.797999999995227
-0.399,0.9526,0.1659,0.184,0.257,0.3166,-0.3588,-1.8112,-5.8975,9.73950296171416,-22.407005812300127,-0.04577389018065754,1.8079999999899883
-0.3968,0.9489,0.1613,0.1856,0.257,0.3166,-0.4462,-1.6275,-5.6613,9.731464113718852,-22.406522583551933,-0.047897497081255035,1.8179999999993015
-0.3993,0.9509,0.1621,0.1856,0.257,0.3166,-0.21,-1.4787,-5.7312,9.724403108119839,-22.423734086516603,-0.047418522110442486,1.8179999999993015
-0.3987,0.9498,0.1661,0.1854,0.2543,0.3151,-0.21,-1.4787,-6.1687,9.748470052128175,-22.44084961387301,-0.0480525626887575,1.8279999999940628
-0.3987,0.9498,0.1661,0.1854,0.2543,0.3151,-0.1925,-1.8725,-6.1687,9.771833959204704,-22.450859636662525,-0.05257888286653292,1.838000000003376
-0.3989,0.9502,0.1594,0.1845,0.2543,0.3159,-0.0175,-1.5225,-5.8713,9.709627320223468,-22.46246157137415,-0.053594939837059874,1.8479999999981374
-0.398,0.9507,0.166,0.1845,0.2543,0.3159,0.1488,-1.4088,-5.8362,9.774529325046382,-22.448424746009874,-0.05347520623847124,1.8579999999928987
-0.3994,0.9495,0.1623,0.1845,0.2543,0.3159,0.1488,-1.4088,-5.8362,9.749682913066545,-22.468116862644987,-0.052940454176086525,1.8579999999928987
-0.3977,0.9498,0.1636,0.1835,0.2565,0.3199,-0.245,-1.225,-5.705,9.751922970235542,-22.459235983671856,-0.05100764543506087,1.86799999998766
-0.3977,0.9498,0.1636,0.1835,0.2565,0.3199,-0.2537,-1.575,-5.7312,9.753796881652583,-22.451513046197512,-0.05255916478263027,1.8779999999969732
-0.397,0.9494,0.1635,0.1819,0.2546,0.3173,-0.1663,-1.5488,-5.81,9.756520702999634,-22.437137607503292,-0.053835788933859846,1.8879999999917345
-0.3984,0.9511,0.1575,0.1819,0.2546,0.3173,-0.1663,-1.5488,-5.81,9.701435973789073,-22.441293149032084,-0.055099646846199696,1.8980000000010477
-0.397,0.9502,0.1657,0.1819,0.2546,0.3173,-0.2275,-1.2687,-5.7575,9.722340892184299,-22.425321110957096,-0.0545486503777377,1.8980000000010477
-0.3976,0.9507,0.1603,0.1838,0.2569,0.3138,-0.5775,-1.7413,-5.7137,9.694320097020105,-22.422433559643466,-0.05771112967201784,1.907999999995809
-0.3953,0.9509,0.1669,0.1838,0.2569,0.3138,-0.84,-1.4525,-5.53,9.779976066907697,-22.412094751309294,-0.058322402494922154,1.9219999999913853
-0.3953,0.9509,0.1669,0.1835,0.2574,0.3126,-0.84,-1.4525,-5.53,9.837490546847583,-22.402442588206117,-0.05790894763062514,1.9239999999990687
-0.3975,0.949,0.1617,0.1835,0.2574,0.3126,-0.385,-1.4262,-5.6962,9.831928959061715,-22.40892984634277,-0.05791833395401061,1.93399999999383
-0.3996,0.9518,0.1654,0.1835,0.2574,0.3126,-0.0437,-1.4963,-6.0025,9.83809641577206,-22.43107102164236,-0.05862161641379866,1.9439999999885913
-0.3939,0.949,0.1635,0.1845,0.2568,0.3118,-0.2187,-1.6625,-6.0637,9.830777140803704,-22.36155825969468,-0.060963246052387454,1.9539999999979045
-0.3956,0.9494,0.16,0.1845,0.2568,0.3118,-0.2187,-1.6625,-6.0637,9.799903933933845,-22.352406802673176,-0.06035361359186358,1.9539999999979045
-0.3956,0.9494,0.1657,0.1851,0.2556,0.3114,-0.1312,-1.75,-5.5912,9.81795427632084,-22.348284402403447,-0.06354417325395735,1.9639999999926658
-0.4,0.9508,0.1657,0.1851,0.2556,0.3114,-0.315,-1.5313,-5.7838,9.820296578886971,-22.388347972497872,-0.06453769732293488,1.974000000001979
-0.3983,0.9503,0.1601,0.1838,0.2551,0.3172,-0.5425,-1.5137,-6.0988,9.77888967156805,-22.414598647381958,-0.06534704614894345,1.9839999999967404
-0.3972,0.9521,0.1648,0.1838,0.2551,0.3172,-0.5425,-1.5137,-6.0988,9.785519536083877,-22.387877364671258,-0.06614830148880885,1.9940000000060536
-0.3959,0.9511,0.1642,0.1838,0.2551,0.3172,-0.3063,-1.5488,-5.775,9.78592754584094,-22.367440305486404,-0.06548681847392075,1.9940000000060536
-0.3972,0.95,0.1618,0.1845,0.2578,0.3114,-0.4112,-1.4787,-6.195,9.779065362239395,-22.381240439347106,-0.0659401760869883,2.003999999986263
-0.3972,0.95,0.1618,0.1845,0.2578,0.3114,-0.4112,-1.4787,-6.09,9.772594619734916,-22.388494104738395,-0.06638900012715053,2.013999999995576
-0.3955,0.9512,0.1621,0.1837,0.2581,0.3148,-0.525,-1.3737,-6.09,9.757549165073664,-22.349535846636297,-0.06579383592584302,2.0239999999903375
-0.3958,0.9484,0.1617,0.1837,0.2581,0.3148,-0.385,-1.6975,-5.74,9.754837191731063,-22.352305083332848,-0.06841024336963407,2.0339999999996508
-0.398,0.9515,0.1661,0.1837,0.2581,0.3148,0.0437,-1.5662,-5.7488,9.796502348508799,-22.361763796040044,-0.06772614093593773,2.0339999999996508
-0.395,0.9494,0.1638,0.1841,0.2554,0.3182,0.0437,-1.5662,-5.7488,9.794344655675234,-22.346393095783483,-0.069023355325544,2.043999999994412
-0.395,0.9494,0.1604,0.1841,0.2554,0.3182,-0.4025,-1.6187,-5.8713,9.784257299015405,-22.334402571697698,-0.0708273475746115,2.0540000000037253
-0.3994,0.9504,0.1604,0.185,0.2555,0.3155,-0.2975,-1.4963,-5.8187,9.773918154586047,-22.380427750009776,-0.07140153989819355,2.0639999999984866
-0.3972,0.9493,0.164,0.185,0.2555,0.3155,-0.5512,-1.365,-5.9763,9.77854243671514,-22.389369264860797,-0.07067012029922073,2.073999999993248
-0.4006,0.9508,0.1663,0.185,0.2555,0.3155,-0.5512,-1.365,-5.9763,9.802331396526352,-22.440687915758076,-0.06996341909622852,2.073999999993248
-0.3969,0.9498,0.1632,0.1855,0.2561,0.319,-0.1838,-1.4963,-5.845,9.794800278488044,-22.424875072802372,-0.07054625070459439,2.083999999988009
-0.3953,0.9479,0.1647,0.1855,0.2561,0.319,-0.1488,-1.3737,-6.0113,9.80522870133778,-22.393371800768033,-0.06990951399761246,2.0939999999973224
-0.3953,0.9479,0.1647,0.1839,0.2557,0.3116,-0.5075,-1.5575,-5.985,9.81222942313997,-22.37371206225167,-0.07109876465664709,2.1039999999920838
-0.3969,0.9511,0.1634,0.1839,0.2557,0.3116,-0.5075,-1.5575,-5.985,9.803565759935712,-22.36775242566755,-0.07227612281183929,2.114000000001397
-0.3953,0.9513,0.1657,0.1839,0.2557,0.3116,-0.4288,-1.61,-5.7225,9.809160580457565,-22.34586910853396,-0.0715533615837209,2.114000000001397
-0.3962,0.95,0.1647,0.1846,0.2563,0.3143,-0.455,-1.8025,-6.2562,9.811649663982367,-22.342769451389533,-0.0751516737656238,2.1239999999961583
-0.3982,0.9493,0.1639,0.1846,0.2563,0.3143,0.105,-0.8662,-5.8975,9.80667108596171,-22.37784870732385,-0.06944463282335238,2.1340000000054715
-0.3982,0.95,0.1648,0.1832,0.257,0.3099,0.105,-0.8662,-5.8975,9.81753374585075,-22.39683812847702,-0.06379466230492613,2.143999999985681
-0.3963,0.95,0.1648,0.1832,0.257,0.3099,-0.455,-1.5225,-5.7575,9.819785007883329,-22.384597337262385,-0.06469856148331284,2.153999999994994
-0.3991,0.9503,0.1594,0.1829,0.2563,0.3141,-0.2537,-1.4875,-5.6613,9.793448273360411,-22.403802373882876,-0.0640515758684797,2.153999999994994
-0.4006,0.9511,0.1631,0.1829,0.2563,0.3141,-0.0613,-1.1812,-6.02,9.779376919027534,-22.45460205318465,-0.061574035910757274,2.1639999999897555
-0.3969,0.9492,0.1624,0.1829,0.2563,0.3141,-0.0613,-1.1812,-6.02,9.763538922262338,-22.434668061586184,-0.059121271349938845,2.1739999999990687
-0.3992,0.9495,0.1632,0.1839,0.2554,0.3093,-0.0437,-1.4438,-5.9763,9.760992865616837,-22.45931711976595,-0.0592927744360399,2.18399999999383
-0.3992,0.9495,0.1632,0.1839,0.2554,0.3093,-0.14,-1.3388,-5.6,9.759549556328693,-22.465208942322825,-0.05842306249142173,2.194000000003143
-0.3979,0.9487,0.1645,0.1838,0.2564,0.318,-0.14,-1.3913,-5.7312,9.77302933761986,-22.462562652429963,-0.05783883186650751,2.194000000003143
-0.3964,0.9526,0.1608,0.1838,0.2564,0.318,-0.28,-1.3913,-5.7312,9.76036641933729,-22.429757835555133,-0.057503409347361596,2.2039999999833526
-0.3967,0.9517,0.1618,0.1838,0.2564,0.318,-0.595,-1.2775,-5.7663,9.738440624591826,-22.408545776365333,-0.056044721053065016,2.213999999992666
-0.3968,0.9495,0.1618,0.1833,0.2559,0.3241,-0.5075,-1.5137,-5.9237,9.729248545577082,-22.402653467608726,-0.056938999641772285,2.223999999987427
-0.3968,0.9495,0.1633,0.1833,0.2559,0.3241,-0.5075,-1.5137,-5.9237,9.733221574217508,-22.39694861454423,-0.05782433544670938,2.2339999999967404
-0.3991,0.9495,0.1633,0.1853,0.258,0.3155,-0.3675,-1.3737,-5.6262,9.733640091532257,-22.41193924039105,-0.05724609209224229,2.2339999999967404
-0.3945,0.9495,0.164,0.1853,0.258,0.3155,-0.4462,-1.5838,-5.915,9.739388263525463,-22.365958496358026,-0.05882234697019423,2.2439999999915017
-0.3989,0.9504,0.1629,0.1853,0.258,0.3155,-0.5425,-1.5225,-5.81,9.737245388039376,-22.39407816210174,-0.05977596930192825,2.254000000000815
-0.3955,0.9504,0.1641,0.1862,0.2558,0.3252,-0.5425,-1.5225,-5.81,9.746754812931975,-22.36890026643542,-0.06072005540810125,2.263999999995576
-0.397,0.9504,0.1589,0.1862,0.2558,0.3252,-0.6212,-1.6625,-5.9763,9.692441404499476,-22.37666388416686,-0.06304070065248643,2.2739999999903375
-0.397,0.9504,0.1589,0.1843,0.2552,0.3182,-0.5425,-1.6187,-5.9325,9.660127960824655,-22.381486263097845,-0.06241029364596157,2.2739999999903375
-0.3969,0.9508,0.1635,0.1843,0.2552,0.3182,-0.3675,-1.5925,-5.7312,9.661730941711532,-22.37736841016282,-0.06402103650833119,2.283999999985099
-0.3969,0.9498,0.1602,0.1843,0.2552,0.3194,-0.3675,-1.5925,-5.7312,9.660278683703591,-22.3810287129511,-0.06561567194532925,2.293999999994412
-0.3962,0.9492,0.1631,0.1845,0.2545,0.3194,-0.4638,-1.2337,-5.88,9.669380424060408,-22.37511051178048,-0.06364224102656604,2.3039999999891734
-0.3983,0.9495,0.1638,0.1845,0.2545,0.3194,-0.84,-1.3038,-5.9062,9.70830676624219,-22.401075890478648,-0.062382534415719906,2.3139999999984866
-0.3952,0.9512,0.1657,0.1854,0.2559,0.3194,-0.6388,-1.715,-6.0462,9.747114812561914,-22.348813372059062,-0.06175870907156271,2.3139999999984866
-0.3952,0.9512,0.1657,0.1854,0.2559,0.3194,-0.6388,-1.715,-6.0462,9.777243084504587,-22.3158887614878,-0.064588717779041,2.323999999993248
-0.3982,0.9495,0.1634,0.1835,0.2556,0.3093,-0.4812,-1.5225,-5.8275,9.775763086431267,-22.353483729029247,-0.06548467640268656,2.334000000002561
-0.3986,0.9521,0.1637,0.1835,0.2556,0.3093,-0.4288,-1.54,-5.6962,9.77431731832981,-22.366436225050432,-0.06654492543526541,2.3439999999827705
-0.3967,0.9496,0.1656,0.1835,0.2556,0.3093,-0.6388,-1.2075,-6.2737,9.800702217303453,-22.367728754932003,-0.0643028219794444,2.3539999999920838
-0.3993,0.9478,0.1625,0.1843,0.2564,0.3075,-0.6388,-1.2075,-6.2737,9.784610129964957,-22.449487376450012,-0.06365979375964995,2.3539999999920838
-0.3993,0.9478,0.1625,0.1843,0.2564,0.3075,-0.035,-1.3388,-5.6613,9.771207125939608,-22.466379835816685,-0.06274641162219845,2.363999999986845
-0.3991,0.9509,0.166,0.1853,0.2555,0.3182,-0.4725,-1.6013,-5.7312,9.785452979454284,-22.465632013278302,-0.06444091330813898,2.3739999999961583
-0.3985,0.9493,0.1604,0.1853,0.2555,0.3182,-0.4725,-1.7062,-6.055,9.764285654083464,-22.47303213372892,-0.06715697997329714,2.3839999999909196
-0.3969,0.9515,0.1637,0.1853,0.2555,0.3182,-0.6125,-1.7062,-6.055,9.763777750609348,-22.426010628697963,-0.06984588597669386,2.394000000000233
-0.3978,0.9495,0.1617,0.1838,0.2541,0.315,-0.4988,-1.19,-5.9237,9.751005233017704,-22.43081992197588,-0.06739752291784365,2.403999999994994
-0.3977,0.9502,0.163,0.1838,0.2541,0.315,-0.2625,-1.365,-5.8713,9.749621845011013,-22.426791442590034,-0.06672354768866522,2.403999999994994
-0.3977,0.9502,0.163,0.1882,0.2551,0.3154,-0.2625,-1.365,-5.8713,9.748350589378633,-22.423939298613664,-0.06603890801178769,2.4139999999897555
-0.3968,0.9487,0.1645,0.1882,0.2551,0.3154,-0.1838,-1.61,-5.8362,9.761030904262734,-22.41653549309379,-0.06778661473040828,2.4239999999845168
-0.3968,0.9506,0.1607,0.1882,0.2551,0.3154,-0.14,-1.68,-5.8362,9.732169999424077,-22.404095633752533,-0.07020984438599233,2.43399999999383
-0.399,0.9506,0.1663,0.1839,0.2556,0.3227,-0.42,-1.7062,-5.5825,9.744538328594874,-22.410569251660522,-0.06950774594213241,2.43399999999383
-0.3986,0.9496,0.162,0.1839,0.2556,0.3227,-0.42,-1.7062,-5.5825,9.74044354716103,-22.418063524272757,-0.07217314428584078,2.444000000003143
-0.3986,0.9496,0.162,0.1846,0.258,0.3122,-0.2537,-1.4612,-6.0113,9.735218085233473,-22.439633208596913,-0.07238638864249257,2.4539999999979045
-0.3954,0.952,0.1654,0.1846,0.258,0.3122,-0.6037,-1.9338,-6.0462,9.759636655307405,-22.37119536048693,-0.0772762405531268,2.463999999992666
-0.3962,0.9504,0.1606,0.1642,0.2555,0.3168,-0.1575,-1.3125,-5.88,9.732382223467539,-22.363461848251486,-0.07596632394787693,2.473999999987427
-0.3979,0.9504,0.164,0.1826,0.2555,0.3168,-0.1575,-1.3125,-5.88,9.741789855610813,-22.380067740244197,-0.07520666070839817,2.473999999987427
-0.399,0.9482,0.1672,0.1826,0.2555,0.3168,-0.105,-1.5488,-5.5563,9.792797939486814,-22.391542828838663,-0.07625680990299263,2.4839999999967404
-0.3989,0.95,0.1662,0.1843,0.2546,0.3151,-0.6388,-1.7587,-5.635,9.821990284465397,-22.40338451093199,-0.07937446760192998,2.4939999999915017
-0.3989,0.95,0.1662,0.1843,0.2546,0.3151,-0.2713,-1.855,-5.5388,9.829444522565808,-22.408360934717766,-0.08341431873041232,2.504000000000815
-0.3966,0.95,0.1638,0.1842,0.2521,0.3133,-0.2713,-1.855,-5.5388,9.826013946543807,-22.404960383989625,-0.08741377134057603,2.513999999995576
-0.3944,0.9485,0.1601,0.1842,0.2521,0.3133,-0.245,-1.7938,-5.6962,9.80257223931592,-22.38374283322673,-0.08653963362717026,2.513999999995576
-0.3958,0.9498,0.1619,0.1842,0.2521,0.3133,-0.4375,-1.4438,-6.0725,9.792263312277736,-22.364282639148705,-0.0864369530916089,2.5240000000048894
-0.3992,0.9529,0.1651,0.1846,0.2542,0.316,-0.2362,-1.1287,-6.02,9.796090775642316,-22.387884165595615,-0.08321580936192746,2.5339999999996508
-0.3992,0.9529,0.1607,0.1846,0.2542,0.316,-0.2362,-1.1287,-6.02,9.773115326822982,-22.408574511593045,-0.08002687706954284,2.543999999994412
-0.3933,0.9514,0.1607,0.1834,0.2554,0.3146,-0.0088,-0.98,-5.5475,9.725765883339383,-22.389690246989254,-0.07539770410085325,2.5539999999891734
-0.3969,0.9488,0.1657,0.1834,0.2554,0.3146,-0.49,-1.3212,-5.9062,9.747841368569675,-22.391524110084404,-0.07464372705984472,2.5539999999891734
-0.3951,0.9509,0.1652,0.1834,0.2554,0.3146,-0.49,-1.645,-6.0637,9.76102062108307,-22.342965332556165,-0.0766518855918117,2.5639999999984866
-0.3969,0.9501,0.1635,0.1842,0.2566,0.3144,-0.455,-1.645,-6.0637,9.761323819927858,-22.355668981497708,-0.07863996253445055,2.573999999993248
-0.3974,0.9511,0.1648,0.1842,0.2566,0.3144,-0.0525,-1.7675,-5.9325,9.777147592952426,-22.362472461384996,-0.08182090871280093,2.584000000002561
-0.3974,0.9511,0.1648,0.1833,0.2571,0.3166,-0.5863,-1.68,-5.845,9.78726530004825,-22.36647394031462,-0.08410379542404836,2.5939999999973224
-0.3978,0.9489,0.1615,0.1833,0.2571,0.3166,-0.5863,-1.68,-5.845,9.762812255758455,-22.39093764809732,-0.08326275746980788,2.5939999999973224
-0.3976,0.9506,0.1645,0.1833,0.2571,0.3166,-0.28,-1.575,-5.9062,9.766438523421629,-22.393231895576665,-0.08449172569402981,2.6039999999920838
-0.3955,0.9497,0.1633,0.1842,0.2573,0.3114,-0.1925,-1.7413,-5.9938,9.76508713149961,-22.365768199193397,-0.08735477423514704,2.613999999986845
-0.3972,0.9517,0.164,0.1842,0.2573,0.3114,-0.1138,-1.6187,-5.7488,9.767439073017496,-22.36383884238345,-0.0889754522951185,2.6239999999961583
-0.3972,0.9517,0.1645,0.1852,0.2546,0.3191,-0.1138,-1.6187,-5.7488,9.77493921600756,-22.36194425551606,-0.09057992357086067,2.6339999999909196
-0.3966,0.9499,0.1645,0.1852,0.2546,0.3191,-0.3063,-1.785,-5.6,9.777060002934672,-22.36194981144276,-0.08967412433515207,2.6339999999909196
-0.398,0.9512,0.1596,0.1841,0.2553,0.3222,-0.5863,-1.6013,-6.0462,9.728965730453101,-22.384730577951828,-0.09109934889396305,2.644000000000233
-0.398,0.9495,0.1661,0.1841,0.2553,0.3222,-0.6913,-1.3212,-5.9588,9.778157307273453,-22.4016940313992,-0.0897373312052597,2.653999999994994
-0.4007,0.9509,0.1616,0.1841,0.2553,0.3222,-0.6913,-1.3212,-5.9588,9.74431223484751,-22.45434300880579,-0.08838893369278707,2.6640000000043074
-0.3983,0.9493,0.1667,0.185,0.2564,0.3127,-0.595,-1.47,-5.7663,9.786613168873036,-22.453984451386912,-0.0885271401538364,2.6739999999845168
-0.3983,0.9493,0.1667,0.185,0.2564,0.3127,-0.4638,-1.2775,-6.125,9.804206370477727,-22.453518164304228,-0.08764186875229804,2.6739999999845168
-0.3971,0.9487,0.1608,0.1823,0.2557,0.3164,-0.6037,-1.5313,-6.1337,9.76699819259902,-22.442145696724882,-0.08839441586629215,2.68399999999383
-0.3969,0.9512,0.1602,0.1823,0.2557,0.3164,-0.6037,-1.5313,-6.1337,9.725197442421642,-22.41129444447746,-0.08913943750677587,2.6939999999885913
-0.3983,0.9505,0.1627,0.1823,0.2557,0.3164,-0.1925,-1.4963,-5.845,9.723580026352726,-22.419946271073872,-0.0895305089329025,2.7039999999979045
-0.3985,0.9487,0.1611,0.1866,0.2559,0.3189,-0.4112,-1.435,-5.74,9.718671917951795,-22.436511208235757,-0.08931079964321956,2.713999999992666
-0.3985,0.9492,0.1642,0.1866,0.2559,0.3189,-0.28,-1.2687,-5.6262,9.724989634228345,-22.441893270261737,-0.08841769164678737,2.713999999992666
-0.3981,0.9492,0.1642,0.1843,0.256,0.316,-0.28,-1.2687,-5.6262,9.73089014872677,-22.4435912182924,-0.08656274052941539,2.724000000001979
-0.3956,0.9475,0.1621,0.1843,0.256,0.316,0.07,-1.4525,-5.4163,9.724193482909955,-22.440552362153113,-0.08654595892367656,2.7339999999967404
-0.397,0.9524,0.1598,0.1843,0.256,0.316,-0.2187,-1.5137,-6.02,9.700935481715,-22.407043390822025,-0.08713522513367772,2.7439999999915017
-0.3966,0.9498,0.161,0.1863,0.255,0.31,-0.2187,-1.47,-5.9412,9.691581554029161,-22.397078652077564,-0.08728596868180549,2.753999999986263
-0.397,0.9519,0.1615,0.1863,0.255,0.31,-0.175,-1.47,-5.9412,9.682251130995185,-22.382317381745985,-0.08641310899498744,2.753999999986263
-0.397,0.9519,0.1615,0.1838,0.2554,0.3122,-0.2625,-1.4787,-5.7312,9.677946838710653,-22.375766822874365,-0.08665720370606969,2.763999999995576
-0.3946,0.95,0.1623,0.1838,0.2554,0.3122,-0.21,-1.4612,-5.95,9.68004203445756,-22.339603868481035,-0.0867256074685192,2.7739999999903375
-0.3992,0.9493,0.1587,0.1838,0.2554,0.3122,-0.21,-1.4612,-5.95,9.656687129256758,-22.401305831761665,-0.08679332719470478,2.7839999999996508
-0.3967,0.9523,0.1624,0.1838,0.2561,0.3228,-0.2537,-1.61,-6.0813,9.65855470158104,-22.372075678793895,-0.08833348972149621,2.793999999994412
-0.3958,0.9501,0.163,0.1838,0.2561,0.3228,-0.385,-1.4963,-6.0813,9.661087507168173,-22.353063180239545,-0.08873262062547564,2.8040000000037253
-0.3958,0.9507,0.1629,0.1848,0.2555,0.3102,-0.3938,-1.3913,-5.8888,9.663647900706541,-22.340273905778663,-0.08784529441922088,2.8040000000037253
-0.3947,0.9507,0.1629,0.1848,0.2555,0.3102,-0.3938,-1.3913,-5.8888,9.666102515092556,-22.31450841573184,-0.08720980727454783,2.8139999999839347
-0.3955,0.9503,0.1665,0.1842,0.257,0.313,-0.14,-1.2075,-5.7663,9.713387386691888,-22.308904410046924,-0.08476105500033398,2.823999999993248
-0.3967,0.9498,0.1643,0.1842,0.257,0.313,-0.3325,-1.4088,-5.8888,9.715188522330363,-22.32722786549981,-0.08432966025011261,2.833999999988009
-0.3996,0.9526,0.1619,0.1842,0.257,0.313,0.0525,-1.7062,-5.7925,9.695189673149013,-22.362370528453233,-0.08348636364761149,2.833999999988009
-0.3993,0.9492,0.1654,0.1856,0.2553,0.3142,0.0525,-1.7062,-5.7925,9.749632282029575,-22.39939227722426,-0.08601197581426506,2.8439999999973224
-0.3993,0.9492,0.1654,0.1856,0.2553,0.3142,0.035,-1.3125,-5.8362,9.787215783571932,-22.429792094121886,-0.08461470185640381,2.8539999999920838
-0.3974,0.9481,0.1617,0.1844,0.2554,0.315,-0.1225,-1.4787,-5.7137,9.767064377692959,-22.433858824600073,-0.0848767806388719,2.864000000001397
-0.3997,0.951,0.1671,0.1844,0.2554,0.315,-0.42,-1.2687,-5.6175,9.779936640847215,-22.441168729981253,-0.08305723863440441,2.8739999999816064
-0.3992,0.9512,0.162,0.1844,0.2554,0.315,-0.42,-1.2687,-5.6175,9.77251253201896,-22.445939036210305,-0.08222666624806037,2.8739999999816064
-0.3966,0.9521,0.1646,0.1852,0.2551,0.3184,-0.7875,-1.3737,-5.6262,9.78342290170721,-22.42736804340296,-0.08147312538564377,2.8839999999909196
-0.3966,0.9504,0.1635,0.1852,0.2551,0.3184,-0.2887,-1.155,-5.88,9.782125876150966,-22.405995049610063,-0.07856198993288559,2.893999999985681
-0.3934,0.9504,0.1635,0.184,0.2562,0.316,-0.2537,-1.3388,-6.0813,9.780276162884052,-22.32406468191172,-0.07749958583329895,2.903999999994994
-0.3989,0.9503,0.1644,0.184,0.2562,0.316,-0.2537,-1.3388,-6.0813,9.78333877782226,-22.3803916295885,-0.07644780577511097,2.9139999999897555
-0.3957,0.9506,0.1667,0.184,0.2562,0.316,-0.0787,-1.8112,-5.7312,9.818212234107481,-22.361892409631576,-0.07568332771735986,2.9139999999897555
-0.3951,0.9514,0.1581,0.183,0.2559,0.3121,0.0962,-2.0125,-5.9763,9.69984193399412,-22.333009654800502,-0.08131934024614007,2.9239999999990687
-0.3986,0.9511,0.1634,0.183,0.2559,0.3121,0.0962,-1.5575,-5.8012,9.714812483933553,-22.360984433138487,-0.08239449264268943,2.93399999999383
-0.3986,0.9511,0.1634,0.1834,0.2547,0.3083,0.0175,-1.5575,-5.8012,9.723827384471875,-22.381824756140336,-0.08345889351527329,2.9439999999885913
-0.3985,0.9491,0.1637,0.1834,0.2547,0.3083,-0.5512,-1.3825,-5.7225,9.73421846175413,-22.4018725051312,-0.08278015038003893,2.9539999999833526
-0.3977,0.948,0.163,0.1834,0.2547,0.3083,-0.42,-1.505,-5.8713,9.735636068540629,-22.419587247852004,-0.08195234887623853,2.9539999999833526
-0.397,0.9493,0.1665,0.1846,0.2545,0.3178,-0.42,-1.505,-5.8713,9.749401788555986,-22.41021845341665,-0.08250142118875076,2.963999999992666
-0.3983,0.9505,0.1634,0.1846,0.2545,0.3178,-0.42,-1.1375,-5.9062,9.749722197418993,-22.41938349342855,-0.07940675277474947,2.974000000001979
-0.3983,0.9525,0.1652,0.1846,0.2537,0.3099,-0.595,-1.4787,-5.8012,9.767329495739128,-22.412460924542625,-0.07972091104642141,2.9839999999967404
-0.3984,0.9525,0.1652,0.1846,0.2537,0.3099,-0.3325,-1.3737,-5.4862,9.768618216451186,-22.412057631919247,-0.0789924277359212,2.9939999999915017
-0.3978,0.9498,0.1607,0.1834,0.2558,0.3134,-0.3325,-1.3737,-5.4862,9.765659192287504,-22.41276053353433,-0.07820250345856199,2.9939999999915017
-0.3974,0.95,0.1649,0.1834,0.2558,0.3134,-0.7,-1.295,-5.8012,9.78677441838747,-22.40928884509116,-0.07671007422331476,3.004000000000815
-0.3958,0.951,0.164,0.1834,0.2558,0.3134,-0.35,-1.155,-5.915,9.786772760557785,-22.375202817812696,-0.07384656928217986,3.013999999995576
-0.3992,0.9506,0.1614,0.184,0.2578,0.3228,-0.525,-1.645,-6.0988,9.764425807201377,-22.4202082119123,-0.07586269938791503,3.0239999999903375
-0.3992,0.9506,0.1614,0.184,0.2578,0.3228,-0.525,-1.645,-6.0988,9.745395689227168,-22.44765154614583,-0.0778586681966013,3.0339999999996508
-0.3988,0.9512,0.1645,0.1847,0.2565,0.3174,-0.3063,-1.5137,-5.6087,9.748212798762713,-22.447549000276034,-0.07708008151463529,3.0339999999996508
-0.3996,0.95,0.1631,0.1847,0.2565,0.3174,-0.1838,-1.4175,-5.9675,9.747296534441054,-22.471046320392833,-0.07681162649922577,3.043999999994412
-0.3985,0.9511,0.1617,0.1847,0.2565,0.3174,-0.245,-1.4875,-5.6262,9.73788083803003,-22.467116026316273,-0.07723885603534676,3.0540000000037253
-0.3935,0.9504,0.164,0.183,0.2561,0.3182,-0.245,-1.4875,-5.6262,9.742909541960449,-22.428217771069228,-0.0776618132743671,3.0639999999984866
-0.3994,0.9486,0.1637,0.183,0.2561,0.3182,-0.21,-1.645,-5.6962,9.74885434655666,-22.44850657447627,-0.07963979094018038,3.073999999993248
-0.3994,0.9486,0.1637,0.186,0.2553,0.3134,-0.2887,-1.2425,-5.705,9.751321133906387,-22.46539158242508,-0.07884339303077857,3.073999999993248
-0.3958,0.9509,0.1656,0.186,0.2553,0.3134,-0.5775,-1.4175,-5.705,9.774930166250126,-22.432098082296786,-0.07855730490020763,3.083999999988009
-0.3965,0.9485,0.1632,0.186,0.2553,0.3134,-0.5775,-1.4175,-5.705,9.772684766153874,-22.423865953522707,-0.0782740776516734,3.0939999999973224
-0.3994,0.9505,0.1598,0.1851,0.2569,0.317,-0.28,-1.0938,-5.565,9.757545918828042,-22.4319730382449,-0.0747890526765723,3.1039999999920838
-0.3986,0.9504,0.1627,0.1851,0.2569,0.317,0.2713,-1.3563,-5.6788,9.740984660574583,-22.436961963701226,-0.07404116214980658,3.1039999999920838
-0.3986,0.9504,0.1627,0.1834,0.2554,0.3232,0.2713,-1.3563,-5.7838,9.730774304846268,-22.442524985022313,-0.07319721632821209,3.114000000001397
-0.4005,0.9495,0.1648,0.1834,0.2554,0.3232,0.0962,-1.2075,-5.7838,9.766503600859187,-22.473093161042623,-0.07088858996575594,3.1239999999961583
-0.3983,0.9504,0.1665,0.1834,0.2554,0.3162,-0.4288,-1.4787,-5.7663,9.778837508098102,-22.463155057228402,-0.0712879298671305,3.1340000000054715
-0.3974,0.9493,0.1627,0.1844,0.2549,0.3162,-0.2625,-1.47,-5.7663,9.774506119838081,-22.45334559839605,-0.07159714636643641,3.143999999985681
-0.3991,0.9516,0.1657,0.1844,0.2549,0.3162,-0.2625,-1.47,-5.7663,9.782874615842585,-22.452446173429575,-0.07088117490277204,3.143999999985681
-0.397,0.9489,0.1646,0.1838,0.2554,0.3173,-0.49,-1.8288,-5.7663,9.78996076932172,-22.44072439856416,-0.07474657895800439,3.153999999994994
-0.397,0.9489,0.1646,0.1838,0.2554,0.3173,-0.2625,-1.5575,-5.8187,9.794084261323029,-22.43063523516635,-0.07588745896743511,3.1639999999897555
-0.395,0.9515,0.1625,0.1846,0.2562,0.3097,-0.7175,-1.4963,-5.775,9.766592424824816,-22.3884066116342,-0.07641105017895515,3.1739999999990687
-0.3974,0.9515,0.1621,0.1846,0.2562,0.3097,-0.7175,-1.4963,-5.775,9.740197195229518,-22.38594365033301,-0.07692940547649377,3.18399999999383
-0.3985,0.9507,0.1585,0.1846,0.2562,0.3097,-0.49,-1.1638,-5.9938,9.706581706030084,-22.4128140284901,-0.07415082721985755,3.194000000003143
-0.3953,0.9506,0.1651,0.1838,0.2549,0.3125,-0.0437,-1.1287,-5.4775,9.740935248938772,-22.41037213335051,-0.07340931894765898,3.194000000003143
-0.3953,0.9506,0.1651,0.1838,0.2549,0.3125,-0.0613,-1.5313,-5.565,9.766050788554052,-22.397801137332795,-0.07430419155732902,3.2039999999979045
-0.3974,0.9503,0.1608,0.1858,0.255,0.3162,-0.0613,-1.5313,-5.565,9.72968579184946,-22.398727983192376,-0.07519011544090237,3.213999999992666
-0.3986,0.9518,0.1644,0.1858,0.255,0.3162,-0.3762,-1.6187,-5.6875,9.731427413851772,-22.40356242553315,-0.07693244008518671,3.223999999987427
-0.3962,0.9506,0.1584,0.1858,0.255,0.3162,-0.0525,-1.0588,-5.9325,9.669163238431734,-22.385892712966,-0.07311433148149545,3.2339999999967404
-0.3981,0.9512,0.1583,0.1846,0.2565,0.325,-0.1488,-1.19,-5.915,9.63211905536701,-22.400675088988592,-0.07238318816668049,3.2339999999967404
-0.3972,0.9492,0.1649,0.1846,0.2565,0.325,-0.1488,-1.19,-5.915,9.669621280434727,-22.402184897808468,-0.06990945208593041,3.2439999999915017
-0.3972,0.9492,0.1649,0.1837,0.2558,0.3155,-0.1225,-1.3913,-5.6613,9.704132766066817,-22.402742155256213,-0.06945332336529739,3.254000000000815
-0.3984,0.9489,0.1615,0.1837,0.2558,0.3155,-0.2625,-1.1287,-5.88,9.700476017380101,-22.42705629538037,-0.06640201593287906,3.263999999995576
-0.4005,0.9529,0.165,0.1837,0.2558,0.3155,-0.2275,-1.4,-6.0988,9.713990321588119,-22.453989434743093,-0.06606709157337787,3.2739999999903375
-0.3973,0.9509,0.162,0.1852,0.2542,0.3227,-0.2275,-1.4,-6.0988,9.7089856225932,-22.427377807628545,-0.06540642065764408,3.2739999999903375
-0.3975,0.9525,0.1629,0.1852,0.2542,0.3227,-0.6125,-1.6013,-5.95,9.708166481255198,-22.405130966431038,-0.06707432224985124,3.283999999985099
-0.3975,0.9525,0.1629,0.1846,0.2549,0.3111,-1.085,-1.7325,-5.7137,9.706841693173752,-22.39593194104506,-0.07002442483072491,3.293999999994412
-0.3988,0.9477,0.1654,0.1846,0.2549,0.3111,-1.085,-1.3563,-5.8187,9.78862107122065,-22.427722301148048,-0.06922064638247191,3.3039999999891734
-0.3981,0.9492,0.1649,0.1846,0.2554,0.317,-0.56,-1.3563,-5.8187,9.800172056723397,-22.43394233957516,-0.06842490571855078,3.3139999999984866
-0.3976,0.949,0.166,0.1862,0.2554,0.317,-0.0263,-1.715,-5.9412,9.829976864142969,-22.431356267944363,-0.06774065666136528,3.3139999999984866
-0.4003,0.9509,0.1604,0.1862,0.2554,0.317,-0.0613,-1.7062,-5.8713,9.772669298481153,-22.464132208642162,-0.07042372589299119,3.323999999993248
-0.3977,0.9494,0.1642,0.1834,0.2566,0.3101,-0.0613,-1.7062,-5.8713,9.781567572920924,-22.453955257482928,-0.07307996443719096,3.334000000002561
-0.3977,0.9494,0.1642,0.1834,0.2566,0.3101,-0.42,-1.61,-5.495,9.783560065750523,-22.453094628286166,-0.07475726058805329,3.3439999999827705
-0.3969,0.9478,0.1593,0.1849,0.2564,0.3159,-0.77,-1.5662,-5.7488,9.711821453163676,-22.449928473947086,-0.07598416378401164,3.3539999999920838
-0.3973,0.9491,0.1652,0.1849,0.2564,0.3159,-0.4725,-1.26,-5.495,9.729424874494,-22.44859043436252,-0.07522432214617153,3.3539999999920838
-0.3977,0.9506,0.1632,0.1849,0.2564,0.3159,-0.4725,-1.26,-5.495,9.730750056124107,-22.447176758941826,-0.0734151747252635,3.363999999986845
-0.3994,0.9511,0.1637,0.1836,0.2558,0.3135,-0.3938,-1.1988,-5.6525,9.732200745484628,-22.452858065531135,-0.07051940351696558,3.3769999999931315
-0.3994,0.9511,0.1656,0.1836,0.2558,0.3135,-0.5775,-1.33,-5.8275,9.758968033615046,-22.458929968510542,-0.06948669570212636,3.385999999984051
-0.3998,0.9489,0.1656,0.1836,0.2549,0.3158,-0.6388,-1.5838,-5.775,9.790385816409765,-22.478697476747495,-0.06922157190988283,3.3880000000062864
-0.3997,0.9499,0.1652,0.1836,0.2549,0.3158,-0.6388,-1.5838,-5.775,9.807254440957502,-22.487866132914554,-0.07067807198653156,3.397999999986496
-0.397,0.949,0.1667,0.1836,0.2549,0.3158,-0.6475,-1.7675,-5.2937,9.842866224922082,-22.474414131632866,-0.07393863707036114,3.407999999995809
-0.3978,0.9479,0.1587,0.1845,0.256,0.3157,-0.5863,-1.7062,-5.46,9.778342388870076,-22.474425996989307,-0.07655972649789708,3.4179999999905704
-0.3975,0.9502,0.1656,0.1845,0.256,0.3157,-0.5425,-1.54,-5.88,9.795693895889139,-22.451656923762133,-0.0757941292329181,3.4179999999905704
-0.3975,0.9502,0.1656,0.185,0.2547,0.322,-0.5425,-1.54,-5.88,9.810253045389022,-22.435635216366038,-0.07675128374218623,3.4279999999998836
-0.3974,0.9488,0.1615,0.185,0.2547,0.322,-0.455,-1.5137,-5.7575,9.796064233752242,-22.435724346564307,-0.0774384967040023,3.437999999994645
-0.3982,0.9518,0.1652,0.185,0.2547,0.322,-0.2713,-1.5662,-5.8362,9.799774406952103,-22.426369152191185,-0.07863858753880115,3.448000000003958
-0.3986,0.9507,0.1601,0.1838,0.2557,0.3127,-0.6913,-1.7587,-5.7575,9.738614913320813,-22.434694375580495,-0.07785220166341314,3.448000000003958
-0.3972,0.9496,0.164,0.1838,0.2557,0.3127,-0.6913,-1.7587,-5.7575,9.753847315211292,-22.42682065307041,-0.08095390544474629,3.4579999999987194
-0.3972,0.9496,0.1631,0.1834,0.256,0.3202,-0.4725,-1.7938,-5.845,9.7529770533274,-22.420367554069735,-0.08437208218808406,3.4679999999934807
-0.3961,0.9492,0.1631,0.1834,0.256,0.3202,-0.6562,-1.5488,-5.7575,9.752247608012317,-22.40555837736254,-0.0853305771652591,3.477999999988242
-0.3979,0.9492,0.1637,0.1833,0.2556,0.3178,-0.6562,-1.4438,-5.8275,9.759920018993387,-22.416279636069,-0.08523998719431686,3.4879999999975553
-0.3987,0.9487,0.1633,0.1833,0.2556,0.3178,-0.6737,-1.4438,-5.8275,9.761558506391369,-22.438234903863187,-0.08515030312197412,3.4979999999923166
-0.3981,0.9486,0.1609,0.1833,0.2556,0.3178,-0.2625,-1.085,-6.0025,9.750634922946059,-22.452195962490126,-0.08429880009075438,3.4979999999923166
-0.3979,0.9504,0.1637,0.1838,0.2567,0.3135,-0.4288,-1.2687,-6.16,9.752249068641357,-22.439159491904004,-0.08248503788894274,3.50800000000163
-0.3979,0.9504,0.1637,0.1838,0.2567,0.3135,-0.4288,-1.2687,-6.16,9.75374629030783,-22.43149611425754,-0.08068941331056187,3.517999999996391
-0.3948,0.9484,0.1657,0.1854,0.2555,0.3184,0.0263,-1.3475,-5.8362,9.796640902298135,-22.394644089562963,-0.07969186497755613,3.5279999999911524
-0.3972,0.9504,0.1651,0.1854,0.2555,0.3184,0.0263,-1.9075,-5.7663,9.812582330607402,-22.391207142347277,-0.08424829212497612,3.5379999999859137
-0.3997,0.9503,0.1662,0.1854,0.2555,0.3184,-0.1838,-2.0475,-5.9412,9.827982221661658,-22.428227171116944,-0.08340580920372635,3.5379999999859137
-0.3981,0.9498,0.1629,0.1842,0.2562,0.3107,-0.1838,-2.0475,-5.9412,9.814267791679486,-22.433997072026806,-0.0893110969179656,3.547999999995227
-0.3981,0.9515,0.1665,0.1842,0.2562,0.3107,-0.3413,-1.3563,-6.0637,9.815304433847093,-22.42043730858121,-0.08831445174884019,3.5579999999899883
-0.3996,0.9515,0.1665,0.1845,0.2556,0.3153,-0.7437,-1.2425,-5.985,9.84639728661468,-22.438913972641803,-0.08620115303020612,3.5679999999993015
-0.397,0.9483,0.1615,0.1845,0.2556,0.3153,-0.525,-1.4875,-5.6,9.81947574574369,-22.43731972835992,-0.08653448729927786,3.577999999994063
-0.401,0.9492,0.1602,0.1845,0.2556,0.3153,-0.525,-1.4875,-5.6,9.783893600875077,-22.459312310575154,-0.08566914242628508,3.577999999994063
-0.3977,0.9513,0.1664,0.1846,0.2552,0.3132,-0.4288,-1.54,-5.845,9.793877084672191,-22.437833467649522,-0.08652754680361954,3.588000000003376
-0.397,0.9501,0.1634,0.1846,0.2552,0.3132,-0.4025,-1.1725,-5.775,9.79212878039834,-22.42444828778874,-0.08373911713938939,3.5979999999835854
-0.397,0.9501,0.1634,0.1843,0.2556,0.3142,-0.5775,-1.505,-5.9325,9.785888595123899,-22.410840031341195,-0.0842703217692701,3.6079999999928987
-0.3973,0.9504,0.1612,0.1843,0.2556,0.3142,-0.5775,-1.505,-5.9325,9.75641951235665,-22.407007274767594,-0.0834276185515774,3.6079999999928987
-0.3939,0.9525,0.1632,0.1843,0.2556,0.3142,-0.84,-1.82,-5.9675,9.745298463503527,-22.32911813146161,-0.08708043816371099,3.61799999998766
-0.3962,0.9504,0.1632,0.1846,0.256,0.3204,-0.5163,-1.7062,-5.9325,9.745063031200537,-22.331322202612892,-0.08957010958520356,3.627999999996973
-0.397,0.9501,0.1649,0.1846,0.256,0.3204,-0.8313,-1.6013,-5.4862,9.777894683543666,-22.33253152984255,-0.09099637428813513,3.6379999999917345
-0.397,0.9484,0.1623,0.1838,0.2559,0.3145,-0.8313,-1.6013,-5.4862,9.7561736090859,-22.33488918751913,-0.09240837634741629,3.6480000000010477
-0.3962,0.9484,0.1623,0.1838,0.2559,0.3145,-0.4025,-1.4787,-5.5825,9.753947985458346,-22.339897748129122,-0.09148429258394213,3.6480000000010477
-0.3988,0.9506,0.1639,0.1853,0.2569,0.3124,-0.595,-1.5838,-5.5213,9.759575017556552,-22.347038157150553,-0.09379252335485086,3.6629999999859137
-0.3967,0.951,0.1645,0.1853,0.2569,0.3124,-0.595,-1.4787,-5.7838,9.770196732274462,-22.346397108931594,-0.09396282392233447,3.672999999995227
-0.3974,0.9496,0.1643,0.1853,0.2569,0.3124,-0.5425,-1.4787,-5.7838,9.777591325650898,-22.361884810492406,-0.09357730858201452,3.6779999999853317
-0.3985,0.9504,0.1649,0.1853,0.2566,0.3155,-0.315,-2.0125,-5.74,9.779851883846186,-22.380504745561332,-0.09903438130214817,3.687999999994645
-0.3985,0.9504,0.1649,0.1853,0.2566,0.3155,-0.1838,-1.7413,-5.7925,9.788907344908402,-22.3970737185553,-0.10175200328718421,3.697999999989406
-0.3953,0.9489,0.1649,0.1826,0.2578,0.3182,-0.1838,-1.7413,-5.7925,9.798849515082946,-22.376546978838604,-0.10258846615603903,3.702999999994063
-0.398,0.9506,0.1631,0.1826,0.2578,0.3182,-0.28,-1.68,-5.8275,9.794684322547774,-22.389232229972475,-0.10466367729736677,3.713000000003376
-0.3977,0.9507,0.1684,0.1826,0.2578,0.3182,-0.3237,-1.4175,-5.6875,9.801260347891924,-22.388874702365708,-0.10386821342389602,3.7179999999934807
-0.3963,0.9492,0.1627,0.1825,0.2573,0.3153,-0.2625,-1.6538,-5.8012,9.795192909390442,-22.383439274783424,-0.10567124709230362,3.728000000002794
-0.4005,0.9509,0.1678,0.1825,0.2573,0.3153,-0.2625,-1.6538,-5.8012,9.812412775215506,-22.420123539658558,-0.10603539251856862,3.7329999999928987
-0.4005,0.9509,0.1678,0.1838,0.2562,0.3145,-0.6125,-1.3212,-5.915,9.85291723703288,-22.453690948265955,-0.10452401439361922,3.74299999998766
-0.395,0.9478,0.1638,0.1838,0.2562,0.3145,-0.1312,-1.5225,-5.7925,9.84430641439733,-22.421830549306158,-0.10502062005111899,3.752999999996973
-0.4008,0.951,0.1622,0.1838,0.2562,0.3145,-0.2362,-1.3475,-5.4425,9.82733049513511,-22.42406320936162,-0.10387508675079647,3.757999999987078
-0.3978,0.9501,0.1694,0.1855,0.2549,0.3175,-0.2362,-1.3475,-5.4425,9.856314270489552,-22.42369320097949,-0.10264568168311095,3.767999999996391
-0.3996,0.9483,0.1624,0.1855,0.2549,0.3175,-0.0875,-1.785,-6.0287,9.827463735708019,-22.471365457491643,-0.10368952276820795,3.7730000000010477
-0.3996,0.9483,0.1624,0.1832,0.2555,0.318,0.0263,-1.33,-5.81,9.79745342360801,-22.493107111397947,-0.10228872334071652,3.782999999995809
-0.4006,0.9502,0.1649,0.1832,0.2555,0.318,-0.3675,-1.6538,-5.95,9.79824192785284,-22.514267349362097,-0.10410755190995591,3.7930000000051223
-0.3983,0.9475,0.1638,0.1832,0.2555,0.3142,-0.3675,-1.6538,-5.95,9.79840512069313,-22.509755107524526,-0.1044873342880444,3.797999999995227
-0.3982,0.9508,0.1651,0.183,0.255,0.3142,-0.665,-1.6013,-5.6262,9.810935042198572,-22.497253030987743,-0.10576442674394755,3.8079999999899883
-0.3957,0.9489,0.1641,0.183,0.255,0.3142,-0.2362,-1.5575,-5.8362,9.810995280826642,-22.45369034929644,-0.1056509553773874,3.812999999994645
-0.3988,0.9506,0.1617,0.1841,0.2551,0.3151,-0.6825,-1.4612,-5.8275,9.771829263599729,-22.457864334803936,-0.10552942162312373,3.822999999989406
-0.3988,0.9506,0.1617,0.1841,0.2551,0.3151,-0.6825,-1.4612,-5.8275,9.74242079860671,-22.460914069253633,-0.10540910320776326,3.8329999999987194
-0.3968,0.952,0.1642,0.1834,0.2561,0.3166,-0.7613,-1.8112,-5.8888,9.755115894994663,-22.42155550810044,-0.10655500007773452,3.838000000003376
-0.3994,0.9493,0.1624,0.1834,0.2561,0.3166,-0.4112,-1.3563,-5.985,9.752417401259889,-22.456907280425394,-0.10537556245697165,3.849000000001979
-0.3975,0.9523,0.1646,0.1834,0.2561,0.3166,-0.1225,-1.715,-5.9062,9.76244411939656,-22.42631797862565,-0.10604560472899043,3.8539999999920838
-0.3947,0.9484,0.1631,0.183,0.255,0.3203,-0.1225,-1.715,-5.9062,9.761604645675751,-22.387636266991617,-0.1087775040612189,3.8649999999906868
-0.3947,0.9484,0.1631,0.183,0.255,0.3203,-0.1488,-1.0675,-5.9325,9.76098668794682,-22.359843917060683,-0.10650466733605406,3.8690000000060536
-0.3983,0.9507,0.162,0.1847,0.256,0.3161,-0.315,-0.91,-6.0025,9.757862350007237,-22.388316264822993,-0.10091771647164263,3.878999999986263
-0.396,0.9506,0.1646,0.1847,0.256,0.3161,-0.315,-0.91,-6.0025,9.760127867057099,-22.363104800859176,-0.09719539678308335,3.8849999999947613
-0.3979,0.9501,0.1587,0.1847,0.256,0.3161,-0.5775,-1.5313,-5.635,9.708869623116492,-22.37526493859775,-0.09785240861439916,3.8949999999895226
-0.3974,0.9511,0.1615,0.1862,0.2552,0.3094,-0.3413,-1.3038,-5.8187,9.708200813141287,-22.378767355685852,-0.09649991400772549,3.900999999998021
-0.3956,0.9494,0.1617,0.1862,0.2552,0.3094,-0.2013,-1.4525,-5.8275,9.70268386688897,-22.36599216452641,-0.09638376066720356,3.9109999999927823
-0.3956,0.9494,0.1617,0.1834,0.2543,0.3159,-0.2013,-1.4525,-5.8275,9.697884043108411,-22.356657934565526,-0.09626876886008684,3.9209999999875436
-0.3994,0.952,0.1618,0.1834,0.2543,0.3159,-0.3675,-1.33,-5.8187,9.697022230497565,-22.386733467858583,-0.09508773865117671,3.926999999996042
-0.3975,0.9509,0.1652,0.1834,0.2543,0.3159,-0.1925,-1.3125,-5.8012,9.718688094844103,-22.386189762695047,-0.09359970706494634,3.936999999990803
-0.3955,0.9493,0.1596,0.184,0.2585,0.3184,-0.315,-1.2513,-5.8888,9.712649811098515,-22.370989995902136,-0.09197788947498882,3.9429999999847496
-0.3946,0.9503,0.1634,0.184,0.2585,0.3184,-0.315,-1.2513,-5.8888,9.714156705881706,-22.336397854518754,-0.0899150763791744,3.952999999994063
-0.3946,0.9503,0.1634,0.1837,0.2548,0.3069,-0.1838,-1.33,-5.6438,9.720193103025782,-22.323840356548995,-0.0888339735152132,3.9579999999987194
-0.3976,0.9509,0.1623,0.1837,0.2548,0.3069,-0.315,-2.0738,-5.7925,9.719011900455468,-22.342886147672775,-0.09564532115908322,3.9689999999973224
-0.3996,0.9517,0.1634,0.1837,0.2578,0.3146,-0.4812,-1.6538,-5.7838,9.721698067876325,-22.376757799488452,-0.09610972584468043,3.973999999987427
-0.3974,0.9485,0.162,0.1841,0.2578,0.3146,-0.4812,-1.6538,-5.7838,9.718312185463212,-22.39238292752387,-0.09827451596997189,3.985000000000582
-0.3992,0.949,0.1603,0.1841,0.2578,0.3146,-0.7437,-1.715,-6.0988,9.681434030037655,-22.44514082223235,-0.09901556870686067,3.9899999999906868
-0.3967,0.9524,0.1682,0.1855,0.2557,0.3204,-0.4025,-1.505,-5.4338,9.697886070800504,-22.441651351125717,-0.09953086839960087,4.00099999998929
-0.3967,0.9524,0.1682,0.1855,0.2557,0.3204,-0.175,-1.575,-5.845,9.745357049098502,-22.4028632879036,-0.09956635761656488,4.005999999993946
-0.3918,0.9495,0.1622,0.1849,0.256,0.3139,-0.175,-1.575,-5.845,9.737693512792386,-22.32792184535567,-0.10063228984231924,4.01600000000326
-0.3986,0.9531,0.1614,0.1849,0.256,0.3139,-0.0437,-1.5575,-5.775,9.708029943684378,-22.347275374127765,-0.10075897442275293,4.021999999997206
-0.3975,0.9504,0.1654,0.1849,0.256,0.3139,-0.665,-1.6275,-5.3812,9.747341798113466,-22.35065601234278,-0.10233273047717313,4.031999999991967
-0.3981,0.9492,0.1601,0.1825,0.2551,0.3094,-0.7437,-1.8637,-5.6,9.698402836823591,-22.365199299724267,-0.10376926607469232,4.036999999996624
-0.3981,0.9492,0.1624,0.1825,0.2551,0.3094,-0.7437,-1.8637,-5.6,9.701339784139964,-22.376942688180193,-0.10814327179325813,4.047999999995227
-0.3994,0.9515,0.1624,0.1831,0.2566,0.3169,-0.5863,-1.61,-6.1425,9.698374797301314,-22.418194071885747,-0.10946993487756826,4.05800000000454
-0.3955,0.9503,0.164,0.1831,0.2566,0.3169,-0.4638,-1.8288,-5.6875,9.707835851289456,-22.396126013544265,-0.1115771865877808,4.065000000002328
-0.3985,0.9509,0.161,0.1831,0.2566,0.3169,-0.4638,-1.8288,-5.6875,9.697875098463722,-22.406191825951478,-0.11274852261737667,4.069999999992433
-0.3963,0.9505,0.166,0.1831,0.2565,0.3188,-0.2887,-1.54,-5.5738,9.7100560779446,-22.39823677148901,-0.11333613319280021,4.080000000001746
-0.3983,0.9502,0.1573,0.1831,0.2565,0.3188,-0.5775,-1.6712,-5.7312,9.65268707152621,-22.413035627916543,-0.1137097597622757,4.085000000006403
-0.3983,0.9502,0.1573,0.1861,0.2554,0.3166,-0.2275,-1.7237,-5.5912,9.624939932458801,-22.41938644642085,-0.1168131331203746,4.096999999994296
-0.3976,0.9522,0.1645,0.1861,0.2554,0.3166,-0.2275,-1.7237,-5.5912,9.644312357200564,-22.41307915538077,-0.11847198242974678,4.1049999999959255
-0.3978,0.9498,0.1643,0.1861,0.2554,0.3166,0.105,-1.3125,-6.0462,9.69747013098108,-22.417763425890048,-0.11685753924536177,4.112999999997555
-0.398,0.9494,0.1621,0.1861,0.2549,0.3222,-0.5688,-1.3212,-6.1512,9.695992202136459,-22.43176434788124,-0.1152830420733177,4.121999999988475
-0.3963,0.9504,0.1643,0.1861,0.2549,0.3222,-0.4725,-1.435,-5.7925,9.708157747205052,-22.408096485387908,-0.11460312871341823,4.129000000000815
-0.3963,0.9504,0.1639,0.1825,0.2561,0.3181,-0.4725,-1.435,-5.7925,9.716460147591086,-22.39070524055941,-0.11399757406541104,4.136999999987893
-0.3967,0.9496,0.1639,0.1825,0.2561,0.3181,-0.245,-1.4,-5.9412,9.723749796275117,-22.38572363033723,-0.11305505580503661,4.142999999996391
-0.3991,0.9503,0.1614,0.1834,0.2556,0.3148,-0.665,-1.505,-5.6788,9.703530163598884,-22.40482530272413,-0.11329310104626927,4.152999999991152
-0.3963,0.9497,0.1674,0.1834,0.2556,0.3148,-0.3762,-1.5838,-5.74,9.710816486879342,-22.39069320698844,-0.11323452793680715,4.157999999995809
-0.3979,0.9492,0.1641,0.1834,0.2556,0.3148,-0.3762,-1.5838,-5.74,9.7132444378184,-22.40237670275163,-0.11446577003713891,4.168999999994412
-0.3968,0.9495,0.1658,0.1837,0.2562,0.3174,-0.2713,-1.3475,-6.0113,9.727352299562074,-22.392897872830613,-0.11322578523667874,4.173999999999069
-0.3968,0.9495,0.1658,0.1837,0.2562,0.3174,-0.3588,-1.2687,-5.95,9.728778793878678,-22.387246464430042,-0.11102567576444758,4.184999999997672
-0.3972,0.9501,0.1576,0.183,0.2549,0.3133,-0.315,-1.2163,-5.8362,9.718075379526322,-22.39416829369691,-0.10917065190827704,4.189999999987776
-0.3989,0.9514,0.1638,0.183,0.2549,0.3133,-0.315,-1.2163,-5.8362,9.719820422356873,-22.40954608360146,-0.10658941118780704,4.19999999999709
-0.396,0.9484,0.167,0.183,0.2549,0.3133,-0.175,-1.3737,-5.6525,9.759691505857921,-22.400435663699422,-0.10556475255588738,4.205999999991036
-0.3984,0.9495,0.1624,0.185,0.2546,0.32,-0.3762,-1.3388,-6.0988,9.758351847170042,-22.427259672331207,-0.10423232083007072,4.216000000000349
-0.3984,0.9495,0.1605,0.185,0.2546,0.32,-0.0437,-1.3212,-5.8713,9.719834600139476,-22.441453715471628,-0.10296448552156,4.221000000005006
-0.3963,0.9517,0.1605,0.1822,0.255,0.3142,-0.0437,-1.3212,-5.8713,9.68525163372719,-22.407087253169095,-0.1014387140464074,4.232000000003609
-0.3957,0.9498,0.1606,0.1822,0.255,0.3142,-0.14,-1.6013,-5.6,9.669938719191524,-22.39780393622547,-0.10158530980364568,4.236999999993714
-0.3993,0.9508,0.1634,0.1822,0.255,0.3142,-0.3675,-1.6013,-5.8625,9.671282986285142,-22.422705584021543,-0.10312361908528485,4.247999999992317
-0.398,0.951,0.1638,0.1848,0.255,0.3201,-0.3675,-1.6013,-5.8625,9.672958425102353,-22.41988764719915,-0.10325336579551325,4.252999999996973
-0.396,0.9492,0.1606,0.1848,0.255,0.3201,-0.6037,-1.5838,-5.8625,9.658877025006545,-22.40257295420586,-0.10458441951725796,4.263999999995576
-0.396,0.9492,0.1606,0.183,0.256,0.3138,-0.28,-1.2687,-6.02,9.655201480810229,-22.387154154939786,-0.10256780112118127,4.274000000004889
-0.3937,0.9498,0.167,0.183,0.256,0.3138,-0.0525,-1.0938,-5.9588,9.728014865262482,-22.327286575055414,-0.10019098101264345,4.278999999994994
-0.3969,0.9491,0.1619,0.183,0.256,0.3138,-0.0525,-1.0938,-5.9588,9.717097716979438,-22.352514215316845,-0.09756770068022054,4.2850000000034925
-0.3994,0.949,0.1649,0.1801,0.2562,0.3202,0.0437,-1.3913,-5.565,9.756781634086769,-22.368717647655554,-0.09683498947293749,4.294999999983702
-0.398,0.9489,0.1657,0.1801,0.2562,0.3202,-0.2713,-1.785,-5.6788,9.767707267269648,-22.38327627233218,-0.10000723538206435,4.304999999993015
-0.398,0.9489,0.159,0.1833,0.2567,0.3108,-0.7437,-1.8025,-5.8625,9.69563772843164,-22.409139173952255,-0.1011640859302525,4.309999999997672
-0.3941,0.9508,0.159,0.1833,0.2567,0.3108,-0.7437,-1.8025,-5.8625,9.638635578834036,-22.359217511313187,-0.10489767545034734,4.320999999996275
-0.3947,0.9506,0.1615,0.1836,0.255,0.3174,-0.7788,-1.75,-5.88,9.63966510707469,-22.33027103077997,-0.10688397533646224,4.3289999999979045
-0.3953,0.9503,0.163,0.1836,0.255,0.3174,-0.3762,-1.2075,-5.8187,9.64198378004412,-22.320400525395367,-0.10455381222513498,4.336999999984982
-0.3951,0.9502,0.1656,0.1836,0.255,0.3174,-0.0088,-1.435,-5.7488,9.704198626139595,-22.310334238167115,-0.10404875074397686,4.345000000001164
-0.3964,0.9487,0.1621,0.1842,0.2554,0.3158,-0.0088,-1.435,-5.7488,9.702168077696024,-22.3271384004034,-0.10354873987566408,4.352999999988242
-0.3964,0.9487,0.1621,0.1842,0.2554,0.3158,-0.3325,-1.8112,-5.81,9.702061887231785,-22.342200630133952,-0.10603323312402736,4.361000000004424
-0.3974,0.9488,0.1631,0.1862,0.2547,0.3158,-0.245,-1.855,-5.7137,9.7070168035676,-22.360104226937,-0.10883977742654107,4.368999999991502
-0.3972,0.9505,0.1617,0.1862,0.2547,0.3158,-0.7175,-1.6975,-5.6438,9.692999195163019,-22.36477297417615,-0.11037085629280932,4.3769999999931315
-0.3966,0.9537,0.1628,0.1862,0.2547,0.3158,-0.7175,-1.6975,-5.6438,9.691448385922081,-22.353090374714835,-0.1118866243704149,4.384999999994761
-0.3945,0.9487,0.1605,0.184,0.2543,0.3138,-0.35,-1.4525,-5.565,9.691385501207694,-22.347413477636827,-0.11144683476684909,4.392999999996391
-0.3945,0.9501,0.1629,0.184,0.2543,0.3138,-0.77,-1.6013,-5.7925,9.702522843257864,-22.324724050633968,-0.11195774247866701,4.399999999994179
-0.4006,0.9501,0.1629,0.1836,0.2557,0.3164,-0.77,-1.89,-5.6525,9.71036994333027,-22.36396003640465,-0.1149822416947246,4.407999999995809
-0.3952,0.9515,0.1676,0.1836,0.2557,0.3164,-0.9887,-1.89,-5.6525,9.819196425411183,-22.344965166669077,-0.11797649591862161,4.415999999997439
-0.3991,0.9503,0.1609,0.1836,0.2557,0.3164,-0.63,-1.8112,-5.6262,9.773501581486913,-22.36624795090478,-0.12031671159374971,4.423999999984517
-0.3994,0.9504,0.1644,0.1842,0.2558,0.3127,-0.455,-1.3563,-5.5825,9.777316739767869,-22.380324558943922,-0.11903071711764468,4.4320000000006985
-0.3977,0.9495,0.1606,0.1842,0.2558,0.3127,-0.455,-1.3563,-5.5825,9.760592921909485,-22.386885099528143,-0.11775758258660203,4.439999999987776
-0.3977,0.9495,0.1606,0.1842,0.2553,0.319,-0.4725,-1.3212,-5.88,9.743183318189912,-22.402609461995517,-0.11621918740000618,4.448000000003958
-0.3988,0.9511,0.1654,0.1842,0.2553,0.319,-0.6037,-1.3913,-6.0287,9.767839783852496,-22.418253640283652,-0.11525136816569216,4.455999999991036
-0.3966,0.9505,0.162,0.1842,0.2553,0.319,-1.015,-1.5662,-6.125,9.729728322832464,-22.394353989610117,-0.11567843512435705,4.463999999992666
-0.4008,0.9505,0.1641,0.1834,0.255,0.3086,-1.015,-1.5662,-6.125,9.75591111515808,-22.46223363154939,-0.11610123141343529,4.471999999994296
-0.398,0.95,0.164,0.1834,0.255,0.3086,-0.4462,-1.3737,-6.1775,9.759277042893391,-22.449940907569893,-0.11499519973931213,4.4799999999959255
-0.398,0.9496,0.1629,0.1842,0.2578,0.317,-0.0787,-1.2862,-6.1163,9.753895258223801,-22.44798747369392,-0.11320722838178902,4.487999999997555
-0.3975,0.9496,0.1629,0.1842,0.2578,0.317,-0.0525,-1.1725,-5.81,9.749350397293703,-22.440613097672053,-0.1105366327376577,4.495999999999185
-0.397,0.9515,0.1663,0.1838,0.2555,0.3214,-0.0525,-1.1725,-5.81,9.787132227604914,-22.415229806455642,-0.10789274305276624,4.503999999986263
-0.4,0.9507,0.1671,0.1838,0.2555,0.3214,-0.2275,-1.6187,-5.67,9.80705756692461,-22.431514859064936,-0.10880919626627467,4.512000000002445
-0.4,0.9506,0.1673,0.1838,0.2555,0.3214,-0.2887,-1.6625,-5.8362,9.817242627280072,-22.453012638863463,-0.11006338093982854,4.519999999989523
-0.3961,0.95,0.1633,0.1832,0.2562,0.3116,-0.2362,-1.155,-5.9588,9.81069601195682,-22.41493599908778,-0.10728562376703792,4.528000000005704
-0.3961,0.95,0.1633,0.1832,0.2562,0.3116,-0.2362,-1.155,-5.9588,9.804822005604901,-22.389550540228665,-0.10453564417207653,4.535999999992782
-0.398,0.9494,0.1578,0.1854,0.2554,0.3221,-0.4112,-1.785,-5.8625,9.78383316028277,-22.41182130379424,-0.1068027643710306,4.543999999994412
-0.3977,0.9503,0.1668,0.1854,0.2554,0.3221,-0.315,-1.9075,-5.915,9.789746106730627,-22.408543650416405,-0.11001741336819279,4.551999999996042
-0.3964,0.9506,0.1612,0.1854,0.2554,0.3221,-0.7437,-1.6275,-5.5037,9.743124991331344,-22.405990597746353,-0.11098231587117521,4.55999999998312
-0.3998,0.952,0.1633,0.1841,0.2578,0.3078,-0.7437,-1.6275,-5.5037,9.74038843854309,-22.409393468743872,-0.11193756935664052,4.5679999999993015
-0.3998,0.949,0.1652,0.1841,0.2578,0.3078,-0.3063,-1.6013,-5.6262,9.746110963289835,-22.428201622320316,-0.11267576630007364,4.575999999986379
-0.3953,0.949,0.1652,0.1847,0.2567,0.316,-0.2713,-1.2862,-5.915,9.755591098171356,-22.391766925441136,-0.11091098927694293,4.583999999988009
-0.3965,0.9508,0.1649,0.1847,0.2567,0.316,-0.2713,-1.2775,-5.6175,9.761734549625613,-22.384262079176807,-0.10900659060369002,4.592999999993481
-0.3981,0.9504,0.1643,0.1847,0.2567,0.316,-0.49,-1.2775,-5.6175,9.767396500977144,-22.390330225068585,-0.10729796675784857,4.599999999991269
-0.398,0.951,0.1642,0.1846,0.2553,0.3124,-0.2975,-1.365,-5.3113,9.768847848439131,-22.39305029179722,-0.10620584247027252,4.610999999989872
-0.397,0.9501,0.166,0.1846,0.2553,0.3124,-0.28,-1.1725,-5.4163,9.778208213317107,-22.39222439929953,-0.10398989152393544,4.61699999999837
-0.397,0.9501,0.166,0.1836,0.2582,0.3236,-0.28,-1.1725,-5.4163,9.786950449634059,-22.39143222263295,-0.10160378466912147,4.623999999996158
-0.3969,0.9496,0.1585,0.1836,0.2582,0.3236,-0.5075,-1.3913,-5.7488,9.744806325083996,-22.394369548031722,-0.10080641604220963,4.632999999987078
-0.3974,0.9511,0.1659,0.1836,0.2582,0.3184,-0.1838,-1.6712,-5.81,9.766222099332886,-22.38879008295728,-0.10220953252227877,4.640999999988708
-0.4014,0.9495,0.1601,0.184,0.2568,0.3184,-0.5688,-1.26,-5.845,9.731251556411424,-22.45584998832169,-0.10034191383688373,4.6489999999903375
-0.399,0.9496,0.1667,0.184,0.2568,0.3184,-0.5688,-1.26,-5.845,9.771614438696314,-22.46317518967333,-0.09849297133834264,4.656999999991967
-0.3961,0.9501,0.1634,0.1854,0.2554,0.3198,-0.6825,-1.4175,-5.3375,9.76831576269182,-22.44945043949847,-0.0979099182650411,4.664999999993597
-0.3961,0.9501,0.1634,0.1854,0.2554,0.3198,-0.5775,-1.75,-5.6438,9.766477823872556,-22.431799906968614,-0.09996609572300906,4.672999999995227
-0.3975,0.9516,0.1621,0.1845,0.2554,0.315,-0.7437,-1.7413,-5.6525,9.738480209257261,-22.423586124031367,-0.1019328074063833,4.680999999996857
-0.3966,0.9508,0.1663,0.1845,0.2554,0.315,-0.7437,-1.7413,-5.6525,9.789968263899388,-22.40954291173271,-0.10350905539149932,4.687999999994645
-0.3969,0.9504,0.1594,0.1845,0.2554,0.315,-0.7088,-1.4088,-5.74,9.719040112966145,-22.404125376658122,-0.10284855905781207,4.697000000000116
-0.3983,0.9495,0.1638,0.1856,0.2555,0.3097,-0.6562,-1.5225,-5.775,9.73514508973687,-22.41733517781051,-0.10289936552689291,4.7039999999979045
-0.3983,0.9495,0.1638,0.1856,0.2555,0.3097,-0.665,-1.3475,-6.0637,9.74775177709896,-22.433083218269235,-0.10169878309151967,4.713000000003376
-0.3984,0.9497,0.1603,0.1834,0.2543,0.3172,-0.665,-1.3475,-6.0637,9.707794082695164,-22.44791025885394,-0.10054833732092408,4.719999999986612
-0.4002,0.9515,0.1615,0.1834,0.2543,0.3172,-0.315,-1.085,-5.915,9.705219718922665,-22.471194063759572,-0.09703239016618861,4.728999999992084
-0.3944,0.9492,0.1623,0.1834,0.2543,0.3172,-0.2187,-0.945,-5.6438,9.704954854245434,-22.440141380122718,-0.0931392833254503,4.735999999989872
-0.4002,0.9504,0.1639,0.1836,0.2565,0.3124,0.315,-1.0762,-5.7312,9.736796427547114,-22.460771169199376,-0.0896190187106219,4.744999999995343
-0.3969,0.9506,0.1673,0.1836,0.2565,0.3124,0.315,-1.0762,-5.7312,9.834593938078104,-22.437651630937467,-0.08642160916304686,4.752999999996973
-0.3969,0.9506,0.1673,0.183,0.2562,0.3158,-0.3413,-1.5925,-5.6525,9.835962878101574,-22.423879880351794,-0.08734526971178064,4.760999999998603
-0.3935,0.9485,0.1616,0.183,0.2562,0.3158,-0.385,-1.19,-5.5738,9.830423126583973,-22.405253983228633,-0.08524688407504989,4.767999999996391
-0.3986,0.9498,0.1638,0.183,0.2562,0.3158,-0.385,-1.5137,-5.7838,9.828911436262967,-22.420678134207986,-0.08555819587241958,4.775999999983469
-0.3973,0.9487,0.1634,0.185,0.2566,0.3235,-0.455,-1.5137,-5.7838,9.823583411464133,-22.422050568440724,-0.0858663945560494,4.783999999999651
-0.3972,0.9507,0.1617,0.185,0.2566,0.3235,-0.77,-1.33,-5.6525,9.773126807466529,-22.416184699071824,-0.0846802168302898,4.793000000005122
-0.3972,0.9507,0.1617,0.185,0.2553,0.3142,-0.6913,-1.4262,-5.7137,9.742553734647041,-22.410032683299416,-0.08424534772185674,4.80000000000291
-0.3953,0.9504,0.1673,0.185,0.2553,0.3142,-0.6913,-1.4262,-5.7137,9.803784302306138,-22.382725886093986,-0.0839325224641038,4.80899999999383
-0.3963,0.9503,0.159,0.185,0.2556,0.3211,-0.525,-1.4175,-5.845,9.758471709304347,-22.37578064778813,-0.08349507387954465,4.81699999999546
-0.396,0.9501,0.1611,0.1839,0.2556,0.3211,-0.0175,-0.8662,-5.9062,9.724764118117236,-22.364525493789287,-0.07869570377994153,4.82499999999709
-0.3976,0.9493,0.1667,0.1839,0.2556,0.3211,-0.2013,-1.2862,-5.88,9.755311323779864,-22.380154711821714,-0.07727072738201214,4.832999999998719
-0.3976,0.9519,0.1584,0.1838,0.2546,0.3105,-0.2013,-1.2862,-5.88,9.715323812844678,-22.383932208646012,-0.07593975316836843,4.8399999999965075
-0.3976,0.9519,0.1584,0.1838,0.2546,0.3105,-0.2887,-1.54,-5.4513,9.699697263820736,-22.383999519722416,-0.07672394185762317,4.849000000001979
-0.396,0.951,0.1631,0.1843,0.2565,0.3228,-0.175,-1.9162,-5.4687,9.704488811071796,-22.383315755488034,-0.080308283072018,4.856999999989057
-0.3978,0.9493,0.1632,0.1843,0.2565,0.3228,0.0525,-0.945,-5.6087,9.718921097544468,-22.390701657880218,-0.07658241729614536,4.864000000001397
-0.4006,0.9506,0.1665,0.1843,0.2565,0.3228,0.0525,-0.945,-5.6087,9.780931604101436,-22.410584884283015,-0.07164118892537127,4.873999999996158
-0.399,0.9506,0.1642,0.1846,0.2562,0.3072,-0.4288,-1.2862,-5.7838,9.782325026082958,-22.425271761721806,-0.07036651009629397,4.880999999993946
-0.399,0.9506,0.1642,0.1846,0.2562,0.3072,0.14,-1.505,-5.5037,9.78819849071616,-22.427211459974888,-0.07075772163555408,4.888999999995576
-0.3988,0.9519,0.162,0.1833,0.2557,0.3161,-0.2537,-1.7763,-5.8888,9.776720635678014,-22.431438251766902,-0.07329371705985935,4.896999999997206
-0.3975,0.9526,0.1652,0.1833,0.2557,0.3161,-0.2537,-1.7763,-5.8888,9.782174019697338,-22.406844066951372,-0.07580435252402154,4.904999999984284
-0.3985,0.9497,0.1604,0.1833,0.2557,0.3161,-0.035,-1.68,-5.5825,9.735227720736722,-22.414580575186736,-0.0778372952204781,4.9139999999897555
-0.397,0.9487,0.1602,0.1838,0.2553,0.3075,-0.2362,-1.6013,-5.2937,9.719762145340173,-22.41567576000027,-0.07891649490865175,4.921999999991385
-0.3974,0.9488,0.1648,0.1838,0.2553,0.3075,-0.3063,-1.7237,-5.81,9.72545154400207,-22.417912987201355,-0.08095431060014117,4.929999999993015
-0.3974,0.9488,0.1648,0.184,0.2559,0.3155,-0.3063,-1.7237,-5.81,9.730899041107504,-22.419568795523876,-0.0829717481347157,4.937999999994645
-0.3987,0.9487,0.1609,0.184,0.2559,0.3155,-0.3675,-1.6888,-5.8275,9.72916311802881,-22.442929845058377,-0.08469260329388816,4.945999999996275
-0.3991,0.9507,0.164,0.184,0.2559,0.3155,-0.1925,-1.7938,-5.9325,9.737125185021684,-22.45297662982166,-0.08722784989548618,4.953999999983353
-0.3963,0.9512,0.1621,0.1828,0.2546,0.317,-0.1925,-1.7938,-5.6438,9.728123758930655,-22.433543934260875,-0.08931497246174834,4.960999999995693
-0.3955,0.9502,0.1615,0.1828,0.2546,0.317,-0.1225,-1.715,-5.6438,9.71287460691499,-22.414335317411318,-0.09152465895400032,4.969999999986612
-0.3955,0.9502,0.1615,0.1826,0.2547,0.3242,-0.3675,-1.4963,-5.7925,9.711770935462788,-22.38835131113367,-0.09150713842604288,4.976999999998952
-0.3956,0.9509,0.1634,0.1826,0.2547,0.3242,-0.7175,-1.7675,-5.9588,9.722116444187318,-22.357065244822298,-0.09416267825817995,4.985999999989872
-0.3974,0.9509,0.1626,0.2031,0.2559,0.3209,-0.7175,-1.7675,-5.9588,9.717118969624442,-22.367629181070125,-0.09560145895319648,4.991999999983818
-0.3965,0.9524,0.1643,0.1863,0.2559,0.3209,-0.1138,-1.4787,-6.0287,9.730665453790657,-22.345338949046383,-0.09553202500545782,5.0
-0.3942,0.9487,0.1631,0.1863,0.2559,0.3209,-0.35,-1.47,-5.6788,9.730682551089124,-22.331667092263867,-0.09539438139408249,5.007999999987078
-0.3991,0.9508,0.1598,0.1846,0.2545,0.3219,-0.14,-1.54,-5.8012,9.697580579746147,-22.371261060882848,-0.0958125142204212,5.015999999988708
-0.3991,0.9508,0.1598,0.1846,0.2545,0.3219,-0.14,-1.54,-5.8012,9.670239531347132,-22.400757312291013,-0.09622646571849652,5.0239999999903375
-0.3972,0.9512,0.1643,0.1851,0.2546,0.3135,-0.2713,-1.3737,-5.6788,9.679781990505568,-22.39456444600705,-0.09532605428134916,5.032999999995809
-0.3986,0.9507,0.1635,0.1851,0.2546,0.3135,-0.5512,-1.4612,-5.6262,9.692876402448546,-22.402598233932693,-0.09512077437868806,5.040999999997439
-0.3964,0.9503,0.1663,0.1851,0.2546,0.3135,-0.5863,-1.6625,-5.6613,9.737345625083307,-22.391577988795852,-0.09709741243336736,5.0509999999922
-0.3978,0.9491,0.1611,0.1843,0.2562,0.3205,-0.5863,-1.6625,-5.6613,9.71755511129125,-22.401676047792023,-0.09759036121039708,5.055999999996857
-0.3978,0.9491,0.1633,0.1843,0.2562,0.3205,-0.4375,-1.6275,-5.7488,9.721152055938415,-22.411138688287917,-0.09867953423871381,5.063999999998487
-0.3974,0.9509,0.1633,0.1834,0.2563,0.3148,-0.4112,-1.7062,-5.8012,9.72248212739065,-22.404800691732905,-0.10071716711327523,5.072999999989406
