AcclX,AcclY,AcclZ,MagX,MagY,MagZ,GyroX,GyroY,GyroZ,Roll,Pitch,Yaw,Time Elapsed(s)
-0.3883,0.9514,0.1655,0.2354,0.259,0.2738,-0.525,-1.5313,-5.9588,0,0,0,0.00999999999476131
-0.3881,0.9512,0.172,0.2354,0.259,0.2738,-0.665,-1.4612,-5.7575,0,0,0,0.014999999999417923
-0.3881,0.9512,0.172,0.2359,0.2577,0.2824,-0.665,-1.4612,-5.7575,0,0,0,0.02499999997962732
-0.3843,0.9514,0.1664,0.2359,0.2577,0.2824,-0.7088,-1.4612,-5.565,0,0,0,0.02999999998428393
-0.3871,0.9538,0.1692,0.2359,0.2577,0.2824,-0.49,-1.4963,-5.8012,0,0,0,0.034999999988940544
-0.3867,0.9522,0.1683,0.2346,0.2584,0.2731,-0.0962,-1.8375,-5.88,0,0,0,0.04499999999825377
-0.3867,0.9507,0.171,0.2346,0.2584,0.2731,-0.0962,-1.8375,-5.88,0,0,0,0.05499999999301508
-0.3867,0.9507,0.1685,0.2368,0.2595,0.275,-0.4025,-1.8375,-5.5388,0,0,0,0.059999999997671694
-0.3866,0.9523,0.1685,0.2368,0.2595,0.275,-0.2013,-1.7237,-5.2325,0,0,0,0.069999999992433
-0.3851,0.9498,0.1713,0.2362,0.2581,0.2797,-0.5775,-1.3125,-5.6087,0,0,0,0.07499999999708962
-0.387,0.9521,0.1645,0.2362,0.2581,0.2797,-0.5775,-1.3125,-5.6087,0,0,0,0.08499999999185093
-0.3854,0.9531,0.1724,0.2362,0.2581,0.2797,-0.2887,-1.0325,-5.6613,0,0,0,0.08999999998195563
-0.3855,0.9518,0.1657,0.2358,0.2581,0.2752,-0.4025,-1.225,-5.53,0,0,0,0.09999999999126885
-0.3855,0.9518,0.1657,0.2358,0.2581,0.2752,-0.4025,-1.225,-5.4775,0,0,0,0.10999999998603016
-0.3844,0.9528,0.1728,0.236,0.259,0.2734,-0.5337,-1.3913,-5.4775,0,0,0,0.11499999999068677
-0.3857,0.9516,0.1659,0.236,0.259,0.2734,-0.0088,-1.1725,-5.985,0,0,0,0.125
-0.3879,0.953,0.1734,0.236,0.259,0.2734,-0.1575,-1.4787,-5.8975,0,0,0,0.1349999999947613
-0.3879,0.9507,0.1718,0.2358,0.2586,0.2737,-0.1575,-1.4787,-5.8975,0,0,0,0.13999999999941792
-0.3879,0.9509,0.1719,0.2358,0.2586,0.2737,-0.735,-1.5575,-5.8713,0,0,0,0.14999999999417923
-0.3853,0.9509,0.1719,0.2334,0.2595,0.2776,-0.56,-1.3913,-5.8625,0,0,0,0.15499999998428393
-0.3905,0.9518,0.1676,0.2334,0.2595,0.2776,-0.1312,-1.1725,-5.7925,0,0,0,0.16499999999359716
-0.3859,0.9546,0.1688,0.2334,0.2595,0.2776,-0.1312,-1.1725,-5.7925,0,0,0,0.16999999998370185
-0.3841,0.953,0.1652,0.2361,0.2574,0.2793,-0.7788,-1.3737,-5.7137,0,0,0,0.17999999999301508
-0.3845,0.9539,0.171,0.2361,0.2574,0.2793,-0.8838,-1.6625,-5.915,0,0,0,0.1899999999877764
-0.3845,0.9539,0.171,0.235,0.2583,0.2863,-0.4288,-1.6712,-5.74,0,0,0,0.194999999992433
-0.3841,0.9522,0.1707,0.235,0.2583,0.2863,-0.4288,-1.6712,-5.74,0,0,0,0.20500000000174623
-0.3866,0.9515,0.1715,0.235,0.2583,0.2771,-0.6212,-1.6187,-5.6525,0,0,0,0.20999999999185093
-0.39,0.9502,0.1695,0.2359,0.2581,0.2771,-0.105,-1.4963,-5.5912,0,0,0,0.21999999998661224
-0.389,0.9521,0.1706,0.2359,0.2581,0.2771,0.1925,-1.3388,-5.6875,0,0,0,0.22999999998137355
-0.3855,0.9529,0.1633,0.2361,0.2594,0.278,0.1925,-1.3388,-5.6875,0,0,0,0.23499999998603016
-0.3855,0.9529,0.1633,0.2361,0.2594,0.278,-0.4112,-1.4088,-5.7575,0,0,0,0.2449999999953434
-0.387,0.952,0.1721,0.2334,0.2604,0.2764,-0.6125,-1.7938,-5.985,0,0,0,0.2549999999901047
-0.3867,0.9504,0.1708,0.2334,0.2604,0.2764,-0.4112,-1.575,-5.8187,0,0,0,0.2599999999947613
-0.3895,0.952,0.1731,0.2334,0.2604,0.2764,-0.4112,-1.575,-5.8187,0,0,0,0.2699999999895226
-0.3854,0.9509,0.172,0.2338,0.2588,0.2746,-0.4812,-1.365,-5.8713,0,0,0,0.27999999999883585
-0.3854,0.9509,0.172,0.2338,0.2588,0.2746,-0.6212,-1.505,-5.5912,0,0,0,0.28499999998894054
-0.3881,0.9534,0.1678,0.2359,0.2581,0.2767,-0.6212,-1.505,-5.6087,0,0,0,0.28999999999359716
-0.3847,0.9518,0.1709,0.2359,0.2581,0.2767,-0.3325,-1.7675,-5.6087,0,0,0,0.29999999998835847
-0.3897,0.9525,0.1709,0.2359,0.2581,0.2767,-0.3675,-1.6187,-5.6525,0,0,0,0.3099999999831198
-0.3856,0.9529,0.1695,0.237,0.2575,0.285,-0.7175,-1.5137,-5.6788,0,0,0,0.319999999992433
-0.3877,0.9522,0.1687,0.237,0.2575,0.285,-0.7175,-1.5137,-5.6788,0,0,0,0.3249999999970896
-0.3877,0.9522,0.1687,0.2374,0.2598,0.2764,-0.6562,-1.8288,-6.0375,0,0,0,0.3349999999918509
-0.386,0.9523,0.1703,0.2374,0.2598,0.2764,-0.9013,-1.7062,-5.8275,0,0,0,0.33999999999650754
-0.3842,0.9523,0.1695,0.2374,0.2598,0.2764,-0.6037,-1.6975,-5.6525,0,0,0,0.34999999999126885
-0.3842,0.9525,0.1709,0.2373,0.259,0.2757,-0.6037,-1.6975,-5.6525,0,0,0,0.35999999998603016
-0.3858,0.9533,0.1695,0.2373,0.259,0.2757,0.0787,-1.645,-5.6087,0,0,0,0.3649999999906868
-0.3858,0.9533,0.1695,0.2355,0.2586,0.2818,0.0175,-1.7675,-6.0375,0,0,0,0.3749999999854481
-0.3872,0.9517,0.1691,0.2355,0.2586,0.2818,-0.4375,-1.6187,-5.6613,0,0,0,0.3799999999901047
-0.3855,0.9536,0.1713,0.2355,0.259,0.2785,-0.4375,-1.6187,-5.6613,0,0,0,0.3899999999994179
-0.3868,0.9517,0.1667,0.2354,0.259,0.2785,-0.35,-1.7325,-5.6875,0,0,0,0.3949999999895226
-0.3876,0.9525,0.1721,0.2354,0.259,0.2785,-0.175,-1.6187,-5.7925,0,0,0,0.40499999999883585
-0.3835,0.9516,0.1688,0.2355,0.2591,0.2758,-0.2625,-1.3125,-5.5125,0,0,0,0.41499999999359716
-0.3835,0.9516,0.1688,0.2355,0.2591,0.2758,-0.2625,-1.3125,-5.5125,0,0,0,0.41999999998370185
-0.3886,0.9528,0.1702,0.235,0.2574,0.2774,-0.2537,-1.4963,-5.5475,0,0,0,0.4299999999930151
-0.3861,0.9528,0.171,0.235,0.2574,0.2774,-0.3938,-1.5838,-5.53,0,0,0,0.4349999999831198
-0.3841,0.9531,0.1656,0.235,0.2574,0.2774,-0.21,-1.295,-5.7225,0,0,0,0.444999999992433
-0.3852,0.9529,0.17,0.2362,0.2575,0.2734,-0.21,-1.295,-5.7225,0,0,0,0.4499999999970896
-0.3852,0.9529,0.1704,0.2362,0.2575,0.2734,-0.5512,-1.2075,-5.565,0,0,0,0.4599999999918509
-0.3858,0.9515,0.1704,0.2345,0.2582,0.2765,-0.6475,-1.4438,-5.7137,0,0,0,0.47000000000116415
-0.3869,0.9528,0.1724,0.2345,0.2582,0.2765,-0.3588,-1.1638,-5.8012,0,0,0,0.47499999999126885
-0.3871,0.9528,0.1708,0.2345,0.2582,0.2765,-0.3588,-1.1638,-5.8012,0,0,0,0.4850000000005821
-0.3861,0.9537,0.1678,0.2376,0.2586,0.2717,-0.56,-1.5313,-5.9062,0,0,0,0.49499999998079147
-0.385,0.9527,0.1691,0.2376,0.2586,0.2717,-0.4988,-1.155,-5.635,0,0,0,0.4999999999854481
-0.385,0.9527,0.1691,0.2358,0.2579,0.2766,-0.4988,-1.155,-5.95,0,0,0,0.5099999999947613
-0.3852,0.9515,0.1676,0.2358,0.2579,0.2766,-0.2187,-1.435,-5.95,0,0,0,0.514999999984866
-0.3864,0.9542,0.1672,0.2358,0.2579,0.2766,-0.5075,-1.8637,-6.0462,0,0,0,0.5249999999941792
-0.3841,0.9529,0.1696,0.2365,0.2579,0.2753,-0.525,-2.065,-5.635,0,0,0,0.5299999999988358
-0.3855,0.9531,0.1661,0.2365,0.2579,0.2753,-0.525,-2.065,-5.635,0,0,0,0.5399999999935972
-0.3855,0.9525,0.1696,0.2361,0.2577,0.2748,-0.2713,-1.75,-6.02,0,0,0,0.5500000000029104
-0.3835,0.9525,0.1696,0.2361,0.2577,0.2748,-0.3237,-1.505,-6.1425,0,0,0,0.55899999999383
-0.3875,0.9527,0.1656,0.2362,0.2578,0.2778,0.0263,-1.2687,-6.1425,0,0,0,0.5669999999954598
-0.387,0.9543,0.1703,0.2362,0.2578,0.2778,0.0263,-1.2687,-6.1425,0,0,0,0.5729999999894062
-0.3861,0.9504,0.1662,0.2362,0.2578,0.2778,-0.0263,-1.505,-5.8625,0,0,0,0.5829999999987194
-0.3881,0.9521,0.1701,0.2358,0.258,0.2803,-0.3325,-1.6712,-5.5388,0,0,0,0.588000000003376
-0.3881,0.9521,0.1701,0.2358,0.258,0.2803,-0.6212,-1.5575,-5.8275,0,0,0,0.5979999999835854
-0.3843,0.9532,0.172,0.2349,0.2638,0.2805,-0.6212,-1.5575,-5.8275,0,0,0,0.602999999988242
-0.3866,0.953,0.1672,0.2349,0.2638,0.2805,-0.5512,-1.4088,-6.0725,0,0,0,0.6129999999830034
-0.3868,0.9512,0.1671,0.2349,0.2638,0.2805,-0.56,-1.6538,-5.74,0,0,0,0.61799999998766
-0.3873,0.9515,0.169,0.2342,0.2594,0.2783,-0.6475,-1.68,-5.9938,0,0,0,0.6279999999969732
-0.3873,0.953,0.1718,0.2342,0.2594,0.2783,-0.6475,-1.68,-5.9938,0,0,0,0.6379999999917345
-0.3883,0.953,0.1718,0.2361,0.2569,0.277,-0.3063,-1.4787,-5.845,0,0,0,0.6480000000010477
-0.3831,0.952,0.167,0.2361,0.2569,0.277,-0.2187,-1.645,-5.8012,0,0,0,0.6529999999911524
-0.3883,0.9534,0.1687,0.2361,0.2569,0.277,-0.245,-1.3038,-5.6613,0,0,0,0.657999999995809
-0.3852,0.952,0.1689,0.236,0.2574,0.2714,-0.245,-1.3038,-5.6613,0,0,0,0.6679999999905704
-0.3861,0.9511,0.1681,0.236,0.2574,0.2714,-0.0088,-1.3212,-5.7663,0,0,0,0.6779999999853317
-0.3861,0.9511,0.1681,0.2379,0.2605,0.2733,-0.7175,-1.785,-5.95,0,0,0,0.6829999999899883
-0.3834,0.9504,0.171,0.2379,0.2605,0.2733,-0.7175,-1.785,-5.7838,0,0,0,0.6929999999847496
-0.3858,0.9534,0.1677,0.2379,0.2605,0.2733,-0.595,-1.7237,-5.7838,0,0,0,0.6979999999894062
-0.3864,0.9531,0.1704,0.2377,0.2587,0.281,-0.28,-1.3563,-5.5037,0,0,0,0.7079999999987194
-0.386,0.9528,0.1672,0.2377,0.2587,0.281,-0.1575,-1.3388,-5.6962,0,0,0,0.7179999999934807
-0.386,0.9532,0.1712,0.2352,0.2609,0.2837,-0.1575,-1.3388,-5.6962,0,0,0,0.7229999999981374
-0.3847,0.9532,0.1712,0.2352,0.2609,0.2837,-0.3675,-1.5137,-5.7575,0,0,0,0.7329999999928987
-0.385,0.9504,0.1677,0.2366,0.2587,0.2805,-0.4462,-1.6363,-5.705,0,0,0,0.74299999998766
-0.3879,0.952,0.1679,0.2366,0.2587,0.2805,-0.6825,-1.7413,-5.8538,0,0,0,0.7479999999923166
-0.3831,0.953,0.1698,0.2366,0.2587,0.2805,-0.6825,-1.7413,-5.8538,0,0,0,0.7529999999969732
-0.3853,0.9531,0.1659,0.2353,0.2585,0.2826,-0.315,-1.68,-5.6875,0,0,0,0.7629999999917345
-0.3853,0.9531,0.1659,0.2353,0.2585,0.2826,-0.525,-1.4612,-5.9763,0,0,0,0.7730000000010477
-0.3879,0.9525,0.1715,0.2364,0.2578,0.2784,-0.315,-1.68,-5.9675,0,0,0,0.782999999995809
-0.3844,0.9506,0.1668,0.2364,0.2578,0.2784,-0.315,-1.68,-5.9675,0,0,0,0.7880000000004657
-0.3886,0.9524,0.1698,0.2364,0.2578,0.2784,-0.49,-1.4612,-5.8975,0,0,0,0.7979999999806751
-0.3847,0.9516,0.1676,0.2374,0.2586,0.2834,-0.5775,-1.505,-5.8012,1.7312292209636122,-6.012361544144846,0.0,0.8029999999853317
-0.3864,0.9536,0.166,0.2374,0.2586,0.2834,-0.4725,-1.6625,-6.0462,2.5027637977966966,-12.087841820863254,-0.0023050863021467807,0.8129999999946449
-0.3864,0.9536,0.166,0.2365,0.2594,0.2783,-0.4725,-1.6625,-6.0462,3.201203199087674,-15.819652006037561,-0.004587121737917752,0.8229999999894062
-0.3855,0.9532,0.1703,0.2365,0.2594,0.2783,-0.42,-1.4875,-5.8713,3.544644899096005,-17.65600408944618,-0.005113836821071838,0.8329999999987194
-0.3852,0.9528,0.1669,0.2365,0.2594,0.2783,-0.63,-1.68,-6.195,4.872069660858771,-19.429881747107473,-0.006301866600408731,0.8379999999888241
-0.3869,0.9532,0.1707,0.2362,0.2601,0.2694,-0.595,-1.435,-6.2387,5.849600008625922,-20.488502990466394,-0.006265266084429248,0.8429999999934807
-0.3869,0.9521,0.1687,0.2362,0.2601,0.2694,-0.595,-1.435,-6.2387,6.626715838870241,-21.08318488627166,-0.0062554497236341645,0.853000000002794
-0.3869,0.9521,0.1687,0.235,0.2582,0.2765,-0.2713,-1.6187,-6.16,6.927924033532705,-21.391851633365796,-0.008064361522694078,0.8629999999830034
-0.3899,0.9538,0.1674,0.235,0.2582,0.2765,-0.7262,-1.3913,-5.775,7.7263845675923655,-21.533713823519143,-0.007793821057290282,0.86799999998766
-0.385,0.9523,0.1698,0.235,0.2582,0.2802,-0.7262,-1.3913,-5.7925,8.355189042883712,-21.57979560869925,-0.0073360891469163424,0.8779999999824213
-0.3851,0.9517,0.1679,0.2359,0.2573,0.2802,-0.3063,-1.4175,-5.7925,8.450853294511694,-21.61983777187736,-0.007202521405391107,0.8829999999870779
-0.3863,0.9525,0.1717,0.2359,0.2573,0.2802,-0.4288,-1.2513,-5.8625,8.552412083196296,-21.662492476885596,-0.005364702489692673,0.8929999999963911
-0.3856,0.9514,0.1676,0.2352,0.259,0.2757,-0.4462,-1.5137,-5.7137,8.65692774602609,-21.684616734289698,-0.006143021764359906,0.9029999999911524
-0.3856,0.9514,0.1676,0.2352,0.259,0.2757,-0.4462,-1.5137,-5.7137,8.753849133537432,-21.701694179652854,-0.006497574697103723,0.907999999995809
-0.3883,0.9547,0.1672,0.2354,0.2584,0.2738,-0.0525,-1.6187,-5.7663,9.036703099151135,-21.735439783054144,-0.008304065249152283,0.9179999999905704
-0.3848,0.9518,0.172,0.2354,0.2584,0.2738,-0.3413,-1.5662,-5.88,9.067906187287107,-21.722594139397486,-0.008896882747290204,0.922999999995227
-0.3878,0.9508,0.1656,0.2354,0.2584,0.2738,-0.175,-0.9712,-5.8975,9.19920357807944,-21.777209393313345,-0.004269130222195029,0.9329999999899883
-0.3858,0.9519,0.1734,0.2344,0.259,0.2789,-0.175,-0.9712,-5.8975,9.381033359028018,-21.764765923478556,-0.0019570470744643426,0.937999999980093
-0.3858,0.9519,0.1578,0.2344,0.259,0.2789,-0.2275,-1.435,-5.9763,9.384910397881768,-21.77502450243756,-0.001990312903768908,0.9479999999894062
-0.3838,0.9514,0.1659,0.2345,0.2608,0.2792,-0.0175,-1.0325,-5.5563,9.516337604885688,-21.7626802993378,0.00196150392893066,0.9579999999987194
-0.3852,0.9516,0.1681,0.2345,0.2608,0.2792,0.0787,-1.6538,-5.8275,9.671181194995922,-21.754125230288874,-0.0002770674091962046,0.9679999999934807
-0.3883,0.9514,0.1702,0.2345,0.2608,0.2792,0.0787,-1.6538,-5.8275,9.81670582228707,-21.79305229345883,-0.0013837748861375248,0.9729999999981374
-0.3877,0.9514,0.1685,0.2373,0.2583,0.2707,-0.455,-1.5838,-5.67,9.834876367470283,-21.807249115072114,-0.0028958934364767502,0.9829999999928987
-0.3867,0.9529,0.1721,0.2373,0.2583,0.2707,-0.7788,-1.715,-5.8362,9.952183433368209,-21.796103320283112,-0.0042793526534274,0.9879999999975553
-0.3867,0.9529,0.1721,0.2373,0.2585,0.2771,-0.63,-1.4875,-5.81,10.01147260147008,-21.788597186572588,-0.004809145426593167,0.9979999999923166
-0.3859,0.9503,0.165,0.2373,0.2585,0.2771,-0.63,-1.4875,-5.81,9.977940410976398,-21.793541551786273,-0.005047347121760645,1.0029999999824213
-0.3906,0.9527,0.1703,0.2373,0.2585,0.2771,-0.5512,-1.54,-5.8538,10.002255977977368,-21.849746612064777,-0.006089209951560357,1.0129999999917345
-0.3863,0.9518,0.1678,0.2368,0.2585,0.2889,-0.665,-1.575,-5.9062,10.001364420866734,-21.829010973846394,-0.007467154151290993,1.0229999999864958
-0.3864,0.9529,0.1679,0.2368,0.2585,0.2889,-0.3325,-1.1725,-6.1775,10.00107500245825,-21.803180804821594,-0.0061195257585925505,1.0279999999911524
-0.3864,0.9529,0.1692,0.237,0.2575,0.2757,-0.3325,-1.1725,-6.1775,10.003382974015121,-21.786506189289213,-0.0022394599511548195,1.0429999999905704
-0.3852,0.9536,0.1692,0.237,0.2575,0.2757,-0.42,-1.2075,-5.9325,10.006260912725198,-21.75346892588433,-1.765164959490893e-05,1.0529999999998836
-0.3882,0.9529,0.1704,0.2345,0.2595,0.2746,-0.2975,-1.3913,-5.8362,10.014959406243902,-21.782543035018627,0.00036231856614940474,1.062999999980093
-0.3837,0.9523,0.1687,0.2345,0.2595,0.2746,-0.2975,-1.3913,-5.6262,10.016981730121925,-21.758049846395664,0.0005485922306647656,1.0679999999847496
-0.3842,0.9522,0.1676,0.2345,0.2595,0.2746,-0.2187,-1.295,-5.6262,10.012516331140024,-21.743195393056407,0.0012096881589789205,1.0729999999894062
-0.3893,0.9523,0.1684,0.2356,0.2598,0.2789,0.175,-1.4,-5.46,10.018044759218798,-21.75059264340842,0.00149125497723529,1.0829999999841675
-0.3893,0.9523,0.1684,0.2356,0.2598,0.2789,0.28,-1.12,-5.4513,10.022048634811819,-21.75626335269725,0.0030091742788904974,1.0879999999888241
-0.3863,0.9517,0.1731,0.2353,0.2578,0.2778,0.28,-1.12,-5.4513,10.134687684758159,-21.7566863699586,0.0045119143875291525,1.0929999999934807
-0.3872,0.9514,0.1693,0.2353,0.2578,0.2778,-0.0525,-0.8925,-5.81,10.123990383358565,-21.778794902793297,0.00978470894086797,1.102999999988242
-0.3875,0.9522,0.1698,0.2353,0.2578,0.2778,0.0437,-1.0675,-5.9675,10.120181368934931,-21.79788280956507,0.011479568703128879,1.1079999999928987
-0.3863,0.9517,0.1669,0.2378,0.2575,0.2755,-0.0263,-1.5838,-5.6087,10.076049076902217,-21.79689653721326,0.00983881671467643,1.118000000002212
-0.3863,0.9517,0.1724,0.2378,0.2575,0.2755,-0.0263,-1.5838,-5.6087,10.124856067540295,-21.792913431310552,0.008977450399039645,1.1229999999923166
-0.3869,0.9512,0.1724,0.2355,0.2581,0.2774,0.035,-1.4438,-5.8187,10.16740871686528,-21.798574761671784,0.008747719595122567,1.132999999987078
-0.3854,0.9505,0.1681,0.2355,0.2581,0.2774,-0.6125,-1.2862,-5.635,10.140261204120746,-21.792695026640555,0.010080526098427297,1.1429999999818392
-0.386,0.9532,0.1701,0.2355,0.2581,0.2774,-0.2625,-1.435,-5.7838,10.138140953194293,-21.777219243855676,0.009953302687418418,1.1479999999864958
-0.3867,0.9522,0.1677,0.2376,0.2586,0.2807,-0.2625,-1.435,-5.7838,10.123871082196782,-21.78312264698051,0.009800933360495026,1.157999999995809
-0.3881,0.9537,0.1666,0.2376,0.2586,0.2807,-0.455,-1.8463,-6.1163,10.10663750282692,-21.808319548709612,0.0055782177290508795,1.1679999999905704
-0.3881,0.9537,0.1666,0.2344,0.2597,0.283,-0.7,-1.4088,-5.88,10.057334971624359,-21.819721941715873,0.0056257074018565495,1.172999999995227
-0.3833,0.9518,0.168,0.2344,0.2597,0.283,-0.3325,-1.5838,-5.8012,10.055720405894975,-21.76781657965327,0.004806472177127404,1.1779999999998836
-0.3891,0.9526,0.1693,0.2344,0.2597,0.283,-0.3325,-1.5838,-5.8012,10.056467953434293,-21.806633653978185,0.003232451156155529,1.187999999994645
-0.3827,0.951,0.1709,0.235,0.2598,0.2788,-0.42,-1.5488,-5.8713,10.06296975851573,-21.744452708776688,0.0020206703452118535,1.1979999999894062
-0.3847,0.9535,0.1685,0.235,0.2598,0.2788,-0.14,-1.6888,-6.1337,10.055309872393492,-21.712634943940756,0.0007177354905651003,1.2029999999940628
-0.3847,0.9379,0.169,0.2339,0.2568,0.2798,-0.3762,-1.575,-5.9412,10.056628935551231,-21.80530585121163,-8.860012916778942e-06,1.2079999999841675
-0.3887,0.9518,0.169,0.2339,0.2568,0.2798,-0.3762,-1.575,-5.9412,10.056726536054638,-21.839475810813582,-0.0014476077141276325,1.2179999999934807
-0.3877,0.9504,0.1678,0.2374,0.2581,0.2778,-0.3588,-1.5575,-5.8975,10.056332732874129,-21.854656364238945,-0.0026987179363233567,1.227999999988242
-0.3841,0.9531,0.1683,0.2374,0.2581,0.2778,-0.2013,-1.715,-5.775,10.050310768280882,-21.799834100903233,-0.004084148908275541,1.2329999999928987
-0.3839,0.9531,0.1666,0.2374,0.2581,0.2778,-0.2013,-1.715,-5.635,10.030995155713773,-21.771698287954973,-0.006868143721823621,1.243000000002212
-0.3838,0.9521,0.1641,0.2366,0.259,0.2783,-0.2013,-1.5925,-5.635,9.995044454132454,-21.752780282050033,-0.008411548583760864,1.2529999999969732
-0.3838,0.9521,0.1641,0.2366,0.259,0.2783,-0.3237,-1.3913,-5.7137,9.985918117601164,-21.732877470561384,-0.007947639398122217,1.2629999999917345
-0.3849,0.954,0.1723,0.2344,0.2594,0.2757,-0.4638,-1.645,-5.8362,10.0079635228292,-21.70987214752336,-0.00893408115203148,1.2679999999818392
-0.3846,0.9516,0.1682,0.2344,0.2594,0.2757,-0.4638,-1.645,-5.8362,10.009348235512933,-21.707600532188152,-0.010976576642496592,1.2779999999911524
-0.3866,0.9536,0.1663,0.2344,0.2594,0.2757,-0.0875,-1.575,-5.8275,9.983747543414436,-21.725999533724853,-0.011586229026741638,1.282999999995809
-0.386,0.9517,0.1682,0.2345,0.2609,0.2808,-0.1225,-1.4525,-6.02,9.99143085209427,-21.743198499704693,-0.011696453036355782,1.2929999999905704
-0.386,0.9533,0.1662,0.2345,0.2609,0.2808,-0.28,-1.6625,-6.2038,9.983211723945777,-21.744732066202342,-0.013884574808139004,1.3029999999998836
-0.3851,0.9533,0.1662,0.2345,0.2594,0.2775,-0.28,-1.6625,-6.2038,9.975656301851185,-21.72535740530655,-0.014898272207776661,1.3079999999899883
-0.3864,0.9523,0.1732,0.2345,0.2594,0.2775,-0.3762,-1.6538,-5.845,9.978410218187056,-21.736367068956962,-0.015858767636732177,1.312999999994645
-0.3867,0.9527,0.1679,0.2345,0.2594,0.2775,-0.6037,-1.8988,-5.7488,9.981565226831057,-21.749321525002188,-0.020344636264690342,1.3230000000039581
-0.3849,0.9525,0.1718,0.236,0.2601,0.2798,-0.5863,-1.7938,-5.845,10.025096485581214,-21.730560397158733,-0.023746146194909012,1.3329999999841675
-0.3831,0.9514,0.169,0.236,0.2601,0.2798,-0.5863,-1.7938,-5.845,10.033605190587492,-21.69943598434169,-0.0271136410363173,1.3429999999934807
-0.3831,0.9514,0.169,0.235,0.2586,0.2866,-0.0962,-1.8637,-5.6525,10.041925458397666,-21.685592659233595,-0.02899098777170215,1.3479999999835854
-0.3866,0.952,0.1674,0.235,0.2586,0.2866,-0.3237,-1.365,-5.8713,10.0390095186154,-21.721033279762153,-0.02806091419338893,1.3579999999928987
-0.3884,0.9518,0.1713,0.235,0.2586,0.2866,-0.0613,-1.3475,-5.9062,10.077385519714875,-21.773563982119796,-0.027373598201076262,1.3629999999975553
-0.387,0.9529,0.1688,0.2366,0.2593,0.2794,-0.0613,-1.3475,-5.9062,10.069872472729093,-21.781120031893852,-0.02628644851949162,1.3729999999923166
-0.3828,0.9525,0.1685,0.2366,0.2593,0.2794,-0.1925,-1.645,-5.95,10.064222262285087,-21.7150928008653,-0.027089502185289417,1.3779999999969732
-0.3828,0.9522,0.1651,0.236,0.2578,0.2794,-0.805,-1.2862,-5.8538,9.99498442498006,-21.682849022927602,-0.025398323464180566,1.3879999999917345
-0.3878,0.9522,0.1651,0.236,0.2578,0.2794,-0.245,-1.3913,-5.8187,9.977656533513025,-21.73482963873358,-0.024954443379361906,1.3929999999963911
-0.383,0.9525,0.1704,0.2358,0.2586,0.2772,-0.245,-1.3913,-5.8187,9.995722266613152,-21.694679939543985,-0.02432510524576725,1.4029999999911524
-0.3861,0.9528,0.1687,0.2358,0.2586,0.2772,-0.315,-1.75,-6.0113,9.997973088279506,-21.716396980028676,-0.027253190491648215,1.4129999999859137
-0.3847,0.9533,0.1725,0.2358,0.2586,0.2772,-0.2713,-1.5838,-5.9588,10.020753418915419,-21.695859686180597,-0.02774363673744231,1.4179999999905704
-0.3853,0.9513,0.1666,0.2366,0.2598,0.2802,-0.2713,-1.5838,-5.8275,10.013062777266825,-21.711489475750803,-0.028992156669268486,1.4279999999853317
-0.3853,0.9513,0.1666,0.2366,0.2598,0.2802,-0.1838,-1.5137,-5.8275,10.00068083987225,-21.72257974206283,-0.029118218252963218,1.4329999999899883
-0.386,0.954,0.1696,0.2358,0.2563,0.2773,-0.4725,-1.6013,-5.7488,10.00825218937903,-21.72210128434077,-0.030526242372016094,1.4429999999993015
-0.3862,0.9524,0.1657,0.2358,0.2563,0.2773,-0.3675,-1.645,-5.8625,10.008204376096876,-21.738909729828222,-0.03235281624717913,1.4529999999940628
-0.3851,0.9522,0.1693,0.2358,0.2563,0.2773,-0.3675,-1.645,-5.8625,10.008229745605755,-21.73057092135902,-0.03309520623570005,1.4579999999987194
-0.3827,0.9532,0.1669,0.2368,0.2571,0.289,-0.595,-1.3125,-5.8888,9.994025507575873,-21.681576778498417,-0.03160434047563859,1.4679999999789288
-0.3879,0.9554,0.1668,0.2368,0.2571,0.289,-0.7962,-1.295,-5.5563,9.966805320494675,-21.69586963799609,-0.0299551333696406,1.477999999988242
-0.3879,0.9554,0.1668,0.2356,0.2582,0.2782,-0.6388,-1.4875,-5.5213,9.95325797331399,-21.705543192166257,-0.029941875186210824,1.4829999999928987
-0.3845,0.9529,0.1717,0.2356,0.2582,0.2782,-0.6388,-1.4875,-5.5213,10.00891812427072,-21.701147619196277,-0.030215042734048757,1.49299999998766
-0.3884,0.9531,0.1663,0.2356,0.2582,0.2782,-0.5688,-1.33,-5.6438,9.990277285164193,-21.732757520384602,-0.02941956045624882,1.4979999999923166
-0.3852,0.9516,0.1714,0.2357,0.2592,0.2776,-0.4988,-1.1287,-5.9938,10.015777841504315,-21.72861265985571,-0.02614583115324722,1.507999999987078
-0.3877,0.9523,0.1663,0.2357,0.2592,0.2776,-0.2713,-1.4088,-6.0113,10.006083076601476,-21.77502398962272,-0.02578110099161857,1.5129999999917345
-0.3877,0.9523,0.1663,0.2353,0.2599,0.2831,-0.2713,-1.4088,-6.0113,9.997241884582142,-21.804156248401544,-0.025316746281510025,1.5230000000010477
-0.3881,0.953,0.1676,0.2353,0.2599,0.2831,-0.245,-1.295,-5.6788,9.994739012179673,-21.814663824368598,-0.023730415121333334,1.5329999999812571
-0.3856,0.9526,0.1692,0.2353,0.2582,0.282,-0.5163,-1.4787,-5.7663,10.004698664294738,-21.79272352564417,-0.023978577270572128,1.5429999999905704
-0.3869,0.9534,0.1659,0.2349,0.2582,0.282,-0.4112,-1.4525,-6.0025,9.99914854262227,-21.792339679160552,-0.02385183464797169,1.547999999995227
-0.3866,0.9515,0.1667,0.2349,0.2582,0.282,-0.4112,-1.4525,-6.0025,9.996574374915792,-21.79951416256597,-0.023839402601373533,1.5579999999899883
-0.3866,0.9526,0.1697,0.2366,0.2575,0.2812,-0.245,-1.2862,-5.565,10.007992327165917,-21.79688741981719,-0.022890866724698426,1.562999999994645
-0.3866,0.9526,0.1697,0.2366,0.2575,0.2812,-0.245,-1.2337,-5.8538,10.018161096898272,-21.791458801403987,-0.020721924358467765,1.5729999999894062
-0.3855,0.95,0.1713,0.2362,0.2578,0.2757,-0.105,-1.1638,-6.3437,10.060483136014678,-21.780788073856026,-0.019198683263657448,1.5779999999940628
-0.3867,0.9521,0.1704,0.2362,0.2578,0.2757,-0.105,-1.1638,-6.3437,10.078481389545317,-21.786003662545745,-0.01637465272856959,1.588000000003376
-0.3883,0.9529,0.1717,0.2362,0.2578,0.2757,-0.5775,-1.82,-6.335,10.102028176457138,-21.817807392197107,-0.019688808867774927,1.5969999999942956
-0.3875,0.9536,0.1687,0.2364,0.2593,0.2754,-0.49,-1.7675,-5.8187,10.094439251149531,-21.81511742568552,-0.022502048446060165,1.6059999999852153
-0.3875,0.9536,0.1712,0.2364,0.2593,0.2754,-0.49,-1.4612,-5.7663,10.103524456821114,-21.8110725685305,-0.02243313611174495,1.6109999999898719
-0.386,0.9522,0.1712,0.2361,0.2583,0.2785,-0.4375,-1.4612,-5.7663,10.109321704512721,-21.795558019481327,-0.022521021050918275,1.620999999999185
-0.3844,0.9496,0.1685,0.2361,0.2583,0.2785,-0.4112,-1.47,-5.6788,10.107355767174562,-21.782217833337324,-0.022495478990595046,1.6260000000038417
-0.3889,0.952,0.1722,0.2361,0.2583,0.2785,-0.63,-1.3038,-5.6875,10.13759313454234,-21.807080591148054,-0.02102448050134186,1.635999999998603
-0.3843,0.9536,0.1703,0.2355,0.2586,0.276,-0.63,-1.3038,-5.6875,10.135082058724192,-21.77148932092808,-0.019568191996981205,1.6459999999933643
-0.3866,0.9538,0.17,0.2355,0.2586,0.276,-0.4375,-1.2513,-5.5912,10.133185570283048,-21.76888721607964,-0.018489613228758698,1.650999999983469
-0.3866,0.9538,0.17,0.2369,0.2588,0.274,-0.2187,-1.6187,-5.8012,10.129651853247088,-21.764722235079095,-0.020176183398214052,1.6609999999927823
-0.383,0.9523,0.1659,0.2369,0.2588,0.274,-0.3237,-1.47,-6.0025,10.119194595162137,-21.709243656453598,-0.020174089714417864,1.6659999999974389
-0.3876,0.9521,0.166,0.2369,0.2588,0.274,-0.3237,-1.47,-6.0025,10.109512414649663,-21.762358269060194,-0.020371685117064484,1.6759999999922002
-0.3849,0.9523,0.171,0.2354,0.2597,0.2753,-0.1488,-1.7413,-5.6875,10.12215017940054,-21.747745561855957,-0.023253174568767163,1.6860000000015134
-0.3841,0.9528,0.1699,0.2354,0.2597,0.2753,-0.0437,-1.7413,-5.5213,10.119302753000857,-21.738282214276154,-0.024563245970026588,1.690999999991618
-0.3841,0.9528,0.1684,0.2368,0.2577,0.2751,-0.49,-1.4,-5.4775,10.108827439531005,-21.73344119979303,-0.024023949810052826,1.7010000000009313
-0.3853,0.9534,0.1684,0.2368,0.2577,0.2751,-0.49,-1.4,-5.4775,10.098819703123143,-21.731634484743022,-0.02363687846224289,1.705999999991036
-0.3864,0.9517,0.1713,0.2358,0.2593,0.2821,0.1488,-1.3913,-5.7137,10.134521222729969,-21.74291960319826,-0.023020715977819423,1.7159999999857973
-0.3865,0.9541,0.1656,0.2358,0.2593,0.2821,-0.0437,-1.435,-6.1512,10.064025893663937,-21.749404530635065,-0.022816926968065834,1.720999999990454
-0.3861,0.9521,0.1698,0.2358,0.2593,0.2821,-0.665,-1.68,-6.16,10.07500811736456,-21.7552546789233,-0.025067093997086853,1.7309999999852153
-0.3879,0.9529,0.1638,0.2354,0.259,0.2799,-0.665,-1.68,-6.16,10.001381843364737,-21.799914218765092,-0.027294759359424114,1.7409999999945285
-0.3879,0.9529,0.1638,0.2354,0.259,0.2799,-0.385,-1.6187,-5.985,9.997203026250991,-21.82169338666116,-0.02795754491670134,1.745999999999185
-0.3845,0.9523,0.1701,0.2351,0.2591,0.2794,0.1663,-1.575,-5.985,10.04252644354543,-21.769080444065903,-0.029116805766780565,1.7559999999939464
-0.385,0.9508,0.1659,0.2351,0.2591,0.2794,0.0613,-1.6538,-5.8888,9.999005609806183,-21.76196177971843,-0.029935115860146043,1.760999999998603
-0.3863,0.9522,0.1701,0.2351,0.2591,0.2794,0.0613,-1.6538,-5.8888,10.037866366819818,-21.76462233560629,-0.031854720997153134,1.7709999999788124
-0.3838,0.9523,0.1713,0.2369,0.259,0.2771,-0.2013,-1.5488,-5.6875,10.060632622985274,-21.737363076149105,-0.03271563008828005,1.7809999999881256
-0.3838,0.9539,0.1673,0.2369,0.259,0.2771,0.1575,-1.4525,-5.5037,10.021724336207866,-21.727989573813566,-0.03250151693750253,1.7859999999927823
-0.3859,0.9539,0.1673,0.2381,0.2575,0.2767,-2.0825,-1.19,-5.705,9.974944401487091,-21.727476153955873,-0.029803838069370467,1.7959999999875436
-0.3859,0.951,0.1699,0.2381,0.2575,0.2767,-0.2013,-1.19,-5.705,9.996975559006845,-21.73799430074897,-0.0283194678375719,1.8009999999922002
-0.3852,0.9522,0.1655,0.2381,0.2575,0.2767,-0.0875,-1.5313,-5.7137,9.966975939227794,-21.736244681482265,-0.029042479458669064,1.8109999999869615
-0.3862,0.952,0.1749,0.2358,0.2584,0.2731,0.105,-0.91,-5.88,10.109271519861654,-21.74113798468048,-0.023607390959291034,1.8209999999962747
-0.3872,0.9527,0.1695,0.2358,0.2584,0.2731,0.105,-0.91,-5.88,10.102519941104852,-21.762366640820296,-0.02079898519730245,1.8260000000009313
-0.3872,0.9527,0.1695,0.2372,0.2599,0.2826,-0.245,-1.3125,-5.9675,10.100957785784646,-21.778664550218124,-0.019431081645937067,1.8359999999956926
-0.3853,0.9518,0.1725,0.2372,0.2599,0.2826,-0.2887,-1.2513,-5.8012,10.113540917638774,-21.76201124538903,-0.017470977130402743,1.845999999990454
-0.3862,0.9548,0.1651,0.2372,0.2599,0.2826,0.0525,-1.5313,-5.775,10.023808985776679,-21.753761263451576,-0.017799370508103044,1.8509999999805586
-0.3845,0.9515,0.1749,0.2345,0.2583,0.2798,0.0525,-1.5313,-5.775,10.13974518161878,-21.7330121936191,-0.01862758310395912,1.8609999999898719
-0.3855,0.9529,0.1635,0.2345,0.2583,0.2798,-0.3938,-1.9425,-5.6962,10.129533351245575,-21.73421541586689,-0.02097985042528373,1.8659999999945285
-0.3855,0.9532,0.1715,0.2352,0.2581,0.2883,-0.2187,-1.7413,-5.9763,10.138620496084636,-21.723513120741856,-0.02385525821941465,1.8759999999892898
-0.3853,0.9532,0.1715,0.2352,0.2581,0.2883,-0.2013,-1.5225,-6.0462,10.14731908594177,-21.71217574907378,-0.02453579193807647,1.885999999998603
-0.3878,0.9503,0.1668,0.2372,0.2621,0.2798,-0.2013,-1.5225,-6.0462,10.119911667788964,-21.78348251977967,-0.024749977167786243,1.8909999999887077
-0.3853,0.9529,0.1693,0.2372,0.2621,0.2798,-0.0525,-1.1287,-5.8275,10.109026988892419,-21.761559390921335,-0.021522943693333477,1.900999999998021
-0.3841,0.9522,0.1673,0.2372,0.2621,0.2798,-0.5688,-1.0237,-5.7137,10.084938134610463,-21.740155035558445,-0.019298197410377096,1.9059999999881256
-0.3883,0.954,0.1685,0.2378,0.2577,0.2833,-0.8575,-1.1812,-5.775,10.062457050486646,-21.766900054383925,-0.01664543173756193,1.915999999982887
-0.3883,0.954,0.1685,0.2378,0.2577,0.2833,-0.8575,-1.1812,-5.775,10.047365580230908,-21.786611526994964,-0.01401919371789546,1.9259999999922002
-0.3843,0.9512,0.1689,0.2372,0.2582,0.2782,-0.5512,-1.2075,-5.8362,10.050685161589843,-21.758821964183394,-0.012779294929692323,1.9309999999968568
-0.3886,0.9532,0.1697,0.2372,0.2582,0.2782,-0.6037,-1.3125,-5.7225,10.059087213065744,-21.784519338113522,-0.011491588281003044,1.940999999991618
-0.3866,0.9532,0.1754,0.2372,0.2582,0.2782,-0.2713,-1.68,-5.8275,10.091432421459903,-21.773412458163456,-0.01261584054934708,1.9459999999962747
-0.3868,0.9512,0.1682,0.2372,0.2591,0.284,-0.2713,-1.68,-5.8275,10.085839498981738,-21.787739716640708,-0.014968018442555285,1.955999999991036
-0.3866,0.9523,0.1718,0.2372,0.2591,0.284,-0.2975,-0.8662,-5.7575,10.09508180743245,-21.785135661147745,-0.009240054552934553,1.9660000000003492
-0.3866,0.9523,0.1718,0.2348,0.2587,0.2778,-0.0437,-1.0588,-5.6788,10.12724439683634,-21.783549071800874,-0.005476110314671415,1.9759999999805586
-0.3834,0.9502,0.1702,0.2348,0.2587,0.2778,-0.0437,-1.1812,-5.915,10.134072774132305,-21.74308252696579,-0.004191457360379275,1.9809999999852153
-0.3863,0.9536,0.1676,0.2348,0.2587,0.2778,-0.0437,-1.1812,-5.915,10.093471474543932,-21.74573240370265,-0.0016897590844846314,1.9909999999945285
-0.3836,0.9526,0.1712,0.2321,0.2608,0.2826,-0.7525,-1.4262,-5.8538,10.119831222026075,-21.70766713938584,-0.00165571964367371,1.9959999999846332
-0.3847,0.9531,0.1676,0.2321,0.2608,0.2826,-0.735,-1.4438,-5.985,10.080490217861241,-21.69742067922751,-0.0017791187473673179,2.0059999999939464
-0.3847,0.9531,0.1676,0.2361,0.2586,0.2774,-0.735,-1.4438,-5.6438,10.051714399344078,-21.69409290030061,-0.0018313057099588173,2.010999999998603
-0.3847,0.9529,0.1707,0.2361,0.2586,0.2774,-0.7088,-1.7325,-5.6438,10.078253894087409,-21.690087909091574,-0.004811078951288625,2.0209999999933643
-0.3891,0.9518,0.1673,0.2361,0.2574,0.2778,-0.3413,-1.4525,-5.67,10.075433142630883,-21.738608891828854,-0.004876011311881018,2.025999999998021
-0.3864,0.9539,0.1685,0.2373,0.2574,0.2778,-0.0962,-1.2075,-5.495,10.063073393475587,-21.739205704102393,-0.0026278374999144133,2.0359999999927823
-0.3847,0.9503,0.1691,0.2373,0.2574,0.2778,-0.0962,-1.2075,-5.495,10.068786724825197,-21.738562151235097,-0.0004021454260674749,2.0459999999875436
-0.3857,0.9529,0.1687,0.2346,0.258,0.28,-0.4025,-1.5925,-5.355,10.06780691775274,-21.738087324341237,-0.0012041671225574869,2.0509999999922
-0.3857,0.9529,0.1687,0.2346,0.258,0.28,-0.035,-1.505,-5.6175,10.060746391746397,-21.736838173327886,-0.0019379617509411912,2.0609999999869615
-0.3866,0.9535,0.1737,0.2346,0.2566,0.2822,-0.5163,-1.4,-5.5037,10.094828930376744,-21.737599638610604,-0.0017717502832950314,2.065999999991618
-0.385,0.9496,0.1691,0.2346,0.2566,0.2822,-0.5163,-1.4,-5.5037,10.095122994080432,-21.739335877120325,-0.0014603690806159223,2.0759999999863794
-0.3866,0.9536,0.1728,0.2346,0.2566,0.2822,-0.4812,-1.3737,-5.6613,10.113030094458045,-21.740986283300064,-0.001168748539551771,2.080999999991036
-0.3866,0.951,0.1725,0.2341,0.2581,0.2718,-0.525,-1.5137,-5.495,10.135840510032875,-21.745270709977014,-0.0019890273549310836,2.0910000000003492
-0.3866,0.951,0.1569,0.2341,0.2581,0.2718,-0.4812,-1.3475,-5.67,10.057715132527568,-21.767461915406873,-0.0011557233818078952,2.1009999999951106
-0.3883,0.9527,0.1676,0.237,0.2586,0.2783,-0.4812,-1.3475,-5.67,10.049542268961169,-21.78833653917238,-0.0007374592987947138,2.1059999999852153
-0.3869,0.954,0.1718,0.237,0.2586,0.2783,-0.2625,-1.6187,-5.46,10.064703904846239,-21.787145977429695,-0.0026015510075497066,2.1159999999945285
-0.3829,0.9532,0.1657,0.237,0.2586,0.2783,-0.6737,-1.8112,-5.7137,10.017108562295249,-21.74260575290661,-0.00446414364373654,2.120999999984633
-0.3894,0.9529,0.1718,0.2371,0.2573,0.2751,-0.3938,-1.5662,-5.8187,10.022245531963593,-21.789958448831307,-0.00577121850855806,2.1309999999939464
-0.3861,0.9521,0.1697,0.2371,0.2573,0.2751,-0.3938,-1.5662,-5.8187,10.024367763708012,-21.782391495611247,-0.007065222622764359,2.1409999999887077
-0.3861,0.9521,0.1697,0.2357,0.258,0.2767,-0.1925,-1.3125,-5.88,10.036566077343503,-21.776422881875426,-0.005834656695456462,2.150999999998021
-0.3872,0.9508,0.1703,0.2357,0.258,0.2767,-0.1312,-1.82,-5.8012,10.059172685002743,-21.79505952178422,-0.00770847828030137,2.1560000000026776
-0.3877,0.9523,0.1723,0.2357,0.258,0.2767,-0.3237,-1.7763,-5.6962,10.067477324796302,-21.803049645404066,-0.00934724664410258,2.1609999999927823
-0.3859,0.9509,0.1698,0.2356,0.258,0.2815,-0.3237,-1.7763,-5.6962,10.069886604687616,-21.797390575453647,-0.012685480480857582,2.1710000000020955
-0.3873,0.9531,0.1693,0.2356,0.258,0.2815,-0.6825,-1.9338,-5.6788,10.07049762472902,-21.799193282639866,-0.017549581966171603,2.180999999982305
-0.3873,0.9531,0.1722,0.2359,0.2587,0.2764,-0.735,-1.7413,-5.8713,10.116381277042471,-21.798096342083376,-0.02045929244938321,2.190999999991618
-0.3864,0.9502,0.1722,0.2359,0.2587,0.2764,-0.735,-1.7413,-5.6875,10.158158299812966,-21.80019959947595,-0.02179730267632604,2.1959999999962747
-0.3867,0.9517,0.1691,0.2354,0.2595,0.2749,-0.3325,-1.6013,-5.6875,10.155328993940634,-21.801079599807238,-0.02327853594867262,2.205999999991036
-0.3844,0.9525,0.1668,0.2354,0.2595,0.2749,-0.0525,-1.645,-5.67,10.101981942429305,-21.77648645500136,-0.024111668740178605,2.2109999999956926
-0.387,0.9517,0.1696,0.2354,0.2595,0.2749,-0.2187,-1.4963,-5.6262,10.102303387309501,-21.7836150545191,-0.02453025835243122,2.220999999990454
-0.385,0.954,0.1712,0.2367,0.2582,0.2758,-0.2187,-1.4963,-5.6262,10.111572464306585,-21.762999155983128,-0.024614808919214106,2.2259999999951106
-0.385,0.954,0.1712,0.2367,0.2582,0.2758,-0.2275,-1.4175,-5.7137,10.119221179211598,-21.74039256038853,-0.024248247129909823,2.236000000004424
-0.3873,0.9528,0.1723,0.2355,0.2574,0.278,-0.1925,-1.4,-5.8975,10.138781001279774,-21.76013889236536,-0.023712100959191903,2.245999999984633
-0.3852,0.9517,0.1688,0.2355,0.2574,0.278,-0.245,-1.54,-5.7225,10.129918141021948,-21.752810378711246,-0.024021148100108643,2.25099999998929
-0.3843,0.9509,0.171,0.2355,0.2574,0.278,-0.245,-1.54,-5.7225,10.13698576108042,-21.73835021502284,-0.024873272918535316,2.260999999984051
-0.3855,0.9504,0.1681,0.237,0.2582,0.281,-0.4988,-1.5225,-5.9062,10.124636231639077,-21.74961931837288,-0.025084083339777945,2.2659999999887077
-0.3855,0.966,0.1721,0.237,0.2582,0.281,-0.4375,-1.3475,-5.6438,10.12314122501565,-21.694272724894667,-0.024019828805622617,2.275999999998021
-0.3876,0.9529,0.1721,0.2348,0.2585,0.277,-0.49,-1.3913,-6.09,10.135604551528168,-21.742929493560858,-0.023399836817765352,2.2859999999927823
-0.3872,0.9516,0.1734,0.2348,0.2585,0.277,-0.49,-1.3913,-6.09,10.156450105032539,-21.772425846372013,-0.022975941599410844,2.290999999997439
-0.3884,0.9515,0.1701,0.2348,0.2585,0.277,-0.5863,-1.7675,-6.1075,10.15273291997523,-21.821054232585897,-0.02609076848166461,2.3009999999922
-0.3858,0.9532,0.1696,0.2358,0.2588,0.2805,-0.7962,-1.7675,-6.0988,10.133585221576455,-21.782747003391286,-0.02750215394840541,2.305999999996857
-0.386,0.9522,0.1685,0.2358,0.2588,0.2805,-1.2513,-1.7325,-5.8713,10.08738746436348,-21.77585986503001,-0.030225218707350753,2.315999999991618
-0.386,0.9522,0.1685,0.2364,0.2592,0.2762,-1.2513,-1.7325,-5.8713,10.062859266337524,-21.77112032895343,-0.03322086144985842,2.326999999990221
-0.386,0.9524,0.17,0.2364,0.2592,0.2762,-0.525,-1.6187,-5.7575,10.070688533657089,-21.76609683013416,-0.03419867924766923,2.334000000002561
-0.3863,0.9525,0.1706,0.2364,0.2592,0.2762,-0.21,-1.6363,-5.8187,10.082106157489818,-21.76505589957982,-0.035697828123334954,2.3429999999934807
-0.3865,0.9534,0.1701,0.2361,0.2584,0.2815,0.0787,-1.645,-5.775,10.09254920897603,-21.762781295279932,-0.037259502513268046,2.3519999999989523
-0.3854,0.9517,0.1685,0.2361,0.2584,0.2815,0.0787,-1.645,-5.775,10.076407738300807,-21.756797207198545,-0.03795282563602585,2.356999999989057
-0.3854,0.952,0.1689,0.237,0.2578,0.2824,-0.2537,-1.68,-5.775,10.07477813990303,-21.750428605847652,-0.040051633681973724,2.36699999999837
-0.3853,0.952,0.1689,0.237,0.2578,0.2824,-0.385,-1.575,-5.9062,10.074537356093854,-21.742897926669162,-0.040370535493730215,2.371999999988475
-0.3829,0.9523,0.1721,0.2356,0.2574,0.2794,-0.385,-1.575,-5.7575,10.077394564061589,-21.703453811949128,-0.04140566644013294,2.381999999997788
-0.3874,0.951,0.1674,0.2356,0.2574,0.2794,-0.0175,-1.8637,-5.7575,10.05296417197352,-21.743189819035617,-0.04314009292147963,2.386999999987893
-0.3858,0.9521,0.1679,0.2356,0.2574,0.2794,-0.1488,-1.505,-5.985,10.04364737687977,-21.747308928762624,-0.04345452829187411,2.396999999982654
-0.3886,0.9511,0.1701,0.2349,0.2588,0.281,-0.805,-1.6187,-6.1687,10.072922972667374,-21.81701287248118,-0.04489144931069831,2.4069999999919673
-0.3886,0.9511,0.1701,0.2349,0.2588,0.281,-0.805,-1.6187,-6.1687,10.093293493444607,-21.856831751799422,-0.045378267968462796,2.411999999996624
-0.386,0.9509,0.1702,0.2359,0.2587,0.2769,-0.5163,-1.6888,-6.2562,10.10034164690434,-21.82212602177288,-0.046207213436239576,2.4169999999867287
-0.3839,0.9534,0.1693,0.2359,0.2587,0.2769,-0.4988,-1.7413,-6.055,10.096751332944276,-21.74599145338595,-0.0488303476047505,2.426999999996042
-0.3861,0.9548,0.1665,0.2359,0.2587,0.2769,-0.49,-1.365,-5.6175,10.07445054585816,-21.741782892185874,-0.047701880429038356,2.436999999990803
-0.3863,0.9528,0.1714,0.2342,0.2606,0.2809,-0.49,-1.365,-5.6175,10.087890680010496,-21.743739963845627,-0.04690477977444987,2.44199999999546
-0.3863,0.9507,0.1674,0.2342,0.2606,0.2809,-0.2713,-1.505,-5.7575,10.078947799892804,-21.760552090935292,-0.047181568277399985,2.452000000004773
-0.3839,0.9507,0.1674,0.2355,0.2582,0.2775,-0.3237,-1.5838,-6.0025,10.075031568629713,-21.733501044448758,-0.04823570889160603,2.4619999999849824
-0.3845,0.9529,0.169,0.2355,0.2582,0.2775,-0.0962,-1.9512,-5.6788,10.071184620048577,-21.719994842536895,-0.05291656810749859,2.4719999999942956
-0.3845,0.951,0.168,0.2355,0.2582,0.2775,-0.0962,-1.9512,-5.6788,10.059885506673968,-21.717886597949263,-0.05496901057131445,2.4769999999844003
-0.3884,0.9526,0.1722,0.2374,0.2576,0.2739,-0.2887,-1.4175,-5.5388,10.073580239189232,-21.733379216050942,-0.054298906765489166,2.4869999999937136
-0.3836,0.9504,0.1703,0.2374,0.2576,0.2739,-0.2362,-1.4262,-5.8713,10.083504051118137,-21.71284136092594,-0.05373877584781831,2.49199999999837
-0.3836,0.9504,0.1703,0.2361,0.2602,0.2798,-0.1488,-1.8112,-5.9062,10.09704932413503,-21.697976224324897,-0.05697860438736136,2.5019999999931315
-0.3856,0.9526,0.1687,0.2361,0.2602,0.2798,-0.1488,-1.8112,-5.9062,10.087271147772205,-21.708963684012495,-0.06018603464700556,2.5120000000024447
-0.3862,0.9531,0.1705,0.2361,0.2602,0.2815,-0.0613,-1.4525,-5.7925,10.10019529658365,-21.718962861965647,-0.059697217450311785,2.5169999999925494
-0.3865,0.9528,0.165,0.2352,0.2598,0.2815,-0.2975,-1.4088,-6.0375,10.082088589243458,-21.744780064377128,-0.05887304720583752,2.5279999999911524
-0.3858,0.9532,0.17,0.2352,0.2598,0.2815,-0.6037,-1.2862,-6.1687,10.087833008742583,-21.736315394060988,-0.05757417488311777,2.532999999995809
-0.3848,0.9509,0.173,0.2358,0.2591,0.2742,-0.6037,-1.2862,-6.1687,10.130462920306636,-21.724679792367592,-0.05557814943503064,2.5429999999905704
-0.3848,0.9509,0.173,0.2358,0.2591,0.2742,-0.7875,-1.5488,-6.2213,10.183892152078798,-21.71777451714009,-0.05620182424006245,2.5529999999853317
-0.3885,0.9537,0.165,0.237,0.2588,0.2706,-0.1838,-1.5225,-6.0025,10.126645565375641,-21.774069296593503,-0.056099349148089804,2.5579999999899883
-0.3844,0.9523,0.1709,0.237,0.2588,0.2706,-0.1838,-1.5225,-5.9763,10.134008750188396,-21.736175135360185,-0.056457441956127424,2.5679999999847496
-0.3864,0.952,0.1679,0.237,0.2588,0.2706,-0.2537,-1.4,-5.9763,10.12049900389517,-21.75447196045187,-0.0557460356864294,2.572999999989406
-0.3845,0.9521,0.1697,0.236,0.2602,0.2948,-0.6562,-1.4,-5.9763,10.117283786039039,-21.728402112855342,-0.055041743479428355,2.577999999994063
-0.3845,0.9521,0.1697,0.236,0.2602,0.2948,-0.5775,-1.5575,-6.1163,10.115351254376723,-21.709199047907585,-0.05575691234581274,2.588000000003376
-0.3837,0.9511,0.1686,0.237,0.2576,0.2778,-0.5775,-1.5575,-6.1163,10.1044243576105,-21.690898322271195,-0.05583213637110227,2.5929999999934807
-0.3878,0.9528,0.1693,0.237,0.2576,0.2778,-0.6388,-1.7237,-6.0375,10.0982677680298,-21.747025968657777,-0.05818478130586628,2.602999999988242
-0.3853,0.9526,0.1708,0.237,0.2576,0.2778,-0.5688,-1.3125,-5.8538,10.109442706388023,-21.735380153449444,-0.05644301979341526,2.6129999999830034
-0.3885,0.9501,0.1678,0.2353,0.2583,0.293,-0.455,-1.155,-5.9763,10.101942945802874,-21.806271089949874,-0.05315942589294869,2.6229999999923166
-0.3851,0.9501,0.1715,0.2353,0.2583,0.293,-0.455,-1.155,-5.9763,10.112379457744591,-21.78469768285253,-0.051268249782752996,2.627999999996973
-0.3851,0.9501,0.1715,0.2348,0.2582,0.278,-0.3588,-1.4875,-5.9588,10.113452856540087,-21.7711337245368,-0.0513281535846255,2.6379999999917345
-0.3855,0.9505,0.1679,0.2348,0.2582,0.278,-0.2275,-1.6625,-5.6962,10.101657008625592,-21.771193569951603,-0.05196741519985264,2.642999999996391
-0.3863,0.9531,0.1721,0.2348,0.2582,0.278,-0.2275,-1.4875,-5.9763,10.118133138240111,-21.761817171945616,-0.05202032734755415,2.6529999999911524
-0.3855,0.9501,0.169,0.2358,0.2594,0.2863,-0.2275,-1.4875,-5.9763,10.11418507227341,-21.766731682898552,-0.05178641722434524,2.657999999995809
-0.3867,0.9526,0.1671,0.2358,0.2594,0.2863,-0.5863,-1.68,-5.8713,10.084622331342484,-21.775029774803155,-0.05374688935440992,2.6680000000051223
-0.3867,0.9526,0.1671,0.2355,0.2584,0.279,-0.56,-1.5488,-5.6525,10.062810020745388,-21.778506331504882,-0.05379914860798238,2.672999999980675
-0.3874,0.9518,0.1687,0.2355,0.2584,0.279,-0.2625,-1.5838,-5.7663,10.061674938810455,-21.794262191873685,-0.055550091574034295,2.687999999994645
-0.3883,0.9525,0.1658,0.2355,0.2592,0.279,-0.2625,-1.5838,-5.7663,10.043830292168295,-21.81682103738313,-0.05575756880678397,2.6929999999847496
-0.385,0.9511,0.1703,0.2364,0.2592,0.279,-0.6125,-1.5925,-5.74,10.065007287705502,-21.794507736906173,-0.05681207942021751,2.702999999994063
-0.3877,0.9515,0.1697,0.2364,0.2592,0.279,-0.5775,-1.645,-5.985,10.073216940923931,-21.81722575337852,-0.057309876777008044,2.7079999999987194
-0.3865,0.9529,0.1692,0.2359,0.2578,0.279,-0.6212,-1.6975,-5.7488,10.072300112604886,-21.805405048925607,-0.05938836430784888,2.7179999999934807
-0.3865,0.9529,0.1692,0.2359,0.2578,0.279,-0.6212,-1.6975,-5.7488,10.071568613293799,-21.79652147582807,-0.06144606696723987,2.728000000002794
-0.3846,0.9529,0.168,0.2366,0.2582,0.2743,-0.0613,-1.3475,-5.8625,10.054476268963699,-21.759698401635692,-0.06042489944837237,2.7329999999928987
-0.3867,0.9542,0.1707,0.2366,0.2582,0.2743,-0.5425,-1.435,-5.9938,10.067570637065524,-21.75558227822905,-0.05984706860383636,2.7379999999830034
-0.3855,0.9512,0.1674,0.2366,0.2582,0.2743,-0.5425,-1.5662,-6.02,10.05472478550233,-21.756902185344348,-0.06060031421905688,2.7479999999923166
-0.3866,0.9512,0.1689,0.2361,0.2593,0.2783,-0.525,-1.5662,-6.02,10.056634980737538,-21.77685867226097,-0.06134602737615819,2.757999999987078
-0.3866,0.9512,0.17,0.2361,0.2593,0.2783,-0.8838,-1.5662,-6.0725,10.082629394792786,-21.78841350286868,-0.061408425253026054,2.7629999999917345
-0.385,0.9525,0.17,0.235,0.2576,0.2774,-0.8138,-1.4612,-5.8275,10.093990602727654,-21.76220640351688,-0.06110655730033223,2.772999999986496
-0.3884,0.9514,0.1658,0.235,0.2576,0.2774,-0.8138,-1.4612,-5.8275,10.029728793942033,-21.804829818598467,-0.060651599877474295,2.7779999999911524
-0.3879,0.9529,0.1712,0.235,0.2576,0.2774,-0.035,-1.4262,-5.6875,10.0685586387733,-21.811000418408625,-0.06001080017866762,2.7880000000004657
-0.3855,0.9525,0.1693,0.2359,0.2602,0.2743,0.07,-1.3212,-5.845,10.071632917612721,-21.785644219385564,-0.05833690847744346,2.797999999995227
-0.3866,0.952,0.1674,0.2359,0.2602,0.2743,-0.2713,-0.9975,-5.7137,10.062944921439431,-21.78874719336016,-0.055614332546902644,2.8029999999853317
-0.3866,0.952,0.1674,0.2364,0.258,0.2783,-0.2713,-0.9975,-5.7137,10.055021857476447,-21.79114234125356,-0.05077977552367494,2.812999999980093
-0.386,0.9531,0.1674,0.2364,0.258,0.2783,-0.3325,-1.5313,-5.7575,10.051835196579557,-21.77982782641057,-0.05077508091890674,2.8179999999847496
-0.3859,0.9528,0.167,0.2364,0.258,0.2783,-0.1138,-1.6013,-5.95,10.029466240135356,-21.769057406502007,-0.05196653641130018,2.827999999994063
-0.3846,0.9512,0.1731,0.2368,0.2579,0.278,-0.315,-1.5925,-6.16,10.043740564615543,-21.736481454217717,-0.05305895734634266,2.837999999988824
-0.3854,0.9516,0.1685,0.2368,0.2579,0.278,-0.315,-1.5925,-6.16,10.04361775988099,-21.738846805825006,-0.05333441092362992,2.8429999999934807
-0.3854,0.9516,0.1699,0.2353,0.2591,0.28,-0.7437,-1.0938,-5.6875,10.065304574300301,-21.738462773671102,-0.04947602311613551,2.852999999988242
-0.3891,0.9525,0.1699,0.2353,0.2591,0.28,-0.5163,-1.5488,-5.7137,10.071552266495926,-21.777099612751297,-0.049570991035523385,2.8579999999928987
-0.3838,0.9515,0.1681,0.2346,0.2592,0.2837,-0.4988,-1.9688,-5.32,10.065463909245901,-21.76694981372582,-0.054412737430139045,2.868000000002212
-0.3914,0.954,0.1715,0.2346,0.2592,0.2837,-0.4988,-1.9688,-5.32,10.080020188372307,-21.78678617916975,-0.05653733820055608,2.8729999999923166
-0.3857,0.952,0.1745,0.2346,0.2592,0.2837,-0.2625,-1.5662,-5.4775,10.10926900436733,-21.783475315983097,-0.0573236811178424,2.882999999987078
-0.3856,0.9527,0.1715,0.2351,0.2592,0.2768,-0.4375,-1.4262,-6.0287,10.11548920017194,-21.759205587435233,-0.056716160606632045,2.892999999996391
-0.3856,0.9527,0.1715,0.2351,0.2592,0.2768,0.0962,-1.5137,-5.7663,10.143793826858632,-21.74894040867595,-0.056564982149742475,2.897999999986496
-0.386,0.952,0.1706,0.2359,0.2594,0.2812,0.0962,-1.5137,-5.7663,10.148823642750088,-21.751064765882795,-0.05683129862901988,2.907999999995809
-0.3871,0.9522,0.1684,0.2359,0.2594,0.2812,-0.0613,-1.5575,-5.4775,10.120771476945325,-21.754769265227644,-0.056895778793319016,2.9130000000004657
-0.3883,0.9525,0.169,0.2359,0.2594,0.2812,-0.5337,-1.68,-5.565,10.112291137964778,-21.76955719881726,-0.0588051573040875,2.922999999995227
-0.3842,0.9507,0.1686,0.2361,0.2575,0.2799,-0.5337,-1.3825,-5.7137,10.104347015044008,-21.753307556278727,-0.057750192030611776,2.93300000000454
-0.3842,0.9512,0.1695,0.2361,0.2575,0.2799,-0.1663,-1.3825,-5.7137,10.104259033555348,-21.737744777993015,-0.056939233261447134,2.937999999980093
-0.3884,0.9512,0.1695,0.2373,0.2571,0.2778,-0.5512,-1.3388,-5.8187,10.104191394585461,-21.784095574093087,-0.055470297227994896,2.947999999989406
-0.3834,0.9526,0.1695,0.2373,0.2571,0.2778,-0.4025,-1.4963,-5.67,10.103691900856777,-21.750304694955364,-0.05557530055536935,2.9579999999841675
-0.3886,0.9517,0.1691,0.2373,0.2571,0.2778,-0.4025,-1.4963,-5.67,10.102740289827285,-21.78069311308808,-0.05534940070012285,2.962999999988824
-0.3885,0.9515,0.1676,0.2357,0.2603,0.2787,-0.21,-1.1025,-5.8538,10.087339775751582,-21.818614738404907,-0.05155699299010515,2.9729999999981374
-0.3833,0.9521,0.1688,0.2357,0.2603,0.2787,-0.2013,-1.3038,-5.495,10.082527415195347,-21.804692584421986,-0.0504184012114371,2.977999999988242
-0.3833,0.9521,0.1688,0.2341,0.259,0.2867,-0.2713,-1.47,-5.5388,10.079983340328386,-21.785186015642076,-0.05031355349969464,2.9879999999975553
-0.3868,0.9521,0.1695,0.2341,0.259,0.2867,-0.2713,-1.47,-5.5388,10.081258644826002,-21.786778072552828,-0.050010086114883646,2.993000000002212
-0.3868,0.9532,0.1702,0.2341,0.259,0.2662,-0.84,-1.4525,-5.9588,10.094915331343218,-21.782774845872265,-0.04973607155328737,3.0029999999824213
-0.3858,0.9517,0.1699,0.2352,0.2586,0.2804,-0.5163,-1.5662,-6.02,10.098411626968408,-21.772520778662443,-0.05059042713901338,3.0129999999917345
-0.3842,0.9514,0.1687,0.2352,0.2586,0.2804,-0.35,-1.4262,-5.775,10.097651221795239,-21.749221331339832,-0.05006738101765717,3.017999999981839
-0.3842,0.9512,0.167,0.2359,0.2579,0.2727,-0.35,-1.4262,-5.775,10.095199382662127,-21.73468657152594,-0.049532423507448665,3.0279999999911524
-0.384,0.9512,0.167,0.2359,0.2579,0.2727,-0.5775,-1.2775,-5.9237,10.071386108092879,-21.717568995671346,-0.0482838924216727,3.032999999995809
-0.3891,0.9526,0.1687,0.2346,0.2577,0.2726,-0.21,-1.5313,-5.9763,10.067466039204877,-21.786543440752165,-0.048807259796928855,3.0429999999905704
-0.3841,0.9536,0.169,0.2346,0.2577,0.2726,-0.2975,-1.6625,-6.0287,10.066304405410586,-21.72861555145895,-0.05062427350110634,3.0529999999998836
-0.3864,0.9528,0.1671,0.2346,0.2577,0.2726,-0.2975,-1.6625,-6.0287,10.058479880348786,-21.745819372748535,-0.05242311706488772,3.062999999994645
-0.3869,0.9536,0.1689,0.2361,0.2571,0.2789,-0.77,-1.6013,-5.915,10.05431698572413,-21.756196911919062,-0.05274848904503009,3.0679999999993015
-0.3869,0.9536,0.1689,0.2361,0.2571,0.2789,-0.6562,-1.4612,-6.2825,10.052000157238885,-21.76588072485702,-0.05253322045441623,3.077999999994063
-0.3853,0.9503,0.1693,0.2358,0.2579,0.2779,-0.3938,-1.5313,-5.88,10.053252600351492,-21.764084803241357,-0.0525109913988764,3.0829999999841675
-0.3863,0.9511,0.168,0.2358,0.2579,0.2779,-0.3938,-1.5313,-5.88,10.052342004331805,-21.775400951552513,-0.05248898463535618,3.087999999988824
-0.3832,0.9526,0.1702,0.2358,0.2579,0.2779,-0.2713,-1.6363,-5.5563,10.059186779104568,-21.754525767179178,-0.054009801087930936,3.0979999999835854
-0.3849,0.952,0.1685,0.2357,0.2594,0.2787,-0.525,-1.785,-5.67,10.056195379176273,-21.74525288314761,-0.05698753938032786,3.1079999999928987
-0.3838,0.9545,0.1691,0.2357,0.2594,0.2787,-0.3063,-1.6712,-5.7225,10.055623305310498,-21.711385727484917,-0.05880888028875158,3.118000000002212
-0.3838,0.9545,0.1691,0.2352,0.2589,0.2776,-0.3063,-1.6712,-5.7225,10.055084398466438,-21.68542045375123,-0.05941639963349788,3.1229999999923166
-0.3851,0.9514,0.1721,0.2352,0.2589,0.2776,0.035,-1.505,-5.95,10.112042490186285,-21.696653162745083,-0.059568071937857514,3.13300000000163
-0.3871,0.9524,0.167,0.2352,0.2589,0.2776,-0.5512,-1.645,-5.9412,10.086238647088459,-21.73837679724017,-0.06110422751425991,3.142999999981839
-0.3899,0.9505,0.1723,0.2377,0.2582,0.285,-0.5512,-1.645,-5.95,10.115425439407117,-21.82238326833887,-0.061559103390110025,3.147999999986496
-0.387,0.952,0.1672,0.2377,0.2582,0.285,-0.77,-1.6363,-5.95,10.071214523104624,-21.82169212183195,-0.06298921865811415,3.157999999995809
-0.387,0.952,0.1672,0.2372,0.2578,0.278,-1.05,-1.4175,-5.8888,10.02663318503363,-21.82127623572014,-0.06229911962165215,3.1629999999859137
-0.3873,0.9528,0.1683,0.2372,0.2578,0.278,-0.3325,-1.8725,-5.88,10.026312578520072,-21.819516083976513,-0.06606021472951863,3.172999999995227
-0.387,0.952,0.1663,0.2372,0.2578,0.2764,-0.3325,-1.8725,-5.88,10.022298352845409,-21.820796541564494,-0.06759165573426494,3.1779999999998836
-0.3858,0.954,0.1688,0.2375,0.257,0.2764,-0.2275,-1.4438,-5.9325,10.023740531415434,-21.78428181065411,-0.06705569547684896,3.187999999994645
-0.3889,0.9526,0.1709,0.2375,0.257,0.2764,-0.21,-1.7237,-5.67,10.043799422232997,-21.805954978564568,-0.06929610482479152,3.198000000003958
-0.387,0.952,0.1698,0.2357,0.2586,0.2714,-0.5337,-1.8112,-5.9675,10.053644816493428,-21.807788880106465,-0.07049175192280595,3.202999999994063
-0.387,0.952,0.1698,0.2357,0.2586,0.2714,-0.5337,-1.8112,-5.9675,10.062089601016744,-21.80897255786413,-0.07356405070159913,3.212999999988824
-0.3867,0.9521,0.1699,0.2356,0.2597,0.2849,-0.4375,-1.5575,-5.5912,10.065717298730922,-21.806680745401785,-0.07346120334517248,3.2179999999934807
-0.3853,0.9512,0.1695,0.2356,0.2597,0.2849,-0.2187,-1.5925,-5.845,10.070662888710142,-21.78714833574092,-0.07433867761087623,3.227999999988242
-0.3877,0.9523,0.172,0.2356,0.2597,0.2849,-0.5425,-1.4262,-5.8275,10.095561550707101,-21.800430451985967,-0.0735781489847515,3.2329999999928987
-0.3838,0.9528,0.1671,0.2345,0.259,0.2656,-0.5425,-1.4262,-5.8275,10.073509543355634,-21.754144945318707,-0.07280808379492194,3.24299999998766
-0.3838,0.9528,0.1671,0.2345,0.259,0.2656,-0.7175,-1.575,-5.8362,10.040799277002098,-21.72081035518747,-0.07351883925831273,3.252999999996973
-0.3845,0.9529,0.1699,0.2349,0.2585,0.279,-0.5163,-1.645,-5.8012,10.049677183952667,-21.70534603192314,-0.07384956901672232,3.25800000000163
-0.3861,0.9512,0.1661,0.2349,0.2585,0.279,-0.4025,-1.12,-5.7137,10.044838156101273,-21.725656309247007,-0.07004540962816111,3.267999999996391
-0.385,0.952,0.1704,0.2349,0.2585,0.279,-0.4025,-1.12,-5.7137,10.048293481215993,-21.72134704383625,-0.06781212368491306,3.272999999986496
-0.382,0.9507,0.171,0.2346,0.2586,0.2707,-0.245,-1.7763,-6.1163,10.064520969199705,-21.6619897763414,-0.07056570874626616,3.282999999981257
-0.3869,0.9526,0.1693,0.2346,0.2586,0.2707,-0.7262,-1.8725,-5.845,10.067976161537569,-21.70200170921491,-0.07424413796288651,3.2929999999905704
-0.3869,0.9526,0.1693,0.235,0.26,0.279,-0.525,-1.5313,-6.0637,10.069285631154937,-21.73877633517038,-0.07400479973372619,3.297999999995227
-0.3839,0.9523,0.1734,0.235,0.26,0.279,-0.525,-1.5313,-6.0637,10.103290798163645,-21.697546843127054,-0.0742709580358618,3.3079999999899883
-0.3873,0.9524,0.1681,0.235,0.26,0.279,-0.385,-1.68,-5.6788,10.101712254976551,-21.72378651889387,-0.07476741660665724,3.312999999994645
-0.3858,0.9521,0.1728,0.235,0.2586,0.2711,-0.3675,-1.3737,-6.0637,10.10177610205131,-21.72896362010615,-0.07346570874088092,3.322999999989406
-0.3838,0.9529,0.1666,0.235,0.2586,0.2711,-0.3675,-1.3737,-6.125,10.101712395775957,-21.692461187389807,-0.07217701795295611,3.3329999999987194
-0.3838,0.9529,0.1728,0.2362,0.2588,0.2758,-0.245,-1.575,-6.125,10.121041614675025,-21.661944117539406,-0.07217466592200278,3.337999999988824
-0.3858,0.9529,0.1728,0.2362,0.2588,0.2758,-0.14,-1.2075,-5.7663,10.150239592622835,-21.677184016895854,-0.06925350556393496,3.3479999999835854
-0.386,0.9516,0.1677,0.2362,0.2596,0.2778,-0.49,-1.2075,-5.7312,10.133295263004987,-21.700637480814247,-0.06746126365727144,3.352999999988242
-0.3872,0.9518,0.1711,0.2354,0.2596,0.2778,-0.49,-1.2075,-5.7312,10.139567296103184,-21.729255825608313,-0.06458723731865036,3.3629999999975553
-0.3856,0.9511,0.1656,0.2354,0.2596,0.2778,-0.245,-1.8112,-5.7312,10.110840289965893,-21.739581454388336,-0.06696313798607947,3.370999999999185
-0.3874,0.9537,0.1737,0.2354,0.259,0.2762,-0.3413,-1.3737,-6.1512,10.116308130924258,-21.758066845343404,-0.06601648975596068,3.3760000000038417
-0.3874,0.9537,0.1737,0.2354,0.259,0.2762,-0.4638,-1.47,-5.9588,10.134342793933355,-21.76691614776717,-0.06575566115761076,3.385999999984051
-0.3853,0.9523,0.1688,0.2361,0.2561,0.2775,-0.4638,-1.47,-5.9588,10.127095178296258,-21.751085903890296,-0.06549744084640657,3.3959999999933643
-0.383,0.9528,0.1675,0.2361,0.2561,0.2775,-0.385,-1.6712,-5.635,10.12445550211301,-21.72393485332667,-0.06603807458557634,3.400999999983469
-0.3847,0.9526,0.1721,0.2361,0.2561,0.2775,-0.1138,-1.61,-5.8012,10.14802244177692,-21.70991157546411,-0.06716303014138329,3.4109999999927823
-0.3865,0.952,0.1681,0.2359,0.2578,0.2831,-0.2013,-1.7237,-5.4338,10.12886214701335,-21.71116916390839,-0.0694023661384445,3.4209999999875436
-0.3865,0.952,0.1692,0.2359,0.2578,0.2831,-0.2013,-1.7237,-5.4338,10.121601392900281,-21.71234710590442,-0.07016382562841558,3.4259999999922
-0.3868,0.9529,0.1692,0.2358,0.2584,0.279,-0.4462,-1.2337,-5.7225,10.117756138835688,-21.729291099281543,-0.06752215367032463,3.4360000000015134
-0.3829,0.9535,0.1623,0.2358,0.2584,0.279,-0.4462,-1.6187,-5.8275,10.084496104428467,-21.691037101073704,-0.06871839842991764,3.445999999981723
-0.3863,0.9525,0.169,0.2358,0.2584,0.279,-0.3588,-1.5313,-5.495,10.084286922283885,-21.696541033145788,-0.06853431759608701,3.4509999999863794
-0.3864,0.9504,0.1662,0.2361,0.2592,0.2722,-0.3588,-1.5313,-5.495,10.082807329234516,-21.705742635272927,-0.06885518072106324,3.4609999999956926
-0.3868,0.9518,0.1722,0.2361,0.2592,0.2722,-0.0875,-1.4,-5.9938,10.120520231040809,-21.738813514955535,-0.06801979706414318,3.4659999999857973
-0.3868,0.9518,0.1722,0.2352,0.2586,0.2745,-0.595,-1.6275,-6.1512,10.145421416049704,-21.763114286277556,-0.06929818539532583,3.4759999999951106
-0.3855,0.9511,0.1691,0.2352,0.2586,0.2745,-0.7875,-1.3388,-6.09,10.12652790327559,-21.759877343908457,-0.0681554316922627,3.4809999999852153
-0.3882,0.9539,0.1701,0.2352,0.2586,0.2745,-0.7875,-1.3388,-6.09,10.121861700142414,-21.78928543854402,-0.0665743336745023,3.4909999999945285
-0.3853,0.9526,0.1713,0.2338,0.2582,0.282,-0.5337,-1.7675,-5.9237,10.132150567775733,-21.761604896592953,-0.06758088348931472,3.495999999999185
-0.3882,0.9542,0.1662,0.2338,0.2582,0.282,-0.3675,-1.75,-5.81,10.132063779567577,-21.783913672652055,-0.07007641095276021,3.5059999999939464
-0.3882,0.9523,0.1707,0.2365,0.2573,0.2759,-0.3675,-1.75,-5.8713,10.132074227524216,-21.80860463133069,-0.07254698314157124,3.5159999999887077
-0.3856,0.9523,0.1707,0.2365,0.2573,0.2759,-0.3063,-1.6275,-5.8713,10.133829993518338,-21.78420200521061,-0.07280080646106757,3.5209999999933643
-0.3861,0.9532,0.1674,0.2364,0.2571,0.2718,-0.3063,-1.5137,-5.8275,10.123789702307466,-21.774147689509714,-0.07290476469602106,3.5309999999881256
-0.3873,0.9511,0.169,0.2364,0.2571,0.2718,-0.6037,-1.3038,-5.705,10.1146057350275,-21.790486999521615,-0.07092967334790039,3.540999999997439
-0.3858,0.9516,0.1686,0.2364,0.2571,0.2718,-0.6037,-1.3038,-5.705,10.101728755782597,-21.78416804660664,-0.06959735476565439,3.5459999999875436
-0.3872,0.953,0.1705,0.2364,0.2588,0.2754,-0.315,-1.225,-5.5388,10.103820249691504,-21.78573432435986,-0.06687521751611084,3.555999999996857
-0.3872,0.953,0.1705,0.2364,0.2588,0.2754,-0.595,-1.785,-5.3725,10.111146395894288,-21.786301494402885,-0.06796538349258784,3.5610000000015134
-0.3855,0.9523,0.1657,0.2348,0.2601,0.2749,-0.63,-1.3212,-5.9763,10.061190352513751,-21.77077683224077,-0.06621194595822448,3.5709999999962747
-0.3873,0.9537,0.1666,0.2348,0.2601,0.2749,-0.63,-1.3212,-5.9763,10.029559548488885,-21.78253780294746,-0.06501293464814221,3.5760000000009313
-0.3839,0.9521,0.1713,0.2348,0.2601,0.2749,-1.0412,-1.5575,-6.0813,10.097913924324413,-21.72780307730197,-0.06562839159915612,3.5859999999811407
-0.3862,0.9519,0.1692,0.2353,0.2594,0.2634,-0.4725,-1.5488,-5.5125,10.09612600436891,-21.731820847542313,-0.06615156398426301,3.595999999990454
-0.3862,0.9526,0.1737,0.2353,0.2594,0.2634,-0.0175,-1.155,-5.5388,10.157830330532867,-21.733143987466956,-0.06413046649315417,3.6009999999951106
-0.3872,0.9526,0.1737,0.2362,0.2569,0.278,-0.0175,-1.155,-5.5388,10.203525561132425,-21.73981784905835,-0.06076999812964711,3.610999999989872
-0.3869,0.9501,0.1673,0.2362,0.2569,0.278,-0.315,-1.505,-5.6087,10.19263997087329,-21.757972747371646,-0.06053521629869795,3.6159999999945285
-0.3866,0.9543,0.1701,0.2362,0.2569,0.278,-0.2713,-1.89,-5.5738,10.18506389831884,-21.75602039291017,-0.06448720043332352,3.62599999998929
-0.3845,0.9521,0.1715,0.2375,0.2579,0.2827,-0.3413,-1.8813,-5.6613,10.185736764841064,-21.740221137911906,-0.06831353473315442,3.635999999998603
-0.3854,0.9522,0.1659,0.2375,0.2579,0.2827,-0.3413,-1.8813,-5.6613,10.177916893526165,-21.740012879705077,-0.06986600253790495,3.6410000000032596
-0.3854,0.9522,0.1659,0.2355,0.259,0.2819,-0.4288,-1.785,-5.5213,10.160991871273232,-21.739932801977478,-0.0726851788055639,3.650999999983469
-0.3854,0.9536,0.1712,0.2355,0.259,0.2819,-0.4112,-1.4963,-5.7575,10.161694415140287,-21.727867372706257,-0.07261803331812265,3.6609999999927823
-0.3863,0.9522,0.1667,0.2355,0.259,0.278,-0.1225,-1.2775,-5.845,10.116056339810205,-21.744169194778568,-0.07113864613643207,3.665999999982887
-0.3894,0.9513,0.1714,0.2374,0.2588,0.278,-0.1225,-1.2775,-5.845,10.135284743099733,-21.80333194432545,-0.0689208459736648,3.6759999999922
-0.3865,0.951,0.1737,0.2374,0.2588,0.278,-0.1663,-1.7587,-5.5912,10.171462649517979,-21.801592262094882,-0.07148910381222166,3.6859999999869615
-0.3855,0.952,0.1671,0.235,0.2588,0.273,-0.0962,-1.4787,-5.67,10.125316757289857,-21.79002129486516,-0.0710169459243255,3.690999999991618
-0.3855,0.952,0.1671,0.235,0.2588,0.273,-0.0962,-1.4787,-5.6,10.08902841248598,-21.78295207898216,-0.07079224276553438,3.7010000000009313
-0.388,0.9541,0.172,0.2355,0.2581,0.2794,-0.1575,-1.7587,-5.6,10.111653080380703,-21.787423100548647,-0.07171305348465568,3.705999999991036
-0.3855,0.9536,0.1743,0.2355,0.2581,0.2794,-0.3938,-1.7237,-5.5912,10.117891324121384,-21.772491749521063,-0.07390688924828416,3.7159999999857973
-0.386,0.9538,0.1659,0.2355,0.2581,0.2794,-0.3325,-1.4963,-5.7312,10.10932884407348,-21.76419724391545,-0.07349767350610852,3.720999999990454
-0.3838,0.9529,0.1704,0.236,0.2597,0.2763,-0.3325,-1.4963,-5.7312,10.110328597222392,-21.731582870242207,-0.07342240307070183,3.7309999999852153
-0.3838,0.9529,0.1704,0.236,0.2597,0.2763,-0.3762,-1.6013,-6.0988,10.110562964941161,-21.689387277106984,-0.07438738534157732,3.7409999999945285
-0.3897,0.9507,0.1668,0.2363,0.258,0.2771,-0.28,-1.645,-5.9675,10.097697585698455,-21.794544199492627,-0.07470942963915427,3.745999999999185
-0.387,0.9531,0.1739,0.2363,0.258,0.2771,-0.3675,-1.4875,-5.845,10.097781249971476,-21.788453778731803,-0.07453492164246277,3.7559999999939464
-0.3862,0.9521,0.1696,0.2363,0.258,0.2771,-0.3675,-1.4875,-5.845,10.097782118962407,-21.782624342817567,-0.07407586557630477,3.760999999998603
-0.3856,0.9529,0.1648,0.2358,0.2596,0.2779,-0.1488,-1.5137,-5.6788,10.046431705246917,-21.773637748895815,-0.07416707322010589,3.7709999999933643
-0.3868,0.9539,0.1726,0.2358,0.2596,0.2779,-0.2713,-1.9338,-6.0113,10.06490162461338,-21.765839878781808,-0.07841635878529021,3.7809999999881256
-0.3868,0.9539,0.1726,0.2343,0.2583,0.2766,-0.8575,-1.68,-5.8538,10.127785559232692,-21.761850534201628,-0.07887136334859138,3.7859999999927823
-0.3867,0.9521,0.1673,0.2343,0.2583,0.2766,-0.8575,-1.68,-5.8538,10.074636270263902,-21.774245156644394,-0.08056098601380715,3.7959999999875436
-0.3863,0.9528,0.169,0.2343,0.2583,0.2766,-0.8313,-1.4612,-5.6613,10.069385828925064,-21.77188151389909,-0.07991148430381446,3.8009999999922
-0.3878,0.9516,0.17,0.2363,0.2592,0.2797,-0.385,-1.4088,-5.7838,10.07038855335802,-21.795290468962857,-0.07890582576088452,3.8109999999869615
-0.3862,0.9528,0.1682,0.2363,0.2592,0.2797,-0.5075,-1.2075,-5.9675,10.063161263417934,-21.782740420731525,-0.07591735380122731,3.8209999999962747
-0.3862,0.9528,0.1682,0.2358,0.2578,0.2798,-0.5075,-1.2075,-5.9675,10.05681961621761,-21.77464008785667,-0.07405847341219086,3.8260000000009313
-0.3854,0.9536,0.1713,0.2358,0.2578,0.2798,-0.6037,-1.4175,-5.9062,10.081037647832916,-21.74752076433473,-0.07319747497813203,3.8359999999956926
-0.3863,0.9524,0.1682,0.2358,0.2598,0.2754,-0.4288,-1.54,-5.7575,10.07727403000273,-21.753985600104215,-0.07301166837885936,3.8410000000003492
-0.3866,0.9531,0.172,0.2366,0.2598,0.2754,-0.3588,-1.5925,-5.9763,10.078640442120673,-21.75638685343063,-0.07389363799188035,3.8509999999805586
-0.3844,0.952,0.1673,0.2366,0.2598,0.2754,-0.3588,-1.5925,-5.9763,10.077640761720094,-21.731564291562815,-0.07476678791346293,3.860999999989872
-0.3865,0.9537,0.1687,0.2374,0.2583,0.2795,-0.6388,-1.4963,-6.02,10.067757811785908,-21.740511505928716,-0.0743489731846355,3.8659999999945285
-0.3865,0.9537,0.1687,0.2374,0.2583,0.2795,-0.2975,-1.6363,-6.2125,10.065360641559153,-21.747092852201796,-0.07565118975171746,3.87599999998929
-0.3827,0.9513,0.1767,0.2354,0.2591,0.2755,-0.2975,-1.4525,-5.9062,10.095406695880403,-21.69232503623086,-0.07500772100430557,3.8809999999939464
-0.3867,0.952,0.1671,0.2354,0.2591,0.2755,-0.0525,-1.4525,-5.9062,10.06185088106229,-21.729415992037822,-0.07448373009414408,3.8909999999887077
-0.3874,0.9538,0.1728,0.2354,0.2591,0.2755,-0.6825,-1.5662,-5.8012,10.111405885456643,-21.74468717324399,-0.07509060909446152,3.900999999998021
-0.3863,0.9514,0.1703,0.2367,0.2589,0.2864,-0.525,-1.575,-5.6962,10.116434376723916,-21.753594983076532,-0.07505912115418692,3.9060000000026776
-0.3863,0.9514,0.1685,0.2367,0.2589,0.2864,-0.525,-1.575,-5.6962,10.106510273519413,-21.76196769311455,-0.07502794809122128,3.9109999999927823
-0.3883,0.9518,0.1685,0.2358,0.2595,0.2779,-0.5425,-1.2075,-5.5738,10.096506157750515,-21.778695762951823,-0.07207825491146128,3.9209999999875436
-0.3868,0.9504,0.1701,0.2358,0.2595,0.2779,-0.4112,-0.98,-6.3175,10.098612855095897,-21.803961700636126,-0.06690580866467875,3.930999999982305
-0.3872,0.9519,0.17,0.2358,0.2595,0.2779,-0.5688,-1.3388,-6.2387,10.10314755040902,-21.8123779300719,-0.0653372068771942,3.940999999991618
-0.3878,0.9553,0.1723,0.2354,0.2581,0.2778,-0.5688,-1.3388,-6.2387,10.12338194896241,-21.796297352262947,-0.06423406295800338,3.9459999999962747
-0.3847,0.9517,0.1649,0.2354,0.2581,0.2778,-0.14,-1.2337,-5.8538,10.068936670419447,-21.77219673319429,-0.06165168862943967,3.955999999991036
-0.3847,0.9517,0.1649,0.2366,0.258,0.2754,-0.3237,-1.3212,-5.9325,10.05883387800544,-21.753406423176266,-0.059961388042145236,3.9660000000003492
-0.385,0.948,0.17,0.2366,0.258,0.2754,-0.3063,-1.3125,-5.9325,10.06507616458134,-21.76537610498169,-0.05878181731287155,3.970999999990454
-0.3858,0.9471,0.1691,0.2366,0.258,0.2754,-0.3063,-1.3125,-5.9325,10.068446346528413,-21.79450473223015,-0.05703408544035048,3.9809999999852153
-0.3846,0.9523,0.1707,0.2358,0.2578,0.2771,-0.455,-1.3388,-5.915,10.075975065143636,-21.756241477616555,-0.056013972735528085,3.985999999989872
-0.3889,0.9531,0.1732,0.2358,0.2578,0.2771,-0.4025,-1.47,-5.88,10.083463750505613,-21.793313183268822,-0.05585316930796361,3.995999999984633
-0.3889,0.9536,0.1655,0.2345,0.259,0.2771,-0.3675,-1.365,-5.6613,10.083381775879472,-21.81243221437684,-0.05497455576458587,4.00099999998929
-0.3852,0.9536,0.1655,0.2345,0.259,0.2771,-0.3675,-1.365,-5.6613,10.083299829524822,-21.790880339540283,-0.053784646507275366,4.010999999984051
-0.3831,0.9511,0.1668,0.236,0.2614,0.282,-0.2887,-0.9887,-5.5388,10.073313847018365,-21.774671063317722,-0.04888126633813689,4.020999999993364
-0.3859,0.9514,0.1668,0.236,0.2614,0.282,-0.175,-1.61,-5.6613,10.052418692839405,-21.775254935657106,-0.049285121825586885,4.025999999998021
-0.3867,0.956,0.1678,0.236,0.2614,0.282,-0.8575,-1.7938,-6.2213,10.020501633197966,-21.751846458538004,-0.05239722690544249,4.035999999992782
-0.3853,0.9514,0.1654,0.2361,0.2593,0.276,-0.8575,-1.7938,-6.2213,9.968483352733156,-21.751858836753975,-0.05547821093974544,4.0460000000020955
-0.3853,0.9514,0.1654,0.2361,0.2593,0.276,-0.7175,-1.295,-6.1425,9.940961176379949,-21.751865311000927,-0.05425684698166719,4.0509999999922
-0.3864,0.9469,0.1706,0.2369,0.2586,0.2774,-0.0525,-1.1375,-5.3463,10.00623668401365,-21.760492022551453,-0.050821864813365765,4.0609999999869615
-0.3844,0.9504,0.1701,0.2369,0.2586,0.2774,-0.07,-1.4175,-5.6175,10.03858770001352,-21.751971527546015,-0.050253439315176035,4.065999999991618
-0.388,0.9548,0.169,0.2369,0.2586,0.2774,-0.07,-1.4175,-5.6175,10.03831911834085,-21.761403008370877,-0.04963049122208736,4.075999999986379
-0.3831,0.9528,0.166,0.2366,0.2593,0.2712,-0.42,-1.7938,-5.5563,10.030623113974887,-21.74291650635001,-0.05093666446154518,4.080999999991036
-0.3831,0.949,0.169,0.2366,0.2593,0.2712,-0.7,-1.3563,-5.5388,10.047299062547085,-21.735564935347583,-0.04970100411625331,4.091000000000349
-0.3837,0.949,0.169,0.2371,0.2596,0.2781,-0.7,-1.3563,-5.6875,10.05981708678015,-21.729167027245975,-0.048477700375471264,4.100999999995111
-0.3841,0.9521,0.1698,0.2371,0.2596,0.2781,-0.3588,-0.8662,-5.6875,10.06028454565904,-21.714675686042103,-0.04520378151911896,4.105999999999767
-0.3941,0.9559,0.1634,0.2371,0.2596,0.2781,-0.2625,-1.6275,-6.5012,10.025975462670203,-21.92343404348746,-0.04671033000005161,4.115999999979977
-0.3864,0.9584,0.1667,0.2359,0.2597,0.2758,-0.3063,-1.9162,-5.6438,10.016762537526791,-21.875561321730316,-0.05105994300453701,4.12599999998929
-0.3872,0.9489,0.1685,0.2359,0.2597,0.2758,-0.3063,-1.9162,-5.6438,10.019807421143847,-21.87796084699554,-0.0529577017267346,4.130999999993946
-0.3872,0.9489,0.1685,0.2346,0.2592,0.2784,-0.0263,-1.1463,-5.6875,10.032403071845177,-21.88021738131248,-0.04962283101093686,4.140999999988708
-0.3841,0.9493,0.1746,0.2346,0.2592,0.2784,-0.2275,-1.0412,-5.8362,10.080308856041867,-21.826955562733378,-0.04720371084903666,4.145999999993364
-0.3863,0.9511,0.1704,0.2346,0.2592,0.2749,-0.4025,-1.6538,-5.6875,10.082891060548622,-21.819392042477645,-0.04784115189157958,4.150999999998021
-0.3914,0.953,0.1685,0.2351,0.2595,0.2749,-0.4025,-1.6538,-5.6875,10.08101374987377,-21.861933529314726,-0.04958169667150134,4.160999999992782
-0.3859,0.9514,0.1677,0.2351,0.2595,0.2749,-0.4812,-1.7938,-5.5825,10.07242355429184,-21.849589850715837,-0.052690836008143706,4.1710000000020955
-0.3866,0.9488,0.1704,0.2351,0.2596,0.283,-0.2887,-1.3038,-5.74,10.08042408083427,-21.85042927234903,-0.050917883948715034,4.180999999996857
-0.3866,0.9488,0.1704,0.2351,0.2596,0.283,-0.2275,-1.295,-5.7663,10.092865094556666,-21.851102815508224,-0.04907554140992628,4.190999999991618
-0.3873,0.9533,0.1709,0.2355,0.2591,0.2805,-0.2275,-1.295,-5.7663,10.101566479834075,-21.836965928250038,-0.047918204147146225,4.195999999981723
-0.3897,0.9545,0.1674,0.2355,0.2591,0.2805,-0.28,-1.785,-5.8012,10.089113877104031,-21.856355787103677,-0.04919794025731288,4.200999999986379
-0.3843,0.9527,0.167,0.2355,0.2591,0.2805,-0.2013,-1.7763,-5.88,10.068173258508725,-21.797166614747063,-0.05213766715793578,4.210999999995693
-0.3845,0.9493,0.1724,0.2352,0.259,0.2928,-0.4288,-0.9887,-5.7663,10.081099477682029,-21.779334858863695,-0.04943352364067625,4.215999999985797
-0.3845,0.9493,0.1724,0.2352,0.259,0.2928,-0.4288,-0.9887,-5.7663,10.093283047365292,-21.76610777985888,-0.04457365470020377,4.225999999995111
-0.387,0.9521,0.1715,0.236,0.2574,0.278,-0.2975,-1.2337,-5.6087,10.101025197840922,-21.77200993997312,-0.042187884454218054,4.235999999989872
-0.3879,0.9542,0.174,0.236,0.2574,0.278,-0.3325,-1.8725,-5.8888,10.108993406159671,-21.780213207630855,-0.043958048761717376,4.2409999999945285
-0.3881,0.954,0.1624,0.236,0.2574,0.278,-0.4288,-1.3212,-5.6788,10.083248343845083,-21.795253449384102,-0.042444684574662724,4.25099999998929
-0.3848,0.9506,0.1721,0.2355,0.2597,0.2839,-0.4288,-1.3212,-5.6788,10.093511135411951,-21.77937861654211,-0.040946454029478614,4.260999999984051
-0.3848,0.9479,0.1698,0.2355,0.2597,0.2839,-0.7175,-1.61,-5.6613,10.109658667249485,-21.779721205725735,-0.04142965764001519,4.265999999988708
-0.3848,0.9479,0.1698,0.2356,0.2578,0.2773,-0.1925,-1.6888,-5.845,10.116548273922767,-21.78014273056092,-0.043580817366004304,4.275999999998021
-0.389,0.953,0.1682,0.2356,0.2578,0.2773,-0.1925,-1.6888,-5.7137,10.100556046908414,-21.807196044896127,-0.0457104654910003,4.285999999992782
-0.3886,0.9511,0.1691,0.2356,0.2578,0.2773,-0.2537,-1.4875,-5.7137,10.09860439276596,-21.8314432185617,-0.045539653986356926,4.290999999997439
-0.3831,0.9484,0.1696,0.2355,0.2582,0.2741,-0.1925,-1.5488,-5.7488,10.10461434898678,-21.794937539607833,-0.04567398559532625,4.295999999987544
-0.3847,0.9525,0.1724,0.2355,0.2582,0.2741,-0.4462,-0.91,-5.6438,10.115855223837432,-21.772713617875525,-0.04007258203458164,4.305999999996857
-0.3847,0.9525,0.1568,0.235,0.2593,0.2764,-0.4462,-0.91,-5.6438,10.060072987091548,-21.76453889483927,-0.034527192516930955,4.315999999991618
-0.3878,0.9525,0.1674,0.235,0.2593,0.2764,-0.0263,-1.3563,-6.055,10.036587680033142,-21.797967055874214,-0.033455626892142126,4.325999999986379
-0.3897,0.9543,0.167,0.235,0.259,0.273,-0.21,-1.2775,-5.845,10.02152525913787,-21.832206259865483,-0.032367863772519226,4.330999999991036
-0.3859,0.9527,0.1674,0.2367,0.259,0.273,-0.84,-1.3038,-5.3812,10.0036448687723,-21.829253813303005,-0.0314211632842138,4.335999999995693
-0.3873,0.9515,0.1685,0.2367,0.259,0.273,-0.84,-1.3038,-5.3812,10.016051377847415,-21.82967888717354,-0.03048392980260466,4.340999999985797
-0.387,0.9544,0.1696,0.2352,0.2585,0.2778,-0.63,-1.5488,-5.3812,10.028598442812825,-21.827324524815985,-0.0319482749562263,4.355999999999767
-0.387,0.9544,0.1696,0.2352,0.2585,0.2778,-0.4812,-1.7062,-5.8275,10.033471382305708,-21.808830891713026,-0.03299765035395499,4.360999999989872
-0.3866,0.9532,0.1676,0.2339,0.2596,0.2815,-0.3413,-1.2337,-5.32,10.031889938459816,-21.80575380750965,-0.03072764014860864,4.370999999999185
-0.3867,0.952,0.1686,0.2339,0.2596,0.2815,-0.3413,-1.2337,-5.32,10.032177130949337,-21.805247897304664,-0.02848033004813888,4.380999999993946
-0.3859,0.9503,0.1706,0.2339,0.2596,0.2815,0.0437,-1.26,-5.3113,10.074534656659253,-21.803411402691648,-0.02735569489931957,4.385999999984051
-0.3848,0.9537,0.1686,0.2362,0.2594,0.2781,-0.1138,-1.4438,-5.8187,10.064592633481567,-21.764950790985296,-0.027222094250456717,4.395999999993364
-0.3848,0.9537,0.1669,0.2362,0.2594,0.2781,-0.7788,-1.3212,-6.0637,10.02434007057732,-21.72962677504035,-0.026412981459014693,4.400999999983469
-0.3849,0.9529,0.1669,0.2356,0.2578,0.279,-0.7788,-1.3212,-6.0637,9.998190391897927,-21.716449295597837,-0.025075067943424508,4.410999999992782
-0.388,0.9509,0.1654,0.2356,0.2578,0.279,-0.8838,-1.33,-5.845,9.953652980683081,-21.77137340067413,-0.024330985413530813,4.415999999997439
-0.3869,0.9512,0.1736,0.2356,0.2578,0.279,-0.6037,-1.1638,-5.7925,10.027958679329656,-21.781436545767576,-0.02145563186077435,4.4259999999922
-0.3872,0.9508,0.1682,0.2358,0.2578,0.2805,-0.315,-1.715,-5.775,10.028163622352324,-21.799798516755803,-0.022653493693482026,4.430999999996857
-0.3862,0.9542,0.1695,0.2358,0.2578,0.2805,-0.315,-1.715,-5.775,10.030399399747477,-21.78070924093942,-0.025816762313127125,4.44299999998475
-0.3862,0.9542,0.1695,0.2363,0.2585,0.2766,-0.2362,-1.6013,-5.985,10.035321141459209,-21.761355599853097,-0.027257800991578363,4.452999999994063
-0.3839,0.9512,0.1683,0.2363,0.2585,0.2766,-0.0962,-1.05,-5.88,10.034985423168536,-21.733754883695273,-0.025105891129912315,4.457999999998719
-0.385,0.9529,0.1692,0.2363,0.2585,0.2766,-0.0962,-1.05,-5.8975,10.042183449002543,-21.720557312895014,-0.02109616852058224,4.467999999993481
-0.3859,0.9528,0.1706,0.235,0.2575,0.2751,-0.3588,-1.19,-5.8975,10.043161649194339,-21.725564501659875,-0.018512543136619382,4.477999999988242
-0.3863,0.9529,0.1679,0.235,0.2575,0.2751,-0.5075,-1.365,-6.0287,10.03700087306241,-21.74015612685703,-0.01800733585495509,4.482999999992899
-0.3863,0.9529,0.1693,0.235,0.2591,0.2842,-0.2713,-1.7587,-5.8275,10.040303376332586,-21.745653415062797,-0.021084728794699054,4.49299999998766
-0.3846,0.9537,0.1693,0.235,0.2591,0.2842,-0.2713,-1.7587,-5.8275,10.042586278784507,-21.71968069362545,-0.02250261465826894,4.497999999992317
-0.3855,0.9518,0.1706,0.2358,0.2583,0.2742,-0.1663,-1.4088,-5.81,10.062575100790353,-21.724168968111016,-0.022071044811794453,4.507999999987078
-0.3861,0.9543,0.1728,0.2358,0.2583,0.2742,0.0175,-1.4525,-5.9325,10.118500134795827,-21.718770814622292,-0.02196337751378179,4.5129999999917345
-0.389,0.9512,0.1709,0.2358,0.2583,0.2742,-0.3762,-1.1638,-6.1687,10.119055575985179,-21.807352917722895,-0.01911170003619269,4.523000000001048
-0.3852,0.9514,0.1657,0.2348,0.2592,0.278,-0.3762,-1.1638,-6.1687,10.117073031328914,-21.780922068818505,-0.01628853933720961,4.532999999995809
-0.3852,0.9514,0.1657,0.2348,0.2592,0.278,-0.3325,-1.085,-5.74,10.108972389695271,-21.77234790523087,-0.0144195720922486,4.538000000000466
-0.3842,0.9529,0.1704,0.2356,0.257,0.279,-0.1838,-1.4963,-5.53,10.113579832203325,-21.759826010364126,-0.014935082670020515,4.547999999980675
-0.385,0.9509,0.1707,0.2356,0.257,0.279,-0.2275,-1.6975,-6.0462,10.12138603978948,-21.747452079177524,-0.016111524994555055,4.552999999985332
-0.3861,0.9515,0.1668,0.2356,0.257,0.279,-0.2275,-1.6975,-6.0462,10.099436858232322,-21.7622732123954,-0.01860199604707899,4.562999999994645
-0.3835,0.9524,0.1723,0.2352,0.2582,0.2736,-0.35,-1.1812,-6.0113,10.102156239664517,-21.70751854205473,-0.015956192387896802,4.572999999989406
-0.3835,0.9504,0.1715,0.2352,0.2582,0.2736,-0.5775,-1.1113,-5.7225,10.124134376034176,-21.695980843772876,-0.014220733612550166,4.577999999994063
-0.3902,0.9504,0.1715,0.2368,0.2601,0.2782,-0.035,-1.2775,-5.7137,10.150313073232791,-21.765468695669743,-0.01257211257721383,4.587999999988824
-0.3873,0.9533,0.1732,0.2368,0.2601,0.2782,-0.035,-1.2775,-5.7137,10.187054790296829,-21.770614865906914,-0.011693184600740215,4.592999999993481
-0.3858,0.9526,0.1674,0.2368,0.2601,0.2782,-0.5075,-1.645,-5.8362,10.160064482496962,-21.76344743179543,-0.013708089056718241,4.603000000002794
-0.3888,0.9506,0.1706,0.2346,0.2594,0.2731,-0.4725,-1.4525,-6.3525,10.161414391695224,-21.8431206952699,-0.01379709446570362,4.612999999983003
-0.3851,0.9535,0.175,0.2346,0.2594,0.2731,-0.3325,-1.0675,-6.0725,10.169559322448363,-21.772755406314705,-0.011866416669376996,4.61799999998766
-0.3851,0.9535,0.175,0.2363,0.257,0.2729,-0.3325,-1.0675,-6.0725,10.177426198468567,-21.730221267644744,-0.008162338804561513,4.627999999982421
-0.3855,0.9525,0.1656,0.2363,0.257,0.2729,-0.3325,-1.2775,-5.845,10.166684026105765,-21.732934816681478,-0.00732750856581442,4.632999999987078
-0.3869,0.9537,0.1696,0.2363,0.257,0.2729,-0.245,-1.3563,-5.7575,10.157605577024253,-21.74298048405935,-0.006527939779479863,4.642999999996391
-0.3866,0.9531,0.1727,0.2365,0.257,0.2726,-0.245,-1.3563,-5.8625,10.169952083421938,-21.747647851607645,-0.006099513532403756,4.647999999986496
-0.3879,0.952,0.1662,0.2365,0.257,0.2726,-0.1925,-1.26,-5.8625,10.130109468375341,-21.785254170885604,-0.004358854695515411,4.657999999995809
-0.3879,0.9528,0.1715,0.2364,0.2586,0.2737,-0.315,-1.1375,-5.8275,10.133805211079968,-21.799655274786268,-0.0014228524500755025,4.66799999999057
-0.3861,0.9528,0.1715,0.2364,0.2586,0.2737,-0.4025,-1.645,-5.7925,10.136147649423295,-21.784220290450744,-0.0035404602244579458,4.677999999985332
-0.3866,0.9532,0.1695,0.236,0.2584,0.2755,-0.4025,-1.645,-5.7925,10.134369455952802,-21.779711379944345,-0.004570973773206081,4.682999999989988
-0.3871,0.9537,0.1722,0.236,0.2584,0.2755,-0.2975,-1.89,-5.6087,10.140986045924356,-21.778708254906178,-0.009082600333086574,4.69299999998475
-0.385,0.95,0.1709,0.236,0.2584,0.2755,-0.315,-1.505,-5.5563,10.143854336178256,-21.774630357467604,-0.009364692480103014,4.697999999989406
-0.384,0.9506,0.1671,0.2364,0.2582,0.2851,-0.2537,-1.8725,-5.5037,10.126023257985773,-21.768387966842216,-0.013655131859384984,4.707999999998719
-0.384,0.9506,0.1671,0.2364,0.2582,0.2851,-0.2537,-1.8725,-5.5037,10.110018987273719,-21.76263739396238,-0.01571062368645295,4.712999999988824
-0.3859,0.9536,0.1667,0.2352,0.2582,0.281,-0.49,-1.6363,-5.3463,10.088871510075707,-21.760704094978035,-0.017599223751493635,4.722999999998137
-0.386,0.9514,0.171,0.2352,0.2582,0.281,-0.42,-1.6187,-5.6438,10.093848392115806,-21.76200583724395,-0.019294697812998297,4.732999999992899
-0.3853,0.9529,0.169,0.2352,0.2582,0.281,-0.0525,-1.3563,-5.7225,10.0850197418061,-21.74965413531368,-0.018738603984530106,4.737999999997555
-0.3822,0.9495,0.1717,0.2361,0.2588,0.2786,-0.0525,-1.3563,-5.7225,10.124606677695068,-21.71676375091911,-0.01782492424506529,4.747999999992317
-0.3822,0.952,0.167,0.2361,0.2588,0.2786,-0.49,-1.3913,-6.0988,10.105556141311652,-21.65953544352198,-0.0172668813028136,4.757999999987078
-0.3881,0.952,0.167,0.2374,0.2585,0.2766,-0.5163,-1.4088,-6.3263,10.085396778244359,-21.763163483480653,-0.016887668789593104,4.767999999996391
-0.3881,0.9536,0.1687,0.2374,0.2585,0.2766,-0.5425,-1.4612,-5.9325,10.0775040825649,-21.788918665944003,-0.016874900251388224,4.772999999986496
-0.3863,0.9524,0.1698,0.2374,0.2585,0.2766,-0.5425,-1.4612,-5.9325,10.082164269055925,-21.78158775203806,-0.017018367549165116,4.782999999995809
-0.3852,0.9521,0.1659,0.2362,0.2579,0.2773,-0.7175,-1.2513,-5.8012,10.030915310620534,-21.767559542807707,-0.015965287022851205,4.788000000000466
-0.3833,0.9506,0.1668,0.2362,0.2579,0.2773,-0.07,-1.26,-5.7225,10.012866394413273,-21.742597043325613,-0.014965802304284771,4.79299999999057
-0.3833,0.9506,0.1668,0.2335,0.2583,0.28,-0.5775,-1.1725,-5.9675,10.002363608471946,-21.713514172534055,-0.01227023057887086,4.802999999999884
-0.3884,0.9533,0.1646,0.2335,0.2583,0.28,-0.5775,-1.1725,-5.9675,9.96664801493258,-21.770690382613797,-0.009601614578120669,4.812999999980093
-0.3854,0.9533,0.1678,0.2335,0.2583,0.2788,-0.4288,-0.9625,-6.0462,9.967584530671873,-21.747437001647942,-0.00719314158018582,4.81799999998475
-0.3842,0.9514,0.1693,0.2355,0.2591,0.2788,-0.5337,-1.5137,-5.7488,9.98500905676242,-21.731125097939735,-0.007953176465158791,4.827999999994063
-0.3859,0.9523,0.1687,0.2355,0.2591,0.2788,-0.5337,-1.5137,-5.4862,9.993647296772442,-21.732507554091207,-0.008289627849683947,4.8329999999841675
-0.3833,0.9532,0.173,0.237,0.2587,0.2765,-0.3588,-1.7325,-5.4862,9.996275640154193,-21.723208121154116,-0.011204817873979294,4.842999999993481
-0.3833,0.9532,0.173,0.237,0.2587,0.2765,-0.1838,-1.5313,-5.9938,10.041443482740522,-21.673265112561918,-0.012098975994712382,4.852999999988242
-0.3872,0.9511,0.1693,0.2358,0.2586,0.2801,0.0088,-1.5838,-5.88,10.055599792068893,-21.72634092163094,-0.012740964385475837,4.857999999992899
-0.3865,0.9525,0.1707,0.2358,0.2586,0.2801,0.0088,-1.5838,-5.88,10.084236843964527,-21.74086391747141,-0.013376532892331658,4.862999999997555
-0.3841,0.9528,0.1685,0.2358,0.2586,0.2801,-0.385,-1.4,-5.8362,10.083303623818733,-21.714515882177047,-0.012949103863562184,4.872999999992317
-0.3868,0.9517,0.1656,0.2366,0.2591,0.2702,-0.0175,-1.1375,-5.9412,10.028192776661975,-21.75137792351185,-0.009927199126441808,4.882999999987078
-0.3868,0.9517,0.1656,0.2366,0.2591,0.2702,-0.2887,-0.7788,-5.9062,10.016655990476742,-21.774492650910457,-0.0033843834385529634,4.892999999981839
-0.387,0.9539,0.1753,0.2361,0.2585,0.2773,-0.2887,-0.7788,-5.9062,10.045736215269443,-21.76745543211961,-0.00012876775116692563,4.897999999986496
-0.3863,0.9529,0.1676,0.2361,0.2585,0.2773,-0.49,-1.365,-5.6788,10.03807855532247,-21.766971958581028,0.0005126836269409417,4.907999999995809
-0.3858,0.9529,0.1726,0.2361,0.2585,0.2773,-0.5425,-1.7237,-5.74,10.072078086689785,-21.75594632507551,-0.0009479263564479791,4.912999999985914
-0.3852,0.9512,0.1654,0.2344,0.2586,0.2752,-0.07,-1.295,-5.7312,10.024390488444093,-21.754714602304308,0.0003947166083581059,4.922999999995227
-0.386,0.9518,0.167,0.2344,0.2586,0.2752,-0.07,-1.295,-5.7312,10.007697416025298,-21.759315923372426,0.0010573512928953273,4.927999999999884
-0.386,0.9518,0.167,0.2355,0.2578,0.2778,-0.175,-1.2687,-5.8625,9.998636536995605,-21.76383801476216,0.002640311479131571,4.937999999994645
-0.3858,0.9552,0.1735,0.2355,0.2578,0.2778,-0.3237,-1.2513,-5.9237,10.011158635028867,-21.733165147045174,0.004379702063415209,4.947999999989406
-0.3915,0.9552,0.1685,0.2355,0.2578,0.2778,-0.14,-1.2687,-5.9062,10.009870273834624,-21.814274478722115,0.005132671893523104,4.952999999994063
-0.3856,0.9525,0.1732,0.2355,0.259,0.2865,-0.14,-1.2687,-5.9062,10.064803973432435,-21.782469778859546,0.0066748788737530694,4.962999999988824
-0.3868,0.9493,0.1675,0.2355,0.259,0.2865,-0.42,-1.3825,-6.125,10.061918946695501,-21.81606964589422,0.006841586935232962,4.967999999993481
-0.3868,0.9493,0.1675,0.2367,0.259,0.2768,-0.1312,-1.6275,-5.845,10.051333573365827,-21.83028981613511,0.004814584766906674,4.977999999988242
-0.3876,0.9525,0.1705,0.2367,0.259,0.2768,-0.42,-1.8288,-5.8187,10.056155641006942,-21.829972286157144,0.0008149826155575255,4.987999999997555
-0.3891,0.952,0.1696,0.2367,0.2581,0.2738,-0.42,-1.8288,-5.8187,10.058395417877694,-21.85543682199028,-0.0011688953624380905,4.993000000002212
-0.3884,0.9518,0.1679,0.2362,0.2581,0.2738,-0.7088,-1.2075,-6.055,10.044616116948548,-21.87021868364124,0.0010422072900340847,5.002999999996973
-0.3859,0.9481,0.1706,0.2362,0.2581,0.2738,-0.7088,-1.225,-5.8975,10.084271582170565,-21.85738103893051,0.003057948916072298,5.0129999999917345
-0.3894,0.9483,0.1672,0.2366,0.2589,0.2696,-0.7088,-1.8375,-6.1425,10.062682411013277,-21.92485609892384,0.0010085762809068886,5.017999999981839
-0.3894,0.9483,0.1672,0.2366,0.2589,0.2696,-0.2362,-1.8375,-6.1425,10.055316388095749,-21.963987387975106,-0.0030390957856624755,5.027999999991152
-0.3859,0.952,0.1721,0.2354,0.2593,0.2799,-0.3063,-2.0213,-6.1337,10.066435785779886,-21.873334326710776,-0.008865911124737445,5.037999999985914
-0.3873,0.9537,0.1695,0.2354,0.2593,0.2799,-0.2275,-1.68,-5.8538,10.067844283216251,-21.849062081945334,-0.010016420164644137,5.04299999999057
-0.3855,0.9523,0.175,0.2354,0.2593,0.2799,-0.2275,-1.68,-5.8538,10.110301122072736,-21.80674674609101,-0.011155424114151762,5.047999999995227
-0.3842,0.9507,0.1734,0.2349,0.2587,0.2694,-0.595,-1.3038,-5.5738,10.152202515313844,-21.789814565096233,-0.00979782617366301,5.057999999989988
-0.3842,0.9507,0.1674,0.2349,0.2587,0.2694,-0.1838,-1.9162,-5.8275,10.12641794312037,-21.764477955340983,-0.014516564216412297,5.0679999999993015
-0.3866,0.9528,0.1674,0.236,0.2586,0.2766,-0.385,-2.1,-5.9412,10.123691307409146,-21.77089178668833,-0.017689566727338457,5.073000000003958
-0.3849,0.9529,0.1695,0.236,0.2586,0.2766,-0.385,-2.1,-5.9412,10.123058441795374,-21.74202913370568,-0.024149007346931362,5.0829999999841675
-0.3887,0.9517,0.168,0.236,0.2586,0.2766,-0.315,-1.9162,-6.0025,10.117437491998064,-21.80412896894245,-0.028724233577947962,5.092999999993481
-0.3883,0.9515,0.1676,0.2358,0.2582,0.2816,-0.2187,-1.2075,-5.5388,10.100868127595428,-21.81395940918441,-0.02733728439434487,5.097999999983585
-0.3858,0.9512,0.1693,0.2358,0.2582,0.2816,0.0175,-1.0325,-5.6175,10.09844193801031,-21.80626789197218,-0.02313199784673954,5.107999999992899
-0.3858,0.9512,0.1693,0.2374,0.2586,0.2786,0.0175,-1.0325,-5.6175,10.096690612827688,-21.799854686867455,-0.020934721016441206,5.112999999997555
-0.3852,0.954,0.1671,0.2374,0.2586,0.2786,-0.14,-1.4525,-5.8275,10.066683968518038,-21.767553119780384,-0.020951460106158355,5.122999999992317
-0.3854,0.9537,0.1681,0.2374,0.2586,0.2786,-0.3938,-1.6538,-5.7488,10.064904045956457,-21.751101383274754,-0.021851423656130055,5.127999999996973
-0.3873,0.9513,0.1696,0.2358,0.2597,0.2766,-0.735,-1.4787,-5.6875,10.076644070029921,-21.77023265127228,-0.022118375719314434,5.1379999999917345
-0.3868,0.9516,0.1676,0.2358,0.2597,0.2766,-0.735,-1.4787,-5.6875,10.05303809973178,-21.780116410247327,-0.022382658261866965,5.147999999986496
-0.3868,0.9672,0.1704,0.2359,0.2596,0.2743,-0.4638,-1.6625,-5.985,10.047672786223993,-21.67772373292178,-0.023311374830321686,5.152999999991152
-0.3867,0.9533,0.1704,0.2359,0.2596,0.2743,-0.2625,-1.5575,-5.985,10.055942928300926,-21.71021769892649,-0.02434384738135547,5.162999999985914
-0.388,0.9531,0.1648,0.2347,0.2595,0.2776,-0.315,-1.7763,-5.7663,10.043597623873419,-21.748303583870324,-0.02753211521073794,5.172999999995227
-0.3866,0.9523,0.169,0.2347,0.2595,0.2776,-0.315,-1.7763,-5.7663,10.04458302011979,-21.75843207258791,-0.030688500356832796,5.182999999989988
-0.3847,0.9515,0.1707,0.2347,0.2595,0.2776,-0.3762,-1.61,-5.6525,10.045628196835592,-21.74740809417741,-0.031274283504095834,5.187999999994645
-0.3875,0.9534,0.1689,0.237,0.2588,0.2831,-0.28,-1.575,-6.1425,10.045660609256512,-21.774418615146903,-0.032400376968301114,5.197999999989406
-0.3875,0.9534,0.1689,0.237,0.2588,0.2831,-0.28,-1.155,-5.9938,10.045690404329264,-21.78804203904972,-0.030716791347351894,5.202999999994063
-0.3867,0.9536,0.1716,0.2375,0.2562,0.277,-0.0613,-1.155,-5.9938,10.082171824162733,-21.776780053965343,-0.027690459735302864,5.212999999988824
-0.3828,0.9513,0.1632,0.2375,0.2562,0.277,-0.5512,-1.5225,-6.2387,10.028317219086253,-21.712165177548975,-0.027873098287040373,5.217999999978929
-0.3865,0.9525,0.1696,0.2375,0.2562,0.277,-0.2013,-1.5925,-5.635,10.03800106876444,-21.723585604131532,-0.02920645360567134,5.227999999988242
-0.3883,0.9525,0.1702,0.2364,0.2582,0.2846,-0.2013,-1.5925,-5.635,10.051296237304646,-21.748956774508883,-0.029720432220365314,5.232999999992899
-0.3883,0.9531,0.1678,0.2364,0.2582,0.2846,-0.4462,-1.6975,-5.7838,10.046479138635474,-21.77934463937088,-0.03207481419677258,5.24299999998766
-0.3872,0.9531,0.1678,0.2354,0.2565,0.2786,-0.595,-1.575,-5.5738,10.035099153190176,-21.78298007601036,-0.033192902356144874,5.252999999996973
-0.386,0.9512,0.169,0.2354,0.2565,0.2786,-0.8487,-1.0588,-5.6788,10.047935109542584,-21.782153517608407,-0.03102520148621653,5.257999999987078
-0.3842,0.9529,0.1701,0.2354,0.2565,0.2786,-0.8487,-1.0588,-5.6788,10.071703785331243,-21.754608316983227,-0.027043405767934976,5.267999999996391
-0.3859,0.9509,0.1674,0.2354,0.2586,0.2826,-0.455,-1.0938,-5.7925,10.064693638303574,-21.763049983573072,-0.025110449858707282,5.273000000001048
-0.3878,0.9535,0.1696,0.2354,0.2586,0.2826,-0.385,-1.365,-5.7925,10.065049199596427,-21.779242468368828,-0.024219181661387132,5.282999999981257
-0.3878,0.9535,0.1696,0.237,0.258,0.2729,-0.4025,-1.4525,-6.02,10.065743414761595,-21.795494955157704,-0.02409003299487854,5.287999999985914
-0.3864,0.9508,0.1695,0.237,0.258,0.2729,-0.4025,-1.4525,-6.02,10.067158282973145,-21.799328863194162,-0.024075218965140314,5.297999999995227
-0.3874,0.954,0.1673,0.237,0.258,0.2729,-0.3413,-1.5313,-6.195,10.064041852829353,-21.79971806853645,-0.02484067307496179,5.307999999989988
-0.3859,0.9528,0.1685,0.2359,0.2582,0.2829,-0.2362,-1.295,-5.8888,10.059954280144778,-21.781728886446185,-0.023259102642970566,5.3179999999993015
-0.3856,0.9508,0.1654,0.2359,0.2582,0.2829,0.0263,-1.295,-5.7663,10.005784981666977,-21.781105108104445,-0.022359929767860064,5.322999999989406
-0.3856,0.9521,0.171,0.2366,0.2579,0.2704,0.0263,-1.295,-5.7663,10.055586185070714,-21.76875495498258,-0.020803166768939858,5.332999999998719
-0.3883,0.9521,0.171,0.2366,0.2579,0.2704,-0.595,-1.0063,-5.8625,10.078974918015106,-21.80025262380761,-0.018499488249298736,5.338000000003376
-0.3895,0.952,0.1731,0.2379,0.2569,0.2803,-0.6125,-1.2687,-6.1687,10.12347735395078,-21.854459722085032,-0.01672095966995945,5.347999999983585
-0.3879,0.9506,0.1695,0.2379,0.2569,0.2803,-0.2625,-1.5137,-5.7838,10.122199404599883,-21.86301334679136,-0.01696973322364727,5.352999999988242
-0.4033,0.9714,0.1675,0.2379,0.2569,0.2803,-0.2625,-1.5137,-5.7838,10.089909585003976,-21.966956510952155,-0.01763200219097496,5.362999999983003
-0.408,0.9374,0.1404,0.2362,0.2591,0.2766,-0.9975,-0.735,-4.6463,9.48264778414142,-22.542971834042767,-0.010578518462660351,5.372999999992317
-0.408,0.9374,0.1404,0.2362,0.2591,0.2766,-3.675,-3.71,0.1575,8.742126823445293,-23.175739345343462,-0.02176040143854621,5.377999999996973
-0.3505,0.9873,0.054,0.2334,0.2595,0.2828,-5.915,-11.3225,-8.0063,3.9877377258224573,-20.537644607864035,-0.07051234047724705,5.382999999987078
-0.3406,0.9055,0.3791,0.2334,0.2595,0.2828,-6.16,-11.3225,-8.0063,19.959764615134528,-19.525900943348102,-0.16774630346368744,5.392999999996391
-0.4193,0.9634,0.0881,0.2334,0.2595,0.2828,1.015,-7.945,-12.9062,11.408681300593884,-22.972620057847145,-0.23057067669526005,5.402999999991152
-0.3853,0.9593,0.1145,0.234,0.2594,0.2785,-1.5838,-14.2362,-11.6375,8.883339515057674,-21.913251823978882,-0.3550496863463849,5.413000000000466
-0.3541,0.9337,0.2372,0.234,0.2594,0.2785,-1.5838,-14.2362,-13.8775,11.830399742742504,-20.36486499947777,-0.41489154750746376,5.41799999999057
-0.3547,0.9337,0.2372,0.2338,0.2599,0.2806,-6.755,-20.65,-13.9213,13.925967715633963,-20.229210672853366,-0.6010239682327067,5.427999999985332
-0.4576,0.9426,0.2884,0.2338,0.2599,0.2806,-0.0962,-18.4188,-12.775,14.585224900534225,-24.342681827614577,-0.6791099567787002,5.432999999989988
-0.3294,0.962,0.0798,0.2338,0.2599,0.2806,6.9388,-16.6688,-9.6687,5.92694094089822,-19.889380153857946,-0.8231863134318784,5.44299999998475
-0.3901,0.9406,0.1932,0.2326,0.2612,0.285,6.9388,-16.6688,-9.6687,10.923346297663633,-21.686779031079006,-0.9658219067380659,5.452999999994063
-0.4387,0.9578,0.1732,0.2326,0.2612,0.285,1.1725,-6.5975,-9.275,10.515115253831913,-23.73176336034188,-0.9817444808445092,5.457999999998719
-0.4387,0.9578,0.1732,0.2334,0.2591,0.2822,3.3512,1.715,-4.3575,10.306250413247842,-24.004681800957993,-0.9407948723523732,5.467999999993481
-0.4433,0.9276,0.2628,0.2334,0.2591,0.2822,7.1312,6.16,6.2475,15.169530468711796,-24.638755963123977,-0.8938180917438608,5.472999999998137
-0.332,0.9835,0.0536,0.2334,0.2591,0.282,7.1312,6.16,6.2475,4.537301348226036,-19.1020201987114,-0.8097422471657845,5.482999999992899
-0.3305,0.9631,0.1215,0.233,0.2594,0.282,4.9875,6.9037,3.2725,6.772748942512235,-18.83284062554759,-0.719144531037346,5.49299999998766
-0.3722,0.9338,0.1967,0.233,0.2594,0.282,-2.8087,7.6388,-4.55,10.406451146253074,-19.98269437715038,-0.6670641938351665,5.497999999992317
-0.4466,0.957,0.1634,0.2333,0.261,0.2776,-3.115,9.1525,-6.09,9.880725176876767,-21.879507779226373,-0.555630138251697,5.507999999987078
-0.4466,0.957,0.1634,0.2333,0.261,0.2776,-3.115,9.1525,-6.09,9.740425144084874,-23.014084306121223,-0.49769212997039575,5.5129999999917345
-0.3952,0.9675,0.1378,0.234,0.259,0.2785,-3.1237,13.72,1.715,8.541209391309149,-22.140582338776348,-0.3427335448310105,5.523000000001048
-0.3041,0.9521,0.1632,0.234,0.259,0.2785,-7.0262,11.2262,0.7437,9.57179548468012,-18.125943859728338,-0.2140131657483375,5.532999999995809
-0.3591,0.9274,0.238,0.234,0.259,0.2785,-6.0375,0.8225,-11.5588,13.67038578022517,-20.21822483903038,-0.20072482723047155,5.538000000000466
-0.4092,0.9305,0.2528,0.235,0.2585,0.273,-6.0375,0.8225,-11.5588,14.970112060173385,-22.606487585439627,-0.1875693721302298,5.54299999999057
-0.4092,0.9305,0.2528,0.235,0.2585,0.273,2.0738,-3.6925,-14.0,15.132746199784387,-22.95482566031499,-0.20809576469719177,5.552999999985332
-0.3594,0.9681,0.1182,0.2373,0.2574,0.2776,3.78,3.1937,-11.6025,8.548463243533124,-20.6085424558683,-0.160243513307592,5.562999999994645
-0.4156,0.9573,0.1649,0.2373,0.2574,0.2776,1.54,13.7025,-8.7587,9.352270949824305,-22.574499775812424,-0.08373687147275605,5.56799999998475
-0.404,0.9629,0.1369,0.2373,0.2574,0.2776,0.1312,13.7025,-8.7587,8.932642162487847,-22.561372895132088,0.06690891108149147,5.577999999994063
-0.3026,0.9468,0.1048,0.2375,0.2597,0.2727,-3.815,12.0138,-6.2737,6.904602496887775,-20.284496067556972,0.19933010560095468,5.587999999988824
-0.4089,0.9423,0.2248,0.2375,0.2597,0.2727,-7.6737,8.6012,-15.5925,12.633787155473344,-22.65161512467109,0.29664234833743064,5.597999999998137
-0.4089,0.9423,0.2248,0.2388,0.261,0.276,-7.6737,8.6012,-17.8325,13.32356378395838,-22.866927395941225,0.3433286967502991,5.603000000002794
-0.4977,0.9706,0.1444,0.2388,0.261,0.276,-6.965,4.62,-16.695,9.101963993153024,-26.5658103950151,0.39978707345142067,5.612999999997555
-0.4376,0.9631,0.1534,0.2388,0.261,0.276,-11.2875,11.9525,-1.5838,9.05426806658607,-24.662605697739572,0.4620309094358101,5.61799999998766
-0.3013,0.9747,0.1892,0.2394,0.2621,0.2694,-22.4088,12.53,13.44,10.901329878875295,-17.272639306229117,0.595611263969053,5.627999999982421
-0.398,0.9355,0.1133,0.2394,0.2621,0.2694,-22.4088,12.53,13.44,7.078977388788863,-22.61376528992432,0.6587554832437171,5.632999999987078
-0.398,0.9355,0.3163,0.2393,0.2622,0.2782,-26.215,7.9625,10.885,18.248661059143767,-21.989115059010462,0.7451503421978766,5.642999999996391
-0.3667,0.9112,0.3264,0.2393,0.2622,0.2782,-19.4862,9.31,0.1312,19.635442207461804,-20.939067017960735,0.8227569697532264,5.650999999998021
-0.4069,0.9999,0.1713,0.2393,0.2626,0.2822,-9.5988,12.32,3.36,10.690402195238807,-21.761854143414276,0.9506510636843843,5.660999999992782
-0.3815,0.9389,0.2449,0.2388,0.2626,0.2822,-9.5988,12.32,3.36,14.235130541015245,-21.493875728055034,1.009205384762844,5.665999999982887
-0.4322,0.8916,0.349,0.2388,0.2626,0.2822,-4.6813,5.5825,10.4563,20.032826207939358,-24.12833134783748,1.0685337446798682,5.6759999999922
-0.4749,0.9704,0.1571,0.2366,0.258,0.2823,9.9838,2.275,17.325,10.150596610693537,-25.7152290608724,1.0761864891001482,5.680999999996857
-0.4749,0.9704,0.1571,0.2366,0.258,0.2823,24.7275,3.7275,31.8062,9.23252681896447,-25.783178341417653,1.1164805378824,5.690999999991618
-0.4754,0.9486,0.1971,0.2342,0.2506,0.2753,24.7275,3.7275,31.8062,11.641886227427051,-26.127007817953878,1.1563716462511255,5.701000000000931
-0.4114,0.9166,0.2887,0.2342,0.2506,0.2753,42.3063,0.7788,41.8162,17.349040200445366,-23.236945294023464,1.1557398216169794,5.705999999991036
-0.4441,0.9498,0.2669,0.2342,0.2506,0.2753,68.7575,9.4937,50.8725,15.719286437828211,-24.216878229538942,1.252323717201524,5.716000000000349
-0.4816,0.9462,0.2276,0.2257,0.2371,0.2685,95.8125,16.7388,70.875,13.547623635472881,-26.30200771262416,1.3297343719632664,5.721000000005006
-0.4816,0.9462,0.269,0.2257,0.2371,0.2685,95.8125,16.7388,70.875,15.8462903853093,-26.088372976823972,1.4963048115876645,5.730999999985215
-0.3783,0.9326,0.269,0.2138,0.219,0.2482,118.0113,27.4487,92.3475,16.087686450793484,-21.341936665807495,1.6242896604549184,5.735999999989872
-0.3098,0.9494,0.1546,0.2138,0.219,0.2482,137.6375,27.965,101.325,9.29804560043416,-17.884539521145324,1.8990539273979197,5.745999999984633
-0.2732,0.9557,0.1507,0.2138,0.219,0.2482,153.4837,16.3363,103.11,8.963104607265917,-15.787660226217149,1.9680049050558424,5.75099999998929
-0.2336,0.942,0.0898,0.2014,0.199,0.2234,153.4837,16.3363,103.11,5.468214560185284,-13.884536428654352,2.1242078898690875,5.760999999998603
-0.2437,0.9478,0.068,0.2014,0.199,0.2234,166.2325,1.0588,98.9975,4.1118014360519,-14.379465955484,2.1276015946574907,5.770999999993364
-0.2437,0.9478,0.068,0.1862,0.1781,0.2085,167.2563,-11.0075,86.3538,4.103708000704226,-14.384154855147852,2.0589152855167616,5.775999999998021
-0.2566,1.0179,-0.0637,0.1862,0.1781,0.2085,167.2563,-11.0075,74.3225,-3.5353176282863052,-14.125490785063262,1.9435055464112676,5.785999999992782
-0.1846,1.022,-0.0832,0.1862,0.1781,0.2085,154.8663,-21.385,74.3225,-4.6469675864496205,-10.254222301821734,1.7265126547506493,5.795999999987544
-0.1942,0.9822,-0.1208,0.1738,0.1645,0.1895,139.7462,-24.2725,66.5788,-6.9947944340142145,-11.091056675833697,1.4831034420216125,5.805999999982305
-0.1554,1.004,-0.1976,0.1738,0.1645,0.1895,123.7688,-21.8312,59.85,-11.10115364811471,-8.67243920914842,1.3672847993573443,5.8109999999869615
-0.1554,1.0001,-0.2009,0.1626,0.1526,0.177,123.7688,-21.8312,59.85,-11.356344730349907,-8.662066569270568,1.2526243431197188,5.815999999991618
-0.1495,1.0001,-0.2009,0.1626,0.1526,0.177,106.9075,-18.83,52.745,-11.358381471480346,-8.343238849193675,1.067834763478765,5.825999999986379
-0.1318,1.0061,-0.2339,0.1554,0.1446,0.1649,91.14,-14.07,44.9137,-13.069052521792509,-7.292415377977016,0.9320170794274323,5.835999999995693
-0.146,1.0092,-0.2162,0.1554,0.1446,0.1649,76.8425,-7.6475,38.045,-12.104152304158644,-8.034528437573265,0.8919186154544934,5.841000000000349
-0.141,1.0108,-0.2152,0.1554,0.1446,0.1649,76.8425,-7.6475,38.045,-12.019953035238627,-7.775183630829929,0.8522211362108605,5.845999999990454
-0.1406,1.0066,-0.2019,0.1494,0.1392,0.166,65.7387,-0.2013,33.7837,-11.351780370939085,-7.797601053261038,0.861940115398044,5.860999999989872
-0.1406,1.0066,-0.2019,0.1494,0.1392,0.166,58.1613,4.9525,29.3475,-11.34184265040566,-7.7981569102573,0.8849124211234857,5.8659999999945285
-0.1416,1.0033,-0.188,0.1428,0.1345,0.1526,54.7487,4.3837,25.8213,-10.626090120448412,-7.894577376138392,0.933615590582101,5.87599999998929
-0.1543,1.002,-0.1645,0.1428,0.1345,0.1526,54.7487,4.3837,25.8213,-9.346394249788634,-8.61730545390996,0.9530555815530798,5.880999999993946
-0.1536,1.0052,-0.1509,0.1428,0.1345,0.1526,56.2188,3.1675,25.095,-8.551502249676556,-8.593845231097616,0.9890369394137066,5.890999999988708
-0.1553,1.0008,-0.1576,0.1382,0.1298,0.147,62.09,1.1725,27.37,-8.942840542544015,-8.711275527187558,0.9920272768815657,5.895999999993364
-0.1553,0.9973,-0.1632,0.1382,0.1298,0.147,69.5975,-1.3563,30.625,-9.288670914496418,-8.735976279020418,0.9828332978134264,5.9060000000026776
-0.1565,0.9973,-0.1632,0.1314,0.1241,0.1325,69.5975,-1.3563,30.625,-9.293544143421782,-8.80130367212076,0.9733681116845735,5.910999999992782
-0.1562,0.9956,-0.1989,0.1314,0.1241,0.1325,76.9212,-1.3038,34.1162,-11.272157946586116,-8.747740653714036,0.9648804742688882,5.9210000000020955
-0.1379,0.9944,-0.2433,0.1314,0.1241,0.1325,81.7862,2.3975,37.3888,-13.71869082170961,-7.69631293161913,0.9931205831512149,5.930999999982305
-0.1112,0.9932,-0.268,0.1226,0.1207,0.1281,82.775,4.6463,39.025,-15.08433151316271,-6.203044765856516,1.0132653941977132,5.9359999999869615
-0.0966,0.9894,-0.2955,0.1226,0.1207,0.1281,82.775,4.6463,39.025,-16.610730670196325,-5.363446980174706,1.063284774011757,5.945999999996275
-0.0966,0.9894,-0.2955,0.1176,0.115,0.1095,80.78,6.6413,39.2438,-16.62886594130359,-5.3449692151712735,1.132554459929781,5.955999999991036
-0.0902,0.9858,-0.3167,0.1176,0.115,0.1095,77.4112,8.7587,37.8088,-17.795238191627476,-4.986986623312022,1.171661312227452,5.960999999995693
-0.0721,0.9897,-0.343,0.1176,0.115,0.089,77.4112,8.7587,35.42,-19.098015075677008,-3.9627509455221293,1.2608094927523374,5.970999999990454
-0.0588,0.9847,-0.3631,0.1084,0.111,0.0949,71.1637,10.7187,35.42,-20.225277348102047,-3.2247735686828087,1.3083357947308185,5.975999999995111
-0.047,0.9845,-0.4017,0.1084,0.111,0.0949,61.9325,14.1925,32.3225,-22.16551367159079,-2.5488550357946176,1.449911850627548,5.986000000004424
-0.0234,0.9832,-0.4115,0.1047,0.109,0.0926,49.7438,18.5675,28.3675,-22.700168197335596,-1.2948166792356128,1.5343986884872862,5.990999999979977
-0.0234,0.9832,-0.4115,0.1047,0.109,0.0926,49.7438,18.5675,28.3675,-22.710628720094057,-1.2587662545547924,1.717026615486789,6.00099999998929
-0.0209,0.9776,-0.4168,0.1003,0.1064,0.0766,36.82,22.295,22.96,-23.081027406082494,-1.1311355923189925,1.9347305129088779,6.010999999984051
-0.0373,0.9754,-0.4198,0.1003,0.1064,0.0766,24.8587,25.1125,17.5963,-23.278609037799686,-1.9750542797404844,2.04676691475215,6.015999999988708
-0.0434,0.9756,-0.3906,0.1003,0.1064,0.0766,14.6825,27.2738,13.3263,-21.910533293256478,-2.345138869541684,2.310463529569277,6.025999999998021
-0.0299,0.9731,-0.3895,0.0962,0.1064,0.0756,14.6825,27.2738,13.3263,-21.820582116789495,-1.6700082422926479,2.429441035842395,6.030999999988126
-0.0299,0.9731,-0.3895,0.0962,0.1064,0.0756,6.6062,27.965,10.2638,-21.81535494882411,-1.6361497340164655,2.6961537894549923,6.040999999997439
-0.0257,0.9701,-0.3554,0.0963,0.1029,0.0782,0.6562,25.1737,6.3787,-20.95786517622987,-1.441461062271592,2.9325655451224693,6.0509999999922
-0.0215,0.9709,-0.3462,0.0963,0.1029,0.0782,-3.78,19.04,1.925,-19.927115164467043,-1.2244568747525786,3.0045647216156106,6.055999999996857
-0.0177,0.9701,-0.3308,0.0963,0.1029,0.0782,-3.78,19.04,1.925,-19.07800731569083,-1.0175296727990182,3.1771687379932927,6.065999999991618
-0.028,0.97,-0.3329,0.0941,0.1048,0.0798,-6.23,11.4975,-2.5638,-18.961827731656477,-1.4221820233388864,3.2733759642463154,6.075999999986379
-0.0437,0.9752,-0.3204,0.0941,0.1048,0.0798,-6.8688,3.5,-7.0175,-18.291019698329688,-2.047046125198382,3.289445868349304,6.085999999995693
-0.0437,0.9752,-0.3204,0.0956,0.1054,0.0808,-6.6238,-2.2662,-9.0913,-18.202054504246487,-2.354144246367328,3.2524105515240063,6.090999999985797
-0.0526,0.9792,-0.3338,0.0956,0.1054,0.0808,-6.6238,-2.2662,-9.0913,-18.738075232397957,-2.7915684375592362,3.2157455878549097,6.095999999990454
-0.0368,0.9773,-0.3396,0.0956,0.1054,0.0808,-6.8075,-4.2263,-8.96,-19.10477993690168,-2.203190801424925,3.1559014256505757,6.105999999999767
-0.0271,0.9715,-0.3392,0.0954,0.1058,0.0823,-6.755,-5.9412,-9.8787,-19.227478673674714,-1.6357918438319006,3.079678195117468,6.1159999999945285
-0.0535,0.9805,-0.3317,0.0954,0.1058,0.0823,-4.515,-6.4837,-11.3488,-18.79483585166698,-2.7678932514335255,3.0238639299929937,6.120999999999185
-0.0535,0.9805,-0.3317,0.0958,0.1037,0.071,-5.9588,-6.4837,-11.3488,-18.70634122823565,-2.9312409159806077,2.943590324492086,6.1309999999793945
-0.0645,0.9828,-0.3215,0.0958,0.1037,0.071,-4.8913,-4.0338,-8.7325,-18.22148369323498,-3.4213798452739232,2.90126394308516,6.135999999984051
-0.0533,0.9797,-0.3351,0.0958,0.1037,0.0839,-2.8525,-1.2862,-5.5213,-18.693104875484124,-3.377012463557576,2.873671587355631,6.145999999993364
-0.0392,0.9777,-0.3422,0.0964,0.1051,0.0839,-2.8525,-1.2862,-5.5213,-19.118926622000775,-3.2639152641876783,2.846355155181331,6.155999999988126
-0.0295,0.9749,-0.349,0.0964,0.1051,0.0839,-2.9838,-1.855,-5.6613,-19.53686320788278,-2.944725053960826,2.815786185477557,6.160999999992782
-0.0265,0.9778,-0.3453,0.0969,0.1058,0.0894,-4.1388,-3.115,-7.9363,-19.46832434293828,-1.8847955923809887,2.7709434873315217,6.170999999987544
-0.0265,0.9778,-0.3453,0.0969,0.1058,0.0894,-5.5563,-3.71,-11.2437,-19.4530858725595,-1.525544011589099,2.731946384297694,6.1759999999922
-0.0343,0.9792,-0.3553,0.0979,0.1058,0.0777,-5.5563,-3.71,-11.2437,-19.863970381233347,-1.8331497910950783,2.682051584133692,6.186000000001513
-0.0392,0.9792,-0.3549,0.0979,0.1058,0.0777,-9.135,-4.3137,-13.7375,-19.91648738318835,-2.1208377568183887,2.6409550851706083,6.190999999991618
-0.0234,0.9775,-0.3541,0.0979,0.1058,0.0777,-13.545,-3.8675,-16.2138,-19.91320111775355,-1.3598493021665692,2.5904109480315456,6.200999999986379
-0.0271,0.979,-0.3497,0.0996,0.1074,0.085,-18.9088,-4.3663,-19.53,-19.669911696785558,-1.4844295942045165,2.535434132224154,6.210999999995693
-0.0271,0.979,-0.3497,0.0996,0.1074,0.085,-18.9088,-4.3663,-19.53,-19.65746146490242,-1.4926734887730377,2.4810070846171426,6.220999999990454
-0.0348,0.981,-0.3307,0.1039,0.1093,0.0893,-23.5812,-5.6613,-23.0737,-18.671684465020704,-1.9021038118970757,2.435250410601463,6.225999999995111
-0.0464,0.9834,-0.3247,0.1039,0.1093,0.0893,-26.8363,-7.2013,-25.6987,-18.286783642846547,-2.5342048166819175,2.3537587002253817,6.235999999989872
-0.0576,0.9872,-0.324,0.1039,0.1093,0.0893,-29.1375,-8.0588,-27.5538,-18.173812966298193,-3.1454687368364764,2.2974068850425673,6.2409999999945285
-0.0547,0.9866,-0.3192,0.108,0.1102,0.1005,-29.1375,-8.0588,-27.5538,-17.93647847712134,-3.0250391203465496,2.2088043598310203,6.251000000003842
-0.0654,0.987,-0.3173,0.108,0.1102,0.1005,-32.445,-7.875,-28.4375,-17.82499507716846,-3.585204299538005,2.1548118981458506,6.255999999993946
-0.0654,0.987,-0.3173,0.1125,0.1133,0.0983,-35.1838,-8.5225,-29.68,-17.82161663772368,-3.6085755671252406,2.0630446929011774,6.265999999988708
-0.0674,0.9895,-0.3053,0.1125,0.1133,0.0983,-38.0975,-8.5487,-30.66,-17.164486367499293,-3.7195918768150564,2.0071750127893466,6.270999999993364
-0.072,0.9892,-0.3016,0.1125,0.1133,0.0983,-38.0975,-8.5487,-30.66,-16.961469423168218,-3.9725954357334747,1.9166247963983745,6.280999999988126
-0.0723,0.9902,-0.2905,0.1154,0.1132,0.1062,-40.46,-8.1287,-31.57,-16.365245048778878,-4.006451506720851,1.8311380820726249,6.290999999997439
-0.0825,0.9906,-0.2797,0.1154,0.1132,0.1062,-42.9712,-9.0125,-33.53,-15.780960093742106,-4.562631656904121,1.7752916581761826,6.295999999987544
-0.0825,0.9906,-0.2797,0.1203,0.117,0.1142,-42.9712,-9.3013,-35.2625,-15.767560093787132,-4.581774786286578,1.6796095352218436,6.305999999996857
-0.0897,0.9948,-0.2728,0.1203,0.117,0.1142,-44.2837,-9.3013,-35.2625,-15.344642946323594,-4.957271623422387,1.5848842336104498,6.315999999991618
-0.0989,0.9944,-0.2546,0.1203,0.117,0.1182,-43.7762,-8.5837,-35.945,-14.383299933570378,-5.486085218486456,1.5336229080913648,6.320999999996275
-0.1118,0.9992,-0.2541,0.1257,0.1214,0.1182,-43.295,-6.9913,-35.14,-14.270695647461872,-6.165986550599859,1.4632264727392956,6.330999999991036
-0.1166,1.0022,-0.2408,0.1257,0.1214,0.1182,-43.295,-6.9913,-32.9,-13.527742993127928,-6.44400191239138,1.4210641049163866,6.335999999981141
-0.1214,0.9992,-0.2299,0.1294,0.1238,0.1303,-42.0962,-4.5062,-32.3225,-12.970688666289753,-6.7415264335237355,1.3763957475388566,6.345999999990454
-0.1214,0.9992,-0.2299,0.1294,0.1238,0.1303,-40.0925,-3.0975,-30.2575,-12.957666926648887,-6.75215707054937,1.346120203772118,6.355999999985215
-0.1302,1.0027,-0.2118,0.1322,0.1257,0.129,-38.3425,-2.7825,-28.945,-11.953680352782827,-7.220507444296611,1.3259624585781602,6.360999999989872
-0.1324,0.9999,-0.2142,0.1322,0.1257,0.129,-38.3425,-2.7825,-28.945,-12.087705746165081,-7.370973277176505,1.2993097476799054,6.370999999999185
-0.1262,1.0032,-0.2078,0.1322,0.1257,0.129,-36.3475,-3.1325,-27.37,-11.71300284653822,-7.037649267154033,1.277887607069788,6.37599999998929
-0.1222,1.0014,-0.209,0.1374,0.1279,0.134,-34.825,-4.795,-27.6063,-11.786711622527914,-6.821732029653842,1.2317918946680613,6.385999999998603
-0.1222,1.0014,-0.209,0.1374,0.1279,0.134,-34.09,-6.8513,-29.0063,-11.788789157923143,-6.81239659121306,1.1926368725463867,6.39100000000326
-0.1257,1.0061,-0.2113,0.1406,0.13,0.1414,-34.09,-6.8513,-29.0063,-11.85874107409278,-6.964528527152182,1.1270362976271473,6.400999999983469
-0.1293,1.0063,-0.2106,0.1406,0.13,0.1414,-34.1775,-7.9187,-30.2138,-11.821449626420153,-7.1603198825141074,1.0515244682910463,6.410999999992782
-0.1422,1.0067,-0.2207,0.1406,0.13,0.1414,-36.085,-6.825,-31.1588,-12.350579206810636,-7.829873351337551,1.0143023055109903,6.415999999982887
-0.1402,1.0092,-0.2171,0.1446,0.1338,0.1447,-38.5525,-5.3637,-31.3775,-12.145861596965693,-7.7378428819338625,0.9652123161196082,6.4259999999922
-0.1421,1.0069,-0.197,0.1446,0.1338,0.1447,-38.5525,-5.3637,-31.3775,-11.097537503552411,-7.879848153463025,0.91661322662214,6.436000000001513
-0.1421,1.0069,-0.197,0.147,0.1382,0.1524,-41.5975,-3.3863,-32.3925,-11.070733549583151,-7.885122905403959,0.8977617412250865,6.440999999991618
-0.1562,1.008,-0.1856,0.147,0.1382,0.1524,-43.4263,-1.6275,-32.9875,-10.447323978307029,-8.637815432155064,0.8868255375110115,6.451000000000931
-0.1668,1.0097,-0.1618,0.147,0.1382,0.1524,-44.2225,0.0,-32.3225,-9.1339463883578,-9.241848682816254,0.8921109458078904,6.460999999981141
-0.1711,1.0076,-0.1592,0.1533,0.1398,0.1602,-44.2225,0.0,-32.3225,-8.98193287083398,-9.511499512046745,0.8902666682064023,6.465999999985797
-0.1693,1.0108,-0.1539,0.1533,0.1398,0.1602,-44.3537,0.8925,-31.5175,-8.664338684954398,-9.405935920150881,0.9043534152457489,6.475999999995111
-0.1693,1.0108,-0.1434,0.1578,0.1438,0.1612,-43.8025,0.315,-31.5438,-8.087818038973507,-9.415348116984086,0.9039459629262,6.480999999985215
-0.1667,1.0062,-0.1434,0.1578,0.1438,0.1612,-43.8025,-1.3737,-32.3488,-8.110447679043329,-9.318078262865763,0.895460536997454,6.4909999999945285
-0.1732,1.0095,-0.1276,0.1618,0.1487,0.1684,-43.8288,-1.3737,-32.3488,-7.224326922403922,-9.647813924113029,0.8870599653271892,6.50099999998929
-0.1842,1.0077,-0.1147,0.1618,0.1487,0.1684,-42.63,-3.0275,-33.0838,-6.510551451927679,-10.271304982011143,0.8623707793591852,6.510999999998603
-0.1967,1.0107,-0.105,0.1618,0.1487,0.1684,-40.7575,-4.9525,-33.425,-5.945090061843858,-10.93198564088424,0.836309028399353,6.51600000000326
-0.2028,1.0116,-0.0952,0.1651,0.1517,0.1723,-40.7575,-4.9525,-32.3312,-5.389922332526102,-11.274750723545166,0.7930698518843813,6.525999999983469
-0.2028,1.0116,-0.0952,0.1651,0.1517,0.1723,-37.695,-5.2937,-32.3312,-5.376535668086871,-11.287030477626313,0.766012170197724,6.530999999988126
-0.2135,1.0106,-0.095,0.1695,0.157,0.1818,-35.1312,-5.0575,-29.8988,-5.370402597421901,-11.854875479055867,0.7224364622145619,6.540999999982887
-0.2099,1.0108,-0.0869,0.1695,0.157,0.1818,-31.605,-4.795,-27.72,-4.927888650086138,-11.69634408003488,0.6985536794269019,6.545999999987544
-0.2131,1.0107,-0.0716,0.1695,0.157,0.1818,-31.605,-4.795,-27.72,-4.079342048735371,-11.869407173643616,0.6582513063016042,6.555999999996857
-0.2304,1.0132,-0.0726,0.1721,0.1596,0.1812,-27.4312,-5.0575,-25.9875,-4.097794691086073,-12.737234272957853,0.6337110001241277,6.5609999999869615
-0.2304,1.0132,-0.0674,0.1721,0.1596,0.1812,-23.1525,-4.1475,-23.0825,-3.8180934140460234,-12.781292766650793,0.6004673037978276,6.570999999996275
-0.2295,1.0137,-0.0674,0.1751,0.1596,0.1849,-19.46,-3.0275,-19.5475,-3.8046500061962063,-12.732859603099925,0.5786440444681362,6.580999999991036
-0.2233,1.0106,-0.0707,0.1751,0.1596,0.1849,-19.46,-3.0275,-19.5475,-3.9919909080619673,-12.450318463217819,0.5649483108660888,6.585999999995693
-0.2222,1.0106,-0.0728,0.1751,0.1596,0.1849,-16.31,-3.1063,-17.1763,-4.112693992349467,-12.375575235367622,0.5427001214661235,6.595999999990454
-0.22,1.0112,-0.0756,0.1771,0.1622,0.1804,-14.1663,-3.395,-15.7238,-4.264620101545637,-12.252952947976683,0.517816283961655,6.605999999985215
-0.2173,1.0106,-0.0785,0.1771,0.1622,0.1804,-13.5538,-3.6837,-15.645,-4.429146765939691,-12.113304292636775,0.5014806379616473,6.610999999989872
-0.2173,1.0106,-0.0785,0.1776,0.1641,0.1903,-13.5538,-3.6837,-15.645,-4.4407446220159335,-12.100865454822888,0.47415086529372097,6.620999999984633
-0.208,1.0089,-0.0766,0.1776,0.1641,0.1903,-14.14,-4.795,-16.6075,-4.348507805303427,-11.656378982645071,0.45275093847526937,6.62599999998929
-0.2131,1.0101,-0.0773,0.1776,0.1641,0.1903,-14.2013,-6.195,-18.7162,-4.374285552131548,-11.863627199017953,0.40104659274657983,6.635999999998603
-0.2275,1.0136,-0.0741,0.1794,0.1667,0.1917,-14.665,-6.2213,-19.2938,-4.193834861540418,-12.566970960483644,0.3733175237160546,6.640999999988708
-0.2301,1.0119,-0.0733,0.1794,0.1667,0.1917,-14.665,-6.2213,-19.2938,-4.146467426207462,-12.764275404468643,0.3221471421347147,6.650999999998021
-0.2301,1.0094,-0.0768,0.1794,0.1684,0.195,-15.8025,-4.4012,-17.99,-4.3385127873132845,-12.80270809898517,0.28950745447158793,6.66099999997823
-0.2277,1.0094,-0.0768,0.1794,0.1684,0.195,-16.8438,-2.2138,-17.465,-4.350243288670181,-12.6862064539056,0.2827309017732571,6.665999999982887
-0.2291,1.0102,-0.0683,0.1826,0.1698,0.1876,-16.9225,-1.4612,-17.4825,-3.8953791637761292,-12.744780103474303,0.2797474846053791,6.670999999987544
-0.237,1.0102,-0.059,0.1826,0.1698,0.1876,-16.9225,-1.4612,-17.4825,-3.374014988700594,-13.148103694388148,0.27663779345903455,6.680999999996857
-0.2432,1.0111,-0.043,0.1826,0.1698,0.1876,-16.1,-1.4438,-16.415,-2.491312239482738,-13.482293623933074,0.2737314592245175,6.690999999991618
-0.2456,1.0088,-0.0425,0.1825,0.172,0.1986,-14.1838,-1.8375,-15.7762,-2.4177283783444663,-13.654594881462874,0.2689753514803922,6.695999999996275
-0.2456,1.0088,-0.0425,0.1825,0.172,0.1986,-14.1838,-1.8375,-13.9913,-2.4127618499540744,-13.669491816315773,0.26224801166770345,6.705999999991036
-0.2433,1.0093,-0.0401,0.1883,0.1722,0.1988,-12.495,-2.7562,-13.9913,-2.2856733537737224,-13.55599385901921,0.24649281523879563,6.716000000000349
-0.2358,1.0091,-0.0548,0.1883,0.1722,0.1988,-11.1825,-2.9225,-13.1775,-3.038801231069819,-13.18202452179404,0.23663834392952562,6.721000000005006
-0.2336,1.0099,-0.058,0.1883,0.1722,0.1988,-11.5063,-3.4388,-13.5013,-3.266523123329624,-13.023007583856165,0.2143815042295948,6.730999999985215
-0.2303,1.0087,-0.0544,0.1865,0.1734,0.2021,-11.5063,-3.4388,-13.5013,-3.101805002145938,-12.862748705577603,0.20229246102803664,6.735999999989872
-0.2459,1.0091,-0.0524,0.1865,0.1734,0.2021,-12.6,-4.3137,-15.3475,-2.9823223467094677,-13.602799642182777,0.17171757013271377,6.745999999984633
-0.2442,1.0091,-0.0524,0.1879,0.1762,0.2042,-14.1663,-4.8038,-16.905,-2.973214494480448,-13.587613319699592,0.13659643810027677,6.755999999993946
-0.2459,1.0092,-0.0466,0.1879,0.1762,0.2042,-15.54,-4.97,-17.325,-2.66413687879718,-13.672595267572762,0.11770580555295289,6.760999999998603
-0.2425,1.0077,-0.0432,0.1879,0.1762,0.2042,-15.54,-4.97,-17.325,-2.467708032481226,-13.530734186251884,0.08147941121578461,6.770999999993364
-0.248,1.0079,-0.0382,0.1894,0.1788,0.2062,-16.205,-5.3463,-17.6575,-2.1881563397396615,-13.792452395569649,0.06127726393557089,6.775999999998021
-0.2505,1.0092,-0.0418,0.1894,0.1788,0.2062,-16.8962,-5.46,-18.3838,-2.3612995890986497,-13.918800638524708,0.020764155017117727,6.785999999992782
-0.2505,1.0092,-0.0418,0.1902,0.1796,0.2049,-17.5438,-4.7863,-18.1388,-2.37119877741856,-13.92783526715508,-0.012674192815644914,6.795999999987544
-0.2539,1.0091,-0.0397,0.1902,0.1796,0.2049,-17.5438,-4.7863,-18.1388,-2.25947276109442,-14.099104501737514,-0.029162804052962718,6.8009999999922
-0.2522,1.0083,-0.0395,0.1902,0.1796,0.1844,-18.7512,-3.955,-17.85,-2.2442352148100455,-14.037542617903815,-0.053872012299335935,6.8109999999869615
-0.2489,1.0099,-0.039,0.1929,0.183,0.2031,-20.8075,-2.5287,-18.3838,-2.213056813992559,-13.849758697309303,-0.058773525331409185,6.815999999991618
-0.2552,1.0078,-0.03,0.1929,0.183,0.2031,-22.4,-1.6712,-19.005,-1.7271221299634187,-14.179691966015785,-0.060577006376842414,6.825999999986379
-0.2552,1.0042,-0.0153,0.1939,0.1838,0.2086,-22.4,-1.6712,-19.005,-0.9099800721982056,-14.251973245757647,-0.061166844464187485,6.830999999991036
-0.263,1.0042,-0.0153,0.1939,0.1838,0.2086,-22.5925,-1.2425,-19.3988,-0.8744884097533706,-14.646303761419777,-0.05870226231781995,6.841000000000349
-0.2644,1.0026,-0.0078,0.196,0.1875,0.2185,-22.7325,-2.03,-19.53,-0.46408947832455255,-14.76456795775798,-0.06405857599152821,6.850999999995111
-0.2652,1.0038,-0.0016,0.196,0.1875,0.2185,-20.4925,-3.0363,-19.5037,-0.10897202074453866,-14.796867275283686,-0.0713708433890196,6.855999999999767
-0.274,1.0025,-0.0029,0.196,0.1875,0.2185,-21.4463,-3.0363,-19.5037,-0.16317161314775455,-15.254030855270855,-0.08656284122365104,6.865999999979977
-0.2733,0.9995,0.0108,0.1979,0.19,0.2191,-21.175,-3.3338,-18.8913,0.5832085550220414,-15.289465117063154,-0.10454816912897086,6.87599999998929
-0.2733,0.9995,0.0108,0.1979,0.19,0.2191,-20.4487,-4.2088,-18.3137,0.6173782709376491,-15.291905843572883,-0.11725941560049309,6.880999999993946
-0.2767,0.9999,0.0095,0.1995,0.191,0.2226,-20.4487,-4.2088,-18.3137,0.5478122584692572,-15.454932450087135,-0.12984354956726277,6.885999999984051
-0.2794,0.998,0.0203,0.1995,0.191,0.2226,-18.4363,-5.4687,-17.9288,1.1328931577088177,-15.623561827050784,-0.16853158040883046,6.895999999993364
