AcclX,AcclY,AcclZ,MagX,MagY,MagZ,GyroX,GyroY,GyroZ,Roll,Pitch,Yaw,Time Elapsed(s)
-0.5488,0.9179,-0.0348,0.3538,0.2849,0.0561,-0.9887,-1.5313,-6.02,0,0,0,0.01599999999598367
-0.5495,0.917,-0.0334,0.3538,0.2849,0.0561,-0.6825,-1.3563,-5.7225,0,0,0,0.01599999999598367
-0.5463,0.9174,-0.0375,0.3526,0.2836,0.0532,-0.6825,-1.3563,-5.7225,0,0,0,0.030999999995401595
-0.5463,0.9174,-0.0375,0.3526,0.2836,0.0532,-0.7788,-1.6538,-5.8888,0,0,0,0.030999999995401595
-0.549,0.9167,-0.0357,0.3526,0.2836,0.0532,-0.7788,-1.6538,-5.8888,0,0,0,0.030999999995401595
-0.5463,0.9165,-0.0317,0.3522,0.2847,0.0508,-0.9013,-1.575,-6.265,0,0,0,0.030999999995401595
-0.5463,0.9165,-0.0317,0.3522,0.2847,0.0508,-0.8662,-1.4963,-6.2825,0,0,0,0.046999999998661224
-0.546,0.916,-0.0344,0.3522,0.2847,0.0508,-0.8662,-1.4963,-6.2825,0,0,0,0.046999999998661224
-0.5467,0.9169,-0.0354,0.3518,0.2849,0.046,-0.77,-1.645,-6.405,0,0,0,0.046999999998661224
-0.5467,0.9169,-0.0354,0.3518,0.2849,0.046,-0.77,-1.645,-6.405,0,0,0,0.0629999999946449
-0.5488,0.9168,-0.0353,0.3518,0.2849,0.046,-0.8575,-1.4088,-6.6238,0,0,0,0.0629999999946449
-0.5464,0.919,-0.0356,0.3532,0.2846,0.0488,-0.7525,-1.7938,-6.2387,0,0,0,0.07800000000133878
-0.5464,0.919,-0.0356,0.3532,0.2846,0.0488,-0.7525,-1.7938,-6.2387,0,0,0,0.07800000000133878
-0.5459,0.9166,-0.0333,0.3532,0.2846,0.0488,-0.7875,-1.5225,-6.0462,0,0,0,0.07800000000133878
-0.5494,0.9167,-0.0337,0.3535,0.2843,0.0453,-0.7875,-1.5225,-6.0462,0,0,0,0.09399999999732245
-0.5494,0.9167,-0.0337,0.3535,0.2843,0.0453,-1.0762,-1.4787,-6.2475,0,0,0,0.09399999999732245
-0.5444,0.9159,-0.034,0.3535,0.2843,0.0453,-0.9363,-1.68,-5.9325,0,0,0,0.10899999999674037
-0.5488,0.9185,-0.0337,0.3534,0.2846,0.0527,-0.9363,-1.68,-5.9325,0,0,0,0.10899999999674037
-0.5488,0.9185,-0.0337,0.3534,0.2846,0.0527,-0.6388,-1.715,-6.1075,0,0,0,0.12499999999272404
-0.55,0.9182,-0.0367,0.3534,0.2846,0.0519,-0.6388,-1.715,-5.6962,0,0,0,0.12499999999272404
-0.5514,0.9179,-0.0357,0.3525,0.2842,0.0519,-0.805,-1.9688,-5.6962,0,0,0,0.12499999999272404
-0.5514,0.9179,-0.0357,0.3525,0.2842,0.0519,-1.1725,-1.75,-6.0287,0,0,0,0.14099999999598367
-0.5464,0.9172,-0.0324,0.3525,0.2839,0.052,-1.1725,-1.75,-6.0287,0,0,0,0.14099999999598367
-0.5449,0.9144,-0.0359,0.3516,0.2839,0.052,-0.7088,-1.5662,-6.02,0,0,0,0.1559999999954016
-0.5449,0.9144,-0.0359,0.3516,0.2839,0.052,-0.7262,-1.4262,-6.0988,0,0,0,0.1559999999954016
-0.5496,0.9177,-0.0346,0.3548,0.2849,0.049,-0.7262,-1.4262,-6.0988,0,0,0,0.1559999999954016
-0.5456,0.9179,-0.0364,0.3548,0.2849,0.049,-0.665,-1.435,-6.0813,0,0,0,0.17199999999138527
-0.5456,0.9179,-0.0364,0.3548,0.2849,0.049,-0.665,-1.435,-6.0813,0,0,0,0.17199999999138527
-0.5453,0.9173,-0.0359,0.3534,0.2852,0.0458,-0.9275,-1.8025,-6.2213,0,0,0,0.18699999999807915
-0.5492,0.918,-0.0354,0.3534,0.2852,0.0458,-0.8925,-1.645,-6.5363,0,0,0,0.18699999999807915
-0.5492,0.918,-0.0332,0.3534,0.2852,0.0458,-0.8925,-1.645,-6.5363,0,0,0,0.20299999999406282
-0.5475,0.918,-0.0332,0.3518,0.2855,0.0478,-0.7962,-1.6187,-6.2825,0,0,0,0.20299999999406282
-0.5461,0.9155,-0.0345,0.3518,0.2855,0.0478,-0.7962,-1.6187,-6.2825,0,0,0,0.20299999999406282
-0.5461,0.9155,-0.0363,0.3518,0.2855,0.0478,-0.91,-1.925,-6.1512,0,0,0,0.21899999999732245
-0.5505,0.9163,-0.0363,0.3533,0.2844,0.0519,-0.5688,-1.9688,-5.9412,0,0,0,0.21899999999732245
-0.5483,0.917,-0.0346,0.3533,0.2844,0.0519,-0.5688,-1.9688,-5.9412,0,0,0,0.23399999999674037
-0.5483,0.917,-0.0341,0.3533,0.2844,0.0519,-0.7525,-1.435,-6.405,0,0,0,0.23399999999674037
-0.5474,0.917,-0.0341,0.3512,0.2856,0.0562,-0.7525,-1.435,-6.405,0,0,0,0.24999999999272404
-0.5458,0.9174,-0.0345,0.3512,0.2856,0.0562,-0.6562,-1.435,-6.23,0,0,0,0.24999999999272404
-0.5516,0.9167,-0.0369,0.3512,0.2856,0.0562,-1.1463,-1.1463,-5.8275,0,0,0,0.24999999999272404
-0.5516,0.9167,-0.0369,0.3524,0.2854,0.0557,-1.1463,-1.1463,-5.8275,0,0,0,0.2649999999994179
-0.5477,0.9166,-0.0328,0.3524,0.2854,0.0557,-1.085,-1.5488,-5.9938,0,0,0,0.2649999999994179
-0.5457,0.9156,-0.0362,0.3524,0.2854,0.0557,-1.085,-1.5488,-5.9938,0,0,0,0.2809999999954016
-0.5457,0.9156,-0.0362,0.3538,0.2845,0.0548,-0.665,-1.8025,-6.16,0,0,0,0.2809999999954016
-0.5454,0.9174,-0.0362,0.3538,0.2845,0.0548,-0.7088,-1.7413,-5.9588,0,0,0,0.2969999999986612
-0.5473,0.9201,-0.0315,0.3538,0.2845,0.0548,-0.7088,-1.7413,-5.9588,0,0,0,0.2969999999986612
-0.5473,0.9201,-0.0315,0.3527,0.2846,0.0548,-0.7525,-1.61,-6.0462,0,0,0,0.2969999999986612
-0.5486,0.9174,-0.0307,0.3527,0.2846,0.0548,-0.7525,-1.61,-6.545,0,0,0,0.31199999999807915
-0.5477,0.9173,-0.0358,0.3527,0.2846,0.0548,-0.8225,-1.1812,-6.545,0,0,0,0.31199999999807915
-0.5477,0.9173,-0.0358,0.3523,0.2852,0.0505,-1.2163,-1.3737,-6.265,0,0,0,0.3279999999940628
-0.5464,0.9168,-0.0335,0.3523,0.2852,0.0505,-1.2163,-1.3737,-6.265,0,0,0,0.3279999999940628
-0.5458,0.9167,-0.0339,0.3523,0.2852,0.0505,-1.4262,-2.2225,-6.3175,0,0,0,0.3279999999940628
-0.5458,0.9167,-0.0339,0.3517,0.2864,0.0523,-0.7875,-2.135,-5.9675,0,0,0,0.3430000000007567
-0.5458,0.917,-0.0329,0.3517,0.2864,0.0523,-0.7875,-2.135,-5.9675,0,0,0,0.3430000000007567
-0.5473,0.9184,-0.0336,0.3517,0.2864,0.0523,-0.8925,-1.7763,-5.9675,0,0,0,0.35899999999674037
-0.5473,0.9184,-0.0336,0.3534,0.2845,0.0497,-0.8925,-1.7763,-5.9675,0,0,0,0.35899999999674037
-0.5488,0.9183,-0.0356,0.3534,0.2845,0.0497,-0.8313,-1.3388,-6.02,0,0,0,0.375
-0.5469,0.9165,-0.0356,0.3534,0.2845,0.0497,-1.0325,-1.505,-6.02,0,0,0,0.375
-0.5469,0.9165,-0.0356,0.3518,0.2843,0.0589,-1.0325,-1.505,-6.02,0,0,0,0.375
-0.5469,0.9156,-0.0329,0.3518,0.2843,0.0589,-0.5863,-1.8025,-6.1863,0,0,0,0.38999999999214197
-0.5459,0.9165,-0.0334,0.3518,0.2843,0.0589,-0.5863,-1.8025,-6.1863,0,0,0,0.38999999999214197
-0.5459,0.9165,-0.0334,0.3532,0.2843,0.057,-0.6475,-1.8112,-6.0637,0,0,0,0.4059999999954016
-0.5486,0.9159,-0.0335,0.3532,0.2843,0.057,-0.3675,-1.3563,-6.1337,0,0,0,0.4059999999954016
-0.5483,0.9172,-0.0401,0.3532,0.2843,0.057,-0.3675,-1.3563,-6.1337,0,0,0,0.4059999999954016
-0.5483,0.9172,-0.0401,0.3526,0.2843,0.0534,-0.245,-1.5838,-6.4925,0,0,0,0.4210000000020955
-0.5459,0.919,-0.0343,0.3526,0.2843,0.0534,-0.245,-1.5838,-6.4925,0,0,0,0.4210000000020955
-0.5492,0.9189,-0.035,0.3526,0.2843,0.0534,-0.8225,-1.75,-6.4313,0,0,0,0.4369999999908032
-0.5492,0.9189,-0.035,0.3515,0.2861,0.0522,-0.455,-1.6712,-6.335,0,0,0,0.4369999999908032
-0.5472,0.9159,-0.0348,0.3515,0.2861,0.0522,-0.455,-1.6712,-6.335,0,0,0,0.4529999999940628
-0.5493,0.917,-0.0367,0.3515,0.2861,0.0522,-0.8225,-1.6275,-6.1863,0,0,0,0.4529999999940628
-0.5493,0.917,-0.0367,0.3519,0.2852,0.0598,-0.8225,-1.6275,-6.1863,0,0,0,0.4529999999940628
-0.5451,0.9157,-0.0346,0.3519,0.2852,0.0598,-0.8925,-1.6975,-5.8888,0,0,0,0.46799999999348074
-0.5453,0.9157,-0.0368,0.3519,0.2852,0.0598,-1.015,-1.6975,-5.8275,0,0,0,0.46799999999348074
-0.5453,0.9157,-0.0368,0.3527,0.2834,0.0596,-1.015,-1.6975,-5.8275,0,0,0,0.48399999999674037
-0.5483,0.9172,-0.0373,0.3527,0.2834,0.0596,-0.9013,-1.5313,-5.95,0,0,0,0.48399999999674037
-0.5458,0.9159,-0.0319,0.3527,0.2834,0.0596,-0.9013,-1.5313,-6.2213,0,0,0,0.4989999999961583
-0.5458,0.9159,-0.0319,0.3526,0.2836,0.0562,-0.9013,-1.3475,-6.2213,0,0,0,0.4989999999961583
-0.5454,0.9176,-0.0326,0.3526,0.2836,0.0562,-0.7613,-1.8637,-6.1425,0,0,0,0.4989999999961583
-0.5471,0.9173,-0.0362,0.3526,0.2836,0.0562,-0.7613,-1.8637,-6.1425,0,0,0,0.514999999992142
-0.5471,0.9173,-0.0362,0.3538,0.2849,0.0541,-1.015,-1.96,-6.3612,0,0,0,0.514999999992142
-0.5493,0.9179,-0.0346,0.3538,0.2849,0.0541,-0.7613,-1.645,-6.2125,0,0,0,0.5309999999954016
-0.5492,0.9174,-0.0329,0.3538,0.2849,0.0541,-0.7613,-1.645,-6.2125,0,0,0,0.5309999999954016
-0.5492,0.9174,-0.0329,0.3532,0.2849,0.0538,-0.8225,-1.6712,-5.9763,0,0,0,0.5309999999954016
-0.5475,0.9175,-0.0368,0.3532,0.2849,0.0538,-0.8225,-1.6712,-5.9763,0,0,0,0.5459999999948195
-0.5476,0.9173,-0.032,0.3532,0.2849,0.0538,-0.6125,-1.9162,-6.2737,0,0,0,0.5459999999948195
-0.5476,0.9173,-0.032,0.3523,0.2841,0.0497,-0.9625,-1.82,-6.5975,0,0,0,0.5619999999980791
-0.5472,0.9163,-0.0321,0.3523,0.2841,0.0497,-0.9625,-1.82,-6.5975,0,0,0,0.5619999999980791
-0.5473,0.9176,-0.037,0.3523,0.2841,0.0497,-1.1725,-1.435,-6.0113,0,0,0,0.5769999999974971
-0.5473,0.9176,-0.037,0.3507,0.2859,0.0543,-1.1725,-1.435,-6.0113,0,0,0,0.5769999999974971
-0.5481,0.916,-0.036,0.3507,0.2859,0.0543,-0.9625,-1.4175,-6.2913,0,0,0,0.5769999999974971
-0.5492,0.9185,-0.0334,0.3507,0.2859,0.0543,-0.5512,-1.5575,-5.9412,0,0,0,0.5929999999934807
-0.5492,0.9185,-0.0309,0.3523,0.2844,0.0625,-0.5512,-1.5575,-5.9412,0,0,0,0.5929999999934807
-0.5483,0.9169,-0.0309,0.3523,0.2844,0.0625,-1.0675,-1.1812,-6.1512,0,0,0,0.6089999999967404
-0.5492,0.9184,-0.0372,0.3523,0.2844,0.0625,-1.0675,-1.1812,-6.1512,0,0,0,0.6089999999967404
-0.5492,0.9186,-0.0342,0.3529,0.285,0.0475,-0.595,-1.5662,-6.02,0,0,0,0.6239999999961583
-0.5481,0.9186,-0.0342,0.3529,0.285,0.0475,-1.19,-1.47,-6.3,0,0,0,0.6239999999961583
-0.5465,0.9183,-0.0337,0.3529,0.285,0.0475,-1.19,-1.47,-6.3,0,0,0,0.6239999999961583
-0.5465,0.9171,-0.0348,0.3533,0.284,0.061,-0.595,-1.47,-6.2213,0,0,0,0.6399999999994179
-0.5488,0.9171,-0.0348,0.3533,0.284,0.061,-0.595,-1.47,-6.2213,0,0,0,0.6399999999994179
-0.5463,0.918,-0.0337,0.3533,0.284,0.061,-0.77,-1.4612,-6.5363,0,0,0,0.6549999999915599
-0.5449,0.9185,-0.0332,0.3527,0.2853,0.0544,-0.6037,-2.1088,-6.1775,-0.30247517050617867,-8.626376619217451,0.0,0.6549999999915599
-0.5449,0.9185,-0.0332,0.3527,0.2853,0.0544,-0.6037,-2.1088,-6.1775,-0.5607539368024977,-14.8258377792102,-0.009436255513922421,0.6709999999948195
-0.5465,0.9176,-0.0343,0.3527,0.2853,0.0544,-0.77,-1.505,-6.3,-0.5683313094313583,-20.2350577402849,-0.009211823298120701,0.6869999999980791
-0.5485,0.9171,-0.0381,0.3532,0.2843,0.0443,-0.77,-1.505,-6.3,-0.5770147282513062,-23.842441774476423,-0.009207217386471641,0.6869999999980791
-0.5485,0.9171,-0.0381,0.3532,0.2843,0.0443,-0.8313,-1.61,-6.1337,-0.6733476003124241,-25.653108118270065,-0.010570844320225316,0.7019999999974971
-0.551,0.919,-0.0326,0.3532,0.2843,0.0443,-0.8662,-1.6975,-6.23,-0.787075404720538,-27.27542727687019,-0.013424304809347604,0.7179999999934807
-0.5466,0.9173,-0.0312,0.3541,0.2852,0.0457,-0.8662,-1.6975,-6.23,-0.8842828328007645,-28.351509719642586,-0.013417592656942931,0.7179999999934807
-0.5466,0.9173,-0.0312,0.3541,0.2852,0.0457,-0.6737,-1.7675,-5.8187,-0.9819710212268493,-28.428193459106986,-0.01714043315296974,0.7329999999928987
-0.5466,0.9145,-0.0318,0.3541,0.2852,0.0457,-0.6737,-1.6363,-6.0025,-1.0746835788376552,-28.859453109556505,-0.017131862936393256,0.7329999999928987
-0.5471,0.9176,-0.0342,0.3543,0.2861,0.0571,-1.1375,-1.6363,-6.0025,-1.3567540455481588,-29.202487254472413,-0.01900333251730808,0.7489999999961583
-0.5471,0.9176,-0.0342,0.3543,0.2861,0.0571,-0.7175,-1.33,-6.2213,-1.3989164510728573,-29.68306332248127,-0.015975516762434517,0.7649999999994179
-0.5486,0.9174,-0.0347,0.3543,0.2861,0.0571,-0.7175,-1.33,-6.2213,-1.4405088638331869,-30.040338336361536,-0.0159675290040533,0.7649999999994179
-0.5498,0.9184,-0.0357,0.3527,0.2834,0.0518,-0.7088,-1.5225,-6.4575,-1.4891594856017019,-30.38077733297575,-0.016015932032021736,0.7799999999915599
-0.5498,0.9184,-0.0357,0.3527,0.2834,0.0518,-0.9712,-1.75,-6.3875,-1.610121612145743,-30.57119509607933,-0.019706249978759176,0.7959999999948195
-0.5484,0.9173,-0.0371,0.3527,0.2834,0.0518,-0.9712,-1.75,-6.3875,-1.7259973507678972,-30.676701555899328,-0.023163577396135258,0.8109999999942374
-0.5455,0.918,-0.0331,0.3531,0.2851,0.0528,-0.385,-1.7675,-6.8513,-1.821081158324471,-30.69055722990656,-0.023151995607437192,0.8109999999942374
-0.5455,0.918,-0.0331,0.3531,0.2851,0.0528,-0.385,-1.7675,-6.8513,-1.8894956839256998,-30.697266115713,-0.027118605522443943,0.8269999999974971
-0.5486,0.9168,-0.031,0.3531,0.2851,0.0528,-0.665,-1.8025,-6.5275,-1.8941586826139813,-30.77561282137269,-0.03164295213260722,0.8430000000007567
-0.5492,0.9159,-0.0329,0.3518,0.2852,0.0533,-1.0412,-1.6013,-6.3525,-1.92846137660887,-30.832102529089337,-0.031627130656540915,0.8430000000007567
-0.5492,0.9159,-0.0329,0.3518,0.2852,0.0533,-1.0412,-1.6013,-6.3525,-1.9555485596879656,-30.86816427019716,-0.032849112883064205,0.8579999999928987
-0.5489,0.9174,-0.0365,0.3518,0.2852,0.0533,-0.9887,-1.3913,-6.1337,-2.0124316555338995,-30.869417709826045,-0.030794683838207482,0.8739999999961583
-0.5444,0.9198,-0.0329,0.3546,0.285,0.0541,-0.9887,-1.3913,-6.1337,-2.018790118426051,-30.80091202047262,-0.028868657288862523,0.8889999999955762
-0.5444,0.9198,-0.0329,0.3546,0.285,0.0541,-0.2887,-1.505,-5.9675,-2.0285146556775735,-30.77064685052489,-0.028854222960218095,0.8889999999955762
-0.5473,0.9171,-0.0329,0.3546,0.285,0.0541,-0.7088,-1.6888,-6.1337,-2.0301267196118236,-30.78115439402603,-0.03155941136129205,0.9049999999988358
-0.5467,0.9148,-0.0345,0.3541,0.2844,0.0478,-0.7088,-1.6888,-6.1337,-2.0381562894692395,-30.797710169171904,-0.03426324716692873,0.9209999999948195
-0.5467,0.9148,-0.0345,0.3541,0.2844,0.0478,-0.245,-1.435,-6.195,-2.0802784672962504,-30.811532173231296,-0.03424611554334527,0.9209999999948195
-0.5502,0.9172,-0.0379,0.3541,0.2844,0.0478,-0.245,-1.435,-6.195,-2.179299842512274,-30.847860551344944,-0.03297353552812233,0.9359999999942374
-0.547,0.9181,-0.0345,0.3528,0.2854,0.059,-0.5688,-1.715,-6.1775,-2.1746407126535137,-30.825542072015413,-0.03609565467299769,0.9519999999974971
-0.547,0.9181,-0.0345,0.3528,0.2854,0.059,-1.1463,-1.6275,-6.3963,-2.168515173065499,-30.803935389073132,-0.037708206138097916,0.966999999996915
-0.5486,0.9186,-0.0319,0.3528,0.2854,0.059,-1.1463,-1.6275,-6.3963,-2.119863694448486,-30.814195328074135,-0.03768935203502887,0.966999999996915
-0.5461,0.9174,-0.0354,0.3533,0.2849,0.0458,-0.6125,-1.7062,-6.2387,-2.1324225191139816,-30.792728463418563,-0.040668383671622114,0.9830000000001746
-0.5461,0.9174,-0.0354,0.3533,0.2849,0.0458,-0.6125,-1.7062,-6.2387,-2.143227491471395,-30.777950960544153,-0.040648049479786307,0.9830000000001746
-0.5475,0.9176,-0.0335,0.3533,0.2849,0.0458,-0.735,-1.4525,-6.405,-2.1412214291440033,-30.7887781209395,-0.03956843136779403,0.9989999999888823
-0.5469,0.9157,-0.0355,0.3514,0.2842,0.057,-0.7962,-1.3563,-6.44,-2.1428734621639918,-30.804578630932806,-0.037113280443523335,1.0139999999955762
-0.5469,0.9157,-0.0355,0.3514,0.2842,0.057,-0.7962,-1.3563,-6.44,-2.144490912478799,-30.814131700750988,-0.034496999314772354,1.0299999999988358
-0.5468,0.9161,-0.0365,0.3514,0.2842,0.057,-1.0325,-1.575,-5.88,-2.1725863406284533,-30.813953434405853,-0.035323243857582245,1.0449999999982538
-0.5465,0.917,-0.0362,0.3515,0.2856,0.0467,-1.0325,-1.575,-6.1075,-2.1906326302546284,-30.80419808366416,-0.0362053081474276,1.0609999999942374
-0.5465,0.917,-0.0362,0.3515,0.2856,0.0467,-0.7875,-1.645,-6.1075,-2.191509603545459,-30.796815898690376,-0.0400993394481918,1.091999999996915
-0.5478,0.9167,-0.0332,0.3515,0.2856,0.0467,-0.7437,-1.6363,-6.0988,-2.1879682218118766,-30.808317136243126,-0.040079289778467704,1.091999999996915
-0.5444,0.918,-0.031,0.3538,0.2864,0.0498,-0.7437,-1.6363,-6.0988,-2.18030621452334,-30.7717456648857,-0.041939285645961485,1.1080000000001746
-0.5444,0.918,-0.031,0.3538,0.2864,0.0498,-0.805,-1.6275,-6.1775,-2.173092864314637,-30.738849838629108,-0.04354891529478429,1.1229999999923166
-0.5481,0.9164,-0.0365,0.3538,0.2864,0.047,-0.6037,-1.2337,-6.0025,-2.188841102820484,-30.761066396705317,-0.038968797148208244,1.1389999999955762
-0.5478,0.9168,-0.0335,0.3523,0.2834,0.047,-0.6037,-1.2337,-6.0025,-2.1747882174600237,-30.775476018718233,-0.03894931274963414,1.1389999999955762
-0.5478,0.9168,-0.0335,0.3523,0.2834,0.047,-0.6913,-1.6712,-6.0287,-2.168458037972565,-30.78847514059544,-0.0413679944046473,1.15499999999156
-0.5477,0.9173,-0.0362,0.3523,0.2834,0.0554,-0.6913,-1.6712,-6.0287,-2.175508618857448,-30.794805813738705,-0.043633081950965026,1.1699999999982538
-0.5461,0.9159,-0.0358,0.352,0.285,0.0554,-0.1838,-1.8637,-6.3175,-2.1988688530649507,-30.79175967783078,-0.04912788172060476,1.1859999999942374
-0.5461,0.9159,-0.0358,0.352,0.285,0.0554,-0.56,-1.68,-6.0462,-2.205858204286601,-30.79057636488252,-0.049103317779744464,1.1859999999942374
-0.5465,0.9187,-0.031,0.352,0.2849,0.0506,-0.56,-1.68,-6.0462,-2.157540438059739,-30.778585358803575,-0.05149647166326078,1.2009999999936554
-0.5445,0.916,-0.0324,0.3522,0.2849,0.0506,-0.8313,-1.6187,-5.95,-2.1504960528932844,-30.769330270534432,-0.05306929973975483,1.216999999996915
-0.5445,0.916,-0.0324,0.3522,0.2849,0.0506,-0.8313,-1.6187,-5.95,-2.143828270731131,-30.76137897250567,-0.05304276508988495,1.216999999996915
-0.5456,0.9174,-0.0371,0.3522,0.2842,0.0448,-1.2425,-1.5225,-6.3437,-2.1986278765142857,-30.746712096232116,-0.05307638961932492,1.2329999999928987
-0.547,0.917,-0.0351,0.3522,0.2842,0.0448,-0.8662,-1.33,-6.0113,-2.1980762645920278,-30.75615348644766,-0.050220181965752494,1.2479999999995925
-0.547,0.917,-0.0351,0.3522,0.2842,0.0448,-0.8662,-1.33,-6.0113,-2.1975708389686592,-30.763859032820672,-0.05019507187476962,1.2479999999995925
-0.5469,0.9177,-0.0348,0.3527,0.2864,0.0538,-0.5163,-1.5225,-5.6438,-2.1922496631486674,-30.76519339881481,-0.05023387937033159,1.264999999999418
-0.5481,0.9176,-0.0306,0.3527,0.2864,0.0538,-0.5163,-1.5225,-5.6438,-2.1342680013699225,-30.774092573779342,-0.050208762430646425,1.264999999999418
-0.5481,0.9176,-0.0357,0.3527,0.2864,0.0538,-0.5688,-1.8463,-6.3175,-2.1502827029489717,-30.794051572397066,-0.05509461633935841,1.27999999999156
-0.547,0.9168,-0.0357,0.3518,0.2853,0.045,-0.6913,-1.4612,-6.4575,-2.1564242523304427,-30.797613235718693,-0.054146905343001275,1.2959999999948195
-0.5472,0.9167,-0.0361,0.3518,0.2853,0.045,-0.6913,-1.4612,-6.4575,-2.1640352836891896,-30.804375514491806,-0.05319966820256076,1.3119999999908032
-0.5472,0.9166,-0.0344,0.3518,0.2853,0.045,-0.455,-1.4612,-5.495,-2.1604651118748417,-30.807669383523443,-0.05317306836845948,1.3119999999908032
-0.547,0.9166,-0.0344,0.3526,0.2855,0.0582,-0.455,-1.4612,-5.495,-2.157760065338651,-30.808143519396985,-0.05228382837639029,1.326999999997497
-0.5472,0.9161,-0.0318,0.3526,0.2855,0.0582,-1.0325,-1.61,-5.7663,-2.1229937787715936,-30.808669041941233,-0.053717132374499425,1.3430000000007567
-0.5472,0.9167,-0.0345,0.3526,0.2855,0.0582,-1.5225,-1.6538,-5.6788,-2.136818732505921,-30.809392367227698,-0.05369027380831218,1.3430000000007567
-0.5487,0.9167,-0.0345,0.3521,0.2849,0.0477,-1.5225,-1.6538,-5.6788,-2.1447291885527213,-30.816732743081626,-0.05568833071284724,1.3579999999928987
-0.5483,0.916,-0.0351,0.3521,0.2849,0.0477,-1.0675,-1.4262,-5.8275,-2.155982277999258,-30.81946744296067,-0.05418060285918933,1.3739999999961583
-0.5465,0.9198,-0.0363,0.3521,0.2849,0.0477,-1.0675,-1.4262,-6.1775,-2.1795358084363707,-30.785048818799112,-0.05415351255775974,1.3739999999961583
-0.5465,0.9198,-0.0363,0.3542,0.2846,0.0528,-0.5075,-1.4787,-6.1775,-2.196510635729843,-30.760313413299357,-0.053486132113641595,1.389999999992142
-0.5489,0.9168,-0.0387,0.3542,0.2846,0.0528,-0.385,-1.7938,-6.3263,-2.2583922872941096,-30.80476062736973,-0.05345938904758478,1.389999999992142
-0.5497,0.9171,-0.0383,0.3542,0.2846,0.0528,-0.385,-1.7938,-6.3263,-2.295698842777467,-30.8437850027372,-0.0575565113974013,1.4049999999988358
-0.5497,0.9171,-0.0383,0.3555,0.2845,0.0514,-0.91,-1.4875,-6.0988,-2.307095374157636,-30.860994257424988,-0.057028159053828006,1.4209999999948195
-0.5451,0.9179,-0.0323,0.3555,0.2845,0.0514,-1.0237,-1.7325,-6.3263,-2.2489555558773096,-30.800535502612455,-0.05699964497430109,1.4209999999948195
-0.5432,0.9168,-0.0324,0.3555,0.2845,0.0514,-1.0237,-1.7325,-6.3263,-2.2041273884990233,-30.741025645354373,-0.06017595694418958,1.4359999999942374
-0.5432,0.9168,-0.0324,0.3545,0.2844,0.053,-1.1988,-1.3913,-5.9763,-2.150498173255823,-30.72341784465283,-0.06014586896571749,1.4359999999942374
-0.5452,0.916,-0.0363,0.3545,0.2844,0.053,-1.1988,-1.3913,-5.9763,-2.1858934773985386,-30.726261417766583,-0.05807779154281944,1.451999999997497
-0.5511,0.9168,-0.0403,0.3545,0.2844,0.053,-0.6737,-1.085,-6.0725,-2.216294840099195,-30.78414279598567,-0.0511123985607892,1.4679999999934807
-0.5511,0.9168,-0.0403,0.3524,0.2857,0.0504,-0.6475,-1.4525,-6.0988,-2.250250070118354,-30.832281594384806,-0.05108684236150881,1.4679999999934807
-0.5458,0.918,-0.0335,0.3524,0.2857,0.0504,-0.6475,-1.4525,-6.0988,-2.2321437679489464,-30.804815008077565,-0.050068210732384884,1.4830000000001746
-0.5466,0.9156,-0.032,0.3524,0.2857,0.0504,-0.9975,-1.995,-5.9588,-2.1901666862964806,-30.807229240149077,-0.050043176627018696,1.4830000000001746
-0.5466,0.9156,-0.032,0.3522,0.2838,0.0526,-0.9975,-1.995,-5.9588,-2.155834688291714,-30.80928780913905,-0.05763452094879333,1.4989999999961583
-0.5464,0.9162,-0.0346,0.3522,0.2838,0.0526,-1.225,-1.5488,-6.3088,-2.1579749082428368,-30.803659288363498,-0.05805639323080145,1.5139999999955762
-0.5472,0.9179,-0.0354,0.3522,0.2838,0.0526,-1.1113,-1.3825,-6.335,-2.170718400375206,-30.79608197932712,-0.05584863094574219,1.5299999999988358
-0.5472,0.9179,-0.0354,0.3525,0.2851,0.0563,-1.1113,-1.3825,-6.335,-2.1802535094656963,-30.791190148463564,-0.05582070663026932,1.5299999999988358
-0.5477,0.9177,-0.0343,0.3525,0.2851,0.0563,-0.6825,-1.3825,-6.1863,-2.1768931309059765,-30.797116464501716,-0.05579279627695419,1.5299999999988358
-0.5464,0.917,-0.0346,0.3525,0.2851,0.0563,-0.6825,-1.3825,-6.1863,-2.1755367178739298,-30.789632987578088,-0.053586165791362626,1.5459999999948195
-0.5464,0.917,-0.0346,0.3524,0.2859,0.0598,-0.5425,-1.3475,-6.195,-2.1727668283529424,-30.78420624244667,-0.053559372708466946,1.5459999999948195
-0.5468,0.9175,-0.0346,0.3524,0.2859,0.0598,-0.5163,-1.54,-6.1687,-2.170076044342842,-30.78184060697152,-0.053851348564754965,1.5610000000015134
-0.5471,0.9174,-0.0323,0.3524,0.2859,0.0598,-0.5163,-1.54,-6.1687,-2.13851853433221,-30.785349498495613,-0.05416442880223263,1.5769999999902211
-0.5471,0.9174,-0.0323,0.3525,0.2853,0.0526,-0.9275,-1.9338,-6.1775,-2.1223494240763254,-30.787929200191673,-0.054137346587831515,1.5769999999902211
-0.5483,0.917,-0.0334,0.3525,0.2853,0.0526,-0.9275,-1.9338,-6.1775,-2.1175305542681775,-30.808109685703,-0.06033307995981459,1.591999999996915
-0.5501,0.9168,-0.0376,0.3525,0.2853,0.0526,-1.1025,-2.0038,-6.1337,-2.174538093394284,-30.84302185478829,-0.06030291341983468,1.591999999996915
-0.5501,0.9168,-0.0376,0.3506,0.286,0.0513,-0.77,-1.19,-5.9062,-2.1753724469507523,-30.853794582743983,-0.05501556787405374,1.6080000000001746
-0.5474,0.9196,-0.0349,0.3506,0.286,0.0513,-0.77,-1.19,-5.9062,-2.175363012738896,-30.842174236983382,-0.039545052459447304,1.65499999999156
-0.5459,0.9165,-0.0331,0.3506,0.286,0.0513,-0.9887,-1.2075,-5.95,-2.1565122858612646,-30.83103724379852,-0.034859029223635235,1.6699999999982538
-0.5459,0.9165,-0.0331,0.3518,0.2847,0.0553,-0.9887,-1.2075,-6.0287,-2.140982982018769,-30.81777364378355,-0.029864265622272835,1.6859999999942374
-0.5466,0.9159,-0.0338,0.3518,0.2847,0.0553,-1.2687,-1.4612,-6.0287,-2.1318841424146444,-30.816485535005423,-0.0298493334894617,1.6859999999942374
-0.5471,0.918,-0.0304,0.3518,0.2847,0.0553,-0.9625,-1.3125,-5.74,-2.094717007512983,-30.814873296992307,-0.026536234734045046,1.701999999997497
-0.5471,0.918,-0.0304,0.3523,0.2843,0.0588,-0.9625,-1.3125,-5.74,-2.0634231374404113,-30.81333200171808,-0.023430928409298016,1.716999999996915
-0.546,0.9175,-0.0322,0.3523,0.2843,0.0588,-0.9975,-1.5575,-5.915,-2.0536918913926625,-30.80509017047162,-0.023419212945093366,1.716999999996915
-0.5454,0.9163,-0.0391,0.3523,0.2843,0.0588,-0.9975,-1.6187,-5.845,-2.1246713880688577,-30.801412490727575,-0.02500607965021955,1.7329999999928987
-0.5454,0.9163,-0.0391,0.3514,0.285,0.0466,-1.2775,-1.6187,-5.845,-2.2313004104963046,-30.797939613499434,-0.026492241903563234,1.7479999999995925
-0.5495,0.9162,-0.0347,0.3514,0.285,0.0466,-0.8838,-1.5225,-6.3175,-2.225175487908477,-30.84568785500037,-0.026478995782611453,1.7479999999995925
-0.5462,0.9164,-0.033,0.3514,0.285,0.0466,-0.8838,-1.5225,-6.3175,-2.209175117011858,-30.82282197376661,-0.026525902196705052,1.7639999999955762
-0.5462,0.9164,-0.033,0.3543,0.2858,0.0543,-0.8662,-1.4438,-6.3525,-2.196882091616717,-30.80726362990076,-0.026512639245606703,1.7639999999955762
-0.5458,0.9155,-0.0371,0.3543,0.2858,0.0543,-0.5425,-1.47,-6.0813,-2.2202059561931704,-30.801447680813514,-0.02571994883782511,1.7799999999988358
-0.5485,0.9171,-0.0363,0.3543,0.2858,0.0543,-0.5425,-1.47,-6.0813,-2.2289631009800375,-30.8154989008817,-0.0257070888634062,1.7799999999988358
-0.5485,0.9171,-0.0363,0.3518,0.2851,0.0577,-0.6037,-1.505,-6.3175,-2.234470860974545,-30.832013312235556,-0.025488253361482492,1.7949999999982538
-0.5463,0.9177,-0.0326,0.3518,0.2851,0.0577,-0.6037,-1.505,-6.3175,-2.2052514256771927,-30.803255965432896,-0.025255795146856906,1.8109999999942374
-0.546,0.917,-0.0369,0.3518,0.2851,0.0577,-0.2887,-1.61,-6.3263,-2.237661948156089,-30.784588802667752,-0.02661139779239407,1.8260000000009313
-0.546,0.917,-0.0369,0.3534,0.2838,0.0522,-0.6212,-1.4787,-6.2387,-2.2465401695319547,-30.773822119823418,-0.026598092093497873,1.8260000000009313
-0.5478,0.918,-0.035,0.3534,0.2838,0.0522,-0.6212,-1.4787,-6.2387,-2.238135193574826,-30.784339218223003,-0.025944489359611855,1.841999999996915
-0.5478,0.9162,-0.0323,0.3534,0.2838,0.0522,-0.9275,-1.3212,-6.3612,-2.209120668815877,-30.811863673765526,-0.022772473427725037,1.8579999999928987
-0.5478,0.9162,-0.0323,0.3514,0.2848,0.0506,-0.9275,-1.3212,-6.3612,-2.183949329339518,-30.829337610289613,-0.022761087191011175,1.8579999999928987
-0.5438,0.9167,-0.0318,0.3514,0.2848,0.0506,-0.91,-1.4088,-6.0637,-2.1604690239529423,-30.792955283647878,-0.021101446189180122,1.8729999999995925
-0.5449,0.9152,-0.0353,0.3514,0.2848,0.0506,-0.875,-1.3388,-6.4837,-2.1648744716026918,-30.775460994050757,-0.018213310978807868,1.8889999999955762
-0.5449,0.9152,-0.0353,0.3534,0.2858,0.0558,-0.875,-1.3388,-6.4837,-2.168878765123257,-30.76515612385374,-0.018204204323318464,1.8889999999955762
-0.5471,0.9176,-0.0356,0.3534,0.2858,0.0558,-0.8225,-1.575,-6.0113,-2.171286449332255,-30.768930577368206,-0.019038595263624076,1.9039999999949941
-0.5483,0.9184,-0.0351,0.3534,0.2858,0.0558,-0.8225,-1.575,-6.0113,-2.1720790299266923,-30.778227936390245,-0.019928801877766418,1.9199999999909778
-0.5483,0.9184,-0.0334,0.3529,0.2855,0.0462,-0.6212,-1.365,-6.0287,-2.160189308276034,-30.786626944651942,-0.019918837476827538,1.9199999999909778
-0.5477,0.9174,-0.0334,0.3529,0.2855,0.0462,-0.98,-1.0325,-5.9588,-2.1473986367942146,-30.791700165419712,-0.012132943968504962,1.9359999999942374
-0.547,0.9161,-0.0346,0.3529,0.2855,0.0462,-0.98,-1.0325,-5.9588,-2.1500487786921174,-30.796355567043683,-0.004836939289303599,1.9509999999936554
-0.547,0.9161,-0.0348,0.3541,0.2856,0.0551,-0.63,-1.435,-6.2125,-2.153262728845183,-30.80434917128292,-0.004834520819658947,1.9509999999936554
-0.5484,0.9157,-0.0348,0.3541,0.2856,0.0551,-0.63,-1.435,-6.2125,-2.1561902118392737,-30.832522506615184,-0.003492949470976299,1.966999999996915
-0.5491,0.9186,-0.0296,0.3541,0.2856,0.0551,-0.2887,-1.6888,-6.125,-2.054594279621157,-30.838490058133452,-0.0034912029962408113,1.966999999996915
-0.5491,0.916,-0.0333,0.3518,0.2849,0.0502,-0.7437,-1.5488,-6.0375,-2.055421301066145,-30.85568700658155,-0.003940146937225203,1.981999999996333
-0.5481,0.916,-0.0333,0.3518,0.2849,0.0502,-0.7437,-1.5488,-6.0375,-2.056223363141412,-30.860180561262673,-0.004418912375635918,1.9979999999923166
-0.5473,0.919,-0.0376,0.3518,0.2849,0.0502,-0.7875,-1.7413,-5.88,-2.059813123440515,-30.851091624351742,-0.0044167029194481,1.9979999999923166
-0.5473,0.9196,-0.0347,0.3521,0.2852,0.0606,-0.7875,-1.7413,-6.2213,-2.061079731734326,-30.817729967348935,-0.007973690080713483,2.013999999995576
-0.5481,0.9196,-0.0347,0.3521,0.2852,0.0606,-0.5775,-1.715,-6.2213,-2.0775404149283134,-30.80564014640096,-0.010912146278058948,2.028999999994994
-0.5458,0.917,-0.0337,0.3521,0.2852,0.0606,-0.9363,-1.3913,-6.2475,-2.0813147978995663,-30.78623705158663,-0.01090669020491992,2.028999999994994
-0.5454,0.9163,-0.0353,0.3521,0.2849,0.0467,-0.9363,-1.3913,-6.2475,-2.098677660519985,-30.77267313982031,-0.008863232371402265,2.0449999999982538
-0.5454,0.9163,-0.0353,0.3521,0.2849,0.0467,-0.9887,-1.2862,-6.1512,-2.1176227207802283,-30.76481083823361,-0.008858800755216565,2.0449999999982538
-0.5497,0.9182,-0.0378,0.3521,0.2849,0.0467,-1.1725,-1.5313,-6.02,-2.1858443445619606,-30.787859943808055,-0.009042692147331654,2.0599999999976717
-0.5471,0.9172,-0.033,0.3522,0.2851,0.0588,-1.1725,-1.5313,-6.02,-2.1501972537609864,-30.7900333467092,-0.009239046313207568,2.0759999999936554
-0.5471,0.9172,-0.033,0.3522,0.2851,0.0588,-0.7262,-1.575,-6.4225,-2.146041234518311,-30.793646172984353,-0.009234426790050964,2.0759999999936554
-0.5467,0.9166,-0.0346,0.3522,0.2851,0.0588,-0.7262,-1.575,-6.4225,-2.146771243344637,-30.794460765933465,-0.01012953548883924,2.091999999996915
-0.5453,0.917,-0.037,0.3509,0.2866,0.0502,-0.7962,-1.5137,-6.405,-2.1502001535629645,-30.765089920761945,-0.010124470721094821,2.091999999996915
-0.5453,0.917,-0.037,0.3509,0.2866,0.0502,-0.7613,-1.6712,-6.1425,-2.1523393012714327,-30.7526201052139,-0.012405180028145578,2.106999999996333
-0.546,0.9186,-0.0347,0.3509,0.2866,0.0502,-0.7613,-1.6712,-6.1425,-2.152485666747215,-30.741046926664286,-0.014837133750628227,2.1229999999995925
-0.5467,0.9166,-0.0372,0.3524,0.2855,0.0628,-0.2975,-1.4088,-5.985,-2.2079211987204648,-30.74965961145992,-0.014829715183752914,2.1229999999995925
-0.5467,0.9166,-0.0372,0.3524,0.2855,0.0628,-0.2975,-1.4088,-5.985,-2.2454456142145114,-30.756843002561318,-0.013174039868725002,2.1379999999990105
-0.5469,0.9171,-0.0318,0.3524,0.2855,0.0628,-0.735,-1.3913,-6.4225,-2.2355068328776664,-30.771300858475836,-0.011129448361302223,2.153999999994994
-0.5472,0.9167,-0.0345,0.353,0.2858,0.0491,-0.9887,-1.2513,-5.9412,-2.2213763250920704,-30.777323749911883,-0.011123883637121572,2.153999999994994
-0.5472,0.9167,-0.0345,0.353,0.2858,0.0491,-0.9887,-1.2513,-5.9412,-2.2097355565277743,-30.78253759809731,-0.0068414372064316996,2.1699999999982538
-0.5492,0.9175,-0.0372,0.353,0.2858,0.0491,-0.7088,-1.6275,-5.9325,-2.216674722405486,-30.795410119482433,-0.006838016487828484,2.1699999999982538
-0.5475,0.9173,-0.0343,0.3514,0.2852,0.059,-0.7088,-1.6275,-5.9325,-2.212014538268055,-30.79774551947883,-0.008465196771230352,2.1849999999903957
-0.5475,0.9173,-0.0343,0.3514,0.2852,0.059,-0.9187,-1.1725,-5.9412,-2.2031356879057946,-30.799887292125415,-0.0029239100837166947,2.2009999999936554
-0.5469,0.916,-0.0347,0.3514,0.2852,0.059,-1.0675,-1.4525,-5.74,-2.1955080684004753,-30.800831084032158,-0.0029224481286748366,2.2009999999936554
-0.5478,0.9171,-0.0373,0.3527,0.2846,0.061,-1.0675,-1.4525,-5.74,-2.2257397707397732,-30.80210470450473,-0.0019278986971490372,2.2159999999930733
-0.5478,0.9171,-0.0373,0.3527,0.2846,0.061,-0.6737,-1.47,-5.7312,-2.2352254095159703,-30.803542968741652,-0.0019269347478004628,2.2159999999930733
-0.5481,0.9195,-0.0335,0.3527,0.2846,0.061,-0.6737,-1.47,-5.7312,-2.2215698438444518,-30.802413738449026,-0.001146537192267773,2.231999999996333
-0.5487,0.9179,-0.0347,0.3534,0.2865,0.0543,-0.7262,-1.6538,-6.0025,-2.218945164015952,-30.81124106169648,-0.0011459639236716392,2.231999999996333
-0.5487,0.9179,-0.0347,0.3534,0.2865,0.0543,-0.7437,-1.2862,-5.7225,-2.2173159161729257,-30.81367687251706,0.002573372747047806,2.2479999999995925
-0.5456,0.9149,-0.0369,0.3534,0.2865,0.0543,-0.7437,-1.2862,-5.7225,-2.2201015606054004,-30.81221653232902,0.006058427016347894,2.2629999999917345
-0.5468,0.9154,-0.0351,0.3532,0.2858,0.057,-0.28,-1.4612,-6.0462,-2.212079543814474,-30.81646667318349,0.006055397802839721,2.2629999999917345
-0.5468,0.9154,-0.0351,0.3532,0.2858,0.057,-0.28,-1.4612,-6.2213,-2.2067129965663277,-30.821420824716476,0.0069725337921257595,2.278999999994994
-0.5475,0.9185,-0.0332,0.3532,0.2858,0.057,-0.7088,-1.6538,-6.2213,-2.1982528505768952,-30.809435336985786,0.006969047525229697,2.278999999994994
-0.5487,0.9188,-0.032,0.3539,0.2847,0.0571,-1.1638,-1.7763,-6.0462,-2.1412464427643108,-30.81368628227395,0.003104079709116926,2.293999999994412
-0.5487,0.9188,-0.032,0.3539,0.2847,0.0571,-1.1638,-1.7763,-6.0462,-2.1002045510375096,-30.817059587892675,-0.0010163878435767689,2.3099999999976717
-0.55,0.9176,-0.0379,0.3539,0.2847,0.0571,-0.805,-1.4088,-5.985,-2.1079670763594054,-30.833563646457744,-0.0010158796496549805,2.3099999999976717
-0.5465,0.9173,-0.0367,0.3525,0.2857,0.0522,-1.0762,-1.435,-6.44,-2.150380079519746,-30.806486427780722,0.00032378237844266517,2.3260000000009313
-0.5465,0.9173,-0.0367,0.3525,0.2857,0.0522,-1.0762,-1.435,-6.44,-2.18297084514514,-30.79011540174339,0.00032362048725344386,2.3260000000009313
-0.5481,0.9184,-0.0334,0.3525,0.2857,0.0522,-0.735,-1.6013,-6.3525,-2.1791345738339762,-30.798044141550452,-0.0009143371148417418,2.3409999999930733
-0.5467,0.9179,-0.0321,0.353,0.2848,0.0459,-0.735,-1.6013,-6.3525,-2.1723851253406097,-30.78521924160274,-0.000913879946284321,2.3409999999930733
-0.5467,0.9179,-0.0321,0.353,0.2848,0.0459,-0.5425,-1.4787,-5.9938,-2.140430073717311,-30.781324509405657,-0.00027311931818073284,2.356999999996333
-0.5472,0.9152,-0.0338,0.353,0.2848,0.0459,-0.735,-1.5225,-5.845,-2.13945916199452,-30.785599751340463,-0.0003293695510194563,2.371999999995751
-0.549,0.9186,-0.0377,0.3527,0.2858,0.0525,-0.735,-1.5225,-5.845,-2.1475270401384297,-30.788816547160287,-0.00032920486624394657,2.371999999995751
-0.549,0.9186,-0.0377,0.3527,0.2858,0.0525,-0.9538,-2.0125,-6.475,-2.178285820075841,-30.811067917474688,-0.008225266177419503,2.3879999999990105
-0.5479,0.9188,-0.0351,0.3527,0.2858,0.0525,-0.9538,-2.0125,-6.475,-2.179722526330308,-30.802534531990606,-0.008221153544330794,2.3879999999990105
-0.5472,0.9188,-0.0372,0.3526,0.2855,0.0508,-1.1025,-1.9863,-5.9237,-2.2139742416768695,-30.796865480036267,-0.015694278481081944,2.40400000000227
-0.5472,0.9188,-0.0372,0.3526,0.2855,0.0508,-0.98,-1.995,-6.0988,-2.231769976745215,-30.787054703638322,-0.022826774380600805,2.418999999994412
-0.5506,0.9158,-0.0382,0.3526,0.2855,0.055,-0.98,-1.995,-6.0988,-2.25846101160218,-30.83618471547585,-0.022815360993410506,2.418999999994412
-0.5475,0.9154,-0.0315,0.3522,0.2847,0.055,-0.6125,-1.5838,-6.1687,-2.2182941846398063,-30.845177398458564,-0.023844408825125774,2.4349999999976717
-0.5475,0.9154,-0.0315,0.3522,0.2847,0.055,-0.6125,-1.5838,-6.1687,-2.1837366948608614,-30.85168124245245,-0.023832486620713213,2.4349999999976717
-0.5441,0.9172,-0.0331,0.3522,0.2862,0.0556,-0.9887,-1.715,-6.37,-2.1631326623478837,-30.781323975004447,-0.026763013419788678,2.4499999999970896
-0.5491,0.9163,-0.0345,0.3538,0.2862,0.0556,-0.6125,-1.6888,-6.0725,-2.16217137492477,-30.810999820164987,-0.026749631913078786,2.4499999999970896
-0.5491,0.9163,-0.0345,0.3538,0.2862,0.0556,-0.6125,-1.6888,-6.0725,-2.161344332242758,-30.8340674385512,-0.029455872608439574,2.4659999999930733
-0.5485,0.9176,-0.0365,0.3523,0.2846,0.0587,-0.1925,-1.505,-6.195,-2.204235882472213,-30.838442506056282,-0.029221430584090595,2.481999999996333
-0.5474,0.9173,-0.0348,0.3523,0.2846,0.0587,-0.1925,-1.505,-6.195,-2.1925979406420173,-30.829771336872604,-0.029000837911306546,2.496999999995751
-0.5474,0.9173,-0.0348,0.3523,0.2846,0.0587,-0.4462,-1.8112,-6.5625,-2.187654749175312,-30.820504073253574,-0.028986337492350894,2.496999999995751
-0.5494,0.916,-0.033,0.3519,0.2833,0.0562,-0.8662,-1.7763,-6.1687,-2.177238958839282,-30.85306943370942,-0.033090759836443856,2.5129999999990105
-0.5475,0.9163,-0.0363,0.3519,0.2833,0.0562,-0.8662,-1.7763,-6.1687,-2.1848914783848197,-30.849185274420027,-0.033074214456525634,2.5129999999990105
-0.5475,0.9163,-0.0345,0.3519,0.2833,0.0562,-0.5512,-1.1287,-5.8625,-2.179657033844386,-30.848599979540282,-0.027210017644860782,2.5279999999911524
-0.547,0.917,-0.0345,0.3527,0.2838,0.0504,-0.5512,-1.1287,-5.6613,-2.175078670378296,-30.843065085924167,-0.027196412636038354,2.5279999999911524
-0.5463,0.9178,-0.0346,0.3527,0.2838,0.0504,-0.6825,-1.4525,-5.6613,-2.173716573173001,-30.832123709387254,-0.02612352034150453,2.543999999994412
-0.5463,0.918,-0.0367,0.3527,0.2838,0.0504,-0.9363,-1.7763,-6.1863,-2.189795031300615,-30.80484430828056,-0.030229374092299848,2.5599999999903957
-0.5499,0.918,-0.0367,0.3543,0.2867,0.0506,-0.9363,-1.7763,-6.1863,-2.2036380972893097,-30.83269400575512,-0.0302142594052537,2.5599999999903957
-0.5488,0.9168,-0.0336,0.3543,0.2867,0.0506,-0.735,-1.9688,-6.3088,-2.199627466552873,-30.851666240816368,-0.03694669182106222,2.5749999999970896
-0.5332,0.9177,-0.0325,0.3543,0.2867,0.0506,-0.6913,-1.8725,-6.0813,-2.186418309411918,-30.689833557054186,-0.036928218475151695,2.5749999999970896
-0.545,0.9177,-0.0325,0.3532,0.2866,0.0521,-0.6913,-1.8725,-6.0813,-2.1742273306280158,-30.68971131658948,-0.04256710027906668,2.5910000000003492
-0.5472,0.9165,-0.0342,0.3532,0.2866,0.0521,-1.1463,-1.8637,-6.6062,-2.164157601892872,-30.749293594986785,-0.047717644518717794,2.605999999992491
-0.5488,0.9152,-0.0387,0.3532,0.2866,0.0521,-1.1463,-1.8637,-6.6062,-2.23382310428677,-30.829123030881963,-0.047693785696458435,2.605999999992491
-0.5488,0.9152,-0.0387,0.353,0.2853,0.0523,-0.9887,-1.6187,-6.1512,-2.266865936082681,-30.855158668585094,-0.049268515115935885,2.621999999995751
-0.5477,0.9179,-0.0369,0.353,0.2853,0.0523,-0.4462,-1.3825,-5.9588,-2.2755749916611037,-30.847573826535776,-0.04924388085837792,2.621999999995751
-0.5476,0.9194,-0.0321,0.353,0.2853,0.0523,-0.4462,-1.3825,-5.9588,-2.2073198461606016,-30.835104601379832,-0.047040524830495645,2.6379999999917345
-0.5476,0.9194,-0.0321,0.3526,0.285,0.0523,-1.05,-1.3125,-6.3088,-2.16249804151566,-30.810327896824408,-0.043924966359200554,2.6529999999984284
-0.5459,0.9181,-0.0339,0.3526,0.285,0.0523,-1.05,-1.3125,-6.3088,-2.152168968457693,-30.778792463732113,-0.04060482978734903,2.669000000001688
-0.5494,0.9157,-0.0354,0.3526,0.285,0.0523,-1.2775,-1.645,-5.8888,-2.1728167892248917,-30.79418561904044,-0.04058452737245535,2.669000000001688
-0.5494,0.9157,-0.0354,0.3527,0.2874,0.0546,-1.085,-0.9275,-5.9763,-2.1825412526224595,-30.818128781305578,-0.031700084405912786,2.68399999999383
-0.5492,0.9171,-0.0365,0.3527,0.2874,0.0546,-1.085,-0.9275,-5.9763,-2.205409009685623,-30.830426058065687,-0.03168423436370983,2.68399999999383
-0.5483,0.9185,-0.0336,0.3527,0.2874,0.0546,-1.1725,-0.6388,-6.2737,-2.17400144093966,-30.82644984299914,-0.017596407755661143,2.6999999999970896
-0.5483,0.9185,-0.0336,0.3517,0.2858,0.0551,-1.1725,-0.6388,-6.2737,-2.1515302413268995,-30.823777066293957,-0.0035156250673156722,2.7159999999930733
-0.547,0.9179,-0.0359,0.3517,0.2858,0.0551,-1.4088,-1.7413,-6.2825,-2.185761052461795,-30.80677818833963,-0.00685061304877107,2.730999999999767
-0.5475,0.9174,-0.0327,0.3517,0.2858,0.0551,-1.015,-1.7763,-6.2038,-2.1578029529342495,-30.808478700379027,-0.0068471877422466845,2.730999999999767
-0.5475,0.9174,-0.0327,0.3539,0.2856,0.0547,-1.015,-1.7763,-6.2038,-2.1352593891096583,-30.809678125984412,-0.010962679659341631,2.746999999995751
-0.5461,0.9174,-0.0342,0.3539,0.2856,0.0547,-0.8225,-1.645,-6.475,-2.13524558353251,-30.783927969398253,-0.010957198319511962,2.746999999995751
-0.5473,0.9158,-0.0346,0.3539,0.2856,0.0547,-0.8225,-1.645,-6.475,-2.1365393330430407,-30.80899338535091,-0.012844687762778752,2.7619999999951688
-0.5473,0.9158,-0.0346,0.3526,0.284,0.058,-1.2337,-1.3125,-6.2737,-2.1450739699842143,-30.82091936257196,-0.00954009133022544,2.7779999999984284
-0.5489,0.9175,-0.0348,0.3526,0.284,0.058,-0.9363,-1.3913,-5.985,-2.148836868473229,-30.829411370206383,-0.009535321284560328,2.7779999999984284
-0.5483,0.9175,-0.0332,0.3526,0.284,0.058,-0.9363,-1.3913,-5.985,-2.1382042686805653,-30.83218536894541,-0.007492549136429632,2.793999999994412
-0.5483,0.9175,-0.0332,0.3532,0.2837,0.051,-0.77,-1.6013,-6.0113,-2.1378884868593615,-30.834748607339698,-0.0074888028618614174,2.793999999994412
-0.5482,0.9163,-0.0354,0.3532,0.2837,0.051,-0.77,-1.6013,-6.1512,-2.1382460465687325,-30.84477605016181,-0.008722854252882457,2.80899999999383
-0.5455,0.9174,-0.0377,0.3532,0.2837,0.051,-0.9363,-1.2687,-6.1512,-2.1681327423597025,-30.810096864761537,-0.004719869138759754,2.8249999999898137
-0.5455,0.9174,-0.0377,0.3526,0.286,0.0495,-0.5425,-1.0938,-6.125,-2.203024115228716,-30.786055243684704,-0.004717509204190375,2.8249999999898137
-0.5468,0.9173,-0.0349,0.3526,0.286,0.0495,-0.5425,-1.0938,-6.125,-2.198466684831897,-30.78473263799034,0.0016557475107547859,2.8399999999965075
-0.5475,0.9179,-0.0331,0.3526,0.286,0.0495,-0.3063,-1.5838,-6.0988,-2.155956620819437,-30.787998747727528,0.0006144641247874356,2.855999999999767
-0.5475,0.9179,-0.0331,0.3522,0.287,0.0547,-0.3063,-1.75,-6.0287,-2.1270090457370165,-30.7900379770239,0.0006141568927250419,2.855999999999767
-0.5455,0.9163,-0.0354,0.3522,0.287,0.0547,-0.8138,-1.75,-6.0287,-2.1302144345805982,-30.78178766880908,-0.003084476096792968,2.871999999995751
-0.5497,0.9171,-0.037,0.3522,0.287,0.0547,-0.9712,-1.9863,-6.5363,-2.1597780716476045,-30.839954950578374,-0.0030829338587445715,2.871999999995751
-0.5497,0.9171,-0.037,0.3542,0.2838,0.0522,-0.9712,-1.9863,-6.5363,-2.184488959790267,-30.873188231902247,-0.01009130068404318,2.8869999999951688
-0.548,0.9174,-0.0329,0.3542,0.2838,0.0522,-0.8575,-1.4963,-6.5625,-2.174514270019052,-30.856656875107642,-0.01008625503370116,2.8869999999951688
-0.5451,0.9173,-0.033,0.3542,0.2838,0.0522,-0.63,-1.435,-6.44,-2.1600707049728523,-30.796445054743796,-0.00874205781852047,2.9029999999911524
-0.5451,0.9173,-0.033,0.3522,0.2858,0.0574,-0.63,-1.435,-6.44,-2.1474542432909627,-30.76004067766616,-0.007482229831550954,2.9179999999978463
-0.5475,0.9163,-0.0356,0.3522,0.2858,0.0574,-0.6913,-1.2163,-6.195,-2.153426257027239,-30.783188895487037,-0.007478488716635178,2.9179999999978463
-0.5497,0.9165,-0.0355,0.3522,0.2858,0.0574,-0.6913,-1.2163,-6.195,-2.1584193969029415,-30.827434070439054,-0.0026381449832915166,2.934000000001106
-0.5497,0.9165,-0.0355,0.3534,0.2841,0.0481,-0.9712,-1.6187,-6.4575,-2.1682327721651724,-30.870895213369142,-0.004235402222398599,2.9499999999970896
-0.5492,0.9169,-0.0362,0.3534,0.2841,0.0481,-0.7175,-1.12,-6.3963,-2.1732570859925264,-30.882259293413068,0.0017448099359806165,2.9649999999965075
-0.5464,0.9181,-0.035,0.3534,0.2841,0.0481,-0.7175,-1.12,-6.3963,-2.1737952661369953,-30.828488518828934,0.0017439375310126263,2.9649999999965075
-0.5464,0.9181,-0.035,0.3525,0.2847,0.0504,-1.0325,-1.225,-6.2913,-2.175718982163628,-30.798912950619492,0.006440539649067954,2.980999999992491
-0.5474,0.9179,-0.0355,0.3525,0.2847,0.0504,-1.0325,-1.225,-6.2913,-2.183731045150871,-30.796384375254224,0.006437319379243421,2.980999999992491
-0.5469,0.9174,-0.0346,0.3525,0.2847,0.0504,-0.91,-1.4438,-6.3963,-2.1808934982835315,-30.791314496700753,0.00755762367755518,2.995999999999185
-0.5469,0.9174,-0.0346,0.353,0.2854,0.0493,-0.735,-1.6538,-6.0375,-2.1800896760972686,-30.78964516511745,0.007553844865716403,2.995999999999185
-0.5459,0.9152,-0.0348,0.353,0.2854,0.0493,-0.735,-1.6538,-6.0375,-2.1799940630475763,-30.79114190753271,0.005390172431825721,3.0119999999951688
-0.55,0.9188,-0.0347,0.353,0.2854,0.0493,-0.8575,-1.3038,-6.4662,-2.1786842026534115,-30.829962821920166,0.008824781832746972,3.0279999999911524
-0.55,0.9188,-0.0347,0.3528,0.2854,0.0571,-0.8575,-1.3038,-6.4662,-2.177474372247073,-30.853068143510725,0.0088203694418306,3.0279999999911524
-0.548,0.9182,-0.0329,0.3528,0.2854,0.0571,-1.2687,-1.82,-6.335,-2.136020536501394,-30.83901606617585,0.004299303712594084,3.0429999999978463
-0.5457,0.9174,-0.0356,0.3528,0.2854,0.0571,-0.9363,-1.6275,-6.1775,-2.1480112656265407,-30.80740373698585,0.004297154060737787,3.0429999999978463
-0.5457,0.9174,-0.0356,0.3513,0.2843,0.0512,-0.9363,-1.6275,-6.1775,-2.1583349206197315,-30.784685112974728,0.002555699572144018,3.05899999999383
-0.548,0.9168,-0.035,0.3513,0.2843,0.0512,-1.1113,-1.4787,-6.16,-2.1653698416431166,-30.80238352723198,0.0025544217223579463,3.05899999999383
-0.5469,0.9162,-0.0342,0.3513,0.2843,0.0512,-1.1113,-1.4787,-6.16,-2.158416024643879,-30.806186791494223,0.003153429219264649,3.074000000000524
-0.5469,0.9162,-0.0342,0.3521,0.2838,0.0506,-0.77,-1.61,-6.16,-2.158316911375189,-30.808954871383946,0.003151852504655017,3.074000000000524
-0.549,0.9155,-0.0382,0.3521,0.2838,0.0506,-0.5425,-1.785,-6.055,-2.2018675611915905,-30.834182193966196,-0.00110776933059212,3.0899999999892316
-0.5453,0.9185,-0.0315,0.3521,0.2838,0.0506,-0.5425,-1.785,-6.055,-2.157060458424908,-30.801968858290568,-0.005365261358794304,3.105999999992491
-0.5453,0.9185,-0.0336,0.3534,0.288,0.0484,-0.7437,-1.8725,-5.985,-2.155188228074165,-30.781756001977264,-0.005362578728114907,3.105999999992491
-0.5449,0.917,-0.0336,0.3534,0.288,0.0484,-0.7437,-1.8725,-6.3088,-2.153475834501248,-30.754637695438618,-0.010663659233617702,3.120999999999185
-0.5503,0.9188,-0.0348,0.3534,0.288,0.0484,-0.42,-1.26,-6.3088,-2.1575595632606857,-30.804781378885032,-0.006520573317039558,3.1369999999951688
-0.5503,0.9188,-0.0327,0.3543,0.2841,0.0462,-0.7613,-0.8575,-6.1163,-2.155968675415477,-30.82912110403139,-0.006517313030381038,3.1369999999951688
-0.5466,0.9152,-0.0327,0.3543,0.2841,0.0462,-0.7613,-0.8575,-6.1163,-2.1545058633486116,-30.82971807833389,0.0033995713332494503,3.1519999999945867
-0.5508,0.9147,-0.0368,0.3543,0.2841,0.0462,-0.7437,-1.5925,-6.335,-2.159013592272861,-30.902257050570128,0.002218285635878923,3.1679999999905704
-0.5508,0.9184,-0.0321,0.3521,0.2854,0.0606,-0.5775,-1.5137,-6.2387,-2.1331034275241234,-30.913183302466344,0.0022171764930609835,3.1679999999905704
-0.5478,0.9184,-0.0321,0.3521,0.2854,0.0606,-0.5775,-1.5137,-6.2387,-2.111463275861335,-30.87776210464154,0.0022966515928308667,3.18399999999383
-0.5464,0.9174,-0.0352,0.3521,0.2854,0.0606,-0.77,-1.4963,-6.3263,-2.1118750415519782,-30.836225357194845,0.0022955032670344514,3.18399999999383
-0.5478,0.9166,-0.0356,0.3518,0.285,0.048,-0.77,-1.4963,-6.3263,-2.1124137569421144,-30.839430165732807,0.0026307722230510615,3.199000000000524
-0.5478,0.9166,-0.0356,0.3518,0.285,0.048,-0.7088,-1.3475,-6.055,-2.1193369501666606,-30.84068748236709,0.005367910924252127,3.2149999999965075
-0.548,0.9178,-0.0327,0.3518,0.285,0.048,-0.5863,-1.925,-6.0113,-2.1068336324896526,-30.83772702647313,0.005365226968790001,3.2149999999965075
-0.5466,0.9153,-0.0358,0.3515,0.2866,0.0484,-0.5863,-1.925,-6.0113,-2.127933844929479,-30.835494347604893,-0.0007283236869580398,3.2299999999959255
-0.5466,0.9153,-0.0358,0.3515,0.2866,0.0484,-0.7962,-2.0563,-5.9325,-2.1302768430448356,-30.834228124580545,-0.0007279595251145608,3.2299999999959255
-0.5477,0.9184,-0.0349,0.3515,0.2866,0.0484,-0.7962,-2.0563,-5.9325,-2.131239059212809,-30.828847689619362,-0.009324271055194063,3.245999999991909
-0.5462,0.9163,-0.0316,0.3521,0.2854,0.057,-0.875,-1.68,-6.055,-2.117025742694118,-30.819320326103615,-0.011898494832191856,3.2619999999951688
-0.5462,0.9163,-0.0316,0.3521,0.2854,0.057,-0.6212,-1.8813,-6.2213,-2.0981331048967804,-30.808578152117622,-0.011892545584775762,3.2619999999951688
-0.5493,0.9171,-0.0342,0.3521,0.2854,0.057,-0.6212,-1.8813,-6.2213,-2.10312945852388,-30.836937171937965,-0.017322295104272443,3.2769999999945867
-0.5457,0.9182,-0.034,0.3516,0.2846,0.0538,-0.6212,-1.8025,-6.1163,-2.1054605176331167,-30.804531296005567,-0.01731363395672031,3.2769999999945867
-0.5457,0.9182,-0.034,0.3516,0.2846,0.0538,-0.6212,-1.8025,-6.1163,-2.1074811666595603,-30.780170957719573,-0.021842883052666445,3.2929999999978463
-0.5483,0.9171,-0.0368,0.3516,0.2846,0.0538,-1.0588,-1.6363,-6.3175,-2.1495844847779733,-30.80556254749639,-0.02359449490357172,3.3079999999972642
-0.5482,0.9168,-0.0343,0.3519,0.2857,0.0397,-0.9625,-1.6538,-6.4575,-2.1484796374514223,-30.827287149235442,-0.023582697656119936,3.3079999999972642
-0.5482,0.9168,-0.0343,0.3519,0.2857,0.0397,-0.9625,-1.6538,-6.4575,-2.14754938149334,-30.840284436500227,-0.0257308018187497,3.323999999993248
-0.5465,0.9162,-0.035,0.3519,0.2857,0.0397,-0.9712,-2.0387,-6.02,-2.1541411761584497,-30.832093729468387,-0.03403315273153436,3.3399999999965075
-0.5463,0.9162,-0.0345,0.353,0.285,0.0482,-0.9712,-2.0387,-6.02,-2.154525788353818,-30.82380607963234,-0.034016136155168596,3.3399999999965075
-0.5463,0.9162,-0.0345,0.353,0.285,0.0482,-0.8575,-1.575,-6.2825,-2.154675352945227,-30.8120545697336,-0.034842621129558285,3.3549999999959255
-0.5466,0.9178,-0.0334,0.353,0.285,0.0482,-1.1113,-1.6975,-6.0725,-2.1369200027881736,-30.80033874825828,-0.037683945730275906,3.370999999991909
-0.5459,0.9168,-0.0338,0.3526,0.2844,0.0572,-1.1113,-1.6975,-6.0725,-2.1304919395222734,-30.790061516742135,-0.03766510375741077,3.370999999991909
-0.5459,0.9168,-0.0338,0.3526,0.2844,0.0572,-0.7088,-1.47,-5.9062,-2.129308833696613,-30.786212830243972,-0.03691555174770598,3.385999999998603
-0.5483,0.917,-0.0364,0.3526,0.2844,0.0572,-0.7088,-1.47,-5.7488,-2.138216536173808,-30.788736403806467,-0.03689709397183213,3.385999999998603
-0.5442,0.9198,-0.0329,0.3546,0.2869,0.0579,-0.49,-1.3825,-5.7488,-2.1183323844302113,-30.781770166081188,-0.03469991133739312,3.4019999999945867
-0.5442,0.9198,-0.0329,0.3546,0.2869,0.0579,-0.8487,-1.6625,-6.0375,-2.1135293608586307,-30.744169366170276,-0.036981587294192805,3.4179999999978463
-0.5472,0.9185,-0.0341,0.3546,0.2869,0.0579,-0.8487,-1.6625,-6.0375,-2.1143991651730065,-30.748795420485195,-0.03696309650054571,3.4179999999978463
-0.5478,0.9181,-0.0354,0.3526,0.2858,0.0507,-0.6562,-1.6363,-6.3,-2.1243363791932492,-30.767676098694285,-0.03870714824387211,3.4329999999899883
-0.5478,0.9181,-0.0354,0.3526,0.2858,0.0507,-0.4288,-1.3125,-5.9325,-2.1458720865639895,-30.772369301150615,-0.03538962058107825,3.448999999993248
-0.5473,0.9169,-0.0315,0.3526,0.2858,0.0507,-0.4288,-1.3125,-5.9325,-2.1000481842091427,-30.778226831466167,-0.03537192577078772,3.448999999993248
-0.5481,0.9166,-0.0373,0.3534,0.2857,0.0479,-0.6825,-1.3913,-6.2038,-2.1195083654758835,-30.80153152433354,-0.03344361059954969,3.463999999999942
-0.5481,0.9166,-0.0373,0.3534,0.2857,0.0479,-0.6825,-1.3913,-6.2038,-2.1373238399542553,-30.81796907061557,-0.03342688879424992,3.463999999999942
-0.5487,0.9176,-0.0334,0.3534,0.2857,0.0479,-0.56,-1.5313,-5.8538,-2.128001650925472,-30.820736963242172,-0.033611050861802376,3.4799999999959255
-0.5472,0.9174,-0.0348,0.3527,0.2855,0.0548,-0.4288,-1.6538,-5.9237,-2.139408853149068,-30.81781808769362,-0.033594245336371474,3.4799999999959255
-0.5472,0.9174,-0.0348,0.3527,0.2855,0.0548,-0.4288,-1.6538,-5.9237,-2.1478836237307575,-30.815252431205153,-0.03573734372614332,3.495999999999185
-0.5482,0.9171,-0.0393,0.3527,0.2855,0.0548,-0.56,-1.4438,-5.8538,-2.201973167785955,-30.81719700508328,-0.03459595209736883,3.510999999991327
-0.5486,0.9179,-0.034,0.3526,0.2848,0.0483,-0.56,-1.4438,-5.8538,-2.187712383450775,-30.819161009861258,-0.03457865412132014,3.510999999991327
-0.5486,0.9179,-0.034,0.3526,0.2848,0.0483,-0.5425,-1.5137,-5.985,-2.1751973415878947,-30.823970235593546,-0.03448078110624307,3.5269999999945867
-0.5475,0.9167,-0.0351,0.3526,0.2848,0.0483,-0.6825,-1.575,-6.1512,-2.1766813836694867,-30.825404059360554,-0.03446354071568995,3.5269999999945867
-0.5492,0.9183,-0.0335,0.3542,0.286,0.0501,-0.6825,-1.575,-6.1512,-2.1692919463162763,-30.836061000316903,-0.03528980198779938,3.5419999999940046
-0.5492,0.9183,-0.0335,0.3542,0.286,0.0501,-0.7788,-1.6888,-6.3263,-2.1689745609026505,-30.84629746822886,-0.03799177259935955,3.5579999999972642
-0.545,0.917,-0.0326,0.3542,0.286,0.0501,-0.7788,-1.6888,-6.3263,-2.168447479009181,-30.797916966181877,-0.03797277671305987,3.5579999999972642
-0.5458,0.917,-0.0379,0.3528,0.285,0.0504,-1.2775,-1.3125,-6.335,-2.234771454134428,-30.777283102270307,-0.03465561623603142,3.574000000000524
-0.5458,0.917,-0.0379,0.3528,0.285,0.0504,-0.5512,-1.5662,-6.1337,-2.2588838611806534,-30.76758658269882,-0.03534984747004064,3.588999999992666
-0.5498,0.9183,-0.0365,0.3528,0.285,0.049,-0.5512,-1.5662,-6.1337,-2.2620407054546448,-30.79907973924773,-0.03533217254630562,3.588999999992666
-0.5465,0.9173,-0.0373,0.3511,0.2837,0.049,-0.5688,-1.785,-6.2213,-2.2733979051203788,-30.78856819914708,-0.03957255237289995,3.6049999999959255
-0.5465,0.9173,-0.0373,0.3511,0.2837,0.049,-0.5688,-1.785,-6.2213,-2.2828150035788055,-30.781244472285096,-0.0435446841390586,3.6199999999953434
-0.5485,0.9173,-0.0373,0.3511,0.2843,0.0484,-1.0237,-1.645,-6.3437,-2.291924209524284,-30.808184354199838,-0.04352291179698907,3.6199999999953434
-0.5495,0.9177,-0.0355,0.3525,0.2843,0.0484,-0.5075,-1.7325,-6.125,-2.275762968408699,-30.82976630449789,-0.04691961625378701,3.635999999998603
-0.5495,0.9177,-0.0355,0.3525,0.2843,0.0484,-0.5075,-1.7325,-6.125,-2.263010661281933,-30.845884602937325,-0.04689615644566012,3.635999999998603
-0.5474,0.917,-0.0339,0.3528,0.285,0.0572,-0.5512,-1.4088,-6.4662,-2.236357553971329,-30.83448597608929,-0.046872708367437295,3.635999999998603
-0.5495,0.916,-0.039,0.3528,0.285,0.0572,-0.5512,-1.4088,-6.2213,-2.27320388416707,-30.865354921849082,-0.046849272013253576,3.635999999998603
-0.5495,0.916,-0.039,0.3528,0.285,0.0572,-0.5863,-1.4175,-6.2213,-2.299339608283289,-30.886862305647966,-0.04682584737724695,3.635999999998603
-0.5471,0.9196,-0.0326,0.3517,0.2847,0.0542,-0.8838,-1.7237,-6.3175,-2.2729003817099422,-30.83380884076576,-0.05008017076473555,3.6519999999945867
-0.5472,0.917,-0.0353,0.3517,0.2847,0.0542,-0.8838,-1.7237,-6.3175,-2.2661803402683764,-30.8245283754471,-0.05005513067935319,3.6519999999945867
-0.5472,0.917,-0.0364,0.3517,0.2847,0.0542,-1.1463,-1.82,-6.055,-2.2680662229442166,-30.82057701597724,-0.05003010311401351,3.6519999999945867
-0.5464,0.9172,-0.0364,0.3538,0.2841,0.0573,-1.1463,-1.9775,-5.9325,-2.269307176162507,-30.813290351616324,-0.05000508806245651,3.6519999999945867
-0.5458,0.917,-0.0326,0.3538,0.2841,0.0573,-1.1025,-1.9775,-5.9325,-2.211737199257462,-30.804601575761676,-0.04998008551842528,3.6519999999945867
-0.5458,0.9164,-0.0364,0.3538,0.2841,0.0573,-0.8662,-1.645,-6.055,-2.217003163260081,-30.79468454983375,-0.049955095475666074,3.6519999999945867
-0.5475,0.9164,-0.0364,0.3516,0.285,0.05,-0.8662,-1.645,-6.055,-2.2218282096944786,-30.80347963093608,-0.049930117927928244,3.6519999999945867
-0.5499,0.917,-0.0379,0.3516,0.285,0.05,-0.735,-1.3212,-6.0287,-2.227376411099936,-30.827876431171862,-0.049905152868964284,3.6519999999945867
-0.5343,0.9184,-0.0334,0.3516,0.285,0.05,-0.2713,-1.3563,-5.95,-2.178955953119386,-30.73565290330992,-0.047444833585124316,3.6669999999940046
-0.5465,0.9184,-0.0334,0.3531,0.2858,0.0574,-0.2713,-1.3563,-5.95,-2.146751200149487,-30.73604050525434,-0.04742111116833175,3.6669999999940046
-0.5466,0.9166,-0.0361,0.3531,0.2858,0.0574,-0.5863,-1.6187,-6.3612,-2.1639863682481493,-30.755577045223884,-0.04739740061274759,3.6669999999940046
-0.5486,0.9184,-0.0335,0.3531,0.2858,0.0574,-0.5863,-1.6187,-6.3612,-2.1520958011458107,-30.78455240461019,-0.04737370191244122,3.6669999999940046
-0.5486,0.9184,-0.0335,0.3518,0.2842,0.0513,-1.1812,-1.6975,-6.405,-2.133870368572842,-30.803812691915564,-0.047350015061485,3.6669999999940046
-0.55,0.9163,-0.0349,0.3518,0.2842,0.0513,-0.7175,-0.98,-5.95,-2.136437548756508,-30.82518814181345,-0.04732634005395426,3.6669999999940046
-0.5478,0.9176,-0.0345,0.3518,0.2842,0.0513,-0.7175,-0.98,-5.95,-2.1373461168775223,-30.824325081972095,-0.04730267688392729,3.6669999999940046
-0.5478,0.9176,-0.0345,0.3543,0.2859,0.0508,-0.6475,-1.5925,-6.0462,-2.139136332248876,-30.823238401294176,-0.047279025545485326,3.6669999999940046
-0.5473,0.9179,-0.0325,0.3543,0.2859,0.0508,-0.6475,-1.5925,-6.0462,-2.1265642192912275,-30.81633950839583,-0.047255386032712586,3.6669999999940046
-0.5466,0.9182,-0.0356,0.3543,0.2859,0.0508,-0.9187,-1.5225,-6.0462,-2.138358598013969,-30.801863275121555,-0.04729190425170849,3.6829999999972642
-0.5466,0.9182,-0.0356,0.3527,0.285,0.0537,-0.735,-1.6538,-6.0813,-2.1414976912982917,-30.789179273010788,-0.04726825829958264,3.6829999999972642
-0.5442,0.9163,-0.0362,0.3527,0.285,0.0537,-0.735,-1.6538,-6.0813,-2.146127211238427,-30.76586358444271,-0.04724462417043285,3.6829999999972642
-0.5514,0.9168,-0.0356,0.3527,0.285,0.0537,-0.7788,-1.3125,-5.9588,-2.1464348789471592,-30.801139338697972,-0.047221001858347635,3.6829999999972642
-0.5514,0.9168,-0.0356,0.3535,0.2862,0.0542,-0.7788,-1.3125,-5.9588,-2.1467413266874376,-30.831218292028428,-0.04719739135741846,3.6829999999972642
-0.546,0.917,-0.0335,0.3535,0.2862,0.0542,-0.6125,-1.505,-5.845,-2.13912579717546,-30.826896747398884,-0.04717379266173975,3.6829999999972642
-0.5474,0.9156,-0.0376,0.3535,0.2862,0.0542,-0.5425,-1.9338,-6.5012,-2.1791790472490056,-30.837460030942328,-0.04715020576540888,3.6829999999972642
-0.5474,0.9156,-0.0376,0.3523,0.2849,0.0505,-0.5425,-1.9338,-6.5012,-2.211681386394589,-30.843618762278567,-0.05334943270176625,3.697999999989406
-0.5483,0.9166,-0.0358,0.3523,0.2849,0.0505,-0.7875,-1.7587,-6.6238,-2.2119945055596797,-30.85480766037933,-0.05332275798541537,3.697999999989406
-0.5475,0.9179,-0.0359,0.3523,0.2849,0.0505,-0.7875,-1.7587,-6.6238,-2.2123421217536268,-30.82779711342125,-0.05329609660642267,3.697999999989406
-0.5475,0.9179,-0.0359,0.3542,0.2862,0.0545,-0.805,-1.7325,-6.3,-2.213145216134434,-30.81685177600124,-0.053269448558119464,3.697999999989406
-0.5463,0.9169,-0.0346,0.3542,0.2862,0.0545,-0.7,-1.925,-5.8538,-2.209520879668151,-30.813819041749596,-0.053242813833840406,3.697999999989406
-0.5489,0.9187,-0.0356,0.3542,0.2862,0.0545,-0.7,-1.925,-5.8538,-2.2101893984981857,-30.815374491510823,-0.05971311834024709,3.713999999992666
-0.5489,0.9187,-0.0356,0.3529,0.2856,0.0534,-0.3325,-1.5575,-5.9412,-2.2129295590867017,-30.818457483459873,-0.05968326178107697,3.713999999992666
-0.5472,0.9182,-0.0333,0.3529,0.2856,0.0534,-0.3325,-1.6625,-6.3525,-2.171247840059813,-30.803180587858527,-0.05965342015018643,3.713999999992666
-0.5461,0.916,-0.0342,0.3529,0.2856,0.0534,-1.0237,-1.6625,-6.3525,-2.1646651592684885,-30.79659191542492,-0.05962359344011134,3.713999999992666
-0.5461,0.916,-0.0342,0.3536,0.2831,0.0527,-0.9887,-1.6538,-6.1687,-2.160004931484164,-30.793372870880955,-0.05959378164339128,3.713999999992666
-0.5459,0.9174,-0.0352,0.3536,0.2831,0.0527,-0.9887,-1.6538,-6.1687,-2.1665799333270943,-30.77757620216512,-0.05956398475256959,3.713999999992666
-0.5469,0.9196,-0.0319,0.3536,0.2831,0.0527,-0.6388,-1.61,-6.2913,-2.1450467192279135,-30.760080613606682,-0.059534202760193305,3.713999999992666
-0.5469,0.9196,-0.0319,0.3523,0.2842,0.0494,-0.63,-1.4,-6.02,-2.1250205447070774,-30.75351520278123,-0.059504435658813214,3.713999999992666
-0.5492,0.9162,-0.0366,0.3523,0.2842,0.0494,-0.63,-1.4,-6.02,-2.145588415717234,-30.785025183811918,-0.05757580935259696,3.7299999999959255
-0.5503,0.9173,-0.0367,0.3523,0.2842,0.0494,-0.525,-1.5488,-6.0113,-2.1746756600135844,-30.813494625221693,-0.05754702144792066,3.7299999999959255
-0.5503,0.9173,-0.0367,0.3526,0.2854,0.0534,-0.525,-1.5488,-6.0113,-2.197948825405013,-30.83672982639317,-0.057518247937196704,3.7299999999959255
-0.5485,0.918,-0.0319,0.3526,0.2854,0.0534,-0.595,-1.8637,-6.3437,-2.166284775230508,-30.838927079373825,-0.05748948881322811,3.7299999999959255
-0.5461,0.9187,-0.034,0.3526,0.2854,0.0534,-1.05,-1.8112,-6.1163,-2.1561847860132386,-30.807208130500182,-0.06184546561115135,3.7449999999953434
-0.5461,0.9187,-0.034,0.353,0.2861,0.0558,-1.05,-1.8112,-6.1163,-2.148264350234106,-30.783364173118805,-0.06649157919129861,3.760999999998603
-0.5474,0.9177,-0.0354,0.353,0.2861,0.0558,-0.6475,-1.7413,-6.2213,-2.1551319553298525,-30.787489929279314,-0.06645833340170297,3.760999999998603
-0.5477,0.9171,-0.035,0.353,0.2861,0.0558,-0.6475,-1.7413,-6.2213,-2.158568792576943,-30.79967245921558,-0.06976185002575412,3.775999999990745
-0.5477,0.9171,-0.035,0.3542,0.2854,0.0585,-0.6475,-1.6888,-6.195,-2.161617474668782,-30.807796422819074,-0.07244658461329531,3.7919999999940046
-0.5476,0.9163,-0.033,0.3542,0.2854,0.0585,-0.8838,-1.8025,-6.0637,-2.151885131352398,-30.816331847533693,-0.07241036132098867,3.7919999999940046
-0.547,0.918,-0.0354,0.3542,0.2854,0.0585,-0.8838,-1.8025,-6.0637,-2.1574340950657547,-30.806334684758372,-0.07691206205325268,3.8079999999972642
-0.547,0.918,-0.0354,0.3526,0.2836,0.057,-0.315,-1.7237,-6.1775,-2.173472050301739,-30.79620558360933,-0.07687360602222607,3.8079999999972642
-0.5464,0.9176,-0.0316,0.3526,0.2836,0.057,-0.315,-1.7237,-6.1775,-2.110122952664604,-30.7853034705533,-0.07683516921921496,3.8079999999972642
-0.5471,0.9165,-0.0337,0.3526,0.2836,0.057,-0.8575,-1.3737,-6.2825,-2.109795535242065,-30.796098177136482,-0.07462225442718974,3.822999999996682
-0.5471,0.9165,-0.0337,0.3526,0.2854,0.059,-0.5163,-1.6888,-6.2387,-2.1089820891903464,-30.802873533585718,-0.07458494329997616,3.822999999996682
-0.5468,0.9154,-0.0359,0.3526,0.2854,0.059,-0.5163,-1.6888,-6.2387,-2.137099948612976,-30.811933913498862,-0.07726726634088023,3.838999999999942
-0.5493,0.9191,-0.0358,0.3526,0.2854,0.059,-0.6562,-1.82,-6.09,-2.1470156753603833,-30.81976391002301,-0.08174528824784366,3.8539999999920838
-0.5493,0.9191,-0.0358,0.3534,0.2854,0.0514,-0.6562,-1.82,-6.09,-2.155879932759379,-30.825768637520344,-0.08170441560371974,3.8539999999920838
-0.5486,0.9177,-0.0332,0.3534,0.2854,0.0514,-0.9275,-1.8112,-6.1163,-2.144757336580953,-30.832885453969954,-0.08166356339591789,3.8539999999920838
-0.5429,0.9176,-0.0327,0.3534,0.2854,0.0514,-1.0938,-1.54,-6.2125,-2.1196536676058595,-30.761717146333968,-0.0819627375262892,3.8699999999953434
-0.5429,0.9176,-0.0327,0.3531,0.2864,0.0542,-1.0938,-1.54,-6.2125,-2.10062104395541,-30.711826010976253,-0.08192175615752606,3.8699999999953434
-0.545,0.9158,-0.037,0.3531,0.2864,0.0542,-1.1113,-1.5225,-6.0375,-2.1542410590367314,-30.716822190723352,-0.08194094119145956,3.885999999998603
-0.5489,0.9179,-0.0359,0.3531,0.2864,0.0542,-1.1113,-1.5225,-6.0637,-2.1757704661109805,-30.747926820233058,-0.08189997072086383,3.885999999998603
-0.5489,0.9179,-0.0359,0.3504,0.2867,0.0532,-0.6825,-1.8813,-6.0637,-2.1811781727914714,-30.772271589085864,-0.08729471652779247,3.900999999998021
-0.5474,0.9171,-0.0346,0.3504,0.2867,0.0532,-0.7875,-1.6975,-6.1337,-2.1809205969850542,-30.783105023019882,-0.08725106916952859,3.900999999998021
-0.5482,0.9166,-0.0342,0.3504,0.2867,0.0532,-0.7875,-1.6975,-6.1337,-2.1803683312576627,-30.8042942622577,-0.09006618954752622,3.9170000000012806
-0.5482,0.9166,-0.035,0.3531,0.2866,0.0538,-0.8225,-1.7325,-6.3175,-2.180658938184995,-30.8251565185891,-0.09322596824357357,3.9319999999934225
-0.5472,0.9166,-0.035,0.3531,0.2866,0.0538,-1.0063,-1.5575,-6.1512,-2.181804578377462,-30.823339475478218,-0.09317935525945178,3.9319999999934225
-0.5492,0.9187,-0.0343,0.3531,0.2866,0.0538,-1.0063,-1.5575,-6.1512,-2.173601802479248,-30.831397179812782,-0.09375263149394836,3.947999999996682
-0.5492,0.9171,-0.0333,0.3532,0.2854,0.0518,-0.7613,-1.8025,-6.2125,-2.1723466408045993,-30.85143001815178,-0.09824366109112588,3.963999999999942
-0.5471,0.9171,-0.0333,0.3532,0.2854,0.0518,-0.7613,-1.8025,-6.2125,-2.1711082213229234,-30.83658288896724,-0.09819453926058032,3.963999999999942
-0.5481,0.9174,-0.0364,0.3532,0.2854,0.0518,-0.8138,-1.5137,-6.1687,-2.1748992614249585,-30.836515462000726,-0.09806989478348963,3.9789999999920838
-0.5325,0.9162,-0.0382,0.353,0.2852,0.044,-0.455,-1.6363,-6.0375,-2.2264178919680555,-30.697311463485725,-0.09802085983609789,3.9789999999920838
-0.546,0.9162,-0.0382,0.353,0.2852,0.044,-0.455,-1.6363,-6.0375,-2.2654525100051477,-30.712021616358054,-0.09985188491856287,3.9949999999953434
-0.5467,0.918,-0.0345,0.353,0.2852,0.044,-0.525,-1.575,-5.985,-2.242827095793403,-30.719561309681183,-0.0998019589761036,3.9949999999953434
-0.5455,0.9164,-0.0341,0.3536,0.2854,0.0524,-0.525,-1.575,-5.985,-2.2204826294106232,-30.72401507955349,-0.10059555103908281,4.009999999994761
-0.5455,0.9164,-0.0341,0.3536,0.2854,0.0524,-0.525,-1.5313,-6.4488,-2.202604467546562,-30.732937183069744,-0.1007461287756042,4.025999999998021
-0.5463,0.9153,-0.0354,0.3536,0.2854,0.0524,-0.5425,-1.61,-6.0988,-2.204914662380268,-30.751814989079353,-0.1006957557112164,4.025999999998021
-0.5466,0.9168,-0.0357,0.353,0.2861,0.0502,-0.5425,-1.61,-6.0988,-2.2096360678534865,-30.759598745737595,-0.10210485374499445,4.041999999994005
-0.5466,0.9168,-0.0357,0.353,0.2861,0.0502,-0.2013,-1.6625,-6.0025,-2.2170434097111293,-30.764027290060202,-0.10205380131812196,4.041999999994005
-0.5486,0.9192,-0.038,0.353,0.2861,0.0502,-0.2013,-1.6625,-6.0025,-2.2718006402742423,-30.77189051617291,-0.10415811120987926,4.0569999999934225
-0.5475,0.9185,-0.0353,0.3528,0.2846,0.0523,-0.4462,-1.1725,-6.125,-2.254269402764718,-30.773881484200665,-0.09856897806514628,4.072999999996682
-0.5475,0.9185,-0.0353,0.3528,0.2846,0.0523,-0.7525,-1.715,-5.985,-2.253104718511789,-30.77485621207206,-0.09851969357611372,4.072999999996682
-0.5482,0.9186,-0.0329,0.3528,0.2846,0.0523,-0.7525,-1.715,-5.985,-2.2486966318859123,-30.78096262376733,-0.10141287677171149,4.0879999999961
-0.549,0.9159,-0.0335,0.3536,0.285,0.0552,-0.5863,-1.6363,-6.23,-2.224273243800361,-30.824334442425762,-0.10136217033332563,4.0879999999961
-0.549,0.9159,-0.0335,0.3536,0.285,0.0552,-0.5863,-1.6363,-6.23,-2.203723813723474,-30.854370910347885,-0.103191524760542,4.10399999999936
-0.5495,0.9176,-0.038,0.3536,0.285,0.0552,-0.8487,-1.6275,-6.2825,-2.2152595922738088,-30.867329828674396,-0.10487923490972513,4.119999999995343
-0.5453,0.9182,-0.0337,0.3518,0.2855,0.0511,-0.6475,-1.4875,-6.1337,-2.2024613390412546,-30.82113667107574,-0.10482679529227028,4.119999999995343
-0.5453,0.9182,-0.0337,0.3518,0.2855,0.0511,-0.6475,-1.4875,-6.1337,-2.191108515898423,-30.786860409790606,-0.10430603118714232,4.134999999994761
-0.5486,0.916,-0.04,0.3518,0.2855,0.0511,-0.7088,-1.6013,-6.3787,-2.210263720391494,-30.826614234229297,-0.10425387817154876,4.134999999994761
-0.5481,0.9162,-0.0388,0.3534,0.2854,0.0625,-0.7088,-1.6013,-6.1425,-2.2235599738561276,-30.83712132518248,-0.10552206674473197,4.150999999998021
-0.5481,0.9162,-0.0388,0.3534,0.2854,0.0625,-0.805,-1.5575,-6.1425,-2.2294603599837464,-30.84486722111928,-0.10546930571135961,4.150999999998021
-0.5483,0.9183,-0.0326,0.3534,0.2854,0.0625,-0.6737,-1.6187,-6.0113,-2.211434271008353,-30.84117176680596,-0.10691523635094578,4.165999999997439
-0.5484,0.9166,-0.0321,0.3532,0.285,0.049,-0.6737,-1.6187,-6.0113,-2.1925429467142954,-30.84767305713102,-0.10846035504509599,4.1820000000006985
-0.5484,0.9166,-0.0321,0.3532,0.285,0.049,-0.9275,-1.5225,-5.9763,-2.1677969188064954,-30.85228645607192,-0.10840612486757345,4.1820000000006985
-0.5442,0.9182,-0.0334,0.3532,0.285,0.049,-0.8575,-1.4525,-5.7312,-2.161339958546545,-30.84113880359925,-0.10729262771740557,4.197999999996682
-0.5483,0.9183,-0.0359,0.3518,0.284,0.0532,-0.8575,-1.4525,-5.7312,-2.1672538051262613,-30.840112453365162,-0.10723898140354687,4.197999999996682
-0.5483,0.9183,-0.0359,0.3518,0.284,0.0532,-0.7088,-1.4963,-5.985,-2.171683444077159,-30.837005919402554,-0.10684894520535816,4.2129999999961
-0.5493,0.919,-0.0367,0.3518,0.284,0.0532,-0.7088,-1.4963,-5.985,-2.1788173212192743,-30.838712627244956,-0.10679552073275549,4.2129999999961
-0.5476,0.9187,-0.0345,0.3536,0.285,0.0489,-0.7,-1.4438,-6.195,-2.176854587992458,-30.82158673378894,-0.10554369848414497,4.22899999999936
-0.5476,0.9187,-0.0345,0.3536,0.285,0.0489,-1.1025,-1.75,-6.02,-2.170380078150145,-30.813646775065795,-0.10895810717726835,4.243999999998778
-0.5463,0.9162,-0.0334,0.3536,0.285,0.0489,-1.1025,-1.75,-6.02,-2.149995937313535,-30.809069070049922,-0.10890362812367972,4.243999999998778
-0.5469,0.9156,-0.0343,0.3531,0.2862,0.0484,-0.595,-1.6538,-6.16,-2.149295199818583,-30.81551377555412,-0.11100907182107571,4.259999999994761
-0.5469,0.9156,-0.0343,0.3531,0.2862,0.0484,-0.595,-1.6538,-6.16,-2.148701263380068,-30.82020434093988,-0.11095356728516517,4.259999999994761
-0.5467,0.9184,-0.0334,0.3531,0.2862,0.0484,-0.3237,-1.7062,-6.23,-2.1282115633056544,-30.797885620937574,-0.11389596681277007,4.275999999990745
-0.5463,0.9157,-0.0343,0.3535,0.2858,0.059,-1.05,-1.295,-5.7488,-2.131869906710317,-30.79804501398638,-0.11048461187036676,4.290999999997439
-0.5463,0.9157,-0.0343,0.3535,0.2858,0.059,-1.05,-1.295,-5.7488,-2.1347387883864575,-30.798198686128668,-0.11042936956443158,4.290999999997439
-0.547,0.9173,-0.0379,0.3535,0.2858,0.059,-1.0325,-1.4963,-5.9325,-2.18210839051904,-30.79673976492962,-0.11001531039173945,4.3069999999934225
-0.5479,0.918,-0.035,0.3514,0.2838,0.0447,-1.0325,-1.4963,-5.9325,-2.1823775439777684,-30.798711531671916,-0.10996030273654359,4.3069999999934225
-0.5479,0.918,-0.035,0.3514,0.2838,0.0447,-1.085,-1.505,-6.5012,-2.182624831078346,-30.804324644216763,-0.10969934062768331,4.3219999999928405
-0.5469,0.9171,-0.0345,0.3514,0.2838,0.0447,-0.7962,-1.2513,-6.44,-2.182033360938451,-30.799190036890497,-0.10964449095736947,4.3219999999928405
-0.5481,0.9166,-0.0348,0.3535,0.2854,0.0598,-0.7962,-1.2513,-6.44,-2.1818708481859708,-30.823240651302367,-0.10531278422301947,4.3379999999961
-0.5481,0.9166,-0.0348,0.3535,0.2854,0.0598,-0.5163,-1.015,-6.2387,-2.1803095274655826,-30.83470061093209,-0.09720433374493014,4.353999999992084
-0.5484,0.9165,-0.0381,0.3535,0.2854,0.0598,-0.5163,-1.015,-6.2387,-2.221428284441425,-30.846624290845014,-0.09715573157805768,4.353999999992084
-0.5478,0.9185,-0.0348,0.3526,0.2853,0.0509,-1.2862,-1.19,-6.3612,-2.2039517836345492,-30.827437333676613,-0.09217853425256922,4.368999999998778
-0.5478,0.9185,-0.0348,0.3526,0.2853,0.0509,-1.1375,-1.1988,-6.405,-2.194855992120937,-30.814683520940324,-0.09213244498544294,4.368999999998778
-0.5464,0.917,-0.0349,0.3526,0.2853,0.0509,-1.1375,-1.1988,-6.405,-2.1907853757497766,-30.797838966626323,-0.08696991427623457,4.384999999994761
-0.5466,0.9145,-0.0368,0.3533,0.2852,0.0534,-0.5775,-1.3475,-6.4488,-2.209504440748212,-30.817237786539675,-0.08435912861169609,4.399999999994179
-0.5466,0.9145,-0.0368,0.3533,0.2852,0.0534,-0.5775,-1.3475,-6.4488,-2.2251385908773216,-30.828904340891896,-0.08431694904739025,4.399999999994179
-0.5493,0.918,-0.0355,0.3533,0.2852,0.0538,-0.9275,-1.5313,-6.2825,-2.223740422120246,-30.8445319780705,-0.08447566608490747,4.415999999997439
-0.5486,0.9174,-0.0312,0.3515,0.2866,0.0538,-0.7875,-1.6538,-6.125,-2.2202854198190645,-30.849612284820836,-0.08443342825186502,4.415999999997439
-0.5486,0.9174,-0.0312,0.3515,0.2866,0.0538,-0.7875,-1.6538,-6.125,-2.216873681768107,-30.85340646927752,-0.08655110704919691,4.4319999999934225
-0.5444,0.9174,-0.0346,0.3515,0.2858,0.0527,-0.5512,-1.2775,-5.985,-2.206462126340835,-30.822589890921343,-0.08650783149567232,4.4319999999934225
-0.5466,0.9157,-0.0355,0.353,0.2858,0.0527,-0.5512,-1.085,-6.4313,-2.208961762975033,-30.819576510955656,-0.07996174561952255,4.447000000000116
-0.5466,0.9157,-0.0355,0.353,0.2858,0.0527,-0.7525,-1.085,-6.4313,-2.209205800425888,-30.817744971875385,-0.07298541066045396,4.4629999999961
-0.5467,0.9184,-0.0354,0.3534,0.2843,0.0524,-1.1375,-1.8025,-6.4662,-2.2087225260809316,-30.78852465839906,-0.07294891795512373,4.4629999999961
-0.5467,0.9175,-0.0353,0.3534,0.2843,0.0524,-1.1375,-1.8025,-6.4662,-2.207284003997877,-30.78115542615072,-0.07716673028848109,4.477999999995518
-0.5467,0.9175,-0.0353,0.3534,0.2843,0.0524,-0.9275,-1.4175,-6.055,-2.206758631191302,-30.77885896804498,-0.07712814692333685,4.477999999995518
-0.5463,0.9173,-0.0361,0.3526,0.2852,0.0454,-1.1025,-0.9363,-6.2213,-2.2183418835970286,-30.772083529806448,-0.0677752183599776,4.493999999998778
-0.5486,0.9171,-0.035,0.3526,0.2852,0.0454,-1.1025,-0.9363,-6.2213,-2.210251750655183,-30.80149767649298,-0.058426966265135716,4.509999999994761
-0.5486,0.9171,-0.0345,0.3526,0.2852,0.0454,-1.0675,-1.1725,-6.1687,-2.1975993451545195,-30.820344382253786,-0.058397752782003154,4.509999999994761
-0.5481,0.9177,-0.0345,0.3543,0.2842,0.0508,-1.0675,-1.1725,-6.1687,-2.1874930065741136,-30.8230502940969,-0.05317756569579563,4.525000000001455
-0.5473,0.9181,-0.0353,0.3543,0.2842,0.0508,-0.525,-1.8112,-6.055,-2.1903685676033313,-30.814244933382522,-0.05315097691294774,4.525000000001455
-0.5473,0.9182,-0.0348,0.3543,0.2842,0.0508,-0.6737,-1.5925,-5.88,-2.1885425937699843,-30.811242406923245,-0.054303987336195174,4.540999999997439
-0.5475,0.9182,-0.0348,0.3531,0.2852,0.0469,-0.6737,-1.5925,-5.88,-2.1868843044903086,-30.80928845226683,-0.05427683534252708,4.540999999997439
-0.5462,0.9168,-0.0357,0.3531,0.2852,0.0469,-0.9887,-1.8725,-6.685,-2.1944738960364227,-30.788817338508316,-0.05955345871715001,4.555999999996857
-0.5618,0.9168,-0.0351,0.3531,0.2852,0.0469,-0.9887,-1.8725,-6.685,-2.194129203657478,-31.116303775440592,-0.05952368198779144,4.555999999996857
-0.5477,0.9168,-0.0351,0.3527,0.2867,0.0512,-0.7175,-1.7062,-6.6413,-2.194041835727936,-30.986989788496317,-0.06249179645804503,4.5719999999928405
-0.5473,0.9163,-0.0355,0.3527,0.2867,0.0512,-0.8138,-1.505,-6.3963,-2.1949665060240924,-30.927751633049002,-0.06224083647177125,4.5879999999961
-0.549,0.9181,-0.0363,0.3527,0.2867,0.0512,-0.8138,-1.505,-6.3963,-2.1975637158332733,-30.901552556391398,-0.06200373409604336,4.602999999995518
-0.549,0.9181,-0.0363,0.3533,0.2845,0.0512,-0.35,-1.6187,-6.09,-2.2174291605962164,-30.891545004374453,-0.06197273222899534,4.602999999995518
-0.5469,0.9176,-0.034,0.3533,0.2845,0.0512,-0.35,-1.6187,-6.09,-2.188982355799118,-30.865108520365183,-0.06354032217447958,4.618999999991502
-0.5482,0.9171,-0.0346,0.3533,0.2845,0.0512,-0.5688,-1.6013,-6.0462,-2.1841353984925784,-30.86221418554361,-0.06350855201339234,4.618999999991502
-0.5482,0.9171,-0.0346,0.353,0.2853,0.0523,-0.6562,-1.4088,-6.1512,-2.181640608539867,-30.85923842273233,-0.0618285372791501,4.633999999998196
-0.5477,0.9154,-0.0353,0.353,0.2853,0.0523,-0.6562,-1.4088,-6.1512,-2.1844747152036517,-30.863207452228394,-0.06003947852295186,4.649999999994179
-0.5467,0.9171,-0.0354,0.353,0.2853,0.0523,-1.1463,-1.4875,-5.8625,-2.1915282674364875,-30.857380470136818,-0.05904153398810679,4.680999999996857
-0.5467,0.9171,-0.0354,0.3525,0.2845,0.0547,-1.1463,-1.4875,-5.8625,-2.19667128599295,-30.851967433762834,-0.05901201322111274,4.680999999996857
-0.5448,0.9179,-0.0288,0.3525,0.2845,0.0547,-0.98,-1.4875,-5.9763,-2.128648187495,-30.82415395402193,-0.05898250721450219,4.680999999996857
-0.5461,0.9166,-0.0364,0.3525,0.2845,0.0547,-0.7262,-1.295,-6.0988,-2.13539359882094,-30.81033799363327,-0.058953015960894944,4.680999999996857
-0.5461,0.9166,-0.0364,0.3538,0.2853,0.0526,-0.7262,-1.295,-6.0988,-2.141826260565519,-30.799813728651483,-0.0589235394529145,4.680999999996857
-0.5511,0.9174,-0.0368,0.3538,0.2853,0.0526,-0.5863,-1.2687,-6.4575,-2.1664544660151335,-30.86967928270987,-0.05889407768318805,4.680999999996857
-0.547,0.9174,-0.0322,0.3538,0.2853,0.0526,-0.5863,-1.2687,-6.2913,-2.141671546067137,-30.842936670942315,-0.05886463064434646,4.680999999996857
-0.547,0.9174,-0.0322,0.3526,0.2863,0.0554,-0.7788,-1.8288,-6.2913,-2.141150274507967,-30.825170704547162,-0.05883519832902429,4.680999999996857
-0.5447,0.9154,-0.0349,0.3526,0.2863,0.0554,-0.8225,-1.75,-6.0637,-2.143071626786675,-30.805807495509264,-0.058805780729859786,4.680999999996857
-0.5499,0.918,-0.0343,0.3526,0.2863,0.0554,-0.8225,-1.75,-6.0637,-2.142922487484365,-30.827325500680246,-0.05877637783949486,4.680999999996857
-0.5499,0.918,-0.0343,0.353,0.2857,0.054,-0.8138,-1.0325,-5.8625,-2.142805135044771,-30.832830656676567,-0.05097105556452704,4.6969999999928405
-0.5475,0.9185,-0.0354,0.353,0.2857,0.054,-0.595,-1.4787,-6.5975,-2.152612077650587,-30.809007539550432,-0.0503452853289769,4.711999999999534
-0.5493,0.9171,-0.0354,0.353,0.2857,0.054,-0.595,-1.4787,-6.5975,-2.161437339035379,-30.850144072310975,-0.05032011268631241,4.711999999999534
-0.5493,0.9171,-0.0354,0.3514,0.2854,0.0558,-0.2625,-1.575,-6.2038,-2.1780633879172484,-30.865081887397274,-0.05119467854174341,4.727999999995518
-0.5465,0.9168,-0.0355,0.3514,0.2854,0.0558,-0.2625,-1.575,-6.2038,-2.191415886957499,-30.84003719668104,-0.052068807114655835,4.743999999998778
-0.5449,0.9185,-0.033,0.3514,0.2854,0.0558,-1.3212,-1.8025,-6.0725,-2.144151109653473,-30.80046244863871,-0.05204277271109851,4.743999999998778
-0.5449,0.9185,-0.033,0.3524,0.2871,0.057,-1.0063,-1.435,-6.0725,-2.127890768188066,-30.769700218258013,-0.05076129436729169,4.758999999998196
-0.5477,0.9178,-0.03,0.3524,0.2871,0.057,-1.0063,-1.435,-6.0725,-2.0798197560188454,-30.779411516958696,-0.05073591372010804,4.758999999998196
-0.5464,0.9168,-0.0367,0.3524,0.2871,0.057,-0.8838,-1.5313,-6.09,-2.100706077839943,-30.778192717231576,-0.05091142127519757,4.774999999994179
-0.5464,0.9168,-0.0367,0.3515,0.2854,0.0529,-0.8838,-1.5313,-6.09,-2.1195398737490687,-30.777258034794286,-0.05107428635714402,4.790000000000873
-0.5455,0.9165,-0.0382,0.3515,0.2854,0.0529,-0.9712,-1.365,-6.51,-2.163397064899543,-30.761284655885408,-0.05104874921396545,4.790000000000873
-0.5473,0.9177,-0.0375,0.3515,0.2854,0.0529,-0.665,-1.7675,-6.055,-2.1808700478743193,-30.767387816274127,-0.055001410750359865,4.805999999996857
-0.5473,0.9177,-0.0375,0.3532,0.2847,0.0553,-0.665,-1.7675,-6.055,-2.196614041241505,-30.77219734744481,-0.05895209595779516,4.822000000000116
-0.5477,0.9179,-0.0314,0.3532,0.2847,0.0553,-0.7437,-1.4875,-6.2038,-2.189450125409453,-30.783125477825216,-0.058922619909816266,4.822000000000116
-0.546,0.9183,-0.0297,0.3532,0.2847,0.0553,-0.7437,-1.4875,-6.2038,-2.179279085524897,-30.764991462518505,-0.05842480789260672,4.836999999992258
-0.546,0.9183,-0.0297,0.3542,0.2846,0.0546,-0.8225,-1.0762,-6.3,-2.16440411848894,-30.750255576086808,-0.05131851179921863,4.852999999995518
-0.5459,0.9166,-0.032,0.3542,0.2846,0.0546,-0.8838,-1.7413,-6.2387,-2.1481965148314273,-30.75374237457384,-0.05129285254331903,4.852999999995518
-0.5494,0.9176,-0.0411,0.3542,0.2846,0.0546,-0.8838,-1.7413,-6.2387,-2.1891177414479697,-30.794696637170123,-0.054603951911036425,4.868000000002212
-0.5494,0.9176,-0.0411,0.3522,0.2845,0.0566,-0.7962,-1.3825,-5.9237,-2.1969780228339273,-30.80564487014883,-0.054576649935080906,4.868000000002212
-0.5516,0.9168,-0.0343,0.3522,0.2845,0.0566,-0.7962,-1.3825,-5.9237,-2.195839554010709,-30.831082816965353,-0.052370627523651056,4.88399999999092
-0.5474,0.9175,-0.0329,0.3522,0.2845,0.0566,-1.1638,-1.575,-6.6413,-2.1560196768453728,-30.819061205888083,-0.052344442209889236,4.88399999999092
-0.5474,0.9175,-0.0329,0.3513,0.2858,0.0515,-0.77,-1.8725,-5.9062,-2.155528723057246,-30.817553290421895,-0.05797561590193685,4.899999999994179
-0.5457,0.9166,-0.0369,0.3513,0.2858,0.0515,-0.77,-1.8725,-5.9062,-2.156247193853947,-30.810002273131495,-0.06325038988628008,4.914999999993597
-0.5512,0.918,-0.0342,0.3513,0.2858,0.0515,-0.9187,-1.3038,-6.02,-2.153393769904804,-30.839311065405138,-0.06321876469133694,4.914999999993597
-0.5512,0.918,-0.0342,0.3532,0.2843,0.048,-0.9187,-1.3038,-6.2387,-2.1508992587195115,-30.878345698521343,-0.05974985082029101,4.930999999996857
-0.5475,0.9166,-0.0345,0.3532,0.2843,0.048,-0.7875,-1.2075,-6.2387,-2.150957422335155,-30.86412281554709,-0.059719975894880865,4.930999999996857
-0.5464,0.9165,-0.0375,0.3532,0.2843,0.048,-0.6825,-1.4963,-6.0113,-2.1671913652218824,-30.848936882331415,-0.05935369919944649,4.945999999996275
-0.5464,0.9165,-0.0375,0.3523,0.2853,0.058,-0.6825,-1.4963,-6.0113,-2.1820532717590084,-30.8365429541133,-0.05932402234984677,4.945999999996275
-0.5477,0.917,-0.0369,0.3523,0.2853,0.058,-1.19,-1.645,-6.4138,-2.2179275595902244,-30.833387571102058,-0.061313526250165,4.961999999992258
-0.5459,0.9168,-0.0342,0.3523,0.2853,0.058,-1.015,-1.4875,-6.23,-2.202129134728237,-30.80891081644234,-0.06078329539893815,4.977999999995518
-0.5459,0.9168,-0.0342,0.3529,0.2861,0.0526,-1.015,-1.4875,-6.23,-2.1893903289716676,-30.791959826631096,-0.06075290375123868,4.977999999995518
-0.5486,0.9149,-0.0345,0.3529,0.2861,0.0526,-0.7613,-1.9338,-6.335,-2.188992239601683,-30.840934710501617,-0.06694532934162159,4.992999999994936
-0.5492,0.9155,-0.0337,0.3529,0.2861,0.0526,-0.7613,-1.9338,-6.335,-2.1879136932721224,-30.876769132047215,-0.06691185667695078,4.992999999994936
-0.5492,0.9155,-0.0337,0.3531,0.2814,0.0535,-0.5075,-1.4438,-5.8713,-2.171085475675884,-30.881897959105,-0.06567997626036816,5.008999999998196
-0.5471,0.9164,-0.0349,0.3531,0.2814,0.0535,-0.5688,-1.3563,-5.705,-2.1727769704738735,-30.877210017041545,-0.06321176956483249,5.0239999999976135
-0.5475,0.9201,-0.0351,0.3531,0.2814,0.0535,-0.5688,-1.3563,-5.705,-2.1748071733298686,-30.866640961087366,-0.06318016368005007,5.0239999999976135
-0.5475,0.9201,-0.0345,0.3508,0.284,0.0537,-0.6125,-1.61,-6.1075,-2.170973064546117,-30.835060579256766,-0.0646080195098437,5.039999999993597
-0.5474,0.9176,-0.0345,0.3508,0.284,0.0537,-0.6125,-1.61,-6.1075,-2.168490647175501,-30.82668971588787,-0.06457571550008878,5.039999999993597
-0.5502,0.9151,-0.0384,0.3508,0.284,0.0537,-0.5075,-1.575,-6.2125,-2.217929274775562,-30.876697935918646,-0.06544315355452204,5.055999999996857
-0.5502,0.9151,-0.0357,0.3526,0.2854,0.0564,-0.6913,-1.4262,-6.195,-2.219175538421061,-30.911609773639228,-0.06402304102029863,5.070999999996275
-0.5466,0.9167,-0.0357,0.3526,0.2854,0.0564,-0.6913,-1.4262,-6.195,-2.2200254736663654,-30.875506693356556,-0.06399102949978848,5.070999999996275
-0.5458,0.9178,-0.0334,0.3526,0.2854,0.0564,-0.9275,-1.3038,-6.3,-2.202028073304609,-30.82358798974524,-0.06052172949633832,5.086999999999534
-0.5458,0.9166,-0.0354,0.353,0.2857,0.0594,-0.9275,-1.3038,-6.3,-2.203311912046318,-30.7997611027439,-0.05726899567577831,5.101999999991676
-0.5485,0.9166,-0.0354,0.353,0.2857,0.0594,-1.4088,-1.0762,-6.1687,-2.206574443607019,-30.821357500765544,-0.05724036117794042,5.101999999991676
-0.551,0.9172,-0.0355,0.353,0.2857,0.0594,-0.91,-1.4612,-6.195,-2.2077579169815267,-30.8662599131924,-0.056291577309163995,5.117999999994936
-0.5354,0.9176,-0.0343,0.3525,0.2866,0.0538,-0.91,-1.4612,-6.195,-2.199775605602073,-30.686000889337596,-0.056263431520509416,5.117999999994936
-0.5463,0.9176,-0.0343,0.3525,0.2866,0.0538,-0.4638,-1.54,-5.9237,-2.1857671278366784,-30.693768439476994,-0.05657530571681843,5.133999999998196
-0.5476,0.9171,-0.0353,0.3525,0.2866,0.0538,-0.4638,-1.54,-5.9237,-2.1901584734748316,-30.709375726789656,-0.05654701806396002,5.133999999998196
-0.5462,0.9165,-0.0354,0.3534,0.2844,0.0565,-0.56,-1.6538,-6.1425,-2.1940139714235887,-30.7265150021281,-0.05854364659734947,5.1489999999976135
-0.5462,0.9165,-0.0354,0.3534,0.2844,0.0565,-0.6212,-1.3913,-6.0025,-2.1964039297007787,-30.735070920755703,-0.05647637028656238,5.164999999993597
-0.5452,0.9164,-0.0314,0.3534,0.2844,0.0565,-0.6212,-1.3913,-6.0025,-2.1652492290385457,-30.73509368944713,-0.05644813210141911,5.164999999993597
-0.5461,0.918,-0.0354,0.3508,0.285,0.0493,-0.805,-1.8112,-5.8975,-2.1665119696284902,-30.73446989652458,-0.06080462957769825,5.179999999993015
-0.5461,0.918,-0.0354,0.3508,0.285,0.0493,-0.805,-1.8112,-6.055,-2.1677377159681575,-30.733283773646644,-0.0607742272629094,5.179999999993015
-0.5486,0.9182,-0.0334,0.3508,0.285,0.0493,-0.7788,-1.2862,-6.055,-2.1674026846592365,-30.75601239515346,-0.05702507646052034,5.195999999996275
-0.5454,0.9174,-0.0341,0.3523,0.2874,0.0588,-0.2975,-1.5838,-5.8625,-2.154904133944795,-30.753054505301126,-0.058037019434502055,5.211999999999534
-0.5454,0.9174,-0.0341,0.3523,0.2874,0.0588,-0.2975,-1.5838,-5.8625,-2.146443841540486,-30.750306742375262,-0.05800800092478481,5.211999999999534
-0.548,0.917,-0.0342,0.3523,0.2874,0.0588,-0.2013,-1.4525,-6.055,-2.1425958681054973,-30.770387391649717,-0.056985908717342666,5.226999999991676
-0.5483,0.9154,-0.0363,0.3517,0.2857,0.0494,-0.2013,-1.2337,-5.88,-2.1893467609998605,-30.781575752012532,-0.056957415762984,5.226999999991676
-0.5483,0.9154,-0.0363,0.3517,0.2857,0.0494,-0.5163,-1.2337,-5.88,-2.2060913615044795,-30.791803034212453,-0.052370593366173855,5.242999999994936
-0.5501,0.9182,-0.0331,0.3517,0.2857,0.0494,-0.6475,-1.6625,-5.8012,-2.190105685311493,-30.793565310737943,-0.05234440806949077,5.242999999994936
-0.5478,0.9169,-0.0331,0.3525,0.2858,0.0455,-0.6475,-1.6625,-5.8012,-2.1762557314834905,-30.794254712884964,-0.05447357265787239,5.257999999994354
-0.5478,0.9169,-0.0331,0.3525,0.2858,0.0455,-1.015,-1.68,-5.9938,-2.1551884410798667,-30.802071564371385,-0.05702522178406885,5.2739999999976135
-0.548,0.9179,-0.0353,0.3525,0.2858,0.0455,-0.7262,-1.645,-6.2913,-2.1573754680701853,-30.807821254694964,-0.05699670917317682,5.2739999999976135
-0.5472,0.9181,-0.0343,0.353,0.2854,0.0481,-0.7262,-1.645,-6.2913,-2.156549540176987,-30.797792161193787,-0.058987376731001594,5.290000000000873
-0.5472,0.9181,-0.0343,0.353,0.2854,0.0481,-0.6475,-1.365,-6.4138,-2.1546309487324895,-30.790137167880527,-0.0589578830426361,5.290000000000873
-0.5491,0.9163,-0.0322,0.353,0.2854,0.0481,-0.6475,-1.365,-6.4138,-2.1385924704507993,-30.83902292054534,-0.056623472144822266,5.304999999993015
-0.5475,0.9156,-0.0371,0.3527,0.285,0.0448,-1.155,-1.6363,-6.4662,-2.188658542189989,-30.84646207720549,-0.05847519592113287,5.320999999996275
-0.5475,0.9156,-0.0371,0.3527,0.285,0.0448,-0.9975,-1.7237,-6.2737,-2.2126426246184545,-30.850047377912112,-0.05844595832317231,5.320999999996275
-0.5457,0.9163,-0.0331,0.3527,0.285,0.0448,-0.9975,-1.7237,-6.2737,-2.186450148065731,-30.820325269611253,-0.06148961313639148,5.335999999995693
-0.5474,0.9198,-0.0338,0.355,0.2846,0.047,-0.7175,-1.9338,-6.3,-2.182007923677094,-30.793440619333804,-0.06145886832982329,5.335999999995693
-0.5474,0.9198,-0.0338,0.355,0.2846,0.047,-0.7175,-1.9338,-6.3,-2.177806519570446,-30.77568292614169,-0.06806579440901064,5.351999999998952
-0.5463,0.9181,-0.035,0.355,0.2846,0.047,-0.8313,-1.6187,-6.6413,-2.178094032910557,-30.757284149479254,-0.06803176151180614,5.351999999998952
-0.5474,0.9183,-0.0368,0.3513,0.2863,0.0516,-1.0325,-1.6013,-6.545,-2.2020148547075062,-30.766662178179732,-0.06931806114271881,5.367999999994936
-0.5474,0.9183,-0.0368,0.3513,0.2863,0.0516,-1.0325,-1.6013,-6.545,-2.2210346393722573,-30.771993717681475,-0.07052119790459943,5.382999999994354
-0.5496,0.9184,-0.0362,0.3513,0.2863,0.0516,-0.8662,-1.8988,-6.4225,-2.224064722614825,-30.813246518525222,-0.07048593730564713,5.382999999994354
-0.5466,0.9159,-0.0344,0.3529,0.2848,0.06,-0.8662,-1.8988,-6.4225,-2.217942273642629,-30.81220305643572,-0.07652862985023255,5.3989999999976135
-0.5466,0.9159,-0.0344,0.3529,0.2848,0.06,-0.5512,-1.89,-6.0375,-2.2056980358057783,-30.811873624368925,-0.08205649607759145,5.413999999997031
-0.5466,0.9159,-0.0357,0.3529,0.2848,0.06,-0.455,-1.5313,-6.1163,-2.2121074102884597,-30.811208980311072,-0.08201546782955266,5.413999999997031
-0.5488,0.917,-0.0371,0.3513,0.2846,0.0575,-0.455,-1.5313,-6.1163,-2.237478974113436,-30.827978077860983,-0.08217533560767881,5.430000000000291
-0.5488,0.917,-0.0371,0.3513,0.2846,0.0575,-0.4638,-1.4088,-6.2038,-2.256299030077304,-30.842939430828597,-0.08213424793987498,5.430000000000291
-0.5477,0.919,-0.0347,0.3513,0.2846,0.0575,-0.4638,-1.4088,-6.2038,-2.2340162025249417,-30.823182717070292,-0.08033503632914589,5.445999999988999
-0.547,0.9152,-0.0337,0.3526,0.2874,0.052,-0.56,-1.61,-6.09,-2.211878214667561,-30.829195417732997,-0.08029486881098132,5.445999999988999
-0.547,0.9152,-0.0337,0.3526,0.2874,0.052,-0.5163,-1.3125,-5.9763,-2.1907093217953575,-30.832357438138658,-0.07716268316769599,5.460999999995693
-0.5479,0.9166,-0.0382,0.3526,0.2874,0.052,-0.5163,-1.3125,-5.9763,-2.2309203261301445,-30.834712574934535,-0.07382592773744022,5.476999999998952
-0.5445,0.917,-0.0333,0.3537,0.2855,0.0504,-0.9275,-1.3212,-5.8888,-2.210893925692949,-30.820722478636885,-0.0737890147735715,5.476999999998952
-0.5445,0.917,-0.0333,0.3537,0.2855,0.0504,-0.9275,-1.3212,-5.8187,-2.193520167960154,-30.816415633911905,-0.07079051681023621,5.491999999991094
-0.5472,0.9176,-0.0343,0.3537,0.2855,0.0504,-0.3675,-1.3388,-5.8187,-2.1782401591850986,-30.815632026343906,-0.0707551215518311,5.491999999991094
-0.5473,0.9165,-0.0361,0.3526,0.284,0.0516,-0.6737,-1.6712,-6.0287,-2.185349505923205,-30.817372572001673,-0.0731579003035519,5.507999999994354
-0.5473,0.9165,-0.0361,0.3526,0.284,0.0516,-0.6737,-1.6712,-6.0287,-2.191805980416976,-30.81877321968486,-0.07312132135340013,5.507999999994354
-0.5512,0.9171,-0.0344,0.3526,0.284,0.0537,-0.6475,-1.4088,-6.0637,-2.186873379651594,-30.85579780230291,-0.07132661620516477,5.5239999999903375
-0.5461,0.9171,-0.0354,0.3529,0.2846,0.0537,-0.5163,-1.75,-5.8625,-2.1917299181207492,-30.8485325976349,-0.07475813344110946,5.538999999997031
-0.5461,0.9171,-0.0354,0.3529,0.2846,0.0537,-0.5163,-1.75,-5.8625,-2.1955888495068905,-30.841783509253588,-0.07472075437438891,5.538999999997031
-0.5466,0.9186,-0.0347,0.3529,0.2841,0.0556,-0.7262,-1.8025,-6.1337,-2.194092354816001,-30.814549646200597,-0.07922129991012622,5.555000000000291
-0.5478,0.9181,-0.0345,0.353,0.2841,0.0556,-0.7262,-1.8025,-6.1337,-2.192141941485485,-30.812176339821235,-0.07918168926017116,5.555000000000291
-0.5478,0.9181,-0.0345,0.353,0.2841,0.0556,-0.9275,-1.4262,-6.1075,-2.186828248040304,-30.810515723594445,-0.07775470745876789,5.569999999992433
-0.5486,0.9176,-0.0312,0.353,0.2876,0.0534,-1.015,-1.435,-6.3088,-2.140460309900589,-30.82719705128714,-0.07637667601676569,5.585999999995693
-0.5473,0.9153,-0.0376,0.3514,0.2876,0.0534,-1.015,-1.435,-6.3088,-2.18149716408538,-30.837042048171007,-0.07633848767875731,5.585999999995693
-0.5473,0.9153,-0.0376,0.3514,0.2876,0.0534,-0.6388,-1.3475,-6.0725,-2.2019545150053528,-30.841235629851507,-0.07356186434760535,5.601999999991676
-0.548,0.9184,-0.0311,0.353,0.2848,0.057,-0.6388,-1.3475,-6.0725,-2.1705276018802504,-30.834203383168614,-0.07352508341543156,5.601999999991676
-0.5474,0.9172,-0.0309,0.353,0.2848,0.057,-0.6475,-1.47,-6.2387,-2.1433100751422804,-30.828265049292018,-0.07275760141589777,5.61699999999837
-0.5474,0.9172,-0.0371,0.353,0.2848,0.057,-0.9013,-1.75,-6.2475,-2.1627339395787812,-30.82213123115786,-0.07272122261518982,5.61699999999837
-0.5465,0.9162,-0.0371,0.3533,0.2855,0.0629,-0.9013,-1.75,-6.2475,-2.180260449560086,-30.813506688825285,-0.07638318791495388,5.632999999994354
-0.5481,0.9163,-0.0354,0.3533,0.2855,0.0629,-0.91,-1.5838,-6.405,-2.1840929644896163,-30.834200178237854,-0.07732042336345857,5.647999999993772
-0.5481,0.9163,-0.0324,0.3533,0.2855,0.0629,-0.91,-1.5838,-6.405,-2.1651610045888057,-30.84814898973609,-0.07728176315177684,5.647999999993772
-0.5478,0.917,-0.0324,0.354,0.2835,0.0514,-0.175,-1.3825,-6.0813,-2.1120734273252557,-30.845751931846312,-0.07506438818175709,5.663999999997031
-0.5507,0.9185,-0.0359,0.354,0.2835,0.0514,-0.9013,-1.6275,-6.1687,-2.1262453153392804,-30.86799561662558,-0.07676616189922962,5.679999999993015
-0.5507,0.9166,-0.0315,0.354,0.2835,0.0514,-0.9013,-1.6275,-6.1687,-2.1085067553461943,-30.89977785890829,-0.07672777881828001,5.679999999993015
-0.5459,0.9166,-0.0315,0.3512,0.2862,0.0527,-0.91,-1.4525,-6.0637,-2.0918057116699873,-30.869817762243038,-0.0756963267209277,5.694999999999709
-0.5461,0.9159,-0.0321,0.3512,0.2862,0.0527,-0.91,-1.4525,-6.0637,-2.081736774461408,-30.852426833897393,-0.07565847855756724,5.694999999999709
-0.5502,0.917,-0.0359,0.3512,0.2862,0.0527,-0.4112,-1.4262,-6.4138,-2.124458932282368,-30.887898943631225,-0.07414076563065994,5.710999999995693
-0.5502,0.917,-0.0359,0.3528,0.2832,0.0523,-0.2625,-1.4787,-6.2737,-2.164260819614203,-30.906421704070365,-0.07410369524784462,5.710999999995693
-0.5475,0.9166,-0.0358,0.3528,0.2832,0.0523,-0.2625,-1.4787,-6.2737,-2.188796021173324,-30.881807148253227,-0.07346635869274398,5.725999999995111
-0.5481,0.9185,-0.0363,0.3528,0.2832,0.0523,-0.665,-1.855,-5.7488,-2.196159078422169,-30.879096527741595,-0.07880711142649315,5.74199999999837
-0.5481,0.9185,-0.0363,0.3522,0.285,0.0548,-0.665,-1.855,-6.0637,-2.2027935451675074,-30.86327269345661,-0.0787677078707799,5.74199999999837
-0.5474,0.9182,-0.033,0.3522,0.285,0.0548,-0.805,-1.5838,-6.0637,-2.1985608648691786,-30.846417224222904,-0.07976877952858334,5.757999999994354
-0.5469,0.9164,-0.0337,0.3522,0.285,0.0548,-1.19,-1.4262,-6.37,-2.1714247755181035,-30.83349665793607,-0.07972889513881905,5.757999999994354
-0.5469,0.9164,-0.0337,0.3532,0.2861,0.0553,-1.19,-1.4262,-6.37,-2.152249779986737,-30.825339590584612,-0.07830163973313051,5.773000000001048
-0.5477,0.9154,-0.0346,0.3532,0.2861,0.0553,-0.9187,-1.5925,-6.195,-2.1538054095582595,-30.839699609518675,-0.07944207482443144,5.7889999999897555
-0.5489,0.9166,-0.0348,0.3532,0.2861,0.0553,-0.3325,-1.3563,-6.0813,-2.1600813426263192,-30.852722226961628,-0.07940235378701924,5.7889999999897555
-0.5489,0.9166,-0.0348,0.3542,0.2863,0.0518,-0.3325,-1.3563,-6.0813,-2.1644326221061427,-30.862776190486624,-0.07692728590153892,5.803999999996449
-0.5466,0.9195,-0.0335,0.3542,0.2863,0.0518,-0.6125,-1.2163,-6.1775,-2.1535527922949043,-30.82058982897844,-0.07688882225858816,5.803999999996449
-0.5462,0.9177,-0.0346,0.3542,0.2863,0.0518,-0.6125,-1.2163,-6.1775,-2.154341062160397,-30.798629441359108,-0.07201377335847353,5.819999999999709
-0.5462,0.9177,-0.0346,0.3536,0.2847,0.0561,-0.5425,-1.3388,-6.3963,-2.1552565807161566,-30.777369429618403,-0.0719777664717943,5.819999999999709
-0.5495,0.9184,-0.0353,0.3536,0.2847,0.0561,-0.5863,-1.19,-6.475,-2.1625377259411214,-30.81696290155272,-0.06668458350187807,5.835999999995693
-0.5447,0.9131,-0.0344,0.3536,0.2847,0.0561,-0.5863,-1.19,-6.475,-2.16174384840083,-30.80998696809801,-0.061722621752818396,5.850999999995111
-0.5447,0.9131,-0.0344,0.3517,0.2853,0.0534,-0.8313,-1.1725,-6.2387,-2.161518715444473,-30.806831841258244,-0.06169176044194199,5.850999999995111
-0.5494,0.9159,-0.0379,0.3517,0.2853,0.0534,-0.8313,-1.1725,-6.2387,-2.172640428928741,-30.846989001144678,-0.056123860475110934,5.866999999991094
-0.548,0.9176,-0.0303,0.3517,0.2853,0.0534,-0.7088,-1.3913,-6.0988,-2.1552151890418467,-30.843497523411436,-0.056095798544873385,5.866999999991094
-0.548,0.9176,-0.0303,0.3509,0.2846,0.0526,-0.84,-1.6187,-6.1863,-2.1390638909823716,-30.84030654242808,-0.057566415938769745,5.881999999997788
-0.543,0.9183,-0.0331,0.3509,0.2846,0.0526,-0.84,-1.6187,-6.1863,-2.1344904353871987,-30.76588477521463,-0.05933603108216674,5.900000000001455
-0.548,0.9185,-0.0368,0.3509,0.2846,0.0526,-1.1375,-1.6538,-6.2213,-2.177036621782551,-30.77657706234152,-0.059306363066625664,5.900000000001455
-0.548,0.9185,-0.0368,0.3522,0.2856,0.058,-1.1375,-1.6538,-6.2213,-2.208259032893701,-30.78402672144927,-0.06143660539556797,5.915999999990163
-0.5491,0.9188,-0.037,0.3522,0.2856,0.058,-0.7175,-1.4963,-5.9325,-2.213560457722875,-30.79159384389709,-0.06140588709287019,5.915999999990163
-0.5464,0.9157,-0.0366,0.3522,0.2856,0.058,-1.155,-1.3913,-6.0287,-2.2343025086032307,-30.794112702957303,-0.05946455494097112,5.930999999996857
-0.5464,0.9157,-0.0366,0.353,0.2837,0.0544,-1.155,-1.3913,-6.0287,-2.249331009126246,-30.79613967311533,-0.05943482266350064,5.930999999996857
-0.5482,0.9156,-0.0324,0.353,0.2837,0.0544,-0.9625,-1.9162,-6.3088,-2.2141436933016787,-30.829925415490223,-0.06576130156257336,5.9469999999928405
-0.5481,0.9163,-0.0292,0.353,0.2837,0.0544,-0.9625,-1.9162,-6.3088,-2.1526885161622555,-30.84493389183143,-0.07168735495406084,5.961999999992258
-0.5481,0.9163,-0.0292,0.3515,0.2846,0.0561,-0.7262,-1.8988,-6.5275,-2.137506604308642,-30.85715758798212,-0.07165151127658381,5.961999999992258
-0.547,0.916,-0.0358,0.3515,0.2846,0.0561,-1.05,-1.3913,-6.2737,-2.15922522653896,-30.846544538335458,-0.06957768103253033,5.977999999995518
-0.5486,0.917,-0.0387,0.3515,0.2846,0.0561,-1.05,-1.3913,-6.2737,-2.214768308651781,-30.853491597398207,-0.06750488770452565,5.993999999991502
-0.5486,0.917,-0.0387,0.3519,0.2842,0.0453,-1.0938,-1.19,-6.195,-2.2635815679084526,-30.857626491419325,-0.06747113526067339,5.993999999991502
-0.548,0.9181,-0.031,0.3519,0.2842,0.0453,-1.0938,-1.19,-6.23,-2.1838467223279365,-30.845434753988084,-0.06250878023334362,6.008999999998196
-0.5474,0.9176,-0.0339,0.3519,0.2842,0.0453,-0.7613,-1.1988,-6.23,-2.182938864158844,-30.831853713126257,-0.06247752584322695,6.008999999998196
-0.5474,0.9176,-0.0339,0.3522,0.2846,0.056,-0.9275,-1.75,-6.1512,-2.1740437956178744,-30.82367118376304,-0.066144612991377,6.024999999994179
-0.5497,0.9171,-0.0315,0.3522,0.2846,0.056,-0.9275,-1.75,-6.1512,-2.1466441946250145,-30.850276142230676,-0.06611154068488131,6.024999999994179
-0.545,0.9164,-0.0323,0.3522,0.2846,0.056,-0.7,-1.8813,-6.195,-2.1377341911080063,-30.813944226084253,-0.07151418070682794,6.039999999993597
-0.545,0.9164,-0.0323,0.3515,0.2849,0.0562,-0.7,-1.6625,-6.1863,-2.129444419977232,-30.788549850745078,-0.07377744952894291,6.055999999996857
-0.548,0.918,-0.0354,0.3515,0.2849,0.0562,-1.1287,-1.6625,-6.1863,-2.1500692031685174,-30.796497449122118,-0.07374056080417844,6.055999999996857
-0.5467,0.9192,-0.0346,0.3515,0.2849,0.0562,-0.9712,-1.6625,-6.1687,-2.150989731913964,-30.776575409641673,-0.07600271643519926,6.0719999999928405
-0.5467,0.9192,-0.0346,0.3529,0.287,0.0461,-0.9712,-1.6625,-6.1687,-2.151759159667704,-30.762167047079583,-0.0781200518704435,6.086999999999534
-0.5483,0.9166,-0.0352,0.3529,0.287,0.0461,-0.2975,-1.4612,-5.915,-2.1670992432605862,-30.774348852086963,-0.07808099184450829,6.086999999999534
-0.5475,0.9173,-0.0348,0.3529,0.287,0.0461,-0.4988,-1.5575,-6.2125,-2.168291815347701,-30.78595612861884,-0.07866181726043045,6.102999999995518
-0.5475,0.9173,-0.0348,0.3531,0.2859,0.0517,-0.4988,-1.5575,-6.2125,-2.1692264190543185,-30.794093180402456,-0.07862248635180023,6.102999999995518
-0.5461,0.9162,-0.0318,0.3531,0.2859,0.0517,-1.12,-1.61,-6.3263,-2.122686031398471,-30.78979606264323,-0.07995140565107126,6.117999999994936
-0.5477,0.9171,-0.0364,0.3531,0.2859,0.0517,-1.12,-1.61,-6.3263,-2.1612305684419244,-30.802552903519114,-0.08137087586054305,6.133999999998196
-0.5477,0.9171,-0.0364,0.3535,0.2845,0.0541,-0.7875,-1.7587,-6.3612,-2.1626288569614087,-30.811174752877445,-0.08133019042261279,6.133999999998196
-0.5453,0.9163,-0.0349,0.3535,0.2845,0.0541,-0.9363,-1.1812,-6.1775,-2.1652143035255937,-30.790893262862532,-0.07521686117961901,6.151999999994587
-0.5475,0.9179,-0.0342,0.3535,0.2845,0.0541,-0.9363,-1.1812,-6.1775,-2.160845953175413,-30.792705737931357,-0.0751792527490292,6.151999999994587
-0.5475,0.9179,-0.0342,0.3527,0.2839,0.047,-1.0938,-1.4963,-6.1687,-2.15430377590506,-30.793987120626998,-0.07480524641516774,6.166999999994005
-0.5493,0.9177,-0.0357,0.3527,0.2839,0.047,-1.0938,-1.4963,-6.1687,-2.1720718029607444,-30.818908474991325,-0.07440899930388706,6.182999999997264
-0.5477,0.917,-0.0331,0.3527,0.2839,0.047,-0.6825,-1.26,-6.0113,-2.163212540314075,-30.82137856866205,-0.07437179480423511,6.182999999997264
-0.5473,0.917,-0.0368,0.3518,0.2846,0.061,-0.8313,-1.26,-6.0988,-2.1704235962068066,-30.81868042214326,-0.07045546444948353,6.197999999996682
-0.5481,0.9187,-0.0353,0.3518,0.2846,0.0554,-0.9975,-1.68,-5.985,-2.1758907980448985,-30.815891369514507,-0.07042023671725879,6.197999999996682
-0.5449,0.9166,-0.0326,0.3524,0.2852,0.0554,-0.8925,-1.4963,-6.1512,-2.161260189275495,-30.78882741758754,-0.07002618211082706,6.213999999999942
-0.5449,0.9166,-0.0326,0.3524,0.2852,0.0554,-0.8925,-1.4963,-6.1512,-2.1481700421141814,-30.769002844620207,-0.06999116901977165,6.213999999999942
-0.5481,0.9166,-0.0341,0.3524,0.2852,0.0541,-1.015,-1.5838,-6.0462,-2.1447625659391973,-30.78794266811944,-0.0709966289470006,6.2299999999959255
-0.5485,0.9182,-0.0348,0.3528,0.2838,0.0541,-1.015,-1.5838,-6.0113,-2.149744113723046,-30.79650080123513,-0.07193655767498926,6.244999999995343
-0.5485,0.9182,-0.0348,0.3528,0.2838,0.0541,-0.6475,-1.6013,-6.0113,-2.152086572970038,-30.803485481465874,-0.07190058939615177,6.244999999995343
-0.5483,0.9182,-0.033,0.3528,0.285,0.0477,-0.805,-1.855,-6.23,-2.1493394443639766,-30.810751596275644,-0.07724212501210384,6.260999999991327
-0.5463,0.9176,-0.0332,0.3531,0.285,0.0477,-0.805,-1.855,-6.23,-2.147077582432818,-30.79247156371893,-0.0772035039495978,6.260999999991327
-0.5463,0.9176,-0.0332,0.3531,0.285,0.0477,-0.6825,-1.6538,-6.3437,-2.140743640619122,-30.777730656593675,-0.07918980424102663,6.275999999998021
-0.5497,0.9163,-0.039,0.3525,0.2836,0.0538,-0.1663,-1.085,-6.16,-2.2528883045536094,-30.82113807488575,-0.072213855249493,6.292000000001281
-0.5456,0.9189,-0.0325,0.3525,0.2836,0.0538,-0.1663,-1.085,-6.16,-2.1669082440889027,-30.783851420425613,-0.07217774832186825,6.292000000001281
-0.5456,0.9189,-0.0339,0.3525,0.2836,0.0538,-1.015,-1.6538,-5.9325,-2.1564281627075137,-30.770936693795644,-0.07430155495916516,6.307999999997264
-0.5484,0.9167,-0.0339,0.3554,0.2845,0.0486,-1.015,-1.6538,-5.9325,-2.1489588125403927,-30.783848648171947,-0.07426440418168558,6.307999999997264
-0.5482,0.9165,-0.0316,0.3554,0.2845,0.0486,-0.8575,-1.4438,-5.9675,-2.135652633563534,-30.797166700819037,-0.07310374902213834,6.322999999996682
-0.5482,0.9165,-0.0345,0.3554,0.2845,0.0486,-1.085,-1.3737,-6.2125,-2.1404174999898053,-30.818248127046033,-0.07074773346020952,6.338999999992666
-0.5477,0.9178,-0.0345,0.3529,0.2858,0.0522,-1.085,-1.3737,-6.2125,-2.143332072056551,-30.81547545760802,-0.07071235959347942,6.338999999992666
-0.5459,0.9193,-0.0337,0.3529,0.2858,0.0522,-0.7788,-1.3475,-6.2913,-2.1431579803401593,-30.771967453955686,-0.06810970270503701,6.35399999999936
-0.5459,0.9161,-0.0351,0.3529,0.2858,0.0522,-0.7788,-1.3475,-6.2913,-2.143360338320441,-30.771996206726712,-0.0680756478536845,6.35399999999936
-0.5502,0.9161,-0.0351,0.3545,0.2854,0.0596,-0.6562,-1.6187,-5.8275,-2.1487504805533653,-30.779882334164007,-0.0696401863413564,6.369999999995343
-0.5476,0.9151,-0.0376,0.3545,0.2854,0.0596,-0.805,-1.6363,-5.9325,-2.1547304911377143,-30.792060707591933,-0.0714854017597138,6.385999999991327
-0.5474,0.9165,-0.0329,0.3545,0.2854,0.0596,-0.805,-1.6363,-5.9325,-2.1518347460863096,-30.797222163849796,-0.07144965905883394,6.385999999991327
-0.5474,0.9165,-0.0329,0.3519,0.2854,0.0538,-0.8662,-2.1,-5.95,-2.143801219875389,-30.80218631275437,-0.08012848977569348,6.400999999998021
-0.5466,0.9171,-0.0379,0.3519,0.2854,0.0538,-1.0675,-1.5225,-6.2825,-2.1942129514252873,-30.79278050829319,-0.08008842553080564,6.400999999998021
-0.5473,0.9174,-0.0353,0.355,0.2838,0.0538,-0.7437,-1.4875,-6.02,-2.1944949707834485,-30.794281583590482,-0.07954880723016565,6.416999999994005
-0.5477,0.9162,-0.0371,0.355,0.2838,0.0538,-0.7437,-1.4875,-6.02,-2.1982474038847957,-30.804867968180368,-0.07950903282655057,6.416999999994005
-0.5492,0.9179,-0.0356,0.355,0.2838,0.0538,-0.4725,-1.4612,-5.775,-2.203542330200963,-30.80562262383695,-0.07860662485267078,6.4319999999934225
-0.5469,0.9182,-0.0328,0.3529,0.2854,0.0549,-0.385,-1.7413,-6.0637,-2.159313514023027,-30.796336438653793,-0.08212651705296956,6.447999999996682
-0.5462,0.916,-0.0332,0.3529,0.2854,0.0549,-0.8225,-1.6187,-6.195,-2.1555104842885098,-30.794666852432204,-0.08208545379444307,6.447999999996682
-0.5455,0.9171,-0.0354,0.3518,0.2857,0.0514,-1.0675,-1.4787,-6.265,-2.1679644818217962,-30.77238242214589,-0.08140410737970658,6.463999999992666
-0.5475,0.916,-0.0366,0.3518,0.2857,0.0514,-0.5337,-1.4963,-6.1512,-2.1913062065972357,-30.792329342093534,-0.08136340532601673,6.463999999992666
-0.5469,0.9182,-0.0368,0.3522,0.2846,0.053,-0.5337,-1.4963,-6.1512,-2.2114699532360746,-30.783344957770925,-0.0809863069157036,6.47899999999936
-0.5472,0.9182,-0.0353,0.3522,0.2846,0.053,-0.315,-1.9512,-6.1863,-2.208373546394982,-30.780720969013416,-0.08786173007250973,6.494999999995343
-0.548,0.9188,-0.0321,0.355,0.2859,0.0457,-0.7875,-1.7763,-6.1687,-2.205775790487826,-30.785434500518004,-0.08781779920747348,6.494999999995343
-0.548,0.9188,-0.0321,0.355,0.2859,0.0457,-0.8925,-1.54,-6.2125,-2.1842066260966146,-30.78911703650394,-0.08809264585035738,6.509999999994761
-0.5467,0.9146,-0.0375,0.3502,0.2848,0.0536,-0.7088,-1.3475,-6.4837,-2.19434419687188,-30.813144807649444,-0.0880485995274322,6.509999999994761
-0.5467,0.9146,-0.0375,0.3502,0.2848,0.0536,-0.5688,-1.6888,-5.8888,-2.220575392265489,-30.816354410306474,-0.09072419073898581,6.525999999990745
-0.5485,0.9182,-0.0347,0.354,0.2855,0.0538,-0.5688,-1.6888,-6.0375,-2.210954224644276,-30.82001965385236,-0.09339844415617038,6.541999999994005
-0.5456,0.9169,-0.0345,0.354,0.2855,0.0538,-0.7962,-1.75,-6.0375,-2.209779551200781,-30.80331575360926,-0.0933517449340923,6.541999999994005
-0.5473,0.9162,-0.0356,0.3526,0.2838,0.053,-0.6125,-1.3388,-5.9588,-2.2119293604983614,-30.80773661386551,-0.09060733360292138,6.5570000000006985
-0.5474,0.9169,-0.0359,0.3526,0.2838,0.053,-0.49,-1.7237,-5.8012,-2.2186385977123932,-30.807895727233248,-0.09056202993611992,6.5570000000006985
-0.5493,0.9178,-0.0343,0.3526,0.2838,0.053,-0.3938,-1.4612,-6.1163,-2.197014311678655,-30.826480871464234,-0.08959658523338285,6.572999999996682
-0.5447,0.9161,-0.0331,0.3498,0.2861,0.0558,-1.0063,-1.6888,-6.3,-2.173003786863296,-30.78988991705281,-0.09210142648316721,6.5879999999961
-0.5483,0.9158,-0.0353,0.3498,0.2861,0.0558,-0.9013,-1.47,-6.055,-2.176866191943894,-30.811257801200593,-0.09205537576992563,6.5879999999961
-0.5485,0.9174,-0.0339,0.3513,0.2847,0.0514,-0.4638,-1.8463,-6.1512,-2.16248486038836,-30.823592232668506,-0.09724770359272573,6.603999999992084
-0.5472,0.9172,-0.034,0.3523,0.2849,0.0533,-0.5337,-1.61,-6.2825,-2.1548031894036654,-30.816736007163446,-0.09719907974092938,6.603999999992084
-0.5483,0.9167,-0.0365,0.3523,0.2849,0.0533,-0.5337,-1.61,-6.2825,-2.179150411114057,-30.832634085582143,-0.09860992611335626,6.619999999995343
-0.548,0.9177,-0.0333,0.3523,0.2849,0.0533,-0.6913,-1.6975,-6.4837,-2.1713647081159393,-30.830210647587016,-0.1012406954439956,6.635000000002037
-0.5448,0.9166,-0.0343,0.3537,0.2882,0.0535,-0.595,-1.61,-6.0287,-2.1670507015145035,-30.80642250778007,-0.10547719746198782,6.6819999999934225
-0.5471,0.918,-0.0364,0.3537,0.2882,0.0535,-1.0588,-1.7062,-6.4488,-2.18996825958358,-30.793444854388547,-0.10842233517586758,6.697999999996682
-0.5466,0.9182,-0.0358,0.3529,0.2859,0.0529,-0.84,-1.435,-6.335,-2.192588804782059,-30.776633225033372,-0.10836812400827965,6.697999999996682
-0.5461,0.9173,-0.0318,0.3529,0.2859,0.0529,-0.5688,-1.5575,-5.9412,-2.1572084886823992,-30.773278675796305,-0.10889506423875296,6.7129999999961
-0.5459,0.917,-0.0381,0.3525,0.2842,0.051,-0.6737,-1.3737,-5.985,-2.1775934170828117,-30.768433292806318,-0.10884061670663359,6.7129999999961
-0.548,0.9188,-0.0356,0.3525,0.2842,0.051,-0.6737,-1.3737,-5.985,-2.1813851852654005,-30.772712717226387,-0.10646673271086252,6.728999999992084
-0.5466,0.9166,-0.0345,0.3534,0.2854,0.0568,-0.7088,-1.6712,-6.2475,-2.1797848358942415,-30.77856120398837,-0.10869927088802714,6.743999999998778
-0.5466,0.9167,-0.0356,0.3534,0.2854,0.0568,-0.9187,-1.5662,-6.2213,-2.1853414849290655,-30.78122225170972,-0.10864492125258313,6.743999999998778
-0.5497,0.9167,-0.0356,0.3532,0.2854,0.0532,-0.9363,-1.6538,-6.405,-2.1907107993912542,-30.838107243160422,-0.11075049430341466,6.759999999994761
-0.5496,0.9168,-0.0346,0.3532,0.2854,0.0532,-0.735,-1.4175,-6.195,-2.1895851112166898,-30.862956266998864,-0.10907610496793312,6.775999999998021
-0.5475,0.916,-0.0334,0.3536,0.285,0.0559,-0.735,-1.4175,-6.0988,-2.185704342291642,-30.859944363027417,-0.10902156691544916,6.775999999998021
-0.5455,0.9163,-0.0387,0.3536,0.285,0.0559,-0.5163,-1.5838,-6.2213,-2.2335147263042012,-30.824821564572286,-0.10994248317398045,6.790999999990163
-0.548,0.9192,-0.0342,0.3536,0.285,0.0559,-0.7262,-1.645,-6.2213,-2.2287514141176055,-30.812661679756346,-0.10988751193239346,6.790999999990163
-0.5485,0.9163,-0.0326,0.3536,0.2856,0.0566,-0.7,-1.7062,-6.3263,-2.215445367692322,-30.839403713117363,-0.11283044448903802,6.8069999999934225
-0.5464,0.9174,-0.0371,0.3536,0.2856,0.0566,-0.9363,-1.2862,-6.4313,-2.2293978256450386,-30.807199841602564,-0.1127740292667935,6.8069999999934225
-0.5484,0.9162,-0.0328,0.352,0.2849,0.0535,-0.63,-1.4175,-5.985,-2.2067440416308743,-30.820418570238942,-0.11119981654398277,6.822000000000116
-0.5475,0.9173,-0.0331,0.352,0.2849,0.0535,-0.3325,-1.7062,-6.1687,-2.1637576315256513,-30.818891148911696,-0.11414209294695826,6.8379999999961
-0.5461,0.9155,-0.0353,0.3527,0.2846,0.0615,-0.3325,-1.7062,-6.1687,-2.1773642498901777,-30.812985052842926,-0.11408502190048479,6.8379999999961
-0.5488,0.9191,-0.0371,0.3527,0.2846,0.0615,-0.7262,-1.3737,-6.4662,-2.1835844542825043,-30.816289354255282,-0.11170851570106202,6.85399999999936
-0.5495,0.9188,-0.037,0.3532,0.2862,0.0517,-0.4375,-1.505,-6.2737,-2.2144746562615296,-30.83115085943375,-0.1116526614432115,6.85399999999936
-0.5469,0.9184,-0.0337,0.3532,0.2862,0.0517,-0.84,-1.4525,-6.0637,-2.2075604146846146,-30.814932456486797,-0.11060374690551014,6.868999999991502
-0.5454,0.9161,-0.0345,0.3532,0.2842,0.0537,-0.7962,-1.8463,-5.8362,-2.2064961395934914,-30.811811388093975,-0.1157868005451246,6.884999999994761
-0.5479,0.9171,-0.0342,0.3532,0.2842,0.0537,-0.6825,-1.4175,-6.1163,-2.2005087898690383,-30.818237761807524,-0.11572890714485204,6.884999999994761
-0.5479,0.9171,-0.0361,0.3525,0.285,0.0539,-0.8225,-1.7587,-6.4225,-2.202951512273717,-30.825027836527678,-0.11926865798538508,6.900000000001455
-0.5463,0.9165,-0.0361,0.3525,0.285,0.0539,-0.8225,-1.7587,-6.4225,-2.2053501566774147,-30.80691515814695,-0.12304647996742911,6.915999999997439
-0.547,0.916,-0.0341,0.353,0.286,0.0534,-0.7613,-1.3737,-6.3525,-2.2043713591079186,-30.814020839469077,-0.12066549304002763,6.9319999999934225
-0.5455,0.9164,-0.0329,0.353,0.286,0.0534,-0.7437,-1.5488,-6.2125,-2.199896944561009,-30.794163755487,-0.12060516029350762,6.9319999999934225
-0.5496,0.918,-0.0335,0.3534,0.2846,0.0538,-0.6825,-1.4525,-6.0813,-2.1906030622487696,-30.816433360516875,-0.11955176950589942,6.9469999999928405
-0.5467,0.9155,-0.0339,0.3534,0.2846,0.0538,-0.6037,-1.5575,-6.2213,-2.180379395078194,-30.819542156268934,-0.12011185953327277,6.9629999999961
-0.5472,0.917,-0.0362,0.3521,0.2843,0.0554,-0.7875,-1.4963,-6.37,-2.181384761491116,-30.81458771382748,-0.12005180360350615,6.9629999999961
-0.5474,0.9172,-0.0368,0.3521,0.2843,0.0554,-0.9275,-1.8463,-5.9588,-2.196777689571602,-30.813789719843033,-0.12490273599401383,6.977999999995518
-0.547,0.9184,-0.0342,0.3524,0.2848,0.053,-0.9275,-1.8463,-6.3263,-2.1882813298996693,-30.7951402787411,-0.12484028462601683,6.977999999995518
-0.5473,0.9168,-0.0346,0.3524,0.2848,0.053,-0.665,-1.6363,-6.3263,-2.1856129514683866,-30.80312183798815,-0.12665789999523192,6.993999999991502
-0.5481,0.9152,-0.0409,0.3524,0.2848,0.053,-0.805,-1.4875,-6.2387,-2.196546949601277,-30.830690132589023,-0.12609499695713253,7.009999999994761
-0.547,0.9165,-0.0382,0.3532,0.2851,0.046,-1.0588,-1.54,-6.23,-2.2386088680417586,-30.823832433110294,-0.12603194945865398,7.009999999994761
-0.5477,0.9176,-0.034,0.3532,0.2851,0.046,-1.4787,-1.3038,-6.5188,-2.1904455498763262,-30.820085225433328,-0.1225316289967875,7.025999999990745
-0.5452,0.9174,-0.0344,0.3517,0.2856,0.0527,-1.1287,-1.8288,-6.3263,-2.1792019038165242,-30.779661903286836,-0.12247036318228911,7.025999999990745
-0.5489,0.9176,-0.0373,0.3517,0.2856,0.0527,-1.1287,-1.8288,-6.3263,-2.218033564412404,-30.810173484192187,-0.12736762351370814,7.041999999994005
-0.548,0.9179,-0.0327,0.3533,0.2825,0.0524,-1.0762,-1.2513,-6.3263,-2.1768701735654568,-30.814266399577622,-0.12329436049266199,7.0570000000006985
-0.548,0.9177,-0.0336,0.3533,0.2825,0.0524,-1.0762,-1.2513,-6.3263,-2.1583385087853326,-30.818535413629153,-0.12323271331241566,7.0570000000006985
-0.5483,0.9177,-0.0336,0.3541,0.2856,0.053,-1.1463,-1.6013,-6.0988,-2.1416834804223357,-30.823706019778275,-0.12449141246742802,7.072999999996682
-0.5461,0.9173,-0.0329,0.3541,0.2856,0.053,-0.6825,-1.4525,-5.7312,-2.134281003853247,-30.819905948340782,-0.12442916676119431,7.072999999996682
-0.5465,0.918,-0.0335,0.3531,0.285,0.0531,-0.84,-1.6625,-5.9763,-2.1315671608856617,-30.80861220623615,-0.1266659780902821,7.088999999999942
-0.5473,0.9168,-0.0329,0.3531,0.285,0.0531,-0.84,-1.6625,-6.2737,-2.126895086961331,-30.812218535807844,-0.12875798189260784,7.103999999992084
-0.5484,0.9162,-0.0316,0.3533,0.2843,0.0527,-1.0762,-1.5838,-6.2737,-2.0918028623368006,-30.83706501173688,-0.12869360290166154,7.103999999992084
-0.5477,0.9163,-0.0339,0.3533,0.2843,0.0527,-0.8487,-1.5488,-6.3263,-2.0936590905302404,-30.84187349511534,-0.12862925610021073,7.103999999992084
-0.5463,0.9183,-0.0351,0.3525,0.2854,0.0534,-1.1375,-1.3913,-6.1337,-2.1190182680624043,-30.81306229769916,-0.12652693698374545,7.119999999995343
-0.5452,0.9171,-0.0371,0.3525,0.2854,0.0534,-0.7,-1.7325,-5.9763,-2.132769139466266,-30.796615162044198,-0.12966848530918376,7.135000000002037
-0.5475,0.9162,-0.0349,0.3525,0.2854,0.0534,-0.7875,-1.6975,-6.3437,-2.1333788938545712,-30.813321391131034,-0.12960365106652919,7.135000000002037
-0.548,0.9176,-0.0347,0.3538,0.2862,0.0473,-0.6825,-1.785,-6.5887,-2.136107827084322,-30.819882947272948,-0.13379689515192708,7.150999999998021
-0.5467,0.9171,-0.0334,0.3538,0.2862,0.0473,-0.6825,-1.785,-6.5887,-2.1318510502488137,-30.803567314521505,-0.13372999670435112,7.150999999998021
-0.5461,0.917,-0.0348,0.3519,0.2841,0.0529,-0.7613,-1.7062,-6.2825,-2.132404224791627,-30.788084572913874,-0.13666100801724643,7.166999999994005
-0.5453,0.9161,-0.0351,0.3519,0.2841,0.0529,-0.9363,-2.135,-6.2913,-2.140994494904644,-30.77340839701072,-0.14583197055537928,7.1819999999934225
-0.5465,0.917,-0.0348,0.3516,0.2842,0.0561,-0.6562,-1.6888,-6.51,-2.1444225780795194,-30.774219011624933,-0.1457590545701016,7.1819999999934225
-0.548,0.9174,-0.0343,0.3516,0.2842,0.0561,-1.0237,-1.1725,-5.845,-2.1437789380823227,-30.777545811101547,-0.14014912095368853,7.197999999996682
-0.548,0.9174,-0.0343,0.3532,0.286,0.0542,-0.7962,-1.33,-6.16,-2.143724801414617,-30.79290053360811,-0.1400790463932117,7.197999999996682
-0.5468,0.9177,-0.0354,0.3532,0.286,0.0542,-0.175,-1.3125,-5.9763,-2.168225417062783,-30.78913433569846,-0.1369169686626351,7.2129999999961
-0.5433,0.9169,-0.0323,0.3526,0.2858,0.0525,-0.4025,-1.75,-5.9675,-2.1273453513243172,-30.765131155934355,-0.14054683608937546,7.228999999992084
-0.5433,0.9169,-0.0333,0.3526,0.2858,0.0525,-0.4025,-1.75,-5.9675,-2.1144881971598286,-30.744664480478594,-0.14047656267133077,7.228999999992084
-0.5445,0.916,-0.0333,0.3521,0.2853,0.0528,-0.9538,-1.4088,-6.16,-2.1095557712863795,-30.735774257663742,-0.13864817990163694,7.244999999995343
-0.5477,0.9166,-0.036,0.3521,0.2853,0.0528,-0.9275,-1.4088,-6.055,-2.1280485817798467,-30.75793561658777,-0.13857885581168614,7.244999999995343
-0.5462,0.9186,-0.034,0.3521,0.2853,0.0528,-1.0237,-1.6888,-6.3437,-2.1263872867128724,-30.743820943663344,-0.14105920592618135,7.259999999994761
-0.5436,0.9179,-0.0321,0.3546,0.2844,0.0506,-1.2513,-1.5313,-6.4575,-2.0865303803636186,-30.693907981376533,-0.14098867632321826,7.259999999994761
-0.5475,0.9177,-0.0361,0.3534,0.2848,0.0536,-1.1638,-1.4175,-5.915,-2.1330685377704315,-30.706121890587767,-0.13929916789672683,7.275999999998021
-0.5507,0.9162,-0.0342,0.3534,0.2848,0.0536,-1.1638,-1.4175,-5.915,-2.1343794938509646,-30.73868738758659,-0.13771169260607363,7.290999999990163
-0.5477,0.9164,-0.0335,0.3534,0.2848,0.0536,-1.1725,-1.5313,-6.3612,-2.1227700991217793,-30.778759426112376,-0.1376428367597706,7.290999999990163
-0.546,0.9171,-0.0356,0.3524,0.2847,0.056,-0.2975,-1.3913,-5.9237,-2.1551516773953043,-30.77512246724956,-0.13553601085297554,7.3069999999934225
-0.55,0.9195,-0.0361,0.3524,0.2847,0.056,-0.2975,-1.6013,-6.125,-2.1852491491471473,-30.798222240022202,-0.13678855835981804,7.322999999996682
-0.547,0.918,-0.0331,0.3526,0.2853,0.0547,-0.7088,-1.68,-6.265,-2.177802007152473,-30.789950998822775,-0.13672016408063814,7.322999999996682
-0.5461,0.917,-0.0335,0.3526,0.2853,0.0547,-0.9975,-1.54,-6.09,-2.1622133180973355,-30.782555644825784,-0.13697055954108545,7.3379999999961
-0.5499,0.9153,-0.0386,0.3511,0.2853,0.057,-0.9975,-1.54,-6.2913,-2.2082238607289306,-30.84695778630751,-0.1369020742613149,7.3379999999961
-0.5497,0.9186,-0.0342,0.3511,0.2853,0.057,-0.9712,-1.5575,-6.2913,-2.19573987607524,-30.857803459103874,-0.13745348913631053,7.35399999999936
-0.5497,0.9186,-0.0329,0.3521,0.285,0.0533,-0.2013,-1.5575,-6.1337,-2.1430551238731095,-30.86367707894163,-0.13738476239174238,7.35399999999936
-0.5474,0.9184,-0.0371,0.3521,0.285,0.0533,-0.9538,-1.6013,-5.7925,-2.168897265844101,-30.863112956377655,-0.1385538658023981,7.368999999991502
-0.5474,0.9184,-0.0371,0.3538,0.2861,0.0532,-0.9712,-1.33,-6.1775,-2.1925974400212933,-30.838590656696923,-0.135466274780882,7.384999999994761
-0.5488,0.9159,-0.0371,0.3538,0.2861,0.0532,-0.9887,-1.6538,-6.3263,-2.2149729256498065,-30.863288692992203,-0.13539854164349155,7.384999999994761
-0.5484,0.9176,-0.0329,0.3518,0.2849,0.0527,-0.595,-1.5925,-5.9325,-2.190351228866671,-30.86137095044018,-0.1365104282849101,7.400999999998021
-0.5466,0.9151,-0.0324,0.3518,0.2849,0.0527,-0.595,-1.5925,-6.0813,-2.1655711406948637,-30.85526162581854,-0.13644217307076767,7.400999999998021
-0.5508,0.9175,-0.0365,0.3512,0.2841,0.0488,-0.6737,-1.61,-6.0813,-2.1759087019468883,-30.878577589232655,-0.1377421825266792,7.415999999997439
-0.5466,0.9178,-0.0337,0.3512,0.2841,0.0488,-0.8925,-1.6625,-6.2562,-2.1682168996701043,-30.840380989563936,-0.13997233734788422,7.4320000000006985
-0.5456,0.9174,-0.0321,0.3512,0.2841,0.0488,-1.2862,-1.6625,-6.1687,-2.1126442813703905,-30.80860752709601,-0.1399023511792103,7.4320000000006985
-0.5439,0.9176,-0.0356,0.354,0.2874,0.0468,-0.7175,-1.3038,-6.7025,-2.118560823053428,-30.727071352924703,-0.13660992704780883,7.4469999999928405
-0.5486,0.9166,-0.0365,0.354,0.2874,0.0468,-0.8838,-1.645,-6.4662,-2.1344624985908953,-30.789469399785403,-0.13654162208428494,7.4469999999928405
-0.55,0.9165,-0.0362,0.3528,0.2867,0.0585,-0.8838,-1.645,-6.7638,-2.1469857617789008,-30.86816648476612,-0.13849251718565417,7.4629999999961
-0.5486,0.9177,-0.034,0.3528,0.2867,0.0585,-0.84,-2.0213,-6.7638,-2.1454439207135776,-30.86097980152604,-0.1464602264406987,7.47899999999936
-0.5454,0.9151,-0.037,0.3508,0.2862,0.059,-0.5775,-1.6975,-6.2475,-2.173446893478506,-30.833636689435004,-0.14638699632747837,7.47899999999936
-0.5474,0.919,-0.0364,0.3508,0.2862,0.059,-1.0237,-1.82,-5.7488,-2.1923298074757813,-30.831004283201107,-0.1508304583716394,7.493999999998778
-0.5483,0.9184,-0.0337,0.3547,0.2836,0.0534,-0.7788,-1.8375,-5.9062,-2.1919695798145766,-30.829924270927336,-0.15075504314245358,7.493999999998778
-0.5483,0.9184,-0.0368,0.3547,0.2836,0.0534,-0.6037,-1.575,-6.5363,-2.206964979288772,-30.824673863210876,-0.1515793915326565,7.509999999994761
-0.5491,0.9163,-0.0345,0.3535,0.2867,0.0538,-1.0412,-1.575,-6.335,-2.1962969972959443,-30.85654128654218,-0.15150360183689018,7.509999999994761
-0.5519,0.9166,-0.0321,0.3535,0.2867,0.0538,-0.6388,-1.4175,-5.8012,-2.173478665363043,-30.8592431569538,-0.14991002432853065,7.524999999994179
