AcclX,AcclY,AcclZ,MagX,MagY,MagZ,GyroX,GyroY,GyroZ,Roll,Pitch,Yaw,Time Elapsed(s)
-0.5525,0.9065,-0.1067,0.4398,0.3368,-0.005,-0.8838,-2.0475,-5.985,0,0,0,0.004000000008090865
-0.558,0.9155,-0.0976,0.4393,0.3375,-0.0069,-0.8838,-2.0475,-5.985,0,0,0,0.011000000005878974
-0.558,0.9155,-0.0976,0.4393,0.3375,-0.0069,-1.05,-2.17,-5.39,0,0,0,0.017000000007101335
-0.5489,0.9084,-0.1014,0.4393,0.3375,-0.0069,-1.05,-2.17,-5.39,0,0,0,0.02500000000873115
-0.5583,0.9149,-0.1061,0.4387,0.3383,-0.0114,-0.4812,-1.4088,-5.8538,0,0,0,0.030000000006111804
-0.5583,0.9149,-0.1061,0.4387,0.3383,-0.0114,-0.9712,-1.4088,-5.495,0,0,0,0.03700000000389991
-0.5506,0.9165,-0.1039,0.4387,0.3383,-0.0114,-0.9712,-1.4088,-5.495,0,0,0,0.043000000005122274
-0.5613,0.9235,-0.1001,0.4379,0.3369,-0.0074,-0.9538,-1.0237,-5.6788,0,0,0,0.05000000000291038
-0.5613,0.9235,-0.1001,0.4379,0.3369,-0.0074,-0.9538,-1.7587,-6.1425,0,0,0,0.056000000004132744
-0.5468,0.904,-0.105,0.4379,0.3369,-0.0074,-0.63,-1.7587,-6.1425,0,0,0,0.06300000000919681
-0.561,0.9063,-0.1055,0.44,0.3359,-0.0157,-0.8138,-0.7437,-6.5538,0,0,0,0.07000000000698492
-0.561,0.9063,-0.1055,0.44,0.3359,-0.0157,-0.8138,-0.7437,-6.5538,0,0,0,0.07600000000820728
-0.5528,0.9056,-0.1073,0.44,0.3359,-0.0157,-1.2425,-1.4525,-5.775,0,0,0,0.08300000000599539
-0.5672,0.9202,-0.1043,0.4389,0.3373,-0.0005,-1.54,-2.2313,-6.23,0,0,0,0.08899999999994179
-0.5672,0.9202,-0.1043,0.4389,0.3373,-0.0005,-1.54,-2.2313,-6.23,0,0,0,0.09600000000500586
-0.5495,0.9159,-0.1041,0.4389,0.3373,-0.0005,-0.805,-2.2487,-6.3875,0,0,0,0.10200000000622822
-0.5608,0.9108,-0.1051,0.4382,0.3383,-0.0143,-0.805,-2.2487,-6.3875,0,0,0,0.10900000000401633
-0.5608,0.9108,-0.1051,0.4382,0.3383,-0.0143,-1.05,-1.2775,-5.8975,0,0,0,0.11500000000523869
-0.5483,0.908,-0.0991,0.4382,0.3383,-0.0143,-0.6125,-0.5688,-5.3987,0,0,0,0.12200000001030276
-0.5546,0.9118,-0.1096,0.4389,0.3378,-0.0074,-0.6125,-0.5688,-5.3987,0,0,0,0.1290000000008149
-0.5546,0.9118,-0.1096,0.4389,0.3378,-0.0074,-0.3413,-1.3825,-5.4687,0,0,0,0.13500000000203727
-0.5531,0.9174,-0.103,0.4389,0.3378,-0.0074,-0.3413,-1.3825,-5.4687,0,0,0,0.14200000000710133
-0.5542,0.912,-0.1107,0.4388,0.3372,-0.006,-0.8838,-2.7562,-6.4138,0,0,0,0.14800000000104774
-0.5542,0.912,-0.1107,0.4388,0.3372,-0.006,-0.9187,-2.0738,-6.3787,0,0,0,0.1550000000061118
-0.5568,0.9143,-0.1066,0.4388,0.3372,-0.0098,-0.9187,-2.0738,-6.3787,0,0,0,0.16100000000733417
-0.5557,0.9104,-0.1044,0.4375,0.3373,-0.0098,-0.7088,-1.2337,-5.9237,0,0,0,0.16900000000896398
-0.5557,0.9104,-0.1044,0.4375,0.3373,-0.0098,-0.7088,-1.2337,-5.9237,0,0,0,0.17400000000634464
-0.5558,0.9146,-0.0984,0.4375,0.3373,-0.0122,-0.4638,-0.7437,-5.67,0,0,0,0.18100000000413274
-0.5484,0.9119,-0.1032,0.4392,0.3378,-0.0122,-0.7437,-1.8463,-6.1863,0,0,0,0.1880000000091968
-0.5484,0.9119,-0.1032,0.4392,0.3378,-0.0122,-0.7437,-1.8463,-6.1863,0,0,0,0.1940000000031432
-0.56,0.9107,-0.1107,0.4392,0.3373,-0.0183,-1.1812,-2.0038,-6.2125,0,0,0,0.20100000000820728
-0.5552,0.9118,-0.1053,0.4394,0.3373,-0.0183,-1.1812,-2.0038,-6.2125,0,0,0,0.20700000000215368
-0.5552,0.9118,-0.1053,0.4394,0.3373,-0.0183,-1.5662,-1.5225,-5.635,0,0,0,0.21400000000721775
-0.5561,0.9156,-0.1033,0.4388,0.3376,-0.0157,-1.435,-1.4438,-5.74,0,0,0,0.2200000000084401
-0.5511,0.9159,-0.1027,0.4388,0.3376,-0.0157,-1.435,-1.4438,-5.74,0,0,0,0.22700000000622822
-0.5511,0.9159,-0.1057,0.4388,0.3376,-0.0157,-0.7262,-1.26,-5.8538,0,0,0,0.23400000000401633
-0.551,0.9115,-0.1057,0.4382,0.3382,-0.0058,-0.7262,-1.26,-6.2913,0,0,0,0.2400000000052387
-0.5551,0.91,-0.1064,0.4382,0.3382,-0.0058,-0.9363,-1.1725,-6.2913,0,0,0,0.2470000000030268
-0.5551,0.91,-0.105,0.4382,0.3382,-0.0058,-0.4725,-1.0675,-5.705,0,0,0,0.25300000000424916
-0.5539,0.9116,-0.105,0.4374,0.3377,-0.0086,-0.4725,-1.0675,-5.705,0,0,0,0.2600000000093132
-0.5543,0.9111,-0.1022,0.4374,0.3377,-0.0086,-0.7962,-1.3212,-6.055,0,0,0,0.26600000000325963
-0.5543,0.9119,-0.1061,0.4374,0.3377,-0.0086,-1.015,-1.995,-6.2213,0,0,0,0.2730000000083237
-0.5566,0.9119,-0.1061,0.4382,0.3382,-0.0107,-1.015,-1.995,-6.2213,0,0,0,0.27900000000954606
-0.5547,0.9123,-0.1035,0.4382,0.3382,-0.0107,-0.4462,-1.4438,-5.67,0,0,0,0.28600000000733417
-0.5547,0.9111,-0.1074,0.4382,0.3382,-0.0107,-0.4462,-1.4438,-5.67,0,0,0,0.2930000000051223
-0.5567,0.9111,-0.1074,0.4385,0.3373,-0.0156,-0.8838,-0.9275,-5.74,0,0,0,0.29900000000634464
-0.5566,0.9124,-0.1021,0.4385,0.3373,-0.0156,-0.7962,-0.84,-5.6087,0,0,0,0.3060000000114087
-0.5564,0.9129,-0.1066,0.4385,0.3373,-0.0156,-0.7962,-0.84,-5.6087,0,0,0,0.3120000000053551
-0.5564,0.9129,-0.1066,0.4384,0.3378,-0.0122,-1.085,-1.4787,-5.6438,0,0,0,0.31900000001041917
-0.5588,0.9133,-0.1044,0.4384,0.3378,-0.0122,-1.085,-1.4787,-5.6438,0,0,0,0.3250000000043656
-0.5554,0.9113,-0.1035,0.4384,0.3378,-0.0122,-0.77,-2.17,-5.88,0,0,0,0.3330000000059954
-0.5554,0.9113,-0.1035,0.4385,0.3371,-0.0137,-0.805,-2.0387,-6.0813,0,0,0,0.338000000010652
-0.5547,0.9101,-0.1024,0.4385,0.3371,-0.0137,-0.805,-2.0387,-6.0813,0,0,0,0.34500000000116415
-0.5522,0.9099,-0.1047,0.4385,0.3371,-0.0137,-0.7,-0.7437,-5.3987,0,0,0,0.3520000000062282
-0.5522,0.9099,-0.1047,0.4382,0.3376,-0.0097,-0.7,-0.7437,-5.3987,0,0,0,0.3580000000074506
-0.5563,0.9177,-0.1073,0.4382,0.3376,-0.0097,-0.8487,-0.6562,-5.5037,0,0,0,0.3650000000052387
-0.5559,0.9135,-0.1085,0.4382,0.3376,-0.0097,-1.0325,-2.345,-5.8538,0,0,0,0.37100000000646105
-0.5559,0.9135,-0.1085,0.4386,0.3382,-0.0101,-1.0325,-2.345,-5.8538,0,0,0,0.37800000000424916
-0.5606,0.9137,-0.1019,0.4386,0.3382,-0.0101,-1.2513,-2.1875,-6.475,0,0,0,0.3840000000054715
-0.551,0.9137,-0.0983,0.4386,0.3382,-0.0101,-1.2513,-2.1875,-6.475,0,0,0,0.39100000000325963
-0.551,0.9137,-0.0983,0.4396,0.337,-0.0134,-0.98,-1.435,-5.95,0,0,0,0.3980000000083237
-0.5578,0.9087,-0.1028,0.4396,0.337,-0.0134,-0.3063,-0.6825,-5.8888,0,0,0,0.40400000000954606
-0.5538,0.9137,-0.1041,0.4396,0.337,-0.0134,-0.3063,-0.6825,-5.8888,0,0,0,0.41100000000733417
-0.5538,0.9137,-0.1041,0.4396,0.3384,-0.013,-0.2537,-1.4525,-5.9412,0,0,0,0.4170000000085565
-0.5542,0.9119,-0.1105,0.4396,0.3384,-0.013,-0.2537,-1.4525,-5.9412,0,0,0,0.42400000000634464
-0.5542,0.9134,-0.095,0.4396,0.3384,-0.013,-0.8225,-1.89,-6.1337,0,0,0,0.430000000007567
-0.5542,0.9134,-0.095,0.4392,0.3358,-0.0121,-1.0063,-1.9688,-5.95,0,0,0,0.4370000000053551
-0.5547,0.9084,-0.1055,0.4392,0.3358,-0.0121,-1.0063,-1.9688,-5.95,0,0,0,0.4429999999993015
-0.5567,0.9144,-0.1017,0.4392,0.3358,-0.0121,-1.0762,-1.6013,-5.915,0,0,0,0.4500000000043656
-0.5567,0.9144,-0.1017,0.4402,0.338,-0.0138,-1.0762,-1.8813,-5.6875,0,0,0,0.45700000000942964
-0.5555,0.9135,-0.1034,0.4402,0.338,-0.0138,-1.1375,-1.8813,-5.6875,0,0,0,0.46300000000337604
-0.5566,0.9117,-0.1067,0.4402,0.338,-0.0138,-1.0325,-1.575,-5.7663,0,0,0,0.47000000000116415
-0.5566,0.9117,-0.1067,0.4384,0.3377,-0.0093,-1.0325,-1.575,-5.7663,0,0,0,0.47600000000966247
-0.556,0.9154,-0.1051,0.4384,0.3377,-0.0093,-0.945,-1.6712,-5.8362,0,0,0,0.4830000000074506
-0.5485,0.9077,-0.1031,0.4384,0.3377,-0.0093,-1.1113,-1.7237,-6.0725,0,0,0,0.489000000001397
-0.5485,0.9077,-0.1031,0.4373,0.3379,-0.0135,-1.1113,-1.7237,-6.0725,0,0,0,0.49600000000646105
-0.5574,0.9143,-0.1062,0.4373,0.3379,-0.0135,-0.8225,-1.3563,-5.8625,0,0,0,0.5030000000115251
-0.5525,0.9151,-0.1007,0.4373,0.3379,-0.0135,-0.8225,-1.3563,-5.8625,0,0,0,0.5090000000054715
-0.5525,0.9151,-0.1007,0.4386,0.3381,-0.0102,-0.5075,-1.6625,-5.6175,0,0,0,0.5160000000032596
-0.5552,0.9123,-0.1032,0.4386,0.3381,-0.0102,-0.4375,-1.6538,-6.1425,0,0,0,0.522000000011758
-0.5561,0.914,-0.1056,0.4386,0.3381,-0.0102,-0.4375,-1.6538,-6.1425,0,0,0,0.5290000000022701
-0.5561,0.914,-0.1056,0.439,0.3382,-0.0118,-0.2975,-1.12,-5.6525,0,0,0,0.5350000000107684
-0.5531,0.9112,-0.1041,0.439,0.3382,-0.0118,-0.2975,-1.12,-5.6525,0,0,0,0.5420000000085565
-0.5546,0.9129,-0.1043,0.439,0.3382,-0.0118,-0.5425,-1.2163,-5.74,0,0,0,0.5480000000025029
-0.5546,0.9129,-0.1043,0.4376,0.3376,-0.0134,-0.6388,-1.435,-5.8888,0,0,0,0.555000000007567
-0.5526,0.913,-0.1053,0.4376,0.3376,-0.0134,-0.6388,-1.435,-5.8888,0,0,0,0.5620000000126311
-0.5527,0.9134,-0.1023,0.4376,0.3376,-0.0134,-0.4638,-1.7587,-5.81,0,0,0,0.5680000000065775
-0.5527,0.9134,-0.1023,0.4384,0.3375,-0.0074,-0.4638,-1.7587,-5.81,0,0,0,0.5750000000043656
-0.5538,0.9101,-0.1002,0.4384,0.3375,-0.0074,-0.7262,-1.435,-5.6,0,0,0,0.5810000000055879
-0.5595,0.9135,-0.1027,0.4384,0.3375,-0.0074,-0.1488,-0.8838,-5.1363,0,0,0,0.588000000003376
-0.5595,0.9135,-0.1027,0.4383,0.339,-0.019,-0.1488,-0.8838,-5.1363,0,0,0,0.5940000000045984
-0.5572,0.9149,-0.1053,0.4383,0.339,-0.019,-0.4462,-1.6625,-5.67,0,0,0,0.6010000000096625
-0.5543,0.9145,-0.1019,0.4383,0.339,-0.019,-0.4462,-1.6625,-5.67,0,0,0,0.6080000000074506
-0.5543,0.9145,-0.1019,0.4378,0.3384,-0.0147,-1.0588,-2.205,-6.1163,0,0,0,0.6150000000052387
-0.5555,0.9116,-0.1041,0.4378,0.3384,-0.0147,-1.0938,-1.6538,-5.8187,0,0,0,0.621000000006461
-0.5546,0.9115,-0.1035,0.4378,0.3384,-0.0147,-1.0938,-1.6538,-5.8187,0,0,0,0.6270000000076834
-0.5546,0.9115,-0.1035,0.4379,0.3378,-0.0116,-0.6388,-1.2513,-5.7838,0,0,0,0.6340000000054715
-0.5553,0.9125,-0.1028,0.4379,0.3378,-0.0116,-0.6388,-1.2513,-5.5738,0,0,0,0.6400000000066939
-0.5557,0.9134,-0.1034,0.4379,0.3378,-0.0116,-0.9187,-1.4875,-5.5738,0,0,0,0.647000000004482
-0.5557,0.9134,-0.1034,0.4397,0.3374,-0.012,-1.0412,-2.03,-5.915,0,0,0,0.6530000000057044
-0.5546,0.9124,-0.1026,0.4397,0.3374,-0.012,-1.0412,-2.03,-5.915,-1.4094522575050787,-8.711068464081343,0.0,0.6600000000107684
-0.5581,0.9126,-0.1017,0.4397,0.3374,-0.012,-0.9275,-1.5313,-6.2475,-2.1206983320838875,-18.17059404459853,-0.0007484226004855809,0.6670000000012806
-0.5581,0.9126,-0.1055,0.4367,0.337,-0.0176,-0.98,-1.015,-5.985,-2.928387443639568,-22.291320567668578,0.001706697627291534,0.6730000000097789
-0.5551,0.913,-0.1055,0.4367,0.337,-0.0176,-0.98,-1.015,-5.985,-3.58973599364216,-25.070176581087477,0.006615336302501319,0.6850000000049477
-0.556,0.913,-0.1023,0.4367,0.337,-0.0176,-0.945,-1.82,-6.3,-4.028053763559639,-27.735833090081226,0.0030527701545636776,0.6940000000031432
-0.556,0.913,-0.106,0.4384,0.3377,-0.0042,-0.945,-1.82,-6.3,-4.433678446642129,-29.23383492995143,-0.00011254154715814963,0.702000000004773
-0.5553,0.914,-0.106,0.4384,0.3377,-0.0042,-1.0063,-1.8112,-5.8275,-4.865264263640413,-29.668168189670627,-0.0035925833590002808,0.7110000000102445
-0.5553,0.9132,-0.1072,0.4384,0.3377,-0.0042,-0.6562,-1.4963,-5.5563,-5.03687245689901,-29.710440925635044,-0.004238202197690975,0.7200000000084401
-0.5553,0.9132,-0.1055,0.4393,0.3384,-0.0111,-0.6562,-1.4963,-5.5563,-5.1825199619733935,-29.751647508077223,-0.004883498226962323,0.7290000000066357
-0.5522,0.9144,-0.1055,0.4393,0.3384,-0.0111,-0.6125,-1.6625,-6.1337,-5.361999101505333,-30.208203631010374,-0.007023523709651345,0.7380000000121072
-0.5539,0.9121,-0.0989,0.4393,0.3384,-0.0111,-0.6125,-1.6625,-6.1337,-5.4680312930486,-30.55309621980958,-0.009162479176134912,0.7470000000030268
-0.5539,0.9116,-0.1044,0.4393,0.3388,-0.0042,-0.8838,-1.3825,-5.6613,-5.585651946728237,-30.62019745169633,-0.00878162516712228,0.7560000000012224
-0.5541,0.9116,-0.1044,0.4393,0.3388,-0.0042,-0.3762,-1.4875,-5.915,-5.848317438455992,-30.762041136645763,-0.009471767914409911,0.7670000000071013
-0.556,0.9105,-0.1058,0.4393,0.3388,-0.0042,-0.3762,-1.4875,-5.915,-6.06444364339812,-30.895725147035183,-0.00997214734609621,0.7750000000014552
-0.5561,0.9116,-0.1043,0.4402,0.3376,-0.0014,-0.3762,-1.7675,-5.6175,-6.192676104301887,-30.922679098106617,-0.012711156588982185,0.783000000003085
-0.5561,0.9116,-0.1043,0.4402,0.3376,-0.0014,-0.3762,-1.7675,-5.6175,-6.285364575606647,-30.947384941003644,-0.016134795156386474,0.7930000000051223
-0.5544,0.9137,-0.1041,0.4402,0.3376,-0.0014,-0.4375,-1.6625,-5.5738,-6.337620528685614,-30.95356538218057,-0.018031143075196262,0.8010000000067521
-0.5556,0.9134,-0.1061,0.4385,0.3372,-0.013,-0.735,-1.8725,-6.6062,-6.344559733915404,-31.050854846464492,-0.021157755907427096,0.8080000000118162
-0.5556,0.9134,-0.1061,0.4385,0.3372,-0.013,-0.735,-1.8725,-6.6062,-6.351331817662484,-31.09763548703146,-0.025626646172126722,0.8180000000065775
-0.5561,0.911,-0.1083,0.4385,0.3372,-0.013,-0.4988,-1.7413,-6.37,-6.439925694789064,-31.15479536323366,-0.027831520449839903,0.8250000000043656
-0.556,0.9118,-0.1054,0.4403,0.3379,-0.0219,-0.4988,-1.7413,-6.37,-6.47177702588709,-31.177926958940706,-0.03003529229041423,0.8320000000021537
-0.556,0.9118,-0.1054,0.4403,0.3379,-0.0219,-0.3675,-1.8463,-6.2213,-6.506170701527985,-31.189169451037298,-0.03339435476095641,0.8400000000037835
-0.5564,0.913,-0.0997,0.4403,0.3379,-0.0219,-0.7525,-1.7413,-5.5563,-6.504216948892976,-31.189721197660592,-0.0355953451866803,0.8470000000088476
-0.5545,0.9127,-0.102,0.4386,0.3389,-0.0051,-0.7525,-1.7413,-5.5563,-6.503308201826228,-31.187782407395897,-0.0374784225991691,0.853000000002794
-0.5545,0.9127,-0.102,0.4386,0.3389,-0.0051,-1.085,-1.9688,-5.9062,-6.472231738027488,-31.16987473138973,-0.04235747227134711,0.8620000000082655
-0.5559,0.9137,-0.1101,0.4386,0.3389,-0.0051,-1.085,-1.9688,-5.8888,-6.5701062255604805,-31.16019640121516,-0.04614568488550773,0.8690000000060536
-0.5555,0.9123,-0.1049,0.4386,0.3374,-0.0134,-0.8662,-1.9863,-5.8888,-6.569065710327703,-31.16290075233136,-0.050054442147409416,0.8760000000111177
-0.5555,0.9123,-0.1049,0.4386,0.3374,-0.0134,-0.8662,-1.4,-5.5563,-6.568125362794821,-31.163116722291203,-0.049834880242473005,0.8840000000054715
-0.5539,0.9125,-0.1038,0.4386,0.3374,-0.0134,-0.8662,-1.4,-5.5563,-6.560575094869643,-31.16115140595649,-0.049591111282895645,0.8930000000036671
-0.554,0.9135,-0.1036,0.4395,0.3394,-0.0186,-0.1138,-1.365,-5.6438,-6.525136199027266,-31.15189623280781,-0.0491512203784539,0.9000000000087311
-0.554,0.9135,-0.1036,0.4395,0.3394,-0.0186,-0.7,-0.9712,-5.6087,-6.522046116825765,-31.14590322387226,-0.045956327720766445,0.9070000000065193
-0.5551,0.9134,-0.1083,0.4395,0.3394,-0.0186,-0.7,-0.9712,-5.6087,-6.535552654920198,-31.143257338117643,-0.042763032509407835,0.9140000000043074
-0.5556,0.9142,-0.1066,0.4404,0.3382,-0.0059,-1.0938,-1.26,-5.705,-6.5644459497784124,-31.1393514827357,-0.041591923145016425,0.9210000000020955
-0.5556,0.9142,-0.1066,0.4404,0.3382,-0.0059,-1.0938,-1.26,-5.705,-6.586103110711382,-31.136037208698102,-0.040257152499176226,0.9290000000037253
-0.5574,0.9119,-0.1069,0.4404,0.3382,-0.0059,-0.3675,-1.7062,-5.9588,-6.614283586620312,-31.173960827004606,-0.04220913437585334,0.9360000000087894
-0.5566,0.9141,-0.1002,0.4394,0.3367,-0.0168,-0.5512,-1.47,-6.1512,-6.5523991418771095,-31.17845709075014,-0.04250756696006444,0.9430000000065775
-0.5566,0.9141,-0.1002,0.4394,0.3367,-0.0168,-0.5512,-1.47,-6.1512,-6.501190559889517,-31.18122454171511,-0.042851498492326674,0.9510000000009313
-0.555,0.9129,-0.1001,0.4394,0.3367,-0.0168,-0.4288,-1.6538,-6.1163,-6.440609060757605,-31.168100945428023,-0.044435566595741986,0.9580000000059954
-0.5552,0.9126,-0.1075,0.4389,0.3364,-0.0096,-0.4288,-1.6538,-6.1163,-6.509626398586212,-31.15772501591041,-0.04578948639972447,0.9640000000072177
-0.5552,0.9126,-0.1075,0.4389,0.3364,-0.0096,-1.0588,-2.0387,-6.0113,-6.557653760279996,-31.15198097450117,-0.050679102169057515,0.9720000000015716
-0.555,0.9134,-0.1055,0.4389,0.3364,-0.0096,-0.7875,-1.6625,-5.9412,-6.558491742044271,-31.14127874354656,-0.05255817793436097,0.9800000000032014
-0.5558,0.9125,-0.1052,0.4365,0.3377,-0.011,-0.7875,-1.6625,-5.9412,-6.558978206274826,-31.151933975263542,-0.0541982622480993,0.9870000000082655
-0.5558,0.9125,-0.1052,0.4365,0.3377,-0.011,-0.4988,-1.505,-5.6262,-6.562595859671449,-31.15426332782635,-0.05481620843310666,0.9950000000098953
-0.5557,0.91,-0.1027,0.4365,0.3377,-0.011,-0.4988,-1.505,-5.6262,-6.537022190335195,-31.16291329224614,-0.055353214979625094,1.0020000000004075
-0.5543,0.9104,-0.1037,0.4393,0.3386,-0.0194,-0.315,-1.645,-5.53,-6.525110696468495,-31.16294313981848,-0.057310584353842085,1.011000000005879
-0.5543,0.9104,-0.1037,0.4393,0.3386,-0.0194,-0.7437,-1.6975,-5.5475,-6.524689428245511,-31.16311875178127,-0.059466204378110156,1.0190000000075088
-0.5555,0.9133,-0.1069,0.4393,0.3386,-0.0194,-0.7437,-1.6975,-5.5475,-6.52706878451531,-31.16257307720096,-0.0616207465923661,1.0270000000091386
-0.5561,0.9132,-0.1052,0.4382,0.3377,-0.017,-1.0325,-1.8813,-5.9412,-6.53658509144311,-31.165370835507673,-0.06524387633581433,1.0350000000107684
-0.5561,0.9132,-0.1052,0.4382,0.3377,-0.017,-1.0325,-1.8813,-5.9412,-6.544061633275198,-31.167348476134592,-0.06886519451439083,1.0430000000123982
-0.5553,0.9138,-0.1055,0.4382,0.3377,-0.017,-0.7875,-1.3825,-5.7575,-6.545190156755783,-31.15812905794569,-0.0685381053190303,1.0500000000029104
-0.5542,0.9135,-0.1021,0.4405,0.3371,-0.0126,-0.5512,-1.3212,-5.9237,-6.5162377826373845,-31.137840024254196,-0.06767921678220279,1.0580000000045402
-0.5542,0.9135,-0.1021,0.4405,0.3371,-0.0126,-0.5512,-1.3212,-5.9237,-6.492280065477125,-31.12331876294744,-0.06682075768964368,1.06600000000617
-0.5574,0.9126,-0.1041,0.4405,0.3371,-0.0126,-0.7262,-1.54,-6.1425,-6.492775807728265,-31.172120760094522,-0.0677122526269873,1.0740000000077998
-0.555,0.9121,-0.1067,0.4388,0.3374,-0.0168,-0.7262,-1.54,-6.3875,-6.498591020537821,-31.160628173316933,-0.06848768865191808,1.081000000005588
-0.555,0.9121,-0.1067,0.4388,0.3374,-0.0168,-1.2513,-2.1875,-6.3875,-6.555841435194637,-31.154452666785446,-0.07531854953671571,1.0900000000037835
-0.5553,0.9135,-0.1066,0.4388,0.3374,-0.0168,-1.1463,-1.855,-6.1687,-6.583760135951394,-31.142127430238308,-0.07786362424947353,1.0960000000050059
-0.5539,0.9118,-0.1046,0.4396,0.3372,-0.0129,-1.1463,-1.855,-6.1687,-6.5727458362349855,-31.130299631291777,-0.08126833775405036,1.1040000000066357
-0.5539,0.9118,-0.1046,0.4396,0.3372,-0.0129,-0.9013,-1.8725,-6.65,-6.5692117371558,-31.120555190638964,-0.0848112789019034,1.1120000000082655
-0.5541,0.9111,-0.1057,0.4396,0.3372,-0.0116,-0.9013,-1.4438,-6.2387,-6.575202966347564,-31.127298254782513,-0.0849051021139094,1.1190000000060536
-0.5525,0.913,-0.1065,0.4387,0.3372,-0.0116,-0.9975,-1.4438,-6.2387,-6.590225602171785,-31.078054816106448,-0.0849988784143094,1.1260000000038417
-0.5525,0.913,-0.1065,0.4387,0.3372,-0.0116,-0.8575,-1.75,-5.7663,-6.5958541805811,-31.064681482004886,-0.08788595245738329,1.1350000000093132
-0.5563,0.9138,-0.1031,0.4387,0.3377,-0.0101,-0.8575,-1.75,-5.7663,-6.5817177832348275,-31.085313624249945,-0.0901205666319346,1.1420000000071013
-0.5554,0.9138,-0.1041,0.4386,0.3377,-0.0101,-0.7262,-1.8288,-6.2913,-6.579041865318392,-31.103456484143912,-0.09290538769922443,1.1490000000048894
-0.5554,0.9138,-0.1041,0.4386,0.3377,-0.0101,-0.875,-1.75,-6.4662,-6.570777201754313,-31.114948975255505,-0.09546300032190534,1.1570000000065193
-0.5527,0.9119,-0.1021,0.4382,0.3376,-0.0193,-0.875,-1.75,-6.4662,-6.551925975537061,-31.089280282443276,-0.09834484230165703,1.1660000000047148
-0.5545,0.909,-0.1052,0.4382,0.3376,-0.0193,-0.7262,-1.4963,-6.1163,-6.5535338585966025,-31.135718662823678,-0.09887114999662346,1.1740000000063446
-0.5545,0.909,-0.1052,0.4382,0.3376,-0.0193,-0.7262,-1.4963,-6.1163,-6.5550896566489465,-31.16492895747197,-0.09939719453774239,1.1820000000079744
-0.5563,0.9118,-0.1027,0.4388,0.337,-0.0144,-0.7175,-1.54,-5.6875,-6.5498809733100485,-31.173608521622324,-0.10027240125666195,1.1900000000096043
-0.5571,0.9152,-0.1094,0.4388,0.337,-0.0144,-1.1463,-1.9512,-5.8975,-6.624249584444911,-31.167072850160853,-0.10338191043984575,1.1960000000035507
-0.5571,0.9152,-0.1019,0.4388,0.337,-0.0144,-1.1463,-1.9512,-5.8975,-6.548687789076851,-31.16871479645785,-0.10806968756417559,1.2050000000017462
-0.5561,0.9132,-0.1019,0.4394,0.3362,-0.013,-0.875,-1.8288,-5.8625,-6.529906492926773,-31.172152525151404,-0.1112498028370524,1.213000000003376
-0.5519,0.9134,-0.1045,0.4394,0.3362,-0.013,-0.875,-1.8288,-5.8625,-6.529575075762614,-31.1230259659465,-0.1140240592891811,1.22000000000844
-0.5519,0.9134,-0.1043,0.4394,0.3362,-0.013,-1.085,-1.5137,-5.7838,-6.525829832237008,-31.093232679531265,-0.11468165777503217,1.228000000002794
-0.5558,0.9124,-0.1043,0.4394,0.3383,-0.0094,-0.6737,-1.3388,-5.6262,-6.5254787775542775,-31.10138972171393,-0.11402591329721175,1.235000000007858
-0.5536,0.9123,-0.1051,0.4394,0.3383,-0.0094,-0.6737,-1.3388,-5.6262,-6.529137696551171,-31.099710481792425,-0.11337049669225223,1.2420000000056461
-0.5536,0.9146,-0.1022,0.4394,0.3383,-0.0094,-1.0675,-1.4963,-5.7925,-6.493080306853188,-31.08483838259832,-0.1139612265747997,1.2510000000111177
-0.557,0.9146,-0.1022,0.4406,0.3376,-0.0132,-1.0675,-1.4963,-5.7925,-6.465509743200044,-31.105695373669654,-0.1144077910623298,1.2580000000016298
-0.5563,0.9116,-0.1008,0.4406,0.3376,-0.0132,-1.4262,-1.61,-6.3088,-6.40324879400401,-31.164144933911654,-0.11564963431923843,1.2650000000066939
-0.5538,0.913,-0.1062,0.4406,0.3376,-0.0132,-0.8662,-1.8813,-5.9675,-6.425541412396537,-31.135136616708103,-0.11970249213175466,1.2740000000048894
-0.5538,0.913,-0.1062,0.4372,0.3365,-0.016,-0.8662,-1.8813,-5.9675,-6.445687978296292,-31.11500586177588,-0.12283983848950175,1.2810000000099535
-0.5557,0.9096,-0.1084,0.4372,0.3365,-0.016,-1.1725,-1.2425,-5.6087,-6.548069266942319,-31.12468759208474,-0.1213245138859608,1.2890000000115833
-0.5549,0.9135,-0.0996,0.4372,0.3365,-0.016,-1.1725,-1.2425,-5.6087,-6.452923826552509,-31.124811295787445,-0.11980994694604394,1.2970000000059372
-0.5549,0.9135,-0.0996,0.4388,0.3386,-0.0115,-1.575,-1.5137,-6.0375,-6.349409457983129,-31.125320264308602,-0.1204646524887165,1.305000000007567
-0.5517,0.9157,-0.1042,0.4388,0.3386,-0.0115,-0.7788,-1.8375,-5.8975,-6.352083380871849,-31.06593426744966,-0.12329517106305872,1.312000000005355
-0.5563,0.9143,-0.1032,0.4388,0.3386,-0.0115,-0.7788,-1.8375,-5.8975,-6.353731167300445,-31.090669200520978,-0.12653723879420026,1.320000000006985
-0.5563,0.9143,-0.1032,0.439,0.3363,-0.015,-0.5425,-1.8463,-5.845,-6.369106670680361,-31.106774426191006,-0.12984805029149055,1.3280000000086147
-0.5547,0.9101,-0.1029,0.439,0.3363,-0.015,-0.5425,-1.3475,-5.6438,-6.383669421751697,-31.11661918184384,-0.12932238275380967,1.3340000000025611
-0.5547,0.9106,-0.1028,0.439,0.3363,-0.015,-0.5775,-1.3475,-5.6438,-6.392504098698542,-31.12401783225756,-0.12864339687830761,1.342000000004191
-0.5547,0.9106,-0.1028,0.4402,0.3366,-0.0076,-0.8925,-0.9363,-5.6962,-6.398190049326736,-31.133168850487255,-0.12467679529507347,1.3500000000058208
-0.5562,0.9127,-0.103,0.4402,0.3366,-0.0076,-0.8925,-0.9363,-5.6962,-6.402939878238882,-31.142470951138776,-0.12168774698737879,1.3559999999997672
-0.553,0.9139,-0.1022,0.4402,0.3366,-0.0076,-0.6737,-1.7062,-5.5475,-6.401185975698238,-31.13996533268578,-0.1241624736959266,1.3650000000052387
-0.553,0.9139,-0.1022,0.4396,0.3366,-0.011,-0.7175,-1.7763,-6.055,-6.4003603899256465,-31.098700896045194,-0.126914752575652,1.3730000000068685
-0.5545,0.9131,-0.1082,0.4396,0.3366,-0.011,-0.7175,-1.7763,-6.055,-6.4148299502134,-31.096451076018692,-0.12931386030008604,1.3800000000046566
-0.5557,0.9107,-0.1052,0.4396,0.3366,-0.011,-1.0063,-1.9338,-6.2913,-6.449355099790314,-31.15108921147887,-0.1338321497532222,1.3890000000101281
-0.5557,0.9107,-0.1052,0.4379,0.3374,-0.0082,-1.0063,-1.9338,-6.2913,-6.477050062318582,-31.18204925809061,-0.13732974752871924,1.3960000000079162
-0.5536,0.9118,-0.1053,0.4379,0.3374,-0.0082,-0.42,-1.1375,-5.8012,-6.505097666320315,-31.16349320667489,-0.135254283557089,1.4030000000057044
-0.5558,0.9118,-0.1013,0.4379,0.3374,-0.0082,-0.6562,-1.295,-5.8187,-6.489569035660296,-31.173781619709498,-0.1340232773960437,1.4120000000039
-0.5558,0.9118,-0.1013,0.4389,0.3355,-0.0102,-0.6562,-1.295,-5.8187,-6.475496593201075,-31.181743586002987,-0.13292215107313501,1.4200000000055297
-0.5542,0.9129,-0.1071,0.4389,0.3355,-0.0102,-0.56,-1.5838,-5.845,-6.511409638723266,-31.158979724360456,-0.13381203758479326,1.426000000006752
-0.556,0.9137,-0.1071,0.4389,0.3355,-0.0102,-0.56,-1.5838,-5.845,-6.540378915459386,-31.15627989434217,-0.135179652947373,1.4350000000122236
-0.556,0.9137,-0.1071,0.4367,0.3373,-0.0172,-0.63,-1.68,-5.705,-6.557032934893876,-31.154995991637193,-0.13690086526997475,1.4420000000027358
-0.5536,0.9107,-0.1014,0.4367,0.3373,-0.0172,-0.4288,-1.6275,-5.8362,-6.5063844059644875,-31.151048311646967,-0.13845697015367076,1.4500000000043656
-0.5563,0.9108,-0.1067,0.4367,0.3373,-0.0172,-0.4288,-1.6275,-5.8362,-6.549978422576887,-31.172647230209215,-0.1400122969849249,1.4580000000059954
-0.5563,0.9108,-0.1067,0.4386,0.3366,-0.01,-0.7437,-1.0412,-6.125,-6.552050457668963,-31.198759646308904,-0.1368787913518083,1.4660000000076252
-0.5562,0.914,-0.1035,0.4386,0.3366,-0.01,-0.7437,-1.0412,-6.125,-6.55061174005213,-31.18427429551509,-0.13451272734545056,1.4720000000015716
-0.5575,0.9132,-0.1057,0.4386,0.3366,-0.01,-0.735,-1.5925,-5.9938,-6.551859573585392,-31.20022893988435,-0.13629442704104303,1.4830000000001746
-0.5575,0.9132,-0.1057,0.4401,0.3388,-0.0135,-0.98,-1.9688,-5.985,-6.560988718833319,-31.210962051689076,-0.14057986994440946,1.4910000000018044
-0.5556,0.9128,-0.1047,0.4401,0.3388,-0.0135,-0.98,-1.9688,-5.985,-6.557803327875484,-31.195520512641483,-0.14377477260106203,1.4970000000103028
-0.5558,0.9137,-0.108,0.4401,0.3388,-0.0135,-0.7962,-1.89,-6.0375,-6.564262668538008,-31.175316719225943,-0.1483572668573232,1.507000000005064
-0.5558,0.9137,-0.108,0.438,0.3363,-0.011,-0.7962,-1.89,-6.0375,-6.570494413414163,-31.161945534400356,-0.15200659354065313,1.5150000000066939
-0.554,0.9108,-0.1071,0.438,0.3363,-0.011,-0.805,-1.5313,-5.8625,-6.576393453441997,-31.155404639731614,-0.15267901284514632,1.522000000004482
-0.5553,0.9129,-0.1029,0.438,0.3363,-0.011,-1.26,-1.4088,-6.0287,-6.527943032475859,-31.153936292584994,-0.15246298221925175,1.5310000000026776
-0.5553,0.9129,-0.1029,0.4375,0.3381,-0.0059,-1.26,-1.4088,-6.0287,-6.495649684137209,-31.15295882484837,-0.15226258084411684,1.5390000000043074
-0.5526,0.9115,-0.101,0.4375,0.3381,-0.0059,-0.56,-1.435,-6.2387,-6.466903921716762,-31.119166703908743,-0.15225044354070782,1.5450000000055297
-0.5549,0.9127,-0.105,0.4375,0.3381,-0.0059,-0.56,-1.435,-6.055,-6.482839133959446,-31.12348780281426,-0.1522809749639592,1.555000000007567
-0.5549,0.9127,-0.105,0.4381,0.3369,-0.0118,-0.6913,-1.1638,-6.055,-6.487946759989612,-31.12631483130014,-0.1503820433285532,1.562000000005355
-0.5551,0.9128,-0.1044,0.4381,0.3369,-0.0118,-1.0762,-1.5838,-5.53,-6.496797144595133,-31.126362310553485,-0.15142259115803638,1.5690000000031432
-0.5566,0.9116,-0.1071,0.4381,0.3369,-0.0118,-1.0762,-1.5838,-5.53,-6.545824838105933,-31.126732993402637,-0.1531001837717347,1.5800000000017462
-0.5566,0.9116,-0.1071,0.4401,0.3374,-0.0072,-0.525,-1.575,-6.0375,-6.575266087074115,-31.162601139974807,-0.15437899466117283,1.5890000000072177
-0.5546,0.9118,-0.1042,0.4401,0.3374,-0.0072,-0.5775,-1.1988,-6.2825,-6.5666642065694845,-31.15509280379335,-0.15272389151584084,1.5960000000050059
-0.5561,0.9119,-0.1025,0.4401,0.3374,-0.0072,-0.5775,-1.1988,-6.2825,-6.543027147730052,-31.181425056617414,-0.15061878344934956,1.6050000000104774
-0.5561,0.9119,-0.1025,0.4401,0.3364,-0.0161,-0.7613,-1.2687,-6.1337,-6.542817038804821,-31.194584232967696,-0.1492990645733714,1.6130000000121072
-0.5547,0.9123,-0.1027,0.4401,0.3364,-0.0161,-0.7613,-1.2687,-6.1337,-6.542622840957774,-31.17421843184973,-0.14798000555909477,1.620999999999185
-0.5542,0.9118,-0.1051,0.4401,0.3364,-0.0161,-0.84,-1.0063,-5.6962,-6.545049883725158,-31.166937322157573,-0.1441456356845291,1.6300000000046566
-0.5542,0.9118,-0.1051,0.4392,0.337,-0.0064,-0.91,-1.6363,-6.2387,-6.548998510035299,-31.14908995230803,-0.1455566179677182,1.6370000000024447
-0.5536,0.9119,-0.1056,0.4392,0.337,-0.0064,-0.91,-1.6363,-6.2387,-6.5563889995409905,-31.125446399854336,-0.14696689476130725,1.6440000000075088
-0.5569,0.9141,-0.0992,0.4392,0.337,-0.0064,-0.7437,-1.575,-6.4225,-6.550683783689723,-31.16177779718475,-0.14824877229415487,1.6530000000057044
-0.5569,0.9141,-0.0992,0.4379,0.337,-0.0124,-0.7437,-1.575,-6.4225,-6.545068292162084,-31.180939977111613,-0.1492288175591747,1.6600000000034925
-0.5546,0.9138,-0.1054,0.4379,0.337,-0.0124,0.1575,-1.085,-6.0725,-6.561571407095099,-31.14761042561801,-0.1467800878026453,1.6670000000012806
-0.5541,0.9111,-0.1005,0.4379,0.337,-0.0124,-0.2713,-1.1812,-5.8625,-6.4739816786994995,-31.14895057748822,-0.14451963083791436,1.676000000006752
-0.5541,0.9111,-0.1005,0.4387,0.3383,-0.013,-0.2713,-1.1812,-5.8625,-6.415132563491133,-31.14995368892966,-0.1427463189745329,1.6830000000045402
-0.5542,0.9118,-0.1064,0.4387,0.3383,-0.013,-0.735,-1.4612,-6.0113,-6.4209304408045185,-31.14013895773928,-0.1428960612020907,1.6890000000057626
-0.5561,0.9119,-0.1055,0.4387,0.3383,-0.013,-0.735,-1.4612,-6.0113,-6.425227517700257,-31.16192092545705,-0.14311943368754973,1.6970000000073924
-0.5561,0.9119,-0.1055,0.4363,0.3382,-0.014,-1.085,-1.19,-5.9763,-6.467969552333871,-31.175860419282177,-0.14117417928632425,1.7050000000090222
-0.5537,0.9119,-0.1011,0.4363,0.3382,-0.014,-0.5425,-1.26,-5.8275,-6.442709504482219,-31.160812598367567,-0.13995386434854437,1.7120000000068103
-0.5531,0.9127,-0.1041,0.4363,0.3382,-0.014,-0.5425,-1.26,-5.8275,-6.454158734567574,-31.135676070736764,-0.13840566589716646,1.7210000000050059
-0.5531,0.9127,-0.1055,0.4392,0.3387,-0.0156,-0.63,-1.8988,-6.0375,-6.4701677524794965,-31.105945372311457,-0.1421303331809908,1.7290000000066357
-0.5543,0.9135,-0.1055,0.4392,0.3387,-0.0156,-0.63,-1.8988,-6.0375,-6.483682039810519,-31.09742552698889,-0.14490467060198,1.735000000007858
-0.5561,0.9142,-0.1075,0.4392,0.3387,-0.0156,-0.91,-1.7413,-5.7663,-6.512807863720572,-31.10515578717804,-0.14768353089660735,1.7440000000060536
-0.5561,0.9142,-0.1049,0.4394,0.3365,-0.0201,-0.5775,-1.33,-5.5563,-6.517889569003528,-31.106327689421168,-0.1469497162821816,1.7510000000111177
-0.555,0.9141,-0.1049,0.4394,0.3365,-0.0201,-0.5775,-1.33,-5.5563,-6.52229755905254,-31.106092542776373,-0.14631055041161123,1.757000000005064
-0.5534,0.9121,-0.1024,0.4394,0.3365,-0.0201,-0.56,-1.0237,-5.4687,-6.502887726481332,-31.105082862227555,-0.1430339656517528,1.7650000000066939
-0.5534,0.9131,-0.1052,0.4358,0.3366,-0.0161,-0.56,-1.0237,-5.4687,-6.514420855671308,-31.102154324063406,-0.1397590191842743,1.7730000000083237
-0.5536,0.9131,-0.1052,0.4358,0.3366,-0.0161,-0.6737,-1.1725,-5.2762,-6.518993666651455,-31.093843621513894,-0.1379272180767389,1.7800000000061118
-0.5564,0.9135,-0.1072,0.4358,0.3366,-0.0161,-0.6737,-1.6187,-5.53,-6.532777553487338,-31.09411305669061,-0.13980099261309634,1.790000000008149
-0.5564,0.9116,-0.1041,0.4376,0.3378,-0.0137,-0.6737,-1.6187,-5.53,-6.53134325622694,-31.09459754298912,-0.14128528263310644,1.7980000000097789
-0.5543,0.9116,-0.1041,0.4376,0.3378,-0.0137,-0.4462,-1.61,-5.775,-6.527361853636021,-31.10308579358095,-0.14269926530674207,1.8060000000041327
-0.5542,0.913,-0.1022,0.4376,0.3378,-0.0137,-0.4462,-1.3212,-6.1687,-6.493868588667371,-31.10193926045981,-0.14180329618992069,1.8140000000057626
-0.5548,0.9124,-0.1026,0.4372,0.3378,-0.0138,-0.7962,-1.3212,-6.1687,-6.49112474319874,-31.1179233327746,-0.14090777505765772,1.8220000000073924
-0.5548,0.9124,-0.1026,0.4372,0.3378,-0.0138,-0.1838,-1.1287,-5.7663,-6.463670277793315,-31.122737384569383,-0.13906443405676772,1.8280000000086147
-0.5548,0.9139,-0.1034,0.4372,0.3378,-0.0138,-0.1838,-1.1287,-5.7663,-6.460530729005498,-31.118188583209417,-0.13663105235740766,1.8360000000029686
-0.5522,0.9122,-0.1049,0.4385,0.3376,-0.0126,-0.07,-1.295,-5.6438,-6.501135483333098,-31.10810377593731,-0.13565788648207436,1.8430000000080327
-0.5522,0.9122,-0.1049,0.4385,0.3376,-0.0126,-0.6125,-1.3563,-5.6525,-6.50868888538345,-31.098483114043113,-0.13511409264048374,1.8500000000058208
-0.5545,0.9121,-0.1013,0.4385,0.3376,-0.0126,-0.6125,-1.3563,-5.6525,-6.486717606894918,-31.1032766595186,-0.13450257571005267,1.8580000000074506
-0.5556,0.9123,-0.1013,0.4376,0.3384,-0.0117,-0.9887,-1.2862,-6.1687,-6.458642556850614,-31.13566849535973,-0.133468904874003,1.8650000000052387
-0.5556,0.9123,-0.1013,0.4376,0.3384,-0.0117,-0.9887,-1.2862,-6.1687,-6.4357991496176234,-31.15539321492174,-0.132297690937341,1.8730000000068685
-0.556,0.9149,-0.0999,0.4376,0.3384,-0.0117,-0.945,-1.4525,-5.9675,-6.403868106322985,-31.149843948246065,-0.13248495432232155,1.882000000005064
-0.5566,0.9132,-0.1018,0.4369,0.337,-0.0109,-0.8925,-1.5313,-5.7663,-6.398824261252851,-31.160609471020887,-0.13327405196133466,1.8900000000066939
-0.5566,0.9132,-0.1018,0.4369,0.337,-0.0109,-0.8925,-1.5313,-5.7663,-6.394371800875018,-31.169292779773393,-0.13395583753739543,1.897000000011758
-0.5562,0.9135,-0.1065,0.4369,0.337,-0.0109,-0.4375,-1.26,-5.7925,-6.456608669364923,-31.168249250021944,-0.1325748849355541,1.9050000000061118
-0.5534,0.912,-0.1046,0.4381,0.3382,-0.0099,-0.4375,-1.26,-5.7925,-6.4776195273589545,-31.150445232135702,-0.13135886964494964,1.9120000000039
-0.5534,0.912,-0.1046,0.4381,0.3382,-0.0099,-0.3588,-1.1725,-5.8888,-6.496281597369418,-31.132644587649583,-0.12902786243924996,1.9210000000093714
-0.5553,0.912,-0.1016,0.4381,0.3382,-0.0099,-0.5512,-1.1725,-5.4338,-6.472208887132313,-31.13663915931701,-0.12694972382545147,1.9290000000037253
-0.5525,0.9121,-0.1026,0.4367,0.339,-0.0086,-0.5512,-1.1725,-5.4338,-6.462872487241673,-31.128930539467067,-0.12487262427912851,1.937000000005355
-0.5525,0.9121,-0.1026,0.4367,0.339,-0.0086,-0.3762,-1.4262,-5.7575,-6.450459182734437,-31.113327120808574,-0.12482327841848481,1.9440000000031432
-0.5548,0.9125,-0.106,0.4367,0.339,-0.0086,-0.3762,-1.4262,-5.7575,-6.499124928576403,-31.116344711578623,-0.12477582729527861,1.952000000004773
-0.5552,0.9124,-0.1056,0.4389,0.3376,-0.0167,-0.7175,-1.96,-5.81,-6.503286989789575,-31.124153960455228,-0.12899666469850357,1.9600000000064028
-0.5552,0.9124,-0.1056,0.4389,0.3376,-0.0167,-0.8662,-1.1812,-5.8362,-6.512786511500964,-31.13066766243345,-0.12723111431642373,1.967000000011467
-0.5542,0.9133,-0.098,0.4389,0.3376,-0.0167,-0.8662,-1.1812,-5.8362,-6.475415392271112,-31.124492444255853,-0.124980431840204,1.9760000000096625
-0.5543,0.9119,-0.1009,0.4395,0.3376,-0.0154,-0.4375,-1.1725,-5.845,-6.4360793459355135,-31.127969220990906,-0.12214920768413554,1.9870000000082655
-0.5543,0.9119,-0.1009,0.4395,0.3376,-0.0154,-0.4375,-1.1725,-5.845,-6.4063283998937575,-31.13060614925765,-0.11957110222478069,1.9970000000103028
-0.5558,0.9127,-0.1049,0.4395,0.3376,-0.0154,-0.56,-1.3212,-6.0287,-6.4313147539121465,-31.144807879012124,-0.11848054231920829,2.007000000005064
-0.5553,0.9124,-0.1047,0.4368,0.3366,-0.0102,-1.2163,-1.89,-6.335,-6.467325598353003,-31.151203856538256,-0.12214480736480728,2.015000000006694
-0.5553,0.9124,-0.1047,0.4368,0.3366,-0.0102,-1.2163,-1.89,-6.335,-6.492047759930172,-31.154740486457676,-0.12534180211159537,2.022000000004482
-0.5562,0.9123,-0.1032,0.4368,0.3366,-0.0102,-0.7613,-1.9863,-6.2737,-6.491985988372019,-31.177369963104034,-0.13033434134002606,2.0310000000026776
-0.554,0.9129,-0.1021,0.4382,0.3374,-0.012,-0.7613,-1.9863,-5.8187,-6.491807102289304,-31.158530664914977,-0.13588607431550037,2.041000000004715
-0.554,0.9129,-0.1021,0.4382,0.3374,-0.012,-0.6562,-1.61,-5.8187,-6.481464970893772,-31.14395136520476,-0.13748833475850777,2.0500000000029104
-0.5556,0.9116,-0.1055,0.4382,0.3374,-0.012,-0.5863,-1.4175,-5.4687,-6.4992021933385145,-31.146591112258513,-0.13735133473611463,2.0600000000049477
-0.5538,0.9123,-0.1064,0.4403,0.3383,-0.0126,-0.5863,-1.4175,-5.4687,-6.521817443212449,-31.143383240130483,-0.13722122879925888,2.069000000003143
-0.5538,0.9123,-0.1064,0.4403,0.3383,-0.0126,-0.525,-1.54,-5.4075,-6.546610271374273,-31.137481435562155,-0.13807752350104768,2.077000000004773
-0.5557,0.9136,-0.1036,0.4403,0.3383,-0.0126,-0.8838,-1.855,-5.775,-6.538103137587115,-31.139557104866284,-0.14231304138517412,2.0870000000068103
-0.5533,0.9135,-0.0998,0.4379,0.3383,-0.0074,-0.8838,-1.855,-5.775,-6.504618298069524,-31.122241049737507,-0.1461159858442048,2.096000000005006
-0.5533,0.9135,-0.0998,0.4379,0.3383,-0.0074,-0.77,-1.3913,-5.3288,-6.501862143931928,-31.110738368218826,-0.1457788279672289,2.1040000000066357
-0.5553,0.9121,-0.1042,0.4379,0.3383,-0.0074,-0.77,-1.3913,-5.3288,-6.50202008450162,-31.12034272011779,-0.14537581369817804,2.114000000008673
-0.5515,0.9135,-0.1041,0.439,0.3384,-0.0168,-1.085,-1.33,-5.6175,-6.501825485538034,-31.106719168422906,-0.1445488711078613,2.122000000003027
-0.5515,0.9135,-0.1041,0.439,0.3384,-0.0168,-0.875,-1.4525,-5.67,-6.5017636356402635,-31.087931395030832,-0.14470185198835325,2.1300000000046566
-0.5547,0.9115,-0.1049,0.439,0.3384,-0.0168,-0.875,-1.4525,-5.67,-6.508302592732493,-31.096444105369944,-0.14488291329280825,2.139000000002852
-0.5538,0.9121,-0.1001,0.4392,0.337,-0.0134,-0.5688,-1.47,-5.7225,-6.468978362890754,-31.09914632124491,-0.14526695348125485,2.1490000000048894
-0.5538,0.9121,-0.1001,0.4392,0.337,-0.0134,-0.5688,-1.47,-5.7225,-6.435957155141733,-31.10140570851239,-0.14560515348493186,2.158000000003085
-0.5555,0.9121,-0.1031,0.4392,0.337,-0.0134,-1.1638,-1.9863,-6.1163,-6.439740741336994,-31.131117306821277,-0.15114925105433372,2.1680000000051223
-0.552,0.913,-0.1,0.4405,0.3365,-0.0128,-0.5775,-1.6187,-5.775,-6.410598827672274,-31.106237922856103,-0.152822140758956,2.177000000003318
-0.552,0.913,-0.1,0.4405,0.3365,-0.0128,-0.5775,-1.6187,-5.775,-6.385947790633251,-31.0863104229741,-0.15429992020489317,2.1850000000049477
-0.5565,0.9116,-0.1061,0.4405,0.3365,-0.0105,-0.6037,-1.1812,-6.195,-6.420054201657762,-31.1444593557081,-0.15179269588929564,2.195000000006985
-0.556,0.912,-0.1029,0.4397,0.337,-0.0105,-0.6037,-1.1812,-6.195,-6.422394400434249,-31.16979771351064,-0.1495297326222895,2.2040000000051805
-0.556,0.912,-0.1029,0.4397,0.337,-0.0105,-0.5512,-1.5313,-6.09,-6.424982678214412,-31.18345844236494,-0.1502033903580198,2.2110000000102445
-0.5547,0.9114,-0.1029,0.4397,0.3378,-0.008,-0.875,-1.6013,-5.915,-6.426700885367568,-31.178232391950395,-0.15207399632209367,2.2220000000088476
-0.5553,0.9124,-0.1039,0.4405,0.3378,-0.008,-0.875,-1.6013,-5.915,-6.4339282867161565,-31.17358566984783,-0.15358990195411346,2.231000000007043
-0.5553,0.9124,-0.1039,0.4405,0.3378,-0.008,-0.8225,-1.4963,-5.5738,-6.437632715326295,-31.17304552844726,-0.15408858711873025,2.239000000001397
-0.5575,0.913,-0.1027,0.4405,0.337,-0.0088,-0.8225,-1.4963,-5.5738,-6.436472966118775,-31.17648769528518,-0.1548028279850938,2.250000000007276
-0.555,0.9121,-0.1004,0.4368,0.337,-0.0088,-0.9363,-1.5838,-5.4425,-6.413222234665387,-31.175746197767584,-0.15615994795131363,2.2590000000054715
-0.555,0.9121,-0.1004,0.4368,0.337,-0.0088,-0.4988,-1.3825,-5.915,-6.385985426562431,-31.173276489367908,-0.15574740329326986,2.2670000000071013
-0.5545,0.9121,-0.1021,0.4386,0.3379,-0.005,-0.4988,-1.3825,-5.915,-6.38620997728619,-31.16365039850888,-0.15529325682219866,2.276000000005297
-0.5547,0.9131,-0.1007,0.4386,0.3379,-0.005,-0.98,-1.4262,-6.1337,-6.369445661432624,-31.14898793200176,-0.1552324407742842,2.2850000000034925
-0.5547,0.9131,-0.105,0.4386,0.3379,-0.005,-0.98,-1.4262,-5.8713,-6.403811915016637,-31.13939221932122,-0.15516604494089933,2.291000000004715
-0.5564,0.9131,-0.105,0.4394,0.3369,-0.0179,-0.7788,-1.4175,-5.8713,-6.4067386369485515,-31.1521572163089,-0.15503385723441776,2.2990000000063446
-0.5571,0.9126,-0.1064,0.4394,0.3369,-0.0179,-0.7962,-1.5137,-5.8538,-6.415313129038961,-31.17144592612946,-0.155581624507103,2.3060000000041327
-0.5571,0.9126,-0.1038,0.4394,0.3369,-0.0179,-0.7962,-1.5137,-5.8538,-6.41790914921215,-31.188006716085365,-0.15603979158195866,2.312000000005355
-0.5538,0.9127,-0.1038,0.4402,0.3394,-0.0144,-0.7962,-1.5488,-5.8975,-6.420388860872007,-31.160169000957165,-0.15695704180237047,2.320000000006985
-0.5544,0.9118,-0.0982,0.4402,0.3394,-0.0144,-0.7962,-2.0738,-5.845,-6.410756244633851,-31.158754161999727,-0.16142258713153343,2.327000000004773
-0.5544,0.9124,-0.1049,0.4402,0.3394,-0.0144,-0.8662,-2.0738,-5.845,-6.424987334131131,-31.148752718412513,-0.16588589968803183,2.334000000002561
-0.5562,0.9124,-0.1049,0.4393,0.3374,-0.0093,-1.0762,-1.3388,-5.9237,-6.457107266215376,-31.16320265662475,-0.1650335806182201,2.3430000000080327
-0.5548,0.9126,-0.1011,0.4393,0.3374,-0.0093,-1.0762,-1.3388,-5.9237,-6.424524821677647,-31.157152091721123,-0.16435266017960007,2.3500000000058208
-0.5548,0.9138,-0.1021,0.4393,0.3374,-0.0093,-1.0588,-1.4612,-6.0287,-6.413187701982062,-31.14003834178286,-0.16452845180092876,2.357000000003609
-0.5524,0.9138,-0.1021,0.4382,0.3381,-0.017,-0.7088,-1.4963,-6.125,-6.411352718722036,-31.086182849529667,-0.16502166769114554,2.3650000000052387
-0.5553,0.9113,-0.1056,0.4382,0.3381,-0.017,-0.7088,-1.4963,-6.125,-6.420963594297514,-31.12373302624938,-0.16544270195864086,2.372000000003027
-0.5552,0.913,-0.1079,0.4382,0.3381,-0.017,-0.805,-1.4175,-6.02,-6.434798480055585,-31.12510338847701,-0.16531220150912695,2.379000000008091
-0.5552,0.913,-0.1079,0.4378,0.3383,-0.0136,-0.805,-1.4175,-6.02,-6.4480335270153475,-31.126020942421032,-0.16517494072441094,2.3870000000024447
-0.556,0.9126,-0.1032,0.4378,0.3383,-0.0136,-0.5863,-1.6013,-5.9938,-6.448589868967953,-31.146486974827035,-0.16650741337033703,2.3950000000040745
-0.557,0.9124,-0.1036,0.4378,0.3383,-0.0136,-0.4988,-1.5488,-5.6613,-6.454675133155405,-31.157614630811004,-0.16717061225080393,2.401000000005297
-0.557,0.9124,-0.1036,0.4359,0.3379,-0.0122,-0.4988,-1.5488,-5.6613,-6.459501344880449,-31.16742050410439,-0.16808229706088132,2.4090000000069267
-0.553,0.9111,-0.1046,0.4359,0.3379,-0.0122,-0.7613,-1.5575,-5.9938,-6.459646667841321,-31.142726409686503,-0.1690630912285678,2.4170000000085565
-0.5546,0.9118,-0.1029,0.4359,0.3379,-0.0122,-0.7613,-1.5575,-5.9938,-6.45961290598812,-31.144793033184456,-0.1699102905841591,2.4240000000063446
-0.5546,0.9118,-0.1029,0.4384,0.3378,-0.0157,-0.7175,-1.61,-5.81,-6.4587705037564955,-31.145769868723026,-0.1713099607551695,2.4320000000079744
-0.555,0.9119,-0.1048,0.4384,0.3378,-0.0157,-0.945,-1.3825,-5.7575,-6.473964045884737,-31.148217863458946,-0.1709316491763844,2.4390000000057626
-0.5554,0.9126,-0.1005,0.4384,0.3378,-0.0157,-0.945,-1.3825,-5.7575,-6.444321525843515,-31.15252263822285,-0.1705535267530845,2.4460000000108266
-0.5554,0.9126,-0.1005,0.4393,0.3379,-0.0146,-0.805,-1.855,-5.7838,-6.437386515399846,-31.156336298575017,-0.17348143963712387,2.4530000000013388
-0.5522,0.9137,-0.1053,0.4393,0.3379,-0.0146,-0.805,-1.855,-5.7838,-6.443313568542377,-31.120219764963053,-0.17683834423400688,2.4610000000029686
-0.5569,0.9124,-0.1069,0.4393,0.3379,-0.0146,-0.5425,-1.8025,-6.2213,-6.485992612003576,-31.163235357914942,-0.17939579846530398,2.4680000000080327
-0.5569,0.9124,-0.1069,0.4385,0.3379,-0.0134,-0.8838,-1.6187,-5.635,-6.507691334482949,-31.16929497546918,-0.1810545648962208,2.477000000006228
-0.5567,0.9131,-0.1024,0.4385,0.3379,-0.0134,-0.8838,-1.6187,-5.635,-6.495659612383851,-31.173373918428148,-0.18232395431484297,2.4840000000040163
-0.5535,0.9124,-0.1021,0.4385,0.3379,-0.0134,-0.805,-1.19,-5.7225,-6.4908612253729165,-31.158873116305784,-0.1805933094897036,2.4910000000018044
-0.5535,0.9124,-0.1021,0.4389,0.3394,-0.0126,-0.805,-1.19,-5.7225,-6.486270881908476,-31.14674864912794,-0.17886352998527266,2.4980000000068685
-0.5551,0.9122,-0.1045,0.4389,0.3394,-0.0126,-0.9363,-1.435,-5.775,-6.493617536444383,-31.148608906674028,-0.1788594235362974,2.5060000000084983
-0.5566,0.9127,-0.105,0.4389,0.3394,-0.0126,-0.5075,-1.6975,-5.7137,-6.507518814820013,-31.158175719245527,-0.18068123472542535,2.5130000000062864
-0.5566,0.9127,-0.105,0.4378,0.3374,-0.0133,-0.5075,-1.6975,-5.7137,-6.518620493954794,-31.16623405218283,-0.18277516942450764,2.5210000000079162
-0.5553,0.9124,-0.1016,0.4378,0.3374,-0.0133,-1.0675,-1.61,-5.81,-6.4798681358598555,-31.166786945976934,-0.18398282899088492,2.5280000000057044
-0.5523,0.9118,-0.0997,0.4378,0.3374,-0.0133,-1.0675,-1.3212,-6.0637,-6.42344990601382,-31.127253368953347,-0.18306621809222148,2.536000000007334
-0.5523,0.9118,-0.0997,0.4385,0.3362,-0.0103,-1.1638,-1.3212,-6.0637,-6.370699300415803,-31.10153537154666,-0.18225314293490336,2.5430000000051223
-0.5539,0.9112,-0.1055,0.4385,0.3362,-0.0103,-0.8838,-1.9338,-6.0375,-6.396501397720548,-31.10964086703981,-0.18623574648026583,2.551000000006752
-0.5592,0.9113,-0.1046,0.4385,0.3362,-0.0103,-0.8838,-1.9338,-6.0375,-6.413209158808308,-31.1968717021943,-0.18970714245739936,2.55800000000454
-0.5592,0.9113,-0.1046,0.4395,0.3375,-0.0118,-0.84,-2.0563,-6.09,-6.423217239196808,-31.25839604026495,-0.1952971840201268,2.5670000000100117
-0.5555,0.9132,-0.1043,0.4395,0.3375,-0.0118,-0.8313,-1.5488,-6.0725,-6.429400465335237,-31.21925284905518,-0.19631921430839225,2.5760000000082073
-0.5541,0.9112,-0.1015,0.4395,0.3375,-0.0118,-0.8313,-1.5488,-6.0725,-6.424499045644763,-31.19378522630455,-0.19721632481744084,2.584000000009837
-0.5541,0.9112,-0.1015,0.4393,0.3376,-0.008,-0.9625,-1.5488,-5.88,-6.4129594884265675,-31.181603008442373,-0.19798857800625694,2.591000000007625
-0.5525,0.9118,-0.1035,0.4393,0.3376,-0.008,-0.9625,-1.5488,-5.88,-6.423593528364337,-31.147549087544785,-0.1988848538325514,2.599000000001979
-0.5541,0.9105,-0.1097,0.4393,0.3376,-0.008,-1.1375,-1.7325,-5.5125,-6.5460240855285425,-31.147448327919882,-0.20124954672213713,2.607000000003609
-0.5541,0.9105,-0.1097,0.4392,0.3379,-0.013,-0.875,-1.6712,-5.5037,-6.579529460300698,-31.147287914512788,-0.2031229024651782,2.6150000000052387
-0.5582,0.9217,-0.1036,0.4392,0.3379,-0.013,-0.875,-1.6712,-5.5037,-6.562329803427345,-31.144913610679808,-0.20499532153034775,2.6230000000068685
-0.5496,0.9098,-0.1024,0.4392,0.3379,-0.013,-0.91,-1.8375,-6.3612,-6.543957873207158,-31.06821639653742,-0.20819653918325093,2.6310000000012224
-0.5496,0.9098,-0.1024,0.439,0.3377,-0.0148,-0.91,-1.8375,-6.3612,-6.527986753624827,-31.026412601278597,-0.2109831918172506,2.6380000000062864
-0.5589,0.916,-0.1044,0.439,0.3377,-0.0148,-0.735,-1.4525,-5.7663,-6.527364753733783,-31.064903667893073,-0.21110295553738787,2.6460000000079162
-0.5524,0.9088,-0.1028,0.439,0.3377,-0.0148,-0.3413,-1.435,-5.6262,-6.505620745782155,-31.070918518804955,-0.2110933950400999,2.655000000006112
-0.5524,0.9088,-0.1028,0.4375,0.3381,-0.0073,-0.3413,-1.435,-5.6262,-6.490290553159577,-31.076388081649096,-0.21107317365859724,2.6630000000077416
-0.5605,0.9132,-0.1043,0.4375,0.3381,-0.0073,-0.6037,-1.4438,-5.9412,-6.493723388350417,-31.164011127338018,-0.21112332718765806,2.6710000000020955
-0.5502,0.9129,-0.1048,0.4375,0.3381,-0.0073,-0.6037,-1.4438,-5.9412,-6.501158955065883,-31.09001438360763,-0.21117345564009596,2.6790000000037253
-0.5502,0.9129,-0.1048,0.4387,0.3368,-0.0118,-0.5863,-1.82,-5.6087,-6.508202751151988,-31.07646175034344,-0.2142316542289205,2.687000000005355
-0.5592,0.9121,-0.1052,0.4387,0.3368,-0.0118,-1.12,-1.8025,-5.5213,-6.527040786236498,-31.077845152281636,-0.21714839371842207,2.695000000006985
-0.5538,0.9126,-0.1013,0.4387,0.3368,-0.0118,-1.12,-1.8025,-5.5213,-6.4759054895929715,-31.077936967084916,-0.2200636748381789,2.7030000000086147
-0.5538,0.9126,-0.1013,0.4378,0.3373,-0.0159,-0.7525,-1.1812,-5.6262,-6.474894079639136,-31.07953613144202,-0.2182525909527973,2.710000000006403
-0.5556,0.9134,-0.107,0.4378,0.3373,-0.0159,-0.7525,-1.1812,-5.6262,-6.476366149814023,-31.084844210371063,-0.2154703828671604,2.721000000005006
-0.5545,0.9156,-0.1005,0.4378,0.3373,-0.0159,-0.5688,-1.1287,-5.7488,-6.44231824808105,-31.07811875541625,-0.2132942793778804,2.728000000002794
-0.5545,0.9156,-0.1005,0.439,0.338,-0.0126,-1.12,-1.7237,-5.9675,-6.395070236658291,-31.06885977500148,-0.21588062407032865,2.7370000000082655
-0.554,0.9107,-0.1024,0.439,0.338,-0.0126,-1.12,-1.7237,-5.9675,-6.400467723663888,-31.094775739995242,-0.21816645427478118,2.7450000000098953
-0.556,0.9131,-0.1087,0.439,0.338,-0.0126,-1.2075,-1.8463,-6.0113,-6.520590186629841,-31.11576486827336,-0.22143145116126248,2.753000000004249
-0.556,0.9131,-0.1087,0.439,0.3363,-0.0137,-1.2075,-1.8463,-5.7225,-6.6035578877463825,-31.122859860076,-0.22469481555236925,2.761000000005879
-0.5524,0.9124,-0.1078,0.439,0.3363,-0.0137,-0.98,-1.68,-5.7225,-6.627876562384245,-31.105440668661466,-0.22662681345915026,2.769000000000233
-0.5581,0.913,-0.1001,0.439,0.3363,-0.0137,-0.6388,-1.925,-6.1863,-6.587862710334147,-31.176640182776413,-0.23051686536923627,2.7770000000018626
-0.5581,0.913,-0.1001,0.4378,0.3369,-0.0074,-0.6388,-1.925,-6.1863,-6.552164041924118,-31.219536753807738,-0.23390455159058582,2.7840000000069267
-0.5548,0.9144,-0.1047,0.4378,0.3369,-0.0074,-0.56,-1.6538,-6.0375,-6.548807054486971,-31.172851303126347,-0.23562244943116434,2.7920000000085565
-0.5524,0.9093,-0.1057,0.4378,0.3369,-0.0074,-0.8575,-1.7413,-5.775,-6.556085496658428,-31.160010180436597,-0.2377223258049429,2.7989999999990687
-0.5524,0.9093,-0.1059,0.4383,0.3374,-0.0127,-0.8575,-1.7413,-5.775,-6.563823313468339,-31.149597523181946,-0.2404547772742739,2.80800000000454
-0.5558,0.911,-0.1059,0.4383,0.3374,-0.0127,-1.1375,-1.2687,-5.2937,-6.582145176483331,-31.162253192418525,-0.23909014040138327,2.81600000000617
-0.552,0.9127,-0.1038,0.4383,0.3374,-0.0127,-1.1375,-1.2687,-5.2937,-6.556407201713306,-31.132126401863506,-0.23788173703302665,2.823000000003958
-0.552,0.913,-0.1019,0.4384,0.3367,-0.0096,-0.8313,-1.4963,-5.3463,-6.543843732012393,-31.112008162571158,-0.2383382762806274,2.831000000005588
-0.5549,0.913,-0.1019,0.4384,0.3367,-0.0096,-0.6825,-1.7763,-5.8975,-6.531275644456285,-31.117707894741393,-0.24103346725906047,2.8390000000072177
-0.5539,0.9121,-0.1007,0.4384,0.3367,-0.0096,-0.6825,-1.7763,-5.8975,-6.514719460982098,-31.117163660799836,-0.2433755156261528,2.846000000005006
-0.5539,0.913,-0.1025,0.4388,0.3382,-0.0153,-0.4112,-1.5575,-5.7925,-6.486524986433513,-31.110513504870326,-0.24431866318455667,2.8540000000066357
-0.5549,0.913,-0.1025,0.4388,0.3382,-0.0153,-0.4112,-1.5575,-5.7925,-6.465616618222401,-31.11486599558841,-0.2453944435832242,2.8630000000048312
-0.5569,0.9125,-0.1041,0.4388,0.3382,-0.0153,-0.595,-1.54,-6.0637,-6.471650480918432,-31.155553090366,-0.24608103851351806,2.8700000000098953
-0.555,0.912,-0.1062,0.4406,0.3372,-0.017,-1.2775,-1.5137,-5.8975,-6.529776885449592,-31.15449011976734,-0.24676193482460013,2.879000000008091
-0.555,0.912,-0.1062,0.4406,0.3372,-0.017,-1.2775,-1.5137,-5.8975,-6.568072815098235,-31.153714791922482,-0.24726383805849028,2.886000000005879
-0.5545,0.9137,-0.1031,0.4406,0.3372,-0.017,-1.2075,-1.4875,-5.8275,-6.527810938585455,-31.13941754157164,-0.2475821820408214,2.893000000003667
-0.5555,0.9125,-0.1024,0.4382,0.3374,-0.0086,-1.2075,-1.4875,-5.8275,-6.489174267076547,-31.14711114203851,-0.2480266456806465,2.9020000000091386
-0.5555,0.9125,-0.1024,0.4382,0.3374,-0.0086,-0.7262,-1.8112,-5.9412,-6.4863794553984855,-31.154603807262603,-0.2509960528744364,2.9100000000107684
-0.5552,0.9124,-0.1024,0.4382,0.3374,-0.0086,-0.8925,-1.3825,-5.8275,-6.476672885635274,-31.15624823269717,-0.25061970633525227,2.916000000004715
-0.5555,0.9122,-0.1016,0.4395,0.3381,-0.0166,-0.8925,-1.3825,-5.8275,-6.462448833510913,-31.16252317609571,-0.2501181237126601,2.9250000000029104
-0.5555,0.9122,-0.1016,0.4395,0.3381,-0.0166,-1.0588,-1.4262,-5.6788,-6.437791180418641,-31.165278498979813,-0.25000802516680687,2.93300000000454
-0.5529,0.913,-0.1021,0.4395,0.3381,-0.0166,-1.0588,-1.4262,-5.6788,-6.424675112330192,-31.14885025479027,-0.24989611160573294,2.9400000000096043
-0.5528,0.9135,-0.1051,0.4397,0.3379,-0.008,-0.8575,-1.4175,-5.8012,-6.437012808704561,-31.1196632670226,-0.24971655886591895,2.948000000011234
-0.5528,0.9135,-0.1051,0.4397,0.3379,-0.008,-0.4112,-1.4963,-5.8275,-6.469606161720276,-31.09508098620863,-0.2501671807020799,2.956000000005588
-0.5549,0.9134,-0.1019,0.4397,0.3379,-0.008,-0.4112,-1.4963,-5.8275,-6.442745143346208,-31.101332542251757,-0.2504737071988168,2.9620000000068103
-0.5552,0.9113,-0.1076,0.4389,0.3365,-0.0071,-0.4725,-1.1638,-6.3,-6.507706352894723,-31.13366953185809,-0.24800488172618726,2.971000000005006
-0.5552,0.9113,-0.1076,0.4389,0.3365,-0.0071,-0.4725,-1.1638,-6.1687,-6.558174283164284,-31.150018271242153,-0.2460580881355055,2.97800000001007
-0.5542,0.9129,-0.1027,0.4389,0.3365,-0.0071,-0.735,-1.4088,-6.1687,-6.554815454442531,-31.130988884182873,-0.24582641044308504,2.985000000000582
-0.5549,0.914,-0.1044,0.4406,0.3373,-0.0196,-0.77,-1.5488,-5.7312,-6.554421610216626,-31.125372907562618,-0.2466987673540663,2.993000000002212
-0.5549,0.914,-0.1044,0.4406,0.3373,-0.0196,-0.77,-1.5488,-5.7312,-6.554031789717909,-31.120711166109178,-0.24744627932251928,3.000000000007276
-0.5535,0.9136,-0.1072,0.4406,0.3373,-0.0196,-1.0762,-2.0475,-5.74,-6.5872915455538035,-31.10581339130479,-0.25230543149987317,3.0080000000089058
-0.5524,0.9109,-0.1061,0.4374,0.338,-0.0191,-0.8138,-2.2138,-5.8713,-6.5901914302867395,-31.09486497859284,-0.2600700414307308,3.018000000010943
-0.5524,0.9109,-0.1061,0.4374,0.338,-0.0191,-0.8138,-2.2138,-5.8713,-6.592942425648696,-31.08672365392109,-0.26546354025977015,3.025000000008731
-0.5537,0.911,-0.1037,0.4374,0.338,-0.0191,-0.5775,-1.3563,-5.7137,-6.577707449544589,-31.093155675276975,-0.2648548435912907,3.0320000000065193
-0.5539,0.9138,-0.1016,0.4388,0.3374,-0.0196,-0.5775,-1.3563,-5.7137,-6.541741700177441,-31.088929744648684,-0.26404246631485123,3.0420000000012806
-0.5539,0.9138,-0.1016,0.4388,0.3374,-0.0196,-1.2862,-1.4875,-5.7575,-6.4736480464075115,-31.084693564608962,-0.2643524209835135,3.0490000000063446
-0.5555,0.9126,-0.1046,0.4388,0.3374,-0.0196,-0.4462,-1.8813,-5.7575,-6.489142529112138,-31.09940212178429,-0.2678741848897662,3.0570000000079744
-0.5539,0.9135,-0.1022,0.4385,0.337,-0.012,-0.4462,-1.8813,-5.7575,-6.463943332220283,-31.094398355812235,-0.2713941879140658,3.0650000000096043
-0.5539,0.9135,-0.1022,0.4385,0.337,-0.012,-0.49,-1.6975,-6.0287,-6.446869478482983,-31.087156656599575,-0.27371580055011613,3.0740000000078
-0.5547,0.9114,-0.1056,0.4385,0.337,-0.012,-0.49,-1.6975,-6.0287,-6.4813366337936476,-31.110269999995904,-0.27521714913518824,3.0800000000017462
-0.5544,0.9117,-0.1047,0.441,0.3386,-0.0082,-0.9013,-1.4,-6.1075,-6.489999898342764,-31.120161562229953,-0.27488500587658105,3.088000000003376
-0.5544,0.9117,-0.1047,0.441,0.3386,-0.0082,-0.5075,-1.5925,-5.88,-6.502319367091245,-31.124608070582006,-0.2760922586899167,3.096000000005006
-0.5545,0.9126,-0.1078,0.441,0.3386,-0.0082,-0.5075,-1.5925,-5.88,-6.549540019855054,-31.120055911477802,-0.2772989078768457,3.1040000000066357
-0.5547,0.9139,-0.1021,0.4389,0.3356,-0.0125,-0.3938,-1.8375,-5.915,-6.502677338150821,-31.114067527908244,-0.2808769381526621,3.1130000000048312
-0.5547,0.9139,-0.1021,0.4389,0.3356,-0.0125,-0.3938,-1.8375,-5.915,-6.468367771919993,-31.109754668611266,-0.28445317941334064,3.122000000003027
-0.5534,0.9132,-0.102,0.4389,0.3356,-0.0125,-0.6825,-1.4525,-5.635,-6.46155230015945,-31.104756987305915,-0.28450805122527656,3.129000000008091
-0.5565,0.9087,-0.1057,0.4394,0.3377,-0.0196,-1.1113,-1.4175,-5.5825,-6.506630033373399,-31.11578036628566,-0.28430436693017624,3.1380000000062864
-0.5565,0.9087,-0.1057,0.4394,0.3377,-0.0196,-1.1113,-1.4175,-5.5825,-6.539980876444871,-31.12621922156408,-0.28411443564817657,3.1450000000113505
-0.5575,0.9116,-0.1052,0.4394,0.3377,-0.0196,-1.0588,-1.4438,-5.9588,-6.549862723822648,-31.17261500993352,-0.28410860728166787,3.1520000000018626
-0.5536,0.9117,-0.1019,0.4388,0.3364,-0.0086,-1.0588,-1.4438,-5.9588,-6.510161629287488,-31.15350145425891,-0.28398601424260184,3.1530000000057044
-0.5536,0.9117,-0.1019,0.4388,0.3364,-0.0086,-0.7788,-1.5838,-5.8538,-6.507671274281725,-31.142598776257877,-0.2841628037645455,3.155000000006112
-0.5553,0.9179,-0.103,0.4388,0.3364,-0.0086,-0.7437,-1.8725,-6.0113,-6.506017724490041,-31.100630315980453,-0.2844686692788841,3.1560000000099535
-0.5552,0.9126,-0.1016,0.4385,0.3359,-0.0179,-0.7437,-1.8725,-6.0113,-6.503604887250517,-31.119582354207065,-0.2847743818572063,3.1570000000065193
-0.5552,0.9126,-0.1016,0.4385,0.3359,-0.0179,-0.9187,-1.3825,-5.9325,-6.4828857750672455,-31.130870814261325,-0.2845483784952607,3.1590000000069267
-0.5547,0.9123,-0.1017,0.4385,0.3359,-0.0179,-0.9187,-1.3825,-5.6525,-6.466144793813697,-31.132312310870326,-0.2843642962206567,3.1600000000034925
-0.5533,0.9102,-0.1057,0.4374,0.3378,-0.0199,-0.84,-0.9187,-5.6525,-6.477880784112905,-31.131478167073237,-0.2832113617013404,3.1620000000039
-0.5533,0.9102,-0.1057,0.4374,0.3378,-0.0199,-0.7613,-1.4525,-5.46,-6.478117393637517,-31.131065329690884,-0.28309791293509795,3.1630000000077416
-0.5588,0.9114,-0.1038,0.4374,0.3378,-0.0143,-0.7613,-1.4525,-5.46,-6.478148717994891,-31.14466309485038,-0.28298452089323856,3.1640000000115833
-0.5547,0.9124,-0.106,0.4388,0.3385,-0.0143,-0.6212,-1.8637,-5.8713,-6.496223845656854,-31.14028297726311,-0.28372133125877563,3.166000000004715
-0.5547,0.9124,-0.106,0.4388,0.3385,-0.0143,-0.6212,-1.7763,-5.9675,-6.512100417414906,-31.13639524810485,-0.28393126560899773,3.1670000000085565
-0.5546,0.9131,-0.1004,0.4388,0.3371,-0.0158,-0.385,-1.7763,-5.9675,-6.4474107016450075,-31.131737464760228,-0.28449289000277694,3.169000000001688
-0.5497,0.9106,-0.1056,0.4406,0.3371,-0.0158,-0.98,-1.785,-6.09,-6.477649943904348,-31.06586862628939,-0.28471113422366046,3.1700000000055297
-0.5497,0.9106,-0.1056,0.4406,0.3371,-0.0158,-0.98,-1.785,-6.09,-6.502429667829133,-31.023739397560906,-0.2852897599856955,3.172000000005937
-0.557,0.9135,-0.1072,0.4406,0.3374,-0.014,-0.91,-1.4,-5.6875,-6.527345641237356,-31.047981693935586,-0.2851227982701092,3.173000000009779
-0.5554,0.9129,-0.1059,0.4395,0.3374,-0.014,-0.1925,-1.505,-5.6438,-6.559778313589358,-31.05828967796366,-0.2853027595284532,3.177000000003318
-0.5554,0.9129,-0.1059,0.4395,0.3374,-0.014,-0.1925,-1.505,-5.6438,-6.580473264866113,-31.06751551718077,-0.2858857841296301,3.1860000000087894
-0.5583,0.912,-0.1039,0.4382,0.3374,-0.0154,-0.7525,-1.96,-5.915,-6.57989564503421,-31.135221402378836,-0.2900260665544379,3.194000000010419
-0.5522,0.9136,-0.1061,0.4382,0.3374,-0.0154,-0.7525,-1.96,-5.915,-6.580212194097481,-31.09180595272057,-0.29255806934225825,3.1990000000078
-0.5522,0.9136,-0.1061,0.4382,0.3374,-0.0154,-0.6212,-1.9512,-6.16,-6.585576255227377,-31.048466417289212,-0.2971512583871369,3.2080000000059954
-0.5544,0.9143,-0.1061,0.4398,0.3381,-0.0173,-0.8575,-1.4612,-6.0462,-6.588579931030506,-31.052938523948658,-0.2973343558383768,3.217000000004191
-0.5549,0.9148,-0.1044,0.4398,0.3381,-0.0173,-0.8575,-1.4612,-6.0462,-6.581632934524262,-31.060844312970293,-0.2974436566121442,3.224000000009255
-0.5549,0.9148,-0.1024,0.4398,0.3381,-0.0173,-1.085,-1.1375,-5.4862,-6.533840492842525,-31.061673159532877,-0.2950014500993709,3.232000000010885
-0.5565,0.9164,-0.1024,0.439,0.337,-0.0103,-1.085,-1.1375,-5.4862,-6.495064770037143,-31.063602203749703,-0.2922737791053385,3.2410000000090804
-0.5525,0.9109,-0.1058,0.439,0.337,-0.0103,-0.5512,-1.4612,-5.4425,-6.517506796546732,-31.06399361423568,-0.2923487576025628,3.247000000003027
-0.5525,0.9126,-0.0991,0.439,0.337,-0.0103,-0.8487,-1.4875,-5.2937,-6.49134890345432,-31.05996827315123,-0.292770837954607,3.2560000000084983
-0.5544,0.9126,-0.0991,0.4398,0.3359,-0.0141,-0.8487,-1.4875,-5.2937,-6.467329284849357,-31.073127611673602,-0.29306642843699005,3.2630000000062864
-0.5559,0.9115,-0.1019,0.4398,0.3359,-0.0141,-0.7437,-1.7938,-5.6613,-6.465937387137231,-31.090570712506295,-0.29587418533937343,3.2710000000079162
-0.5559,0.9135,-0.1053,0.4398,0.3359,-0.0141,-0.7437,-1.7938,-5.6613,-6.467660711679075,-31.09815865955908,-0.2990498246265374,3.280000000006112
-0.558,0.9135,-0.1053,0.4395,0.3369,-0.0075,-1.2337,-1.995,-5.775,-6.5023455112208115,-31.128416541988802,-0.3034633850270037,3.2880000000004657
-0.5553,0.9119,-0.1044,0.4395,0.3369,-0.0075,-0.5863,-1.5925,-5.9938,-6.506600546528914,-31.142865688205855,-0.3044882617368414,3.2950000000055297
-0.5546,0.9082,-0.1024,0.4395,0.3369,-0.0075,-0.5863,-1.5925,-5.9938,-6.495719335848349,-31.176966740095455,-0.3058487998361697,3.3040000000037253
-0.5546,0.9082,-0.1024,0.4395,0.3382,-0.0126,-0.63,-1.155,-5.8012,-6.488514984860503,-31.192692843014846,-0.3038115150863884,3.3110000000087894
-0.5582,0.9182,-0.106,0.4395,0.3382,-0.0126,-0.63,-1.155,-5.8012,-6.499620595467568,-31.17886324376345,-0.3015060546463651,3.319000000003143
-0.549,0.9093,-0.102,0.4395,0.3382,-0.0126,-1.015,-1.5838,-5.845,-6.4794302736053915,-31.12688215319387,-0.30263043173530174,3.327000000004773
-0.549,0.9093,-0.102,0.4386,0.3383,-0.0107,-0.4375,-1.6712,-5.9938,-6.460161194520449,-31.074904524242942,-0.3044530970358363,3.335000000006403
-0.5661,0.9175,-0.1113,0.4386,0.3383,-0.0107,-0.4375,-1.6712,-5.9938,-6.571391266876503,-31.20646064863306,-0.3060281034382726,3.342000000004191
-0.55,0.9131,-0.1,0.4386,0.3383,-0.0107,-0.6562,-1.225,-5.635,-6.541248839326688,-31.177604701112177,-0.30408202536596335,3.3510000000096625
-0.55,0.9131,-0.1,0.4398,0.3376,-0.0121,-0.6562,-1.225,-5.9588,-6.513933000180087,-31.097330988018093,-0.3021369203341399,3.360000000007858
-0.5625,0.9167,-0.1087,0.4398,0.3376,-0.0121,-0.8575,-1.6275,-5.9588,-6.5360740321207125,-31.175353127218997,-0.30340733777502366,3.367000000005646
-0.5444,0.9118,-0.0982,0.4398,0.3376,-0.0121,-1.085,-1.47,-5.6875,-6.440571380638962,-31.108680300513885,-0.30366646758655375,3.3760000000038417
-0.5444,0.9118,-0.0982,0.4383,0.3378,-0.011,-1.085,-1.47,-5.6875,-6.368511419752666,-31.051252984543435,-0.30387981966883487,3.3840000000054715
-0.5584,0.9101,-0.1103,0.4383,0.3378,-0.011,-0.665,-1.68,-6.1163,-6.415369248153166,-31.160479595057158,-0.3060277682390394,3.393000000003667
-0.5567,0.9127,-0.1004,0.4383,0.3378,-0.011,-0.9975,-1.54,-5.8012,-6.388877546776353,-31.175044552967794,-0.3067996596711083,3.401000000005297
-0.5567,0.9127,-0.1004,0.4391,0.3382,-0.0102,-0.9975,-1.54,-5.8012,-6.367475680129279,-31.186470782701676,-0.30757116515746113,3.4090000000069267
-0.5555,0.9092,-0.1114,0.4391,0.3382,-0.0102,-0.945,-1.6013,-6.3088,-6.464081130301024,-31.20749204706221,-0.3086555571759912,3.416000000004715
-0.56,0.9162,-0.0996,0.4391,0.3382,-0.0102,-0.945,-1.6013,-6.3088,-6.423457847321049,-31.241315720706037,-0.3099162895136915,3.4240000000063446
-0.56,0.9162,-0.0996,0.4384,0.3356,-0.0101,-1.1638,-1.9775,-5.9062,-6.360368550153038,-31.25321448902717,-0.31418448668583576,3.4320000000079744
-0.5492,0.9031,-0.1019,0.4384,0.3356,-0.0101,-0.9625,-1.8988,-6.2913,-6.373401488895602,-31.206003756172382,-0.3173470307929439,3.4390000000057626
-0.5631,0.909,-0.1075,0.4384,0.3356,-0.0101,-0.9625,-1.8988,-6.2913,-6.435989773838208,-31.376401518846958,-0.32098222739086985,3.4470000000001164
-0.5631,0.909,-0.1075,0.4391,0.3374,-0.0136,-0.6212,-1.12,-5.74,-6.473524575900225,-31.415599939155534,-0.3183883215926787,3.4550000000017462
-0.5496,0.9121,-0.1055,0.4391,0.3374,-0.0136,-0.6212,-1.12,-5.74,-6.488655210589075,-31.325534267125345,-0.31579571274738666,3.463000000003376
-0.5639,0.922,-0.1075,0.4391,0.3374,-0.0136,-0.4025,-1.6712,-6.2387,-6.531206340543307,-31.305870562080585,-0.31761179540741513,3.471000000005006
-0.5639,0.922,-0.1075,0.4386,0.3377,-0.0062,-0.9013,-2.31,-5.7838,-6.5459849914322845,-31.300220404126005,-0.32364958666569427,3.47800000001007
-0.5544,0.9302,-0.1035,0.4386,0.3377,-0.0062,-0.9013,-2.31,-5.7838,-6.521545888892107,-31.165150071989313,-0.3305695871833633,3.486000000004424
-0.5483,0.9054,-0.1067,0.4386,0.3377,-0.0062,-0.455,-2.2925,-5.9588,-6.56817495509049,-31.12249528581655,-0.3373461977071859,3.4940000000060536
-0.5483,0.9054,-0.1067,0.4383,0.3382,-0.0194,-0.455,-2.2925,-5.9588,-6.603914858881603,-31.09271455896016,-0.3441194199257465,3.5020000000076834
-0.5583,0.906,-0.0998,0.4383,0.3382,-0.0194,-0.4812,-0.56,-5.6525,-6.53467671536676,-31.13698047176969,-0.3361722886978425,3.511000000005879
-0.5491,0.8994,-0.1103,0.4383,0.3382,-0.0194,-0.735,0.0875,-4.8738,-6.545683233688694,-31.167772889300526,-0.3208934716954151,3.5210000000079162
-0.5491,0.8994,-0.1103,0.4373,0.3375,-0.0149,-0.735,0.0875,-4.8738,-6.556424674728642,-31.186404416119185,-0.3101555133644098,3.5280000000057044
-0.564,0.9206,-0.1003,0.4373,0.3375,-0.0149,-0.7088,-2.31,-5.9675,-6.540034560433038,-31.234352889130225,-0.32150840174535167,3.541000000004715
-0.5506,0.9188,-0.1039,0.4373,0.3375,-0.0149,-0.7088,-2.31,-5.9675,-6.535759311478624,-31.092950352914546,-0.3293147010233817,3.5500000000029104
-0.5506,0.9188,-0.1039,0.4374,0.3374,-0.0162,-0.805,-3.8063,-6.3437,-6.5321160498966515,-30.94875618302528,-0.3505770638163965,3.559000000008382
-0.5579,0.9117,-0.1077,0.4374,0.3374,-0.0162,-1.0938,-2.4237,-6.51,-6.583473579687742,-31.11666533693108,-0.3573938744837789,3.56600000000617
-0.553,0.9127,-0.0985,0.4374,0.3374,-0.0162,-1.0938,-2.4237,-6.51,-6.477319623410117,-31.09085923166998,-0.367203890693572,3.5760000000082073
-0.553,0.9127,-0.0985,0.4394,0.3372,-0.0074,-0.9013,0.1138,-5.4862,-6.4379066222493,-31.08984263531617,-0.35318404933149933,3.585000000006403
-0.5573,0.9106,-0.1061,0.4394,0.3372,-0.0074,-0.9013,0.1138,-5.775,-6.463714000126635,-31.13077192063283,-0.34070857783151376,3.5930000000007567
-0.5533,0.9164,-0.1017,0.4394,0.3372,-0.0074,-0.945,-0.6737,-5.775,-6.443221417438836,-31.09829771791448,-0.33153517930930504,3.6050000000104774
-0.5533,0.9164,-0.1017,0.4384,0.3366,-0.0117,-0.7613,-2.5287,-6.02,-6.443042349962671,-31.055116008893435,-0.34351141867760837,3.6160000000090804
-0.5525,0.9082,-0.1107,0.4384,0.3366,-0.0117,-0.7613,-2.5287,-6.02,-6.443862445848298,-31.07880392223272,-0.35106639465929673,3.6229999999995925
-0.5611,0.9133,-0.1059,0.4384,0.3366,-0.0117,-1.2337,-2.695,-5.8625,-6.4986044276029835,-31.15825957248161,-0.3635912181095545,3.63300000000163
-0.5611,0.9133,-0.1059,0.4392,0.3376,-0.0049,-1.2337,-1.3038,-5.4513,-6.535742259843403,-31.17480002594901,-0.3623252038803406,3.6420000000071013
-0.5565,0.9104,-0.0996,0.4392,0.3376,-0.0049,-1.47,-1.3038,-5.4513,-6.414356902444913,-31.182487936755063,-0.3611802913950806,3.650000000001455
-0.5552,0.9143,-0.095,0.4392,0.3376,-0.0049,-1.0412,-0.8662,-5.2762,-6.308395975146532,-31.172282280356416,-0.3554212018932466,3.6600000000034925
-0.5552,0.9143,-0.095,0.4407,0.3366,-0.009,-1.0412,-0.8662,-5.2762,-6.225712316732256,-31.164119746895658,-0.35022284186974767,3.669000000008964
-0.5525,0.9201,-0.1055,0.4407,0.3366,-0.009,-1.1375,-1.8725,-5.6788,-6.3121835922148035,-31.11850758086692,-0.35363130576228363,3.677000000003318
-0.5533,0.9116,-0.1071,0.4407,0.3366,-0.009,-1.2337,-2.31,-5.845,-6.437130679698543,-31.10967502934767,-0.36230677175620596,3.687000000005355
-0.5533,0.9116,-0.1071,0.4386,0.339,-0.0102,-1.2337,-2.31,-5.845,-6.521896773748521,-31.102976064604345,-0.3709779000171313,3.6970000000073924
-0.5567,0.9076,-0.1112,0.4386,0.339,-0.0102,-0.595,-1.5575,-6.335,-6.587393450290663,-31.206269587073677,-0.3719903507973826,3.706000000005588
-0.5554,0.9085,-0.1044,0.4386,0.339,-0.0102,-0.595,-1.5575,-6.335,-6.582865894274335,-31.23565574336618,-0.37313539976725507,3.716000000007625
-0.5554,0.9085,-0.1044,0.4388,0.3378,-0.0207,-0.5775,-1.015,-5.8625,-6.5786290616719505,-31.244796737442574,-0.3692667130486097,3.7250000000058208
-0.5565,0.9151,-0.0983,0.4388,0.3378,-0.0207,-0.3675,-2.1,-6.09,-6.452587658836593,-31.213993032346536,-0.37448474500918605,3.7330000000074506
-0.5564,0.9163,-0.1012,0.4388,0.3378,-0.0207,-0.3675,-2.1,-6.09,-6.410291616764077,-31.17769646069275,-0.3810508342830573,3.743000000009488
-0.5564,0.9163,-0.1012,0.4395,0.3378,-0.0114,-0.6037,-2.2662,-6.0637,-6.395739362293793,-31.155186302968758,-0.38843335944489743,3.7520000000076834
-0.5557,0.9141,-0.1058,0.4395,0.3378,-0.0114,-0.6037,-2.2662,-6.0637,-6.423592863882885,-31.145444991033667,-0.39497074327642406,3.7600000000020373
-0.5529,0.9124,-0.1047,0.4395,0.3378,-0.0114,-0.6475,-0.77,-5.3288,-6.435958338719907,-31.12958159429692,-0.3882332395484535,3.7700000000040745
-0.5529,0.9124,-0.1047,0.4399,0.3374,-0.0134,-0.805,-0.3588,-5.1887,-6.440737614384385,-31.10932101812399,-0.3752591681000757,3.7820000000065193
-0.5554,0.9105,-0.1052,0.4399,0.3374,-0.0134,-0.805,-0.3588,-5.1887,-6.447243083012159,-31.13583425002674,-0.3665515686380388,3.790000000000873
-0.5526,0.9116,-0.1027,0.4399,0.3374,-0.0134,-1.0325,-0.98,-5.4338,-6.443072611730148,-31.129719680366552,-0.361927224497815,3.8000000000029104
-0.5526,0.9116,-0.1027,0.4402,0.3388,-0.0071,-1.0325,-0.98,-5.4338,-6.439796056735018,-31.124123870280407,-0.3577492993668675,3.809000000001106
-0.5528,0.9119,-0.0992,0.4402,0.3388,-0.0071,-0.9712,-2.415,-5.6875,-6.399403613273446,-31.117357510794765,-0.3645016543736984,3.81600000000617
-0.5588,0.9134,-0.1017,0.4402,0.3388,-0.0071,-0.6125,-1.9512,-5.6788,-6.3934851902859675,-31.141570747556127,-0.36958547919258444,3.8260000000082073
-0.5588,0.9134,-0.1067,0.4372,0.3389,-0.0077,-0.6125,-1.9512,-5.6788,-6.428047719985408,-31.160511861555364,-0.37361354696984644,3.834000000009837
-0.5616,0.9211,-0.1067,0.4372,0.3389,-0.0077,-0.8138,-0.7613,-5.4425,-6.437270533259543,-31.163683095880693,-0.3687878577993274,3.841000000007625
-0.5518,0.9069,-0.1017,0.4372,0.3389,-0.0077,-0.8138,-0.7613,-5.4425,-6.435276429673875,-31.16336056125515,-0.3633018839901694,3.849000000001979
-0.5518,0.9069,-0.1,0.4394,0.3379,-0.0122,-0.9013,-0.7,-6.2562,-6.417544918004648,-31.163944595468422,-0.3580524651960081,3.856000000007043
-0.5543,0.9097,-0.1,0.4394,0.3379,-0.0122,-1.0325,-1.3825,-5.67,-6.38659021252068,-31.168741595001595,-0.357622590450359,3.8620000000082655
-0.5475,0.9071,-0.106,0.4394,0.3379,-0.0122,-1.0325,-1.3825,-5.67,-6.446291948676044,-31.140335192517625,-0.3570675063857093,3.871000000006461
-0.5475,0.9176,-0.1084,0.4388,0.3366,-0.0144,-0.9625,-2.0825,-5.915,-6.495373868962968,-31.002761909598732,-0.36215170794480217,3.879000000000815
-0.5614,0.9176,-0.1084,0.4388,0.3366,-0.0144,-0.9625,-2.0825,-6.2562,-6.536179507941074,-31.120723549124104,-0.3659176835786339,3.8850000000020373
-0.556,0.9134,-0.1086,0.4388,0.3366,-0.0144,-0.7,-1.7325,-6.2562,-6.549935159982755,-31.13356731595935,-0.3681988600533466,3.893000000003667
-0.556,0.9132,-0.1054,0.4389,0.3367,-0.0046,-0.3588,-1.05,-5.81,-6.559640239772219,-31.14093456577384,-0.3650216259387102,3.901000000005297
-0.556,0.9132,-0.1054,0.4389,0.3367,-0.0046,-0.3588,-1.05,-5.81,-6.566568094866999,-31.146674556825218,-0.3625942641122835,3.9070000000065193
-0.5509,0.9107,-0.0985,0.4389,0.3367,-0.0046,-0.5425,-0.8138,-5.5388,-6.4963505009496645,-31.14517483645991,-0.3569209533618285,3.916000000004715
-0.5548,0.9123,-0.1039,0.4386,0.337,-0.0139,0.0962,-1.155,-5.6,-6.496791056761469,-31.14492460247575,-0.35485813253528437,3.923000000009779
-0.5548,0.9123,-0.1039,0.4386,0.337,-0.0139,0.0962,-1.155,-5.6,-6.497028440798461,-31.144691500333543,-0.3527963431211122,3.930000000007567
-0.5508,0.9134,-0.1069,0.4386,0.337,-0.0139,-0.5512,-1.61,-5.8888,-6.5277755068565355,-31.08462094581135,-0.3541045702658541,3.938000000009197
-0.5563,0.9102,-0.1075,0.4378,0.3374,-0.0151,-0.5512,-1.61,-5.8888,-6.563656679457014,-31.130282302570045,-0.3552265651318107,3.945000000006985
-0.5563,0.9102,-0.1075,0.4378,0.3374,-0.0151,-1.015,-1.8025,-5.9938,-6.59866243800961,-31.170420712851403,-0.3576948252499088,3.952000000004773
-0.5553,0.911,-0.1095,0.4378,0.3374,-0.0151,-0.7613,-1.365,-5.845,-6.59907581674542,-31.17323443827486,-0.35704158315318724,3.960000000006403
-0.5523,0.9141,-0.1022,0.4386,0.3378,-0.0114,-0.7613,-1.365,-5.845,-6.598720082769385,-31.127309314617616,-0.35644796701324183,3.967000000004191
-0.5523,0.9141,-0.1022,0.4386,0.3378,-0.0114,-0.385,-1.2425,-5.7137,-6.538943414202865,-31.104573008850792,-0.35481583834543906,3.9750000000058208
-0.5569,0.9172,-0.105,0.4386,0.3378,-0.0114,-0.385,-1.2425,-5.7137,-6.536703327530116,-31.103822095913873,-0.3531845257419702,3.9830000000074506
-0.5516,0.9133,-0.1038,0.439,0.3357,-0.0078,-0.6825,-1.5313,-5.915,-6.532931451212598,-31.065814374774835,-0.3539701911094063,3.992000000005646
-0.5516,0.9133,-0.1038,0.439,0.3357,-0.0078,-0.7088,-1.5575,-6.1775,-6.5305653045833125,-31.027238277137823,-0.3548580413300686,4.000000000007276
-0.5536,0.9114,-0.1046,0.439,0.3357,-0.0078,-0.7088,-1.5575,-6.1775,-6.531366047308603,-31.05952753327077,-0.35561234321157764,4.00700000001234
-0.5559,0.9099,-0.1061,0.4388,0.3371,-0.0167,-1.015,-1.6275,-5.9062,-6.555700264273901,-31.11217324810103,-0.3570590923548253,4.015000000006694
-0.5559,0.9099,-0.1061,0.4388,0.3371,-0.0167,-1.015,-1.6275,-5.9062,-6.575085104948485,-31.150330750179574,-0.35850511812497887,4.023000000008324
-0.5567,0.912,-0.1041,0.4388,0.3371,-0.0167,-1.2425,-1.4088,-5.565,-6.554488059951436,-31.153503107946765,-0.3581706532109977,4.033000000003085
-0.5534,0.9117,-0.1051,0.4378,0.3374,-0.0198,-1.05,-1.855,-6.0025,-6.559324006750145,-31.133076036516396,-0.3618656688672475,4.0420000000085565
-0.5534,0.9117,-0.1051,0.4378,0.3374,-0.0198,-1.05,-1.855,-6.0025,-6.563071867205681,-31.11923651034566,-0.3655588370125372,4.051000000006752
-0.5528,0.9134,-0.1025,0.4378,0.3374,-0.0198,-1.0325,-1.6363,-6.5275,-6.528726162718619,-31.071707443310864,-0.36728284272414863,4.060000000004948
-0.5549,0.9118,-0.1054,0.4395,0.3393,-0.0172,-1.0325,-1.6363,-6.5275,-6.542689333020407,-31.11342000507262,-0.36879412141913187,4.0680000000065775
-0.5549,0.9118,-0.1054,0.4395,0.3393,-0.0172,-0.3762,-1.1113,-5.8187,-6.556875753985619,-31.122842798673922,-0.3661067444739124,4.076000000008207
-0.5547,0.9141,-0.1053,0.4395,0.3393,-0.0172,-0.9187,-1.155,-5.8538,-6.558846374428185,-31.113077927125826,-0.3640393307537709,4.083000000005995
-0.5533,0.913,-0.1003,0.438,0.3387,-0.0163,-0.9187,-1.155,-5.8538,-6.5191110170961615,-31.10116227494188,-0.36170375640395525,4.091000000007625
-0.5533,0.913,-0.1003,0.438,0.3387,-0.0163,-1.4262,-1.8288,-6.2825,-6.419174697997175,-31.085488482362575,-0.3647570546424122,4.099000000009255
-0.5522,0.9107,-0.1041,0.438,0.3387,-0.0163,-1.4262,-1.8288,-6.2825,-6.459917035308759,-31.076995580696508,-0.3674045574656968,4.106000000007043
-0.5545,0.9104,-0.1039,0.4386,0.3374,-0.0165,-1.155,-1.61,-5.8275,-6.474318818800558,-31.10082883095942,-0.36870548050191615,4.114000000001397
-0.5545,0.9104,-0.1039,0.4386,0.3374,-0.0165,-0.7613,-1.4175,-6.09,-6.474377813404347,-31.129366438567427,-0.36847334866313064,4.121000000006461
-0.5577,0.913,-0.1071,0.4386,0.3374,-0.0165,-0.7613,-1.4175,-6.09,-6.474727857762226,-31.170860009874833,-0.36823450730478796,4.129000000008091
-0.5522,0.9145,-0.1035,0.4374,0.3374,-0.0176,-0.77,-1.3913,-5.915,-6.4745474107602385,-31.112875530325727,-0.3677862901670818,4.137000000009721
-0.5522,0.9145,-0.1035,0.4374,0.3374,-0.0176,-0.77,-1.9688,-6.2475,-6.474368807303133,-31.05034689159056,-0.3719559871388852,4.1450000000113505
-0.5547,0.9134,-0.1042,0.4374,0.3374,-0.0176,-1.0325,-1.9688,-6.2475,-6.481604309338874,-31.073601073324248,-0.3772119967874649,4.155000000006112
-0.5538,0.9117,-0.0993,0.44,0.336,-0.0206,-1.26,-1.505,-6.0462,-6.3930331573450045,-31.091631177480355,-0.3776684361046159,4.163000000000466
-0.5538,0.9117,-0.0993,0.44,0.336,-0.0206,-1.26,-1.505,-6.0462,-6.333998395477972,-31.103495468773087,-0.3780440165384719,4.17000000000553
-0.5574,0.9122,-0.1038,0.44,0.336,-0.0206,-0.7788,-1.47,-6.0025,-6.3369594718643745,-31.155025904654263,-0.3781745316819339,4.177000000010594
-0.5561,0.9124,-0.1034,0.4412,0.3367,-0.0086,-0.35,-1.6275,-5.7575,-6.374345158565909,-31.163412853458034,-0.3798130691462265,4.186000000008789
-0.5561,0.9124,-0.1034,0.4412,0.3367,-0.0086,-0.35,-1.6275,-5.7575,-6.4008658864921,-31.170225999574605,-0.38104464851122666,4.1929999999993015
-0.5581,0.9166,-0.1037,0.4412,0.3367,-0.0086,-0.6037,-1.8025,-5.7225,-6.408135292989122,-31.170978214431113,-0.38387798150358715,4.201000000000931
-0.5554,0.9146,-0.0994,0.439,0.3369,-0.0158,-0.6037,-1.8025,-5.7225,-6.38040752106655,-31.16255762238711,-0.3859539340030476,4.20700000000943
-0.5554,0.9146,-0.0994,0.439,0.3369,-0.0158,-0.6212,-1.2337,-5.6438,-6.358784928475965,-31.158047282405537,-0.38461775492419953,4.213000000003376
-0.5539,0.9111,-0.107,0.439,0.3369,-0.0158,-0.8138,-1.0325,-5.6613,-6.376209567416431,-31.153937273986934,-0.3816840144491037,4.220000000001164
-0.5576,0.9111,-0.1017,0.4376,0.3353,-0.0111,-0.8138,-1.0325,-5.6613,-6.375848605862023,-31.17238247704277,-0.3783601077572409,4.228000000002794
-0.5576,0.9111,-0.1017,0.4376,0.3353,-0.0111,-0.4988,-1.155,-5.7225,-6.374468693515608,-31.19480710702759,-0.376286567353499,4.235000000007858
-0.5557,0.9122,-0.1013,0.4376,0.3353,-0.0111,-0.4988,-1.155,-5.7225,-6.366663550441883,-31.19458053319052,-0.37421406372191773,4.242000000005646
-0.5572,0.9131,-0.1029,0.4389,0.3375,-0.0121,-0.9013,-1.4088,-5.9588,-6.374484389177075,-31.205942826942536,-0.3738872655705848,4.251000000003842
-0.5572,0.9131,-0.1029,0.4389,0.3375,-0.0121,-1.1988,-1.8988,-5.9763,-6.391334788259045,-31.214097261024325,-0.37749419205457246,4.2590000000054715
-0.555,0.9148,-0.1019,0.4389,0.3375,-0.0077,-1.1988,-1.8988,-5.9763,-6.380553636996949,-31.175078268284626,-0.38109931507531813,4.267000000007101
-0.5551,0.9115,-0.1074,0.4388,0.3363,-0.0077,-1.0325,-1.4525,-5.8888,-6.4533223805097935,-31.17268020446652,-0.3811340207338264,4.275000000008731
-0.5551,0.9115,-0.1074,0.4388,0.3363,-0.0077,-1.0325,-1.4525,-5.8888,-6.510493566671602,-31.170919892773306,-0.3811968659539087,4.284000000006927
-0.5525,0.913,-0.1112,0.4388,0.3363,-0.0095,-1.0063,-1.3475,-5.9325,-6.596296610905205,-31.11971834942303,-0.3804687334226016,4.291000000004715
-0.5541,0.9092,-0.1021,0.4386,0.3355,-0.0095,-0.5512,-1.9775,-5.8538,-6.56368775909094,-31.139604270868627,-0.3858074432020167,4.301000000006752
-0.5541,0.9092,-0.1021,0.4386,0.3355,-0.0095,-0.5512,-1.9775,-5.8538,-6.536704353671673,-31.15458656300836,-0.3894848003806928,4.30800000000454
-0.5599,0.9163,-0.1093,0.4386,0.3381,-0.0078,-0.5775,-2.1437,-6.0637,-6.577638700318,-31.18687922445823,-0.3950421484976743,4.31600000000617
-0.5507,0.9067,-0.1052,0.4399,0.3381,-0.0078,-0.5775,-2.1437,-6.0637,-6.583883110217805,-31.157714269582787,-0.4005967179405973,4.3240000000078
-0.5507,0.9067,-0.1052,0.4399,0.3381,-0.0078,-0.6212,-1.8375,-6.265,-6.588052299507493,-31.134651924812466,-0.4037001348983001,4.33200000000943
-0.5611,0.9166,-0.1055,0.439,0.3369,-0.0047,-0.5337,-1.8988,-5.9588,-6.58395257096446,-31.186186769809467,-0.40729215494417337,4.3400000000037835
-0.5505,0.9088,-0.1095,0.439,0.3369,-0.0047,-0.5337,-1.8988,-5.9588,-6.636745756811862,-31.13676988143277,-0.4113566127463456,4.349000000001979
-0.5505,0.9088,-0.0939,0.439,0.3369,-0.0047,-0.2275,-1.8288,-6.1512,-6.3805162168247636,-31.111282493981953,-0.4139808157935197,4.356000000007043
-0.5591,0.9127,-0.1021,0.438,0.3369,-0.0034,-0.2275,-1.8288,-5.6613,-6.381346477038089,-31.137529960262828,-0.41619943797311715,4.3620000000082655
-0.5499,0.9082,-0.1007,0.438,0.3369,-0.0034,-0.9187,-1.225,-5.6613,-6.373894804721558,-31.12586614098369,-0.41379981556390893,4.3730000000068685
-0.5499,0.9082,-0.1008,0.438,0.3369,-0.0034,-0.9187,-1.4525,-6.2125,-6.368320585070628,-31.090534653173957,-0.4138181709721729,4.381000000008498
-0.556,0.9147,-0.1008,0.4391,0.3377,-0.0124,-0.9187,-1.4525,-6.2125,-6.3573859417571565,-31.110675064594183,-0.41380836028812457,4.388000000006286
-0.5535,0.9132,-0.1028,0.4391,0.3377,-0.0124,-0.8487,-1.6275,-6.02,-6.3627343475294955,-31.094198851645615,-0.4152260114243115,4.396000000007916
-0.5535,0.9132,-0.1069,0.4391,0.3377,-0.0124,-0.8575,-1.9075,-5.9675,-6.390711111911909,-31.080038870123197,-0.4198476925610694,4.4060000000026776
-0.5605,0.9172,-0.1069,0.4402,0.3366,-0.0151,-0.8575,-1.9075,-5.9675,-6.413623710121316,-31.13429974171795,-0.4230182746187345,4.413000000007742
-0.5527,0.9104,-0.1025,0.4402,0.3366,-0.0151,-0.77,-1.7325,-5.9412,-6.413727253015875,-31.12480723942022,-0.42557891771136935,4.422000000005937
-0.5527,0.9139,-0.1004,0.4402,0.3366,-0.0151,-0.77,-1.7325,-5.9412,-6.412251782824617,-31.09184176776976,-0.42752224665333244,4.429000000003725
-0.5583,0.9139,-0.1004,0.439,0.3366,-0.0122,-1.085,-1.4,-5.8975,-6.3771637830485846,-31.139511914037598,-0.4271382676815596,4.436000000001513
-0.5533,0.9123,-0.1036,0.439,0.3366,-0.0122,-0.98,-1.2687,-5.845,-6.39549650315692,-31.12364780067043,-0.42568028906346533,4.444000000003143
-0.5573,0.9091,-0.1082,0.439,0.3366,-0.0122,-0.98,-1.2687,-5.845,-6.4662428164322145,-31.17350073703947,-0.4243785906196459,4.451000000008207
-0.5573,0.9091,-0.1082,0.4374,0.3356,-0.0163,-0.91,-1.7675,-5.7663,-6.508204129238225,-31.203775333819216,-0.4265673972250774,4.458000000005995
-0.5518,0.9108,-0.1035,0.4374,0.3356,-0.0163,-0.91,-1.7675,-5.7663,-6.504920129235052,-31.173364677625884,-0.4297841076721637,4.468000000008033
-0.5566,0.9135,-0.1043,0.4374,0.3356,-0.0163,-0.6737,-1.7938,-6.1863,-6.50560814889181,-31.179790227395312,-0.4325235057322426,4.4760000000023865
-0.5566,0.9135,-0.1043,0.4379,0.3376,-0.0128,-0.6562,-1.5838,-5.9675,-6.506358557582169,-31.182770613042493,-0.4334229828316836,4.483000000007451
-0.553,0.9141,-0.1021,0.4379,0.3376,-0.0128,-0.6562,-1.5838,-5.9675,-6.493872750123118,-31.131567351922488,-0.4344814014565276,4.49100000000908
-0.5531,0.9123,-0.098,0.4379,0.3376,-0.0128,-1.085,-1.6363,-5.9763,-6.404860459638571,-31.116081535579543,-0.43638281089968944,4.501000000003842
-0.5531,0.9123,-0.098,0.4374,0.3376,-0.0107,-1.085,-1.6363,-5.9763,-6.337697694299621,-31.10540015211295,-0.43764767459681253,4.508000000008906
-0.5539,0.9136,-0.1061,0.4374,0.3376,-0.0107,-0.3325,-1.3563,-5.6087,-6.4234861278029465,-31.101787286106635,-0.43688489087589805,4.51600000000326
-0.5497,0.9075,-0.1073,0.4374,0.3376,-0.0107,-0.6125,-1.2075,-5.39,-6.464500114031406,-31.092995109001738,-0.4349326837461069,4.524000000004889
-0.5497,0.9075,-0.1073,0.4385,0.3368,-0.0091,-0.6125,-1.2075,-5.39,-6.500252182349017,-31.085258955526925,-0.433414893890969,4.530000000006112
-0.5586,0.9162,-0.1092,0.4385,0.3368,-0.0091,-1.2425,-1.8813,-6.055,-6.596844548113143,-31.12182565696136,-0.4373088690770226,4.539000000011583
-0.5523,0.9127,-0.105,0.4385,0.3368,-0.0091,-1.2425,-1.8813,-6.055,-6.585708396028677,-31.08409707088843,-0.4407441547559052,4.547000000005937
-0.5523,0.9127,-0.105,0.4393,0.337,-0.0107,-1.3388,-2.0475,-5.8538,-6.577249718237746,-31.066493468149712,-0.44426093916628867,4.5530000000071595
-0.5583,0.9115,-0.1005,0.4393,0.337,-0.0107,-0.945,-1.8375,-6.0725,-6.532634986012688,-31.160891265341146,-0.4473425240133786,4.561000000008789
-0.5494,0.9091,-0.1032,0.4393,0.337,-0.0107,-0.945,-1.8375,-6.0725,-6.5238470523747045,-31.09836990052516,-0.450422568068045,4.569000000010419
-0.5494,0.9091,-0.1032,0.4391,0.3366,-0.0118,-0.84,-1.3475,-5.5825,-6.520321387055083,-31.092297964719776,-0.4497366132714758,4.575000000004366
-0.5568,0.9159,-0.1056,0.4391,0.3366,-0.0118,-0.84,-1.3475,-5.9763,-6.524532346524144,-31.103641694375302,-0.44882062969547865,4.584000000002561
-0.5525,0.9177,-0.1,0.4391,0.3366,-0.0118,-1.0762,-1.8463,-5.9763,-6.4510450215266655,-31.040699182299203,-0.45154853948426676,4.591000000007625
-0.5525,0.9177,-0.1,0.4383,0.3359,-0.0092,-0.9013,-2.1088,-5.845,-6.422243400502286,-31.006896311919853,-0.4561116665645114,4.598000000005413
-0.5526,0.9158,-0.102,0.4383,0.3359,-0.0092,-0.9013,-2.1088,-5.845,-6.4139386177215965,-30.993408542776578,-0.46135664084834416,4.606000000007043
-0.5556,0.9089,-0.1082,0.4383,0.3359,-0.0092,-0.805,-1.8375,-6.0113,-6.430192625790921,-31.079750368230357,-0.46442967784158834,4.614000000001397
-0.5556,0.9089,-0.1082,0.4367,0.3362,-0.0085,-0.805,-1.435,-6.055,-6.44574190923595,-31.14133040654678,-0.46426145698975824,4.620000000009895
-0.5517,0.9082,-0.1051,0.4367,0.3362,-0.0085,-0.7437,-1.435,-6.055,-6.448185187157286,-31.129938784460908,-0.4641359829062075,4.630000000004657
-0.5563,0.9134,-0.1003,0.4367,0.3362,-0.0085,-0.7525,-1.26,-5.9062,-6.446890445594179,-31.14671063868752,-0.46242569339435574,4.639000000010128
-0.5563,0.9134,-0.1003,0.4382,0.3364,-0.0076,-0.7525,-1.26,-5.9062,-6.445604931451587,-31.158866842940352,-0.46120899953565286,4.6450000000040745
-0.5541,0.916,-0.1029,0.4382,0.3364,-0.0076,-0.7088,-1.8112,-5.95,-6.4438579526730635,-31.11499657614224,-0.4644584931156873,4.65400000000227
-0.5571,0.9157,-0.1095,0.4382,0.3364,-0.0076,-0.5512,-1.8813,-6.0813,-6.508589661756697,-31.122303204007267,-0.46788020398587393,4.6620000000039
-0.5571,0.9157,-0.1095,0.437,0.337,-0.017,-0.5512,-1.8813,-6.0813,-6.562154318360815,-31.12700261959905,-0.4703867189714393,4.668000000005122
-0.5544,0.909,-0.1036,0.437,0.337,-0.017,-0.7175,-1.6888,-6.3,-6.559720794093524,-31.165356600896327,-0.4727949132574921,4.6780000000071595
-0.5528,0.9033,-0.1029,0.437,0.337,-0.017,-0.7175,-1.6888,-6.3,-6.557258129480148,-31.224741583622706,-0.474408887153702,4.685000000012224
-0.5528,0.9033,-0.1029,0.4392,0.3371,-0.013,-0.6388,-0.9712,-5.5213,-6.550961498989661,-31.225139127635792,-0.4705484632286823,4.6930000000065775
-0.5559,0.9129,-0.1014,0.4392,0.3371,-0.013,-0.7175,-1.7587,-5.705,-6.542347797081827,-31.218759740877395,-0.47298681951118104,4.701000000000931
-0.556,0.922,-0.108,0.4392,0.3371,-0.013,-0.7175,-1.7587,-5.705,-6.547958811954487,-31.173381730276102,-0.4750897528046179,4.708000000005995
-0.556,0.922,-0.108,0.4398,0.3366,-0.009,-0.8138,-2.38,-5.9062,-6.554789090216453,-31.1034182854615,-0.48153856008455276,4.7150000000110595
-0.556,0.9139,-0.1075,0.4398,0.3366,-0.009,-0.8138,-2.38,-5.9062,-6.56269370799063,-31.11377235337883,-0.49084972244450653,4.725000000005821
-0.5563,0.9079,-0.1084,0.4398,0.3366,-0.009,-0.7175,-1.8463,-5.8538,-6.572648970391062,-31.16383868466665,-0.494400137716092,4.734000000011292
-0.5563,0.9079,-0.1084,0.4377,0.3373,-0.0151,-0.77,-0.7788,-5.6962,-6.575060378816116,-31.18603101001523,-0.4896364940048556,4.741000000001804
-0.5524,0.9034,-0.1011,0.4377,0.3373,-0.0151,-0.77,-0.7788,-5.6962,-6.573123054683901,-31.200530949859132,-0.4835848196348229,4.750000000007276
-0.5601,0.9126,-0.1016,0.4377,0.3373,-0.0151,-0.3762,-0.5425,-5.6438,-6.511996179070852,-31.219586149820667,-0.476291922539569,4.758000000008906
-0.5601,0.9126,-0.1016,0.4375,0.337,-0.0142,-0.3762,-0.5425,-5.6438,-6.467812696852089,-31.23664091150986,-0.46988405998174876,4.765000000006694
-0.5507,0.915,-0.1046,0.4375,0.337,-0.0142,-0.6388,-2.03,-5.9412,-6.473609765091035,-31.131475707685482,-0.47449206326874455,4.773000000008324
-0.5567,0.9162,-0.1066,0.4375,0.337,-0.0142,-0.63,-2.905,-6.2125,-6.492311979598582,-31.123939110779496,-0.4860942625447543,4.7810000000026776
-0.5567,0.9162,-0.1066,0.4397,0.3382,-0.0053,-0.63,-2.905,-6.2125,-6.508867329448314,-31.119468992596474,-0.4962107300724764,4.788000000007742
-0.5541,0.9104,-0.1023,0.4397,0.3382,-0.0053,-1.155,-1.19,-5.6788,-6.481232768825265,-31.125709390237738,-0.4938547181883628,4.797000000005937
-0.5565,0.9105,-0.1041,0.4397,0.3382,-0.0053,-1.155,-1.19,-5.6788,-6.492914346759817,-31.1445251190989,-0.49173409614488695,4.805000000007567
-0.5565,0.9105,-0.1041,0.439,0.3381,-0.0132,-1.1638,-0.5337,-5.2675,-6.501419030660637,-31.169941639503968,-0.4843667596113637,4.813000000009197
-0.554,0.914,-0.1019,0.439,0.3381,-0.0132,-0.3675,-1.2862,-5.8713,-6.462009237328264,-31.14291692928483,-0.48302009674833757,4.821000000003551
-0.5538,0.9129,-0.1057,0.439,0.3381,-0.0132,-0.3675,-1.2862,-5.8713,-6.5021700858866955,-31.125165951686217,-0.48167410721573845,4.8290000000051805
-0.5538,0.9129,-0.1057,0.441,0.3366,-0.0101,-0.6037,-2.6337,-6.335,-6.515987711823486,-31.10215040248165,-0.489894634360957,4.836000000002969
-0.552,0.9112,-0.1071,0.441,0.3366,-0.0101,-0.6037,-2.6337,-6.0025,-6.5413072161484,-31.079959900357117,-0.5005285838808903,4.84500000000844
-0.5581,0.9138,-0.1055,0.441,0.3366,-0.0101,-1.12,-1.8988,-6.0025,-6.553079860593344,-31.133463535066216,-0.5040721897057228,4.85300000001007
-0.5581,0.9138,-0.1055,0.4405,0.3355,-0.0091,-0.7,-0.9363,-5.7575,-6.554919885028508,-31.15455599273066,-0.5004056587169979,4.860000000000582
-0.5561,0.9135,-0.0988,0.4405,0.3355,-0.0091,-0.7,-0.9363,-5.7575,-6.5334031529195995,-31.159987058760365,-0.4957653910154705,4.869000000006054
-0.5523,0.9129,-0.0973,0.4405,0.3355,-0.0091,-0.735,-0.7525,-5.6788,-6.522575346910266,-31.1428861467552,-0.4901455636348684,4.877000000007683
-0.5523,0.9129,-0.0973,0.4396,0.3371,-0.0134,-0.3588,-1.5662,-6.0375,-6.397017917825488,-31.10491206767499,-0.4907512912402243,4.883000000008906
-0.555,0.9141,-0.1028,0.4396,0.3371,-0.0134,-0.3588,-1.5662,-6.0375,-6.402605244584817,-31.10485061242369,-0.49078951572366203,4.885000000009313
-0.5591,0.9124,-0.112,0.4396,0.3371,-0.0134,-0.735,-2.065,-5.9062,-6.416950037335179,-31.160912413742036,-0.49118447162810114,4.886000000005879
-0.5591,0.9124,-0.112,0.4379,0.3375,-0.0094,-0.735,-2.065,-5.9062,-6.430949354926034,-31.201545888037696,-0.49221958072154803,4.888000000006286
-0.5591,0.917,-0.1086,0.4379,0.3375,-0.0094,-0.3588,-1.6712,-5.8713,-6.5234114720643035,-31.19956682427553,-0.4924669660584925,4.889999999999418
-0.5511,0.9043,-0.1042,0.4379,0.3375,-0.0094,-1.0412,-1.68,-5.67,-6.534315177547855,-31.1985386260217,-0.4927318189064267,4.892000000007101
-0.5511,0.9043,-0.1042,0.4382,0.3368,-0.0173,-1.0412,-1.68,-5.67,-6.5428235804340735,-31.197639454399763,-0.49274099616245526,4.893000000010943
-0.5621,0.9201,-0.0984,0.4382,0.3368,-0.0173,-0.8575,-1.5488,-5.67,-6.5037477994491555,-31.207535952651476,-0.49274344319251956,4.8950000000040745
-0.5467,0.9064,-0.1066,0.4382,0.3368,-0.0173,-0.8575,-1.5488,-5.67,-6.521915383803015,-31.171797276948734,-0.492745888999974,4.897000000004482
-0.5467,0.9064,-0.1034,0.4402,0.337,-0.0143,-0.8925,-1.89,-6.125,-6.520287936717823,-31.082363652840293,-0.49389583055095176,4.900000000008731
-0.5657,0.9195,-0.1034,0.4402,0.337,-0.0143,-0.9712,-1.4438,-5.6525,-6.502096625316391,-31.122433167158086,-0.49368780516468425,4.902000000009139
-0.5485,0.909,-0.1065,0.4402,0.337,-0.0143,-0.9712,-1.4438,-5.6525,-6.533577334133749,-31.101428914843385,-0.4935771901134173,4.908999999999651
-0.5485,0.909,-0.1075,0.4388,0.3369,-0.0019,-0.595,-1.3475,-6.0637,-6.563411338296444,-31.042043097346628,-0.4927928674194717,4.916000000004715
-0.5604,0.9107,-0.1075,0.4388,0.3369,-0.0019,-0.595,-1.3475,-6.0637,-6.587263203777971,-31.17742397405502,-0.49185535571640054,4.92500000000291
-0.5495,0.9113,-0.0988,0.4388,0.3369,-0.0019,-0.525,-1.225,-6.09,-6.511306435034595,-31.09239627848932,-0.49021482268903344,4.9320000000079744
-0.5495,0.9101,-0.1066,0.4387,0.336,-0.0164,0.2537,-1.3388,-6.09,-6.596522403227456,-31.041176865129017,-0.48928582539354964,4.940000000009604
-0.5603,0.9101,-0.1066,0.4387,0.336,-0.0164,0.2537,-1.3388,-6.09,-6.63884727624825,-31.186496415406832,-0.48818632012567875,4.9500000000116415
-0.5526,0.9152,-0.1032,0.4387,0.336,-0.0164,-0.5425,-2.0825,-6.1337,-6.602229738703777,-31.102344164638016,-0.48860006887785673,4.951000000008207
-0.5526,0.9142,-0.1083,0.4378,0.3397,-0.0116,-0.5425,-2.0825,-6.1337,-6.629669031738891,-31.054212881669585,-0.4923028203264355,4.957000000002154
-0.5582,0.9142,-0.1083,0.4378,0.3397,-0.0116,-0.9363,-1.6712,-6.3088,-6.64863455905039,-31.131577026082734,-0.4937839018690219,4.964000000007218
-0.5585,0.9188,-0.1027,0.4378,0.3397,-0.0116,-0.91,-1.6363,-6.16,-6.613246668369558,-31.133295111541248,-0.4952319300344327,4.972000000008848
-0.5494,0.9029,-0.1032,0.4373,0.337,-0.0172,-0.91,-1.6363,-6.16,-6.6011290050916775,-31.141697552478732,-0.4964673691704469,4.979000000006636
-0.5494,0.9029,-0.1032,0.4373,0.337,-0.0172,-0.735,-1.4963,-6.195,-6.59918758784708,-31.14701172354767,-0.49744203073234916,4.996000000006461
-0.561,0.9135,-0.1007,0.4373,0.337,-0.0172,-0.735,-1.4963,-6.195,-6.591756197613795,-31.24872823710971,-0.4974091147607887,4.99900000001071
-0.5448,0.9023,-0.108,0.4391,0.3388,-0.0127,-0.7613,-1.5575,-5.635,-6.592134709078329,-31.21881990964666,-0.4980921411036454,5.006000000001222
-0.5448,0.9023,-0.108,0.4391,0.3388,-0.0127,-0.8925,-1.68,-5.9325,-6.6194959965519455,-31.13921876520292,-0.5006540698422367,5.016999999999825
-0.5694,0.9298,-0.1086,0.4391,0.3388,-0.0127,-0.8925,-1.68,-5.9325,-6.624470496451792,-31.18860933182285,-0.5019370017964873,5.023000000008324
-0.542,0.9099,-0.1002,0.4384,0.3385,-0.0147,-0.7088,-1.8725,-5.7488,-6.607996598452655,-31.086903183992053,-0.5030298740377331,5.026000000005297
-0.542,0.9099,-0.1002,0.4384,0.3385,-0.0147,-0.7088,-1.8725,-6.0375,-6.592320280174856,-30.93217439212148,-0.5063619344174444,5.034000000006927
-0.5652,0.9188,-0.1054,0.4384,0.3385,-0.0147,-0.2362,-1.7587,-6.0375,-6.575741473111377,-31.100822635575803,-0.5081139763376441,5.040000000008149
-0.5438,0.9089,-0.0978,0.4362,0.3364,-0.0074,-0.6037,-0.9712,-5.6962,-6.517154562189321,-31.049523024725595,-0.5060483096104015,5.044000000001688
-0.5438,0.9089,-0.0978,0.4362,0.3364,-0.0074,-0.6037,-0.9712,-5.6962,-6.466472878868313,-31.00566577061217,-0.49854884648612,5.060000000004948
-0.5627,0.9134,-0.1077,0.4362,0.3364,-0.0074,-0.245,-0.6737,-5.8275,-6.5542366447368465,-31.110496677684523,-0.4907970352063485,5.070000000006985
-0.551,0.9131,-0.0987,0.4385,0.3378,-0.012,-1.0762,-1.7413,-5.74,-6.461697951181955,-31.08426569463009,-0.4934029493186737,5.0790000000051805
-0.551,0.9131,-0.0987,0.4385,0.3378,-0.012,-1.0762,-1.7413,-5.74,-6.391407676082192,-31.062649632714358,-0.49600756047624783,5.088000000010652
-0.5535,0.904,-0.1089,0.4385,0.3378,-0.012,-0.7613,-2.2575,-6.265,-6.392181098734519,-31.16124160595148,-0.5032543464250071,5.097000000008848
-0.5572,0.9155,-0.0994,0.4387,0.3381,-0.0052,-0.7613,-2.2575,-6.265,-6.391864363971846,-31.167938829092893,-0.5104975089747329,5.105999999999767
-0.5572,0.9155,-0.0994,0.4387,0.3381,-0.0052,-1.0063,-1.7587,-5.7663,-6.3532328338733945,-31.169692860852617,-0.5129158907367903,5.114000000001397
-0.5519,0.911,-0.1063,0.4387,0.3381,-0.0052,-0.5075,-1.015,-6.0813,-6.414098651563545,-31.12227415342981,-0.5089773137696835,5.1230000000068685
-0.5633,0.9176,-0.0986,0.4386,0.3369,-0.0079,-0.5075,-1.015,-6.0813,-6.357516123550736,-31.22089437251676,-0.5046315817599419,5.13300000000163
-0.5633,0.9176,-0.0986,0.4386,0.3369,-0.0079,-0.4462,-1.1025,-5.74,-6.303966130927323,-31.252168351628328,-0.5008409170290113,5.144000000000233
-0.5502,0.9128,-0.105,0.4386,0.3369,-0.0079,-0.4462,-1.1025,-5.74,-6.365532681150684,-31.19261687294896,-0.4973738157148415,5.15400000000227
-0.5496,0.9064,-0.1013,0.439,0.3377,-0.0186,-0.4025,-1.89,-5.7925,-6.368540160243271,-31.167546827130394,-0.5008486341237427,5.1620000000039
-0.5496,0.9064,-0.1013,0.439,0.3377,-0.0186,-0.4638,-1.5313,-6.3525,-6.370462660795471,-31.124912492560433,-0.5016673849518987,5.172000000005937
-0.5622,0.9199,-0.1075,0.439,0.3377,-0.0186,-0.4638,-1.5313,-6.3525,-6.437799609225605,-31.185429892734632,-0.5023788088897297,5.181000000004133
-0.5528,0.9119,-0.1038,0.4404,0.3367,-0.0174,-0.9975,-1.2862,-5.845,-6.448583666281384,-31.155441036501472,-0.500885080066034,5.190000000002328
-0.5528,0.9119,-0.1038,0.4404,0.3367,-0.0174,-0.9975,-1.2862,-5.845,-6.457295788909498,-31.132696273545857,-0.49939209810574564,5.1990000000078
-0.5571,0.9104,-0.1047,0.4404,0.3367,-0.0174,-1.1988,-1.68,-5.7925,-6.488769856831794,-31.167077264226084,-0.5014422905367317,5.208000000005995
-0.5521,0.91,-0.1005,0.438,0.3358,-0.0137,-1.015,-1.4438,-5.8713,-6.450819276348381,-31.147706378087406,-0.5013667207719282,5.217000000004191
-0.5521,0.91,-0.1005,0.438,0.3358,-0.0137,-1.015,-1.4438,-5.8713,-6.420587526659127,-31.133302036802167,-0.5013301113211568,5.22800000001007
-0.5552,0.9117,-0.1063,0.438,0.3358,-0.0137,-0.665,-1.6363,-5.9938,-6.440463423029351,-31.14456909194119,-0.5029862313956139,5.2370000000082655
-0.5511,0.914,-0.1029,0.439,0.3386,-0.0066,-0.665,-1.6363,-5.9938,-6.438990164879168,-31.0758294288955,-0.5046415234100339,5.246000000006461
-0.5511,0.914,-0.1029,0.439,0.3386,-0.0066,-0.4375,-1.7413,-5.7137,-6.435198449485395,-31.052634745414444,-0.5072405152805624,5.255000000011933
-0.5544,0.9108,-0.1033,0.439,0.3386,-0.0066,-0.7088,-1.6363,-5.8275,-6.436914942045108,-31.07893377186838,-0.5086818151377259,5.263000000006286
-0.5546,0.9173,-0.1063,0.4394,0.3368,-0.0066,-0.7088,-1.6363,-5.8275,-6.445302341617983,-31.05795110380174,-0.5103342593602748,5.272000000004482
-0.5546,0.9173,-0.1063,0.4394,0.3368,-0.0066,-1.2075,-1.925,-6.2825,-6.49629264029029,-31.027938955951324,-0.5140824575474102,5.280000000006112
-0.5471,0.9041,-0.1072,0.4394,0.3368,-0.0066,-1.2075,-1.925,-6.3787,-6.5784914468040725,-31.016286877674737,-0.5183292022982335,5.289000000004307
-0.565,0.9204,-0.1057,0.4378,0.3377,-0.0122,-0.7262,-1.6013,-6.3787,-6.577608230137474,-31.18231656560633,-0.5194850978133727,5.297000000005937
-0.565,0.9204,-0.1057,0.4378,0.3377,-0.0122,-0.9363,-1.2337,-5.8362,-6.5736480441334235,-31.228385778691997,-0.5177010857801555,5.305000000007567
-0.5472,0.9096,-0.097,0.4378,0.3377,-0.0122,-0.9363,-1.2337,-5.8362,-6.500602620409171,-31.147778615719762,-0.5161084994391869,5.312000000005355
-0.5615,0.9173,-0.1011,0.4378,0.3379,-0.016,-0.665,-1.5225,-5.8187,-6.48234068244854,-31.186253893935234,-0.5166354205056273,5.320000000006985
-0.5615,0.9173,-0.1011,0.4378,0.3379,-0.016,-0.5337,-1.1725,-5.4163,-6.446787271592991,-31.199324842594375,-0.5146151811974312,5.327000000004773
-0.545,0.9053,-0.1,0.4378,0.3379,-0.016,-0.5337,-1.1725,-5.4163,-6.420352535383476,-31.169123395606164,-0.5125959520070579,5.334000000009837
-0.5617,0.9111,-0.1074,0.4385,0.3372,-0.0143,-1.12,-1.47,-6.1075,-6.500510296626656,-31.282563148110995,-0.5126591911821213,5.341000000000349
-0.5617,0.9111,-0.1074,0.4385,0.3372,-0.0143,-1.12,-1.47,-6.1075,-6.559435875455182,-31.354315274148608,-0.5127223987382614,5.348000000005413
-0.5521,0.9102,-0.1018,0.4385,0.3372,-0.0096,-1.5838,-1.4438,-5.985,-6.479110345138894,-31.268726380887607,-0.5126022663904909,5.355000000010477
-0.5641,0.9157,-0.1085,0.4404,0.3367,-0.0096,-1.1638,-1.6013,-6.2125,-6.559202333735055,-31.345044440750346,-0.5135841428584045,5.3620000000082655
-0.5641,0.9157,-0.1085,0.4404,0.3367,-0.0096,-1.1638,-1.6013,-6.2125,-6.616242953137185,-31.390310328171562,-0.5145655283880841,5.369000000006054
-0.553,0.9193,-0.0982,0.4404,0.337,-0.0146,-1.0063,-2.4237,-5.6613,-6.5135669670384075,-31.33033597760411,-0.5222992161415181,5.377000000007683
-0.555,0.9103,-0.107,0.4386,0.337,-0.0146,-1.0063,-2.4237,-5.6613,-6.551239508881284,-31.314350492414007,-0.529030165732738,5.3840000000054715
-0.555,0.9103,-0.107,0.4386,0.337,-0.0146,-0.7175,-1.0675,-6.1512,-6.557421625451783,-31.26875223715821,-0.525199144794145,5.394000000007509
-0.558,0.9145,-0.1049,0.4386,0.3374,-0.0074,-0.6212,-1.155,-5.495,-6.555747136205949,-31.267385691466803,-0.5230521848718847,5.401000000012573
-0.5489,0.9132,-0.1049,0.4382,0.3374,-0.0074,-0.6212,-1.155,-5.495,-6.555399537264731,-31.25443541876324,-0.5209062984335029,5.408000000003085
-0.5489,0.9132,-0.1049,0.4382,0.3374,-0.0074,-0.8225,-1.8463,-5.9325,-6.555251166312034,-31.135739349073003,-0.5240199254009735,5.416000000004715
-0.5556,0.9091,-0.0999,0.4382,0.3374,-0.0038,-0.8225,-1.8463,-5.9325,-6.538449989589712,-31.176978330251323,-0.526710235541909,5.423000000009779
-0.5591,0.9135,-0.1057,0.4382,0.3374,-0.0038,-0.6475,-1.9863,-5.985,-6.544685871150432,-31.215330596272217,-0.5303787105243957,5.430000000007567
-0.5591,0.9135,-0.1057,0.4382,0.3374,-0.0038,-1.1113,-2.0038,-6.1337,-6.559147291600704,-31.24693270326856,-0.5353261525485884,5.439000000005763
-0.556,0.9078,-0.1059,0.4378,0.3362,-0.0049,-1.1113,-2.0038,-6.1337,-6.583771637922143,-31.272272174996125,-0.5396919395892581,5.447000000007392
-0.5575,0.9163,-0.1038,0.4378,0.3362,-0.0049,-0.56,-1.54,-5.6087,-6.56367169025793,-31.263396690445013,-0.5403469989356519,5.455000000009022
-0.5575,0.9163,-0.1044,0.4378,0.3362,-0.0049,-0.56,-1.54,-5.6087,-6.553082224490411,-31.255053816053856,-0.5408861175874283,5.46200000000681
-0.5499,0.9107,-0.1044,0.4384,0.3364,-0.0085,-0.3762,-0.9712,-5.5825,-6.549365645164715,-31.239366957294997,-0.5365395526099519,5.471000000005006
-0.5583,0.9119,-0.1059,0.4384,0.3364,-0.0085,-0.3237,-1.3388,-5.7225,-6.572071757608594,-31.250273148485576,-0.535672879185336,5.478000000002794
-0.5583,0.9105,-0.1067,0.4384,0.3364,-0.0085,-0.3237,-1.3388,-5.7225,-6.606027813132375,-31.265291382765646,-0.5348066390968105,5.485000000007858
-0.5544,0.9105,-0.1067,0.4388,0.3365,-0.0146,-0.735,-1.7763,-5.845,-6.607903564225601,-31.24076963488048,-0.5377053909071272,5.494000000006054
-0.5593,0.9165,-0.104,0.4388,0.3365,-0.0146,-0.735,-1.7763,-5.845,-6.60467761542699,-31.23844678594342,-0.540250898328247,5.502000000007683
-0.5593,0.9166,-0.0993,0.4388,0.3365,-0.0146,-1.2425,-1.9425,-6.0025,-6.467385864072037,-31.23981452259823,-0.5430882443629478,5.50800000000163
-0.5529,0.9166,-0.0993,0.4366,0.3379,-0.012,-0.56,-1.7237,-5.985,-6.420057344745954,-31.149040089808636,-0.5452104707572539,5.51600000000326
-0.5549,0.9084,-0.1016,0.4366,0.3379,-0.012,-0.56,-1.7237,-5.985,-6.413677105301131,-31.184123302040362,-0.5470324147248906,5.523000000008324
-0.5558,0.9127,-0.1033,0.4366,0.3379,-0.012,-0.2537,-0.8575,-5.6087,-6.4283321896769055,-31.1836655149093,-0.5427930794202813,5.530000000006112
-0.5558,0.9127,-0.1033,0.4367,0.3378,-0.0108,-0.2537,-0.8575,-5.4687,-6.438063463557252,-31.183361161640708,-0.53798931819977,5.538000000000466
-0.5525,0.9104,-0.1053,0.4367,0.3378,-0.0108,-0.35,-0.6037,-5.4687,-6.484459641340398,-31.17792965496054,-0.5311585740553333,5.5460000000020955
-0.5539,0.9145,-0.1002,0.4367,0.3378,-0.0108,-0.4112,-1.5925,-5.9062,-6.424605159316706,-31.14311581026955,-0.5320696031706569,5.5530000000071595
-0.5539,0.9145,-0.1002,0.4378,0.3374,-0.0115,-0.4112,-1.5925,-5.9062,-6.380218464076821,-31.117882809721607,-0.5329801767701998,5.560000000004948
-0.5519,0.913,-0.1058,0.4378,0.3374,-0.0115,-0.63,-2.555,-6.1425,-6.406601309422907,-31.066716605444686,-0.5417545319996566,5.5680000000065775
-0.559,0.9127,-0.1064,0.4378,0.3374,-0.0115,-0.91,-1.5662,-5.8975,-6.438325506727605,-31.13368188306695,-0.5424762551848432,5.575000000004366
-0.559,0.9127,-0.1064,0.4392,0.3379,-0.0123,-0.91,-1.5662,-5.8975,-6.465904043263197,-31.182526173252004,-0.5431976175094689,5.58200000000943
-0.5584,0.9129,-0.1022,0.4392,0.3379,-0.0123,-1.1638,-1.12,-5.74,-6.44340133537106,-31.202237913928972,-0.5407967808528871,5.589000000007218
-0.5547,0.9143,-0.1077,0.4392,0.3379,-0.0123,-1.1638,-1.12,-5.74,-6.52249125916896,-31.178996071487123,-0.5383971446146335,5.596000000005006
-0.5547,0.9143,-0.1077,0.4395,0.3359,-0.0143,-0.945,-0.8575,-5.8012,-6.553089699970839,-31.155536108828667,-0.5335955813574028,5.604000000006636
-0.552,0.912,-0.1067,0.4395,0.3359,-0.0143,-0.6913,-1.3825,-5.81,-6.560765349290006,-31.123991026304125,-0.5330361269683166,5.611000000004424
-0.5523,0.9082,-0.1051,0.4395,0.3359,-0.0143,-0.6913,-1.3825,-5.81,-6.563346855388407,-31.126630318280807,-0.5323933361351036,5.620000000009895
-0.5523,0.9082,-0.1051,0.4392,0.3366,-0.0135,-0.56,-1.505,-5.9588,-6.56963065438831,-31.129440211203644,-0.5326915541183578,5.627000000007683
-0.5542,0.9124,-0.1026,0.4392,0.3366,-0.0135,-0.56,-1.505,-5.9588,-6.544059271872872,-31.12519584374043,-0.5329896229926202,5.6340000000054715
-0.5586,0.9265,-0.1046,0.4392,0.3366,-0.0135,-1.0588,-1.4,-5.3025,-6.520400083065897,-31.088772144922892,-0.5325285934970843,5.642000000007101
-0.5586,0.9265,-0.1046,0.4392,0.3364,-0.0127,-0.595,-2.5113,-5.705,-6.509216493866538,-31.064144400115868,-0.5398673217994328,5.649000000004889
-0.5515,0.9057,-0.1046,0.4392,0.3364,-0.0127,-0.595,-2.5113,-5.705,-6.520348550646866,-31.080141790650693,-0.5482888082563037,5.657000000006519
-0.5625,0.921,-0.1057,0.4392,0.3364,-0.0127,-0.77,-1.8288,-5.9675,-6.520620789311049,-31.131501408586768,-0.5508445452027814,5.664000000004307
-0.5625,0.921,-0.1057,0.4387,0.3373,-0.0124,-0.77,-1.8288,-5.9675,-6.520890246636716,-31.167143182455575,-0.5542075418099505,5.673000000002503
-0.5486,0.9004,-0.1105,0.4387,0.3373,-0.0124,-0.8662,-0.98,-5.5213,-6.566679658952261,-31.167123572208006,-0.5503775833543217,5.681000000004133
-0.5649,0.9153,-0.1007,0.4387,0.3373,-0.0124,-1.4262,-0.7175,-6.0725,-6.451362784043518,-31.2945718946817,-0.5444505898774932,5.689000000005763
-0.5649,0.9153,-0.1007,0.4381,0.3384,-0.0151,-1.4262,-0.7175,-6.0725,-6.382166652874085,-31.377009627322295,-0.5392330354804769,5.696000000010827
-0.5433,0.9055,-0.1076,0.4381,0.3384,-0.0151,-0.77,-1.5137,-5.705,-6.386196854455825,-31.287621419572485,-0.5395887031633891,5.703000000001339
-0.5639,0.9165,-0.1023,0.4381,0.3384,-0.0151,-0.77,-1.5137,-5.705,-6.386021248010092,-31.31143848808341,-0.5399441930137598,5.710000000006403
-0.5639,0.9165,-0.1023,0.4399,0.3366,-0.0168,-0.91,-2.1437,-5.9237,-6.383798041949487,-31.349370772723734,-0.5454263114344249,5.718000000008033
-0.5499,0.9119,-0.0988,0.4399,0.3366,-0.0168,-0.945,-1.4088,-5.81,-6.352498060557245,-31.259712429467605,-0.545044949630242,5.725000000005821
-0.5622,0.9212,-0.1066,0.4399,0.3366,-0.0168,-0.945,-1.4088,-5.81,-6.39132411103,-31.252298008439478,-0.5446482572715146,5.733000000000175
-0.5622,0.9212,-0.1066,0.4386,0.3375,-0.0111,-0.8313,-1.0063,-5.5825,-6.405326465241701,-31.250911191214175,-0.541451193242263,5.740000000005239
-0.5478,0.9128,-0.1048,0.4386,0.3375,-0.0111,-0.8313,-1.0063,-5.7575,-6.414965048155608,-31.16705272258658,-0.5374200877768958,5.749000000003434
-0.5565,0.9074,-0.1058,0.4386,0.3375,-0.0111,-0.5688,-1.5137,-5.7575,-6.452714137574811,-31.20105738412256,-0.5379553145639961,5.758000000008906
-0.5565,0.9074,-0.1058,0.4396,0.3374,-0.0153,-0.6212,-1.2862,-5.8012,-6.476769214165595,-31.23278082955015,-0.5367199173585195,5.765000000006694
-0.5503,0.9063,-0.1061,0.4396,0.3374,-0.0153,-0.6212,-1.2862,-5.8012,-6.501147166415264,-31.20269042455464,-0.5352090179805894,5.774000000004889
-0.5638,0.9142,-0.1036,0.4396,0.3374,-0.0153,-0.8487,-1.4963,-6.0113,-6.498221303781692,-31.2996422307716,-0.5355168935877164,5.782000000006519
-0.5638,0.9142,-0.1036,0.4388,0.3377,-0.0135,-0.8487,-2.2838,-6.1163,-6.495534615511326,-31.37383434242212,-0.5421214652583226,5.790000000008149
-0.5468,0.9111,-0.1,0.4388,0.3377,-0.0135,-0.9275,-2.2838,-6.1163,-6.462199594269963,-31.168026881607684,-0.5478636933752934,5.797000000005937
-0.5671,0.9184,-0.107,0.4388,0.3377,-0.0135,-0.77,-1.7938,-6.3088,-6.46407124620344,-31.32356289525647,-0.550174765381976,5.804000000011001
-0.5671,0.9184,-0.107,0.4366,0.3398,-0.0096,-0.77,-1.7938,-6.3088,-6.465923776321043,-31.410830162262645,-0.5524846818472813,5.811000000001513
-0.5465,0.9063,-0.1025,0.4366,0.3398,-0.0096,-0.21,-1.2075,-5.4862,-6.461188674129835,-31.392172250709258,-0.5504746748220044,5.819000000003143
-0.5633,0.9151,-0.1047,0.4366,0.3398,-0.0096,-0.4462,-0.77,-5.4163,-6.476905294747366,-31.397789244801228,-0.544313420961515,5.828000000008615
-0.5633,0.9151,-0.1047,0.4388,0.3361,-0.0065,-0.4462,-0.77,-5.4163,-6.488870946716818,-31.40284866544153,-0.5388092495659684,5.8360000000102445
-0.5452,0.9114,-0.1057,0.4388,0.3361,-0.0065,-0.245,-1.5313,-5.8975,-6.531847184977067,-31.217941220081656,-0.5393951850573597,5.844000000011874
-0.5602,0.9111,-0.1087,0.4388,0.3361,-0.0065,-0.245,-1.5313,-5.8975,-6.624183743392888,-31.268661075207575,-0.5399808275802274,5.852000000006228
-0.5602,0.9111,-0.1087,0.4398,0.3366,-0.0164,-0.6825,-2.45,-5.9938,-6.637037915896647,-31.312200595957556,-0.5479121024766491,5.860000000000582
-0.5517,0.911,-0.0976,0.4398,0.3366,-0.0164,-0.4462,-1.925,-6.0813,-6.5124612021429895,-31.220191638838706,-0.5506406704166635,5.86600000000908
-0.5627,0.9148,-0.1057,0.4398,0.3366,-0.0164,-0.4462,-1.925,-6.0813,-6.531200252364644,-31.293870340767914,-0.5543687153982708,5.87400000001071
-0.5627,0.9148,-0.1057,0.4404,0.3379,-0.0125,-0.7,-1.085,-5.8888,-6.534566769659592,-31.32918870696606,-0.551378256356019,5.88200000001234
-0.5531,0.9158,-0.0989,0.4404,0.3379,-0.0125,-0.7,-1.085,-5.8888,-6.513678184621212,-31.237174048905825,-0.5480501332114207,5.89100000000326
-0.5566,0.9061,-0.1075,0.4404,0.3379,-0.0125,-0.5688,-1.2687,-5.9412,-6.554115329637925,-31.280012435109622,-0.5465316986605615,5.899000000004889
-0.5566,0.9061,-0.1075,0.4387,0.3361,-0.0153,-0.28,-0.7437,-5.8538,-6.622791677747529,-31.305485207506564,-0.5414964120142359,5.9060000000026776
-0.5547,0.9144,-0.1041,0.4387,0.3361,-0.0153,-0.28,-0.7437,-5.8538,-6.58132664413908,-31.2495864780858,-0.5364636430062838,5.913000000007742
-0.5519,0.9101,-0.1071,0.4387,0.3361,-0.0153,0.0613,-1.5137,-5.81,-6.640088148926851,-31.20747190252115,-0.5369100217002764,5.9210000000020955
-0.5519,0.9101,-0.1071,0.4386,0.3371,-0.015,0.0613,-1.5137,-5.81,-6.672357349756169,-31.174659483645616,-0.537445503519765,5.930000000000291
-0.5592,0.916,-0.1007,0.4386,0.3371,-0.015,-1.0237,-1.925,-6.1337,-6.589065076901344,-31.20327404708257,-0.5406797254220393,5.937000000005355
-0.5542,0.9125,-0.1042,0.4386,0.3371,-0.015,-0.7788,-1.9162,-5.7838,-6.5876657920699655,-31.18370786446338,-0.5443423860761296,5.945000000006985
-0.5542,0.9125,-0.1042,0.4389,0.3382,-0.0209,-0.7788,-1.9162,-5.7838,-6.586292762313589,-31.16814573893262,-0.5475115903370812,5.952000000012049
-0.5574,0.9143,-0.0991,0.4389,0.3382,-0.0209,-1.1375,-1.3913,-5.8625,-6.476547333836163,-31.181167132615446,-0.5469737346580991,5.960000000006403
-0.5553,0.9099,-0.1039,0.4389,0.3382,-0.0209,-1.1375,-1.3913,-5.8625,-6.486898740575462,-31.19354502110045,-0.5464691603923431,5.967000000004191
-0.5553,0.9099,-0.1052,0.438,0.3367,-0.0075,-0.6737,-1.33,-5.7312,-6.495464332641936,-31.199105281328492,-0.5455359529631695,5.974000000009255
-0.555,0.9129,-0.1052,0.438,0.3367,-0.0075,-0.9538,-2.0213,-5.88,-6.508167523913539,-31.18108795370796,-0.5494398925868681,5.981000000007043
-0.5511,0.9131,-0.1046,0.438,0.3367,-0.0075,-0.9538,-2.0213,-5.88,-6.512532907169402,-31.120219890976806,-0.5539385527532058,5.989000000001397
-0.5511,0.9131,-0.1048,0.4384,0.3367,-0.0157,-0.9363,-2.2138,-6.0287,-6.517767926718449,-31.062446296947364,-0.5591851173323252,5.996000000006461
-0.5558,0.9112,-0.1048,0.4384,0.3367,-0.0157,-0.9363,-2.2138,-5.7663,-6.524248625701612,-31.09187748567701,-0.5660072111527352,6.005000000004657
-0.5523,0.9099,-0.101,0.4384,0.3367,-0.0157,-0.315,-1.785,-5.7663,-6.465680531083845,-31.093822051008633,-0.5682476422004844,6.012000000009721
-0.5523,0.9119,-0.1023,0.4379,0.3372,-0.0157,-1.19,-1.4875,-5.7488,-6.446181947518576,-31.08458266397662,-0.5684054942802851,6.019000000000233
-0.5545,0.9119,-0.1023,0.4379,0.3372,-0.0157,-1.19,-1.4875,-5.7488,-6.432549644047559,-31.09534316332207,-0.568752685678733,6.029000000009546
-0.5564,0.9143,-0.1055,0.4379,0.3372,-0.0157,-1.295,-1.435,-5.3463,-6.484722260862047,-31.104408043828585,-0.5685429689873701,6.036000000007334
-0.5553,0.9149,-0.1067,0.439,0.3376,-0.0155,-0.6913,-1.8813,-5.9062,-6.495431944245624,-31.098881667189804,-0.5723693801325522,6.04500000000553
-0.5553,0.9149,-0.1067,0.439,0.3376,-0.0155,-0.6913,-1.8813,-5.9062,-6.5054561897688155,-31.094876161162183,-0.575280393046299,6.052000000010594
-0.556,0.9127,-0.1078,0.439,0.3376,-0.0155,-0.875,-1.6975,-6.1687,-6.529300145560118,-31.125406711814588,-0.5769039937506719,6.059000000008382
-0.5549,0.9107,-0.1041,0.4374,0.3377,-0.0058,-0.875,-1.6975,-6.1687,-6.5284464570150105,-31.150443447865243,-0.578799817068255,6.067000000002736
-0.5549,0.9107,-0.1041,0.4374,0.3377,-0.0058,-0.875,-1.2862,-5.9675,-6.527681038108982,-31.162374588984207,-0.5774059376754959,6.075000000004366
-0.5569,0.9088,-0.1015,0.4374,0.3377,-0.0058,-0.2187,-1.4175,-6.0375,-6.473277365850633,-31.222917849339908,-0.5770694556081236,6.08200000000943
-0.5539,0.9119,-0.1046,0.4385,0.3372,-0.0093,-0.2187,-1.4175,-6.0375,-6.497945926968578,-31.184439379437187,-0.5767263161963085,6.0900000000110595
-0.5539,0.9119,-0.1046,0.4385,0.3372,-0.0093,-0.4812,-1.75,-5.7925,-6.507878501820889,-31.168618062665598,-0.5790420183547409,6.098000000012689
-0.5552,0.9151,-0.105,0.4385,0.3372,-0.0093,-0.4812,-1.75,-5.7925,-6.516090994512611,-31.14993008831057,-0.5813565626597257,6.106000000007043
-0.553,0.9142,-0.1017,0.4388,0.3371,-0.019,-0.2625,-1.8288,-6.1075,-6.460191610722105,-31.099956983654856,-0.5843000344921133,6.114000000001397
-0.553,0.9142,-0.1017,0.4388,0.3371,-0.019,-0.6737,-0.9887,-5.6788,-6.451290146950813,-31.088588935504436,-0.5809600061741623,6.121000000006461
-0.5544,0.9105,-0.1049,0.4388,0.3371,-0.019,-0.6737,-0.9887,-5.6788,-6.460858873611033,-31.099286376045683,-0.5776216478703704,6.128000000011525
-0.5543,0.9091,-0.1039,0.4392,0.3379,-0.0119,-0.7262,-1.1638,-5.6962,-6.462773999381597,-31.11486369940584,-0.5752496471639055,6.136000000005879
-0.5543,0.9091,-0.1039,0.4392,0.3379,-0.0119,-0.7262,-1.1638,-5.6962,-6.464627087469167,-31.128181122631695,-0.5728788324558991,6.144000000007509
-0.5567,0.913,-0.0987,0.4392,0.3379,-0.0119,-0.7962,-1.5225,-6.125,-6.454246122485685,-31.16439953378828,-0.5732792464409541,6.151000000005297
-0.5552,0.9132,-0.106,0.437,0.3374,-0.0257,-0.9975,-2.0563,-6.1687,-6.486283903587858,-31.150359825072307,-0.5786775019516898,6.160000000010768
-0.5552,0.9132,-0.106,0.437,0.3374,-0.0257,-0.9975,-2.0563,-6.1687,-6.512166284982091,-31.14181046965716,-0.5834414033131475,6.168000000005122
-0.5578,0.9144,-0.1079,0.437,0.3374,-0.0257,-0.9187,-1.6275,-6.0287,-6.542030724104882,-31.16396552300181,-0.5845711685125418,6.17500000000291
-0.5552,0.9129,-0.1083,0.4388,0.3379,-0.0042,-0.9187,-1.6275,-6.0287,-6.572697746784026,-31.152383894129162,-0.5859034382446164,6.18300000000454
-0.5552,0.9129,-0.1083,0.4388,0.3379,-0.0042,-0.98,-0.9363,-5.74,-6.607515266293665,-31.148326502052075,-0.5817082066406992,6.19100000000617
-0.5522,0.9142,-0.1016,0.4388,0.3379,-0.0042,-0.7,-0.9625,-5.6875,-6.59253785697058,-31.124656283397375,-0.5781861659365414,6.198000000011234
-0.5533,0.9126,-0.1039,0.4378,0.3362,-0.0156,-0.7,-0.9625,-5.6875,-6.58705540509227,-31.11633973757742,-0.572819493913718,6.209000000009837
-0.5533,0.9126,-0.1039,0.4378,0.3362,-0.0156,-1.2687,-1.4438,-5.4687,-6.556066834081814,-31.11351687077589,-0.5726693130182181,6.216000000007625
-0.5541,0.911,-0.1018,0.4378,0.3362,-0.0156,-1.2687,-1.4438,-5.915,-6.4953553256233825,-31.124205907213486,-0.572519207213166,6.223000000005413
-0.5533,0.9106,-0.1042,0.4401,0.3389,-0.0093,-0.9975,-1.6363,-5.915,-6.501620526999203,-31.122642214217223,-0.5741397327396771,6.232000000003609
-0.5533,0.9106,-0.1042,0.4401,0.3389,-0.0093,-0.98,-1.54,-6.4225,-6.506376796251561,-31.120740109355214,-0.5745463418604486,6.238000000004831
-0.5551,0.9112,-0.1053,0.4401,0.3389,-0.0093,-0.98,-1.54,-6.4225,-6.5218298689515395,-31.14923325464376,-0.5751839740057069,6.246000000006461
-0.5554,0.9131,-0.0999,0.4386,0.3351,-0.0109,-1.05,-1.54,-5.9237,-6.459263158541454,-31.152076725556224,-0.5757056741699482,6.253000000004249
-0.5554,0.9131,-0.0999,0.4386,0.3351,-0.0109,-0.5425,-1.6712,-5.8975,-6.420810611703023,-31.154013937788783,-0.577885296978366,6.263000000006286
-0.5542,0.9144,-0.105,0.4386,0.3351,-0.0109,-0.5425,-1.6712,-5.8975,-6.443959492314275,-31.126718465091933,-0.579570334846279,6.271000000007916
-0.5553,0.9138,-0.1035,0.4402,0.3362,-0.0162,-1.0412,-1.8112,-6.1863,-6.44791602842902,-31.12582886501347,-0.5819872926295006,6.278000000005704
-0.5553,0.9138,-0.1035,0.4402,0.3362,-0.0162,-1.0412,-1.8112,-6.1863,-6.451003401189491,-31.1252928951627,-0.584789719499816,6.286000000007334
-0.5543,0.9099,-0.1047,0.4402,0.3362,-0.0162,-0.6913,-1.9512,-6.3,-6.458236554752967,-31.150065854352587,-0.5887101851569244,6.294000000008964
-0.5561,0.9109,-0.104,0.4374,0.3369,-0.0081,-1.05,-1.5225,-6.1863,-6.47065176445473,-31.185457210614945,-0.5891026834656289,6.301000000006752
-0.5561,0.9109,-0.104,0.4374,0.3369,-0.0081,-1.05,-1.5225,-6.1863,-6.480273556303403,-31.206779937977274,-0.5895931074400561,6.309000000008382
-0.5544,0.9124,-0.1019,0.4374,0.3369,-0.0081,-1.085,-1.5137,-5.9588,-6.45383930551851,-31.182603389172957,-0.5899235950876386,6.31600000000617
-0.5549,0.9117,-0.1059,0.4383,0.3363,-0.0104,-1.085,-1.5137,-5.9588,-6.495999027062978,-31.174648168944536,-0.5902539174913972,6.323000000003958
-0.5549,0.9117,-0.1059,0.4383,0.3363,-0.0104,-0.9975,-1.7413,-5.7663,-6.5208978106280115,-31.171088888264002,-0.5921764781334509,6.330000000001746
-0.5552,0.9138,-0.1077,0.4383,0.3363,-0.0104,-0.6562,-1.96,-5.845,-6.539741199734787,-31.155518007213047,-0.5961636152112568,6.338000000003376
-0.5536,0.9112,-0.1067,0.4373,0.3358,-0.0114,-0.6562,-1.96,-5.845,-6.5527836364470975,-31.14402380659185,-0.5996133555578625,6.34500000000844
-0.5536,0.9112,-0.1067,0.4373,0.3358,-0.0114,-1.3737,-1.4525,-5.7663,-6.600733259085274,-31.137043630207923,-0.5995106472815214,6.352000000006228
-0.5525,0.911,-0.1038,0.4373,0.3358,-0.0114,-1.3737,-1.4525,-5.7663,-6.5625214178919595,-31.124506282513224,-0.5994361472739266,6.360000000007858
-0.5506,0.9112,-0.1013,0.4391,0.3354,-0.0166,-0.9187,-1.1638,-5.9412,-6.532490430493537,-31.08427809982068,-0.5975740367869713,6.36600000000908
-0.5506,0.9112,-0.1013,0.4391,0.3354,-0.0166,-0.455,-1.715,-6.1075,-6.488389255823279,-31.048629414919066,-0.5998899807485536,6.375000000007276
-0.5541,0.9138,-0.1057,0.4391,0.3354,-0.0166,-0.455,-1.715,-6.1075,-6.514016086468463,-31.053826882254626,-0.6016237154090368,6.382000000005064
-0.5556,0.912,-0.1052,0.4387,0.3371,-0.0166,-0.3237,-1.7413,-5.9237,-6.534060725967833,-31.09032694902395,-0.6044910286969777,6.392000000007101
-0.5556,0.912,-0.1052,0.4387,0.3371,-0.0166,-0.3237,-1.7413,-5.9237,-6.548019602426504,-31.116450766221494,-0.6067232832968404,6.400000000001455
-0.5527,0.9132,-0.1041,0.4387,0.3381,-0.0086,-0.8138,-2.1175,-6.055,-6.545725853429254,-31.08315994663125,-0.6112696925602006,6.407000000006519
-0.5557,0.9138,-0.1025,0.437,0.3381,-0.0086,-0.875,-1.3913,-5.6438,-6.53066390788507,-31.089738977059017,-0.6107329703152534,6.414000000011583
-0.5557,0.9138,-0.1025,0.437,0.3381,-0.0086,-0.875,-1.3913,-5.6438,-6.517159336519862,-31.095627332800134,-0.6101635039462823,6.422000000005937
-0.553,0.9131,-0.1069,0.437,0.337,-0.0115,-0.9887,-1.4175,-5.7663,-6.5470254019138805,-31.08250621823622,-0.6098106430958243,6.429000000003725
-0.5535,0.9132,-0.1052,0.4382,0.337,-0.0115,-0.9887,-1.4175,-5.6262,-6.551579801999755,-31.079861221410674,-0.6094579586757419,6.436000000008789
-0.5535,0.9132,-0.1052,0.4382,0.337,-0.0115,-0.6388,-1.3212,-5.6262,-6.55372438518535,-31.077456011943006,-0.6083286102122362,6.444000000010419
-0.5555,0.9102,-0.1081,0.4375,0.3378,-0.0186,-0.77,-1.6363,-5.67,-6.555964761965431,-31.09506743570845,-0.6095075010066199,6.451000000000931
-0.5539,0.9127,-0.1073,0.4375,0.3378,-0.0186,-0.77,-1.6363,-5.67,-6.557488426891837,-31.093003660175555,-0.6108976673724619,6.459000000002561
-0.5539,0.9127,-0.1019,0.4375,0.3378,-0.0186,-0.175,-1.6712,-5.7575,-6.4885000454518265,-31.09348664563248,-0.6125661990551777,6.467000000004191
-0.5549,0.9122,-0.1019,0.4344,0.339,-0.0162,-0.175,-1.5838,-5.88,-6.446243145500078,-31.10956008129328,-0.6136944373358625,6.4760000000023865
-0.5562,0.9132,-0.1013,0.4344,0.339,-0.0162,-0.4638,-1.5838,-5.88,-6.4196707441481395,-31.130250211367855,-0.6145033289695018,6.483000000007451
