AcclX,AcclY,AcclZ,MagX,MagY,MagZ,GyroX,GyroY,GyroZ,Roll,Pitch,Yaw,Time Elapsed(s)
-0.5298,0.9196,-0.1508,0.3261,0.2592,0.1142,-1.0588,-1.5575,-6.3,0,0,0,0.00399999999353895
-0.5298,0.9196,-0.1508,0.3258,0.2618,0.1152,-1.0588,-1.5575,-6.3,0,0,0,0.010000000002037268
-0.5317,0.918,-0.1535,0.3258,0.2618,0.1152,-0.6737,-1.5137,-6.23,0,0,0,0.016999999999825377
-0.5345,0.9209,-0.1517,0.3258,0.2618,0.1152,-1.19,-1.4,-5.985,0,0,0,0.023999999997613486
-0.5345,0.9209,-0.1517,0.3245,0.2614,0.1127,-1.19,-1.4,-5.985,0,0,0,0.029999999998835847
-0.5305,0.9215,-0.1486,0.3245,0.2614,0.1127,-0.98,-1.68,-6.0025,0,0,0,0.03700000000389991
-0.5319,0.9209,-0.1531,0.3245,0.2614,0.1127,-0.98,-1.68,-6.0025,0,0,0,0.04299999999784632
-0.5319,0.9209,-0.1531,0.3259,0.2606,0.1234,-0.6562,-1.4875,-6.23,0,0,0,0.049999999995634425
-0.5312,0.9202,-0.1545,0.3259,0.2606,0.1234,-0.2975,-1.4787,-5.8538,0,0,0,0.056000000004132744
-0.5327,0.9194,-0.1524,0.3259,0.2606,0.1234,-0.2975,-1.4787,-5.8538,0,0,0,0.0629999999946449
-0.5327,0.9194,-0.1524,0.3252,0.2622,0.1196,-0.6212,-1.4262,-5.9325,0,0,0,0.06999999999970896
-0.5298,0.9179,-0.1493,0.3252,0.2622,0.1196,-0.6212,-1.4262,-5.9325,0,0,0,0.07600000000093132
-0.5297,0.9188,-0.1525,0.3252,0.2622,0.1196,-0.8225,-1.5313,-5.88,0,0,0,0.08299999999871943
-0.5297,0.9188,-0.1525,0.3247,0.2606,0.1186,-0.7175,-1.5662,-6.09,0,0,0,0.08899999999994179
-0.5308,0.9216,-0.1531,0.3247,0.2606,0.1186,-0.7175,-1.5662,-6.09,0,0,0,0.09600000000500586
-0.5308,0.9212,-0.1482,0.3247,0.2606,0.1186,-0.1663,-1.785,-6.1863,0,0,0,0.10199999999895226
-0.5308,0.9212,-0.1482,0.3262,0.2602,0.1113,-0.1663,-1.785,-5.915,0,0,0,0.10899999999674037
-0.5286,0.9194,-0.1528,0.3262,0.2602,0.1113,-0.595,-1.4875,-5.915,0,0,0,0.11500000000523869
-0.5298,0.9197,-0.1534,0.3262,0.2602,0.1113,-0.4462,-1.085,-5.6875,0,0,0,0.12199999999575084
-0.5298,0.9197,-0.1534,0.3257,0.2604,0.1159,-0.4462,-1.085,-5.6875,0,0,0,0.1290000000008149
-0.5324,0.9207,-0.1493,0.3257,0.2604,0.1159,-0.9625,-1.6013,-5.5475,0,0,0,0.13500000000203727
-0.5295,0.9193,-0.1502,0.3257,0.2604,0.1159,-0.77,-1.5225,-5.5912,0,0,0,0.14199999999982538
-0.5295,0.9193,-0.1502,0.3258,0.2624,0.1178,-0.77,-1.5225,-5.5912,0,0,0,0.14800000000104774
-0.5297,0.9194,-0.1541,0.3258,0.2624,0.1178,-0.2362,-1.2337,-5.9675,0,0,0,0.15499999999883585
-0.5318,0.9225,-0.152,0.3258,0.2624,0.1178,-0.2362,-1.2337,-5.9675,0,0,0,0.1610000000000582
-0.5318,0.9225,-0.152,0.3242,0.2624,0.1158,-0.4375,-1.5925,-6.1075,0,0,0,0.16799999999784632
-0.532,0.9215,-0.1491,0.3242,0.2624,0.1158,-1.225,-1.1287,-5.8187,0,0,0,0.17500000000291038
-0.5302,0.9195,-0.1535,0.3242,0.2624,0.1158,-1.225,-1.1287,-5.8187,0,0,0,0.1809999999968568
-0.5302,0.9195,-0.1535,0.324,0.2618,0.1182,-0.7788,-1.5662,-5.9325,0,0,0,0.18800000000192085
-0.5319,0.9201,-0.1502,0.324,0.2618,0.1182,-0.7788,-1.5662,-5.9325,0,0,0,0.1940000000031432
-0.5301,0.9206,-0.1509,0.324,0.2618,0.1182,-0.7962,-1.3038,-6.3175,0,0,0,0.20099999999365536
-0.5301,0.9206,-0.1509,0.3254,0.2602,0.1186,-0.7088,-1.4612,-6.23,0,0,0,0.20700000000215368
-0.5291,0.9209,-0.1515,0.3254,0.2602,0.1186,-0.7088,-1.4612,-6.23,0,0,0,0.2139999999999418
-0.5278,0.9213,-0.1523,0.3254,0.2602,0.1186,-0.8138,-1.6975,-6.2213,0,0,0,0.2209999999977299
-0.5278,0.9213,-0.154,0.3256,0.2608,0.1114,-0.8138,-1.6975,-6.2213,0,0,0,0.22699999999895226
-0.5294,0.9201,-0.154,0.3256,0.2608,0.1114,-0.7613,-0.7875,-5.7838,0,0,0,0.23400000000401633
-0.53,0.9203,-0.1511,0.3256,0.2608,0.1114,-0.9625,-1.1988,-6.0375,0,0,0,0.23999999999796273
-0.53,0.9203,-0.1509,0.3256,0.2606,0.1146,-0.9625,-1.1988,-6.0375,0,0,0,0.24699999999575084
-0.5288,0.9185,-0.1509,0.3256,0.2606,0.1146,-0.42,-1.5575,-6.6238,0,0,0,0.25300000000424916
-0.533,0.9207,-0.153,0.3256,0.2606,0.1146,-0.42,-1.5575,-6.6238,0,0,0,0.2599999999947613
-0.533,0.9223,-0.1499,0.3255,0.2614,0.1254,-0.6913,-1.365,-6.1863,0,0,0,0.26599999999598367
-0.5319,0.9223,-0.1499,0.3255,0.2614,0.1254,-0.8313,-1.2687,-6.4138,0,0,0,0.27300000000104774
-0.5312,0.9205,-0.1498,0.3255,0.2614,0.1254,-0.8313,-1.2687,-6.4138,0,0,0,0.27999999999883585
-0.5156,0.9179,-0.1544,0.3246,0.2614,0.1183,-0.6913,-1.6538,-6.3787,0,0,0,0.2860000000000582
-0.5308,0.9179,-0.1544,0.3246,0.2614,0.1183,-0.6913,-1.6538,-6.3,0,0,0,0.2929999999978463
-0.5322,0.9209,-0.1538,0.3246,0.2614,0.1183,-1.0237,-1.6888,-6.3,0,0,0,0.2989999999990687
-0.5286,0.9221,-0.1527,0.3252,0.2618,0.1123,-0.63,-1.8375,-6.2387,0,0,0,0.3059999999968568
-0.5286,0.9221,-0.1527,0.3252,0.2618,0.1123,-0.63,-1.8375,-6.2387,0,0,0,0.31199999999807915
-0.53,0.921,-0.151,0.3252,0.2618,0.1123,-1.155,-1.8112,-6.0287,0,0,0,0.31899999999586726
-0.5319,0.9198,-0.1534,0.3261,0.2603,0.1175,-1.155,-1.295,-5.9763,0,0,0,0.3260000000009313
-0.5319,0.9198,-0.1534,0.3261,0.2603,0.1175,-1.295,-1.295,-5.9763,0,0,0,0.3320000000021537
-0.5304,0.9196,-0.1516,0.3261,0.2603,0.1175,-1.0938,-0.9363,-6.055,0,0,0,0.33899999999266583
-0.5296,0.9199,-0.1478,0.3257,0.2618,0.12,-1.0938,-0.9363,-6.055,0,0,0,0.34500000000116415
-0.5296,0.9199,-0.1478,0.3257,0.2618,0.12,-0.8487,-1.0063,-6.3525,0,0,0,0.35199999999895226
-0.5298,0.9215,-0.1508,0.3257,0.2618,0.12,-0.6562,-1.3825,-6.0113,0,0,0,0.35799999999289867
-0.5292,0.9224,-0.1529,0.3259,0.2611,0.1206,-0.6562,-1.3825,-6.0113,0,0,0,0.36499999999796273
-0.5292,0.9224,-0.1529,0.3259,0.2611,0.1206,-0.9275,-1.47,-5.8187,0,0,0,0.3709999999991851
-0.5317,0.9201,-0.1534,0.3259,0.2611,0.1206,-0.9275,-1.47,-5.8187,0,0,0,0.3779999999969732
-0.5316,0.9215,-0.1484,0.3254,0.2618,0.1208,-0.9538,-1.5225,-5.7838,0,0,0,0.3849999999947613
-0.5316,0.9215,-0.1484,0.3254,0.2618,0.1208,-1.1025,-1.505,-5.8275,0,0,0,0.39100000000325963
-0.5312,0.9205,-0.156,0.3254,0.2618,0.1208,-1.1025,-1.505,-5.8275,0,0,0,0.39800000000104774
-0.5319,0.9196,-0.1549,0.3246,0.2616,0.1154,-0.6388,-1.61,-6.125,0,0,0,0.4040000000022701
-0.5319,0.9196,-0.1549,0.3246,0.2616,0.1154,-0.6388,-1.61,-6.125,0,0,0,0.4110000000000582
-0.5296,0.923,-0.1521,0.3246,0.2616,0.1154,-0.9538,-1.6538,-5.5825,0,0,0,0.4169999999940046
-0.5307,0.9213,-0.15,0.3262,0.2608,0.126,-0.8225,-1.8725,-6.0988,0,0,0,0.4239999999990687
-0.5307,0.9213,-0.15,0.3262,0.2608,0.126,-0.8225,-1.8725,-6.0988,0,0,0,0.43100000000413274
-0.53,0.919,-0.1517,0.3262,0.2608,0.126,-0.8313,-1.47,-6.3175,0,0,0,0.43800000000192085
-0.5337,0.9202,-0.156,0.3258,0.2617,0.1244,-0.8313,-1.47,-6.3175,0,0,0,0.44399999999586726
-0.5337,0.9202,-0.156,0.3258,0.2617,0.1244,-0.6913,-1.2075,-5.9237,0,0,0,0.4500000000043656
-0.5339,0.9199,-0.1533,0.3258,0.2617,0.1244,-0.8225,-1.5925,-6.3787,0,0,0,0.4569999999948777
-0.5294,0.918,-0.1532,0.3261,0.2604,0.1225,-0.8225,-1.5925,-6.3787,0,0,0,0.4629999999961001
-0.5294,0.918,-0.1532,0.3261,0.2604,0.1225,-0.63,-1.3913,-6.125,0,0,0,0.47000000000116415
-0.5304,0.9194,-0.1515,0.3261,0.2604,0.1225,-0.63,-1.3913,-6.125,0,0,0,0.47599999999511056
-0.531,0.9185,-0.1509,0.3247,0.2602,0.1218,-0.525,-1.4612,-6.0375,0,0,0,0.4830000000001746
-0.531,0.9185,-0.1509,0.3247,0.2602,0.1218,-0.945,-1.3825,-5.8275,0,0,0,0.48999999999796273
-0.5284,0.9216,-0.1506,0.3247,0.2602,0.1218,-0.945,-1.3825,-5.8275,0,0,0,0.4959999999991851
-0.5311,0.9201,-0.1472,0.3249,0.2614,0.1174,-0.9887,-1.7325,-5.9588,0,0,0,0.5029999999969732
-0.5311,0.9201,-0.1472,0.3249,0.2614,0.1174,-0.9887,-1.7325,-5.9938,0,0,0,0.5089999999981956
-0.5304,0.9191,-0.1543,0.3249,0.2614,0.1174,-0.6037,-1.68,-5.9938,0,0,0,0.5160000000032596
-0.5311,0.9216,-0.1506,0.3262,0.2638,0.123,-0.9187,-1.575,-5.7925,0,0,0,0.521999999997206
-0.5311,0.9216,-0.1506,0.3262,0.2638,0.123,-0.9187,-1.575,-5.7925,0,0,0,0.5290000000022701
-0.5294,0.9199,-0.148,0.3262,0.2638,0.123,-0.5075,-1.5225,-6.0462,0,0,0,0.5349999999962165
-0.529,0.9198,-0.1534,0.3241,0.2601,0.125,-0.7088,-1.4963,-6.2913,0,0,0,0.5420000000012806
-0.529,0.9198,-0.1534,0.3241,0.2601,0.125,-0.7088,-1.4963,-6.2913,0,0,0,0.5489999999990687
-0.5328,0.9194,-0.1546,0.3241,0.2601,0.125,-0.8925,-1.6975,-6.545,0,0,0,0.5549999999930151
-0.5311,0.9224,-0.15,0.3256,0.2602,0.1239,-0.8925,-1.6975,-6.545,0,0,0,0.5619999999980791
-0.5311,0.9224,-0.15,0.3256,0.2602,0.1239,-0.7525,-1.2775,-5.8713,0,0,0,0.5679999999993015
-0.5314,0.9212,-0.152,0.3256,0.2602,0.1192,-1.1638,-1.2775,-5.7925,0,0,0,0.5749999999970896
-0.5281,0.92,-0.1526,0.3251,0.2614,0.1192,-1.1638,-1.2775,-5.7925,0,0,0,0.580999999998312
-0.5281,0.92,-0.1526,0.3251,0.2614,0.1192,-0.91,-1.3212,-6.02,0,0,0,0.588000000003376
-0.531,0.9185,-0.1551,0.3251,0.2606,0.1175,-0.91,-1.3212,-6.02,0,0,0,0.5950000000011642
-0.5315,0.9192,-0.1504,0.3262,0.2606,0.1175,-0.6388,-1.33,-5.9675,0,0,0,0.6009999999951106
-0.5315,0.9192,-0.1504,0.3262,0.2606,0.1175,-0.6475,-1.5488,-6.0813,0,0,0,0.6080000000001746
-0.5289,0.9191,-0.1504,0.3262,0.2618,0.1234,-0.6475,-1.5488,-6.0813,0,0,0,0.614000000001397
-0.5264,0.9198,-0.1507,0.3258,0.2618,0.1234,-1.0237,-1.6013,-6.1687,0,0,0,0.6209999999991851
-0.5264,0.9198,-0.1507,0.3258,0.2618,0.1234,-1.0237,-1.6013,-6.1687,0,0,0,0.6270000000004075
-0.5307,0.9209,-0.1501,0.3254,0.2616,0.1148,-0.7962,-1.6013,-6.125,0,0,0,0.6340000000054715
-0.5284,0.9204,-0.1477,0.3254,0.2616,0.1148,-1.26,-1.6712,-6.1775,0,0,0,0.6399999999994179
-0.5284,0.9204,-0.1493,0.3254,0.2616,0.1148,-1.26,-1.6712,-6.1775,0,0,0,0.646999999997206
-0.5314,0.9191,-0.1493,0.3262,0.2613,0.118,-1.0762,-1.365,-5.705,0,0,0,0.6540000000022701
-0.5305,0.9185,-0.1484,0.3262,0.2613,0.118,-1.0762,-1.365,-5.705,-2.299812843873883,-0.48036624283487017,0.0,0.6599999999962165
-0.5305,0.9185,-0.1508,0.3262,0.2613,0.118,-0.4988,-1.365,-5.9763,-3.67307445217233,-7.005126232040573,0.00016590100812002192,0.6670000000012806
-0.53,0.921,-0.1508,0.3258,0.2605,0.113,-0.6737,-1.4963,-5.9325,-4.03190393916749,-11.434588362321199,-0.0004793871777330669,0.672999999995227
-0.5298,0.9195,-0.1506,0.3258,0.2605,0.113,-0.6737,-1.4963,-5.9325,-4.36802254021047,-15.00141387661212,-0.002092160574864015,0.6880000000019209
-0.5298,0.9178,-0.1538,0.3258,0.2605,0.113,-0.42,-1.6975,-6.3263,-5.620666337509268,-20.706948918521764,-0.005177450552959743,0.6979999999966822
-0.5325,0.9178,-0.1538,0.3256,0.2613,0.1134,-0.42,-1.6975,-5.9588,-6.568325828486389,-22.63697892938017,-0.007026663466306128,0.7040000000051805
-0.5302,0.9178,-0.1493,0.3256,0.2613,0.1134,-0.8925,-1.6013,-5.9588,-6.918089800729437,-24.13780731174232,-0.00872300378137327,0.7119999999995343
-0.5343,0.9191,-0.1491,0.3256,0.2613,0.1134,-0.9975,-1.3913,-5.74,-7.385663589585334,-24.417215158377203,-0.008739335927467977,0.7199999999938882
-0.5343,0.9191,-0.1491,0.3256,0.2612,0.1131,-0.9975,-1.3913,-5.74,-7.7580332539766435,-24.682952164720735,-0.00875307320151734,0.7269999999989523
-0.5302,0.9197,-0.1543,0.3256,0.2612,0.1131,-1.4438,-1.6712,-5.6788,-8.486372633636247,-24.730650062261187,-0.011572164225491793,0.7370000000009895
-0.5283,0.9211,-0.1524,0.3256,0.2612,0.1131,-1.0325,-1.7237,-6.055,-8.69094207404424,-26.010685463211736,-0.014914583201625023,0.7469999999957508
-0.5283,0.9211,-0.1524,0.3248,0.261,0.12,-1.0325,-1.7237,-6.055,-8.849440591798178,-26.94744867062261,-0.01725086945371976,0.7540000000008149
-0.5269,0.9202,-0.1538,0.3248,0.261,0.12,-1.1287,-1.7413,-6.195,-9.02772790594365,-27.790780447665338,-0.020061537667567266,0.7620000000024447
-0.533,0.9196,-0.1512,0.3248,0.261,0.12,-1.1287,-1.7413,-6.195,-9.11399813185177,-28.454866904443573,-0.022870800544743716,0.7699999999967986
-0.533,0.9196,-0.1512,0.3254,0.2615,0.121,-0.7875,-1.7938,-5.9588,-9.123737711564937,-28.7338401204567,-0.025288677880966257,0.7759999999980209
-0.5308,0.9187,-0.1499,0.3254,0.2615,0.121,-0.8662,-1.89,-5.5475,-9.139587036274996,-28.852431806099787,-0.02928433239084237,0.7839999999996508
-0.5306,0.9205,-0.1498,0.3254,0.2615,0.121,-0.8662,-1.89,-5.5475,-9.151042685064997,-28.94946004932879,-0.03327798907346355,0.7920000000012806
-0.5306,0.9205,-0.1498,0.3262,0.2615,0.1134,-0.7088,-1.6538,-5.985,-9.153987672699886,-29.106749543407233,-0.035116038270340766,0.7989999999990687
-0.528,0.9186,-0.1521,0.3262,0.2615,0.1134,-0.7088,-1.6538,-5.985,-9.16190535099337,-29.209506496509903,-0.03748307935472749,0.8079999999972642
-0.5297,0.921,-0.1546,0.3262,0.2615,0.1134,-1.0412,-1.785,-6.0113,-9.24645774516945,-29.295492543400098,-0.04102914651833541,0.8169999999954598
-0.5297,0.921,-0.1546,0.3245,0.2599,0.1175,-0.6125,-1.1812,-5.7488,-9.278801588190962,-29.310631057024246,-0.039764182479313626,0.8230000000039581
-0.5277,0.9212,-0.1496,0.3245,0.2599,0.1175,-0.6125,-1.1812,-5.7488,-9.27254062083571,-29.32055150751601,-0.03808503443573593,0.8310000000055879
-0.5308,0.9209,-0.1474,0.3245,0.2599,0.1175,0.035,-1.4612,-5.6613,-9.194340234024931,-29.32919388879602,-0.03857315420983065,0.8379999999961001
-0.5308,0.9209,-0.1474,0.3259,0.2598,0.1168,0.035,-1.4612,-5.6613,-9.150329028213466,-29.337606971506748,-0.03906102992509264,0.8450000000011642
-0.5281,0.9199,-0.1505,0.3259,0.2598,0.1168,-0.4725,-1.8637,-6.265,-9.180292312767191,-29.409348894287916,-0.042839503458903846,0.853000000002794
-0.5317,0.9179,-0.1546,0.3259,0.2598,0.1168,-0.7,-1.8725,-5.9938,-9.19555668351892,-29.48562480670659,-0.047169998660301866,0.8620000000009895
-0.5317,0.9179,-0.1546,0.3251,0.2625,0.123,-0.7,-1.8725,-5.9938,-9.21020819614885,-29.54406281062054,-0.051014782509759805,0.8700000000026193
-0.5313,0.9222,-0.1548,0.3251,0.2625,0.123,-0.4288,-1.645,-5.9675,-9.286162284618506,-29.557152996018928,-0.0532947138220427,0.8790000000008149
-0.5269,0.9212,-0.1509,0.3251,0.2625,0.123,-0.4288,-1.645,-5.9675,-9.290150252427527,-29.53214464083651,-0.055061185456565076,0.885999999998603
-0.5269,0.9212,-0.1509,0.3256,0.2615,0.1181,-0.4988,-2.0912,-5.9675,-9.292641081403069,-29.512590746664028,-0.05994861215939246,0.8930000000036671
-0.5292,0.9185,-0.153,0.3256,0.2615,0.1181,-0.8225,-1.61,-5.9938,-9.304930039940212,-29.53553253441857,-0.06168805670006397,0.9009999999980209
-0.5336,0.9193,-0.147,0.3256,0.2615,0.1181,-0.8225,-1.61,-5.9938,-9.28850719200878,-29.601969105424875,-0.06342663152007441,0.9089999999996508
-0.5336,0.9193,-0.147,0.3244,0.2608,0.117,-0.8838,-1.75,-6.1163,-9.263198156383913,-29.667175913856735,-0.06556156234075579,0.9150000000008731
-0.5308,0.9201,-0.1482,0.3244,0.2608,0.117,-0.8838,-1.75,-5.985,-9.249126782983346,-29.666405892811756,-0.06877874776293381,0.9239999999990687
-0.5294,0.9221,-0.1514,0.3244,0.2608,0.117,-1.0325,-1.5488,-5.985,-9.266039350490567,-29.635952921899253,-0.07002442203731313,0.9320000000006985
-0.5294,0.9221,-0.1514,0.3257,0.2606,0.1178,-0.8138,-1.505,-6.0637,-9.269945801109841,-29.60792852943577,-0.07068678896159086,0.9379999999946449
-0.5284,0.9211,-0.153,0.3257,0.2606,0.1178,-0.8138,-1.505,-6.0637,-9.28076212814684,-29.580086533520703,-0.07169751427090035,0.9469999999928405
-0.5278,0.9189,-0.1508,0.3257,0.2606,0.1178,-0.945,-1.5137,-6.4575,-9.287336453835936,-29.564657255887536,-0.07253614405639752,0.9539999999979045
-0.5278,0.9189,-0.1508,0.3229,0.2618,0.1214,-1.225,-1.4262,-6.1512,-9.297877874184616,-29.558310390921395,-0.07276216077655907,0.9610000000029686
-0.5326,0.9208,-0.148,0.3229,0.2618,0.1214,-1.225,-1.4262,-6.1512,-9.24352826282365,-29.61256733285824,-0.07306300300010318,0.9700000000011642
-0.5336,0.9202,-0.1523,0.3229,0.2618,0.1214,-1.0588,-1.54,-6.0813,-9.280632108082996,-29.65794874872869,-0.07408495799026867,0.9769999999989523
-0.5336,0.9202,-0.1523,0.3246,0.2616,0.1153,-1.0588,-1.54,-6.0813,-9.308805731693045,-29.690532901513613,-0.07510640200293907,0.9839999999967404
-0.5283,0.9207,-0.1533,0.3246,0.2616,0.1153,-1.155,-1.6888,-5.8713,-9.35103410183808,-29.662686410336512,-0.0771684144954565,0.9910000000018044
-0.5306,0.9217,-0.1532,0.3246,0.2616,0.1153,-1.0325,-1.3825,-5.6087,-9.370421232735142,-29.65742674814235,-0.07708015913619864,0.9990000000034343
-0.5306,0.9217,-0.1532,0.3255,0.2611,0.1244,-1.0325,-1.3825,-5.6087,-9.38544220314283,-29.652556036617042,-0.07700436569266814,1.0049999999973807
-0.5298,0.9203,-0.1504,0.3255,0.2611,0.1244,-1.155,-1.6013,-6.1075,-9.355055999847483,-29.63788086464868,-0.07930316227552496,1.0159999999959837
-0.5306,0.9205,-0.1515,0.3255,0.2611,0.1244,-1.155,-1.6013,-6.1075,-9.352468555963524,-29.63557959797578,-0.08075088263746322,1.0230000000010477
-0.5306,0.9205,-0.1515,0.3281,0.2614,0.116,-1.2687,-1.68,-6.0813,-9.35030761423169,-29.634030606623387,-0.08420421546673791,1.0349999999962165
-0.5295,0.9188,-0.1511,0.3281,0.2614,0.116,-0.6212,-1.855,-5.88,-9.349080481799916,-29.632582712780092,-0.08928871677774447,1.0460000000020955
-0.5289,0.9207,-0.1527,0.3281,0.2614,0.116,-0.6212,-1.855,-5.88,-9.35638134692968,-29.617832297370725,-0.0920404015525343,1.0519999999960419
-0.5289,0.9207,-0.1527,0.3257,0.2601,0.1204,-0.9013,-1.9162,-6.23,-9.364705583706636,-29.590768636844537,-0.09515772689223856,1.0580000000045402
-0.5297,0.9207,-0.1552,0.3257,0.2601,0.1204,-0.9013,-1.9162,-6.23,-9.39270058750072,-29.582448872779043,-0.0998551663318411,1.0670000000027358
-0.5316,0.9195,-0.1513,0.3257,0.2601,0.1204,-1.0325,-1.7587,-6.1337,-9.38174572305445,-29.619711354110837,-0.10202405678243656,1.0729999999966822
-0.5316,0.9195,-0.1513,0.3268,0.2617,0.1175,-1.1463,-1.6538,-5.81,-9.370891970508668,-29.628776440184325,-0.10356277749036921,1.0789999999979045
-0.5292,0.9202,-0.1493,0.3268,0.2617,0.1175,-1.1463,-1.6538,-5.81,-9.32622202881106,-29.6237371037131,-0.10563063975005586,1.0869999999995343
-0.5298,0.9207,-0.1549,0.3268,0.2617,0.1175,-1.2513,-1.3212,-5.635,-9.401782940151929,-29.621159904932416,-0.10510547672233009,1.0939999999973224
-0.5298,0.9207,-0.1549,0.3266,0.2616,0.12,-1.2513,-1.3212,-5.635,-9.451840815620134,-29.618713712013502,-0.10464805451988644,1.0999999999985448
-0.5314,0.9221,-0.1527,0.3266,0.2616,0.12,-1.0675,-1.5137,-5.67,-9.439808612650225,-29.61874447748857,-0.10559513454083011,1.1080000000001746
-0.5312,0.9223,-0.1546,0.3266,0.2616,0.12,-0.7613,-1.4963,-5.5738,-9.441258183287024,-29.616580573488495,-0.10629507641610425,1.1150000000052387
-0.5312,0.9223,-0.1546,0.3255,0.2625,0.1178,-0.7613,-1.4963,-5.5738,-9.442680068398813,-29.614639425882007,-0.10699466831887593,1.1219999999957508
-0.5298,0.9195,-0.151,0.3255,0.2625,0.1178,-0.805,-1.6538,-6.0025,-9.43573865877219,-29.616191829217268,-0.10932577009016621,1.1310000000012224
-0.5316,0.9205,-0.1509,0.3255,0.2625,0.1178,-0.805,-1.6538,-6.1775,-9.428258118698663,-29.63683023774092,-0.11112579539653508,1.1379999999990105
-0.5316,0.9205,-0.1493,0.325,0.2603,0.1231,-0.98,-1.6625,-6.1775,-9.386818914377232,-29.652926167443532,-0.1129857902422226,1.1450000000040745
-0.5307,0.9184,-0.1493,0.325,0.2603,0.1231,-0.6388,-1.4612,-5.8975,-9.372501172474712,-29.660877830957194,-0.11350891139469242,1.1529999999984284
-0.529,0.92,-0.1498,0.325,0.2603,0.1231,-0.6388,-1.4612,-5.8975,-9.360880299182961,-29.64621458651639,-0.11395931923083483,1.1599999999962165
-0.529,0.92,-0.1529,0.3252,0.2616,0.1284,-0.8662,-1.5662,-6.16,-9.369196485310082,-29.619477478526058,-0.114966735108727,1.1660000000047148
-0.5295,0.9209,-0.1529,0.3252,0.2616,0.1284,-0.8662,-1.8112,-6.4225,-9.375591034028115,-29.595401231641077,-0.1182874657867884,1.1739999999990687
-0.5306,0.921,-0.1552,0.3252,0.2616,0.1284,-0.315,-1.8112,-6.4225,-9.432308849753397,-29.59779256394944,-0.12118425934496099,1.1809999999968568
-0.5306,0.9191,-0.1505,0.3245,0.2634,0.1205,-0.77,-1.5925,-6.1337,-9.428669733328805,-29.62030468856843,-0.12234578385153749,1.1869999999980791
-0.5318,0.9191,-0.1505,0.3245,0.2634,0.1205,-0.77,-1.5925,-6.1337,-9.425130325560453,-29.653040486208052,-0.1239140998079437,1.194999999999709
-0.5322,0.9198,-0.1526,0.3245,0.2634,0.1205,-0.5512,-1.4787,-6.09,-9.424291528567062,-29.671591576967252,-0.1244817437998408,1.201999999997497
-0.5314,0.9186,-0.1541,0.3255,0.2618,0.1242,-0.7525,-1.3212,-5.7225,-9.425333711188022,-29.672704589099194,-0.12394715522009013,1.2089999999952852
-0.5314,0.9186,-0.1541,0.3255,0.2618,0.1242,-0.7525,-1.3212,-5.7225,-9.426364890098824,-29.673781060412402,-0.12341283393413838,1.2160000000003492
-0.531,0.9215,-0.1541,0.3255,0.2618,0.1242,-0.6212,-1.7763,-5.9237,-9.433599734618511,-29.66190571447577,-0.12722506957796054,1.2260000000023865
-0.5283,0.9201,-0.1519,0.3269,0.2595,0.1162,-0.6212,-1.7763,-5.9237,-9.427232282347632,-29.637159943630582,-0.12987321648431469,1.2330000000001746
-0.5283,0.9201,-0.1519,0.3269,0.2595,0.1162,-0.8662,-1.645,-5.775,-9.42139348420395,-29.628786629750287,-0.1321137185796103,1.2419999999983702
-0.5317,0.92,-0.1532,0.3269,0.2595,0.1162,-0.8575,-1.68,-6.055,-9.424799239564647,-29.644345674441297,-0.13466794292379516,1.2509999999965657
-0.5325,0.9191,-0.1519,0.3255,0.2609,0.1225,-0.8575,-1.68,-6.055,-9.420617461254178,-29.673489775713904,-0.13663860544580764,1.2580000000016298
-0.5325,0.9191,-0.1519,0.3255,0.2609,0.1225,-0.9538,-1.3737,-6.02,-9.414294496862325,-29.693288176329975,-0.13645025019106027,1.2660000000032596
-0.5295,0.9196,-0.1515,0.3255,0.2609,0.1225,-0.9538,-1.3737,-6.02,-9.403957520114464,-29.670674210475227,-0.1362619891139403,1.2740000000048894
-0.5298,0.921,-0.1512,0.3257,0.2609,0.1235,-0.63,-1.0762,-5.8187,-9.395819680335032,-29.66037329196938,-0.13400736791434692,1.2809999999954016
-0.5298,0.921,-0.1512,0.3257,0.2609,0.1235,-0.805,-1.1812,-6.0725,-9.3914958432344,-29.638414995272594,-0.13248850652133942,1.2880000000004657
-0.5316,0.9206,-0.1556,0.3257,0.2609,0.1235,-0.805,-1.1812,-6.0725,-9.40349695621115,-29.64330902512581,-0.13076299631574073,1.2960000000020955
-0.5308,0.9194,-0.1541,0.3256,0.2609,0.1277,-0.9887,-1.3038,-6.335,-9.42554677699069,-29.64859675682429,-0.13018839755347913,1.3020000000033178
-0.5308,0.9194,-0.1541,0.3256,0.2609,0.1277,-0.9887,-1.3038,-6.335,-9.44323090051232,-29.651808362252034,-0.12944434700318158,1.3099999999976717
-0.5309,0.9198,-0.1484,0.3256,0.2609,0.1277,-1.12,-1.4,-5.8362,-9.36690854861457,-29.654848764399702,-0.12945860132165504,1.3169999999954598
-0.5291,0.9182,-0.1509,0.3253,0.2606,0.1243,-0.8225,-1.8025,-5.5475,-9.36435873877745,-29.65090324021425,-0.13228893976508863,1.3240000000005239
-0.5291,0.9182,-0.1509,0.3253,0.2606,0.1243,-0.8225,-1.8025,-5.5475,-9.361999269672497,-29.64744545405543,-0.13553144414388013,1.3320000000021537
-0.5288,0.9196,-0.1542,0.3253,0.2606,0.1243,-0.9625,-1.8288,-5.7225,-9.390362211225348,-29.644516313378883,-0.13898262206732465,1.3399999999965075
-0.53,0.9195,-0.1545,0.3268,0.2609,0.1153,-0.9625,-1.8288,-5.7225,-9.417068244434143,-29.643556464155562,-0.14243207440500788,1.3479999999981374
-0.53,0.9195,-0.1545,0.3268,0.2609,0.1153,-0.7088,-1.61,-6.23,-9.420937674778399,-29.63362407975883,-0.14457263192825598,1.3580000000001746
-0.5307,0.9195,-0.1525,0.3268,0.2609,0.1153,-0.98,-1.2775,-5.9412,-9.420150490147462,-29.638234336483052,-0.14349993806649244,1.3669999999983702
-0.5312,0.9208,-0.1494,0.3254,0.2605,0.1151,-0.98,-1.2775,-5.9412,-9.380869608035754,-29.64243214562322,-0.14242778055165978,1.3759999999965657
-0.5312,0.9208,-0.1494,0.3254,0.2605,0.1151,-0.4462,-1.1113,-5.9062,-9.343237484482435,-29.645402033036948,-0.14013838030893205,1.3839999999981956
-0.5327,0.9195,-0.1541,0.3254,0.2605,0.1151,-0.4462,-1.1113,-5.705,-9.382166407039167,-29.64696932409314,-0.13812739805937346,1.3910000000032596
-0.5295,0.9209,-0.1509,0.3256,0.2609,0.1207,-0.7175,-1.435,-5.705,-9.380354225846677,-29.645743021005163,-0.13842845320808256,1.3989999999976135
-0.5295,0.9209,-0.1509,0.3256,0.2609,0.1207,-1.1812,-1.4438,-5.635,-9.357617077222898,-29.6419524315061,-0.13885478308537919,1.407999999995809
-0.5299,0.9212,-0.1493,0.3256,0.2609,0.1207,-1.1812,-1.4438,-5.635,-9.311320049559267,-29.639246803290163,-0.13917077888611534,1.4150000000008731
-0.5297,0.9196,-0.1537,0.3255,0.2614,0.1236,-0.84,-1.8288,-5.6525,-9.327167041972878,-29.637958661711263,-0.14218026918769935,1.4219999999986612
-0.5297,0.9196,-0.1537,0.3255,0.2614,0.1236,-1.1113,-1.8637,-6.125,-9.370717341983566,-29.627103441968067,-0.1463819336097031,1.4310000000041327
-0.5308,0.9198,-0.1524,0.3255,0.2614,0.1236,-1.1113,-1.8637,-6.125,-9.380712835390613,-29.635194993442106,-0.15105624770041118,1.440999999998894
-0.5329,0.9208,-0.1533,0.3242,0.2611,0.1148,-1.12,-1.3125,-5.8362,-9.400337615565013,-29.646247792626273,-0.15044750231872944,1.4479999999966822
-0.5329,0.9208,-0.1533,0.3242,0.2611,0.1148,-1.12,-1.3125,-5.8362,-9.414577343562772,-29.655878644661676,-0.14968671352170754,1.4569999999948777
-0.5292,0.9202,-0.1499,0.3242,0.2611,0.1148,-0.84,-1.7413,-5.915,-9.400059684442443,-29.64181375229683,-0.15207875210873134,1.4639999999999418
-0.5307,0.9182,-0.153,0.3254,0.2618,0.1278,-0.2887,-1.925,-5.7225,-9.418843916906052,-29.643338029874915,-0.15682689143570977,1.4729999999981374
-0.5307,0.9182,-0.153,0.3254,0.2618,0.1278,-0.2887,-1.925,-5.7225,-9.43177066495362,-29.644812264556723,-0.16103663683886554,1.4809999999997672
-0.5322,0.9201,-0.153,0.3254,0.2618,0.1278,-0.1838,-1.4,-5.6,-9.4351174692818,-29.649972289072114,-0.1610463773684645,1.489000000001397
-0.5305,0.9201,-0.1499,0.3249,0.2613,0.1226,-0.1838,-1.4,-5.6,-9.36994929199659,-29.649380410447844,-0.16106739538375991,1.4979999999995925
-0.5305,0.9201,-0.1499,0.3249,0.2613,0.1226,-0.3762,-1.7413,-6.0813,-9.338682256338162,-29.647495639299496,-0.16415856703943213,1.506999999997788
-0.5319,0.9209,-0.153,0.3249,0.2613,0.1226,-0.5425,-1.365,-6.0813,-9.354368018055975,-29.654825832545523,-0.1638868866038738,1.514999999999418
-0.5294,0.9215,-0.1515,0.325,0.2611,0.1148,-0.5425,-1.365,-6.0813,-9.351355540126363,-29.62480764138539,-0.1636390421526243,1.521999999997206
-0.5294,0.9215,-0.1515,0.325,0.2611,0.1148,-0.4725,-1.645,-6.0988,-9.348148810811018,-29.602573386386172,-0.16560650147996547,1.5299999999988358
-0.5342,0.9227,-0.149,0.325,0.2611,0.1148,-0.4725,-1.645,-6.0988,-9.311003257326186,-29.645484235174084,-0.167572977077643,1.5380000000004657
-0.5308,0.9209,-0.1507,0.3248,0.261,0.1189,-0.7613,-1.4963,-5.9237,-9.310673721659116,-29.642987236550088,-0.1681343958244532,1.543999999994412
-0.5308,0.9209,-0.1507,0.3248,0.261,0.1189,-0.4288,-1.7237,-5.7925,-9.306638899233945,-29.641987377639715,-0.17106371318237296,1.5529999999998836
-0.5294,0.9206,-0.1534,0.3248,0.261,0.1167,-0.4288,-1.7237,-5.7925,-9.34327292192955,-29.63460545023872,-0.17332192486704118,1.5599999999976717
-0.5312,0.9187,-0.1505,0.3257,0.2622,0.1167,-1.2687,-1.155,-5.8713,-9.32953774330311,-29.646129565425042,-0.1716000978954247,1.5670000000027358
-0.5312,0.9187,-0.1505,0.3257,0.2622,0.1167,-1.2687,-1.155,-5.8713,-9.320542105409377,-29.655873098634927,-0.16964553669579593,1.5749999999970896
-0.5292,0.9206,-0.1524,0.3257,0.2613,0.1157,-1.2337,-0.945,-5.8187,-9.34665271925096,-29.644672962830068,-0.1664562829172022,1.5820000000021537
-0.5305,0.9186,-0.1515,0.3255,0.2613,0.1157,-0.8838,-1.365,-6.0462,-9.348957961390669,-29.652661581582528,-0.16620715376779602,1.5889999999999418
-0.5305,0.9186,-0.1515,0.3255,0.2613,0.1157,-0.8838,-1.365,-6.0462,-9.350976613475273,-29.658545755098032,-0.1659344490388735,1.5970000000015716
-0.5336,0.9201,-0.1526,0.325,0.2631,0.116,-0.4025,-1.6888,-6.2038,-9.36767246817838,-29.698080981648957,-0.16795104750569062,1.6039999999993597
-0.5293,0.922,-0.1501,0.325,0.2631,0.116,-0.4025,-1.6888,-6.1425,-9.336981413562128,-29.64769408051712,-0.1708664515403665,1.613999999994121
-0.5293,0.922,-0.1501,0.325,0.2631,0.116,-0.175,-1.8288,-6.1425,-9.304260810826827,-29.613038779847678,-0.1742999619633132,1.6219999999957508
-0.5307,0.9197,-0.1529,0.3258,0.2608,0.117,-0.2362,-1.7062,-5.9675,-9.349538260830569,-29.620999215814123,-0.17675144603084877,1.6299999999973807
-0.5324,0.919,-0.1543,0.3258,0.2608,0.117,-0.2362,-1.7062,-5.9675,-9.410497029250728,-29.647074336706922,-0.17888437510144034,1.6370000000024447
-0.5324,0.919,-0.1504,0.3258,0.2608,0.117,-0.7525,-1.7062,-6.1337,-9.409271371239871,-29.681073938207728,-0.18165089621731703,1.6460000000006403
-0.5311,0.9196,-0.1504,0.3246,0.2607,0.116,-0.4988,-1.4612,-6.2125,-9.385649960708504,-29.681208023558025,-0.18206723306104813,1.6529999999984284
-0.5278,0.9209,-0.1485,0.3246,0.2607,0.116,-0.4988,-1.4612,-6.2125,-9.341608767764697,-29.619694379942285,-0.18255581349263572,1.6610000000000582
-0.5278,0.9206,-0.1558,0.3246,0.2607,0.116,-0.6562,-1.4525,-5.9763,-9.362429224990855,-29.58820424578765,-0.1829745844339933,1.669000000001688
-0.5289,0.9206,-0.1558,0.325,0.2613,0.115,-0.6562,-1.4525,-5.9763,-9.381607468411174,-29.575175290294577,-0.18332938988363529,1.6759999999994761
-0.5319,0.919,-0.1549,0.325,0.2613,0.115,-0.7437,-1.4175,-5.9588,-9.381954502926833,-29.604866620555303,-0.183467914036531,1.68399999999383
-0.5163,0.9208,-0.147,0.325,0.2613,0.115,-0.525,-1.3388,-5.8538,-9.326433722325314,-29.515282483168434,-0.18297708372743146,1.6919999999954598
-0.5306,0.9208,-0.147,0.3252,0.2626,0.122,-0.525,-1.3388,-5.8538,-9.28080629184698,-29.533150500105574,-0.18248649883348644,1.6999999999970896
-0.5307,0.9177,-0.1509,0.3252,0.2626,0.122,-0.4288,-1.2075,-5.5475,-9.294380973614096,-29.55506222019866,-0.1811274058251525,1.7070000000021537
-0.5307,0.9196,-0.1528,0.3252,0.2626,0.122,-0.4288,-1.2075,-5.5475,-9.327673607095367,-29.56711676590833,-0.17958787096994472,1.7150000000037835
-0.5307,0.9196,-0.1528,0.3262,0.2628,0.1186,-0.91,-1.0675,-5.8275,-9.342984772983117,-29.577542401323498,-0.17725071727950584,1.7219999999942956
-0.53,0.9218,-0.1534,0.3262,0.2628,0.1186,-0.875,-1.3388,-5.9412,-9.355350962923046,-29.57405950005886,-0.17686276965644213,1.728000000002794
-0.5315,0.9204,-0.1515,0.3262,0.2628,0.1186,-0.875,-1.3388,-5.9412,-9.354393489063089,-29.594305389576924,-0.1763752419195326,1.7360000000044238
-0.5315,0.9204,-0.1515,0.3255,0.2603,0.1173,-0.8925,-1.9338,-6.125,-9.353452042296885,-29.618653579201965,-0.18010076248936777,1.743000000002212
-0.53,0.9184,-0.1532,0.3255,0.2603,0.1173,-0.8925,-1.9338,-6.125,-9.368767442296997,-29.62806369939746,-0.18382442029891802,1.75
-0.5316,0.9195,-0.1491,0.3255,0.2603,0.1173,-0.7262,-1.3913,-5.8538,-9.366332471949498,-29.640081457714754,-0.18375320173677276,1.7580000000016298
-0.5316,0.9195,-0.1491,0.3255,0.2607,0.1155,-0.7088,-1.54,-5.845,-9.361351140990843,-29.64992002462051,-0.18502223633963155,1.7669999999998254
-0.5277,0.9207,-0.1501,0.3255,0.2607,0.1155,-0.7088,-1.54,-5.845,-9.358090340182333,-29.629110094287046,-0.1859882117142275,1.7740000000048894
-0.5303,0.9187,-0.1555,0.3255,0.2607,0.1155,-0.8138,-1.54,-5.8362,-9.374794024803952,-29.63123923922006,-0.1871049164555166,1.7819999999992433
-0.5303,0.9187,-0.1555,0.325,0.2598,0.1205,-0.8138,-1.54,-5.8362,-9.390376241693794,-29.633094468784087,-0.1880698504889544,1.7889999999970314
-0.5311,0.9202,-0.1551,0.325,0.2598,0.1205,-0.875,-1.4875,-5.6262,-9.411168230898419,-29.633821486294043,-0.18866698580620994,1.7960000000020955
-0.5306,0.9199,-0.1501,0.325,0.2598,0.1205,-0.6913,-1.3737,-5.7312,-9.404247299064183,-29.634552931645914,-0.18843761186733393,1.805000000000291
-0.5306,0.9199,-0.1501,0.326,0.2614,0.1175,-0.6913,-1.3737,-5.7312,-9.397659254532108,-29.635254460307987,-0.18822335710937582,1.8130000000019209
-0.5294,0.918,-0.152,0.326,0.2614,0.1175,-0.8575,-1.5575,-6.1512,-9.398066233860861,-29.635924587839234,-0.18931017067244799,1.819999999999709
-0.5305,0.9209,-0.1545,0.326,0.2614,0.1175,-0.8575,-1.5575,-6.0462,-9.411107886950418,-29.627006152232475,-0.19073384804080737,1.8289999999979045
-0.5305,0.9209,-0.1545,0.3231,0.2627,0.1245,-0.6475,-1.5488,-6.0462,-9.420826526513736,-29.620437103912217,-0.19223856067711295,1.8389999999999418
-0.5305,0.9203,-0.1524,0.3231,0.2627,0.1245,-0.7962,-1.5575,-5.915,-9.419894184991621,-29.62160910566609,-0.19366077385047,1.8479999999981374
-0.5284,0.9205,-0.1538,0.3231,0.2627,0.1245,-0.7962,-1.5575,-5.915,-9.423279154172308,-29.60247616497479,-0.19491357231181972,1.8559999999997672
-0.5284,0.9205,-0.1538,0.3252,0.2625,0.1194,-0.8838,-1.6013,-5.7838,-9.431018993840578,-29.595128490685596,-0.19651596917401012,1.864000000001397
-0.5318,0.9196,-0.1532,0.3252,0.2625,0.1194,-0.7,-1.47,-5.8888,-9.432113541902554,-29.612937650880806,-0.19698644268124343,1.870999999999185
-0.5319,0.9211,-0.1527,0.3252,0.2625,0.1194,-0.7,-1.47,-5.8888,-9.431341661714342,-29.62238738303338,-0.19753792830744407,1.878999999993539
-0.5319,0.9211,-0.1527,0.325,0.2614,0.1138,-0.8662,-1.1638,-6.3525,-9.429300478902668,-29.641217410594823,-0.19564076299092398,1.8869999999951688
-0.5294,0.9184,-0.1512,0.325,0.2614,0.1138,-0.8662,-1.1638,-6.3525,-9.420415655206257,-29.63689254099631,-0.19374454625706214,1.8949999999967986
-0.5317,0.9216,-0.1534,0.325,0.2614,0.1138,-1.3913,-1.3212,-6.1337,-9.432152485982236,-29.639166965315916,-0.1930403697875644,1.90400000000227
-0.5317,0.9216,-0.1534,0.3263,0.261,0.1169,-1.085,-1.3212,-6.44,-9.436769597377953,-29.641359117426767,-0.19233654540679238,1.9130000000004657
-0.5296,0.9215,-0.1513,0.3263,0.261,0.1169,-1.085,-1.3212,-6.44,-9.407991964881413,-29.60581544600841,-0.19176802942623825,1.9199999999982538
-0.5294,0.9182,-0.1524,0.3263,0.261,0.1169,-0.7962,-1.33,-6.2038,-9.40881054263667,-29.614182430607457,-0.19108531897140557,1.930000000000291
-0.5294,0.9182,-0.1524,0.3258,0.2617,0.1166,-0.7962,-1.33,-6.2038,-9.409586908598232,-29.619704299743503,-0.19046163251602577,1.9389999999984866
-0.5337,0.9193,-0.1548,0.3258,0.2617,0.1166,-1.1025,-1.3125,-6.0637,-9.44900876087842,-29.6663625090821,-0.18968083665390523,1.9479999999966822
-0.5306,0.9204,-0.1505,0.3258,0.2617,0.1166,-1.225,-1.3475,-5.9588,-9.396095929413693,-29.66010829157426,-0.1892152736896526,1.9569999999948777
-0.5306,0.9204,-0.1505,0.3263,0.2622,0.1245,-1.225,-1.3475,-5.9588,-9.360420453379758,-29.655184660693727,-0.18874994350658242,1.9660000000003492
-0.5309,0.9193,-0.1501,0.3263,0.2622,0.1245,-0.8838,-1.26,-5.845,-9.34957975793362,-29.658716671023214,-0.18762638738261947,1.974000000001979
-0.533,0.9199,-0.1534,0.3263,0.2622,0.1245,-0.8838,-1.26,-5.845,-9.364223840997655,-29.67090088204557,-0.18624609774960213,1.9839999999967404
-0.533,0.9199,-0.1534,0.3258,0.26,0.1141,-0.5775,-1.2337,-6.195,-9.378781818371838,-29.6970836002744,-0.1847585642538796,1.993000000002212
-0.5291,0.9198,-0.15,0.3258,0.26,0.1141,-0.7875,-1.7325,-5.7488,-9.373689967724095,-29.690717483360906,-0.18775872992513262,2.0020000000004075
-0.5311,0.9185,-0.1509,0.3258,0.26,0.1141,-0.7875,-1.7325,-5.7488,-9.37177112126346,-29.691702957311048,-0.1911010116208701,2.0120000000024447
-0.5311,0.9185,-0.1509,0.3243,0.2617,0.1221,-0.7,-1.82,-5.8888,-9.370084254643368,-29.694432035102984,-0.19445403996376223,2.0200000000040745
-0.5299,0.9195,-0.1506,0.3243,0.2617,0.1221,-0.7,-1.82,-5.8888,-9.367333993469071,-29.683264258371022,-0.19823646414700252,2.02900000000227
-0.5314,0.9212,-0.1542,0.3243,0.2617,0.1221,-0.6475,-1.5313,-6.1163,-9.378998948748517,-29.66949534008827,-0.19956251297521937,2.0390000000043074
-0.5314,0.9212,-0.1542,0.3255,0.2626,0.1174,-0.665,-1.7237,-6.0025,-9.387821948870402,-29.661804190382,-0.2024761162721276,2.048000000002503
-0.5309,0.9214,-0.1512,0.3255,0.2626,0.1174,-0.665,-1.7237,-6.0025,-9.382916884724864,-29.652259879629828,-0.20471862175525096,2.055000000000291
-0.5316,0.9189,-0.1529,0.3255,0.2626,0.1174,-0.98,-1.5575,-6.405,-9.395273484909184,-29.677268511066536,-0.20630329850348955,2.0649999999950523
-0.5316,0.9189,-0.1529,0.3259,0.2599,0.1141,-0.98,-1.5575,-6.16,-9.405253205145176,-29.68845243154952,-0.20771847930916087,2.074000000000524
-0.5333,0.9196,-0.1495,0.3259,0.2599,0.1141,-0.5863,-1.3737,-6.16,-9.38218066160023,-29.72012434542411,-0.2074795796235334,2.0829999999987194
-0.5292,0.9201,-0.1508,0.3259,0.2599,0.1141,-0.6737,-1.4438,-5.8888,-9.377433410965782,-29.696492330281238,-0.20798150484964473,2.0939999999973224
-0.5292,0.9201,-0.1508,0.323,0.2622,0.1211,-0.6737,-1.4438,-5.8888,-9.37298895656519,-29.676803004232916,-0.20831799774530965,2.1019999999989523
-0.5284,0.9191,-0.1516,0.323,0.2622,0.1211,-0.91,-1.3563,-6.0287,-9.372020206122633,-29.648143157082934,-0.2079546723943842,2.110000000000582
-0.5293,0.9209,-0.1541,0.323,0.2622,0.1211,-0.91,-1.8025,-5.53,-9.390393687661708,-29.634453612035042,-0.21157292501144073,2.1189999999987776
-0.5293,0.9209,-0.1541,0.325,0.2623,0.1204,-0.7,-1.8025,-5.53,-9.394780220557907,-29.622637560964623,-0.21518936850519793,2.128000000004249
-0.5286,0.9201,-0.152,0.325,0.2623,0.1204,-1.2775,-1.5838,-5.7838,-9.38980203322821,-29.615924810534917,-0.21644670701109528,2.1349999999947613
-0.5291,0.9199,-0.1541,0.325,0.2623,0.1204,-1.2775,-1.5838,-5.7838,-9.431654966187176,-29.611479378851577,-0.21809339776265663,2.144000000000233
-0.5291,0.9199,-0.1543,0.3258,0.261,0.1274,-0.8838,-1.6363,-5.8625,-9.442874725346837,-29.604434528593696,-0.2199640647121786,2.1520000000018626
-0.5308,0.9194,-0.1543,0.3258,0.261,0.1274,-1.0588,-1.61,-5.7312,-9.463118945642675,-29.606539597807064,-0.22118114681609288,2.158000000003085
-0.5309,0.9198,-0.1494,0.3258,0.261,0.1274,-1.0588,-1.61,-5.7312,-9.40599810410904,-29.609184861794763,-0.22283997509104533,2.166000000004715
-0.5309,0.9185,-0.1527,0.3246,0.2609,0.1214,-0.8138,-1.4525,-6.1337,-9.40821748782991,-29.634385987505482,-0.2231748478448949,2.172999999995227
-0.5303,0.9185,-0.1527,0.3246,0.2609,0.1214,-0.8138,-1.4525,-6.1337,-9.410287864473371,-29.643239589069584,-0.22350955316329535,2.180000000000291
-0.5306,0.9195,-0.1555,0.3246,0.2609,0.1214,-0.7,-1.8988,-6.2213,-9.417851744243775,-29.641678467578384,-0.22747646203554464,2.188000000001921
-0.5462,0.9213,-0.1487,0.3266,0.2626,0.1097,-0.4462,-1.47,-6.0375,-9.360979813816135,-29.822250469281855,-0.22793145529634717,2.194999999999709
-0.5311,0.9213,-0.1487,0.3266,0.2626,0.1097,-0.4462,-1.47,-6.0375,-9.317084585762702,-29.776226196251578,-0.2283862210605193,2.201999999997497
-0.5301,0.9201,-0.1531,0.3266,0.2626,0.1097,-0.7788,-1.3388,-6.0637,-9.321722664804266,-29.73098766704275,-0.2278230445540791,2.2109999999956926
-0.53,0.9178,-0.1532,0.3258,0.2614,0.1263,-0.7788,-1.3388,-6.0637,-9.327240719258624,-29.713064830235346,-0.22735992372354943,2.2180000000007567
-0.53,0.9178,-0.1532,0.3258,0.2614,0.1263,-0.805,-1.3563,-6.2562,-9.336108999617192,-29.695765205473617,-0.22701947320352361,2.2250000000058208
-0.5331,0.9195,-0.1539,0.3258,0.2614,0.1263,-0.9275,-1.3913,-6.2825,-9.362043872198036,-29.720325919942397,-0.22692924382089838,2.2339999999967404
-0.5295,0.9192,-0.1493,0.3253,0.2618,0.1238,-0.9275,-1.3913,-6.2825,-9.340682856831172,-29.683783613104357,-0.2268338861409822,2.2409999999945285
-0.5295,0.9192,-0.1493,0.3253,0.2618,0.1238,-0.9625,-1.6538,-6.16,-9.319884718995938,-29.664071338985607,-0.22884011284634356,2.2489999999961583
-0.53,0.9198,-0.1491,0.3253,0.2618,0.1238,-0.9625,-1.6538,-6.16,-9.299582741433147,-29.653376123389847,-0.23084533643835223,2.256999999997788
-0.5309,0.9204,-0.1511,0.3262,0.2611,0.116,-0.4725,-1.4262,-5.9412,-9.304542653451286,-29.65235738220582,-0.2309921985623228,2.264000000002852
-0.5309,0.9204,-0.1511,0.3262,0.2611,0.116,-0.28,-1.4175,-5.9412,-9.310360677089214,-29.651544110142286,-0.2311068913108792,2.271999999997206
-0.5314,0.9201,-0.1496,0.3262,0.2611,0.116,-0.28,-1.4175,-5.9412,-9.286541963342358,-29.6584405467579,-0.23125030031917185,2.2809999999954016
-0.5305,0.9202,-0.1501,0.3254,0.2617,0.1144,-0.595,-1.3388,-5.9412,-9.283695456373456,-29.654567870582152,-0.23078546586075965,2.2880000000004657
-0.5305,0.9202,-0.1501,0.3254,0.2617,0.1144,-0.595,-1.3388,-5.9412,-9.281213388890944,-29.651476271465285,-0.23037075086376832,2.294000000001688
-0.5311,0.9194,-0.1519,0.3254,0.2617,0.1144,-0.2625,-1.5137,-5.74,-9.313694241114094,-29.652884026044728,-0.2312549695356311,2.301999999996042
-0.5317,0.9191,-0.1533,0.3257,0.2622,0.1201,-0.4638,-1.365,-6.2213,-9.347566920479444,-29.672684526985954,-0.23097344104274328,2.309000000001106
-0.5317,0.9191,-0.1533,0.3257,0.2622,0.1201,-0.4638,-1.365,-6.2213,-9.374070763009895,-29.685602853870876,-0.23064465302626466,2.3179999999993015
-0.5304,0.9201,-0.1507,0.3257,0.2622,0.1201,-0.6037,-1.5313,-6.0725,-9.365286122154105,-29.67146630405619,-0.23166946434798383,2.3260000000009313
-0.5291,0.9188,-0.149,0.3264,0.2615,0.129,-0.6037,-1.82,-6.2475,-9.346604272768202,-29.65135202980868,-0.23500220846451242,2.334000000002561
-0.5291,0.9188,-0.149,0.3264,0.2615,0.129,-0.7875,-1.82,-6.2475,-9.340697089349904,-29.638449538542147,-0.23747114149367063,2.3399999999965075
-0.5339,0.919,-0.1541,0.3264,0.2615,0.129,-0.4812,-2.0738,-6.4837,-9.377545802596696,-29.714840868876827,-0.2428303695720398,2.3479999999981374
-0.5295,0.9222,-0.1502,0.3252,0.2617,0.1058,-0.4812,-2.0738,-6.4837,-9.351303862661128,-29.63755827247273,-0.2475021725827214,2.3550000000032014
-0.5295,0.9222,-0.1502,0.3252,0.2617,0.1058,-0.9275,-1.4262,-6.3437,-9.33553671705773,-29.5990869818259,-0.24764070628834717,2.3620000000009895
-0.5283,0.9203,-0.1496,0.3252,0.2617,0.1058,-1.0063,-1.4875,-5.8713,-9.314089524162826,-29.589420042018823,-0.2483067947826455,2.3699999999953434
-0.5289,0.9176,-0.1515,0.3246,0.2613,0.1192,-1.0063,-1.4875,-5.8713,-9.326875391565837,-29.595181807663057,-0.2489725502334151,2.377999999996973
-0.5289,0.9176,-0.1515,0.3246,0.2613,0.1192,-0.9013,-1.6275,-6.0375,-9.3335246615262,-29.603337725150972,-0.25028007559459015,2.3839999999981956
-0.532,0.9218,-0.1517,0.3246,0.2613,0.1192,-0.9013,-1.6275,-6.0375,-9.33515265164327,-29.618069715013906,-0.25206428440518186,2.3919999999998254
-0.5292,0.9173,-0.1471,0.3259,0.2633,0.1226,-0.6825,-2.0738,-5.7225,-9.322570446477124,-29.619684405822504,-0.2574162159071131,2.3999999999941792
-0.5292,0.9173,-0.1471,0.3259,0.2633,0.1226,-0.7525,-1.8463,-6.3525,-9.320331286876849,-29.638664864259127,-0.26003166303904635,2.4060000000026776
-0.5314,0.9189,-0.1484,0.3259,0.2633,0.1226,-0.7525,-1.8463,-6.3525,-9.318785352737368,-29.671988565840177,-0.26356052085294457,2.4139999999970314
-0.5307,0.9229,-0.1504,0.3263,0.2612,0.12,-0.3938,-1.4088,-6.125,-9.302528510447395,-29.643128396421947,-0.2635692862846198,2.4210000000020955
-0.5307,0.9229,-0.1504,0.3263,0.2612,0.12,-0.3938,-1.4088,-6.125,-9.29046879786705,-29.6230370114972,-0.2635780473334331,2.4279999999998836
-0.5313,0.9213,-0.1528,0.3263,0.2612,0.12,-0.6737,-1.6187,-6.2213,-9.298535204972348,-29.627590385650173,-0.2655151153633516,2.436999999998079
-0.5275,0.9196,-0.1534,0.327,0.2629,0.1233,-0.8138,-1.5313,-6.5712,-9.310074350829039,-29.5683451813095,-0.26637997474839165,2.444000000003143
-0.5275,0.9196,-0.1534,0.327,0.2629,0.1233,-0.8138,-1.5313,-6.5712,-9.320838770628352,-29.536876049136055,-0.26724440170270225,2.4510000000009313
-0.5305,0.9194,-0.1539,0.327,0.2629,0.1233,-0.9625,-1.3388,-6.1425,-9.353722657366413,-29.570235493965907,-0.26671168315013255,2.458999999995285
-0.5315,0.9202,-0.1513,0.3258,0.2622,0.1157,-0.9625,-1.3388,-6.1425,-9.350713064157748,-29.604666282102254,-0.26622911800030485,2.4660000000003492
-0.5315,0.9202,-0.1513,0.3258,0.2622,0.1157,-0.9625,-1.6625,-6.3787,-9.348247540516518,-29.635637630104643,-0.2680115611826994,2.4729999999981374
-0.5319,0.9218,-0.1518,0.3258,0.2622,0.1157,-1.2337,-2.1263,-5.88,-9.34929118783496,-29.638785560268627,-0.2737753090513096,2.480999999999767
-0.5267,0.9189,-0.1519,0.326,0.2615,0.119,-1.2337,-2.1263,-5.88,-9.361549502148176,-29.614657670828812,-0.2802733942548176,2.4900000000052387
-0.5267,0.9189,-0.1519,0.326,0.2615,0.119,-0.6825,-1.3913,-6.125,-9.362945278068116,-29.57636498519514,-0.2801487777936746,2.495999999999185
-0.5312,0.921,-0.153,0.326,0.2615,0.1222,-0.6825,-1.3913,-6.125,-9.366815853006262,-29.59522669482258,-0.2800319837587731,2.5049999999973807
-0.5287,0.9221,-0.1499,0.325,0.2613,0.1222,-0.9712,-1.785,-5.5912,-9.341931654355266,-29.587406550338244,-0.2830606866155393,2.5129999999990105
-0.5287,0.9221,-0.1499,0.325,0.2613,0.1222,-1.2775,-1.8025,-5.8362,-9.304088693898056,-29.57707256856393,-0.28581422401632595,2.5200000000040745
-0.5312,0.9216,-0.1501,0.325,0.2613,0.12,-1.2775,-1.8025,-5.8362,-9.285388620726204,-29.584556247624636,-0.2893935468575715,2.52900000000227
-0.5303,0.9212,-0.1533,0.3262,0.2614,0.12,-1.1638,-1.5313,-6.0637,-9.333703395715435,-29.58609749682536,-0.2902464670258275,2.536000000000058
-0.5303,0.9212,-0.1533,0.3262,0.2614,0.12,-1.1638,-1.5313,-5.9062,-9.367680723656179,-29.58683184447064,-0.29109896073399943,2.5429999999978463
-0.5311,0.9201,-0.1505,0.3262,0.2626,0.1175,-0.8575,-1.365,-5.9062,-9.359581234196154,-29.60133820084738,-0.29071640981358415,2.5529999999998836
-0.5293,0.9177,-0.1497,0.3262,0.2626,0.1175,-0.9013,-1.295,-6.1687,-9.346542870211527,-29.617264910499095,-0.2899153956002031,2.5600000000049477
-0.5293,0.9177,-0.1497,0.3262,0.2626,0.1175,-0.9013,-1.295,-6.1687,-9.33529777310722,-29.628025146591987,-0.28902111675093184,2.5679999999993015
-0.5313,0.9192,-0.1513,0.3253,0.262,0.1259,-0.7088,-1.5575,-5.915,-9.335673633635311,-29.640822136740884,-0.29039493864625193,2.576999999997497
-0.5289,0.9204,-0.1494,0.3253,0.262,0.1259,-0.9363,-1.6013,-5.8625,-9.31682115718987,-29.629241720659195,-0.2921620765305454,2.5859999999956926
-0.5289,0.9204,-0.1507,0.3253,0.262,0.1259,-0.9363,-1.6013,-5.8625,-9.31387247243423,-29.61856004195462,-0.29329088572853984,2.591999999996915
-0.5298,0.9179,-0.1507,0.3252,0.261,0.12,-0.945,-1.6712,-5.7312,-9.315513703031664,-29.620426362518455,-0.29540301433413574,2.599999999998545
-0.5331,0.923,-0.156,0.3252,0.261,0.12,-0.945,-1.6712,-5.7312,-9.362393528704441,-29.62210038460494,-0.2972317401203985,2.607000000003609
-0.5331,0.923,-0.153,0.3252,0.261,0.12,-1.0412,-1.995,-5.8888,-9.373818852382248,-29.630825303882236,-0.30132501824099794,2.614000000001397
-0.5312,0.9228,-0.153,0.3243,0.2602,0.123,-0.56,-1.54,-5.8625,-9.379998824176909,-29.625023748954952,-0.3028376916476662,2.625
-0.5299,0.9171,-0.1519,0.3243,0.2602,0.123,-0.56,-1.54,-5.8625,-9.383778488704868,-29.63384936866907,-0.30404718400556957,2.6339999999981956
-0.5299,0.9193,-0.15,0.3243,0.2602,0.123,-0.6475,-1.3388,-5.8362,-9.373725380109756,-29.634032036987684,-0.3034960640614855,2.6419999999998254
-0.5336,0.9193,-0.15,0.3252,0.2614,0.1229,-0.6475,-1.3388,-5.8362,-9.36453882963443,-29.65627433683948,-0.30284544558935317,2.6520000000018626
-0.5295,0.92,-0.1499,0.3252,0.2614,0.1229,-1.05,-1.2075,-5.9325,-9.33853525027362,-29.64501388861377,-0.30142617310895914,2.6589999999996508
-0.5295,0.9208,-0.1526,0.3252,0.2614,0.1229,-1.4262,-1.925,-5.9412,-9.367508593029807,-29.629176336871364,-0.3050275990132191,2.665999999997439
-0.5284,0.9208,-0.1526,0.3252,0.2616,0.1234,-1.4262,-1.925,-5.9412,-9.384709876331518,-29.606224647454816,-0.3091632440625861,2.6739999999990687
-0.5277,0.9204,-0.1552,0.3252,0.2616,0.1234,-0.7,-1.7413,-6.055,-9.392201825922061,-29.572891669577576,-0.31253277949870867,2.68399999999383
-0.532,0.9198,-0.1501,0.3252,0.2616,0.1234,-0.7,-1.7413,-6.055,-9.387225928386709,-29.61214705385248,-0.3151958067575337,2.69199999999546
-0.532,0.9198,-0.1501,0.3256,0.2626,0.1174,-0.49,-1.2687,-5.985,-9.363295268232118,-29.63664222427518,-0.3140785929019595,2.6999999999970896
-0.532,0.9191,-0.1517,0.3256,0.2626,0.1174,-0.63,-1.12,-5.9763,-9.36420382884873,-29.657659509187788,-0.31204151009614844,2.7070000000021537
-0.5312,0.9188,-0.1515,0.3256,0.2626,0.1174,-0.63,-1.12,-5.9763,-9.364102149572291,-29.667630240789308,-0.309468290545585,2.7160000000003492
-0.5312,0.9188,-0.1515,0.3258,0.2629,0.1173,-0.7962,-1.68,-6.2475,-9.364055262634029,-29.680054128630616,-0.3119338376059052,2.7250000000058208
-0.5291,0.9204,-0.1534,0.3258,0.2629,0.1173,-0.7962,-1.68,-6.2475,-9.369122617566862,-29.63516296258526,-0.31410700953345844,2.7330000000001746
-0.5283,0.9215,-0.1503,0.3258,0.2629,0.1173,-0.6475,-1.9425,-5.985,-9.36002496561009,-29.60479966725182,-0.3183780448775938,2.7410000000018044
-0.5283,0.9215,-0.1503,0.326,0.2618,0.1194,-0.735,-1.5925,-5.81,-9.359370803351213,-29.593707754765695,-0.319848344702005,2.7489999999961583
-0.53,0.9196,-0.1537,0.326,0.2618,0.1194,-0.735,-1.5925,-5.81,-9.360247251749705,-29.596139925180264,-0.3211142232726855,2.7560000000012224
-0.5317,0.9198,-0.1489,0.326,0.2618,0.1194,-1.0588,-1.1463,-5.9763,-9.320581591879124,-29.621683351540295,-0.3190153398104172,2.763999999995576
-0.5317,0.9198,-0.1489,0.3251,0.2622,0.1207,-1.0588,-1.1463,-5.6962,-9.290462735905395,-29.622356857281506,-0.31643292419825547,2.7740000000048894
-0.5285,0.9175,-0.1509,0.3251,0.2622,0.1207,-1.155,-1.4525,-5.6962,-9.30487180692008,-29.622287994239965,-0.3167847565837964,2.7819999999992433
-0.5323,0.9198,-0.1527,0.3251,0.2622,0.1207,-0.7962,-1.2337,-5.6262,-9.311115658543866,-29.628140830469295,-0.3155418227478472,2.7889999999970314
-0.5323,0.9198,-0.1527,0.3259,0.2607,0.1165,-0.7962,-1.2337,-5.6262,-9.317037531986692,-29.633650134072454,-0.3141445758842208,2.7969999999986612
-0.5296,0.9212,-0.1512,0.3259,0.2607,0.1165,-0.7437,-1.68,-5.9763,-9.317045045296178,-29.618698629872995,-0.3163166424447532,2.805000000000291
-0.5289,0.9221,-0.1517,0.3259,0.2607,0.1165,-0.6737,-1.6975,-6.195,-9.318660646163593,-29.581729825064265,-0.3186275529697883,2.812999999994645
-0.5289,0.9221,-0.1517,0.3258,0.2614,0.1189,-0.6737,-1.6975,-6.195,-9.320173198362268,-29.557189397230037,-0.3209373080418064,2.8209999999962747
-0.5306,0.9195,-0.1524,0.3258,0.2614,0.1189,-0.7262,-1.6013,-5.8713,-9.3215675140814,-29.57188056052219,-0.32268917474140213,2.8299999999944703
-0.5321,0.9198,-0.1479,0.3258,0.2614,0.1189,-0.7262,-1.6013,-5.8713,-9.318692376409157,-29.5968095864974,-0.3244401655091941,2.838999999999942
-0.5321,0.9198,-0.1479,0.3258,0.2601,0.1187,-0.7262,-1.47,-5.9763,-9.315861482773544,-29.627291183740997,-0.32492792427457196,2.8470000000015716
-0.5304,0.9187,-0.1528,0.3258,0.2601,0.1187,-1.1375,-1.4438,-6.0637,-9.351935037797245,-29.636792754583343,-0.3252610044163353,2.855999999999767
-0.5291,0.9195,-0.1572,0.3258,0.2601,0.1187,-1.1375,-1.4438,-6.0637,-9.451074215921238,-29.61627063301901,-0.325483797106406,2.8630000000048312
-0.5291,0.9195,-0.1572,0.3251,0.2617,0.117,-0.84,-1.54,-6.1075,-9.47347299455374,-29.60011907049365,-0.32653075405499904,2.870999999999185
-0.5302,0.92,-0.153,0.3251,0.2617,0.117,-0.84,-1.54,-6.1075,-9.470670438887833,-29.60542133528136,-0.327577187526218,2.879000000000815
-0.5284,0.918,-0.1506,0.3251,0.2617,0.117,-0.7788,-1.6187,-6.0813,-9.4651743994262,-29.60300556331043,-0.3287926369687359,2.8850000000020373
-0.5284,0.918,-0.1506,0.3262,0.2617,0.119,-0.805,-1.75,-6.16,-9.45634150022039,-29.601034809959028,-0.3318782068536,2.894000000000233
-0.5327,0.9196,-0.1515,0.3262,0.2617,0.119,-0.805,-1.75,-6.16,-9.45033141803804,-29.649066145735297,-0.3342400192413745,2.900999999998021
-0.5321,0.9216,-0.1482,0.3262,0.2617,0.119,-0.6212,-1.7237,-5.8012,-9.416427824213294,-29.65270030670743,-0.33641664277301325,2.907999999995809
-0.5321,0.9216,-0.1482,0.3253,0.261,0.1147,-0.6212,-1.7237,-5.8012,-9.38617374920297,-29.655966542543776,-0.33892699850017244,2.915999999997439
-0.5274,0.9203,-0.1526,0.3253,0.261,0.1147,-0.6212,-1.5925,-5.9675,-9.389262210979535,-29.617989566375282,-0.3401833377439539,2.923000000002503
-0.5333,0.9198,-0.1535,0.3253,0.261,0.1147,-0.8487,-1.5137,-5.7225,-9.397486653497312,-29.622811064574126,-0.3408877246158966,2.929999999993015
-0.5333,0.9198,-0.1535,0.3242,0.2617,0.1234,-0.8487,-1.5137,-5.7225,-9.4049170067343,-29.62747427025609,-0.3419665358138432,2.9399999999950523
-0.5324,0.9208,-0.1521,0.3242,0.2617,0.1234,-1.0762,-1.5838,-6.2475,-9.398563306472353,-29.654604747713442,-0.3431604857389237,2.9470000000001164
-0.531,0.9175,-0.151,0.3242,0.2617,0.1234,-1.0762,-1.5838,-6.2475,-9.385348310123478,-29.681331998536095,-0.344353838687623,2.9539999999979045
-0.531,0.9175,-0.151,0.3239,0.2605,0.1205,-0.5425,-1.5137,-5.9675,-9.378779743695501,-29.691761220884263,-0.34530599132296275,2.963000000003376
-0.5294,0.9184,-0.1538,0.3239,0.2605,0.1205,-0.455,-1.6363,-5.9062,-9.407321643495427,-29.678776358803034,-0.3476079803860049,2.9729999999981374
-0.5331,0.921,-0.155,0.3239,0.2605,0.1205,-0.455,-1.6363,-5.9062,-9.439813205779037,-29.685740556611762,-0.3489189616321144,2.9789999999993597
-0.5331,0.921,-0.155,0.3249,0.2614,0.1206,-1.0412,-1.925,-5.8888,-9.46591221936299,-29.69107899431444,-0.35303266100017194,2.9870000000009895
-0.529,0.9195,-0.1562,0.3249,0.2614,0.1206,-1.0412,-1.925,-5.7925,-9.506270460290574,-29.678863722866836,-0.3566082836604863,2.9939999999987776
-0.5314,0.9195,-0.1523,0.3249,0.2614,0.1206,-1.085,-1.4875,-5.7925,-9.480324037519493,-29.679896503388196,-0.3571211497611561,3.0010000000038417
-0.5314,0.9195,-0.1523,0.3258,0.2619,0.1137,-0.8487,-1.6625,-5.845,-9.473023921303984,-29.68124063297133,-0.359679100244842,3.010999999998603
-0.5302,0.9209,-0.149,0.3258,0.2619,0.1137,-0.8487,-1.6625,-5.845,-9.445765701288293,-29.671836990266616,-0.36168846954316564,3.019000000000233
-0.5302,0.9203,-0.1502,0.3258,0.2619,0.1137,-0.8487,-1.47,-5.9938,-9.428735637413979,-29.66024742652897,-0.36215760415593534,3.0269999999945867
-0.5302,0.9203,-0.1502,0.3266,0.2606,0.1217,-0.9887,-1.54,-5.9062,-9.397185231153376,-29.65346091589144,-0.36318622420210384,3.0349999999962165
-0.5308,0.9204,-0.153,0.3266,0.2606,0.1217,-0.9887,-1.54,-5.9062,-9.405284679477905,-29.650252260941475,-0.36421432993824926,3.0429999999978463
-0.5299,0.9206,-0.1509,0.3266,0.2606,0.1217,-1.05,-1.7062,-5.95,-9.382566529176142,-29.63933020905392,-0.3662535275668871,3.0500000000029104
-0.5299,0.9206,-0.1509,0.3256,0.2615,0.1167,-1.05,-1.7062,-5.95,-9.365200183108415,-29.63067184353853,-0.3692436933637502,3.0600000000049477
-0.5286,0.9176,-0.1533,0.3256,0.2615,0.1167,-0.8225,-1.61,-6.1775,-9.374113033571458,-29.622221974569047,-0.3708284903638195,3.0679999999993015
-0.5295,0.9198,-0.1514,0.3256,0.2615,0.1167,-0.8225,-1.2337,-6.16,-9.372098670059815,-29.614353974857277,-0.36971346915444825,3.074000000000524
-0.5295,0.9198,-0.1518,0.3246,0.2622,0.1141,-0.8225,-1.2337,-6.16,-9.372045486790464,-29.608456732407713,-0.3681342019741506,3.0829999999987194
-0.5308,0.9206,-0.1518,0.3246,0.2622,0.1141,-1.0938,-0.9538,-5.88,-9.3697912884611,-29.61279813250855,-0.3649072730629622,3.0900000000037835
-0.5299,0.9209,-0.1466,0.3246,0.2622,0.1141,-1.0938,-0.9538,-5.88,-9.285271091039553,-29.612000584668746,-0.3612472630768851,3.0979999999981374
-0.5299,0.9209,-0.1524,0.3246,0.2634,0.1198,-0.7175,-1.435,-5.6788,-9.287918356800372,-29.61172353973365,-0.36152928800544093,3.1080000000001746
-0.5283,0.9201,-0.1524,0.3246,0.2634,0.1198,-0.6737,-1.2337,-5.74,-9.29537052676508,-29.607713941872987,-0.360109047410313,3.1159999999945285
-0.5308,0.9216,-0.1524,0.3246,0.2634,0.1198,-0.6737,-1.2337,-5.74,-9.301388424929982,-29.60767313124973,-0.3588444514278233,3.1229999999995925
-0.5308,0.9179,-0.151,0.3252,0.2612,0.1234,-1.2075,-1.5575,-6.0725,-9.314236026379774,-29.6358915528445,-0.36018336165580495,3.131999999997788
-0.5275,0.9179,-0.151,0.3252,0.2612,0.1234,-1.2075,-1.5575,-6.0725,-9.323001705341692,-29.613677861100047,-0.3611841952178314,3.139000000002852
-0.5328,0.9212,-0.1528,0.3252,0.2612,0.1234,-1.0325,-1.68,-6.1863,-9.344382270098638,-29.645097033595693,-0.3630415996094602,3.1459999999933643
-0.5172,0.9207,-0.148,0.3249,0.261,0.1115,-0.56,-1.61,-5.88,-9.31170920704318,-29.5436763236417,-0.36462949765801594,3.153999999994994
-0.5292,0.9207,-0.148,0.3249,0.261,0.1115,-0.56,-1.61,-5.88,-9.2840630221421,-29.54865944982413,-0.3664377791143971,3.1630000000004657
-0.5312,0.9197,-0.1521,0.3249,0.261,0.1115,-0.3938,-1.6625,-5.6525,-9.311563171269658,-29.5530978567505,-0.36789646686117444,3.169000000001688
-0.531,0.9193,-0.1522,0.3234,0.262,0.1184,-0.3938,-1.6625,-5.6525,-9.33456572750868,-29.557406964480087,-0.3699017274761899,3.177000000003318
-0.531,0.9193,-0.1522,0.3234,0.262,0.1184,-0.665,-1.7587,-5.9588,-9.339281350810214,-29.582833783113795,-0.37230539765094317,3.18399999999383
-0.53,0.9185,-0.1489,0.3234,0.262,0.1184,-0.7,-1.5488,-6.2387,-9.334019848709083,-29.612165870148047,-0.373239300644928,3.190999999998894
-0.5309,0.9195,-0.1485,0.3235,0.2604,0.1142,-0.7,-1.5488,-6.2387,-9.327599182901068,-29.637253725119127,-0.3744927525983168,3.1999999999970896
-0.5309,0.9195,-0.1485,0.3235,0.2604,0.1142,-1.12,-1.5575,-5.9588,-9.285479247298756,-29.64695561930373,-0.37565513507029263,3.2079999999987194
-0.5327,0.9207,-0.1511,0.3235,0.2604,0.1142,-1.12,-1.5575,-5.9588,-9.294944627281193,-29.66333417402619,-0.37664823274438436,3.2149999999965075
-0.5303,0.9201,-0.1525,0.3254,0.2606,0.1087,-0.8838,-1.855,-5.565,-9.309349687689311,-29.658819297810282,-0.3806544023311712,3.223999999994703
-0.5303,0.9201,-0.1525,0.3254,0.2606,0.1087,-0.9187,-1.7413,-5.9237,-9.32459875257796,-29.65186259698722,-0.38328336877858,3.231999999996333
-0.5299,0.9202,-0.1536,0.3254,0.2606,0.1087,-0.9187,-1.7413,-5.9237,-9.347421459186199,-29.641292517423437,-0.38520619733062145,3.2379999999975553
-0.5276,0.9207,-0.1519,0.3246,0.261,0.1201,-0.665,-1.575,-6.2038,-9.348921512426891,-29.58772979939375,-0.3865031530802596,3.245999999999185
-0.5276,0.9207,-0.1519,0.3246,0.261,0.1201,-0.665,-1.575,-6.2475,-9.350314540698504,-29.55045742128197,-0.3877994603506682,3.253999999993539
-0.5298,0.9197,-0.1527,0.3246,0.261,0.1201,-0.2625,-1.3388,-6.2475,-9.37514905710734,-29.571307795072542,-0.3872563513122403,3.260999999998603
-0.5297,0.9191,-0.152,0.3266,0.2603,0.1194,-0.735,-1.925,-6.2125,-9.37525340256828,-29.588949878581136,-0.3913508819854578,3.269000000000233
-0.5297,0.9191,-0.152,0.3266,0.2603,0.1194,-0.735,-1.925,-6.2125,-9.375357040287238,-29.600526466652617,-0.39490734553917956,3.276000000005297
-0.5291,0.9211,-0.1517,0.3266,0.2603,0.1194,-1.1025,-1.54,-6.2387,-9.3692554227747,-29.5804576996818,-0.3956171660014946,3.2819999999992433
-0.5303,0.9197,-0.1521,0.3278,0.2626,0.1134,-0.4812,-1.6712,-5.8625,-9.373664177584622,-29.58845393364738,-0.397678131466954,3.290000000000873
-0.5303,0.9197,-0.1521,0.3278,0.2626,0.1134,-0.4812,-1.6712,-5.8625,-9.37716144348119,-29.595265354936778,-0.39973806644968074,3.298000000002503
-0.533,0.921,-0.1529,0.3278,0.2626,0.1134,-0.5337,-1.54,-5.7488,-9.38557521233379,-29.602481257780386,-0.40074789626470236,3.3060000000041327
-0.5305,0.9199,-0.1527,0.3238,0.261,0.113,-0.5337,-1.54,-5.7488,-9.39235798814543,-29.604380599426342,-0.40175722116371626,3.3139999999984866
-0.5305,0.9199,-0.1527,0.3238,0.261,0.113,-0.91,-1.8112,-6.3263,-9.397049572736169,-29.616657333886263,-0.4045122798442004,3.3209999999962747
-0.5303,0.9188,-0.1525,0.3238,0.261,0.113,-0.4812,-1.4612,-6.0725,-9.402598923450181,-29.627618167345645,-0.40481718599664523,3.3280000000013388
-0.532,0.9201,-0.1512,0.3258,0.2612,0.1194,-0.4812,-1.4612,-6.0725,-9.388004655778259,-29.649567419547502,-0.4052668432075162,3.3369999999995343
-0.532,0.9201,-0.1512,0.3258,0.2612,0.1194,-0.77,-1.4612,-6.3088,-9.386470404538024,-29.67145175153512,-0.4056438238340306,3.345000000001164
-0.529,0.9199,-0.1522,0.3258,0.2612,0.1194,-0.77,-1.4612,-6.3088,-9.386694171311333,-29.631996994279447,-0.405875712457675,3.3509999999951106
-0.5319,0.9216,-0.1521,0.3242,0.2612,0.1154,-0.6212,-1.4088,-6.09,-9.385065486224324,-29.639773854261172,-0.40585347620555606,3.360000000000582
-0.5319,0.9216,-0.1521,0.3242,0.2612,0.1154,-0.7788,-1.9075,-6.1863,-9.38458411516231,-29.646211799144893,-0.40928024970830634,3.36699999999837
-0.5309,0.9195,-0.1477,0.3242,0.2612,0.1154,-0.7788,-1.9075,-6.1863,-9.375347456997263,-29.659508706742656,-0.41270530982807807,3.3740000000034343
-0.5294,0.9185,-0.1506,0.3259,0.2613,0.1213,-0.98,-2.0038,-5.9062,-9.363072395391415,-29.65429529453486,-0.4174172008176929,3.381999999997788
-0.5294,0.9185,-0.1506,0.3259,0.2613,0.1213,-0.98,-2.0038,-5.9062,-9.35315852920827,-29.650013741037913,-0.42151195540792424,3.388999999995576
-0.5322,0.9196,-0.1528,0.3259,0.2613,0.1213,-0.6913,-1.3038,-5.9938,-9.357048335440853,-29.66688498906358,-0.4207071126217905,3.3960000000006403
-0.5268,0.9211,-0.1501,0.3254,0.2608,0.1171,-0.6125,-1.3388,-5.8538,-9.34540927803953,-29.635251700342877,-0.4200976627133983,3.40400000000227
-0.5268,0.9211,-0.1501,0.3254,0.2608,0.1171,-0.6125,-1.3388,-5.8538,-9.335103107383038,-29.6081043719092,-0.41943863048613167,3.4130000000004657
-0.5276,0.9201,-0.1555,0.3254,0.2608,0.1171,-0.5075,-1.505,-6.1512,-9.38397525850307,-29.568768154543655,-0.419926290306185,3.418999999994412
-0.5319,0.9224,-0.153,0.3251,0.2606,0.1148,-0.5075,-1.505,-6.1512,-9.390433849014348,-29.58955052075455,-0.42064616600922133,3.426999999996042
-0.5319,0.9224,-0.153,0.3251,0.2606,0.1148,-0.945,-1.33,-6.0025,-9.395088060071792,-29.6002835794541,-0.41996638177412116,3.4349999999976717
-0.5328,0.9177,-0.15,0.3251,0.2606,0.1148,-0.6475,-1.5137,-5.6613,-9.385428580806627,-29.605894814657034,-0.42075580263143775,3.4429999999993015
-0.5337,0.9183,-0.1517,0.3242,0.2614,0.1229,-0.6475,-1.5137,-5.6613,-9.384990667322134,-29.61185238424808,-0.42154482877832566,3.4510000000009313
-0.5337,0.9183,-0.1517,0.3242,0.2614,0.1229,-0.665,-1.295,-5.7488,-9.384659443529632,-29.624272845188088,-0.4206784003561437,3.4579999999987194
-0.5312,0.9201,-0.1495,0.3242,0.2614,0.1176,-0.665,-1.295,-6.475,-9.373546431027862,-29.647433359205902,-0.4198124051481728,3.4649999999965075
-0.5288,0.9195,-0.1523,0.3251,0.262,0.1176,-0.8838,-1.1638,-6.475,-9.377421486497623,-29.612933610569527,-0.41780410259323236,3.4729999999981374
-0.5288,0.9195,-0.1523,0.3251,0.262,0.1176,-0.7525,-1.2425,-5.9412,-9.37770967297457,-29.604085912910037,-0.4164260893896976,3.480999999999767
-0.5319,0.9209,-0.1547,0.3251,0.262,0.1192,-0.7525,-1.2425,-5.9412,-9.37938051191014,-29.616592711756905,-0.415194904087326,3.4879999999975553
-0.53,0.9192,-0.151,0.3234,0.2617,0.1192,-0.7875,-1.4875,-5.8625,-9.377173353112294,-29.619802244495432,-0.4157772154834433,3.495999999999185
-0.53,0.9192,-0.151,0.3234,0.2617,0.1192,-1.2775,-1.4525,-6.0375,-9.360315859191754,-29.624575257278092,-0.41601561961802447,3.503000000004249
-0.5291,0.919,-0.1542,0.3234,0.2613,0.1145,-1.2775,-1.4525,-6.0375,-9.41775854218624,-29.615058685262525,-0.41631766065631937,3.511000000005879
-0.5331,0.921,-0.1519,0.3267,0.2613,0.1145,-0.7613,-1.4875,-6.1075,-9.416759467260393,-29.64934961033802,-0.4168994106727153,3.518999999992957
-0.5331,0.921,-0.1519,0.3267,0.2613,0.1145,-0.7613,-1.4875,-6.1075,-9.41577947378746,-29.67351610380711,-0.417382131209879,3.525999999998021
-0.5299,0.9198,-0.1496,0.325,0.2605,0.1151,-0.1225,-1.6187,-5.985,-9.347758103990817,-29.662177003202927,-0.4190124241926487,3.5339999999996508
-0.5305,0.9176,-0.1533,0.325,0.2605,0.1151,-0.3938,-1.6187,-6.1425,-9.383086644599313,-29.671900482015634,-0.42064190202892704,3.5420000000012806
-0.5305,0.9176,-0.1494,0.325,0.2605,0.1151,-0.3938,-1.6187,-6.1425,-9.348088465482418,-29.68384246579271,-0.42227056512628725,3.5500000000029104
-0.5327,0.9208,-0.1494,0.3249,0.2611,0.1234,-0.245,-1.4963,-6.0725,-9.304226403744641,-29.696251393720537,-0.42281216928548626,3.5570000000006985
-0.5327,0.9203,-0.1509,0.3249,0.2611,0.1234,-0.245,-1.4963,-6.0725,-9.306749728854156,-29.70706727748592,-0.4233535026426057,3.5639999999984866
-0.5327,0.9359,-0.153,0.3249,0.2611,0.1234,-0.91,-1.5313,-5.67,-9.303550591626,-29.700091555185207,-0.4241394428340061,3.5710000000035507
-0.5301,0.9213,-0.153,0.3266,0.2622,0.1149,-0.42,-1.7587,-5.3288,-9.334103532655817,-29.668219040657135,-0.4265159941510805,3.577999999994063
-0.5281,0.9195,-0.1501,0.3266,0.2622,0.1149,-0.42,-1.7587,-5.3288,-9.318797809705941,-29.635861164815083,-0.43037056922217903,3.588999999999942
-0.5281,0.9195,-0.148,0.3266,0.2622,0.1149,-0.7262,-1.2337,-5.9938,-9.316103851625003,-29.61690053216072,-0.4290708424799107,3.59599999999773
-0.5294,0.9195,-0.148,0.3264,0.261,0.1174,-0.7262,-1.2337,-5.9938,-9.313451349499783,-29.616518281315628,-0.4277717655998861,3.603000000002794
-0.5323,0.918,-0.1537,0.3264,0.261,0.1174,-1.295,-1.4,-6.2562,-9.381610464812994,-29.670169654609353,-0.4276481385651046,3.611000000004424
-0.5308,0.9218,-0.1486,0.3264,0.261,0.1174,-0.6913,-1.6363,-5.8187,-9.370838605672638,-29.66414084780823,-0.4294140281424248,3.6189999999987776
-0.5308,0.9218,-0.1486,0.3257,0.2611,0.1205,-0.6913,-1.6363,-5.8187,-9.360584858141294,-29.658806305071572,-0.43093157056980624,3.6259999999965657
-0.5295,0.9203,-0.1538,0.3257,0.2611,0.1205,-0.8138,-1.9863,-5.9412,-9.369109832926872,-29.64176136612899,-0.4366889968457382,3.635999999998603
-0.5333,0.9206,-0.1554,0.3257,0.2611,0.1205,-0.8138,-1.9863,-5.9412,-9.383360954999764,-29.660699281290235,-0.4406516767879942,3.642999999996391
-0.5333,0.9206,-0.1554,0.3239,0.2615,0.1204,-1.0675,-1.7413,-6.0113,-9.432005579462812,-29.678988908488282,-0.44289823289338487,3.650000000001455
-0.5297,0.9223,-0.1507,0.3239,0.2615,0.1204,-0.9013,-1.89,-5.495,-9.411083605184361,-29.657249583407406,-0.4466850826257548,3.658000000003085
-0.5309,0.9176,-0.152,0.3239,0.2615,0.1204,-0.9013,-1.89,-5.495,-9.410330747065029,-29.667030561388543,-0.450470038929613,3.665999999997439
-0.5309,0.9176,-0.152,0.3257,0.2607,0.1166,-0.875,-1.1463,-5.88,-9.40977593534041,-29.67515040969253,-0.44854876835268415,3.672999999995227
-0.53,0.921,-0.1521,0.3257,0.2607,0.1166,-0.875,-1.1463,-6.09,-9.405989982252777,-29.64980071163484,-0.4461438768211821,3.6820000000006985
-0.5301,0.9184,-0.151,0.3257,0.2607,0.1166,-0.7962,-1.5225,-6.09,-9.4024235479806,-29.65380662858351,-0.4468568526244758,3.6889999999984866
-0.5301,0.9184,-0.151,0.3252,0.2615,0.1178,-0.7175,-1.575,-5.9412,-9.40086560451509,-29.655819233765268,-0.44793678818975174,3.6959999999962747
-0.5332,0.9209,-0.1524,0.3252,0.2615,0.1178,-0.7175,-1.575,-5.9412,-9.400767366713726,-29.672047753474637,-0.44920237864396034,3.7039999999979045
-0.5291,0.9216,-0.1501,0.3252,0.2615,0.1178,-0.5337,-1.8112,-6.0287,-9.37487661485934,-29.63797332636392,-0.4527782682578764,3.7129999999961
-0.5291,0.9216,-0.1501,0.3247,0.2615,0.1182,-0.5337,-1.9338,-5.8888,-9.353446161774956,-29.621260255800205,-0.45691040277263545,3.72099999999773
-0.53,0.9201,-0.1509,0.3247,0.2615,0.1182,-0.6913,-1.9338,-5.8888,-9.35154006389981,-29.620252302806357,-0.4610404712201371,3.7289999999993597
-0.5319,0.9201,-0.1534,0.3247,0.2615,0.1182,-1.015,-1.96,-5.9412,-9.375959414783557,-29.634844198900293,-0.46480696747941863,3.736000000004424
-0.5319,0.9201,-0.1534,0.3252,0.2633,0.12,-1.015,-1.96,-5.9412,-9.395139360669651,-29.646493066771026,-0.4680005781282224,3.74199999999837
-0.5302,0.9202,-0.149,0.3252,0.2633,0.12,-1.6013,-1.5575,-5.9675,-9.303825133076684,-29.642889450600144,-0.46945361389950196,3.7520000000004075
-0.5314,0.9174,-0.1512,0.3252,0.2633,0.12,-1.4,-1.3737,-6.0637,-9.325720747308258,-29.67197014912279,-0.46911385563458546,3.7589999999981956
-0.5314,0.9174,-0.1512,0.3258,0.2618,0.1228,-1.4,-1.3737,-6.0637,-9.338925425373171,-29.69311751796219,-0.4687892717427498,3.764999999999418
-0.5312,0.9201,-0.1577,0.3258,0.2618,0.1228,-1.155,-1.575,-6.3263,-9.45200067650919,-29.67290937334641,-0.46985824109846663,3.771999999997206
-0.532,0.9219,-0.1498,0.3258,0.2618,0.1228,-1.155,-1.575,-6.3263,-9.386905830585421,-29.670130650329668,-0.47092667597086035,3.77900000000227
-0.532,0.9219,-0.1498,0.3288,0.2614,0.1176,-1.0237,-1.4963,-6.1687,-9.35226224412354,-29.668717246237673,-0.4715514862810502,3.7870000000039
-0.5308,0.9199,-0.1527,0.3288,0.2614,0.1176,-0.84,-1.5838,-6.3088,-9.35875992274235,-29.661487644245025,-0.47287563418480877,3.7949999999982538
-0.5305,0.9196,-0.1531,0.3288,0.2614,0.1176,-0.84,-1.5838,-6.3088,-9.367114641801896,-29.65402442570242,-0.47400412955928506,3.801999999996042
-0.5305,0.9196,-0.1531,0.3243,0.2617,0.1202,-0.5512,-1.4787,-6.1425,-9.38074041478753,-29.65026762509257,-0.4743067855306154,3.8079999999972642
-0.5305,0.9196,-0.1499,0.3243,0.2617,0.1202,-0.5512,-1.4787,-6.1425,-9.36110640814633,-29.651976105452253,-0.4747891761859967,3.815999999998894
-0.5308,0.9208,-0.1526,0.3243,0.2617,0.1202,-0.84,-1.5137,-6.0813,-9.365463333793176,-29.644883894693788,-0.4755511856451984,3.823999999993248
-0.5308,0.9208,-0.1526,0.3256,0.26,0.1154,-1.12,-1.5137,-6.1337,-9.37764150425007,-29.639321509719647,-0.47618788859500844,3.830999999998312
-0.532,0.9188,-0.1549,0.3256,0.26,0.1154,-1.12,-1.5137,-6.1337,-9.4302819323077,-29.665587492945665,-0.47694919869891456,3.838999999999942
-0.5313,0.921,-0.1498,0.3256,0.26,0.1154,-0.945,-1.3125,-5.9588,-9.397849773471055,-29.663713347299034,-0.4761775068411794,3.846000000005006
-0.5313,0.921,-0.1498,0.3266,0.263,0.1233,-0.945,-1.3125,-5.9588,-9.370894204531439,-29.662237926693845,-0.4754062008304815,3.852999999995518
-0.5287,0.9198,-0.152,0.3266,0.263,0.1233,-0.5163,-1.4262,-5.9588,-9.373216533614631,-29.640039913313426,-0.47546825177812735,3.860999999997148
-0.5328,0.9185,-0.1527,0.3266,0.263,0.1233,-0.6475,-1.54,-6.09,-9.3788916520884,-29.679889177302986,-0.4762890041450041,3.868000000002212
-0.5328,0.9185,-0.1527,0.3249,0.2611,0.1231,-0.6475,-1.54,-6.09,-9.38407758655031,-29.708323588920678,-0.4771093461345971,3.875
-0.532,0.9204,-0.1504,0.3249,0.2611,0.1231,-1.05,-1.365,-6.0637,-9.359682408111809,-29.706687746000885,-0.4766811903094912,3.88300000000163
-0.5308,0.9208,-0.1493,0.3249,0.2611,0.1231,-1.05,-1.365,-6.0637,-9.324392744389653,-29.688744538605974,-0.47627694870638887,3.889999999999418
-0.5308,0.9208,-0.1493,0.325,0.2618,0.119,-0.9538,-1.3737,-6.0725,-9.304364634167875,-29.67547514429332,-0.4759487832680173,3.8960000000006403
-0.5304,0.9201,-0.1543,0.325,0.2618,0.119,-0.8925,-2.2313,-6.3175,-9.332583488986668,-29.653711278916866,-0.48329030922886373,3.904999999998836
-0.5325,0.92,-0.1498,0.325,0.2618,0.119,-0.8925,-2.2313,-6.3175,-9.32151949828983,-29.686449585143194,-0.48894383101438654,3.911999999996624
-0.5325,0.92,-0.1498,0.3254,0.2605,0.1188,-1.155,-2.2138,-5.9062,-9.300050229863901,-29.695753624578238,-0.4944720872950556,3.919000000001688
-0.5317,0.9195,-0.1466,0.3254,0.2605,0.1188,-1.155,-2.2138,-5.9412,-9.22948065909966,-29.702249554132397,-0.5008222548947519,3.926999999996042
-0.5323,0.919,-0.1555,0.3254,0.2605,0.1188,-0.9363,-1.5925,-5.9412,-9.290424221451403,-29.707974701761223,-0.501997646510336,3.934000000001106
-0.5323,0.919,-0.1555,0.3266,0.2617,0.1198,-0.98,-1.5925,-5.6613,-9.350705331545404,-29.708575936277093,-0.5031724504286302,3.940999999998894
-0.5258,0.9212,-0.1516,0.3266,0.2617,0.1198,-0.98,-1.5925,-5.6613,-9.349662718599768,-29.700078040072007,-0.5043466669449654,3.947999999996682
-0.5298,0.9194,-0.1512,0.3266,0.2617,0.1198,-0.98,-1.5575,-5.5738,-9.347609412364648,-29.692131836040463,-0.505444122459768,3.955999999998312
-0.5298,0.9194,-0.1512,0.3256,0.2621,0.122,-0.77,-1.435,-5.8625,-9.347373200472115,-29.681871719496726,-0.5055615192466135,3.963999999999942
-0.531,0.9197,-0.1505,0.3256,0.2621,0.122,-0.77,-1.435,-5.8625,-9.345897922071446,-29.680673580201056,-0.5056325924788879,3.97099999999773
-0.5306,0.921,-0.1509,0.3256,0.2621,0.122,-0.7788,-1.6538,-5.9938,-9.344435337766077,-29.66639871667957,-0.5074994198310804,3.9789999999993597
-0.5306,0.921,-0.1509,0.3245,0.2613,0.117,-0.7788,-1.6538,-5.9938,-9.343024898799735,-29.65546217716287,-0.5091003583125788,3.985999999997148
-0.5289,0.9191,-0.1504,0.3245,0.2613,0.117,-1.085,-1.4438,-5.9237,-9.330350927801083,-29.643434770831064,-0.5092862917815123,3.9939999999987776
-0.532,0.9212,-0.1516,0.3245,0.2613,0.117,-0.84,-1.5575,-6.2475,-9.331685971495007,-29.65523215346662,-0.5102125738784759,4.001000000003842
-0.532,0.9212,-0.1526,0.3266,0.2612,0.1166,-0.84,-1.5575,-6.2475,-9.338314205931344,-29.66125795126928,-0.511138392831936,4.007999999994354
-0.5305,0.9193,-0.1526,0.3266,0.2612,0.1166,-0.6125,-1.61,-6.0375,-9.348232496471722,-29.65885773457595,-0.5133157745528203,4.019000000000233
-0.5335,0.9205,-0.1533,0.3266,0.2612,0.1166,-0.6125,-1.61,-6.0375,-9.360488719507176,-29.684168339337678,-0.5148285355139043,4.027000000001863
-0.5335,0.9205,-0.1513,0.3243,0.2609,0.1184,-0.42,-1.6187,-5.9763,-9.354060191824967,-29.702306493798996,-0.5164101052928495,4.0349999999962165
-0.5308,0.9198,-0.1513,0.3243,0.2609,0.1184,-1.0675,-1.6013,-6.1425,-9.350867388343422,-29.6886199132006,-0.5178517538885494,4.042999999997846
-0.5309,0.9201,-0.1509,0.3243,0.2609,0.1184,-1.0675,-1.6013,-6.1425,-9.341765456355287,-29.678747895371075,-0.5192926816599515,4.050999999999476
-0.5309,0.9213,-0.1527,0.3251,0.2605,0.1201,-1.2163,-1.505,-6.0287,-9.364006384702172,-29.663335700363955,-0.5199628741664652,4.05899999999383
-0.5289,0.9213,-0.1527,0.3251,0.2605,0.1201,-1.2163,-1.505,-6.0287,-9.3790903899806,-29.62827628331281,-0.520748961434018,4.0679999999993015
-0.5299,0.9215,-0.1501,0.3251,0.2605,0.1201,-0.5163,-1.9338,-5.845,-9.355604110988656,-29.62141284287063,-0.524302295144096,4.07499999999709
-0.5272,0.9184,-0.1537,0.3257,0.2605,0.1107,-1.2687,-1.9162,-5.5825,-9.405692961150242,-29.61141523136507,-0.5277307137911939,4.082000000002154
-0.5272,0.9184,-0.1537,0.3257,0.2605,0.1107,-1.2687,-1.9162,-5.5825,-9.438497860949628,-29.602376249121363,-0.5316846424831575,4.0900000000037835
-0.5316,0.918,-0.1544,0.3257,0.2605,0.1107,-1.3125,-1.4438,-5.88,-9.478035678199682,-29.62274403388027,-0.5318592838096051,4.097999999998137
-0.5311,0.9204,-0.1482,0.3255,0.2605,0.1142,-1.3125,-1.4438,-5.88,-9.357789879940974,-29.63032142802265,-0.532088898271601,4.106999999996333
-0.5311,0.9204,-0.1482,0.3255,0.2605,0.1142,-1.0063,-1.3388,-6.1075,-9.313718840850672,-29.64200746615737,-0.5314736445142126,4.114000000001397
-0.5287,0.921,-0.1501,0.3255,0.2605,0.1142,-1.015,-1.5313,-6.0725,-9.301420769444324,-29.612265720150386,-0.5323480413401878,4.122000000003027
-0.5292,0.9218,-0.153,0.3259,0.2612,0.1251,-1.015,-1.5313,-6.0725,-9.327724781052668,-29.588020214372243,-0.5330794842612024,4.129000000000815
-0.5292,0.9218,-0.153,0.3259,0.2612,0.1251,-0.7088,-1.3825,-6.335,-9.330803501857439,-29.563226215043468,-0.5327632733671069,4.136999999995169
-0.5331,0.9218,-0.1537,0.3259,0.2612,0.1251,-0.7088,-1.3825,-6.1863,-9.335137450877827,-29.60953731040668,-0.5324472205784133,4.144999999996799
-0.5291,0.9199,-0.1522,0.3252,0.261,0.123,-0.9625,-1.4612,-6.1863,-9.345893746568143,-29.597406123006447,-0.5326881592604911,4.152000000001863
-0.5291,0.9199,-0.1522,0.3252,0.261,0.123,-1.26,-1.7413,-5.95,-9.36253054985854,-29.592354761778264,-0.5355935205342249,4.161000000000058
-0.5303,0.9193,-0.1537,0.3252,0.261,0.123,-1.26,-1.7413,-5.95,-9.406593660701658,-29.601797403573972,-0.5377926057177425,4.168000000005122
-0.5319,0.9187,-0.151,0.3248,0.2602,0.1175,-0.5337,-1.6538,-5.985,-9.394059052754063,-29.633292326837136,-0.5393783976043697,4.174999999995634
-0.5319,0.9187,-0.151,0.3248,0.2602,0.1175,-0.4638,-1.3563,-5.7838,-9.380957355907025,-29.6425313771418,-0.5388495420535148,4.182999999997264
-0.5303,0.9216,-0.1532,0.3248,0.2602,0.1175,-0.4638,-1.3563,-5.7838,-9.393393823774632,-29.637114912552633,-0.538353346724324,4.190000000002328
-0.5287,0.9209,-0.1508,0.325,0.2586,0.119,-0.9187,-1.4,-6.0375,-9.37932897983053,-29.610552150606093,-0.538163146542937,4.197000000000116
-0.5287,0.9209,-0.1508,0.325,0.2586,0.119,-0.9187,-1.4,-6.0375,-9.36737793001785,-29.590860642096455,-0.5379843238176018,4.20499999999447
-0.5309,0.9206,-0.1522,0.325,0.2586,0.119,-1.0588,-1.6538,-6.125,-9.372250094243569,-29.605303140877783,-0.5395700198490347,4.211999999999534
-0.5326,0.9201,-0.156,0.325,0.2595,0.1193,-1.015,-1.6187,-6.16,-9.426009189913982,-29.640013446250563,-0.5411392188874848,4.220000000001164
-0.5326,0.9201,-0.156,0.325,0.2595,0.1193,-1.015,-1.6187,-6.16,-9.46823375807522,-29.66360271079853,-0.5427076333264158,4.228000000002794
-0.5324,0.9203,-0.1522,0.325,0.2595,0.1193,-0.91,-1.1725,-6.0287,-9.457061385168254,-29.676838866396107,-0.5402752405693124,4.238000000004831
-0.5297,0.9188,-0.151,0.3239,0.2616,0.1204,-0.91,-1.1725,-6.0287,-9.439177762526134,-29.6661555196776,-0.5384923756930782,4.244999999995343
-0.5297,0.9188,-0.151,0.3239,0.2616,0.1204,-0.7175,-1.75,-6.02,-9.436652019393668,-29.658336875075186,-0.5411119883538202,4.252999999996973
-0.5297,0.9202,-0.1536,0.3239,0.2616,0.1204,-0.8662,-1.8288,-6.055,-9.441055039808045,-29.639220524140434,-0.5439205080538709,4.260000000002037
-0.529,0.9201,-0.1523,0.3246,0.2602,0.1218,-0.8662,-1.8288,-6.055,-9.43636918968369,-29.61871360100556,-0.5471674914485609,4.268000000003667
-0.529,0.9201,-0.1523,0.3246,0.2602,0.1218,-1.1725,-1.8813,-6.1775,-9.4250275689008,-29.6003366669477,-0.5508326413480569,4.275999999998021
-0.5284,0.9185,-0.1518,0.3246,0.2602,0.1218,-1.1725,-1.8813,-6.1775,-9.412801849545652,-29.593217913011586,-0.5540036169682939,4.282999999995809
-0.5327,0.9196,-0.1504,0.3258,0.2605,0.1237,-0.84,-1.6888,-6.1425,-9.401685782930109,-29.64393714306998,-0.5555262428961764,4.288999999997031
-0.5327,0.9196,-0.1504,0.3258,0.2605,0.1237,-1.0237,-1.05,-6.0113,-9.376787236172504,-29.671198835235998,-0.552201595976876,4.298000000002503
-0.5322,0.9191,-0.148,0.3258,0.2605,0.1237,-1.0237,-1.05,-6.0113,-9.326401482083421,-29.691830688214143,-0.5495556966740996,4.304999999993015
-0.5292,0.918,-0.1493,0.3245,0.2613,0.12,-1.1113,-1.3475,-6.3,-9.302413173109004,-29.67202844104128,-0.5489925790675539,4.311999999998079
-0.5292,0.918,-0.1493,0.3245,0.2613,0.12,-1.1113,-1.3475,-6.3,-9.284896694867099,-29.659739937758292,-0.5483885516259531,4.319999999999709
-0.5317,0.9202,-0.1525,0.3245,0.2613,0.12,-1.1638,-1.4175,-5.7312,-9.321964843785734,-29.66075765373033,-0.5483445461981871,4.328000000001339
-0.5328,0.9221,-0.1538,0.3265,0.261,0.1185,-1.3212,-1.6187,-6.0113,-9.37604040829871,-29.665565443297336,-0.5496794849682521,4.335000000006403
-0.5328,0.9221,-0.1538,0.3265,0.261,0.1185,-1.3212,-1.6187,-6.0113,-9.410279079588088,-29.669200149583887,-0.5512436292707976,4.342999999993481
-0.53,0.9195,-0.1508,0.3265,0.261,0.1185,-0.84,-1.6013,-6.2213,-9.401647204406913,-29.65602179185251,-0.5524553793992383,4.349999999998545
-0.5303,0.9184,-0.1544,0.3254,0.2618,0.1242,-0.84,-1.6013,-6.1337,-9.41430462175428,-29.656730169347803,-0.5536665236526147,4.357000000003609
-0.5303,0.9184,-0.1544,0.3254,0.2618,0.1242,-0.49,-1.4175,-6.1337,-9.440241793510065,-29.657220346800795,-0.5536198792388353,4.365000000005239
-0.5305,0.9182,-0.1497,0.3254,0.2618,0.1242,-0.3588,-1.47,-6.265,-9.390275508446878,-29.67036512846727,-0.5539930481467571,4.3729999999995925
-0.5276,0.9199,-0.151,0.3281,0.2612,0.1139,-0.3588,-1.47,-6.265,-9.371331157381631,-29.611141822914455,-0.554284783114504,4.379999999997381
-0.5276,0.9199,-0.151,0.3281,0.2612,0.1139,-0.63,-1.6712,-6.1687,-9.366356484590757,-29.577814309213565,-0.5562664147714069,4.3879999999990105
-0.5292,0.9205,-0.1527,0.3281,0.2612,0.1139,-0.6125,-1.8813,-6.2562,-9.372375292742216,-29.571335207703402,-0.5604193569171328,4.396999999997206
-0.5311,0.9195,-0.154,0.3254,0.2626,0.1156,-0.6125,-1.8813,-6.2562,-9.387882433166531,-29.606528926983366,-0.5635855391831676,4.40400000000227
-0.5311,0.9195,-0.154,0.3254,0.2626,0.1156,-0.735,-1.7413,-6.125,-9.388695707743931,-29.625366670058515,-0.5661230400595862,4.411999999996624
-0.5296,0.9191,-0.1507,0.3254,0.2626,0.121,-0.735,-1.7413,-6.125,-9.388173009298926,-29.624816562981593,-0.5690116838929206,4.4209999999948195
-0.5304,0.9191,-0.1516,0.3243,0.2602,0.121,-1.2163,-1.3125,-5.6962,-9.381121510277955,-29.62505974353935,-0.5680416130045574,4.430000000000291
-0.5304,0.9191,-0.1516,0.3243,0.2602,0.121,-1.155,-1.2425,-5.5125,-9.376776339087057,-29.629821553854416,-0.5665884810458169,4.438000000001921
-0.5312,0.9204,-0.1559,0.3243,0.26,0.1242,-1.155,-1.2425,-5.5125,-9.446039187355485,-29.631554353996876,-0.5648437978660596,4.447999999996682
-0.5294,0.9207,-0.1526,0.3259,0.26,0.1242,-0.945,-1.225,-5.9237,-9.440096711291996,-29.618778025363767,-0.5635795951017362,4.4540000000051805
-0.5294,0.9207,-0.1526,0.3259,0.26,0.1242,-0.945,-1.225,-5.9237,-9.43515769924509,-29.608434034469482,-0.5619887641531092,4.461999999999534
-0.5302,0.9188,-0.1529,0.3262,0.2607,0.1262,-1.365,-1.645,-6.0375,-9.440151244025667,-29.61913090599479,-0.5637570486175864,4.469999999993888
-0.5324,0.9196,-0.1512,0.3262,0.2607,0.1262,-0.3938,-1.33,-5.9412,-9.413518226445305,-29.643172866712504,-0.5630643915849803,4.476999999998952
-0.5324,0.9196,-0.1468,0.3262,0.2607,0.1262,-0.3938,-1.33,-5.9412,-9.324794830479606,-29.666126440251773,-0.5623720808808906,4.484000000004016
-0.5295,0.9222,-0.1468,0.3232,0.2612,0.1231,-0.455,-1.6712,-6.0375,-9.262366387246267,-29.63727402621465,-0.564349668886856,4.49199999999837
-0.5294,0.9199,-0.155,0.3232,0.2612,0.1231,-0.455,-1.6712,-6.0375,-9.329667115089652,-29.621116904730936,-0.5660439213437881,4.498999999996158
-0.5294,0.9199,-0.152,0.3232,0.2612,0.1231,-0.665,-1.6187,-5.9412,-9.333437453259402,-29.614404766724487,-0.5671401374193972,4.504999999997381
-0.5303,0.9204,-0.152,0.3255,0.2598,0.1172,-0.805,-1.47,-5.705,-9.336055865154979,-29.61444061309609,-0.5675877935551321,4.514000000002852
-0.5299,0.9196,-0.149,0.3255,0.2598,0.1172,-0.805,-1.47,-5.705,-9.328178463587317,-29.614719595061743,-0.5678727311495837,4.520999999993364
-0.5299,0.918,-0.151,0.3255,0.2598,0.1172,-0.4725,-1.1638,-5.6438,-9.330861997408055,-29.616870869249443,-0.5662399975180985,4.527000000001863
-0.5309,0.918,-0.151,0.3237,0.2613,0.1226,-0.4725,-1.1638,-5.6438,-9.332976133160678,-29.62092104252936,-0.5634840825356535,4.538000000000466
-0.5331,0.9202,-0.1526,0.3237,0.2613,0.1226,-1.0762,-1.61,-5.9938,-9.3537479467952,-29.650886352738134,-0.5647505819858964,4.544999999998254
-0.5331,0.9217,-0.1506,0.3237,0.2613,0.1226,-0.8487,-1.2513,-6.02,-9.346605074176093,-29.667721009210787,-0.5636441469307356,4.550999999999476
-0.5317,0.9217,-0.1506,0.3247,0.2622,0.1212,-0.8487,-1.2513,-6.02,-9.340151862718653,-29.664228038924946,-0.562126235211518,4.559999999997672
-0.5269,0.9207,-0.154,0.3247,0.2622,0.1212,-0.9538,-1.5488,-6.1337,-9.36734302949384,-29.59582185159494,-0.5628052198301079,4.565999999998894
-0.5303,0.9195,-0.1508,0.3247,0.2622,0.1212,-0.9538,-1.5488,-6.1337,-9.357964529367866,-29.61103814499868,-0.5638038808684537,4.574000000000524
-0.5303,0.9195,-0.1508,0.325,0.26,0.1162,-0.6475,-1.6625,-5.9763,-9.354150761441241,-29.618676244080593,-0.5657111877764655,4.582000000002154
-0.5287,0.9193,-0.1473,0.325,0.26,0.1162,-1.0762,-1.82,-5.7925,-9.291256594994469,-29.616056866758328,-0.5684458386736239,4.588999999999942
-0.5312,0.9201,-0.1502,0.325,0.26,0.1162,-1.0762,-1.82,-5.7925,-9.286271825781633,-29.6215040166534,-0.5707480498908141,4.595000000001164
-0.5312,0.9201,-0.1502,0.3249,0.261,0.1202,-0.1838,-1.7062,-5.6262,-9.2809323615193,-29.624579882147685,-0.5730013099143858,4.603000000002794
-0.5304,0.9201,-0.1504,0.3249,0.261,0.1202,-0.1838,-1.8025,-6.2737,-9.281850021253833,-29.62876844326835,-0.5756098770005138,4.610000000000582
-0.5302,0.9202,-0.1505,0.3249,0.261,0.1202,-0.1838,-1.8025,-6.2737,-9.284255988493753,-29.626863468230983,-0.5782171398030987,4.61699999999837
-0.5302,0.9202,-0.1505,0.327,0.261,0.1212,-0.7788,-1.9162,-6.2475,-9.284409707485407,-29.625696217719707,-0.5821458252820565,4.625
-0.5297,0.9209,-0.1521,0.327,0.261,0.1212,-0.7788,-1.9162,-6.2475,-9.287766469640932,-29.607636962523262,-0.5860725464182748,4.63300000000163
-0.532,0.9207,-0.1541,0.327,0.261,0.1212,-0.84,-1.505,-6.0637,-9.306888769012783,-29.626983536219317,-0.5867093489932551,4.64100000000326
-0.532,0.9207,-0.1541,0.3236,0.2617,0.1166,-0.945,-1.7325,-5.5125,-9.339780843174747,-29.6347036842982,-0.5898521553769585,4.650999999998021
-0.5283,0.9202,-0.1504,0.3236,0.2617,0.1166,-0.945,-1.7325,-5.5125,-9.330108770370577,-29.61988747110532,-0.59230615814783,4.658999999999651
-0.532,0.919,-0.1513,0.3236,0.2617,0.1166,-0.8225,-1.47,-5.6262,-9.331522834562117,-29.626646250447077,-0.5925787365605765,4.665999999997439
-0.532,0.919,-0.1513,0.3262,0.2602,0.1219,-0.8225,-1.47,-5.6262,-9.332831340288227,-29.633008322769193,-0.5929324260404286,4.673999999999069
-0.5304,0.9183,-0.1516,0.3262,0.2602,0.1219,-1.2687,-1.4438,-6.0813,-9.34713198302494,-29.645627436624515,-0.5930213830196873,4.681000000004133
-0.53,0.9195,-0.1505,0.3262,0.2602,0.1219,-1.3913,-1.4088,-6.0637,-9.326808202855295,-29.64206447903114,-0.5928854959762102,4.689000000005763
-0.53,0.9195,-0.1505,0.3267,0.2611,0.1227,-1.3913,-1.4088,-6.0637,-9.314486810015016,-29.639473510374476,-0.5927496768759627,4.6969999999928405
-0.5302,0.9207,-0.1554,0.3267,0.2611,0.1227,-1.365,-1.61,-6.0375,-9.416558138402976,-29.62652383999939,-0.5942227208858851,4.70499999999447
-0.5327,0.9206,-0.1529,0.3267,0.2611,0.1227,-1.365,-1.61,-6.0375,-9.421727593129509,-29.65039308499831,-0.5954738510185622,4.711999999999534
-0.5327,0.9206,-0.1529,0.3263,0.2612,0.1222,-1.0325,-0.9887,-6.09,-9.423595794361582,-29.669987472710172,-0.5923774301330282,4.719000000004598
-0.5294,0.9212,-0.1501,0.3263,0.2612,0.1222,-0.6737,-1.435,-5.8888,-9.412805567941854,-29.651992319964233,-0.5924050954095228,4.725999999995111
-0.532,0.9194,-0.153,0.3263,0.2612,0.1222,-0.6737,-1.435,-5.8888,-9.415061464935949,-29.662877543988486,-0.5924790117098935,4.73399999999674
-0.532,0.9194,-0.153,0.3266,0.2624,0.119,-0.8138,-1.6363,-5.8713,-9.417284579028054,-29.671276592181083,-0.5941624858524419,4.74199999999837
-0.5287,0.9213,-0.1496,0.3266,0.2624,0.119,-0.8138,-1.6363,-5.8713,-9.40425028354862,-29.649312020958355,-0.5958451182579191,4.75
-0.5286,0.9188,-0.1544,0.3266,0.2624,0.119,-0.6737,-1.715,-5.88,-9.412855212591358,-29.63638540463679,-0.5978300696900688,4.756999999997788
-0.5286,0.9188,-0.1544,0.3258,0.2614,0.1194,-1.1638,-2.24,-6.1775,-9.45033586524703,-29.614212520687104,-0.6043380535046106,4.764999999999418
-0.5318,0.921,-0.1527,0.3258,0.2614,0.1194,-1.1638,-2.24,-6.1775,-9.439521169338366,-29.631727273823326,-0.6108427833272451,4.773000000001048
-0.5302,0.9194,-0.1482,0.3258,0.2614,0.1194,-0.98,-1.7062,-6.16,-9.385149454978148,-29.638933735004567,-0.6127586667268795,4.779999999998836
-0.5302,0.9194,-0.1482,0.3247,0.2618,0.1135,-0.98,-1.7062,-6.16,-9.341236526666775,-29.643831275300833,-0.6149909214420333,4.788000000000466
-0.5315,0.9186,-0.1502,0.3247,0.2618,0.1135,-1.3825,-1.4963,-6.44,-9.319760671235441,-29.6795216342597,-0.6154361654230744,4.794999999998254
-0.5295,0.9213,-0.1543,0.3247,0.2618,0.1135,-0.9712,-1.3125,-6.16,-9.354825285674472,-29.636789215126903,-0.6145952300825314,4.801999999996042
-0.5295,0.9213,-0.1543,0.3247,0.2621,0.1179,-0.9712,-1.3125,-6.16,-9.383347688138036,-29.607748089476406,-0.613678541315366,4.809999999997672
-0.5295,0.9215,-0.1543,0.3247,0.2621,0.1179,-0.77,-1.6275,-6.1075,-9.386699278259556,-29.588028352011918,-0.615042382287917,4.817000000002736
-0.5318,0.9212,-0.1548,0.3247,0.2621,0.1179,-0.77,-1.6275,-6.0113,-9.390871051041598,-29.603935356632928,-0.6168828785503424,4.826000000000931
-0.5318,0.9212,-0.1548,0.3254,0.2634,0.1202,-0.3675,-1.6013,-6.0113,-9.431205966036202,-29.615961109609515,-0.6189117358767705,4.836999999999534
-0.5306,0.921,-0.1506,0.3254,0.2634,0.1202,-0.7613,-1.6013,-6.055,-9.42844600751942,-29.617288737212604,-0.6203021336571785,4.845000000001164
-0.5312,0.9196,-0.1534,0.3254,0.2634,0.1202,-0.7613,-1.6013,-6.055,-9.429247384397136,-29.63227614808657,-0.6219043179439665,4.85399999999936
-0.5312,0.9196,-0.1534,0.3258,0.2622,0.1223,-0.91,-1.5838,-6.1075,-9.435172451002604,-29.64435176321369,-0.6233482798886426,4.862999999997555
-0.5313,0.9187,-0.1526,0.3258,0.2622,0.1223,-0.7962,-1.8463,-6.4313,-9.434955624685035,-29.670105806060246,-0.6266954793974437,4.870999999999185
-0.5314,0.9226,-0.1527,0.3258,0.2622,0.1223,-0.7962,-1.8463,-6.4313,-9.43304259286665,-29.64338751179727,-0.6295836460987334,4.877999999996973
-0.5314,0.9226,-0.1527,0.3261,0.2635,0.1198,-1.2687,-1.6625,-6.3525,-9.42090152683781,-29.629033869159596,-0.6317317142311814,4.887000000002445
-0.5291,0.9197,-0.1502,0.3261,0.2635,0.1198,-1.2687,-1.6625,-6.3525,-9.370668457582353,-29.61218254894161,-0.6336050572225117,4.8950000000040745
-0.5334,0.9214,-0.1514,0.3261,0.2635,0.1198,-0.5863,-1.2862,-6.37,-9.36535390798022,-29.662685597184467,-0.6325710294868726,4.901999999994587
-0.5334,0.9214,-0.1514,0.325,0.2617,0.1176,-0.63,-1.7325,-6.195,-9.361916971317148,-29.687600878212372,-0.6356909050328292,4.911999999996624
-0.5327,0.9193,-0.1516,0.325,0.2617,0.1176,-0.63,-1.7325,-6.195,-9.362152444777719,-29.71138841124147,-0.6384656045336927,4.9209999999948195
-0.5309,0.9187,-0.1521,0.325,0.2617,0.1176,-0.805,-1.3212,-6.0988,-9.364438046945057,-29.704693864717278,-0.6376065457793159,4.928999999996449
-0.5309,0.9187,-0.1521,0.3254,0.2612,0.1146,-0.805,-1.3212,-6.0988,-9.366587844265844,-29.69994678422829,-0.6365454818225206,4.939999999995052
-0.5313,0.9218,-0.1535,0.3254,0.2612,0.1146,-0.7175,-1.2163,-5.8975,-9.368670123501971,-29.686148902721524,-0.6345039511412582,4.94999999999709
-0.5331,0.9211,-0.1488,0.3254,0.2612,0.1146,-0.3938,-1.3563,-5.95,-9.319088135059065,-29.69768233611378,-0.6339275328136349,4.957999999998719
-0.5331,0.9211,-0.1519,0.3246,0.2622,0.1248,-0.3938,-1.3563,-5.95,-9.330799434828421,-29.70408869284771,-0.6332866111071621,4.968000000000757
-0.5305,0.9191,-0.1519,0.3246,0.2622,0.1248,-0.6562,-1.6013,-6.2213,-9.335032315794045,-29.68884132154415,-0.6348823031552252,4.976999999998952
-0.5308,0.9194,-0.1539,0.3246,0.2622,0.1248,-0.6562,-1.6013,-6.2213,-9.348260290188689,-29.67799985281765,-0.6364771973572643,4.985999999997148
-0.5308,0.9201,-0.1529,0.3261,0.2618,0.1132,-0.8487,-1.1988,-6.2387,-9.35664055622077,-29.665846475066108,-0.6342607883181989,4.995999999999185
-0.5311,0.9201,-0.1529,0.3261,0.2618,0.1132,-1.26,-1.4262,-5.74,-9.383404514529134,-29.665446597730593,-0.6342808812279722,5.004999999997381
-0.5293,0.9206,-0.152,0.3261,0.2618,0.1132,-1.26,-1.4262,-5.74,-9.380708094780905,-29.66053093374802,-0.6343009640915632,5.014000000002852
-0.5293,0.919,-0.152,0.3278,0.2615,0.1167,-0.6475,-1.715,-5.9412,-9.381641505811093,-29.649660440402233,-0.637245062170182,5.024000000004889
-0.5294,0.919,-0.152,0.3278,0.2615,0.1167,-0.6475,-1.715,-5.9412,-9.382494458652685,-29.641920156632025,-0.6395354384852556,5.031999999999243
-0.5325,0.9206,-0.1523,0.3278,0.2615,0.1167,-1.085,-1.7413,-6.2825,-9.385352071606535,-29.668081436093356,-0.6420349644120233,5.039999999993597
-0.5301,0.9201,-0.1516,0.3244,0.2621,0.1223,-1.4787,-1.8375,-6.1163,-9.373009781149301,-29.652737333817353,-0.6461995829907312,5.049999999995634
-0.5301,0.9201,-0.1516,0.3244,0.2621,0.1223,-1.4787,-1.8375,-6.1163,-9.365903732135164,-29.641990245033284,-0.6494649920479669,5.057999999997264
-0.5333,0.9195,-0.1556,0.3244,0.2621,0.1223,-1.1725,-1.7325,-5.7488,-9.437799415585923,-29.648892828694244,-0.651889188400503,5.065999999998894
-0.5311,0.9194,-0.1553,0.3241,0.261,0.1166,-1.1725,-1.7325,-6.0375,-9.482889682204554,-29.6531721802234,-0.6560302531839627,5.0789999999979045
-0.5311,0.9194,-0.1553,0.3241,0.261,0.1166,-1.3737,-1.5838,-6.0375,-9.523429311547787,-29.65634454939276,-0.6574571521610189,5.0879999999961
-0.5317,0.9206,-0.1501,0.3241,0.261,0.1166,-0.6825,-1.3737,-6.0287,-9.508695423279116,-29.663485588713286,-0.6570233921268623,5.095000000001164
-0.5312,0.92,-0.1541,0.326,0.2626,0.12,-0.6825,-1.3737,-6.0287,-9.508699709715271,-29.66252514021562,-0.6565598399848259,5.10399999999936
-0.5312,0.92,-0.1541,0.326,0.2626,0.12,-0.5075,-1.47,-5.9675,-9.508713425619304,-29.661909287723756,-0.6569627862686869,5.112999999997555
-0.5314,0.9218,-0.1519,0.326,0.2626,0.12,-0.7525,-1.6275,-5.8538,-9.50711648823084,-29.65761628770269,-0.6583049851170246,5.119999999995343
-0.5309,0.9199,-0.1498,0.3251,0.2609,0.1118,-0.7525,-1.6275,-5.8538,-9.504392011145484,-29.658933802085176,-0.6603625186866889,5.130000000004657
-0.5309,0.9199,-0.1498,0.3251,0.2609,0.1118,-0.91,-1.89,-6.405,-9.467636478082381,-29.662261776674846,-0.6645416736267961,5.138999999995576
-0.5303,0.9198,-0.1512,0.3251,0.2609,0.1118,-0.91,-1.89,-6.405,-9.448541784230905,-29.651168711050417,-0.6672156269265952,5.144999999996799
-0.5306,0.919,-0.1532,0.3259,0.2614,0.1091,-0.7,-2.1,-6.0375,-9.449176245507097,-29.65393023020246,-0.6725694779622906,5.152999999998428
-0.5306,0.919,-0.1532,0.3259,0.2614,0.1091,-0.945,-1.7413,-5.8975,-9.451737554656981,-29.65529801105388,-0.6747000751670942,5.1600000000034925
-0.5288,0.9212,-0.1515,0.3259,0.2614,0.1091,-0.945,-1.7413,-5.8975,-9.432739087085123,-29.63334834418127,-0.6764771953633772,5.165999999997439
-0.5285,0.9184,-0.1525,0.3245,0.2594,0.1154,-1.1375,-1.295,-5.9325,-9.431373414373864,-29.623454554421766,-0.6753896356135429,5.173999999999069
-0.5285,0.9184,-0.1525,0.3245,0.2594,0.1154,-1.1375,-1.295,-5.9325,-9.430394908184898,-29.615500995575093,-0.6743962847872618,5.181000000004133
-0.5314,0.9198,-0.153,0.3245,0.2594,0.1154,-0.91,-1.8463,-6.1775,-9.432373498272304,-29.63634507019166,-0.6772606010825288,5.187999999994645
-0.5325,0.9218,-0.1505,0.326,0.2609,0.1208,-0.8225,-1.8988,-5.7663,-9.420455923821377,-29.64011182363122,-0.678451469652154,5.190999999998894
-0.5325,0.9218,-0.1505,0.326,0.2609,0.1208,-0.8225,-1.8988,-5.7663,-9.409427984281104,-29.64360685579519,-0.6827007405241176,5.200000000004366
-0.5283,0.9215,-0.1479,0.326,0.2609,0.1208,-1.0412,-1.6888,-5.8012,-9.342321236072644,-29.630329502716222,-0.6841590178880399,5.205999999998312
-0.5292,0.9189,-0.1511,0.3255,0.2595,0.1205,-1.0412,-1.6888,-5.8012,-9.341304737292067,-29.62811547989459,-0.6859165040704325,5.2129999999961
-0.5292,0.9189,-0.1511,0.3255,0.2595,0.1205,-1.3825,-1.6363,-6.23,-9.339978837512776,-29.621211548167278,-0.6875532594668006,5.22099999999773
-0.5311,0.9192,-0.153,0.3255,0.2595,0.1205,-1.1812,-1.8988,-6.3263,-9.373621716604054,-29.644379389081877,-0.6907783135316491,5.228000000002794
-0.5305,0.9198,-0.1492,0.3261,0.2619,0.1198,-1.1812,-1.8988,-6.3263,-9.324790379912615,-29.647927449320914,-0.6945115880200048,5.235999999997148
-0.5305,0.9198,-0.1492,0.3261,0.2619,0.1198,-0.9887,-1.5488,-6.125,-9.302785663487812,-29.649617829699228,-0.6956044038297061,5.244999999995343
-0.5302,0.92,-0.1517,0.3261,0.2619,0.1198,-0.9887,-1.5488,-6.125,-9.314771447777945,-29.641738285874048,-0.6966966732326667,5.254000000000815
-0.5308,0.9192,-0.1527,0.3246,0.2606,0.1142,-0.7613,-1.8637,-6.055,-9.31701032894213,-29.64880336316237,-0.6996715784370003,5.260999999998603
-0.5308,0.9192,-0.1527,0.3246,0.2606,0.1142,-0.7613,-1.9162,-6.09,-9.319206449444021,-29.654326147843726,-0.704593985208856,5.27100000000064
-0.5323,0.921,-0.1557,0.3246,0.2606,0.1142,-0.7613,-1.9162,-6.09,-9.324482158441162,-29.661002994008506,-0.7079322580109215,5.278000000005704
-0.5298,0.9219,-0.156,0.3258,0.2601,0.1292,-0.805,-1.4612,-6.0988,-9.341112260114237,-29.62495540512346,-0.7080130024174774,5.283999999999651
-0.5298,0.9219,-0.156,0.3258,0.2601,0.1292,-0.805,-1.4612,-6.195,-9.356754242140717,-29.595415307090516,-0.708311061720138,5.292999999997846
-0.5295,0.9191,-0.1524,0.3258,0.2601,0.1292,-0.8575,-1.26,-6.195,-9.3627726681666,-29.60085591969164,-0.7067990773935101,5.301999999996042
-0.5307,0.919,-0.1507,0.3254,0.2614,0.1226,-0.8138,-1.89,-6.0988,-9.3594059746347,-29.623087132474264,-0.7099529393493507,5.309000000001106
-0.5307,0.919,-0.1507,0.3254,0.2614,0.1226,-0.8138,-1.89,-6.0988,-9.356265317348356,-29.638851210902217,-0.7141072990827719,5.3179999999993015
-0.5314,0.9206,-0.1539,0.3254,0.2614,0.1226,-0.8662,-1.6363,-6.09,-9.371122274823634,-29.643254335787233,-0.7154824948746832,5.32499999999709
-0.5291,0.9198,-0.1543,0.3258,0.2612,0.1175,-0.6388,-1.6888,-5.8362,-9.385300974797472,-29.633384250554563,-0.7172243193207648,5.332000000002154
-0.5291,0.9198,-0.1543,0.3258,0.2612,0.1175,-0.6388,-1.6888,-5.8362,-9.398155305892884,-29.624783955835664,-0.7192652108074109,5.3399999999965075
-0.5315,0.9206,-0.1551,0.3258,0.2612,0.1175,-1.1287,-1.8463,-6.3175,-9.444199954499663,-29.635916342528137,-0.7221070926463233,5.347000000001572
-0.5281,0.919,-0.1511,0.3256,0.2614,0.1227,-1.1287,-1.8463,-6.3175,-9.414271467459638,-29.604547287932473,-0.7249475535409885,5.35399999999936
-0.5281,0.919,-0.1511,0.3256,0.2614,0.1227,-0.8925,-1.2775,-6.615,-9.40414175565827,-29.580561621563284,-0.7236958286120369,5.3620000000009895
-0.5305,0.9186,-0.1483,0.3256,0.2614,0.1205,-1.05,-1.5313,-6.1337,-9.349167620984138,-29.613854892804746,-0.7244741143459631,5.370000000002619
-0.528,0.9202,-0.155,0.3244,0.2601,0.1205,-1.05,-1.5313,-6.1337,-9.399127215244157,-29.579383554013244,-0.7251094942304749,5.3770000000004075
-0.528,0.9202,-0.155,0.3244,0.2601,0.1205,-0.9013,-1.7325,-5.8012,-9.421424345031722,-29.57154362825821,-0.7274958683294195,5.384999999994761
-0.5302,0.9216,-0.155,0.3244,0.2612,0.1181,-0.9013,-1.7325,-5.8012,-9.438693915615856,-29.571164060971668,-0.7298810492438148,5.392999999996391
-0.5292,0.9212,-0.1537,0.3256,0.2612,0.1181,-1.2337,-2.0213,-5.88,-9.449809440172167,-29.56574153677301,-0.7333097389559657,5.3989999999976135
-0.5292,0.9212,-0.1537,0.3256,0.2612,0.1181,-0.665,-1.7675,-6.3875,-9.451421782227504,-29.5540889819933,-0.7359718729351048,5.406999999999243
-0.5295,0.9179,-0.1505,0.3262,0.2614,0.1141,-0.665,-1.7675,-6.3875,-9.441434077571344,-29.593996596074277,-0.7386326758472543,5.415000000000873
-0.533,0.9191,-0.1549,0.3262,0.2614,0.1141,-0.6388,-1.3825,-6.265,-9.453107850756627,-29.655833770706522,-0.7382198972513445,5.421999999998661
-0.533,0.9191,-0.1549,0.3262,0.2614,0.1141,-0.6388,-1.3825,-6.265,-9.463691229058814,-29.695059480853235,-0.7378011161507088,5.430000000000291
-0.5306,0.9212,-0.1546,0.3259,0.261,0.115,-0.875,-1.5137,-5.9062,-9.471114906018276,-29.677795924311766,-0.7383066941343571,5.436999999998079
-0.5274,0.9214,-0.1484,0.3259,0.261,0.115,-0.9538,-1.6712,-6.2038,-9.414855249978249,-29.60751371413238,-0.7401963148357501,5.444999999999709
-0.5274,0.9214,-0.1532,0.3259,0.261,0.115,-0.9538,-1.6712,-6.2038,-9.419276871701413,-29.55420250473126,-0.7423673374818228,5.4539999999979045
-0.5289,0.9198,-0.1532,0.3252,0.2613,0.1258,-1.085,-1.2425,-6.475,-9.428726140193314,-29.55764378896678,-0.7409731815554053,5.460999999995693
-0.5323,0.9184,-0.1506,0.3252,0.2613,0.1258,-1.085,-1.2425,-6.475,-9.399038734996168,-29.650099397540853,-0.7395797227058875,5.468000000000757
-0.5323,0.9184,-0.1496,0.3252,0.2613,0.1258,-0.6562,-1.26,-5.8275,-9.387422614264796,-29.66496339787278,-0.7380521040487666,5.476999999998952
-0.5306,0.9196,-0.1496,0.3266,0.261,0.1184,-1.1025,-1.365,-5.9325,-9.348319501142566,-29.66431528857852,-0.7375171769886222,5.484000000004016
-0.5295,0.9201,-0.1515,0.3266,0.261,0.1184,-1.1025,-1.365,-5.9325,-9.348817309531883,-29.649628739126317,-0.7369588172482617,5.49199999999837
-0.5295,0.9197,-0.1532,0.3266,0.261,0.1184,-0.595,-1.3737,-6.3263,-9.362702670635358,-29.62738561620609,-0.7364552973936647,5.500999999996566
-0.5318,0.9197,-0.1532,0.3235,0.261,0.1165,-0.595,-1.3737,-6.2038,-9.374810283107204,-29.651827732897726,-0.7359820382868919,5.50800000000163
-0.5289,0.9198,-0.1492,0.3235,0.261,0.1165,-0.6562,-1.61,-6.2038,-9.362098857821607,-29.627109966755103,-0.7371622887592593,5.514999999999418
-0.5296,0.9187,-0.152,0.3235,0.261,0.1165,-0.3063,-1.4787,-6.1075,-9.371943964777776,-29.62749232359295,-0.7375132516630263,5.523000000001048
-0.5296,0.9187,-0.152,0.3276,0.2631,0.117,-0.3063,-1.4787,-6.1075,-9.378802138284662,-29.627761789173253,-0.7377740960789959,5.529999999998836
-0.5299,0.9189,-0.1534,0.3276,0.2631,0.117,-0.7962,-1.4875,-5.9763,-9.383891115206351,-29.628499998371808,-0.738096379272738,5.536999999996624
-0.5303,0.9202,-0.1509,0.3276,0.2631,0.117,-0.7962,-1.3388,-5.6875,-9.380226318318925,-29.628497937125193,-0.7373282347310203,5.544999999998254
-0.5303,0.9202,-0.1509,0.3269,0.2615,0.1218,-0.8662,-1.3388,-5.6875,-9.372770555569705,-29.628495878050906,-0.7365604742615735,5.552999999999884
-0.53,0.9213,-0.1518,0.3269,0.2615,0.1218,-0.4462,-1.4612,-5.9763,-9.369034847865526,-29.61769125665743,-0.7366993563162824,5.559999999997672
-0.5301,0.9201,-0.1505,0.3269,0.2615,0.1218,-0.4462,-1.4612,-5.9763,-9.350900619990634,-29.61855794866377,-0.7369106206862422,5.5679999999993015
-0.5301,0.9201,-0.1505,0.3257,0.2602,0.1182,-0.2887,-1.0938,-6.0988,-9.331772612989305,-29.619434153676004,-0.7344788135685512,5.57499999999709
-0.53,0.921,-0.1498,0.3257,0.2602,0.1182,-0.6737,-1.1638,-6.125,-9.325805494738507,-29.61245411358269,-0.7325379773526285,5.582000000002154
-0.5309,0.92,-0.1502,0.3257,0.2602,0.1182,-0.6737,-1.1638,-6.125,-9.322396183162025,-29.62768910881538,-0.7310477106445411,5.586999999999534
-0.5309,0.92,-0.1502,0.325,0.2615,0.1182,-1.2163,-1.9775,-6.23,-9.306293134078173,-29.63995048210247,-0.734801642034199,5.594000000004598
-0.53,0.9192,-0.1501,0.325,0.2615,0.1182,-1.2163,-1.9775,-6.23,-9.295969900293796,-29.6407054797768,-0.7385536964495983,5.600999999995111
-0.5301,0.9199,-0.1525,0.325,0.2615,0.1182,-1.3475,-1.4175,-5.5037,-9.340048108462799,-29.637194325776225,-0.7383282876315076,5.605999999999767
-0.5301,0.9199,-0.1525,0.325,0.2612,0.117,-0.875,-1.3563,-5.7925,-9.348600771488313,-29.63540588384758,-0.7376675613417504,5.614999999997963
-0.5295,0.9221,-0.151,0.325,0.2612,0.117,-0.875,-1.3563,-5.7925,-9.342891553101756,-29.62638214463529,-0.7370719570029155,5.622000000003027
-0.5302,0.9188,-0.1511,0.325,0.2612,0.117,-0.6388,-1.8025,-5.8975,-9.342519439271035,-29.63177020099351,-0.7391849076579103,5.627999999996973
-0.5302,0.9188,-0.1511,0.3257,0.262,0.1182,-0.6388,-1.8025,-5.8975,-9.342182082927076,-29.63622702604198,-0.7421239640527555,5.635999999998603
-0.5314,0.9182,-0.1543,0.3257,0.262,0.1182,-0.7875,-1.6712,-6.3,-9.350787476801836,-29.666140733089566,-0.7437293293641589,5.643000000003667
-0.5319,0.9209,-0.1509,0.3257,0.262,0.1182,-0.8925,-1.0237,-6.51,-9.344905605760577,-29.673526616473065,-0.7408036582449383,5.649999999994179
-0.5319,0.9209,-0.1509,0.3234,0.2616,0.1234,-0.8925,-1.0237,-6.51,-9.33979391784869,-29.677581574697708,-0.7389739384368641,5.65400000000227
-0.5291,0.9211,-0.1483,0.3234,0.2616,0.1234,-1.2425,-1.6187,-6.1337,-9.275241483548054,-29.640862203064557,-0.7404434355160203,5.6620000000039
-0.5294,0.9201,-0.1518,0.3234,0.2616,0.1234,-1.2425,-1.6187,-6.1337,-9.306317037227466,-29.62319024732848,-0.7416823248380814,5.668999999994412
-0.5294,0.9201,-0.1518,0.3255,0.261,0.119,-1.4438,-1.4875,-5.985,-9.33191665338215,-29.61411260330517,-0.7418051767061221,5.673999999999069
-0.5302,0.9188,-0.1488,0.3255,0.261,0.119,-0.7088,-1.5313,-5.8538,-9.327673381314758,-29.621663985760193,-0.7427169244715119,5.682999999997264
-0.5298,0.9204,-0.1494,0.3255,0.261,0.119,-0.7088,-1.5313,-5.8538,-9.324226869060583,-29.61922847706154,-0.7434856996575084,5.690999999998894
-0.5298,0.9204,-0.1494,0.3265,0.2614,0.1185,-0.525,-1.5313,-5.8625,-9.305632895144546,-29.617044613224753,-0.7441115737493644,5.697999999996682
-0.5298,0.9202,-0.1513,0.3265,0.2614,0.1185,-0.525,-1.5313,-5.8625,-9.31123556682963,-29.614758272466407,-0.7447371349052115,5.705000000001746
-0.5297,0.9209,-0.1509,0.3265,0.2614,0.1185,-0.2887,-1.3475,-5.9325,-9.309561724873893,-29.608032412160327,-0.7440764265798501,5.711999999999534
-0.5297,0.9209,-0.1509,0.3246,0.2626,0.1154,-1.0675,-1.4262,-5.7137,-9.308654247253362,-29.607356138825075,-0.7439666731584773,5.7189999999973224
-0.532,0.9198,-0.148,0.3246,0.2626,0.1154,-1.0675,-1.4262,-5.7137,-9.267418996280481,-29.6103193846214,-0.7438944438699592,5.726999999998952
-0.5302,0.9192,-0.1504,0.3246,0.2626,0.1154,-0.9363,-1.5313,-6.1337,-9.271490302692111,-29.622576938761217,-0.7448051470017671,5.735999999997148
-0.5302,0.9192,-0.1504,0.325,0.2617,0.1192,-0.9363,-1.4525,-6.405,-9.274898762513763,-29.634070517747848,-0.7449427932763703,5.743999999998778
-0.5291,0.9197,-0.1515,0.325,0.2617,0.1192,-0.7175,-1.4525,-6.405,-9.276782075968269,-29.612022449062678,-0.7451441268336171,5.752999999996973
-0.5311,0.9201,-0.1509,0.325,0.2617,0.1192,-1.0675,-1.4088,-6.4925,-9.285880314132855,-29.63620324273786,-0.744912100462302,5.760000000002037
-0.5311,0.9201,-0.1509,0.3248,0.2618,0.1172,-1.0675,-1.4088,-6.4925,-9.292743433386866,-29.6496076390333,-0.7446601121479494,5.765999999995984
-0.5311,0.9211,-0.1515,0.3248,0.2618,0.1172,-1.19,-1.26,-5.7925,-9.307437858764072,-29.648482443437878,-0.7431299532951716,5.775000000001455
-0.5275,0.9205,-0.1488,0.3248,0.2618,0.1172,-0.7262,-1.6013,-6.055,-9.305515294405769,-29.607983880616775,-0.7440332785547839,5.7810000000026776
-0.5275,0.9205,-0.1488,0.3277,0.2622,0.1119,-0.7262,-1.6013,-6.055,-9.303622315416096,-29.57834597874652,-0.7451486338570366,5.788000000000466
-0.5308,0.9195,-0.1516,0.3277,0.2622,0.1119,-1.1287,-1.8375,-5.8888,-9.319978699969235,-29.59280408964729,-0.7488131319932987,5.796999999998661
-0.5295,0.922,-0.1523,0.3277,0.2622,0.1119,-1.1287,-1.8375,-5.8888,-9.336629480371716,-29.58342984317209,-0.7524757978804927,5.805999999996857
-0.5295,0.922,-0.1523,0.3254,0.2608,0.1218,-1.1463,-1.5313,-5.7488,-9.349024380440905,-29.580769795236094,-0.7530971769242742,5.813000000001921
-0.53,0.9202,-0.1481,0.3254,0.2608,0.1218,-1.1638,-1.4787,-6.0025,-9.287876305115072,-29.591211245153243,-0.7534401723839588,5.821000000003551
-0.5311,0.921,-0.1548,0.3254,0.2608,0.1218,-1.1638,-1.4787,-6.0025,-9.362988555413368,-29.599519652331704,-0.7536930533395679,5.828000000001339
-0.5311,0.921,-0.1548,0.3256,0.2618,0.1204,-0.6475,-1.4612,-5.9763,-9.378332092604216,-29.605433118481276,-0.7538233691047379,5.834999999999127
-0.5303,0.9191,-0.1497,0.3256,0.2618,0.1204,-0.6475,-1.4612,-5.9763,-9.367348952513007,-29.617704917985918,-0.7540985232240549,5.8439999999973224
-0.532,0.9185,-0.1532,0.3256,0.2618,0.1204,-1.1113,-1.47,-5.8538,-9.394882220844686,-29.635030476918626,-0.7544527001662963,5.852999999995518
-0.532,0.9185,-0.1532,0.3258,0.2607,0.1202,-1.0588,-1.7237,-5.9763,-9.412818019892434,-29.65845856457255,-0.7564192173599087,5.860000000000582
-0.5291,0.9207,-0.1532,0.3258,0.2607,0.1202,-1.0588,-1.7237,-5.9763,-9.421089371699525,-29.63375868667056,-0.7587195717997745,5.868000000002212
-0.5307,0.9223,-0.1505,0.3258,0.2607,0.1202,-0.5337,-1.5662,-6.0725,-9.394679149475108,-29.62221883414077,-0.7595820068054822,5.875
-0.5307,0.9223,-0.1505,0.3253,0.26,0.1218,-0.5337,-1.5662,-6.0725,-9.372818717166625,-29.613880459039308,-0.7602666113382963,5.881000000001222
-0.5297,0.9196,-0.1504,0.3253,0.26,0.1218,-1.0762,-1.89,-6.1775,-9.35167836096799,-29.614723014548403,-0.7638947768814438,5.889000000002852
-0.5308,0.9201,-0.1544,0.3253,0.26,0.1218,-1.1113,-1.4438,-5.9938,-9.39868937031522,-29.61998705980894,-0.7638982526848813,5.89600000000064
-0.5308,0.9201,-0.1509,0.3272,0.2615,0.1274,-1.1113,-1.4438,-5.9938,-9.375791623366554,-29.627557804000208,-0.7640118476624396,5.904999999998836
-0.5303,0.9202,-0.1509,0.3272,0.2615,0.1274,-0.7175,-1.6625,-5.6962,-9.3742960408047,-29.627550113401345,-0.7658190505870544,5.913000000000466
-0.5306,0.921,-0.1497,0.3272,0.2615,0.1274,-0.7175,-1.6625,-5.6962,-9.3709201238813,-29.627528734639817,-0.7673516988031557,5.919999999998254
-0.5306,0.9176,-0.1507,0.3241,0.2617,0.1274,-0.5863,-1.7413,-6.0725,-9.364953014795981,-29.650195845622253,-0.7694349048975387,5.927000000003318
-0.5291,0.9176,-0.1507,0.3241,0.2617,0.1274,-0.5688,-1.3388,-6.2562,-9.359293714405755,-29.646309264170878,-0.7686510910933717,5.934999999997672
-0.5298,0.9188,-0.1521,0.3241,0.2617,0.1274,-0.5688,-1.3388,-6.2562,-9.365241257816086,-29.642091697285064,-0.7679175562399354,5.94199999999546
-0.5455,0.9216,-0.1516,0.3262,0.2593,0.1154,-0.91,-1.4262,-6.125,-9.361794728685123,-29.838137522866145,-0.7677958822540052,5.949000000000524
-0.5312,0.9216,-0.1516,0.3262,0.2593,0.1154,-0.91,-1.4262,-5.9763,-9.358844365141632,-29.791373464045225,-0.7677492076168105,5.957999999998719
-0.5298,0.9207,-0.1488,0.3262,0.2593,0.1154,-1.295,-1.2337,-5.9763,-9.295340912483974,-29.748433998388087,-0.7661258570607496,5.966000000000349
-0.5303,0.9193,-0.1518,0.3241,0.261,0.1206,-1.2862,-1.2687,-5.9412,-9.323910649456712,-29.727803455581856,-0.7649031301744846,5.972999999998137
-0.5303,0.9193,-0.1518,0.3241,0.261,0.1206,-1.2862,-1.2687,-5.9412,-9.342409920015884,-29.711333870977892,-0.7633211586700258,5.982999999992899
-0.5308,0.9191,-0.1539,0.3241,0.261,0.1206,-1.2687,-1.2775,-6.2038,-9.398785257333367,-29.695738755718462,-0.7621614033321279,5.989999999997963
-0.5312,0.9204,-0.1512,0.3257,0.2605,0.1222,-0.7875,-1.7763,-5.9763,-9.395738175427253,-29.688158342552626,-0.7644920820744237,5.997000000003027
-0.5312,0.9204,-0.1512,0.3257,0.2605,0.1222,-0.7875,-1.7763,-5.9763,-9.392824178667166,-29.68227176317096,-0.7672089896820178,6.005000000004657
-0.5305,0.9196,-0.154,0.3257,0.2605,0.1222,-0.7,-1.4963,-5.7225,-9.397399135756599,-29.68082080144311,-0.7679007272466135,6.014999999999418
-0.5305,0.9201,-0.1542,0.3262,0.2606,0.1152,-0.7,-1.4963,-5.7225,-9.402073163659946,-29.678961411394468,-0.7682695163247524,6.021999999997206
-0.5305,0.9201,-0.1542,0.3262,0.2606,0.1152,-1.0063,-1.5662,-5.775,-9.425444470783665,-29.67460301403913,-0.7696593741269515,6.031999999999243
-0.5325,0.9212,-0.1498,0.3262,0.2606,0.1152,-0.7788,-1.8637,-5.9412,-9.418699100318475,-29.681172320158534,-0.7725977979808379,6.038999999997031
-0.5317,0.9206,-0.1518,0.3254,0.2619,0.1182,-0.7788,-1.8637,-5.9412,-9.416727057235336,-29.680373516204817,-0.7750600021184278,6.044999999998254
-0.5317,0.9206,-0.1518,0.3254,0.2619,0.1182,-1.085,-1.6712,-6.335,-9.40309898349499,-29.679132110173043,-0.7769312461658289,6.052999999999884
-0.5307,0.9207,-0.1543,0.3254,0.2619,0.1182,-1.085,-1.6712,-6.335,-9.431377465487438,-29.6549013809665,-0.7788015545891518,6.060999999994237
-0.5303,0.9207,-0.1501,0.3234,0.2623,0.1189,-1.3388,-1.4262,-6.8075,-9.367076685131002,-29.634848220768966,-0.7786369693481757,6.067000000002736
-0.5303,0.9207,-0.1501,0.3234,0.2623,0.1189,-0.8575,-1.26,-6.5275,-9.355909303572504,-29.62667225935875,-0.7770898220677338,6.076000000000931
-0.5313,0.9206,-0.148,0.3234,0.2623,0.1189,-0.8575,-1.26,-6.5275,-9.332797725697464,-29.64862883913197,-0.7755434483609321,6.084999999999127
-0.5292,0.9197,-0.1509,0.3256,0.2623,0.1266,-0.9975,-1.3212,-6.4837,-9.329743380325557,-29.621980211197908,-0.77468332892841,6.092000000004191
-0.5292,0.9197,-0.1509,0.3256,0.2623,0.1266,-0.9975,-1.3212,-6.4837,-9.32731093952545,-29.607135378087456,-0.7736886830685585,6.100999999995111
-0.5328,0.9202,-0.1493,0.3256,0.2623,0.1266,-1.3475,-1.47,-6.51,-9.285241254548469,-29.671249616567994,-0.7738705702194357,6.108000000000175
-0.528,0.9199,-0.1501,0.3265,0.2579,0.115,-0.8838,-1.5925,-6.1687,-9.283008019509474,-29.625705834290397,-0.7751131237826581,6.116000000001804
-0.528,0.9199,-0.1501,0.3265,0.2579,0.115,-0.8838,-1.5925,-6.1687,-9.281052422529344,-29.594936023037047,-0.7763550560690987,6.124000000003434
-0.5325,0.9204,-0.1537,0.3265,0.2579,0.115,-1.0325,-1.295,-6.2125,-9.325968006900567,-29.634934490383394,-0.7752175573889115,6.132000000005064
-0.5303,0.9203,-0.1505,0.3254,0.261,0.1205,-1.0325,-1.295,-6.2125,-9.317321733685354,-29.631740799999406,-0.7740806274587458,6.139999999999418
-0.5303,0.9203,-0.1505,0.3254,0.261,0.1205,-1.505,-1.6363,-6.2562,-9.304446513198675,-29.629533627859566,-0.77592076499857,6.1489999999976135
-0.5311,0.9187,-0.15,0.3254,0.261,0.1205,-1.225,-1.8375,-5.9763,-9.294234034589303,-29.646773124037473,-0.7786727498603423,6.1560000000026776
-0.5307,0.9189,-0.1539,0.3246,0.2597,0.121,-1.225,-1.8375,-5.9763,-9.36381262779999,-29.6510793965647,-0.7823204859386027,6.165000000000873
-0.5307,0.9189,-0.1539,0.3246,0.2597,0.121,-0.56,-1.3825,-5.9325,-9.385968216351191,-29.654014236821233,-0.7818734456496447,6.173999999999069
-0.5285,0.9201,-0.1498,0.3246,0.2597,0.121,-0.56,-1.3825,-5.6962,-9.3646028443975,-29.653226462211126,-0.7814328377748098,6.1820000000006985
-0.5292,0.9192,-0.1528,0.3241,0.261,0.1226,-1.1463,-1.4438,-5.6962,-9.38575805785003,-29.652771924251457,-0.7813724840915891,6.187999999994645
-0.5292,0.9192,-0.1528,0.3241,0.261,0.1226,-0.7,-1.6187,-5.9062,-9.387858018045637,-29.64214467973546,-0.7830506549048011,6.197000000000116
-0.5306,0.9203,-0.1549,0.3241,0.261,0.1226,-0.7,-1.6187,-5.9062,-9.394535366199342,-29.638286949786746,-0.7844981136257233,6.205000000001746
-0.5291,0.9218,-0.1452,0.326,0.2621,0.1214,-0.595,-1.5838,-5.9062,-9.337820967817763,-29.623043574585406,-0.7854707977604792,6.211999999999534
-0.5291,0.9218,-0.1452,0.326,0.2621,0.1214,-0.1312,-1.715,-6.0988,-9.191379727009982,-29.60266934606025,-0.7880131860673835,6.221000000005006
-0.5299,0.9174,-0.1498,0.326,0.2621,0.1214,-0.1312,-1.715,-6.0988,-9.222643677987797,-29.626844883727866,-0.7899020534632556,6.227999999995518
-0.5297,0.9185,-0.1548,0.3234,0.2606,0.1246,-0.5163,-1.155,-5.985,-9.285918726252714,-29.626669112784025,-0.7874047461392459,6.2370000000009895
-0.5297,0.9185,-0.1548,0.3234,0.2606,0.1246,-0.5163,-1.155,-5.985,-9.33754953079909,-29.62653353360879,-0.7844414971825027,6.2479999999995925
-0.5314,0.9207,-0.155,0.3234,0.2606,0.1246,-0.8662,-1.5313,-5.9588,-9.361729447491479,-29.63084900293099,-0.7850468933755962,6.254999999997381
-0.5292,0.9198,-0.1523,0.3259,0.2608,0.1146,-0.8225,-1.7062,-5.9938,-9.364713472901755,-29.61892322302487,-0.7871930039774255,6.2629999999990105
-0.5292,0.9198,-0.1523,0.3259,0.2608,0.1146,-0.8225,-1.7062,-5.9938,-9.367474743825355,-29.609786409701613,-0.7896553707788643,6.271999999997206
-0.5278,0.9195,-0.1512,0.3259,0.2608,0.1146,-0.6037,-1.68,-5.915,-9.363896389369112,-29.594549469936464,-0.7915896819419493,6.279999999998836
-0.5311,0.9191,-0.1518,0.3241,0.2608,0.1146,-0.6037,-1.68,-5.915,-9.365656237845377,-29.61189800157725,-0.7932318835923344,6.286999999996624
-0.5311,0.9191,-0.1518,0.3241,0.2608,0.1146,-0.6125,-1.4438,-5.8187,-9.36711527330803,-29.620720534883795,-0.793275751298628,6.294999999998254
-0.5289,0.921,-0.1521,0.3241,0.2608,0.1183,-0.8313,-1.5575,-5.8713,-9.367973088424307,-29.60756414708527,-0.7942287422712537,6.302999999999884
-0.5325,0.9199,-0.1496,0.3256,0.2611,0.1183,-0.8313,-1.5575,-5.8713,-9.357212248644023,-29.628330517690994,-0.7950125531429724,6.310000000004948
-0.5325,0.9199,-0.1496,0.3256,0.2611,0.1183,-0.98,-1.7763,-5.9237,-9.334077108960477,-29.64996432220362,-0.7977142005122136,6.3179999999993015
-0.5298,0.9195,-0.1527,0.3256,0.2612,0.1196,-0.98,-1.7763,-5.9237,-9.352331142814133,-29.643083270012298,-0.8000271028531007,6.32499999999709
-0.5317,0.9195,-0.1532,0.3224,0.2612,0.1196,-0.6825,-1.5225,-6.2125,-9.358321547155244,-29.662598907196696,-0.8006968581498921,6.332999999998719
-0.5317,0.9195,-0.1532,0.3224,0.2612,0.1196,-0.4025,-1.7237,-6.3,-9.38390285911247,-29.67673205647109,-0.802975073769363,6.341000000000349
-0.5321,0.9186,-0.1515,0.3266,0.2606,0.1176,-0.4025,-1.7237,-6.3,-9.379163178885982,-29.70425781394132,-0.805252150281024,6.349000000001979
-0.5313,0.9221,-0.1505,0.3266,0.2606,0.1176,-0.8575,-1.5313,-5.6962,-9.367820522304164,-29.703657789808766,-0.8057046244410208,6.3549999999959255
-0.5313,0.9221,-0.1546,0.3266,0.2606,0.1176,-0.8575,-1.5313,-5.6962,-9.383363108766087,-29.70292859863447,-0.8067269391890907,6.364999999997963
-0.5301,0.9201,-0.1546,0.3261,0.2605,0.1221,-0.9887,-1.8375,-6.1425,-9.413988116351998,-29.67200148461143,-0.8099120845682273,6.3729999999995925
-0.5308,0.9198,-0.1551,0.3261,0.2605,0.1221,-0.9538,-1.295,-6.2038,-9.441515931309647,-29.66179194941179,-0.8088514725181504,6.379999999997381
-0.5308,0.9198,-0.152,0.3261,0.2605,0.1221,-0.9538,-1.295,-6.2038,-9.431371486684766,-29.659638887537625,-0.8076977256297387,6.3879999999990105
-0.5297,0.9203,-0.152,0.3252,0.2609,0.1208,-0.805,-1.5575,-5.7925,-9.42823036832422,-29.65321023621186,-0.8088122092218469,6.397000000004482
-0.5265,0.9197,-0.1493,0.3252,0.2609,0.1208,-0.805,-1.5575,-6.0287,-9.4158997698261,-29.60660230295622,-0.8095887283576354,6.403999999994994
-0.5265,0.9196,-0.1499,0.3252,0.2609,0.1208,-0.9538,-1.7413,-6.0287,-9.388302781990397,-29.571839846808817,-0.8123556393493848,6.413000000000466
-0.53,0.9196,-0.1499,0.3252,0.26,0.1155,-1.0237,-1.7237,-6.1425,-9.359674762302934,-29.59078356826388,-0.8142932050709696,6.419999999998254
-0.5284,0.9195,-0.1527,0.3252,0.26,0.1155,-1.0237,-1.7237,-6.1425,-9.374912925985123,-29.57765514342678,-0.8165646225169798,6.427999999999884
-0.5284,0.9208,-0.1547,0.3252,0.26,0.1155,-0.4375,-1.6712,-6.0375,-9.412725534280488,-29.55919315432265,-0.8186974610112662,6.437000000005355
-0.53,0.9208,-0.1547,0.3252,0.2638,0.1164,-0.7175,-1.6275,-5.7488,-9.415676594602898,-29.56040931357717,-0.8199587925204961,6.443999999995867
-0.5328,0.9198,-0.1524,0.3252,0.2638,0.1164,-0.7175,-1.6275,-5.7488,-9.415488717410039,-29.570981650627438,-0.8214581619726249,6.451999999997497
-0.5292,0.9201,-0.1477,0.3252,0.2638,0.1164,-0.1838,-1.7763,-5.74,-9.3095342236961,-29.57198930582144,-0.8237591923356005,6.459000000002561
-0.5292,0.9201,-0.1477,0.3241,0.2601,0.1205,-0.1838,-1.7763,-5.74,-9.241528754148394,-29.572947658558867,-0.8264464663880641,6.467000000004191
-0.5302,0.9182,-0.1505,0.3241,0.2601,0.1205,-0.3237,-1.6187,-6.2038,-9.261258974901764,-29.607923286016963,-0.8274124811894785,6.472999999998137
-0.5328,0.9211,-0.1518,0.3241,0.2601,0.1205,-0.4638,-1.54,-6.1337,-9.282390229803886,-29.6409476656876,-0.8283596861526109,6.481999999996333
-0.5328,0.9211,-0.1518,0.3254,0.2614,0.1191,-0.4638,-1.54,-6.1337,-9.298924482862402,-29.663799614572063,-0.8288527804457194,6.487999999997555
-0.5314,0.9213,-0.1536,0.3254,0.2614,0.1191,-0.5512,-1.7587,-6.1512,-9.325570131103023,-29.6554213500602,-0.8313967781040993,6.495999999999185
-0.5292,0.9184,-0.1536,0.3254,0.2614,0.1191,-0.5512,-1.7587,-6.1512,-9.352647975224645,-29.641271653985655,-0.8343093067710706,6.505000000004657
-0.5292,0.9184,-0.1536,0.3251,0.2622,0.1181,-1.26,-1.3388,-6.0725,-9.40112964023422,-29.6327867013178,-0.8335429428101585,6.511999999995169
-0.5306,0.9185,-0.1544,0.3251,0.2622,0.1181,-1.2337,-1.4787,-6.2562,-9.447646273616133,-29.646134138140805,-0.8336658293755178,6.518000000003667
-0.5315,0.9191,-0.1471,0.3251,0.2622,0.1181,-1.2337,-1.4787,-6.2562,-9.330703088707146,-29.675436292240953,-0.8339685405083223,6.525999999998021
-0.5315,0.9191,-0.1471,0.3257,0.2622,0.1186,-0.7875,-1.3825,-5.5738,-9.320318981653934,-29.680750211110514,-0.833508093980082,6.532999999995809
-0.5319,0.9216,-0.1483,0.3257,0.2622,0.1186,-0.7875,-1.3825,-5.5738,-9.312505834561723,-29.680186759377445,-0.8330416687810819,6.540999999997439
-0.5297,0.9196,-0.1534,0.3257,0.2622,0.1186,-0.665,-2.0912,-5.5825,-9.323771525701423,-29.672837005961867,-0.8382422419958356,6.548999999999069
-0.5297,0.9196,-0.1534,0.324,0.2601,0.1206,-0.49,-1.8112,-6.055,-9.353269581488806,-29.65425218999656,-0.8407790581689762,6.556000000004133
-0.5302,0.9202,-0.1552,0.324,0.2601,0.1206,-0.49,-1.8112,-6.055,-9.397543424517357,-29.640584403663784,-0.8433146059278853,6.562999999994645
-0.5298,0.9191,-0.1527,0.324,0.2601,0.1206,-0.6913,-1.3825,-5.88,-9.399249006801245,-29.637958762803326,-0.8428432774729113,6.570999999996275
-0.5298,0.9191,-0.1527,0.3244,0.2616,0.1222,-0.6913,-1.3825,-5.88,-9.400872552923142,-29.635755017888155,-0.8423721846821648,6.5789999999979045
-0.5301,0.9188,-0.1493,0.3244,0.2616,0.1222,-0.875,-1.5137,-6.0988,-9.380742429695278,-29.64298101942054,-0.8429504026380273,6.586999999999534
-0.5297,0.9193,-0.152,0.3244,0.2616,0.1222,-0.945,-1.8112,-6.055,-9.38205688131158,-29.636122936827388,-0.8459071414853966,6.595000000001164
-0.5297,0.9193,-0.152,0.3244,0.2596,0.1238,-0.945,-1.8112,-6.055,-9.383149370755143,-29.631104013568017,-0.8492846787178919,6.60399999999936
-0.5303,0.9192,-0.1474,0.3244,0.2596,0.1238,-0.7437,-1.7237,-6.0988,-9.382639655716309,-29.641677688964815,-0.8512037799197925,6.610999999997148
