AcclX,AcclY,AcclZ,MagX,MagY,MagZ,GyroX,GyroY,GyroZ,Roll,Pitch,Yaw,Time(s)
-0.1415,0.9811,0.0512,-0.6542,0.0394,-0.1145,-3.0625,0.9013,-15.12,0,0,0,1.617069958737047
-0.1357,0.9536,0.0564,-0.6533,0.0406,-0.1119,-2.1963,1.19,-15.4525,0,0,0,1.6292442817064507
-0.1376,0.9767,0.0489,-0.6536,0.0418,-0.1108,-2.4237,1.3387,-15.26,0,0,0,1.641425329061343
-0.1385,0.9775,0.0501,-0.6536,0.0418,-0.1108,-3.0363,1.1812,-15.1462,0,0,0,1.6535798327893068
-0.1402,0.9801,0.0519,-0.6537,0.0406,-0.1137,-2.5988,1.155,-15.4962,0,0,0,1.6657141633608052
-0.1407,0.9787,0.0531,-0.6537,0.0406,-0.1137,-2.7738,1.12,-14.945,0,0,0,1.6751265334695669
-0.1369,0.9796,0.0536,-0.6547,0.0414,-0.1155,-2.8875,1.4525,-14.9012,0,0,0,1.6873999526461694
-0.1383,0.9799,0.0529,-0.6547,0.0414,-0.1155,-2.7913,0.9538,-14.77,0,0,0,1.6995119865710482
-0.1415,0.9782,0.0456,-0.6527,0.0418,-0.1158,-2.4413,1.1375,-15.05,0,0,0,1.7115840280980217
-0.141,0.9794,0.0486,-0.6542,0.0398,-0.11,-2.3538,0.9538,-15.2337,0,0,0,1.7237859564394307
-0.1408,0.9801,0.0559,-0.6542,0.0398,-0.11,-2.8087,0.7175,-15.0762,0,0,0,1.7360200910481793
-0.1394,0.9785,0.0512,-0.6538,0.0398,-0.1158,-3.0713,1.1725,-15.0937,0,0,0,1.748131063227981
-0.1376,0.9795,0.053,-0.6538,0.0398,-0.1158,-2.765,1.505,-14.8137,0,0,0,1.760269640779788
-0.139,0.9797,0.0536,-0.653,0.0419,-0.1192,-2.765,0.875,-15.12,0,0,0,1.7724503342196545
-0.1432,0.9801,0.0481,-0.6536,0.0404,-0.1172,-2.7475,0.6563,-14.9275,0,0,0,1.784611562333107
-0.1386,0.9796,0.0516,-0.6536,0.0404,-0.1172,-2.7388,0.9975,-15.3387,0,0,0,1.7967823461522534
-0.1396,0.9797,0.0522,-0.6534,0.0407,-0.1148,-2.3187,1.1462,-15.2775,0,0,0,1.8061377359418758
-0.1406,0.9808,0.0523,-0.6534,0.0407,-0.1148,-3.115,1.1112,-15.2337,0,0,0,1.8184791068034145
-0.1404,0.9806,0.0547,-0.6538,0.0393,-0.1162,-2.6863,0.7175,-15.4875,0,0,0,1.830511155932483
-0.1419,0.9786,0.0474,-0.6543,0.0399,-0.1171,-2.9488,1.2075,-15.3475,0,0,0,1.8427049442283006
-0.1399,0.98,0.0541,-0.6543,0.0399,-0.1171,-2.8,1.5837,-15.1462,0,0,0,1.8547738005200427
-0.1404,0.9801,0.0516,-0.6537,0.0375,-0.1165,-2.1788,1.3825,-15.3125,0,0,0,1.8669682966459118
-0.14,0.9791,0.0554,-0.6537,0.0375,-0.1165,-2.87,1.4262,-14.98,0,0,0,1.8791426196153156
-0.1412,0.9808,0.0543,-0.6545,0.0408,-0.1238,-3.2113,1.1375,-14.8487,0,0,0,1.891320835650002
-0.1383,0.9797,0.0512,-0.6552,0.0395,-0.1153,-2.9488,1.2163,-15.3562,0,0,0,1.9035224100763855
-0.1399,0.9783,0.0489,-0.6552,0.0395,-0.1153,-2.8,0.77,-15.3125,0,0,0,1.9156238265504928
-0.141,0.9796,0.0503,-0.6533,0.0383,-0.1162,-3.1588,0.665,-15.3212,0,0,0,1.9277298439199344
-0.1385,0.9781,0.0551,-0.6533,0.0383,-0.1162,-2.9925,0.8312,-15.4,0,0,0,1.937257236412052
-0.1392,0.9786,0.055,-0.6535,0.0405,-0.1147,-2.415,1.0325,-15.085,0,0,0,1.9493774103825219
-0.1406,0.9801,0.0529,-0.6531,0.0387,-0.1169,-2.5375,1.0937,-15.5925,0,0,0,1.9615336836856143
-0.1386,0.9797,0.0525,-0.6531,0.0387,-0.1169,-2.6338,1.1025,-15.33,0,0,0,1.9736821708581411
-0.1412,0.98,0.0484,-0.653,0.0396,-0.1168,-2.1963,1.3562,-15.0675,0,0,0,1.9858529546772878
-0.1383,0.9792,0.0504,-0.653,0.0396,-0.1168,-2.2313,1.33,-15.4437,0,0,0,1.9980357716073085
-0.1389,0.9784,0.0501,-0.6543,0.0411,-0.1178,-2.3888,1.3825,-15.4,0,0,0,2.0101658551984984
-0.1389,0.9804,0.0542,-0.6542,0.0396,-0.1151,-2.1613,1.4175,-14.9362,0,0,0,2.022085005434365
-0.1411,0.9812,0.0547,-0.6542,0.0396,-0.1151,-1.96,0.91,-15.155,0,0,0,2.034365502911482
-0.1426,0.9798,0.0541,-0.6534,0.0393,-0.1148,-2.6863,1.4787,-15.155,0,0,0,2.0464067538312185
-0.1387,0.9785,0.0468,-0.6534,0.0393,-0.1148,-2.6513,1.225,-14.8662,0,0,0,2.0549382294409875
-0.1362,0.9803,0.0529,-0.6549,0.0397,-0.1165,-3.0275,1.1287,-14.8137,0,0,0,2.067181565840405
-0.1404,0.979,0.0519,-0.6575,0.042,-0.116,-2.6163,1.2337,-15.2337,0,0,0,2.0799578982685416
-0.1423,0.9804,0.0541,-0.6575,0.042,-0.116,-2.8087,1.1638,-15.1637,0,0,0,2.092262815882432
-0.1384,0.9772,0.0478,-0.6533,0.0425,-0.1162,-2.2138,1.2425,-15.33,0,0,0,2.1047369048786124
-0.1397,0.9783,0.0544,-0.6533,0.0425,-0.1162,-2.4325,0.8838,-15.0587,0,0,0,2.1168655728096994
-0.1407,0.9796,0.0522,-0.6524,0.0411,-0.1143,-2.6863,0.875,-15.4263,0,0,0,2.1290321096485374
-0.1408,0.9813,0.0492,-0.6537,0.0391,-0.1147,-2.5813,0.98,-15.2512,0,0,0,2.141204309127787
-0.1396,0.9796,0.0528,-0.6537,0.0391,-0.1147,-2.6075,1.1638,-15.2163,0,0,0,2.153387833887859
-0.134,0.9759,0.0529,-0.6524,0.0411,-0.1164,-2.7125,1.7237,-15.1112,0,0,0,2.1655306584199745
-0.1393,0.9783,0.0516,-0.6524,0.0411,-0.1164,-3.1675,1.2775,-14.9888,0,0,0,2.177697903088864
-0.1424,0.9814,0.0526,-0.6547,0.0396,-0.1092,-2.625,0.9275,-15.4,0,0,0,2.187127968948911
-0.1403,0.9813,0.0493,-0.6539,0.041,-0.1155,-2.5813,0.6388,-15.1375,0,0,0,2.199287427487235
-0.1395,0.9805,0.0505,-0.6539,0.041,-0.1155,-2.6688,0.7,-15.0587,0,0,0,2.2114249432939648
-0.1376,0.9795,0.0554,-0.6545,0.0406,-0.1155,-2.765,1.4088,-15.54,0,0,0,2.2236031593286514
-0.1382,0.9805,0.0492,-0.6545,0.0406,-0.1155,-2.2575,1.435,-15.575,0,0,0,2.235733596834867
-0.1402,0.9809,0.0554,-0.6534,0.0402,-0.1195,-2.695,1.0325,-15.3037,0,0,0,2.247907211974219
-0.1379,0.9806,0.0518,-0.6527,0.0398,-0.1155,-2.555,1.0062,-15.3912,0,0,0,2.2600903828192656
-0.1386,0.9792,0.0503,-0.6527,0.0398,-0.1155,-2.8438,1.015,-14.7875,0,0,0,2.2722218820705584
-0.1387,0.9784,0.0497,-0.6521,0.0405,-0.115,-2.5988,0.945,-14.875,0,0,0,2.284402929425451
-0.1434,0.9796,0.05,-0.6521,0.0405,-0.115,-2.4675,1.1462,-15.505,0,0,0,2.2965744210746486
-0.1408,0.9801,0.0533,-0.654,0.0425,-0.1181,-3.045,1.2337,-15.12,0,0,0,2.3087352952730753
-0.1397,0.9784,0.052,-0.6537,0.0432,-0.1158,-2.9838,1.155,-15.4,0,0,0,2.318387973684294
-0.1393,0.9806,0.0515,-0.6537,0.0432,-0.1158,-2.835,1.3912,-14.98,0,0,0,2.3304493977604963
-0.1374,0.9798,0.0539,-0.6542,0.0412,-0.1132,-3.08,1.4175,-15.2687,0,0,0,2.3424892330201303
-0.1416,0.9787,0.0498,-0.6542,0.0412,-0.1132,-3.43,1.575,-14.8662,0,0,0,2.3546324114672714
-0.1386,0.9795,0.0488,-0.6523,0.039,-0.1185,-2.1438,1.3562,-15.2512,0,0,0,2.366730996621173
-0.1366,0.9796,0.0526,-0.6526,0.0392,-0.1154,-2.6338,1.3562,-15.12,0,0,0,2.378952744204022
-0.1405,0.9805,0.0509,-0.6526,0.0392,-0.1154,-2.8875,1.2862,-15.3562,0,0,0,2.3911267132584
-0.1399,0.9823,0.0569,-0.6538,0.0402,-0.1141,-2.6075,1.155,-15.6187,0,0,0,2.4032886492019037
-0.1371,0.9789,0.0481,-0.6538,0.0402,-0.1141,-2.8788,1.2075,-15.33,0,0,0,2.415410946662528
-0.1398,0.9785,0.0505,-0.6539,0.0404,-0.1186,-3.0713,1.5225,-14.7437,0,0,0,2.4275866852920345
-0.1399,0.98,0.0499,-0.6531,0.0412,-0.115,-2.7475,1.1287,-15.12,0,0,0,2.439716061053173
-0.139,0.9795,0.0508,-0.6531,0.0412,-0.115,-3.4125,1.1725,-14.735,0,0,0,2.4491832879909197
-0.1396,0.979,0.0542,-0.6524,0.0409,-0.117,-3.0188,1.47,-14.7875,0,0,0,2.4613537178950406
-0.1385,0.9794,0.0487,-0.6524,0.0409,-0.1181,-2.9488,0.8575,-15.0237,0,0,0,2.4738444408974294
-0.1376,0.9776,0.0494,-0.6528,0.0402,-0.1181,-2.87,0.7788,-15.365,0,0,0,2.4856627253509687
-0.1388,0.9812,0.0495,-0.6527,0.04,-0.1158,-2.5025,1.0062,-15.1812,0,0,0,2.497821476059241
-0.1399,0.9808,0.0547,-0.6527,0.04,-0.1158,-2.345,1.0237,-15.085,0,0,0,2.510008893884596
-0.1374,0.9781,0.0528,-0.6538,0.0392,-0.12,-2.345,0.875,-14.98,0,0,0,2.5221308374301947
-0.1426,0.9783,0.0501,-0.6538,0.0401,-0.1152,-2.2488,1.1287,-15.5137,0,0,0,2.5343058682296498
-0.1396,0.9811,0.0537,-0.6529,0.0401,-0.1152,-2.2138,1.4437,-15.3475,0,0,0,2.5464798372840276
-0.1398,0.9795,0.0526,-0.6532,0.0398,-0.1139,-2.7825,1.1812,-15.05,0,0,0,2.5586661933643056
-0.1423,0.9801,0.0491,-0.6532,0.0398,-0.1139,-2.59,1.6362,-15.12,0,0,0,2.568234993914431
-0.1392,0.9793,0.049,-0.6533,0.0402,-0.1158,-3.0188,1.4175,-15.6887,0,0,0,2.580191659143023
-0.1358,0.9795,0.055,-0.6545,0.041,-0.118,-2.7037,1.4175,-15.5662,0,0,0,2.592422962431566
-0.1411,0.9787,0.051,-0.6545,0.041,-0.118,-2.52,1.12,-15.75,0,0,0,2.604600824551227
-0.1405,0.9793,0.0542,-0.6534,0.0414,-0.1158,-3.29,1.1287,-15.2337,0,0,0,2.6167641761548333
-0.1387,0.9792,0.0533,-0.6534,0.0414,-0.1158,-3.15,1.645,-15.3387,0,0,0,2.6288139210351873
-0.138,0.9775,0.0533,-0.6542,0.0403,-0.1166,-2.6775,1.5837,-15.0325,0,0,0,2.640999569285414
-0.139,0.9803,0.0519,-0.6534,0.0386,-0.117,-2.695,1.0325,-15.2862,0,0,0,2.6531763696599975
-0.1413,0.9811,0.0513,-0.6534,0.0386,-0.117,-2.59,1.3212,-15.4612,0,0,0,2.666041534759587
-0.1369,0.9788,0.0517,-0.6531,0.0384,-0.1152,-2.5725,1.1725,-15.4875,0,0,0,2.6774209645812457
-0.14,0.9796,0.0515,-0.6531,0.0384,-0.1152,-2.7913,1.4,-15.4875,0,0,0,2.6895740526491068
-0.1399,0.9803,0.0552,-0.6531,0.0403,-0.1147,-2.7738,1.68,-15.3037,0,0,0,2.698430422252478
-0.1393,0.9801,0.0509,-0.6539,0.0385,-0.1158,-2.7825,1.1725,-15.33,0,0,0,2.7106514620052753
-0.1412,0.98,0.0537,-0.6539,0.0385,-0.1158,-2.8175,1.1725,-15.1637,0,0,0,2.7230823733683187
-0.1371,0.979,0.0544,-0.6535,0.0398,-0.1146,-3.3863,1.2425,-15.7062,0,0,0,2.7350850475502533
-0.14,0.9801,0.0489,-0.6535,0.0398,-0.1146,-3.15,0.9363,-15.19,0,0,0,2.7473184743289503
-0.1383,0.98,0.0532,-0.6542,0.0413,-0.1186,-2.8,0.945,-15.1375,0,0,0,2.759535621016465
-0.1393,0.9781,0.0528,-0.6525,0.0401,-0.1159,-3.0013,1.0762,-15.05,0,0,0,2.771724808416949
-0.1374,0.9789,0.049,-0.6525,0.0401,-0.1159,-2.6163,0.805,-14.91,0,0,0,2.7839600047707744
-0.1393,0.978,0.0526,-0.6541,0.0416,-0.1162,-2.7475,0.9187,-15.2862,0,0,0,2.796187061079009
-0.1407,0.9797,0.0487,-0.6541,0.0416,-0.1162,-3.1325,0.8138,-14.9713,2.837734793425569,-7.3302492200743945,10.253530222867962,17.11445753497477
-0.1411,0.9809,0.053,-0.6534,0.0411,-0.1122,-2.9488,0.7088,-15.5925,3.092078176662253,-8.088807945810979,9.943524627455304,17.119258746213553
-0.1403,0.9789,0.0522,-0.6534,0.041,-0.1181,-3.255,0.9625,-15.3475,3.0525277487425813,-8.139096639421714,10.44243776610585,17.12375028180484
-0.1387,0.9787,0.0586,-0.6534,0.041,-0.1181,-2.4413,1.225,-15.33,3.4254586376384735,-8.061211307215428,10.462028714782518,17.127247316173882
-0.1428,0.9812,0.0568,-0.6528,0.0396,-0.1148,-3.0625,0.7962,-15.1462,3.31337548840053,-8.245888002547868,10.183873171307422,17.128941507401954
-0.1396,0.9805,0.0525,-0.6528,0.0396,-0.1148,-2.8525,1.05,-15.4437,3.065626483042317,-8.107782926537165,10.16754381825192,17.130651978721215
-0.1387,0.9795,0.0503,-0.6534,0.0397,-0.1139,-2.6163,1.2512,-15.3212,2.940067858566684,-8.055449214538534,10.074606204696135,17.1323518325897
-0.1412,0.9809,0.0523,-0.6566,0.0411,-0.115,-2.835,0.9975,-15.3125,3.051712032668934,-8.167022451857141,10.131489102690708,17.134044962072696
-0.1391,0.9787,0.0554,-0.6566,0.0411,-0.115,-3.1325,1.4088,-14.7613,3.2392787073932,-8.086203975365272,10.140389861372652,17.135723581039638
-0.1407,0.9802,0.0534,-0.6539,0.0411,-0.1154,-2.975,1.2687,-15.19,3.1186575445901386,-8.14909703519479,10.209528540238525,17.137407862646995
-0.1398,0.9786,0.0513,-0.6539,0.0411,-0.1154,-3.1675,1.8725,-14.6912,3.001135846398783,-8.122532318061609,10.202387241195494,17.139087543359015
-0.1362,0.9785,0.0529,-0.6554,0.0402,-0.1156,-3.57,1.4525,-15.365,3.094267117071369,-7.935704958867411,10.196572455127207,17.140785273737347
-0.138,0.9807,0.0495,-0.651,0.0408,-0.1152,-3.29,1.2862,-15.3212,2.8900827518085923,-7.99291405914023,10.220644139054311,17.142602273479344
-0.1412,0.9798,0.049,-0.651,0.0408,-0.1152,-2.765,1.4875,-15.3387,2.86306504488794,-8.168773021350907,10.222083189645028,17.14436618596748
-0.14,0.9801,0.0554,-0.6516,0.0414,-0.1147,-2.0563,1.3387,-15.155,3.2341437153901267,-8.122133483919121,10.191572880414052,17.146051529319912
-0.1394,0.9789,0.0496,-0.6516,0.0414,-0.1147,-2.31,1.26,-15.33,2.9015865040633058,-8.097409923907955,10.172204670117393,17.147745720547988
-0.14,0.9797,0.0558,-0.6529,0.041,-0.1098,-2.8963,1.26,-15.295,3.258816624125752,-8.11720688112867,9.754357259291025,17.149456191867245
-0.1406,0.9798,0.0516,-0.6538,0.041,-0.1158,-2.38,1.0325,-15.295,3.0153178175382296,-8.151032895836362,10.238718761068316,17.151130209938856
-0.139,0.9806,0.0516,-0.6538,0.041,-0.1158,-2.7037,0.9713,-15.7062,3.0121830328734576,-8.066678180766484,10.237384864537482,17.152826170742056
-0.1379,0.9803,0.0489,-0.6526,0.041,-0.1157,-2.5375,1.4612,-14.9275,2.856142105142106,-8.005063656878226,10.23740641060726,17.15449417225823
-0.1359,0.9809,0.0526,-0.6526,0.041,-0.1157,-2.5113,1.1462,-15.1988,3.068899672184656,-7.8902739759596985,10.247649475822975,17.156180931270764
-0.1369,0.9781,0.0499,-0.6522,0.0424,-0.117,-2.4938,1.2512,-15.1637,2.9209612662090683,-7.9502709819265265,10.360360268829627,17.157910514001408
-0.1418,0.9804,0.0497,-0.6536,0.0415,-0.1142,-2.6863,0.9887,-15.155,2.9020981844425213,-8.19153031966048,10.101741215790883,17.159637619326876
-0.1252,0.9791,0.0542,-0.6536,0.0415,-0.1142,-2.4063,1.5575,-15.2775,3.1677348948986817,-7.377025793406895,10.103438420319883,17.161419935396353
-0.1393,0.9787,0.054,-0.6525,0.0374,-0.115,-3.0363,1.54,-14.7,3.1581330144847417,-8.010096266139112,10.188458875569301,17.163122620585042
-0.1411,0.9805,0.0508,-0.6525,0.0374,-0.115,-2.0563,1.5662,-14.6037,2.966401559095327,-8.159609686844034,10.180209299179065,17.164828844923992
-0.1383,0.9793,0.0547,-0.653,0.0411,-0.1181,-2.9225,1.12,-15.575,3.1963523982805837,-8.040061562381487,10.455247066017725,17.166504632570728
-0.1401,0.9804,0.0502,-0.6549,0.0404,-0.1156,-2.905,1.225,-15.2775,2.9319387891377366,-8.113330254705136,10.198992482682648,17.16819280724337
-0.1405,0.9794,0.0504,-0.6549,0.0404,-0.1156,-2.2225,1.4262,-15.4962,2.945807543240165,-8.148717115072035,10.200120233395287,17.16987885842585
-0.1379,0.9785,0.0523,-0.6538,0.0424,-0.1155,-2.5288,1.505,-15.5575,3.059179026906012,-8.025735278720434,10.217170576684694,17.171558185222846
-0.1387,0.9795,0.0522,-0.6538,0.0424,-0.1155,-2.2225,1.295,-15.4525,3.050573680005328,-8.045961301893808,10.21722314662784,17.17332988384155
-0.1405,0.9795,0.0526,-0.6541,0.041,-0.1177,-2.2138,1.5225,-14.9888,3.073814837268131,-8.139693483199423,10.399123152943286,17.175089903264407
-0.1392,0.9797,0.05,-0.6506,0.0403,-0.1142,-2.9488,1.4612,-14.84,2.9220443427415455,-8.083249858407786,10.143290526861287,17.17680816071423
-0.1391,0.9787,0.0486,-0.6506,0.0403,-0.1142,-2.8,1.1812,-15.0237,2.8430656518281254,-8.079713817726857,10.138768276906044,17.178494919726763
-0.1381,0.9803,0.0537,-0.6546,0.0395,-0.1164,-2.3013,1.3125,-15.2075,3.134655667723804,-8.014759372758332,10.278479095357595,17.180184863974528
-0.1401,0.9801,0.0515,-0.6546,0.0395,-0.1164,-2.38,1.0325,-15.61,3.0082358069188397,-8.112564734129517,10.273575908012832,17.181876577797425
-0.1369,0.9794,0.0477,-0.6522,0.0403,-0.1119,-2.7388,0.8925,-15.435,2.78891063720739,-7.964844254995916,9.913412708262031,17.18354670280375
-0.1413,0.9813,0.0551,-0.6548,0.0403,-0.1154,-2.9225,1.61,-15.2337,3.2125833818591873,-8.157131096318347,10.199395105288566,17.185239832286747
-0.1378,0.98,0.053,-0.6548,0.0403,-0.1154,-2.2488,1.0062,-15.4,3.0959633463856386,-8.009611457380034,10.190183424641207,17.18691349644333
-0.1394,0.9809,0.0507,-0.6533,0.0406,-0.1164,-2.9488,1.1375,-15.3387,2.9592143160776403,-8.070565315448771,10.292424836412806,17.188623967762588
-0.1402,0.9798,0.0521,-0.6533,0.0406,-0.1164,-3.185,1.2512,-15.1112,3.0435468057796027,-8.125322747885775,10.298066262369797,17.19002051645404
-0.1393,0.9798,0.0524,-0.6538,0.0401,-0.1142,-3.4738,1.0937,-15.5137,3.0612290826807085,-8.08496086771452,10.102286406477619,17.1912974418668
-0.1355,0.9784,0.0509,-0.6561,0.0406,-0.1153,-2.975,1.0237,-15.4612,2.9782894142624188,-7.896258086033988,10.15450928702945,17.192619668402855
-0.1435,0.9809,0.052,-0.6561,0.0406,-0.1153,-2.8087,1.0325,-14.805,3.0343953060946296,-8.268178681296407,10.1644223104444,17.19388420678972
-0.1378,0.9809,0.0564,-0.6527,0.0402,-0.117,-2.835,1.4525,-15.33,3.290057689209969,-8.014776489582182,10.368449295887649,17.195119370229445
-0.1408,0.982,0.0554,-0.6527,0.0402,-0.117,-2.3275,0.945,-15.6712,3.2291184813896163,-8.133087312785712,10.367815569195107,17.19632940570235
-0.1412,0.9801,0.0494,-0.6527,0.041,-0.1168,-2.4938,0.7613,-15.3125,2.8864082508132682,-8.182220814090867,10.334231124654881,17.19754864296592
-0.1426,0.9797,0.0536,-0.653,0.0412,-0.116,-2.485,0.5775,-14.7613,3.1308741984887565,-8.260646444897331,10.277165307866463,17.198759032353852
-0.139,0.9808,0.0515,-0.653,0.0412,-0.116,-2.6688,0.9713,-14.4287,3.0060886783563356,-8.076628471707965,10.266681931903427,17.19996517476147
-0.136,0.9787,0.049,-0.6554,0.04,-0.1185,-2.8087,1.1987,-14.5862,2.8665960582810834,-7.919982762419564,10.429310602916988,17.201202461691352
-0.139,0.9814,0.0501,-0.6554,0.04,-0.1185,-1.89,0.91,-15.015,2.9222280894686707,-8.037584258192345,10.434830113205424,17.202434793810877
-0.1373,0.9807,0.0503,-0.6517,0.0391,-0.1197,-2.4413,1.1462,-15.0587,2.9360824816972304,-7.967650789837974,10.59182497169831,17.203733308040206
-0.1396,0.9764,0.0536,-0.6534,0.04,-0.1157,-2.2313,1.6013,-14.9275,3.1415477443354787,-8.107200547820092,10.24102597590263,17.20497307237527
-0.1407,0.9819,0.0537,-0.6534,0.04,-0.1157,-2.5638,1.4175,-14.7437,3.130412730327441,-8.138756561128677,10.240441283533196,17.20621460628546
-0.1396,0.9795,0.0549,-0.6526,0.0406,-0.1147,-2.1875,0.9625,-14.9187,3.2077961300496334,-8.102869678675209,10.172523614031794,17.20742995048375
-0.1406,0.9797,0.0508,-0.6526,0.0406,-0.1147,-2.275,0.875,-15.085,2.9689526406389692,-8.15066737473926,10.160061866079008,17.20864600251209
-0.139,0.9798,0.0539,-0.6524,0.0391,-0.1145,-2.485,0.8575,-15.1462,3.1482301407919078,-8.071437842875213,10.150798785290382,17.20986347020053
-0.1397,0.9806,0.0531,-0.6549,0.0424,-0.1151,-3.2288,0.8138,-14.7175,3.099706611572849,-8.093774150974085,10.17012811754427,17.211077044823693
-0.14,0.9799,0.0489,-0.6549,0.0424,-0.1151,-2.7475,1.435,-15.1112,2.857549993373129,-8.1179913663526,10.156368621430204,17.21228743421162
-0.1393,0.9767,0.0534,-0.653,0.0388,-0.114,-2.835,1.3912,-14.6825,3.128700092296975,-8.10642373102315,10.098021375136364,17.21350454798504
-0.1386,0.9803,0.0495,-0.653,0.0388,-0.114,-2.5813,1.3825,-15.0325,2.89135248032236,-8.044815029708277,10.084255102197723,17.214724139163636
-0.1424,0.9794,0.0557,-0.6534,0.0382,-0.1156,-2.94,1.3825,-15.1725,3.253966413692435,-8.236166175367948,10.23574030317892,17.215930989401308
-0.1421,0.9805,0.0517,-0.6546,0.0404,-0.1158,-2.6863,0.9887,-15.015,3.0189734475171557,-8.235081087180212,10.22698465959363,17.21714102487421
-0.1417,0.9796,0.0508,-0.6546,0.0404,-0.1158,-2.38,0.9975,-15.0237,2.9687218462428593,-8.221478660150407,10.22398546606084,17.21836380128804
-0.1382,0.9796,0.0526,-0.6536,0.0415,-0.1094,-2.625,1.1375,-14.91,3.073271419807761,-8.040155849569146,9.699492376846266,17.219568528035555
-0.1365,0.9787,0.0554,-0.6536,0.021,-0.1164,-2.59,0.7788,-15.4962,3.2393403696657215,-7.938802436231509,10.248037177941816,17.220882968441042
-0.1398,0.979,0.0479,-0.654,0.0399,-0.1164,-2.5113,0.9713,-15.2775,2.802340756701634,-8.098748837887284,10.272172090397593,17.22218112875535
-0.1406,0.9806,0.0521,-0.6521,0.0401,-0.1153,-2.8,0.9538,-15.0325,3.0406325110168484,-8.143093165667437,10.221635070425586,17.223418061770204
-0.1394,0.978,0.0514,-0.6521,0.0401,-0.1153,-2.7125,1.05,-15.4175,3.0085734184750947,-8.105421918259216,10.219055641316032,17.224646854739472
-0.1389,0.9771,0.049,-0.652,0.0421,-0.1111,-2.5813,1.1812,-14.595,2.8712751485669883,-8.083295475355303,9.858508702145821,17.225940768073468
-0.1408,0.9798,0.0525,-0.652,0.0409,-0.1123,-2.5813,1.2425,-14.6825,3.0665575452152947,-8.157201285592539,9.970494640000178,17.227172746277965
-0.1407,0.9801,0.0522,-0.6539,0.0409,-0.1123,-2.3275,1.1112,-15.05,3.0487357847239154,-8.15789511618662,9.941255717562287,17.228382781750867
-0.1379,0.9811,0.0539,-0.656,0.041,-0.1162,-2.7388,1.1375,-15.47,3.1443029700380722,-8.00680389447104,10.24408538045533,17.229614406040337
-0.1429,0.9785,0.0486,-0.656,0.041,-0.1162,-3.2813,1.015,-14.6125,2.844272941928133,-8.26825717116074,10.232236105260297,17.230843199009605
-0.1392,0.9776,0.0528,-0.6537,0.0409,-0.1135,-2.2838,1.2512,-15.155,3.090833763256932,-8.110999380606383,10.047973050705677,17.23204969533225
-0.1417,0.9794,0.0513,-0.6533,0.0408,-0.1121,-2.4763,1.26,-14.7962,2.9986169353444776,-8.209547587715015,9.931036344230645,17.233263623870435
-0.138,0.9782,0.0444,-0.6533,0.0408,-0.1121,-2.765,1.4437,-15.3912,2.599971387183735,-8.042336855846044,9.905338743684979,17.23448852377442
-0.1372,0.9779,0.05,-0.6529,0.0401,-0.1147,-2.695,0.8575,-15.5225,2.9260595404138274,-7.982992579673939,10.14918148386979,17.23577960578821
-0.1395,0.98,0.0529,-0.6529,0.0401,-0.1147,-3.01,1.0062,-14.7788,3.0893414071286394,-8.078717088827656,10.16002729053049,17.237015123142964
-0.1365,0.9793,0.0592,-0.6533,0.0389,-0.1146,-2.94,0.9887,-14.4375,3.4583514808187923,-7.9371869294927135,10.159221048190902,17.238266212758848
-0.1403,0.9779,0.0507,-0.6534,0.041,-0.1163,-3.0013,1.3037,-14.7525,2.969273627106876,-8.130499474379434,10.284951310341862,17.239496421388218
-0.1407,0.9789,0.0501,-0.6534,0.041,-0.1163,-2.5813,1.2512,-14.9275,2.9299469953911803,-8.164635807818742,10.283121735396318,17.24071318124661
-0.138,0.9778,0.0543,-0.653,0.0405,-0.1153,-2.9575,1.1725,-14.91,3.1778296548120593,-8.036276643679914,10.214504674061203,17.24194303596095
-0.1427,0.9803,0.0456,-0.653,0.0405,-0.1153,-2.7388,1.3125,-15.5575,2.664724899545316,-8.247937652537694,10.189631349875324,17.24317005935509
-0.1413,0.9814,0.0534,-0.6536,0.0398,-0.1174,-2.7213,1.05,-15.575,3.113240461907154,-8.188076021473877,10.381193461546427,17.244380094827992
-0.1377,0.9796,0.0497,-0.6535,0.0409,-0.1116,-2.9663,1.0325,-15.7675,2.905000725909805,-8.011877420234898,9.87719734798697,17.245582698085354
-0.1373,0.9772,0.0495,-0.6535,0.0409,-0.1116,-2.7037,1.3212,-15.3912,2.899849869116558,-7.990382519281998,9.876554566413656,17.246812198884673
-0.1403,0.9808,0.052,-0.6533,0.0395,-0.1146,-2.6425,1.4,-15.1287,3.0344819095650455,-8.11438259984843,10.14148349609353,17.24801692563219
-0.1415,0.9809,0.0545,-0.6533,0.0395,-0.1146,-2.8175,1.2862,-14.2537,3.17974222822317,-8.187364590021893,10.150536560268733,17.249223421954834
-0.1418,0.9778,0.0528,-0.6534,0.0396,-0.117,-2.695,1.1025,-14.875,3.0911507107172813,-8.234145767925137,10.34944149942301,17.250440535728252
-0.139,0.9786,0.0559,-0.6538,0.0407,-0.1125,-2.345,0.4375,-15.3562,3.268818247388563,-8.087214193257822,9.97044472316043,17.25168985576901
-0.1389,0.9781,0.0566,-0.6538,0.0407,-0.1125,-3.5175,0.9275,-15.2425,3.3117364827114533,-8.07106771513686,9.972504088795786,17.252960056796283
-0.1391,0.9784,0.0547,-0.6539,0.0407,-0.1158,-3.7362,0.98,-14.8487,3.200255124261896,-8.078281256242262,10.245743355017668,17.25422778041838
-0.141,0.9783,0.0497,-0.6539,0.0407,-0.1158,-2.905,1.4088,-15.1988,2.9090884078252914,-8.178765448020624,10.23145223366918,17.255456573387644
-0.1371,0.9802,0.0516,-0.6518,0.0403,-0.1124,-2.5113,1.2512,-15.015,3.013106758688983,-7.975673641849776,9.974588848565647,17.25666625494552
-0.1362,0.9789,0.0526,-0.6529,0.0401,-0.1127,-2.4063,0.9713,-14.9975,3.075584272943134,-7.916604021089927,9.9859824774857,17.257876290418423
-0.1393,0.9781,0.0524,-0.6529,0.0401,-0.1127,-2.2488,1.2337,-15.54,3.0666151676346387,-8.075138878482562,9.98825058701466,17.259119239988717
-0.1412,0.9832,0.0529,-0.6548,0.0406,-0.1162,-2.6863,1.2163,-15.1725,3.0797300421488867,-8.151759073908394,10.26043765269863,17.260335999847108
-0.1421,0.9776,0.0513,-0.6548,0.0406,-0.1162,-2.4938,0.5688,-15.225,3.0040806726717486,-8.248469534436023,10.257975213834532,17.261546035320013
-0.1392,0.9794,0.0483,-0.6542,0.041,-0.1105,-2.1088,1.12,-15.4175,2.8238155587993705,-8.097250855037345,9.770062563295124,17.262761025603275
-0.1403,0.9795,0.0517,-0.6545,0.0398,-0.1152,-2.1963,1.4,-15.4525,3.0208269394437988,-8.135554083004129,10.174490234158256,17.263991942062695
-0.1379,0.9796,0.0528,-0.6545,0.0398,-0.1152,-2.1613,1.3387,-14.9537,3.085049840750027,-8.015953576532842,10.176055045762473,17.265201269705546
-0.1396,0.9801,0.0479,-0.654,0.041,-0.1145,-2.7213,0.9187,-14.8925,2.7987759510004424,-8.08849341141672,10.11228557339943,17.26642263045927
-0.1369,0.9801,0.0524,-0.654,0.041,-0.1145,-2.8525,1.3037,-14.8575,3.0596052213229274,-7.956307472409887,10.12470001732569,17.267651069513512
-0.1382,0.9765,0.0539,-0.6538,0.0399,-0.1138,-2.6863,1.6362,-15.3125,3.1590751701291224,-8.03357496729321,10.072400739803157,17.268906406109707
-0.1401,0.9795,0.0486,-0.653,0.0404,-0.1158,-2.17,1.0412,-15.4787,2.8414219138745933,-8.119987916026842,10.239650019138505,17.270139799974306
-0.1399,0.9806,0.0511,-0.653,0.0404,-0.1158,-2.66,1.0675,-15.0762,2.982639623673925,-8.10980329723688,10.247359966857069,17.271391243505217
-0.1415,0.9789,0.0478,-0.6546,0.0417,-0.1154,-3.22,1.1112,-14.9888,2.7960797121845338,-8.20436441288197,10.182864033239708,17.2726161434092
-0.1386,0.9801,0.05,-0.6546,0.0417,-0.1154,-3.2462,0.8663,-14.91,2.920072439882288,-8.055726540090236,10.18733402142401,17.27382794845723
-0.1382,0.9788,0.0554,-0.6532,0.041,-0.1208,-2.625,1.0237,-14.7788,3.2385785381336287,-8.027289695740485,10.683469298179467,17.275052848361213
-0.1384,0.9783,0.0497,-0.6526,0.0413,-0.1162,-2.6775,1.085,-14.9888,2.909196066965846,-8.040419960991107,10.284572035081359,17.276278810010275
-0.1366,0.9775,0.0501,-0.6526,0.0413,-0.1162,-2.4413,0.6913,-15.1112,2.9339545024781053,-7.954560086855091,10.284316279270469,17.277489907228254
-0.1407,0.9794,0.0487,-0.654,0.0407,-0.115,-3.0625,1.0762,-14.7087,2.8468958925026264,-8.143119210402412,10.158070177361187,17.278699588786132
-0.1403,0.9784,0.0478,-0.654,0.0407,-0.115,-2.6075,1.0062,-14.63,2.797118002128186,-8.150040219505954,10.154966254924416,17.279922719114985
-0.1408,0.9801,0.0529,-0.6537,0.0393,-0.1174,-2.6338,1.1287,-15.1812,3.088664179979987,-8.161982585093075,10.37679981631169,17.28114266420861
-0.1397,0.9802,0.0478,-0.6534,0.039,-0.1159,-2.9225,1.015,-14.8662,2.7926874876444807,-8.108048411540329,10.236338178396291,17.28235057619136
-0.1272,0.9808,0.0493,-0.6534,0.039,-0.1159,-2.6863,1.0587,-15.1988,2.8773160781177536,-7.456361232458114,10.230182935344523,17.28360201972227
-0.1368,0.9788,0.051,-0.6506,0.041,-0.116,-2.7913,1.085,-14.9275,2.9823798993548722,-7.894330089334615,10.299982490024165,17.28481807175061
-0.1407,0.9775,0.0461,-0.6506,0.041,-0.116,-3.0188,1.4787,-14.8312,2.700930336863445,-8.150391683347566,10.287547859173834,17.286025629818333
-0.1395,0.9806,0.0502,-0.6526,0.0414,-0.115,-2.8612,1.2775,-15.0762,2.929944261826866,-8.092993536705338,10.18427831843316,17.287241327931646
-0.1373,0.9806,0.0531,-0.653,0.0406,-0.1142,-2.45,1.1375,-15.0762,3.0990904729902455,-7.973146760600748,10.11573336292067,17.288460919110243
-0.1401,0.9797,0.0457,-0.653,0.0406,-0.1142,-2.8525,0.8487,-15.0062,2.6719462406473196,-8.113558523354437,10.09422595241524,17.289667769347915
-0.1383,0.9798,0.0519,-0.6518,0.0392,-0.1151,-2.7125,1.19,-14.9888,3.031106446123953,-8.03277672331505,10.204438169507956,17.29088665269646
-0.1408,0.9797,0.0554,-0.6518,0.0392,-0.1151,-2.065,1.6712,-15.2425,3.2359316289437956,-8.15069809361843,10.217676046876669,17.29211119868542
-0.1394,0.9781,0.0515,-0.6546,0.0394,-0.1131,-2.3275,1.3037,-15.4263,3.0146431874608357,-8.105592255367338,9.992770276067422,17.29333432901427
-0.1385,0.9784,0.0451,-0.6536,0.0403,-0.1154,-2.2313,1.3475,-15.1812,2.6402774241060594,-8.054825686594079,10.18371814812346,17.294553920192868
-0.1405,0.9791,0.0519,-0.6536,0.0403,-0.1154,-1.96,1.1812,-15.0325,3.0331770278502086,-8.14425378059222,10.207490776713904,17.29577917401188
-0.1411,0.9802,0.0511,-0.6518,0.042,-0.1164,-2.3712,1.1025,-15.0062,2.9843925071066004,-8.176700735711925,10.321586530723463,17.296998057360423
-0.1376,0.9805,0.0509,-0.6518,0.042,-0.1164,-2.4325,1.26,-15.1287,2.9717234063611597,-7.999157957225142,10.317858332499595,17.298283830648828
-0.1392,0.979,0.0522,-0.6547,0.0407,-0.1216,-2.6163,1.3562,-14.7613,3.051877516569286,-8.072237431853456,10.717401588749077,17.299522533238815
-0.1409,0.9801,0.052,-0.6532,0.0414,-0.1151,-2.45,1.4175,-15.0675,3.037068400761797,-8.1589331110165,10.191327544162307,17.300744955737617
-0.141,0.9795,0.051,-0.6532,0.0414,-0.1151,-2.4237,1.1638,-15.0237,2.9807091494631304,-8.178292004517859,10.187938435205933,17.301953929465444
-0.1425,0.9798,0.0511,-0.6527,0.0387,-0.115,-2.0388,0.9363,-15.3387,2.9854572062313127,-8.255040808290977,10.182523194851608,17.303170335408808
-0.1416,0.9821,0.0511,-0.6527,0.0387,-0.115,-2.975,1.2425,-14.7525,2.978511174685785,-8.200046364385686,10.180999997262939,17.304389926587408
-0.1393,0.9791,0.0489,-0.6533,0.0404,-0.1139,-3.2462,1.12,-14.7875,2.8595320860486924,-8.099242976883819,10.073783761722558,17.305602085550465
-0.1402,0.9792,0.0497,-0.6519,0.0418,-0.1169,-2.4413,1.3825,-15.0937,2.905465166229799,-8.133615608506421,10.356914348925931,17.306835125500037
-0.1382,0.9803,0.056,-0.6519,0.0418,-0.1169,-2.4763,1.1025,-15.085,3.268462156901792,-8.024445959290997,10.375992210612962,17.308062856724227
-0.1387,0.9784,0.0453,-0.652,0.0412,-0.1147,-2.4325,0.84,-15.0062,2.6526482971322256,-8.056439068362218,10.15099465497407,17.309289526203337
-0.1393,0.9814,0.0506,-0.652,0.0412,-0.1147,-2.9488,0.5862,-15.085,2.950655123991469,-8.066872790732651,10.168179271770473,17.31050062342132
-0.1373,0.9809,0.0552,-0.6546,0.0418,-0.1094,-2.4325,1.225,-14.8837,3.220151755644428,-7.967529948375876,9.693318194074708,17.311716321534632
-0.1391,0.9809,0.0487,-0.6546,0.0391,-0.1155,-2.4675,1.2512,-14.8925,2.8433692355814526,-8.051394232485919,10.185957975735029,17.312934497053128
-0.1391,0.98,0.0551,-0.6546,0.0391,-0.1155,-2.3888,0.9887,-15.7587,3.216981031132416,-8.06444627060293,10.206359862730668,17.314289283771544
-0.1374,0.9773,0.0529,-0.6539,0.0404,-0.1151,-2.415,1.0587,-14.49,3.0986584629551492,-7.998946985848771,10.178680123718422,17.320195417720598
-0.1404,0.9795,0.0532,-0.6539,0.0404,-0.1151,-2.4763,1.47,-14.9275,3.1088466031806994,-8.129286998108832,10.181623141527398,17.32144686125151
-0.137,0.9787,0.052,-0.6535,0.0423,-0.1126,-2.9488,1.47,-15.2163,3.0415533808107567,-7.976273666867561,9.9728974885447,17.32266291327985
-0.1404,0.9805,0.0522,-0.6542,0.0407,-0.115,-2.5813,1.3825,-15.12,3.0474273734928667,-8.120087937943918,10.16565410712991,17.323885689693675
-0.1383,0.9781,0.055,-0.6542,0.0407,-0.115,-2.1438,1.2075,-14.8487,3.217954465555889,-8.044530191748013,10.173671716318275,17.32511306700284
-0.1406,0.9789,0.05,-0.654,0.0406,-0.1142,-2.7213,1.2687,-15.3212,2.9248278300277453,-8.150356500565717,10.09403899936662,17.326325225965896
-0.1387,0.9801,0.0538,-0.654,0.0406,-0.1142,-2.9488,0.9363,-15.4525,3.141333818228483,-8.053947080934517,10.104251143447184,17.3275352614388
-0.1396,0.9795,0.0567,-0.6531,0.0426,-0.1177,-3.045,1.5925,-15.1725,3.3124801133493578,-8.093022041592297,10.431288436405966,17.32876263874796
-0.1393,0.9791,0.052,-0.6542,0.0401,-0.1162,-2.7388,1.5925,-15.3037,3.0408915540368326,-8.086852715753283,10.265322351387361,17.32999780218769
-0.1387,0.9781,0.0497,-0.6542,0.0401,-0.1162,-2.6163,1.3825,-14.7875,2.9092299014588585,-8.06360616553587,10.25761117335077,17.331204652425363
-0.1398,0.9788,0.0585,-0.6543,0.0434,-0.1118,-2.8087,1.015,-15.2775,3.418888271003827,-8.108911665355647,9.920388215698493,17.332423889688933
-0.1415,0.9788,0.0498,-0.6543,0.0434,-0.1118,-2.5113,1.155,-15.3212,2.914047637784697,-8.204220913063942,9.891488681133236,17.333643834782556
-0.1434,0.9805,0.0506,-0.6525,0.0386,-0.117,-2.9313,1.4175,-15.2075,2.954090379657609,-8.298258031859328,10.3547232967627,17.33485811723577
-0.1403,0.9791,0.0511,-0.6517,0.0415,-0.1143,-2.7475,1.4962,-14.91,2.9875065762779824,-8.160680930453898,10.142618403283246,17.33607912407447
-0.1383,0.9762,0.0495,-0.6517,0.0415,-0.1143,-2.415,1.3125,-14.8312,2.9030396934683105,-8.064858870047882,10.136252945369792,17.337312871854095
-0.1407,0.9794,0.0495,-0.6524,0.0405,-0.1161,-3.2113,1.26,-15.015,2.89335998905991,-8.154177071718284,10.278102600500546,17.33852998562751
-0.1403,0.9781,0.0517,-0.6524,0.0405,-0.115,-2.3275,1.2775,-15.0762,3.0253273102128553,-8.151944922756487,10.191632026815457,17.339734358460003
-0.1373,0.9797,0.0507,-0.6534,0.0406,-0.115,-2.59,1.2862,-15.3037,2.962622064562779,-7.987022598780785,10.17031630370437,17.340953595723573
-0.1399,0.9789,0.0507,-0.6533,0.0392,-0.116,-2.6775,1.2075,-15.4088,2.964854987662339,-8.108229009167086,10.256299963791339,17.34217814171253
-0.1403,0.9792,0.0578,-0.6533,0.0392,-0.116,-3.0363,1.2075,-15.2337,3.3769548811243677,-8.136516177141292,10.27857904394238,17.34339914855123
-0.1402,0.9791,0.0539,-0.6529,0.0389,-0.1173,-3.08,1.05,-14.7875,3.151622689770359,-8.13676109531991,10.382572269773908,17.34462369454019
-0.1438,0.9791,0.0512,-0.6529,0.041,-0.1128,-2.4763,1.015,-14.945,2.9938834644650916,-8.322450690177781,9.998971062748945,17.345893541652437
-0.1419,0.9806,0.0527,-0.6554,0.041,-0.1128,-2.4588,1.1112,-15.2075,3.0760326975713808,-8.232797397482821,9.964414248129195,17.347113132831034
-0.1376,0.9792,0.0526,-0.6534,0.0404,-0.1156,-2.31,1.6362,-15.295,3.0748239120151775,-8.014917225144618,10.227275346586007,17.348335909244863
-0.1416,0.9764,0.0506,-0.6534,0.0404,-0.1156,-2.1613,1.5225,-15.05,2.9668918193482297,-8.215919870907404,10.225416792733157,17.349558685658693
-0.1405,0.9804,0.0488,-0.6551,0.0398,-0.1138,-2.9663,1.1375,-15.365,2.8499115223045144,-8.152940738532864,10.037517096395874,17.35076659764144
-0.1394,0.9797,0.0547,-0.6506,0.0407,-0.1167,-3.0975,1.1287,-15.0412,3.1947239170750565,-8.092822444430727,10.372950660863797,17.351983003584806
-0.1399,0.9784,0.051,-0.6506,0.0407,-0.1167,-2.66,1.085,-14.8925,2.9844897943035127,-8.123053239174785,10.362007106918295,17.353210734808993
-0.1406,0.9806,0.0533,-0.6527,0.0387,-0.1157,-2.0913,1.1462,-15.2425,3.1108634156319113,-8.145083404206195,10.247044449620583,17.354421832026976
-0.1405,0.9803,0.0563,-0.6527,0.0387,-0.1157,-2.485,1.05,-15.0237,3.2864691734389964,-8.14325986970132,10.256092762604204,17.355632575329928
-0.1398,0.9783,0.049,-0.6536,0.0398,-0.1189,-2.3187,1.1638,-15.4088,2.868552895416554,-8.124710052868325,10.49428130866996,17.356849335188322
-0.1423,0.9805,0.0554,-0.6522,0.0416,-0.1158,-1.4437,0.6212,-15.3387,3.2328476549465925,-8.232712371487395,10.278854358331103,17.358081667307843
-0.136,0.98,0.0547,-0.6522,0.0416,-0.1158,-2.38,1.05,-14.7788,3.194832539953876,-7.924619447776716,10.27104342584558,17.359299134996284
-0.138,0.9808,0.0496,-0.6537,0.039,-0.1146,-2.6163,1.295,-14.8662,2.8958826462219776,-7.9909655451180654,10.125025820036619,17.360572167343765
-0.1385,0.9811,0.0509,-0.6537,0.039,-0.1146,-2.69589823,-0.0172,-0.2725,2.969664567722264,-8.021426743019461,10.129327069832962,17.36227556036251
0.2037,0.9717,-0.0269,-0.2725,0.1149,-0.0023,8.4087,44.3013,10.4562,-1.573269485719481,11.278724373801095,0.20077795119869637,17.36347250097946
0.2063,0.9823,-0.0172,-0.2725,0.1149,-0.0023,7.1312,40.4687,5.145,-1.0047084596132296,11.840744410144756,0.06772777897220394,17.36466307112595
0.2063,0.9823,-0.0172,-0.2725,0.1149,-0.0023,7.1312,40.4687,5.145,-1.0031466315224982,11.85839047277486,0.0679026872451437,17.366783022129955
0.2178,0.9908,-0.0113,-0.2778,0.1143,-0.0013,5.1363,36.6188,1.2512,-0.6543917273651786,12.377695313853893,0.0007869168426623323,17.36797606968162
0.2262,0.9959,-0.0112,-0.2793,0.1126,-0.0046,3.08,33.8362,-3.1588,-0.6443553791116112,12.77919555422677,0.7714040161838693,17.36918468949442
0.2386,0.9811,-0.0009,-0.2793,0.1126,-0.0046,1.085,31.3337,-7.1138,-0.05421267272104608,13.629605202738622,1.0522417770858803,17.37043223996005
0.233,0.9755,0.0043,-0.2816,0.1137,-0.0068,-0.5688,29.3125,-10.7362,0.25169702180117143,13.442873060933572,1.6893628491389627,17.37164581458321
0.2329,0.9669,0.0086,-0.2816,0.1137,-0.0068,-3.4475,27.5275,-13.44,0.5088687639132019,13.537228404923583,1.810026080647594,17.372931941786643
0.2261,0.9723,0.0195,-0.2816,0.1145,-0.0085,-5.3025,25.655,-15.54,1.1471232255132788,13.114785232891945,2.4877748128756423,17.374161796500985
0.2185,0.9648,0.0106,-0.2822,0.113,-0.0085,-7.63,23.975,-16.3625,0.6309501923135233,12.782990318972102,2.228866438147093,17.375379972019477
0.2018,0.9342,0.0217,-0.2822,0.113,-0.0085,-9.135,22.5225,-17.78,1.3286397886479338,12.229118837930226,2.526503354547623,17.37661478154418
0.1932,0.9239,0.0232,-0.2804,0.1123,-0.0074,-9.9225,17.6312,-17.3337,1.4381322782557584,11.854290550423809,2.3260888048737605,17.3778580850295
0.2119,0.924,0.0272,-0.2804,0.1123,-0.0074,-10.0975,15.2862,-16.3537,1.6854269537982633,12.75236814262235,2.467905294439437,17.379091832809127
0.236,0.9132,0.0189,-0.2831,0.1116,-0.0043,-8.9337,13.9912,-15.4263,1.1870863449393319,14.164148446805134,1.5380787169414798,17.380299744791877
0.2492,0.9134,0.0163,-0.2823,0.1122,-0.0048,-8.6538,13.5975,-14.9275,1.0228313325495648,15.038368599574511,1.604150849425377,17.38153278474145
0.2668,0.9176,0.0221,-0.2823,0.1122,-0.0048,-8.505,14.035,-14.3937,1.3786531518441816,15.991862287738767,1.7912754371319315,17.38274777502471
0.2786,0.9209,0.021,-0.282,0.113,-0.0057,-7.4025,14.5075,-14.805,1.3065408043772968,16.68601941939352,1.997327613020256,17.383957810497616
0.2864,0.9263,0.0246,-0.282,0.113,-0.0057,-6.72,15.2862,-14.4462,1.5206487941609874,17.10185691108964,2.1096309772199677,17.385175632101085
0.2829,0.9325,0.0293,-0.2826,0.113,-0.0109,-6.8425,16.0037,-15.0587,1.7988963818742767,16.900352991218146,3.475350512047195,17.38639451544963
0.2805,0.9357,0.0352,-0.2831,0.1127,-0.0055,-5.74,15.5925,-15.12,2.153375687842751,16.708434901730662,2.333353085040722,17.387601365687303
0.2723,0.9247,0.0332,-0.2831,0.1127,-0.0055,-5.775,15.9425,-15.2775,2.0565145053469065,16.440671432727463,2.277871636465282,17.388809985500103
0.2655,0.9299,0.0378,-0.2859,0.1113,-0.0018,-6.265,16.4675,-15.1025,2.326991489790801,15.988377774962693,1.4813435217346782,17.390029930593723
0.2533,0.9259,0.0376,-0.2859,0.1113,-0.0018,-5.5388,16.1175,-14.7788,2.3254587953327817,15.381515570081897,1.4675584413302232,17.391237842576473
0.2461,0.9339,0.0364,-0.2816,0.1117,-0.0016,-6.6763,15.7412,-14.8487,2.232316432452817,14.840540480198184,1.397244658114532,17.392450355454557
0.242,0.9365,0.0434,-0.2831,0.1104,-0.0039,-8.2512,15.855,-12.9237,2.6521388894060998,14.524582890312619,2.091258725251326,17.393660390927458
0.2348,0.9417,0.0464,-0.2831,0.1104,-0.0039,-9.3712,15.1025,-11.7425,2.8203448608675843,14.067506274088702,2.153138893699426,17.394878212530926
0.2317,0.936,0.0529,-0.2886,0.1116,-0.0061,-11.2,13.8512,-10.2987,3.233551033739973,13.917749118290207,2.7969560886267235,17.40573101679433
0.2323,0.9315,0.0519,-0.2886,0.1116,-0.0061,-11.7512,13.2388,-9.8787,3.1891570173491304,13.968184584762426,2.780811082691357,17.41797718451395
0.2205,0.9283,0.0548,-0.2866,0.111,-0.0023,-12.6437,12.3025,-9.8437,3.377850665003006,13.510185964246105,1.9984015754544784,17.430246002795222
0.2167,0.9224,0.0572,-0.2854,0.1104,-0.0014,-13.8863,10.6312,-8.5137,3.5479926392674668,13.352311401672685,1.8653157213196394,17.443059850216084
0.2391,0.9332,0.0606,-0.2854,0.1104,-0.0014,-14.1662,9.1525,-7.2537,3.714959328099255,13.667165234920661,1.9649267917783113,17.455289383929497
0.2518,0.9386,0.0684,-0.2894,0.109,0.0018,-15.12,8.3825,-5.285,4.166707364318582,14.39264562177477,1.396313120740862,17.46739610912899
0.2633,0.933,0.0715,-0.2894,0.109,0.0018,-15.7587,7.6825,-4.095,4.381636840543084,15.265155878458486,1.5024409219450914,17.479305703659165
0.2669,0.9188,0.0788,-0.2912,0.109,0.0004,-16.975,7.49,-3.045,4.900391794758144,15.861621734710408,2.0460171016359037,17.488141192276018
0.2744,0.9193,0.0838,-0.2944,0.1084,0.0052,-16.6513,6.7813,-2.8,5.207571902148606,16.37423450472955,1.0634390018339888,17.50026101233146
0.2816,0.9082,0.0937,-0.2944,0.1084,0.0052,-17.8675,5.985,-3.0713,5.888414142580791,16.975664210376138,1.3670319994680198,17.512422240444913
0.2808,0.9015,0.105,-0.2954,0.1066,0.0064,-17.5788,5.8275,-3.745,6.641226733529125,17.14646451075173,1.3654882607690604,17.524608950440218
0.283,0.9037,0.1124,-0.2954,0.1066,0.0064,-17.4825,5.3025,-3.8238,7.088577209612153,17.24131384237904,1.5564623256191856,17.536715675639712
0.2819,0.9018,0.1136,-0.2977,0.1065,0.0095,-17.7187,4.3925,-3.9113,7.179478770830997,17.232710410809304,0.8813141740768728,17.545537007655536
0.291,0.9085,0.1225,-0.2986,0.1066,0.0141,-17.8412,3.43,-4.0687,7.6778376274819555,17.558627342485003,0.062189527970101466,17.557683725252936
0.3066,0.911,0.1348,-0.2986,0.1066,0.0141,-18.4013,3.22,-4.3313,8.414756162381941,18.298445230540207,0.3801886874695676,17.569879637038905
0.3155,0.8991,0.1427,-0.3012,0.1049,0.0139,-18.025,3.22,-5.4862,9.016653039651278,19.004388107170413,0.6221962721229314,17.582041926897436
0.3127,0.8866,0.1446,-0.3012,0.1049,0.0139,-17.7625,3.5175,-7.3587,9.262368681006427,19.166288930877567,0.7265839131708766,17.59423536127823
0.3015,0.8788,0.1515,-0.303,0.1065,0.0152,-16.4675,3.5525,-9.4587,9.779791025018572,18.748899293076803,0.7063263738083355,17.606317666340946
0.2963,0.8686,0.1552,-0.303,0.1065,0.0194,-16.2138,2.9225,-11.1737,10.12957771169547,18.586565816785132,0.08220814656924776,17.615174743774368
0.2919,0.8662,0.1553,-0.302,0.1048,0.0194,-15.61,2.38,-13.0987,10.164399228691764,18.37931924636189,0.13601059559326667,17.627366408580034
0.2861,0.8638,0.1693,-0.302,0.1037,0.0199,-14.1925,1.8987,-14.875,11.086390775768091,18.048420644610722,0.09363320318652432,17.63954851768
0.2695,0.8569,0.1593,-0.302,0.1037,0.0199,-13.23,1.3475,-15.785,10.532833264933226,17.275476609619908,0.13598318251370414,17.651724610224534
0.2651,0.8556,0.1617,-0.305,0.1034,0.0178,-12.6875,-0.1663,-15.8112,10.701622596337279,16.964715190619412,0.37500638627672606,17.663960514408412
0.2627,0.8522,0.1585,-0.305,0.1034,0.0178,-11.7687,-1.505,-15.6012,10.536489931066784,16.868778045679303,0.30839957445630994,17.676195356847213
0.2631,0.8523,0.153,-0.3031,0.104,0.0236,-10.85,-2.6775,-12.88,10.178052547144945,16.898334657234383,1.07236980758271,17.688328271758607
0.268,0.8516,0.1633,-0.3028,0.1038,0.0255,-7.1663,-4.865,-12.1887,10.853144103972914,17.156987585939532,1.2212017131926132,17.70054966542643
0.3152,0.8789,0.1425,-0.3028,0.1038,0.0255,-4.515,-5.5388,-12.7312,9.214145789925904,19.349677650711616,1.9611368406494534,17.7127070004746
0.3282,0.9007,0.1444,-0.3024,0.103,0.0286,-2.6775,-4.5588,-13.2475,9.108438395996606,19.759276651384027,2.7482130918434176,17.721595930260335
0.3468,0.9327,0.1404,-0.3024,0.103,0.0286,-1.715,-3.6312,-14.7087,8.562044690018165,20.1574805958002,2.9984408794750155,17.733777331530256
0.3551,0.9505,0.1393,-0.3031,0.1039,0.0242,-2.0563,-1.4612,-15.8112,8.338229574025767,20.27586108789382,2.0555232475714305,17.745942098793964
0.3583,0.9653,0.1441,-0.3048,0.1054,0.0242,-3.5088,1.0412,-16.5375,8.489986445885142,20.17101592330374,1.9262590579138095,17.7581086356328
0.3234,0.9246,0.1532,-0.3048,0.1054,0.0242,-5.4338,3.7713,-17.4737,9.405437566767302,19.20339181491395,1.5053480209482772,17.770275880301693
0.3131,0.9022,0.1501,-0.3035,0.1021,0.0246,-6.545,6.2825,-17.5438,9.445728666099518,18.968326201910774,1.698763429971562,17.78243640058509
0.3015,0.8971,0.1523,-0.3035,0.1021,0.0246,-6.2213,8.26,-17.2725,9.634655262198898,18.601847508969986,1.6084280642831799,17.79120146011183
0.2878,0.8967,0.1523,-0.3014,0.1042,0.028,-6.3088,10.2112,-15.6363,9.639399412100518,18.213855177524508,2.28088259866464,17.803409758923703
0.2704,0.895,0.1559,-0.3011,0.1022,0.0257,-6.93,11.4187,-13.7025,9.880514767746897,17.1604978029328,1.7236841137643137,17.8156184116506
0.2534,0.8817,0.1566,-0.3011,0.1022,0.0257,-6.5188,11.9175,-11.4275,10.070814163982522,16.212444248311844,1.6304428614978463,17.82781043037129
0.2585,0.8699,0.1579,-0.3046,0.1042,0.0262,-6.2213,11.655,-9.31,10.287417451227224,16.269831962582785,1.5657682153856722,17.83996174886402
0.2606,0.8627,0.1615,-0.3046,0.1042,0.0262,-5.915,10.7275,-7.2888,10.602313941761366,16.4103088672779,1.4414339536040717,17.852122976977473
0.2708,0.8571,0.1674,-0.3047,0.1052,0.0221,-4.3838,7.3238,-4.2438,11.050032445496853,16.979964688204834,0.337739373527222,17.860878834713542
0.2774,0.8533,0.1619,-0.3091,0.1043,0.0247,-1.8637,7.7962,-3.1238,10.744119335620168,17.45339311185038,1.0550310029493521,17.873002547834272
0.287,0.8565,0.169,-0.3091,0.1043,0.0247,-0.7525,7.2713,-3.4913,11.160741869500114,17.97564161087152,0.8901498467547488,17.885134754915615
0.3041,0.8662,0.1609,-0.311,0.1022,0.0253,0.2362,7.4113,-4.1388,10.524762309350818,18.710328811908767,1.369499670676654,17.897217413893358
0.2991,0.8705,0.167,-0.311,0.1022,0.0253,1.505,7.0875,-5.0138,10.858956860123833,18.66461797106256,1.227114114249848,17.90595168281286
0.3034,0.8659,0.1703,-0.3118,0.1026,0.0258,1.925,6.2388,-5.635,11.125832637909358,18.902604189430328,1.2129043844918717,17.91805451494707
0.3072,0.8584,0.1661,-0.3118,0.1026,0.0258,2.625,6.0813,-6.0288,10.951849881184984,19.258674631021695,1.2905846203116687,17.930159470571436
0.3187,0.8647,0.1668,-0.3122,0.102,0.0182,3.0363,5.915,-6.09,10.918303104296257,19.75970136021576,0.3203418098462374,17.942236820823794
0.3303,0.8652,0.1613,-0.3146,0.1009,0.0203,3.1325,5.4163,-6.5188,10.561462217863346,20.41496098388517,0.32419205366611986,17.950982415024118
0.329,0.8618,0.1536,-0.3146,0.1009,0.0203,4.0687,4.8913,-7.4988,10.107064264789205,20.56607790386766,0.5057467157718099,17.963080646262995
0.3276,0.8572,0.1549,-0.317,0.1002,0.0209,4.795,4.13,-8.0412,10.242697624306645,20.603613888508256,0.6040686736148223,17.97518312448218
0.3421,0.8663,0.1477,-0.317,0.1002,0.0209,4.9525,3.99,-9.1787,9.677186646867979,21.16946756024663,0.834291058434617,17.9872916192568
0.3662,0.871,0.1486,-0.3158,0.1011,0.0193,5.88,3.78,-10.1763,9.681913815277552,22.315232730592445,0.4594115531434709,17.99602836558148
0.328,0.8851,0.1429,-0.3158,0.1011,0.0193,6.055,3.22,-10.4562,9.172708666219222,20.394766607941662,0.6445288406170716,18.00816835879339
0.3339,0.8705,0.1472,-0.3178,0.1023,0.017,6.3438,3.1675,-8.5487,9.596650586103236,20.673580016416867,0.06430568540718014,18.020249248196006
0.3595,0.9025,0.1392,-0.3178,0.1016,0.0176,6.475,2.345,-9.695,8.770385821305968,21.390188004090493,0.4232298591897385,18.032331553258725
0.3689,0.88,0.136,-0.3186,0.1016,0.0176,6.44,1.6362,-11.34,8.785257674465251,22.379612719713077,0.42168688562448314,18.044424475772217
0.3679,0.8979,0.1389,-0.3175,0.1009,0.0155,6.7112,0.8225,-15.68,8.793604045008223,22.078158962001332,0.023739983881025634,18.05325430174866
0.3429,0.8933,0.1286,-0.3175,0.1009,0.0155,6.055,0.0788,-17.8412,8.193708833122606,20.92472462777246,0.2119297198759211,18.065251667205207
0.3294,0.8827,0.1254,-0.3174,0.1005,0.0134,5.95,-1.19,-20.16,8.085867398972358,20.332246494245506,0.1892821989524058,18.07740440135804
0.3037,0.8767,0.1147,-0.3174,0.1005,0.0134,5.9588,-2.625,-21.8225,7.455500362183587,19.06070087734168,0.05328829355403142,18.089611992339865
0.2809,0.8743,0.1138,-0.3175,0.1005,0.0124,6.4663,-5.7838,-22.2075,7.4161072840826,17.75645529782176,0.14227934389365343,18.101871254915437
0.2721,0.8866,0.1024,-0.316,0.102,0.0114,5.5825,-10.0362,-23.59,6.590605709418373,16.993999187350184,0.07961477856673013,18.111310168651126
0.2586,0.9061,0.0922,-0.316,0.102,0.0114,6.1863,-14.6737,-25.445,5.812270944961496,15.896175976774671,0.21070922006588672,18.123428926961495
0.1415,0.9634,0.0561,-0.3113,0.1012,0.011,4.935,-20.2388,-26.7663,3.339495058537647,8.586496937613287,0.9954813704228912,18.135536006076013
0.0581,0.9996,0.0367,-0.3113,0.1012,0.011,2.7562,-28.3062,-33.25,2.106091033719619,3.459428200783447,1.3674949775846126,18.147583273551188
0.0253,1.0591,0.0156,-0.3076,0.1037,0.0105,-6.65,-57.2863,-39.5325,0.8474801397725468,1.3990797660981498,1.684477299239751,18.159784494062546
0.0314,1.1057,-0.0151,-0.3009,0.1034,0.0214,-17.0625,-74.69,-44.8787,-0.7776155579761969,1.6238479457581345,4.377429166989899,18.17211206223808
0.0624,1.1478,-0.0002,-0.3009,0.1034,0.0214,-29.4263,-90.3263,-49.1575,-0.012327653497841245,3.0970740745131087,4.154931832110238,18.184319299304875
0.1837,1.103,0.0002,-0.2933,0.1022,0.0238,-41.0375,-102.1825,-52.3862,0.010317161795861327,9.399214099276234,4.9866376751149195,18.19646212383699
0.2266,1.0457,0.0107,-0.2933,0.1022,0.0238,-51.7212,-111.1338,-54.1712,0.5843645647139617,12.202940452398401,4.908309634599203,18.20867077656389
0.2533,0.9997,0.0138,-0.2856,0.1063,0.0369,-59.4212,-117.9413,-55.6063,0.7901746299680447,14.2011866784748,8.04412767823292,18.220932516544643
0.2754,0.9606,0.0296,-0.2785,0.1062,0.0489,-65.4675,-122.3775,-56.56,1.7616131993756188,15.976722842901921,10.842662861455942,18.233215137511912
0.2889,0.9159,0.038,-0.2785,0.1062,0.0489,-68.9238,-125.58,-57.6975,2.3736633691379385,17.481445101150644,10.796731982037164,18.24553775087709
0.3049,0.8968,0.0484,-0.2702,0.1073,0.0627,-70.9363,-128.6687,-59.1675,3.0867349830440034,18.742845874421217,14.459914733257298,18.25777436289102
0.3134,0.8886,0.0429,-0.2702,0.1073,0.0743,-70.91,-132.3437,-60.7513,2.7651189643691545,19.401665975298084,17.566957620141164,18.270047428152594
0.331,0.8775,0.0578,-0.2624,0.1092,0.0743,-69.7813,-132.7987,-62.5887,3.765073797315959,20.617416128004155,18.04982526569722,18.28234208223074
0.3541,0.8547,0.0711,-0.2575,0.1117,0.0916,-67.8213,-132.4138,-64.5925,4.751894391689195,22.42162392548034,23.061258661078302,18.29462824234827
0.3709,0.8501,0.0747,-0.2575,0.1117,0.0916,-65.0213,-130.8125,-65.9225,5.020872160084536,23.483498456652764,23.36195084184508,18.306877241388097
0.3807,0.8625,0.0774,-0.2535,0.1166,0.113,-61.9062,-127.575,-66.2463,5.12757464765514,23.729681320815587,29.3935387988786,18.31916871023101
0.3827,0.8767,0.0788,-0.2447,0.1187,0.1186,-58.345,-123.1738,-64.54,5.136058609215291,23.499720283511344,31.84853615433461,18.331453100773413
0.3627,0.8977,0.0809,-0.2447,0.1187,0.1186,-56.5425,-117.3113,-60.5325,5.1494940170592765,21.932291039596503,30.99393014552301,18.343737137400783
0.3601,0.8842,0.0933,-0.2421,0.1214,0.1305,-55.0638,-111.2563,-54.1188,6.020614401230025,22.047598053238495,33.93483611352535,18.35597339549969
0.356,0.8774,0.0989,-0.2421,0.1214,0.1305,-51.8175,-98.5775,-42.9188,6.429854112926928,21.959657735311673,33.7147644693094,18.368220978879414
0.3569,0.8566,0.1083,-0.2422,0.1244,0.1454,-48.7025,-92.6363,-39.1475,7.203161378410244,22.453252659386656,37.16018503003907,18.38050890857207
0.3488,0.8489,0.1076,-0.2418,0.1261,0.1507,-44.45,-86.5988,-36.1287,7.2237816927851055,22.17979380874095,38.24802075985638,18.392745520585997
0.3264,0.8537,0.1182,-0.2418,0.1261,0.1507,-41.475,-80.9113,-33.7575,7.880745997709455,20.75852222014079,37.09193165128843,18.404909226104632
0.3206,0.859,0.1389,-0.2413,0.128,0.1547,-38.2375,-75.4425,-31.8325,9.181110222700338,20.231955959296425,37.21245681616477,18.413993163069534
0.3411,0.8804,0.1185,-0.2413,0.1321,0.17,-35.6825,-69.7638,-30.8612,7.670538127311548,20.995916376308337,41.54863342909721,18.42622588201818
0.3342,0.8957,0.1382,-0.2436,0.1321,0.17,-33.7837,-63.2187,-30.4762,8.767749802842735,20.25179515332793,40.29153006684153,18.43848479067873
0.3387,0.8947,0.1434,-0.243,0.1338,0.1746,-32.4012,-57.1375,-30.73,9.104719895441312,20.491744650745716,41.37353372504111,18.45077378211646
0.3269,0.8969,0.1606,-0.243,0.1338,0.1746,-30.7475,-51.3537,-31.1238,10.14865405427571,19.74872061193181,40.46167878795371,18.462925808439245
0.3229,0.8908,0.1714,-0.2428,0.1374,0.1805,-28.63,-45.7275,-33.3725,10.88899025946059,19.596144964192575,41.32403016433844,18.475182593609638
0.3104,0.9032,0.1692,-0.2409,0.137,0.1845,-25.2437,-35.2363,-34.1512,10.611302499262717,18.68481516770168,41.85599139486433,18.487431946564495
0.2977,0.9007,0.1702,-0.2409,0.137,0.1845,-23.3537,-31.0363,-34.9562,10.700405722704543,18.009027516431797,41.372370347239965,18.499745004223975
0.2735,0.9129,0.1727,-0.2431,0.1375,0.1874,-21.9713,-27.4662,-35.2887,10.712431941741329,16.44519855770293,40.5694474661611,18.51190941757266
0.2627,0.9206,0.1738,-0.2431,0.1375,0.1874,-21.28,-23.8787,-34.6325,10.691099215436111,15.68636708657864,40.12781460082622,18.524158770527514
0.2577,0.9163,0.1716,-0.2381,0.1403,0.1946,-20.475,-20.6063,-34.9388,10.60744545379424,15.460095401794845,42.08316487750037,18.53644599239012
0.2482,0.9178,0.1745,-0.2354,0.1413,0.1954,-19.1187,-17.5175,-35.0875,10.764610019822538,14.898779401620518,42.215883873398305,18.54867021737815
0.2147,0.9221,0.1831,-0.2354,0.1413,0.1954,-17.9288,-14.4112,-33.9938,11.229669629194186,12.945804512210938,40.800176745250916,18.560880639680175
0.1951,0.9187,0.1828,-0.2354,0.144,0.1967,-16.8262,-11.8387,-33.3462,11.253481769974936,11.818037933106991,40.37537408844267,18.573132823955234
0.1901,0.9202,0.1875,-0.2354,0.144,0.1967,-15.1725,-10.57,-32.165,11.516160124443239,11.461202391043724,40.072545039189365,18.585398810916296
0.1925,0.9288,0.1947,-0.2291,0.1434,0.2004,-14.3675,-8.3737,-28.8225,11.838273757737571,11.466443089046301,41.496948800732895,18.59760852538827
0.1884,0.9204,0.1818,-0.2302,0.145,0.2011,-12.9062,-7.63,-26.0225,11.175327238228302,11.360873827299333,41.68189544045291,18.609719497568072
0.1818,0.8989,0.1832,-0.2302,0.145,0.2011,-11.9087,-6.8162,-23.5375,11.518387161179948,11.217959673982884,41.442116840833165,18.61877724482107
0.1821,0.8893,0.1885,-0.2317,0.1471,0.2037,-10.3425,-6.2213,-19.355,11.966241983507459,11.32090837973921,41.52000880112444,18.63129628102552
0.1835,0.8863,0.1911,-0.2317,0.1471,0.2037,-9.4587,-5.5475,-15.2512,12.167002752992943,11.434049169790905,41.49551679935511,18.643170837968146
0.1889,0.8896,0.1898,-0.2304,0.1472,0.2022,-7.8663,-4.2788,-11.76,12.0440782462661,11.711801073632655,41.66028854900098,18.65536745758417
0.1979,0.8971,0.1944,-0.2306,0.1478,0.2051,-6.5363,-3.6225,-10.1675,12.226329450868093,12.134576493530483,42.3096776182042,18.667458256607507
0.2176,0.9048,0.1956,-0.2306,0.1478,0.2051,-5.635,-3.0713,-9.9312,12.19858588390653,13.148211412266802,42.996280274992664,18.67962266995619
0.2265,0.9088,0.1951,-0.2326,0.1471,0.2076,-4.9963,-2.2225,-10.3162,12.116516961337787,13.652248236746653,43.45781720522315,18.69181433476185
0.2334,0.9119,0.1961,-0.2326,0.1471,0.2076,-3.8937,-0.595,-10.4125,12.136316190334234,14.013231063194755,43.68151465626062,18.7040360823447
0.2377,0.9133,0.1972,-0.2333,0.1446,0.2078,-3.8937,1.2862,-10.29,12.184133772743918,14.24551247933959,43.7283011192997,18.712841134269343
0.2375,0.9185,0.197,-0.2345,0.1459,0.2058,-3.99,3.0713,-10.0362,12.105629926571572,14.195989329607501,43.184289466007286,18.724745066159105
0.2472,0.9014,0.1965,-0.2345,0.1459,0.2058,-4.235,4.2438,-9.5288,12.29721108648141,14.873802927410026,43.63980825930799,18.736901693377224
0.2458,0.906,0.2075,-0.2368,0.1467,0.2069,-4.4975,5.7663,-8.365,12.898187634895892,14.825573837392438,43.09384731291886,18.7494101121309
0.2558,0.8996,0.2119,-0.2368,0.1467,0.2069,-4.1825,7.4812,-8.2075,13.25335414025972,15.265113867950786,43.38653046978654,18.761287146478704
0.2668,0.9043,0.2194,-0.2373,0.1458,0.207,-4.1737,11.2087,-6.1775,13.636423041782042,15.71528963097441,43.524519405163026,18.770680051261053
0.2806,0.92,0.2185,-0.2378,0.1473,0.2038,-3.255,14.315,-6.3612,13.360999457250342,16.38533851562394,43.380364250625405,18.782357477534358
0.296,0.9289,0.2262,-0.2378,0.1473,0.2038,-3.885,18.9437,-5.6875,13.685023366245582,17.123796800236292,43.72786844758942,18.794484375890317
0.3112,0.9303,0.2344,-0.2376,0.1438,0.2037,-3.255,24.1325,-4.3663,14.140689719922918,17.91723554842287,44.09125778622923,18.80663073957269
0.2808,0.8586,0.2444,-0.2376,0.1438,0.2037,-2.7475,30.1437,-2.6338,15.884036467518591,17.48211568872543,42.90883015836259,18.818729324726593
0.2649,0.8281,0.2566,-0.2409,0.1442,0.2034,0.0,34.6237,-2.4063,17.212696047299296,17.00972862581402,41.30539750273648,18.827639843328896
0.268,0.8165,0.2533,-0.2409,0.1442,0.2034,4.3838,38.3775,-1.5837,17.235216641141054,17.392452894843068,41.60673823651519,18.8397026830652
0.2896,0.8161,0.2432,-0.2392,0.144,0.2001,9.94,42.4375,-1.82,16.595945821808282,18.741006728096842,42.6325470607674,18.851816132650182
0.3176,0.8406,0.2389,-0.2368,0.143,0.195,14.0787,48.7638,-0.3675,15.867212741102927,19.94212973912053,43.335479921118704,18.863924627424804
0.3301,0.8419,0.2327,-0.2368,0.143,0.195,17.465,55.8512,1.6362,15.451838087980345,20.686441018128917,44.14043642801282,18.876022504748654
0.286,0.8205,0.2327,-0.236,0.139,0.1902,21.8575,63.5775,4.2175,15.832728861566826,18.57756991136699,41.36699758590897,18.884901170998646
0.2424,0.81,0.221,-0.236,0.139,0.1902,26.9762,70.5775,8.0237,15.262592916435686,16.14368788650766,39.90737109473688,18.897006126623012
0.2197,0.8263,0.2259,-0.2378,0.1362,0.1741,31.3862,74.7513,11.5675,15.290244871278695,14.411327581675167,35.32591397465759,18.909158152945793
0.2096,0.8373,0.2078,-0.2378,0.1362,0.1741,36.47,77.385,15.0412,13.941422998775025,13.666862636894386,35.63234280662468,18.921264170315236
0.2091,0.8641,0.1993,-0.2398,0.1325,0.1742,40.8625,78.645,17.4387,12.990234263067935,13.273428590306436,35.69976961168058,18.93340310178207
0.2138,0.8821,0.1843,-0.2418,0.1276,0.1619,43.6625,79.5025,19.1275,11.804194941775638,13.345788331190603,33.66210869455253,18.94290111932705
0.2236,0.8968,0.1687,-0.2418,0.1276,0.1619,46.2875,80.4913,19.6087,10.656450849586033,13.762219244566781,34.40451207273009,18.9549356458613
0.2311,0.8947,0.1605,-0.2422,0.1259,0.1514,47.9412,80.045,20.2038,10.171303418171414,14.257647617595843,32.686108915291506,18.966902928540662
0.2483,0.9002,0.1528,-0.2422,0.1259,0.1514,49.77,80.36,19.9062,9.634891708184252,15.199697689358304,33.38962770133896,18.978768991522674
0.2606,0.9174,0.1448,-0.2451,0.1226,0.1379,50.89,80.1675,17.675,8.971051344160488,15.666967339856752,30.670689641294665,18.99089872119884
0.2661,0.9249,0.1322,-0.2479,0.1205,0.1277,51.7562,80.3338,15.5837,8.136485879472621,15.894378436726171,28.576818747975235,19.003024911724744
0.2649,0.9412,0.1219,-0.2479,0.1205,0.1277,50.26,80.535,13.4837,7.381471549480855,15.59952981056057,28.79645327704565,19.011999135031676
0.268,0.9446,0.1113,-0.2508,0.1172,0.1172,49.595,80.3775,11.8037,6.7216696907833615,15.734274325738353,26.482775236246432,19.024098781930658
0.2769,0.9537,0.0994,-0.2508,0.1172,0.1172,48.5887,80.9288,9.6775,5.952108642475883,16.102423717251742,26.964856283593168,19.036182856568505
0.2696,0.9578,0.0914,-0.2545,0.1159,0.1002,46.0687,82.3725,7.91,5.452302527866312,15.659253418818707,22.77692603750899,19.048341607276775
0.2585,0.9512,0.098,-0.2545,0.1159,0.1002,44.0737,82.4863,7.175,5.8812287247875865,15.134453601678974,22.408784100328567,19.060372240745743
0.2437,0.9343,0.092,-0.2551,0.1145,0.0995,42.2887,81.55,6.3,5.624398802121178,14.559746047129439,22.13627462243669,19.069262940106608
0.215,0.9101,0.093,-0.2584,0.1121,0.0894,41.8338,80.4825,5.4425,5.8340799011244515,13.243877374514891,19.099707165796968,19.08135373912994
0.1944,0.9077,0.0908,-0.2584,0.1121,0.0894,42.63,78.2863,5.1712,5.712772424250054,12.047436254247886,18.869846098663196,19.09345763300923
0.1861,0.9295,0.0871,-0.2606,0.1106,0.0797,43.3825,74.725,5.8538,5.3542405946573846,11.285375878080337,16.53259515609847,19.105543123307182
0.1914,0.9549,0.0797,-0.2606,0.1106,0.0797,42.7088,71.4525,6.16,4.772549404517334,11.295732523010667,16.79511421683323,19.114465321105335
0.2006,0.9801,0.0661,-0.2638,0.109,0.0656,41.5363,68.2675,6.0813,3.8605994450940564,11.537509505953587,13.846138785763534,19.126543025272717
0.2128,1.0028,0.0698,-0.2667,0.109,0.0584,39.2262,65.9925,5.4338,3.981351271910586,11.94545017443249,12.046368328638357,19.13863736344631
0.2245,1.0167,0.0701,-0.2667,0.109,0.0584,35.4637,63.7088,3.5263,3.9443138311598593,12.414562572411405,12.129576410099443,19.150714713698672
0.2178,1.011,0.0624,-0.27,0.106,0.0536,31.4212,61.6263,2.0738,3.532938473620792,12.140308852535046,11.027356895687971,19.162764458579023
0.1871,0.9953,0.0694,-0.27,0.106,0.0536,28.1312,60.1475,0.315,3.9874646854595635,10.650696742042735,10.647560392794803,19.172094366486796
0.1699,0.986,0.0687,-0.2743,0.1069,0.0485,24.71,57.645,-0.3325,3.9856729225226544,9.771872018721629,9.242230608751496,19.18414552702725
0.1647,0.9856,0.0669,-0.2743,0.1069,0.0485,22.8463,54.5913,-0.14,3.883404230825015,9.472111237788974,9.256473088279265,19.196200226717966
0.1697,0.9894,0.0688,-0.2758,0.1084,0.0421,20.6063,50.7062,-0.595,3.9775288201032324,9.703920647566738,7.757865649615577,19.20797604136842
0.173,0.9956,0.0728,-0.2793,0.1056,0.0389,17.1937,46.2088,-0.6125,4.1815768951173515,9.82841188100144,6.906631946177647,19.220154257403106
0.1801,0.9814,0.0645,-0.2793,0.1056,0.0389,14.2887,41.2038,-2.835,3.7613456685866855,10.36010313762853,7.120320446388867,19.23224611817152
0.2025,0.9761,0.0763,-0.2804,0.1048,0.0355,8.645,33.25,-3.9375,4.4676828186151845,11.631752763539257,6.1457326275171,19.241053293586315
0.2145,0.9751,0.0797,-0.2804,0.1048,0.0355,6.5975,29.6275,-4.4888,4.672131320454511,12.331261275231954,6.106922008020161,19.253185146752635
0.2253,0.9723,0.0852,-0.282,0.1065,0.0338,4.2875,27.475,-5.4775,5.006951898871987,12.962776386247738,5.563443046643782,19.265328325199775
0.2356,0.965,0.0847,-0.282,0.1065,0.0338,1.6625,25.5412,-5.81,5.0160859055643,13.627746926478,5.6041514834906385,19.27742655643865
0.2394,0.956,0.085,-0.284,0.1065,0.037,-0.8225,24.0012,-5.9588,5.080747154791092,13.98116645270937,6.2820227409341225,19.286219221337397
0.2425,0.9451,0.0919,-0.2843,0.1068,0.0322,-2.3013,22.96,-6.055,5.5525542751292845,14.302052546817256,4.99663688598375,19.29839000515654
0.2473,0.9273,0.1043,-0.2843,0.1068,0.0322,-3.045,20.9387,-6.4488,6.415045854628886,14.799222688468165,4.649070394023161,19.31136665348923
0.2578,0.9168,0.1082,-0.2864,0.1054,0.0311,-3.4913,19.355,-6.86,6.729973141668462,15.527934497966266,4.296028376489571,19.322680609031135
0.2582,0.8926,0.1049,-0.2864,0.1054,0.0311,-3.6837,17.6225,-6.5713,6.702837537451151,15.973203451448516,4.331707345389472,19.334847499784996
0.2613,0.8985,0.1049,-0.2898,0.1054,0.0305,-2.8612,16.3975,-7.9012,6.659266812080154,16.093878855623252,4.161480871855732,19.34705792208702
0.2636,0.8982,0.1114,-0.2886,0.1041,0.0304,-2.2662,14.2012,-8.5575,7.068894295853155,16.212102169027062,4.017000994667147,19.355804578032423
0.2675,0.9024,0.1035,-0.2886,0.1041,0.0304,-1.6538,12.18,-9.1,6.5443811825082125,16.354248709796238,4.252378477631015,19.367982440152083
0.281,0.9029,0.1039,-0.2911,0.1026,0.0313,-1.295,10.955,-9.4237,6.564305024324033,16.826789552562754,4.4838343160859235,19.38010119846245
0.2869,0.9028,0.0981,-0.2911,0.1026,0.0313,-1.1112,9.8437,-10.0887,6.202558517793761,16.95628755418652,4.658770378002408,19.39229994156863
0.3004,0.9125,0.1047,-0.2904,0.1043,0.0335,-0.3763,8.61,-10.5962,6.544516180713472,17.53617369272393,5.038712083356478,19.404440996525615
0.311,0.916,0.1016,-0.2904,0.1025,0.0281,-1.015,8.505,-10.955,6.329812114409636,18.121552085578276,3.938238669343773,19.416608949024557
0.3221,0.9135,0.1033,-0.291,0.1025,0.0281,-1.0412,8.8638,-10.2287,6.451346291870027,18.632408035647593,3.9117140025766415,19.425515928476607
0.3306,0.9106,0.1061,-0.293,0.1036,0.0294,-2.1438,9.5025,-9.0562,6.645392656952918,18.757486484499015,4.109470541505221,19.43752674270413
0.323,0.8962,0.0966,-0.293,0.1036,0.0294,-3.185,9.7037,-5.1887,6.153465107929199,18.832125185060885,4.319124115917179,19.449649747994805
0.3292,0.8907,0.1052,-0.2951,0.1024,0.029,-2.59,10.92,-5.4163,6.734317250787694,19.580313323476936,3.9882369085446236,19.46181345351344
0.33,0.9079,0.0929,-0.2951,0.1024,0.029,-2.905,10.4825,-5.32,5.8449216594553395,19.71888902515661,4.356136773784279,19.473936458804115
0.3334,0.9048,0.1025,-0.2965,0.1032,0.026,-2.7475,10.535,-5.7663,6.461435429266479,19.905651815641228,3.36080957193002,19.48286007226237
0.3392,0.9024,0.1018,-0.2988,0.1022,0.0289,-2.8175,10.2287,-7.42,6.436412748624211,20.123753171836157,4.058631189011725,19.494926805063958
0.3374,0.8933,0.098,-0.2988,0.1022,0.0289,-2.8,10.115,-9.0125,6.261127361926176,20.274521368694195,4.139841322216595,19.507088387092438
0.3351,0.8832,0.1019,-0.2992,0.1028,0.0295,-3.01,10.0275,-10.29,6.580547046184891,20.384037891938405,4.128578917134561,19.519317566890827
0.3362,0.8817,0.1088,-0.2992,0.1028,0.0295,-3.7188,9.8962,-10.7625,7.033336165512635,20.45879318378402,3.9377777091248167,19.531423938175294
0.3426,0.8797,0.1142,-0.3014,0.1024,0.0314,-4.6638,9.7825,-10.9987,7.395568764346074,20.551248699229223,4.223855118104162,19.543578441903257
0.3407,0.8741,0.1116,-0.3009,0.1026,0.0265,-6.2562,10.4038,-10.3075,7.276169808044704,20.80931621242602,3.135149235939617,19.55241534618021
0.348,0.8754,0.1172,-0.3009,0.1026,0.0265,-8.19,10.7275,-9.5637,7.624507063755323,21.1751908412557,3.0001974208506272,19.564565956842895
0.3559,0.8653,0.1404,-0.3034,0.1014,0.0296,-9.2837,11.5062,-7.5862,9.2116786916631,21.777585150353364,3.0736178327380035,19.576733909341836
0.3638,0.8745,0.139,-0.3034,0.1014,0.0296,-11.8475,11.655,-5.3725,9.032017186581658,22.15165077803705,3.1648103355158135,19.58892309674232
0.3687,0.8688,0.1546,-0.3034,0.1018,0.033,-13.055,13.23,-3.5,10.0868969822256,22.562203382226556,3.5074353361724073,19.60112396333865
0.3695,0.8651,0.1586,-0.3034,0.1018,0.033,-14.42,14.5162,-2.3363,10.387869655370453,22.749774896546075,3.3820468332742757,19.613295101072822
0.3601,0.8545,0.1652,-0.3067,0.1025,0.0354,-15.1112,16.0387,-1.6013,10.940348799344038,22.514243267929057,3.6122626573328764,19.625419875938626
0.3489,0.842,0.171,-0.3091,0.0999,0.0346,-15.855,16.6513,-1.54,11.478366948460511,22.152560166984298,3.2506262590789867,19.63431163704457
0.3384,0.823,0.1845,-0.3091,0.0999,0.0346,-14.0612,16.5112,-4.8738,12.632272169662915,21.89851466088902,2.7522548239670734,19.64656629872481
0.3479,0.8244,0.1861,-0.3109,0.1001,0.036,-11.8125,15.5837,-7.9363,12.72047291970628,22.3059922635344,3.0260549321632673,19.659185846796557
0.3547,0.8349,0.1873,-0.3109,0.1001,0.036,-10.395,14.8225,-10.3775,12.644509417390367,22.482032198913597,3.065271935769938,19.671275584074817
0.3598,0.8524,0.192,-0.3151,0.1008,0.0366,-8.8112,15.2775,-12.39,12.693676533598092,22.39629946378742,3.093043493055301,19.683388325829746
0.3599,0.8628,0.1923,-0.312,0.0999,0.039,-8.4612,15.2163,-13.3,12.565032643781668,22.190072132762637,3.7526122406704503,19.695496112774315
0.3414,0.8659,0.1903,-0.312,0.0999,0.039,-7.2975,15.3212,-14.3675,12.395407872279238,21.229288450133435,3.763373516496265,19.707936933758077
0.3287,0.8636,0.1838,-0.315,0.099,0.0384,-6.86,14.9625,-16.1875,12.01607632597053,20.546896078611432,3.749644175078446,19.71984829786338
0.3171,0.8653,0.1845,-0.315,0.099,0.0384,-5.3725,13.9475,-17.9112,12.036352784111228,19.873545841914105,3.7049414747174447,19.72846542090937
0.3118,0.8638,0.1865,-0.3114,0.1007,0.034,-4.0862,13.475,-19.3812,12.183095452560378,19.524936985022432,2.654410173296628,19.74066239444042
0.305,0.8632,0.1817,-0.3107,0.1004,0.038,-2.5288,11.69,-21.5862,11.887821006537987,19.22037526838531,3.6458103224406164,19.752854059246083
0.2976,0.887,0.1764,-0.3107,0.1004,0.038,-0.9975,9.5288,-23.8875,11.249606695178533,19.137088653837246,3.8613574414112026,19.765017056934663
0.2883,0.8809,0.1762,-0.3091,0.1009,0.0372,1.12,8.0062,-25.62,11.311011292483045,18.307144202706763,3.646519161881599,19.777100777657488
0.2815,0.8833,0.1681,-0.3091,0.1009,0.0372,2.485,6.65,-27.1513,10.77654872031723,17.616504144262578,3.8416496366749375,19.78589839736659
0.2755,0.8839,0.1656,-0.3074,0.1018,0.0371,3.5613,5.5213,-28.1225,10.611894223612259,17.147292626586353,3.8601614798199897,19.79805573241476
0.2725,0.8852,0.1604,-0.3054,0.1019,0.0371,4.2175,3.6138,-28.7175,10.271612152654523,16.89410653138567,4.014085597801408,19.81034826300275
0.2636,0.8832,0.1574,-0.3054,0.1019,0.0371,5.25,2.5288,-29.8288,10.105372159980153,16.43863415457021,4.056901755453956,19.82231589959714
0.2559,0.8825,0.1585,-0.2996,0.1014,0.0342,6.8513,0.2187,-29.9162,10.181751246725666,15.97801141207516,3.4766918297751186,19.834409883855706
0.2414,0.8685,0.1476,-0.2996,0.1014,0.0342,7.3938,-0.4725,-30.1875,9.646632928697144,15.383068233146558,3.6667209899631277,19.84323475502179
0.2378,0.8688,0.1477,-0.2988,0.1028,0.0314,8.925,-1.3825,-30.6075,9.648297137542256,15.124493739470402,3.0143408993025447,19.855394213560114
0.2457,0.8804,0.1494,-0.2988,0.1028,0.0314,9.555,-1.855,-30.205,9.631140063128235,15.363134003700312,3.03129590949355,19.8675600425689
0.255,0.8966,0.1401,-0.2965,0.1025,0.0274,11.4362,-2.555,-30.4237,8.883085433869727,15.670046188242825,2.507136825656341,19.87971666978702
0.2585,0.9143,0.1418,-0.296,0.1019,0.0269,11.1912,-1.89,-29.5662,8.816025462201797,15.614635548334096,2.4442944411980223,19.89191258157299
0.2694,0.9271,0.1313,-0.296,0.1019,0.0269,10.4825,-1.2163,-28.5687,8.062928701297126,16.014301781618205,2.7658321354742705,19.904136452645993
0.2495,0.9248,0.1293,-0.2919,0.1046,0.0246,10.0187,0.0788,-27.1338,7.959441563673682,15.059450878337136,2.224376552960579,19.91623291430974
0.244,0.9264,0.1296,-0.2919,0.1046,0.0246,10.3863,0.4462,-26.3987,7.9637752294988635,14.6627987959833,2.2129092531762824,19.925068049011568
0.2436,0.9258,0.1166,-0.2882,0.1061,0.025,10.2725,0.9363,-25.2525,7.180468052138917,14.634432997849574,2.6285095174338684,19.937200963922965
0.241,0.9274,0.1161,-0.2875,0.1066,0.0239,10.2462,1.3825,-23.8175,7.135783496707804,14.477959725240767,2.387176422400864,19.949379533872676
0.2463,0.9365,0.1131,-0.2875,0.1066,0.0239,10.3687,0.7175,-22.8725,6.886873857110704,14.617713082006963,2.4999501435100058,19.96153262194054
0.2491,0.9387,0.1082,-0.2873,0.1054,0.0194,10.605,0.4725,-22.3213,6.576073997981781,14.753551583316357,1.6473514460442973,19.97369632745917
0.2596,0.9461,0.1077,-0.2873,0.1054,0.0194,10.5437,0.77,-21.7787,6.494574019064911,15.199477260822713,1.6912955061800057,19.982458201750678
0.2641,0.9423,0.0956,-0.287,0.1065,0.0169,9.66,0.5513,-20.65,5.794971926602207,15.54275639385438,1.4035155483361534,19.994605627178125
0.265,0.9566,0.1014,-0.287,0.1065,0.0169,9.7737,0.4987,-19.0312,6.050084078189391,15.415716706226526,1.288463027944727,20.006736772514394
0.2658,0.9534,0.0969,-0.2831,0.1063,0.0141,8.3825,0.91,-17.7712,5.80407529180955,15.493145082176596,0.7698209071202318,20.01884491337399
0.2718,0.9565,0.0953,-0.285,0.1065,0.0143,7.6912,1.1812,-16.4325,5.690147778471274,15.757503666495014,0.8582382847328026,20.031024545068778
0.2686,0.9476,0.0902,-0.285,0.1065,0.0143,6.9913,1.085,-15.05,5.43817300043276,15.75783125732747,0.9683879772237345,20.039708204139604
0.2745,0.9393,0.0906,-0.285,0.1062,0.0142,4.9612,1.1462,-14.0087,5.509213011988399,16.170430129791384,0.9256628215637931,20.051561526180688
0.2768,0.9304,0.0908,-0.285,0.1062,0.0142,4.6375,0.42,-13.825,5.57380405136808,16.462280901131617,0.9005401452679266,20.06375566839153
0.2699,0.9243,0.09,-0.2857,0.1071,0.0154,5.355,0.3413,-14.945,5.5614486930516485,16.230450981614414,1.160722019415139,20.076315404823934
0.27,0.9115,0.0889,-0.2857,0.1071,0.0154,4.4713,0.8225,-14.9713,5.5705021224750295,16.406369460846893,1.160232908446624,20.085459507343206
0.2657,0.909,0.0835,-0.2857,0.1058,0.0139,2.7037,0.3938,-13.8337,5.2493101638857835,16.246248390822345,0.9756958163332898,20.097577203908497
0.26,0.9033,0.0737,-0.2861,0.1068,0.0102,1.6013,0.3325,-11.8125,4.666046617283099,16.030383008810343,0.34622680493997726,20.109160488784966
0.263,0.891,0.0799,-0.2861,0.1068,0.0102,2.1525,-0.2013,-10.4038,5.122989228647141,16.350441613736088,0.14565007023525486,20.12133870481965
0.2636,0.8857,0.0799,-0.287,0.107,0.0104,1.6013,-0.9275,-8.5575,5.154675499234635,16.496695132535862,0.17433686460999237,20.133470911900996
0.2787,0.8894,0.0839,-0.287,0.107,0.0104,0.84,-1.5137,-6.7638,5.3882954644094765,17.258084446522904,0.07228741072161034,20.142867001918574
0.294,0.901,0.0906,-0.2855,0.1069,0.0086,0.07,-2.5288,-5.81,5.7410812138481475,17.93146287297898,0.5134887537147571,20.154862243884967
0.3091,0.8996,0.0854,-0.2886,0.1075,0.0116,-1.0325,-3.0188,-5.6525,5.423793086719199,18.81390507610371,0.333639544352264,20.16689818607932
0.321,0.9098,0.0943,-0.2886,0.1075,0.0116,-1.2687,-2.625,-5.985,5.916140146939123,19.29866168116303,0.11043830409429745,20.178975182416654
0.3257,0.921,0.0953,-0.2904,0.1052,0.0096,-1.6975,-2.5463,-6.9388,5.907650807719271,19.37363068292494,0.306399555962895,20.19099555234987
0.3236,0.901,0.0999,-0.2904,0.1052,0.0096,-1.435,-1.54,-9.8175,6.32575077898054,19.622670274204328,0.4938018924781751,20.205047040615643
0.3206,0.9047,0.0924,-0.2933,0.1054,0.0095,-1.2862,-0.5425,-11.305,5.832976110057449,19.437679661688048,0.298743452656514,20.214453394168967
0.3168,0.9013,0.0923,-0.2933,0.1054,0.0095,-2.94,0.2713,-13.0288,5.847101727866227,19.288798093869335,0.30479211497514214,20.22469888024825
0.3145,0.9051,0.0977,-0.2922,0.1044,0.0035,-2.8963,0.9275,-14.7613,6.159987353725371,19.082192900806234,1.8259504345413486,20.2359983252741
0.3115,0.908,0.0941,-0.2906,0.1058,0.0101,-2.8875,1.0237,-15.855,5.917377176425027,18.86648792840826,0.20575592871077955,20.24825050954916
0.3057,0.9159,0.0965,-0.2906,0.1058,0.0101,-2.765,1.6187,-16.625,6.014267381967802,18.41867105533365,0.24620767876294158,20.26038625578076
0.3007,0.9196,0.0924,-0.2909,0.1036,0.0102,-3.1063,2.3625,-19.7225,5.738516281692859,18.070384352708246,0.04901085822077085,20.272542882998877
0.2922,0.9146,0.0869,-0.2909,0.1036,0.0102,-3.3338,2.4413,-21.21,5.428498913524463,17.695563946085837,0.08269181053012363,20.281309712100743
0.2791,0.9191,0.0886,-0.29,0.1058,0.0102,-3.5438,2.4938,-22.3913,5.506002061959829,16.926225688150915,0.0002909915681079233,20.293703462386087
0.2612,0.9342,0.0869,-0.2889,0.1037,0.0133,-4.6375,2.7213,-21.1138,5.314948161955166,15.730342980649066,0.8321906676094198,20.305637477053036
0.2387,0.9512,0.0932,-0.2889,0.1037,0.0133,-4.9525,2.7213,-18.5675,5.595265034812968,14.23898001953797,0.7021464513252765,20.317822063558186
0.1984,0.9629,0.089,-0.2894,0.1066,0.011,-6.3787,2.7475,-14.4637,5.281691555443695,11.93041477794039,0.25011809897872067,20.330060445147243
0.1921,0.9534,0.0861,-0.2894,0.1066,0.011,-7.8925,1.4962,-10.2812,5.160638255968586,11.41094317270941,0.29828106887310785,20.338696325689593
0.1962,0.9431,0.0917,-0.2912,0.1062,0.0126,-9.3625,-0.5513,-6.1687,5.55242558945048,11.672661744277937,0.4920328884105606,20.35087383389423
0.2162,0.9399,0.0964,-0.2912,0.1062,0.0126,-10.9025,-2.1875,-3.1937,5.855136168293448,12.79379906654163,0.37441313426674044,20.36308390228123
0.2433,0.9335,0.0964,-0.2914,0.1048,0.0123,-10.6312,-3.7013,-2.5025,5.895762406828566,14.41260869947902,0.3294975578959771,20.37530246462885
0.257,0.9296,0.1005,-0.2966,0.1043,0.0148,-10.4912,-4.5763,-2.0563,6.169547121756044,15.30593590207039,0.77745917364882,20.387505454715335
0.2807,0.9327,0.1093,-0.2966,0.1043,0.0148,-11.1125,-4.97,-2.5725,6.682329543036353,16.556171737769834,0.5775252550854223,20.399683316834995
0.2933,0.9337,0.1131,-0.297,0.1046,0.016,-12.0312,-5.075,-4.2613,6.9059951520308305,17.27127233296312,0.7512658967196926,20.41186507201994
0.3039,0.9243,0.1086,-0.297,0.1046,0.016,-12.11,-4.9,-4.8038,6.701798786948908,18.031717940798142,0.8460441677989518,20.42065136644822
0.3042,0.9059,0.1103,-0.2988,0.1018,0.0188,-12.7487,-4.48,-5.2238,6.941315140712471,18.408415299424142,1.451872223756433,20.432839138188598
0.3035,0.9025,0.1083,-0.3007,0.1029,0.0193,-12.9412,-4.0075,-6.1863,6.843059901790483,18.460000418734552,1.56806185581058,20.445032572569392
0.3042,0.8863,0.1174,-0.3007,0.1029,0.0193,-12.18,-3.6575,-8.995,7.543480333215645,18.767820731925234,1.2830210638984638,20.45723520874085
0.3116,0.884,0.1127,-0.3009,0.1032,0.0216,-11.7425,-3.3688,-9.5113,7.26617640845881,19.236529023206675,1.9233808414538718,20.46942581180144
0.3122,0.8838,0.1169,-0.3009,0.1032,0.0216,-11.6287,-3.8063,-10.1237,7.533982440122208,19.29570474711028,1.8112078026753018,20.481687905697218
0.3228,0.8869,0.1127,-0.3009,0.1042,0.0238,-11.4888,-3.57,-10.395,7.242712551992046,19.813419778784027,2.4290038997645564,20.493866121731905
0.3298,0.8864,0.1238,-0.3022,0.101,0.0225,-10.9287,-2.8525,-11.0513,7.948797499409768,20.19754509180805,1.9209740500521661,20.50611122770645
0.3358,0.888,0.1307,-0.3022,0.101,0.0225,-10.7625,-2.4588,-12.145,8.371719300131904,20.48791256634019,1.7524635985524821,20.518345716230225
0.3472,0.883,0.1301,-0.3064,0.1005,0.0259,-10.71,-1.1812,-12.67,8.381548725227372,21.191181292305433,2.5317407846047795,20.527169171736205
0.3464,0.8835,0.1299,-0.3064,0.1005,0.0259,-10.8238,-0.6825,-13.3962,8.364255926116243,21.200679798934615,2.5374297541311326,20.53937711663305
0.3444,0.8758,0.134,-0.3046,0.1026,0.0249,-10.6138,-0.175,-14.315,8.697995810915423,21.238121141928904,2.119626766771169,20.55157727539933
0.3423,0.8769,0.1374,-0.3026,0.1017,0.0275,-10.3075,0.9363,-15.5225,8.904575905374484,21.10438709169986,2.6734752150283057,20.564325294625412
0.3314,0.8667,0.1357,-0.3026,0.1017,0.0275,-8.6275,2.03,-16.8962,8.898623505588754,20.742609259788217,2.661278871451964,20.576364068139966
0.3231,0.8657,0.1355,-0.3022,0.1026,0.028,-8.1287,2.5113,-18.5325,8.89580888750079,20.302580773895624,2.7347778732866317,20.588469023764333
0.3193,0.8725,0.1434,-0.3022,0.1026,0.028,-7.28,2.275,-20.0287,9.332170169782255,19.90900458822176,2.5343149427303366,20.600446923894467
0.317,0.8735,0.1439,-0.3016,0.1036,0.0316,-5.53,2.73,-21.7,9.354792934780741,19.72780220096358,3.3120240944538915,20.609799482363883
0.314,0.8786,0.1426,-0.3007,0.1028,0.0265,-4.1038,2.205,-22.8638,9.219311247420395,19.46657401149144,2.23428155447753,20.6218665690805
0.3106,0.8849,0.1441,-0.3007,0.1028,0.0265,-3.7538,3.1588,-23.905,9.248962322312261,19.15603554544056,2.2108089384759495,20.633860749301814
0.2912,0.8897,0.1342,-0.3002,0.1031,0.0292,-3.9813,3.0625,-23.4587,8.57958340844679,18.095433367774962,3.0543431853119696,20.64588076532001
0.2799,0.888,0.1332,-0.3002,0.1031,0.0292,-3.3075,2.94,-22.9162,8.5309036705434,17.4149446030074,3.0494743504750317,20.657959885147495
0.266,0.897,0.1302,-0.2975,0.1041,0.0297,-2.415,2.415,-22.1987,8.259600092734852,16.48446938182815,3.237428358959581,20.670019185733544
0.2564,0.9102,0.1272,-0.2975,0.1041,0.0288,-2.6425,1.75,-20.195,7.956391845717972,15.689358919777325,3.1341923907130607,20.6793405996807
0.2513,0.9166,0.1294,-0.298,0.1032,0.0288,-3.29,1.47,-16.8437,8.035342603429271,15.243007723987699,3.105033735944668,20.69139706894654
0.2573,0.918,0.1308,-0.2965,0.1033,0.0285,-3.36,1.0587,-13.6675,8.108921545945593,15.480559136546013,3.0355447043220587,20.703377446481856
0.2715,0.9,0.1293,-0.2965,0.1033,0.0285,-3.57,0.14,-10.5525,8.175363269676795,16.51639303058054,3.050689956232627,20.71550151351761
0.2877,0.8988,0.1379,-0.3009,0.103,0.029,-3.8763,-0.4375,-8.6712,8.721138259660034,17.462805873039084,2.9302327948994766,20.72752436085601
0.2979,0.8998,0.1385,-0.3009,0.103,0.029,-4.165,-0.4375,-8.96,8.750385482672794,18.059769194107677,2.940466269742819,20.739526681122918
0.3037,0.9029,0.1331,-0.3005,0.1013,0.0242,-3.9025,-1.1287,-10.1412,8.386831007831253,18.37616860473673,2.0810385688025113,20.748891272703208
0.309,0.901,0.1367,-0.3,0.101,0.0297,-4.13,-1.6187,-10.6925,8.62645760386413,18.70141284587893,3.2452652953825494,20.761072320058098
0.3116,0.8979,0.1345,-0.3,0.101,0.0297,-4.235,-1.5837,-11.8125,8.519524092257555,18.922622753486284,3.3001569328449425,20.77259013065481
0.3121,0.8883,0.1365,-0.2996,0.1037,0.0306,-3.64,-1.785,-12.6,8.735370843728921,19.132165279009794,3.3466695893412406,20.7848083390874
0.3195,0.8853,0.1364,-0.2996,0.1037,0.0306,-3.5263,-1.645,-15.26,8.758740046670583,19.58995895310599,3.3596076159059076,20.797314634350922
0.3223,0.8929,0.138,-0.3006,0.1025,0.0318,-2.3625,-1.5662,-17.2462,8.785621500320541,19.629014102323428,3.646468649524734,20.80945887454314
0.3285,0.8971,0.1333,-0.3014,0.1048,0.029,-2.5813,-0.6038,-17.6925,8.452676737279338,19.8854635767095,3.0829872965914826,20.82155922927217
0.3297,0.9008,0.1304,-0.3014,0.1048,0.029,-3.15,0.9363,-19.2237,8.237540780275333,19.90927936434254,3.1760939654920466,20.83086861010845
0.3164,0.8926,0.1282,-0.2998,0.1013,0.0301,-3.2725,1.5925,-19.7138,8.173415074613365,19.398108252757883,3.547460399856412,20.84295091517117
0.311,0.8885,0.1317,-0.2998,0.1013,0.0301,-3.9375,2.2662,-19.9762,8.430678482730876,19.134068845417545,3.428529054998317,20.854972700764492
0.3023,0.8888,0.1306,-0.2966,0.1041,0.0327,-3.5963,2.0038,-19.9587,8.359407174892224,18.660667434663146,3.9914282527074145,20.867004395978533
0.2988,0.8897,0.1305,-0.2966,0.1041,0.027,-3.535,2.3975,-19.9937,8.344606044694947,18.415042553387277,2.683057218119456,20.879089886276486
0.3005,0.8901,0.1358,-0.2971,0.1034,0.027,-3.045,1.645,-19.9587,8.673627669152884,18.451392310462285,2.560173897942534,20.891053275890567
0.3049,0.8944,0.1291,-0.295,0.1041,0.0311,-3.1675,1.3212,-20.265,8.214792609522899,18.623738075981546,3.7121133233269625,20.900382829883313
0.3123,0.9057,0.1325,-0.295,0.1041,0.0311,-3.0188,1.4612,-20.2562,8.322776277801188,18.815352617423073,3.6751629836752184,20.912466904521157
0.3101,0.9035,0.1299,-0.2949,0.1033,0.032,-3.3163,1.9512,-21.5775,8.181988302556022,18.76995749595871,3.9650036844717564,20.924514171996332
0.307,0.8983,0.1262,-0.2949,0.1033,0.032,-2.9838,2.6163,-22.3038,7.997530899347158,18.706575975546798,4.0412075088976485,20.936568871687047
0.3051,0.9021,0.1369,-0.292,0.103,0.0293,-2.9488,2.765,-23.6163,8.627409680341204,18.51672295976943,3.180624851546428,20.948743548571475
0.3022,0.8997,0.1302,-0.2914,0.1024,0.0302,-3.4475,3.1763,-24.0713,8.235500141411359,18.405462178697594,3.58155909368029,20.95790640858711
0.3013,0.9055,0.132,-0.2914,0.1024,0.0302,-3.0363,3.6837,-25.375,8.293752900306512,18.250903791041914,3.548192009554827,20.96998057360424
0.2955,0.9042,0.1337,-0.2902,0.1056,0.0306,-3.3163,3.7188,-26.705,8.41079061393384,17.96424423273741,3.496542308923644,20.982035981125005
0.2869,0.9049,0.1353,-0.2902,0.1056,0.0306,-3.8238,4.0338,-27.16,8.503563290805305,17.493865250991952,3.4312692113677654,20.99406732242402
0.2802,0.9073,0.1303,-0.2882,0.1056,0.0345,-3.5788,3.675,-28.385,8.173471391566425,17.069388808922774,4.491089586584995,21.00610255678832
0.2769,0.9098,0.1332,-0.2842,0.1043,0.0297,-4.1388,4.0075,-28.595,8.328817799555923,16.80617440519251,3.3893446630402346,21.018123280636566
0.269,0.9072,0.1371,-0.2842,0.1043,0.0297,-4.1563,3.5963,-28.7612,8.593006427374727,16.406797089037106,3.253282988197448,21.026832775504268
0.2643,0.9065,0.1401,-0.2821,0.1039,0.031,-4.06,3.2288,-28.49,8.785033540704843,16.11886597824548,3.5013642171663215,21.038774222386753
0.2572,0.9012,0.1319,-0.2821,0.1039,0.031,-4.2613,3.0975,-28.0175,8.328012705751577,15.815584184908987,3.689568084688357,21.050979335963394
0.2539,0.9012,0.1357,-0.2806,0.1066,0.0238,-3.57,3.0888,-28.14,8.562430206194485,15.600497951792585,1.8217437990455976,21.063192943500653
0.2542,0.9063,0.1375,-0.2806,0.1066,0.0238,-3.5263,2.7388,-27.8075,8.626701945436627,15.51197265808685,1.7901366711816091,21.075407966698013
0.2589,0.9127,0.1385,-0.2791,0.1058,0.0386,-3.9463,2.0388,-27.2825,8.628659487693792,15.648332969707264,5.3275657823007,21.087571672216644
0.2592,0.917,0.1394,-0.2754,0.1073,0.0311,-3.6663,1.82,-27.4312,8.643736905438583,15.617049846619244,3.5547781737584687,21.09706119580101
0.2661,0.9174,0.1454,-0.2754,0.1073,0.0311,-4.4538,1.7413,-26.6963,9.004949859568084,15.944537735279736,3.4012581765100047,21.10908510488449
0.2628,0.9168,0.1427,-0.2741,0.1074,0.0314,-4.2875,1.8025,-26.355,8.847550432710955,15.828962728904221,3.555554695975677,21.120680068956805
0.2622,0.9193,0.1443,-0.2741,0.1074,0.0314,-5.075,2.45,-27.4662,8.920563074996204,15.747451609748232,3.5171697621661617,21.132888367768675
0.2513,0.921,0.1457,-0.2719,0.106,0.0358,-5.18,2.1963,-27.7287,8.989360982288042,15.161964257781664,4.595277299894005,21.145047472391973
0.2457,0.9237,0.1398,-0.2698,0.1074,0.0322,-5.3987,2.4325,-26.985,8.607366688723532,14.78725945569258,3.876552059375951,21.1537435184887
0.2378,0.9224,0.1462,-0.2698,0.1074,0.0322,-5.7137,2.0038,-27.0988,9.005298370913003,14.343734391214571,3.6648890414364104,21.165946508575185
0.2209,0.9177,0.1451,-0.2665,0.1081,0.032,-5.7663,1.6187,-27.755,8.984867643978532,13.481877776076717,3.6097236209356502,21.178103135793304
0.2266,0.9179,0.1493,-0.2665,0.1081,0.032,-5.4862,1.54,-27.1338,9.237754427642436,13.670774081439374,3.503249934731169,21.19028382923317
0.2242,0.9155,0.1449,-0.2655,0.109,0.0318,-5.0662,0.1488,-26.8537,8.994529590816168,13.604659884468727,3.5505739906495015,21.202501683750736
0.2212,0.919,0.1446,-0.2655,0.109,0.0318,-5.075,-0.77,-26.6525,8.942038844797011,13.395093050272989,3.565479358913392,21.21477828816257
0.2219,0.9227,0.1477,-0.2628,0.1103,0.035,-4.2088,-1.365,-26.7575,9.093962015142273,13.361474882409352,4.271845286897012,21.224203399212257
0.2225,0.9265,0.1446,-0.2605,0.1092,0.0339,-4.7863,-1.5312,-26.3288,8.871294712060484,13.34930406894415,4.190056887177102,21.236342684594113
0.2148,0.9335,0.143,-0.2605,0.1092,0.0339,-4.83,-1.6887,-25.6375,8.709721455370687,12.85735108121155,4.240313565234742,21.247761398983627
0.2112,0.9314,0.1443,-0.2587,0.11,0.0348,-5.7838,-1.6187,-24.6575,8.806431863158444,12.648867011193337,4.410636907240088,21.259941738508466
0.2076,0.9281,0.141,-0.2587,0.11,0.0348,-5.2762,-1.9337,-24.0625,8.638983861331242,12.484242428640536,4.485056384334476,21.27219533844363
0.2077,0.9265,0.1434,-0.2586,0.1099,0.039,-5.425,-2.0213,-23.1612,8.797748596582535,12.490932730237887,5.451142000627061,21.284728531249105
0.2073,0.9246,0.1436,-0.2573,0.1078,0.0358,-5.8362,-1.925,-22.295,8.828013326578851,12.49195402979315,4.743268062539332,21.296843042579162
0.2069,0.9237,0.1479,-0.2573,0.1078,0.0358,-5.7575,-1.7762,-21.6125,9.096043191807267,12.473170464988554,4.610290629409377,21.3088457167611
0.2072,0.917,0.1474,-0.2542,0.1112,0.0375,-5.95,-1.295,-20.6413,9.131597592388307,12.567557763395685,4.968032619789534,21.31827365913099
0.2036,0.9171,0.1463,-0.2542,0.1112,0.0375,-5.7137,-0.7263,-19.985,9.063909078258513,12.383262370028683,4.989421416510552,21.330397372251717
0.2093,0.9171,0.1532,-0.2543,0.1123,0.0348,-4.5763,-1.5137,-18.6375,9.48240496227296,12.660911849548528,4.0677263914249275,21.342535241973472
0.2127,0.9177,0.1517,-0.2549,0.1116,0.0369,-4.7863,-1.6187,-17.5438,9.386644832924834,12.862528488078873,4.675030494463189,21.3550939166608
0.2153,0.9201,0.1534,-0.2549,0.1116,0.0369,-5.145,-1.4175,-16.0037,9.465127841924332,12.985701314278758,4.6418170204358145,21.366691358138294
0.2278,0.922,0.1578,-0.2546,0.1098,0.0373,-4.2175,-0.665,-14.5687,9.711354289234555,13.624712353437191,4.734233890032737,21.37880445380825
0.2261,0.9201,0.1515,-0.2546,0.1098,0.0373,-4.13,-0.2888,-14.6212,9.351221299243855,13.628999129156567,4.916444036490513,21.390930998249182
0.2261,0.9155,0.1526,-0.2532,0.1102,0.0373,-3.8325,0.63,-14.805,9.463019539189464,13.684820297637513,4.877584229417431,21.400283910633625
0.2266,0.9144,0.1561,-0.2544,0.109,0.036,-2.555,0.7,-14.6562,9.687112865060433,13.723030154408029,4.452239350658813,21.412248361992784
0.2298,0.9166,0.1592,-0.2544,0.109,0.036,-2.1438,0.9625,-14.63,9.852676067200003,13.859219334888628,4.376190056123972,21.424288551167443
0.2316,0.9216,0.1555,-0.2566,0.1116,0.037,-1.3825,1.295,-14.9625,9.577988755052665,13.911266906549466,4.63225600920219,21.436365547504774
0.2313,0.9229,0.1547,-0.2566,0.1116,0.037,-1.3912,1.7937,-16.0125,9.515846444585037,13.886894391322542,4.662278128132873,21.448446436907393
0.2262,0.9242,0.1541,-0.2552,0.111,0.0415,-0.5862,2.1613,-16.9925,9.466482387468364,13.609758686743302,5.864235980029232,21.46037372718885
0.2209,0.9221,0.1544,-0.2552,0.111,0.0415,-0.8575,3.29,-17.5613,9.505534145677856,13.336760106066285,5.822673509726541,21.469739026599193
0.216,0.9193,0.1467,-0.2548,0.111,0.0369,-0.8575,3.3775,-17.78,9.067929238448704,13.100758142980908,4.876288469242868,21.481820269916835
0.2097,0.9227,0.1453,-0.2542,0.1114,0.037,-0.6475,3.3688,-18.1825,8.949362433454725,12.714915657573764,4.933663575631973,21.49387072262724
0.2031,0.921,0.1484,-0.2542,0.1114,0.037,-0.1925,3.78,-18.5237,9.152777800149634,12.345621992071596,4.8052273742779645,21.505953381604982
0.1986,0.9196,0.1479,-0.2547,0.1119,0.0366,-0.5862,3.5088,-18.8563,9.13672899656103,12.080018241256319,4.669974528353074,21.517960656682252
0.2037,0.9267,0.146,-0.2547,0.1119,0.0366,0.07,3.395,-19.18,8.953772415718028,12.227067936136628,4.7769704038257546,21.527194653618057
0.2091,0.9321,0.1488,-0.2512,0.1128,0.035,-0.1837,2.6863,-19.1362,9.069811346790594,12.457598178159184,4.362592907944613,21.539294654432062
0.2068,0.9392,0.1439,-0.2494,0.1104,0.0349,-0.2713,3.3425,-18.6812,8.711867222459896,12.303366164005084,4.633045235541488,21.55134475322744
0.2073,0.9426,0.1501,-0.2494,0.1104,0.0349,-0.3237,4.0163,-17.9375,9.046894116432043,12.261142388376447,4.457585558378446,21.563299648880903
0.199,0.9322,0.1478,-0.2494,0.1103,0.033,-1.0675,3.9988,-17.535,9.009340744567606,11.959527097841308,3.975015568527555,21.575424423746707
0.1957,0.9315,0.1422,-0.2494,0.1103,0.033,-1.1287,3.6837,-16.485,8.680519353247046,11.765401416769588,4.134725438207787,21.587470275561778
0.1943,0.936,0.1432,-0.2501,0.1111,0.0369,-1.925,3.6138,-16.31,8.698267508975484,11.620187715977979,5.068312377257153,21.596802306959702
0.1897,0.9354,0.1443,-0.2501,0.1111,0.0369,-2.1525,3.1412,-16.1087,8.769433907946185,11.371944909519932,5.015475999497564,21.608831524768565
0.191,0.9345,0.1507,-0.2502,0.1111,0.0326,-1.295,2.7213,-15.33,9.159704354998382,11.403426062433594,3.7279476359001644,21.62085401819194
0.1981,0.932,0.1474,-0.2522,0.1116,0.0351,-1.7587,2.6338,-15.12,8.987633574641121,11.799951981186727,4.418291175966757,21.632918627503376
0.21,0.9437,0.1496,-0.2522,0.1116,0.0351,-0.9013,1.7675,-15.4088,9.00779690819997,12.328313361434175,4.439051783745915,21.645002702141223
0.2084,0.9401,0.1421,-0.2498,0.112,0.0338,-1.7587,1.4525,-15.7325,8.596587572945568,12.35928193713935,4.351612988447889,21.657004314578078
0.2029,0.9368,0.1424,-0.2498,0.112,0.0338,-1.785,2.0475,-15.8375,8.643053954958143,12.118018482090605,4.310831692857334,21.666639297238014
0.1966,0.9312,0.1481,-0.2506,0.1113,0.0297,-1.54,2.1088,-16.3013,9.035647169942559,11.81769739242195,3.0570852204853964,21.678358485484353
0.1939,0.9307,0.1507,-0.2495,0.1109,0.0321,-1.8812,1.6712,-16.3275,9.197113924308043,11.64331008143552,3.6094768659517054,21.690422386965736
0.1917,0.927,0.1474,-0.2495,0.1109,0.0321,-2.1963,1.0937,-16.3013,9.035282116897692,11.553355425902762,3.6898785753343355,21.7024654074606
0.1986,0.9231,0.1489,-0.2506,0.1122,0.0332,-1.82,0.735,-15.4962,9.16276758362446,11.94705546007291,3.8589481402374304,21.714477991263255
0.2006,0.9257,0.1439,-0.2506,0.1122,0.0332,-1.0587,0.7,-14.6562,8.836824085881426,12.072153597893207,4.034547432223186,21.723803652190718
0.2032,0.9232,0.1381,-0.2493,0.1129,0.0389,-0.595,0.6563,-13.93,8.50862325954665,12.259744644612363,5.6853955806256105,21.73600027180674
0.2069,0.9221,0.1411,-0.2493,0.1144,0.0317,-0.3588,1.12,-13.4225,8.699394959708176,12.479729588768063,3.686327131474463,21.749675902315207
0.2088,0.9216,0.1405,-0.249,0.1144,0.0317,-0.7613,1.3825,-12.7925,8.668215922909226,12.608786471642347,3.7130408758465845,21.759862992415247
0.2122,0.9263,0.1387,-0.251,0.111,0.032,-0.8138,2.3363,-11.1912,8.516371784724432,12.74640914553123,3.963814341950719,21.77173224063249
0.2186,0.9264,0.146,-0.251,0.111,0.032,-0.9013,3.01,-10.815,8.954875624688826,13.071608075868353,3.7535891454443076,21.78397345354175
0.221,0.9236,0.143,-0.2508,0.1135,0.0294,-1.26,2.9838,-10.9812,8.801593336949082,13.273559149964703,3.0802626357683063,21.793381576670203
0.2212,0.9244,0.1477,-0.2508,0.1135,0.0294,-0.77,3.7188,-11.9612,9.077171881832165,13.291674797958185,2.9314378731919324,21.805428136315328
0.2223,0.9262,0.1487,-0.2532,0.1098,0.0279,-1.6712,3.4475,-12.0925,9.120792199994215,13.326305122727982,2.6353573088171696,21.817429040922132
0.2198,0.9254,0.1499,-0.2511,0.112,0.0321,-1.2687,3.4563,-12.7225,9.20085450353828,13.213658503445581,3.614784630436306,21.829489757168282
0.2205,0.9267,0.1489,-0.2511,0.112,0.0321,-0.9713,3.36,-13.6588,9.128335877637053,13.219670533188085,3.655133255564398,21.84154905775433
0.218,0.9268,0.152,-0.2519,0.112,0.0317,-0.7437,3.1675,-13.7812,9.313366899838162,13.088276240790165,3.4343169387197428,21.853540760570468
0.2112,0.9232,0.1467,-0.2519,0.112,0.0317,-1.0237,2.0738,-14.5862,9.029826268444424,12.773121234138925,3.567408054626407,21.863054350376583
0.2123,0.919,0.149,-0.2513,0.1147,0.026,-1.0062,2.17,-14.6825,9.208880164953268,12.837151938951388,1.913078538498889,21.875251677822657
0.2151,0.9188,0.1473,-0.2553,0.1124,0.0333,-0.07,2.1788,-14.8487,9.10831308313723,12.994600199481619,3.876952175922686,21.886982899179873
0.2161,0.9207,0.1405,-0.2553,0.1124,0.0333,-0.2275,1.155,-15.1812,8.677683222387461,13.055772558294692,4.104424373761944,21.899071220798028
0.2154,0.9229,0.1396,-0.2534,0.1111,0.0294,0.4025,0.9187,-15.715,8.601700116708235,13.000940570850481,3.222507993563811,21.91116555897162
0.2202,0.9257,0.1382,-0.2534,0.1111,0.0294,1.015,0.91,-15.8638,8.491421645537152,13.214506584336183,3.289291871396903,21.92026542211268
0.2217,0.9263,0.1342,-0.2535,0.1122,0.0286,0.6563,0.315,-15.96,8.244204533090972,13.315041915615703,3.1766443711114594,21.932247569223126
0.2258,0.9306,0.1345,-0.2535,0.1122,0.0286,0.7525,0.2538,-16.5287,8.224090411837874,13.485346040180035,3.1943708308451284,21.944289174057886
0.2289,0.9313,0.1308,-0.2513,0.112,0.0338,0.4812,0.1575,-17.1325,7.995472327041536,13.661033126922492,4.716691260429599,21.956335379787983
0.2248,0.9326,0.1256,-0.2523,0.111,0.0286,-0.07,0.5688,-17.1413,7.671196876676327,13.45800524352336,3.5365662894705503,21.96826443964457
0.2267,0.9315,0.1319,-0.2523,0.111,0.0286,-0.2625,0.7437,-16.7912,8.058388731035794,13.538992384036366,3.3396202914687803,21.977620537264244
0.2211,0.9244,0.1301,-0.2517,0.1127,0.0274,-1.0412,1.4437,-17.3862,8.011319233575794,13.348187964063913,2.9960835884566888,21.989725846803633
0.2234,0.9242,0.1254,-0.2517,0.1127,0.0274,-0.49,1.575,-17.885,7.727782464382798,13.45666028711403,3.151568683136285,22.001733829710954
0.2214,0.927,0.1256,-0.2526,0.1119,0.0287,-0.77,1.4787,-17.6138,7.716098036606909,13.330788839075288,3.4992276647259635,22.013785698081463
0.2231,0.9304,0.1265,-0.2526,0.1124,0.0264,-1.6887,1.6975,-17.36,7.742555896020472,13.361891133301139,2.8776582667722246,22.025823409850943
0.2254,0.9276,0.1281,-0.2505,0.1124,0.0264,-1.1638,1.5487,-17.8062,7.8623810165111845,13.515109803226467,2.847493622975275,22.035114387105885
0.2217,0.9264,0.126,-0.2484,0.1118,0.0275,-0.8925,1.645,-17.4387,7.745622388423796,13.359655452198105,3.238410795186903,22.04719279910332
0.2184,0.9304,0.1282,-0.2484,0.1118,0.0275,-1.4612,1.9687,-17.4475,7.845113756839834,13.122003792736855,3.174940427772731,22.05924466747383
0.2171,0.9329,0.1329,-0.2492,0.1146,0.028,-2.0388,2.0738,-17.9813,8.10700528808331,12.991264148381463,3.0560976382666043,22.071245218165608
0.2142,0.9343,0.1307,-0.2492,0.1146,0.028,-1.4612,2.275,-18.1037,7.963879219892751,12.816076461218076,3.126111578963897,22.083374947841772
0.2136,0.9295,0.1284,-0.2494,0.1142,0.0246,-1.4525,2.6075,-18.0163,7.865272126766046,12.823216967270048,2.3039607298893103,22.09540558131074
0.2064,0.9287,0.1286,-0.249,0.1123,0.0268,-1.9687,2.3538,-17.5525,7.883739045158686,12.464716752961724,2.9194447157329217,22.10471142299676
0.2096,0.9275,0.1294,-0.249,0.1123,0.0268,-2.0213,2.5113,-17.0362,7.942179325127108,12.597168680315763,2.8968718984114163,22.116791958484352
0.2072,0.927,0.1304,-0.2488,0.1122,0.0269,-1.2163,2.1875,-17.0713,8.0070083126839,12.494334285400019,2.88954899609939,22.128772689934692
0.2107,0.9296,0.1309,-0.2488,0.1122,0.0269,-0.9975,2.3187,-16.31,8.015282209691293,12.63121993949107,2.8917930966539465,22.140834821840947
0.2178,0.9301,0.1321,-0.2464,0.1124,0.0244,-0.9625,2.4237,-16.4587,8.083334312325457,13.001485577259876,2.234207929942921,22.152909694688127
0.2198,0.9315,0.1281,-0.248,0.113,0.029,-0.4112,2.7562,-16.6863,7.830918447893381,13.13756161888525,3.54640145666909,22.16495660824827
0.2222,0.9362,0.129,-0.248,0.113,0.029,-0.2625,2.7825,-17.185,7.845402787389201,13.21917729194637,3.5426894277186283,22.174213963575774
0.22,0.9337,0.1315,-0.2491,0.1134,0.0261,-1.4262,3.045,-17.2112,8.01618754458038,13.144594657060258,2.656243585800134,22.186280342462336
0.2101,0.9277,0.1371,-0.2491,0.1134,0.0261,-1.5225,4.165,-17.22,8.405500649759118,12.708090965979993,2.430591164192014,22.19833256474787
0.2066,0.921,0.1285,-0.2472,0.1119,0.0268,-1.7325,4.3925,-17.2637,7.9440651053386775,12.555179302784117,2.9297365981786627,22.210399297549458
0.2,0.9206,0.1307,-0.2472,0.1119,0.0268,-1.8025,3.9025,-16.7737,8.080046726914704,12.20092622891354,2.842956044794555,22.22239949432621
0.1951,0.9187,0.1358,-0.2464,0.1139,0.0276,-0.6125,3.5,-16.6863,8.407512406207212,11.911592505911385,2.8073717562655034,22.23171382997285
0.195,0.92,0.133,-0.2453,0.113,0.0254,0.5688,2.9575,-16.9662,8.226495288306202,11.85584375269665,2.3744840140375887,22.243924606189903
0.1972,0.9286,0.1269,-0.2453,0.113,0.0254,0.5862,2.7562,-16.4587,7.7829300390060805,11.878775030776975,2.611644571712797,22.255754923754317
0.2029,0.9338,0.125,-0.2454,0.1147,0.0247,0.8225,2.5638,-16.03,7.624825563803714,12.119632813218278,2.4640611667839973,22.2677445030803
0.2026,0.9364,0.1204,-0.2454,0.1147,0.0247,0.3763,1.8637,-16.2488,7.327584903620027,12.112553934383914,2.623602909897362,22.28125733267694
0.2032,0.9376,0.1245,-0.2452,0.1156,0.0254,0.105,2.0825,-16.73,7.563158114362039,12.12353981948115,2.65353220776366,22.288993561223936
0.2064,0.9353,0.1198,-0.2657,0.115,0.023,-0.105,2.065,-17.0538,7.299854464154008,12.320628547597758,2.003519967595314,22.300380423261135
0.2047,0.9354,0.1166,-0.2466,0.115,0.023,-0.1925,1.89,-17.7362,7.105959735342898,12.259785178810553,2.2776979477591834,22.31256784108649
0.2045,0.9365,0.1173,-0.2455,0.1145,0.0227,-0.4112,1.4525,-18.4538,7.139229200137554,12.229224386099622,2.2063097914512957,22.324932924254753
0.2007,0.9411,0.1119,-0.2455,0.1145,0.0227,0.3237,1.4612,-19.4425,6.781830666903162,11.986581250940041,2.390955050701539,22.33707220963661
0.2036,0.9463,0.1163,-0.2453,0.1144,0.0204,0.0438,1.4875,-19.7225,7.005870326482337,12.046872617792888,1.6718934859595695,22.345988390879327
0.2066,0.9468,0.1179,-0.2453,0.1144,0.0204,-1.6538,1.1112,-20.4225,7.097941993766868,12.199991335611193,1.6257142978361347,22.35800522166229
0.205,0.9492,0.112,-0.2432,0.1145,0.025,-1.8025,1.0062,-21.0788,6.730486286515686,12.115407665428677,3.0607362044545807,22.370154062749844
0.2022,0.9485,0.1129,-0.2428,0.115,0.023,-2.2662,1.0937,-21.0263,6.787819738042617,11.969315928535762,2.4822438723132962,22.3823181221835
0.201,0.9461,0.1182,-0.2428,0.115,0.023,-3.0538,1.2687,-21.2362,7.120347148899252,11.911293410756391,2.298226513170882,22.39441104469699
0.1964,0.9449,0.1265,-0.2416,0.1148,0.0213,-3.4738,1.7325,-21.3062,7.62379590992919,11.671333898910422,1.580612906773293,22.40652307862187
0.1948,0.9461,0.1231,-0.2416,0.1148,0.0213,-3.0275,2.2925,-21.0,7.413879134140636,11.555647964196375,1.6936158943291206,22.41617221788283
0.1898,0.9448,0.1229,-0.2394,0.1162,0.0231,-3.5175,2.1613,-20.965,7.411451265856195,11.300637301267612,2.1417471953529916,22.42755164770449
0.185,0.9457,0.1222,-0.2379,0.1167,0.0193,-3.2987,2.2488,-21.2712,7.362897600202566,11.017880644241346,1.1369357281598451,22.439727740249023
0.1826,0.9401,0.1308,-0.2379,0.1167,0.0193,-3.4825,2.0125,-20.3787,7.919368871940472,10.904508961009473,0.8228862905903979,22.451838358513797
0.1768,0.942,0.1393,-0.2404,0.1158,0.0226,-3.3775,1.6975,-20.02,8.410365662826296,10.561455567194104,1.4438947280006056,22.46399109266663
0.1776,0.9359,0.1248,-0.2404,0.1158,0.0226,-2.9575,2.0475,-19.1187,7.597747755636186,10.642143274123866,1.8944477940968303,22.47609923352623
0.1771,0.9389,0.124,-0.238,0.1168,0.025,-3.3513,2.0125,-18.06,7.523690998061852,10.597863699859664,2.562443852577284,22.48501010604356
0.1776,0.9406,0.1275,-0.238,0.1168,0.025,-3.5525,2.1613,-17.2637,7.718939910689246,10.597775646394952,2.453348516788018,22.497158947131112
0.182,0.9412,0.129,-0.2377,0.1174,0.0259,-3.1238,1.7937,-17.64,7.804039355332829,10.817222903446549,2.638142816396316,22.509278059356504
0.18,0.9379,0.1291,-0.2367,0.116,0.0226,-3.5525,1.855,-17.78,7.837300825533493,10.770872325394365,1.788546987920139,22.521430439594315
0.1796,0.9391,0.1349,-0.2367,0.116,0.0226,-3.57,2.03,-18.5237,8.1735593326287,10.725447591569381,1.5983542029367566,22.533556630120223
0.1749,0.9402,0.1316,-0.2364,0.1162,0.0235,-3.43,1.7762,-19.5562,7.968518586820706,10.470915939308833,1.9443625657054935,22.542462193912165
0.1698,0.9425,0.1253,-0.2364,0.1162,0.0235,-3.15,1.96,-19.845,7.573860256160412,10.165465116136184,2.156767992998715,22.554636870796596
0.1673,0.9421,0.1312,-0.2362,0.1174,0.0194,-3.5438,1.96,-20.9562,7.927207709342686,9.997364314407406,0.8172959227751848,22.566756336937015
0.167,0.9412,0.1277,-0.235,0.1172,0.0262,-3.8675,1.4962,-21.4638,7.7271558510431255,9.974730654834266,2.771222208022574,22.57883722633963
0.1621,0.9395,0.1268,-0.235,0.1172,0.0262,-3.5088,1.085,-21.7525,7.686616251499129,9.731563688485446,2.785412768338663,22.5909945613878
0.1607,0.9407,0.1322,-0.2331,0.1177,0.0237,-3.1063,0.63,-21.6562,7.998711419530845,9.61470219543042,1.9355571683803319,22.603117566678478
0.166,0.9411,0.1288,-0.2331,0.1177,0.0237,-3.2725,0.525,-20.7987,7.793728805152241,9.883371116380706,2.061026202672488,22.61202737745073
0.1695,0.9409,0.1307,-0.2312,0.1183,0.0232,-3.4563,-0.77,-19.7138,7.9080001322268805,10.096492383098676,1.8595511527938473,22.624259388569325
0.174,0.9384,0.1271,-0.2312,0.1183,0.0232,-2.975,-0.7962,-19.0575,7.7139411944577905,10.38402838380328,1.9806737844834132,22.636368591173998
0.1745,0.9397,0.1265,-0.2323,0.117,0.0221,-2.5375,-0.735,-18.76,7.667052121758639,10.4240239609378,1.7419545148491782,22.64854114456827
0.1796,0.9418,0.1283,-0.229,0.1179,0.0231,-2.8,-0.4987,-18.9875,7.757308799219701,10.675249729574483,1.969951662963968,22.66095789933029
0.1807,0.941,0.1298,-0.229,0.1179,0.0231,-2.8963,-0.5425,-18.76,7.853453023291104,10.762061803659359,1.9152012488524088,22.673079135045835
0.1817,0.9417,0.1316,-0.2302,0.1174,0.0228,-1.785,0.3588,-18.6637,7.955120550892059,10.812856663485682,1.7806511444178588,22.68501385754283
0.1837,0.9424,0.1293,-0.2302,0.1174,0.0228,-1.7413,0.8575,-18.1912,7.812770286738102,10.918292454222485,1.8671278277063226,22.694344119365628
0.1804,0.9385,0.1232,-0.2278,0.1192,0.0258,-1.925,1.4088,-18.0687,7.479584421427611,10.80428223399775,2.86601042996095,22.70647349512677
0.1765,0.9326,0.1285,-0.2274,0.1198,0.0236,-1.9337,1.4612,-17.4387,7.844175229398523,10.639051205236774,2.0023306601009367,22.71850766774599
0.1765,0.9283,0.126,-0.2274,0.1198,0.0236,-1.8025,2.24,-16.87,7.729955208839575,10.666072068663125,2.0731505363908553,22.730569445737217
0.1825,0.9326,0.1264,-0.229,0.1186,0.0222,-1.1638,2.5638,-16.6513,7.7185858270801,10.93611457514511,1.7225335000124384,22.742608927081825
0.1863,0.9381,0.1277,-0.229,0.1186,0.0222,-1.0237,2.1875,-16.1087,7.7517171905505124,11.109050645654305,1.7062590351600133,22.751883978160613
0.1861,0.9404,0.1239,-0.2289,0.1193,0.0249,-0.6563,3.7713,-15.3475,7.506319748979665,11.101640157588692,2.5897366969837927,22.76482700456586
0.1882,0.9414,0.1309,-0.228,0.1187,0.0227,-0.6825,4.9875,-15.9775,7.914968677010046,11.182745116388878,1.7559416589606975,22.775543197629336
0.1891,0.9404,0.1258,-0.228,0.1187,0.0227,-0.5775,5.3375,-15.68,7.62021476313389,11.254995933653513,1.9358454154270286,22.787670095985295
0.1818,0.9426,0.1256,-0.2279,0.12,0.0219,-0.6825,5.8888,-15.4525,7.589950666405554,10.914532707386446,1.6699404283160777,22.799840879804442
0.1764,0.9361,0.1241,-0.2279,0.12,0.0219,-0.5513,6.8425,-16.625,7.551848032284113,10.669530018726864,1.6870994367188823,22.812019095839126
0.1737,0.9387,0.124,-0.2275,0.1191,0.0188,0.1663,8.1112,-16.415,7.52514053524112,10.504644436679945,0.8628987177720556,22.820806452012484
0.1679,0.9387,0.1199,-0.2275,0.1191,0.0188,0.0525,7.91,-16.17,7.279655881786604,10.224690152955556,1.0044252838931615,22.832882032689717
0.1671,0.941,0.1177,-0.2282,0.1185,0.0214,0.3675,8.3737,-15.6625,7.129932912029485,10.096277837781605,1.8332107388844738,22.844999729255004
0.1679,0.9398,0.1222,-0.2288,0.1186,0.0186,0.735,8.33,-15.0675,7.407692070356717,10.06823710530762,0.8843391961503926,22.85715175557779
0.1691,0.9373,0.1204,-0.2288,0.1186,0.0186,1.2337,9.135,-14.315,7.320037206193337,10.093348751290879,0.9369864221004668,22.869260958182462
0.1681,0.939,0.1244,-0.2273,0.1182,0.0188,1.3387,8.8375,-13.8425,7.546043741193171,10.080245373666154,0.8791887586832472,22.878021416813866
0.1721,0.9387,0.1233,-0.2273,0.1182,0.0188,1.085,8.9425,-13.0462,7.483244001101947,10.16996777057192,0.9196072167217791,22.890152208235108
0.1748,0.9409,0.1224,-0.2274,0.1193,0.0187,1.5137,8.6887,-12.7837,7.41208143304851,10.299346538981942,0.8955628243532471,22.902293263192096
0.1756,0.9397,0.1215,-0.2274,0.1193,0.0187,2.3712,9.3187,-13.1512,7.367400312197992,10.345524967224975,0.9229850934563129,22.91439043268589
0.1743,0.9388,0.1231,-0.2282,0.119,0.0179,2.205,10.0975,-13.5712,7.469994020564916,10.37305940873666,0.6438541352668768,22.92318274366961
0.1745,0.9396,0.1191,-0.2297,0.1198,0.0155,1.6887,10.2287,-13.7025,7.224747935617115,10.398139102835872,0.08802658563725692,22.935322382966493
0.1724,0.9442,0.1171,-0.2297,0.1198,0.0155,2.3888,10.1763,-14.1312,7.070173979540391,10.352491961259899,0.1785615362093049,22.947503430321387
0.1755,0.9474,0.1161,-0.23,0.1194,0.0148,2.7562,9.975,-14.35,6.986761860898977,10.369821141534887,0.04682302100163288,22.95965616447422
0.1728,0.9508,0.1143,-0.23,0.1194,0.0148,2.45,10.5087,-14.7613,6.8552587228030575,10.30330365854833,0.12382914623241428,22.971818100417725
0.1749,0.9482,0.1164,-0.2307,0.1177,0.0129,1.7062,9.9575,-15.4088,6.998152646934363,10.32139031965832,0.4279896839719302,22.98393225783276
0.1757,0.9478,0.1144,-0.2319,0.1182,0.0116,1.3475,10.4562,-16.2663,6.882663281847577,10.370002683075418,0.7340847270585751,22.99268811556883
0.1722,0.9481,0.1135,-0.2319,0.1182,0.0116,1.365,10.3162,-17.0625,6.826725213530069,10.309526904645875,0.7003352482264801,23.004884381269825
0.1748,0.9513,0.1178,-0.2293,0.1206,0.0122,0.42,9.7475,-18.235,7.0583829079955045,10.312386616130912,0.7625583488551793,23.0173432519199
0.1692,0.9495,0.1182,-0.2293,0.1206,0.0122,0.5862,9.3975,-20.1513,7.095944465087025,10.260830910994873,0.7813124819779801,23.029361852277994
0.1723,0.9443,0.1174,-0.2274,0.1202,0.01,0.5775,9.03,-21.6737,7.086952931338881,10.261746545486707,1.3889098631523025,23.038503477392087
0.1676,0.9484,0.1168,-0.2274,0.1202,0.01,0.4025,8.1812,-23.1525,7.021081280638281,10.076768917751043,1.344238631997537,23.049928916167087
0.1652,0.9482,0.1145,-0.226,0.1191,0.0101,0.2888,6.6763,-28.56,6.885800121798521,9.880092059417374,1.2037039989784364,23.062128367103316
0.1656,0.9493,0.116,-0.222,0.1197,0.009,0.2362,5.5037,-30.695,6.966510387283821,9.834739696843881,1.6131783954574728,23.074283224746306
0.1629,0.9526,0.1121,-0.222,0.1197,0.009,-0.315,4.235,-32.025,6.71229658092927,9.669482182754317,1.4556962609349167,23.086457193800683
0.1552,0.9514,0.1136,-0.2218,0.1197,0.0094,-1.05,3.1763,-33.1712,6.808778288641468,9.263696748114501,1.3931347787921524,23.09515465555751
0.1466,0.9479,0.106,-0.2218,0.1197,0.0094,-1.2425,3.1588,-34.6675,6.38186093323489,8.808432434239073,1.1291259988532705,23.107343842957995
0.1383,0.9484,0.1107,-0.2186,0.1235,0.0017,-0.84,2.1263,-34.6937,6.6568293721504475,8.308233597208819,3.634642474856797,23.119530552953297
0.1333,0.9525,0.1152,-0.2138,0.1231,0.0114,-1.6362,2.1263,-34.965,6.895463063861899,7.956676656669548,1.02043411950613,23.131705229837728
0.1313,0.9615,0.1104,-0.2138,0.1231,0.0114,-2.0038,1.9775,-34.4313,6.551024353083307,7.75262813961125,0.7972960408180945,23.143861857055846
0.1199,0.9616,0.1132,-0.2102,0.1247,0.0081,-2.4763,2.5813,-33.075,6.713525483340319,7.145442271944934,1.9357147654287177,23.15604502790089
0.1185,0.9604,0.1002,-0.2102,0.1247,0.0081,-3.3775,2.6513,-32.1562,5.95834956938831,7.015066423853361,1.4466334977212298,23.165480048571297
0.1052,0.9629,0.1241,-0.2078,0.1266,0.0066,-3.9725,2.4413,-30.8962,7.339957287121188,6.285865747231311,2.857913881766304,23.17758040330033
0.1121,0.9543,0.1147,-0.2078,0.1266,0.0066,-4.3838,2.7562,-30.38,6.8550431016514635,6.60568820171814,2.5547502371031086,23.189646428271864
0.1053,0.9496,0.1177,-0.2077,0.1245,0.0104,-4.095,3.15,-29.2775,7.065003374028308,6.323554793434805,1.4842541164693757,23.201454095274634
0.1027,0.9553,0.1171,-0.2034,0.1261,0.0089,-3.3163,3.3075,-29.1812,6.988630093919363,6.1226357894879,1.9734682461042299,23.213582055375667
0.0966,0.9627,0.1221,-0.2034,0.1261,0.0089,-3.4388,3.9463,-28.0175,7.227597639032734,5.750414569063371,2.1221317104352204,23.225706476326447
0.0819,0.9601,0.1249,-0.2001,0.1273,0.0082,-3.2987,4.0425,-26.1362,7.411496132353732,4.974350779406806,2.516008254912554,23.234688485763947
0.0881,0.9772,0.1197,-0.2001,0.1273,0.0082,-3.5175,4.1737,-24.2287,6.98474413198105,5.091986531383605,2.236127097780705,23.24679414921836
0.0835,0.9728,0.1268,-0.2004,0.1293,0.0077,-4.1388,4.27,-22.2775,7.425120140247495,4.900740632941817,2.7532943016001905,23.25890122833288
0.0839,0.9682,0.1268,-0.199,0.1273,0.0073,-4.4713,4.6375,-19.2062,7.461156202942771,4.909203594732466,2.838956137429959,23.27103945196966
0.0887,0.96,0.1315,-0.199,0.1273,0.0073,-3.7188,4.725,-17.5263,7.798827836263739,5.1758530381041705,3.081052727670527,23.283173074711108
0.0903,0.9538,0.1309,-0.1986,0.1287,0.0081,-3.92,4.48,-17.5788,7.814439931468413,5.328636799236222,2.920342483551624,23.291703842490826
0.0905,0.9512,0.1346,-0.1986,0.1287,0.0081,-3.2987,4.3575,-17.8762,8.053513585930206,5.373172864482238,3.0865578316659925,23.30387958112033
0.0863,0.9475,0.1302,-0.2015,0.1296,0.0061,-3.5,3.8588,-17.535,7.82490311114389,5.188171811632594,3.5105198307272936,23.31605673540994
0.0863,0.9447,0.1359,-0.2015,0.1296,0.0061,-2.7825,3.2025,-17.7012,8.185114760253065,5.169584830944767,3.75730911575087,23.32825370894099
0.0895,0.9468,0.1307,-0.1992,0.129,0.0099,-2.2838,2.7388,-17.92,7.860579048685931,5.326782814158733,2.4087009027715975,23.34045386770727
0.0904,0.9492,0.1308,-0.1975,0.1298,0.0071,-1.4088,2.625,-18.1212,7.846000956468767,5.381833511476949,3.3147935034049367,23.352619696716058
0.0947,0.9611,0.1273,-0.1975,0.1298,0.0071,-1.1462,1.8812,-17.8325,7.545891391992505,5.556385170180613,3.113110753771411,23.361289553100878
0.092,0.9618,0.1235,-0.1968,0.1298,0.0072,-1.575,1.4525,-17.8237,7.3176741181206,5.434625982592058,2.926687295275636,23.37347980224644
0.0959,0.9645,0.1313,-0.1968,0.1298,0.0072,-1.645,1.75,-17.7625,7.750953067199417,5.605027528824388,3.241848444734955,23.38567075922205
0.1013,0.9602,0.1297,-0.1974,0.1322,0.0134,-2.0563,0.9975,-17.3687,7.692889810343924,5.930772586259213,1.3874949709951432,23.3981912110866
0.1033,0.9572,0.1243,-0.1963,0.1289,0.0059,-1.3737,0.8225,-17.1937,7.399733513498111,6.090416034356299,3.387736926308253,23.41029156581563
0.1047,0.9546,0.1257,-0.1963,0.1289,0.0059,-1.925,1.155,-17.8587,7.501160438589238,6.193789204916283,3.466172831576272,23.422366792577836
0.1062,0.9543,0.1211,-0.1961,0.1294,0.0083,-2.1788,1.155,-17.8937,7.232897150620326,6.2887455557049945,2.5531311238477348,23.43166520204832
0.106,0.9512,0.1184,-0.1961,0.1294,0.0083,-1.05,1.33,-18.3575,7.095746648934015,6.308070115170779,2.455219292890902,23.443833508462287
0.111,0.949,0.1233,-0.1961,0.1314,0.0053,-1.3387,1.7587,-18.76,7.401892643466675,6.581415494570127,3.716114736989422,23.455710542810092
0.1055,0.9508,0.1224,-0.1961,0.1314,0.0053,-0.8575,2.2925,-17.9813,7.335738954470337,6.316364252312361,3.650160306525545,23.46774259193916
0.1053,0.9499,0.1238,-0.1963,0.1304,0.0028,-0.525,2.3975,-19.1012,7.425225219841174,6.278277487075572,4.447343009599136,23.47981427955111
0.104,0.9514,0.1172,-0.1947,0.1306,0.0062,-1.1112,3.0538,-18.655,7.023839185047842,6.203355806884819,3.1303305576697906,23.491866147921616
0.0966,0.9514,0.1227,-0.1947,0.1306,0.0062,-0.7788,3.395,-18.3225,7.347836369719622,5.813042776085441,3.3437348861924225,23.501061214204594
0.0914,0.9475,0.1211,-0.1938,0.1304,0.0046,-0.6038,3.2113,-17.7887,7.283667430710354,5.512644110914852,3.7925699514941362,23.51313042441136
0.0867,0.9526,0.1128,-0.1938,0.1304,0.0046,-0.0875,2.8,-16.9312,6.754592689092521,5.209033651935887,3.3984134903471914,23.525240334846085
0.0805,0.9562,0.1168,-0.1942,0.1314,0.0015,-0.9363,2.7562,-16.6425,6.9636008110928795,4.831855507992114,4.520590477078767,23.5373583853264
0.085,0.9576,0.1155,-0.1938,0.1301,0.005,-0.14,2.1,-16.5725,6.877694554225918,5.012190132955756,3.3449312499686212,23.549348318567407
0.0874,0.9608,0.1175,-0.1938,0.1301,0.005,-0.3938,2.1875,-16.5287,6.972038944199407,5.141963816268319,3.417503149846484,23.558560726686643
0.0852,0.9639,0.1121,-0.1931,0.1318,0.0054,-0.385,1.96,-16.765,6.634555020353102,5.032009971950856,3.1213276284457385,23.570652587455058
0.0772,0.9719,0.1111,-0.1931,0.1318,0.0054,0.385,1.4437,-16.0825,6.521615109303681,4.568960749873558,3.018156103723875,23.58268994530951
0.0783,0.9753,0.1096,-0.1923,0.1317,0.0047,-0.1663,0.7788,-14.3937,6.412060568911196,4.5622069338540685,3.1695717185893746,23.59477154254218
0.0767,0.9819,0.1076,-0.1923,0.1322,0.0006,-0.5163,0.245,-13.7025,6.254161102905342,4.451827208340364,4.347520553965121,23.606796513370732
0.0816,0.9863,0.1033,-0.1947,0.1322,0.0006,-0.5338,-0.4025,-13.3,5.979839159227824,4.681023286980729,4.111937404995051,23.618916687341205
0.0831,0.9805,0.1021,-0.1938,0.132,0.0046,-0.77,-1.1462,-14.0612,5.944914022760883,4.806782220959264,2.8612556570001546,23.628158470407573
0.0952,0.9767,0.1061,-0.1938,0.132,0.0046,-0.9363,-1.2687,-16.1525,6.199076749360251,5.473502702616266,3.0756068449019187,23.640294924469224
0.0781,0.9824,0.0955,-0.194,0.1317,0.0077,-1.7675,-1.75,-17.6487,5.55415019735476,4.6009211370205625,1.5907103228597574,23.652397756603435
0.073,0.9548,0.1009,-0.194,0.1317,0.0077,-3.3425,-2.31,-17.955,6.03108003149877,4.367536301815396,1.9301868478277457,23.664601100604948
0.0916,0.9734,0.0975,-0.1936,0.1317,0.0026,-3.0275,-3.1063,-18.865,5.720796874725012,5.277743949480042,3.340326811567817,23.676689422223102
0.0833,0.9719,0.0978,-0.1946,0.132,0.0048,-3.0713,-2.9225,-18.4363,5.746124017050393,4.904057268990713,2.6455428309627167,23.688805703128292
0.0645,0.9733,0.0957,-0.1946,0.132,0.0048,-3.2987,-2.975,-17.395,5.615942612901148,3.8564521442850483,2.5125680456292074,23.700905703942293
0.0614,0.9429,0.1038,-0.1918,0.132,0.005,-4.2613,-2.7125,-14.4375,6.2802723885302445,3.7149085345351605,2.9651112875438868,23.710410799787795
0.1124,0.9722,0.1093,-0.1918,0.132,0.005,-3.6925,-2.38,-15.3387,6.414187159522683,6.335585456500621,3.188781239735892,23.722278278429904
0.1412,0.9622,0.1112,-0.1908,0.1317,0.0086,-3.5175,-1.2163,-18.0687,6.591837061152581,8.128502779258914,2.2188164226136555,23.73439668282525
0.1308,0.9811,0.1051,-0.1884,0.1322,0.0073,-4.62,0.8575,-22.7062,6.1158276055002485,7.610319703212016,2.306503226146235,23.746476510482786
0.0966,0.9661,0.1021,-0.1884,0.1322,0.0073,-6.265,2.31,-23.4325,6.033013024737842,5.9110743450367496,2.178718004941668,23.758534041493707
0.0517,0.9553,0.1136,-0.1867,0.1327,0.0068,-6.1775,2.24,-22.75,6.779377594276401,3.414477652716766,2.8464814298121794,23.770626964007196
0.0566,0.9444,0.1118,-0.1867,0.1327,0.0068,-5.6875,1.9425,-20.0987,6.7514495094117075,3.407007567464487,2.837705104143704,23.782754570193205
0.0781,0.9437,0.1161,-0.1901,0.1327,0.0113,-4.76,1.4437,-18.5675,7.012904764834442,4.555282701528968,1.6008737817285625,23.791531308915793
0.0973,0.95,0.119,-0.1873,0.133,0.0102,-4.8562,1.155,-17.71,7.13950111390495,5.6710441204763775,2.1231817180533286,23.803590255586816
0.1056,0.9676,0.1114,-0.1873,0.133,0.0102,-4.9175,1.9862,-20.0025,6.5691848060172635,6.127965896308159,1.6931694960287846,23.81572246266816
0.0752,0.9784,0.1137,-0.1864,0.1329,0.0074,-4.8913,2.6688,-21.5163,6.628448992206587,4.58749703400551,2.6026603508674038,23.827909880493515
0.0573,0.9664,0.1172,-0.1864,0.1329,0.0074,-5.5213,3.0625,-21.07,6.913953432245008,3.5298998390292016,2.7790419027167035,23.840079956482608
0.0562,0.9565,0.1196,-0.189,0.1341,0.0076,-5.2675,3.2462,-19.1887,7.126621566171086,3.36288198111535,2.8790596454829256,23.8488347524736
0.0653,0.9493,0.1208,-0.189,0.1341,0.0076,-5.3638,2.1788,-17.4212,7.25165006144314,3.8395853781467673,2.995049207618549,23.86097474568551
0.082,0.9525,0.1258,-0.1869,0.1343,0.0053,-4.2263,2.24,-18.1562,7.522937479831212,4.754302111999798,4.033317634655555,23.87314588341968
0.0855,0.9589,0.1161,-0.1852,0.1351,0.0079,-3.6312,2.1963,-18.9612,6.905307190451777,5.022415332495382,2.786267072903493,23.885330116009808
0.072,0.9706,0.1233,-0.1852,0.1351,0.0079,-3.9113,2.205,-19.18,7.238833092112334,4.305480528725197,3.0090479673128514,23.897501607659006
0.0601,0.9725,0.118,-0.1841,0.1338,0.0082,-4.1825,2.4938,-19.4512,6.9191737809486265,3.6084881144620127,2.6016376866226656,23.909638061720656
0.057,0.9669,0.1248,-0.1841,0.1338,0.0082,-4.27,2.2313,-18.8563,7.353400728132391,3.377348846697895,2.92592929264706,23.918431080534425
0.0567,0.9624,0.1182,-0.1844,0.1358,0.0033,-4.8913,2.4237,-17.7887,7.00288350962894,3.350358360063831,4.309054162175749,23.930587707752544
0.0553,0.9603,0.1261,-0.1845,0.1332,0.0098,-4.4975,2.1,-17.2812,7.4795297853387295,3.277502397089021,2.4736771675479527,23.942750705441124
0.0613,0.9553,0.131,-0.1845,0.1332,0.0098,-4.2788,1.1112,-17.0975,7.807320170891668,3.5997181917623733,2.733261371121532,23.95490096218878
0.0598,0.9532,0.1261,-0.1859,0.1356,0.0089,-4.34,1.6187,-17.3337,7.536739813734989,3.5634173144216708,2.8959824738156215,23.96707811647839
0.0602,0.9569,0.1247,-0.1859,0.1356,0.0089,-4.235,1.7762,-17.1413,7.425069999766293,3.5690017883964233,2.8116669425128107,23.97921386270999
0.0618,0.9597,0.1253,-0.181,0.1353,0.0127,-3.7713,1.54,-16.7912,7.438516126172106,3.644244992802592,1.640528508013054,23.988007943268837
0.0722,0.9599,0.1282,-0.181,0.1353,0.0053,-3.9113,0.8838,-16.1963,7.606676565038228,4.200117287530125,4.244639785206856,24.000167755722188
0.0775,0.9589,0.1259,-0.1818,0.1341,0.0053,-3.7975,0.7,-15.645,7.480295791950454,4.543096779353112,4.092545398304888,24.012666618770165
0.0831,0.9592,0.1294,-0.1839,0.1346,0.0101,-3.9725,1.1987,-15.5575,7.682476150549687,4.868555976556122,2.6638495961580104,24.024752816898168
0.0808,0.9579,0.1349,-0.1839,0.1346,0.0101,-3.0275,1.8288,-14.7875,8.015241395656654,4.785341161507039,2.917551381991139,24.036799730458316
0.0786,0.9537,0.1301,-0.1824,0.1334,0.0106,-2.905,1.8463,-14.7875,7.768813126709404,4.681720002552299,2.5222163730957825,24.045257237827713
0.0742,0.9492,0.1333,-0.1824,0.1334,0.0106,-2.7825,1.9337,-17.9025,7.993364187705451,4.455905148861055,2.6882072794580765,24.057472261025072
0.0784,0.9534,0.1254,-0.183,0.1346,0.0171,-2.2488,2.2488,-16.2663,7.494470079984229,4.6365013420498995,0.2018068607356145,24.06967348153643
0.0809,0.9604,0.1274,-0.1814,0.1346,0.0093,-1.4,1.6275,-16.8875,7.556170010839871,4.758144529127232,2.8614980472938885,24.081853821061273
