AcclX,AcclY,AcclZ,MagX,MagY,MagZ,GyroX,GyroY,GyroZ,Roll,Pitch,Yaw,Time(s)
-0.1425,0.9744,0.0408,-0.3663,0.224,0.219,-3.0713,1.3562,-16.17,0,0,0,1.618451442659224
-0.1422,0.9529,0.0289,-0.3663,0.224,0.219,-1.8637,1.26,-16.0212,0,0,0,1.6305825493550627
-0.1446,0.9796,0.0436,-0.363,0.2239,0.2152,-1.925,1.575,-16.1963,0,0,0,1.6427062238590346
-0.1417,0.9754,0.044,-0.363,0.2239,0.2152,-2.8525,1.4,-15.8463,0,0,0,1.6548606888721684
-0.1454,0.977,0.042,-0.3663,0.2237,0.2202,-2.485,1.085,-15.8987,0,0,0,1.6668739422398362
-0.1445,0.978,0.0425,-0.3663,0.2237,0.2202,-2.1963,0.9975,-15.925,0,0,0,1.6789986784855033
-0.1432,0.9782,0.0399,-0.3683,0.2226,0.2186,-2.3538,1.3475,-16.17,0,0,0,1.691213308861367
-0.142,0.9768,0.037,-0.3683,0.2226,0.2186,-2.9488,1.3037,-15.8812,0,0,0,1.703209574361911
-0.1443,0.9776,0.042,-0.3679,0.2247,0.2185,-2.8,0.9713,-16.4325,0,0,0,1.7125525473660665
-0.1437,0.9772,0.0462,-0.3671,0.2239,0.2201,-2.4675,1.295,-16.3712,0,0,0,1.724663834883594
-0.1437,0.9764,0.0429,-0.3671,0.2239,0.2201,-2.1175,1.5312,-15.8375,0,0,0,1.7368331642804613
-0.1435,0.9782,0.0437,-0.3659,0.2237,0.2195,-1.8025,1.085,-16.1175,0,0,0,1.7488832246935637
-0.1465,0.9797,0.0375,-0.3659,0.2237,0.2195,-1.7062,0.9187,-15.89,0,0,0,1.7609492112320946
-0.1427,0.9792,0.0398,-0.367,0.2235,0.2178,-2.4063,1.3037,-16.3625,0,0,0,1.773083503153019
-0.1455,0.9778,0.034,-0.367,0.2249,0.222,-2.52,0.8312,-16.1087,0,0,0,1.7851838193396958
-0.1465,0.9817,0.0422,-0.3696,0.2249,0.222,-2.8612,1.1112,-15.6975,0,0,0,1.7945593524225052
-0.1451,0.9756,0.0472,-0.3662,0.2242,0.2184,-2.765,1.5137,-16.03,0,0,0,1.8068663543258543
-0.1416,0.9773,0.0444,-0.3662,0.2242,0.2184,-2.4938,1.1812,-16.345,0,0,0,1.818751490862297
-0.1429,0.9737,0.0405,-0.3672,0.2261,0.2182,-2.345,0.9625,-15.9862,0,0,0,1.8308578235852468
-0.1418,0.9785,0.0441,-0.3672,0.2261,0.2182,-2.0913,1.4787,-16.3275,0,0,0,1.842981498089219
-0.148,0.9772,0.0428,-0.3649,0.2244,0.215,-2.5725,1.1462,-15.8375,0,0,0,1.8550920777789497
-0.1449,0.9778,0.0425,-0.3669,0.2238,0.2177,-2.4675,0.7962,-15.7675,0,0,0,1.8671630191120583
-0.143,0.9767,0.0408,-0.3669,0.2238,0.2177,-2.1088,0.8312,-16.31,0,0,0,1.8792251125977069
-0.1434,0.9814,0.0411,-0.3665,0.224,0.2184,-2.6075,1.225,-16.03,0,0,0,1.8886643501822302
-0.1463,0.9783,0.0387,-0.3665,0.224,0.2184,-2.065,1.12,-16.1175,0,0,0,1.9007862551167103
-0.1432,0.9749,0.0459,-0.3676,0.224,0.2203,-2.7738,1.54,-16.4675,0,0,0,1.9129371809908597
-0.147,0.9762,0.0388,-0.3665,0.2253,0.219,-2.7913,1.5137,-15.9687,0,0,0,1.924950788272426
-0.1451,0.9825,0.0375,-0.3665,0.2253,0.219,-2.4063,1.1287,-15.9862,0,0,0,1.9370818949682644
-0.1474,0.9858,0.0352,-0.3678,0.2226,0.2192,-2.4237,1.0325,-15.8638,0,0,0,1.9491970755386747
-0.1424,0.972,0.0361,-0.3678,0.2226,0.2192,-2.94,1.05,-16.0825,0,0,0,1.961299515208742
-0.1402,0.9682,0.0461,-0.3666,0.2241,0.2193,-2.3975,1.26,-16.5025,0,0,0,1.9707688354746304
-0.1444,0.9842,0.0451,-0.3662,0.2245,0.2187,-2.45,1.05,-16.1262,0,0,0,1.9827799653589075
-0.1477,0.9832,0.0421,-0.3662,0.2245,0.2187,-1.8375,0.8838,-15.8725,0,0,0,1.9948912528764353
-0.1392,0.9742,0.0405,-0.3681,0.2237,0.219,-2.4237,1.2337,-16.3625,0,0,0,2.0069940464604006
-0.1494,0.9815,0.0392,-0.3681,0.2237,0.219,-2.6863,1.4875,-16.0037,0,0,0,2.019036320767738
-0.1448,0.9792,0.0356,-0.3692,0.2256,0.223,-2.2225,1.575,-15.8725,0,0,0,2.03118229184731
-0.1387,0.9734,0.0422,-0.3681,0.2246,0.2174,-2.1263,1.7237,-15.7587,0,0,0,2.0432822541200886
-0.1392,0.9755,0.0486,-0.3681,0.2246,0.2174,-2.03,1.5662,-15.4525,0,0,0,2.0553270058247146
-0.1463,0.9787,0.0417,-0.3658,0.2258,0.2188,-2.3275,1.3475,-15.8287,0,0,0,2.0647655355814414
-0.1441,0.9726,0.0405,-0.3658,0.2258,0.2188,-2.5375,1.085,-16.1963,0,0,0,2.0768693909071025
-0.1459,0.9763,0.0363,-0.3654,0.2253,0.213,-2.87,1.05,-15.5925,0,0,0,2.0889300687371573
-0.1444,0.9801,0.0406,-0.3684,0.2241,0.2206,-2.45,1.2862,-16.2925,0,0,0,2.1010887807170717
-0.1424,0.9797,0.0389,-0.3684,0.2241,0.2206,-2.4237,1.26,-16.0125,0,0,0,2.113211747393247
-0.1409,0.9727,0.0454,-0.3667,0.2254,0.2184,-1.8987,1.015,-16.695,0,0,0,2.1253163105467046
-0.1442,0.9755,0.0415,-0.3667,0.2254,0.2184,-1.9775,0.9187,-16.4762,0,0,0,2.137373095323877
-0.1444,0.9806,0.0442,-0.3681,0.2247,0.2233,-2.5725,1.225,-15.96,0,0,0,2.1467684475849973
-0.1455,0.9786,0.0336,-0.3668,0.2252,0.2173,-2.3888,1.2337,-15.82,0,0,0,2.1589222047703345
-0.1446,0.9769,0.0369,-0.3668,0.2252,0.2173,-2.8963,1.33,-16.1,0,0,0,2.171010841798364
-0.1396,0.9747,0.0355,-0.3662,0.223,0.2191,-2.59,0.9713,-16.38,0,0,0,2.183038605635866
-0.144,0.9782,0.0434,-0.3662,0.223,0.2191,-2.73,1.3212,-15.8375,0,0,0,2.1951590949147524
-0.1412,0.9733,0.0477,-0.3671,0.2253,0.2202,-2.8612,1.5225,-16.065,0,0,0,2.2072820615909277
-0.1401,0.9762,0.043,-0.3671,0.2253,0.2202,-2.7475,1.365,-15.4875,0,0,0,2.2194156456840552
-0.1453,0.9798,0.0357,-0.3665,0.2237,0.2181,-2.5113,1.1638,-15.8987,0,0,0,2.2287136716231126
-0.1451,0.9772,0.042,-0.3668,0.2242,0.2186,-2.5113,1.1812,-16.3625,0,0,0,2.2408313295908115
-0.1446,0.9758,0.0404,-0.3668,0.2242,0.2186,-2.6688,1.0325,-16.3625,0,0,0,2.253054099986339
-0.146,0.9787,0.0382,-0.3685,0.2244,0.2188,-1.7237,1.1462,-16.9137,0,0,0,2.2650666455262094
-0.1432,0.9798,0.0403,-0.3685,0.2244,0.2188,-1.68,1.225,-16.7038,0,0,0,2.2771273233562646
-0.1405,0.9772,0.0448,-0.3656,0.2253,0.2144,-2.7213,1.1025,-15.9775,0,0,0,2.2892449813239635
-0.1455,0.9767,0.0384,-0.3662,0.2251,0.2186,-2.9838,1.0325,-15.855,0,0,0,2.3013778575892943
-0.145,0.977,0.0344,-0.3662,0.2251,0.2186,-2.4325,1.4175,-15.6712,0,0,0,2.3134873755373295
-0.1427,0.9791,0.0393,-0.3669,0.2244,0.2186,-2.7213,1.4875,-15.4175,0,0,0,2.3228650321035293
-0.1437,0.9787,0.0439,-0.3669,0.2244,0.2186,-2.835,0.9363,-15.4,0,0,0,2.3349306647281622
-0.1403,0.9786,0.0451,-0.3684,0.2244,0.2233,-3.1325,0.9975,-15.785,0,0,0,2.347049384437556
-0.1462,0.9777,0.0386,-0.3662,0.2229,0.2186,-2.5638,1.3125,-16.4325,0,0,0,2.3591596102133887
-0.1466,0.9763,0.0433,-0.3662,0.2229,0.2186,-1.9337,1.3475,-16.3187,0,0,0,2.371280453406173
-0.1434,0.9801,0.0378,-0.3646,0.2234,0.2197,-1.7237,1.0937,-15.9687,0,0,0,2.383354933878266
-0.1427,0.9796,0.0415,-0.3646,0.2234,0.2197,-1.7937,1.1812,-16.4762,0,0,0,2.395476130984949
-0.1448,0.9785,0.0376,-0.3667,0.2241,0.2236,-2.0913,1.2163,-16.2488,0,0,0,2.4048378614257206
-0.1414,0.9751,0.0401,-0.3672,0.2238,0.2199,-4.3838,1.6362,-15.7325,0,0,0,2.4169590585324037
-0.1457,0.9767,0.0411,-0.3672,0.2238,0.2199,-2.1875,1.1725,-16.1612,0,0,0,2.4290760086723058
-0.1426,0.9778,0.0362,-0.3685,0.2258,0.219,-2.905,0.9975,-16.135,0,0,0,2.4411363325884623
-0.1405,0.9794,0.0412,-0.3685,0.2258,0.219,-3.185,1.3037,-15.9687,0,0,0,2.4532490357615835
-0.1466,0.9776,0.0403,-0.3665,0.2232,0.2199,-2.7037,1.3037,-15.9075,0,0,0,2.4653535989150415
-0.1469,0.9769,0.0483,-0.3666,0.2254,0.219,-2.4413,1.5662,-16.0037,0,0,0,2.477515496120042
-0.1479,0.977,0.044,-0.3666,0.2254,0.219,-1.6187,0.7788,-16.0387,0,0,0,2.489489465044986
-0.1435,0.9776,0.0376,-0.3671,0.2237,0.2185,-1.9162,1.1287,-16.6075,0,0,0,2.4989329495962904
-0.1438,0.9769,0.0445,-0.3671,0.2237,0.2185,-1.96,1.4437,-16.6338,0,0,0,2.5111160816351954
-0.1437,0.9782,0.0398,-0.3657,0.224,0.2215,-2.1613,1.3825,-16.5375,0,0,0,2.523190562107288
-0.1441,0.9792,0.0353,-0.3671,0.2242,0.2168,-2.4413,1.785,-16.0825,0,0,0,2.535247700798359
-0.1438,0.978,0.0367,-0.3671,0.2242,0.2168,-2.3712,1.3912,-16.1,0,0,0,2.547356864832496
-0.1444,0.9766,0.044,-0.368,0.2252,0.2189,-2.7125,1.5925,-16.03,0,0,0,2.5594649671249377
-0.1421,0.9776,0.0407,-0.368,0.2252,0.2189,-2.8175,1.5662,-16.17,0,0,0,2.5715851024899257
-0.1438,0.9776,0.039,-0.3698,0.2246,0.221,-1.9687,1.5137,-16.1262,0,0,0,2.5809754999564682
-0.1452,0.9771,0.0431,-0.3698,0.2246,0.2206,-2.17,1.0762,-15.9687,0,0,0,2.593042194322796
-0.1454,0.9792,0.0378,-0.3666,0.2238,0.2206,-2.7562,0.9625,-15.8025,0,0,0,2.605159852290495
-0.1448,0.9776,0.0395,-0.3655,0.2238,0.2193,-2.8263,1.26,-15.855,0,0,0,2.6172389336432675
-0.1459,0.9778,0.0385,-0.3655,0.2238,0.2193,-2.8087,1.0762,-16.135,0,0,0,2.6293569455248647
-0.1433,0.9777,0.0444,-0.365,0.223,0.2205,-2.0125,1.6362,-16.1087,0,0,0,2.6414703565257827
-0.1438,0.977,0.0423,-0.365,0.223,0.2205,-1.575,1.645,-16.59,0,0,0,2.6535611170372024
-0.1462,0.9773,0.0459,-0.3677,0.2242,0.2228,-1.3125,0.7875,-16.3887,0,0,0,2.665587111305213
-0.1465,0.9786,0.0415,-0.3685,0.2243,0.2196,-2.5375,1.435,-15.89,0,0,0,2.6749746774605683
-0.1452,0.979,0.0431,-0.3685,0.2243,0.2196,-2.7825,1.365,-16.0912,0,0,0,2.687596308819605
-0.1438,0.9767,0.0413,-0.3686,0.225,0.2186,-2.4763,1.1812,-16.0037,0,0,0,2.699212824707154
-0.1468,0.9745,0.0411,-0.3686,0.225,0.2186,-3.0363,1.0237,-16.2313,0,0,0,2.7108955224937055
-0.1416,0.9769,0.0457,-0.366,0.2243,0.221,-2.7037,0.8838,-15.925,0,0,0,2.7232864019909777
-0.143,0.9761,0.0422,-0.3666,0.2236,0.2188,-2.1525,0.8312,-16.0037,0,0,0,2.7355771238549997
-0.1432,0.9777,0.0392,-0.3666,0.2236,0.2188,-2.24,1.2512,-15.9512,0,0,0,2.747626122526407
-0.1432,0.9779,0.0378,-0.3683,0.2263,0.2186,-2.4237,1.435,-16.4587,0,0,0,2.7570250139265116
-0.1438,0.9787,0.0395,-0.3683,0.2263,0.2186,-2.4763,1.1725,-16.59,0,0,0,2.76914054841082
-0.1462,0.9785,0.0387,-0.3686,0.2259,0.2246,-2.3975,0.9975,-16.9312,0,0,0,2.781267408139878
-0.1445,0.9768,0.0468,-0.3688,0.2254,0.2198,-1.96,1.12,-16.345,0.6738810434567315,-4.616957104840397,0.9036389908657618,15.579413677922782
-0.1436,0.9764,0.0414,-0.3688,0.2254,0.2198,-2.1963,1.1725,-16.4237,0.8177944509004293,-6.730280952553386,1.3955560308686903,15.584646648824688
-0.1423,0.978,0.0435,-0.3655,0.2238,0.2187,-3.2288,0.8487,-16.2225,1.6569684161938825,-7.5357040532875095,7.5727872385162325,15.5894106838112
-0.1458,0.9764,0.037,-0.3655,0.2238,0.2187,-2.4675,1.1287,-15.6187,1.7359193918960665,-7.849539385008431,8.072901935122271,15.594401223692696
-0.1448,0.9796,0.0418,-0.3656,0.2238,0.2215,-2.6075,0.9887,-15.7762,1.908157119557132,-8.06667665893414,10.918870044731042,15.599199234413456
-0.1438,0.9776,0.0357,-0.3667,0.2226,0.2163,-2.5375,1.0675,-15.645,1.9450184489922702,-8.167685537141484,12.252410157090027,15.603688986128699
-0.144,0.9776,0.0432,-0.3667,0.2226,0.2163,-2.625,1.0237,-15.6538,2.093287266285721,-8.238012385717068,14.006026237893455,15.605994735176848
-0.1457,0.9791,0.0392,-0.3661,0.2254,0.2192,-2.9488,1.3737,-15.9862,2.1728025302927954,-8.339445105686279,16.51123859423867,15.607706262789565
-0.1445,0.9764,0.0396,-0.3661,0.2254,0.2192,-2.3975,1.3912,-16.1788,2.1878562281961753,-8.376360144709102,18.695869966735742,15.609409650382617
-0.1448,0.978,0.0372,-0.367,0.2253,0.2174,-2.1963,1.2337,-16.0212,2.1870720528353065,-8.395021715322637,19.362890855179344,15.611322555003529
-0.1462,0.9775,0.0437,-0.369,0.2244,0.2178,-1.7675,0.9713,-16.24,2.314274567015804,-8.44930044391075,20.611793110760434,15.613041160894214
-0.1472,0.9806,0.0385,-0.369,0.2244,0.2178,-2.345,0.805,-16.555,2.310584230193133,-8.497111405629585,22.419216437498847,15.614731807586924
-0.1448,0.9761,0.0434,-0.3655,0.2234,0.2189,-2.2575,0.7437,-16.345,2.317032198985502,-8.460150264072144,23.98868065232357,15.616415022087766
-0.1437,0.9794,0.0386,-0.3655,0.2234,0.2189,-2.6163,1.2775,-15.925,2.3021076531905775,-8.407081347937277,24.427201261314515,15.618096820933017
-0.1434,0.9773,0.0387,-0.3654,0.2247,0.2196,-3.3775,1.4262,-15.7325,2.2841302746246313,-8.382157370175987,25.199649307557753,15.619767648447416
-0.1447,0.9779,0.0453,-0.3654,0.2246,0.2178,-2.7125,1.3825,-15.6887,2.3942527509309555,-8.391496212249415,25.65225897006627,15.621460772537414
-0.1465,0.9781,0.0355,-0.3667,0.2246,0.2178,-2.555,1.5925,-15.9162,2.327284931572138,-8.445084303381659,26.312852095492435,15.623185041050474
-0.1439,0.9777,0.0393,-0.3636,0.2258,0.2193,-1.8025,1.3475,-16.3712,2.3189968596895985,-8.401307467318999,26.598446148395347,15.624888428643526
-0.145,0.978,0.0437,-0.3636,0.2258,0.2193,-2.03,1.0325,-16.3275,2.367753406833141,-8.414265481474558,26.743035583604826,15.626578721422337
-0.1421,0.9771,0.0397,-0.3663,0.2241,0.2169,-2.5025,1.2862,-16.3975,2.3604334289560693,-8.332292499114162,26.85145032991733,15.62828918729336
-0.1459,0.9786,0.0366,-0.3663,0.2241,0.2169,-2.0125,1.2775,-16.1788,2.313540545881769,-8.404937783224828,26.947420986728954,15.62998408095285
-0.1406,0.9773,0.0424,-0.3652,0.2242,0.2193,-1.8288,1.2687,-16.2138,2.3670628143413297,-8.2873049063242,27.050123064932833,15.631670834592677
-0.1462,0.9778,0.0418,-0.3652,0.2245,0.2189,-2.0125,1.1987,-16.2225,2.3843966039654227,-8.396537484890185,27.08463190413567,15.633345909073858
-0.1437,0.9776,0.0418,-0.3652,0.2245,0.2189,-2.4588,1.2075,-13.72,2.393834158075658,-8.372056532482361,27.12513398355758,15.635028061833006
-0.1444,0.9762,0.0415,-0.3657,0.2248,0.2194,-2.2838,0.8225,-16.17,2.393910053291724,-8.38975970863855,27.31796186209286,15.636885755885766
-0.1446,0.9778,0.0426,-0.3657,0.2248,0.2194,-2.7213,0.8663,-15.645,2.424474819768451,-8.39470703554319,27.441376550919895,15.638623119213067
-0.1452,0.9795,0.0401,-0.367,0.2234,0.2155,-2.4938,1.05,-15.8112,2.4106697302157594,-8.40706204778428,27.441526152827908,15.640306333713909
-0.1441,0.9778,0.0389,-0.3682,0.2245,0.2185,-1.9337,0.9713,-16.065,2.376183918400741,-8.392456460148987,27.487243658796096,15.642042281385615
-0.1431,0.9764,0.041,-0.3682,0.2245,0.2185,-1.9862,1.3037,-16.1,2.3827082487493536,-8.361941437912886,27.512915350851717,15.643761595104097
-0.1436,0.9781,0.04,-0.3655,0.2246,0.2193,-1.505,0.8138,-16.065,2.364791414903679,-8.353907119256082,27.62641063567113,15.64544516351884
-0.1455,0.9787,0.0426,-0.3655,0.2246,0.2193,-2.4763,1.1025,-16.205,2.3852133308814647,-8.402813004551584,27.638153792469456,15.64712873193358
-0.1418,0.9772,0.042,-0.3662,0.2246,0.2228,-2.4237,1.1725,-15.9075,2.3944114283998994,-8.335337044564875,27.649734595669614,15.648789295944926
-0.1464,0.9787,0.0418,-0.3661,0.2241,0.2178,-2.2662,1.3912,-16.5725,2.3953895327169406,-8.4326514077413,27.656067479894784,15.650466493909496
-0.1429,0.9777,0.0373,-0.3661,0.2241,0.2178,-2.52,1.5925,-16.8087,2.355415211023531,-8.355394557727806,27.71397238435436,15.652181914575095
-0.1452,0.98,0.0439,-0.3678,0.2238,0.2185,-2.5813,1.785,-16.1875,2.403213627538337,-8.38839627504942,27.67838089263841,15.653857342970174
-0.1448,0.9764,0.036,-0.3678,0.2238,0.2185,-3.0713,1.1987,-16.345,2.274888788963267,-8.411155382653842,27.685407173508285,15.655518260895416
-0.142,0.9775,0.0395,-0.3727,0.2251,0.2172,-3.0013,1.4088,-15.9512,2.2912103991218404,-8.342290526099434,27.612559503342965,15.657187672754223
-0.142,0.977,0.04,-0.3665,0.2257,0.22,-3.2288,1.225,-16.1175,2.317063033035156,-8.302721244882633,27.636907817865566,15.658856022871332
-0.1436,0.979,0.0431,-0.3665,0.2257,0.22,-2.3187,1.3387,-16.1,2.323575107449068,-8.319481443063134,27.674548381988018,15.660517294710475
-0.1434,0.9783,0.0432,-0.3659,0.2238,0.2193,-2.45,1.645,-16.3362,2.352487298979656,-8.32582665101802,27.73499221788431,15.662190599622162
-0.1424,0.9776,0.037,-0.3659,0.2238,0.2193,-2.4237,1.3037,-16.52,2.3300499607645295,-8.300153557802538,27.77529477749772,15.663864612361646
-0.1435,0.9794,0.0417,-0.3659,0.2249,0.217,-2.24,1.33,-16.3362,2.3347663561042875,-8.315469952267822,27.753339089507833,15.665533670306553
-0.1419,0.9799,0.0407,-0.368,0.2249,0.2168,-2.6775,1.0587,-16.2313,2.3470512235491308,-8.272053514657168,27.733936197863184,15.667188925609423
-0.1439,0.9775,0.0389,-0.368,0.2249,0.2168,-3.1675,0.84,-16.3975,2.3151182865454123,-8.325734371362945,27.69100178674087,15.668473279146756
-0.1441,0.9778,0.0392,-0.367,0.2254,0.2184,-2.4763,1.0937,-15.8463,2.312018722815247,-8.347109321592452,27.695852634650528,15.669756217028498
-0.1464,0.9798,0.0407,-0.367,0.2254,0.2184,-2.45,1.12,-15.89,2.32142194869108,-8.409393865029505,27.696465653089763,15.671007656573279
-0.1459,0.9774,0.0445,-0.367,0.225,0.221,-2.6163,1.1638,-16.1437,2.3923341681687833,-8.445706940321774,27.69848191726321,15.67222335081432
-0.1449,0.9787,0.0401,-0.3658,0.2246,0.2187,-3.0713,1.155,-16.135,2.37205916657238,-8.43013912283824,27.698667857312905,15.673431612863498
-0.1458,0.9792,0.0377,-0.3658,0.2246,0.2187,-3.01,1.1638,-16.0037,2.301819114051013,-8.445390770466988,27.700853971822973,15.674639520998774
-0.1454,0.978,0.0406,-0.3656,0.224,0.2184,-2.2838,1.4262,-15.8112,2.3019605107263104,-8.446896490608236,27.72727623022559,15.67583893520049
-0.1452,0.9778,0.0411,-0.3656,0.224,0.2184,-1.6013,1.085,-15.7412,2.344600252814383,-8.44395109000514,27.732700225659926,15.677082234725608
-0.1459,0.9803,0.0454,-0.3652,0.2248,0.2163,-1.9775,1.4088,-16.87,2.416924826154038,-8.451845185826853,27.67773148568841,15.678301114191736
-0.142,0.9765,0.0348,-0.3652,0.2248,0.2163,-2.3712,1.5137,-16.7562,2.387309583802211,-8.338294045346695,27.70982678714275,15.679506191015825
-0.1462,0.9776,0.0393,-0.3685,0.2258,0.2218,-2.4413,1.33,-16.1612,2.375832107798279,-8.419913409089904,27.758957305877015,15.68072365482636
-0.1461,0.9783,0.0354,-0.3659,0.2242,0.2186,-2.5463,1.6712,-16.5987,2.3130916309504954,-8.460665987731883,27.830493896717993,15.681931562961637
-0.143,0.978,0.0396,-0.3659,0.2242,0.2186,-2.8612,1.4175,-16.0212,2.3151348986376443,-8.390426952067799,27.840932461360623,15.683222640863042
-0.1445,0.9781,0.0421,-0.367,0.2242,0.2174,-2.6338,0.9713,-16.24,2.3537410296278143,-8.393449804842517,27.802669558308285,15.684507702228172
-0.144,0.9773,0.0443,-0.367,0.2242,0.2174,-2.0125,0.9625,-15.5662,2.405588731221057,-8.387337661564464,27.75931138751634,15.68576232699804
-0.1437,0.9768,0.042,-0.3676,0.2242,0.2206,-2.0825,1.1725,-15.0675,2.415125192060172,-8.385892477661077,27.7623498018518,15.686983329947557
-0.1444,0.9768,0.0382,-0.3658,0.2233,0.2193,-2.5025,1.295,-15.4787,2.3838386558425757,-8.390293068504219,27.79163757211004,15.688184513718765
-0.1456,0.977,0.0362,-0.3658,0.2233,0.2193,-2.2575,1.4,-16.485,2.376661286725217,-8.436520434647635,27.841501278501546,15.689380742695395
-0.1429,0.978,0.0406,-0.3693,0.225,0.2182,-2.2488,0.9275,-16.1,2.3766794344075928,-8.372063144629127,27.796479498387612,15.69057555601643
-0.1457,0.9778,0.0414,-0.3693,0.225,0.2182,-2.1963,1.4175,-15.6887,2.380599030764634,-8.40648650877887,27.74397289419247,15.691765414542889
-0.1437,0.9762,0.0422,-0.367,0.2266,0.2232,-2.0563,1.3737,-16.1875,2.3982665247880046,-8.38579334275411,27.82821056110642,15.692957750466636
-0.1433,0.9768,0.0438,-0.3677,0.2233,0.2188,-2.5288,1.7062,-16.31,2.431352158393008,-8.359723013290475,27.776243109603595,15.694153625529367
-0.1448,0.9777,0.0357,-0.3677,0.2233,0.2188,-2.1,1.1725,-16.4325,2.3780811671557456,-8.393234696163105,27.778508042363423,15.695350562333793
-0.1436,0.9787,0.0391,-0.3662,0.2242,0.2186,-2.73,1.2075,-16.17,2.3503091082861003,-8.366363419809186,27.78330071559859,15.696547145224322
-0.145,0.9778,0.0363,-0.3662,0.2242,0.2186,-2.8,1.12,-15.8287,2.274152849669976,-8.39233734059958,27.788284989828483,15.697738773320273
-0.1438,0.9782,0.0417,-0.3661,0.2248,0.2183,-2.765,1.6887,-15.8725,2.3282143125159713,-8.376539855812261,27.77793122045622,15.699081168736946
-0.1437,0.9776,0.042,-0.3662,0.2239,0.2191,-2.2575,1.5225,-15.5925,2.331827589324959,-8.369556074836964,27.796192170215406,15.700302171686465
-0.144,0.9776,0.0432,-0.3662,0.2239,0.2191,-1.2425,1.3125,-15.9775,2.43313342407908,-8.37037192995214,27.797821039809886,15.701506894596656
-0.1446,0.9768,0.0375,-0.3701,0.2238,0.219,-1.6712,0.9363,-15.8987,2.3438471304157553,-8.38959488122766,27.784584535533686,15.702717280129221
-0.1443,0.9787,0.0373,-0.3701,0.2238,0.219,-2.4063,1.0937,-16.135,2.326489691956856,-8.385425067733326,27.781912764805387,15.703922003039413
-0.1438,0.9788,0.0393,-0.3702,0.225,0.2154,-2.4237,1.6013,-16.1612,2.3231872029891507,-8.36800015787092,27.6207134699752,15.70512354072452
-0.1429,0.9775,0.039,-0.3658,0.2241,0.2198,-2.8788,1.225,-15.89,2.308879947061312,-8.343141991851242,27.648547410076418,15.706324370581829
-0.1434,0.9773,0.0432,-0.3658,0.2241,0.2198,-2.9925,1.2425,-15.8463,2.400872183033655,-8.34160041666984,27.670111166729935,15.70752697000863
-0.1421,0.9762,0.0429,-0.3658,0.2242,0.2198,-2.7913,1.3387,-15.8987,2.4396341160592563,-8.312220212729553,27.710877089596156,15.708726030296447
-0.1463,0.9778,0.045,-0.3658,0.2242,0.2198,-2.9138,0.945,-15.7237,2.5150009319681783,-8.382707402729995,27.731590879044152,15.709928629723247
-0.1441,0.9775,0.0427,-0.3653,0.2249,0.2211,-2.7475,0.98,-15.8987,2.5106578642761237,-8.380695062658672,27.784030749641957,15.711263592948054
-0.1446,0.9789,0.039,-0.368,0.2249,0.2161,-3.0275,1.225,-16.1,2.4130596571912015,-8.388353850410821,27.7630923485417,15.712541929949115
-0.1448,0.9781,0.0406,-0.368,0.2249,0.2161,-2.7738,1.2862,-15.8812,2.4012083147263006,-8.399335736329425,27.722823022156668,15.713830884367129
-0.1433,0.9773,0.0403,-0.3661,0.2234,0.2187,-1.9162,0.9275,-16.3712,2.3904450813751463,-8.363528317918442,27.749143703548636,15.715194514617707
-0.1438,0.9784,0.0402,-0.3661,0.2234,0.2187,-2.2313,1.12,-16.4937,2.388504367356626,-8.358149757266833,27.752969605124463,15.716555667470995
-0.1441,0.9782,0.0422,-0.3656,0.2241,0.2162,-2.0125,1.47,-16.3712,2.4060408473135046,-8.366037463618301,27.70239453858532,15.717912573357504
-0.1404,0.9773,0.0395,-0.3656,0.2241,0.2203,-2.7562,1.1287,-16.03,2.376747812719726,-8.272340572788682,27.712633188983137,15.719260631396551
-0.1452,0.9781,0.0393,-0.3662,0.2224,0.2203,-2.5375,0.9363,-16.1963,2.361490703359908,-8.357580117671283,27.775299038216183,15.720609397263397
-0.1414,0.9784,0.0432,-0.3678,0.2246,0.2193,-2.2838,0.945,-15.89,2.361803490710847,-8.296121639997024,27.772085495786094,15.72195427007736
-0.1418,0.9781,0.0437,-0.3678,0.2246,0.2193,-2.45,1.0587,-15.9337,2.389518846273461,-8.271441133500536,27.769058533220747,15.723291356785557
-0.1438,0.9762,0.0368,-0.3679,0.2242,0.2233,-2.2925,1.4,-16.1788,2.387956461715572,-8.323969872735582,27.88465434749761,15.724531824999488
-0.1431,0.9793,0.044,-0.3679,0.2242,0.2233,-2.6863,1.05,-15.995,2.440762187437685,-8.315259962409192,27.911067476224318,15.725739733134764
-0.1444,0.9779,0.0435,-0.3678,0.2246,0.213,-3.0013,0.665,-15.5662,2.485081744649017,-8.338585096061793,27.612793849354784,15.72696816827615
-0.1443,0.9783,0.04,-0.3686,0.2238,0.2188,-3.4738,1.26,-15.4962,2.4070443265442742,-8.35078478454969,27.62355963040993,15.728224916529408
-0.1452,0.9786,0.0416,-0.3686,0.2238,0.2188,-2.4763,1.4088,-16.0562,2.4113857952600646,-8.390011264568875,27.63314919751126,15.72949405176911
-0.1423,0.9798,0.0383,-0.3679,0.2238,0.2194,-4.27,0.9887,-16.415,2.296451327930511,-8.315275662072642,27.67193740499186,15.730710453837949
-0.1473,0.977,0.0372,-0.3679,0.2238,0.2194,-2.0213,1.19,-16.3362,2.2722115083170165,-8.453454562983739,27.679141582155914,15.73192862547628
-0.1425,0.9787,0.0408,-0.3647,0.2246,0.219,-1.9775,1.26,-16.3887,2.2992913487698314,-8.355015138967575,27.706511656624635,15.733131932730878
-0.1438,0.9774,0.0408,-0.3654,0.2248,0.2187,-2.4063,1.3125,-16.0037,2.3090907785384585,-8.358475521462124,27.72872723452201,15.734329931277
-0.143,0.9776,0.042,-0.3654,0.2248,0.2187,-2.59,1.1812,-16.1087,2.344311873426157,-8.336657675658342,27.73177670816614,15.735547395087535
-0.145,0.9771,0.0415,-0.3663,0.225,0.219,-2.7388,1.4088,-16.0125,2.371667855566906,-8.382158136389826,27.74825490649604,15.736764858898068
-0.1432,0.9774,0.0417,-0.3663,0.225,0.219,-2.6863,1.3212,-15.61,2.392070358557455,-8.36440376533949,27.759559350552696,15.737968166152667
-0.1447,0.9781,0.0362,-0.3665,0.2254,0.2169,-2.73,1.3212,-15.5925,2.308243354572145,-8.378780230059725,27.753558408098883,15.739180675168623
-0.1414,0.9801,0.0402,-0.366,0.2232,0.2192,-2.485,1.3125,-15.6538,2.3149736498136186,-8.317962600526922,27.78195473977025,15.740398846806954
-0.144,0.9778,0.0384,-0.366,0.2232,0.2192,-2.3538,1.4875,-16.2838,2.3107632505705737,-8.346595976745132,27.831130670903967,15.741604631458841
-0.1443,0.9765,0.046,-0.3672,0.2246,0.2198,-2.1613,1.26,-15.8112,2.353493484309331,-8.36697838201333,27.821551775783377,15.742805815230048
-0.1456,0.9769,0.0394,-0.3672,0.2246,0.2198,-1.9687,1.4,-16.17,2.3429246155482644,-8.41976466633348,27.838726499172193,15.74403743559652
-0.1444,0.9783,0.0412,-0.3668,0.224,0.2137,-2.0475,1.4612,-16.0562,2.3561202259699847,-8.40497556292875,27.692276880341925,15.74525773071824
-0.1457,0.9781,0.0318,-0.3659,0.2258,0.2176,-2.0738,1.2512,-15.9512,2.269755711460745,-8.433554047777177,27.714492593771386,15.746457144919956
-0.1416,0.9793,0.0418,-0.3659,0.2258,0.2176,-2.1438,1.785,-16.3887,2.2914186603069395,-8.314486363675256,27.70949824881473,15.747686641803035
-0.1438,0.977,0.0455,-0.3669,0.2243,0.2192,-2.1438,1.1812,-15.8812,2.338010923401886,-8.335802926358896,27.709426746663908,15.748905521269164
-0.1425,0.9766,0.0419,-0.3669,0.2243,0.2192,-2.3187,1.2075,-16.03,2.3418050436656896,-8.316038798908933,27.71521444555533,15.75010918243766
-0.1446,0.9772,0.0382,-0.368,0.2253,0.2143,-2.2575,1.5925,-16.1262,2.3389771371005117,-8.363448343860632,27.582085127993498,15.75130753489768
-0.1455,0.9787,0.0434,-0.3661,0.2245,0.2188,-2.345,0.9538,-16.3013,2.3501831764921333,-8.409045857948641,27.610653343190773,15.752529245674996
-0.1451,0.9761,0.0371,-0.3661,0.2245,0.2188,-2.3975,1.1112,-16.2575,2.3327326114785323,-8.430384385796623,27.623780512063824,15.753726182479422
-0.1409,0.977,0.0401,-0.3663,0.2258,0.2193,-2.73,1.3125,-16.3537,2.3381459809139407,-8.303229380420184,27.66433152505342,15.754925596681138
-0.1446,0.9776,0.0417,-0.3663,0.2258,0.2193,-2.45,1.4612,-15.9512,2.352873207230788,-8.349804234569968,27.704619489854878,15.756138459610993
-0.1441,0.9775,0.0469,-0.3673,0.2234,0.2176,-2.59,1.435,-15.9425,2.444810682924256,-8.361786553087919,27.65389625520672,15.757353446024238
-0.1432,0.9784,0.0465,-0.3673,0.2234,0.2194,-1.9162,1.2425,-16.5025,2.5193320499212657,-8.336144514954237,27.657651707385785,15.758553921967648
-0.1471,0.9787,0.0419,-0.3687,0.2242,0.2194,-2.5463,1.33,-16.5375,2.5052968675420884,-8.455424611711438,27.663806527309823,15.759761830102926
-0.1426,0.9787,0.0376,-0.3706,0.2236,0.2193,-2.6163,0.9887,-16.0125,2.4294706209644685,-8.374804907317687,27.676523473246604,15.761179255266063
-0.1438,0.9789,0.0414,-0.3706,0.2236,0.2193,-2.31,1.0587,-16.1525,2.429286863924034,-8.36203770689558,27.672818913437577,15.762445559194578
-0.1446,0.977,0.0418,-0.3678,0.2244,0.2154,-2.4237,1.26,-15.8987,2.431780831419312,-8.383509487942753,27.63917389980152,15.763662669091213
-0.1455,0.9796,0.0399,-0.3678,0.2244,0.2154,-2.4763,0.9625,-15.3125,2.4158730185610993,-8.392609529780803,27.59669177417734,15.7648684537431
-0.1421,0.9756,0.0418,-0.3662,0.2226,0.2177,-2.275,1.1112,-15.4875,2.416269167014999,-8.36261875817726,27.60183578749373,15.766070699256003
-0.146,0.9778,0.0375,-0.3671,0.2233,0.2173,-2.59,0.875,-15.925,2.3649459376818225,-8.41750270128949,27.62393220055895,15.767274714338397
-0.1447,0.9787,0.0367,-0.3671,0.2233,0.2173,-2.0825,1.0412,-16.2138,2.328228110083078,-8.410668682246301,27.635869910178105,15.768472358970621
-0.1446,0.9767,0.0403,-0.3666,0.2245,0.2188,-1.8463,1.33,-16.4675,2.338770188105836,-8.41279718929625,27.663010867861026,15.76967106534454
-0.1452,0.9773,0.0404,-0.3666,0.2245,0.2188,-2.5463,1.1112,-16.1875,2.34464093291562,-8.428685367374207,27.669003722052413,15.770870479546256
-0.145,0.9756,0.043,-0.3686,0.2244,0.2184,-2.0388,1.1112,-15.9162,2.3800949721258826,-8.436196014789708,27.665008199327552,15.772073786800853
-0.1419,0.9767,0.0386,-0.3693,0.2258,0.2199,-2.0825,0.945,-15.995,2.36035489289507,-8.354300721055008,27.695579796999695,15.773276032313754
-0.1431,0.9795,0.0424,-0.3693,0.2258,0.2199,-2.2225,1.1638,-15.5662,2.3673838931172333,-8.338980143532034,27.69589866737113,15.774474030859876
-0.1476,0.9766,0.0389,-0.3656,0.2233,0.2183,-2.4938,0.9975,-15.6625,2.352503378696984,-8.425807874000542,27.71595965808129,15.77569184858431
-0.1468,0.9792,0.044,-0.3656,0.2233,0.2183,-2.3538,1.085,-16.1175,2.366555133569685,-8.471560604418137,27.71580931354927,15.776893740183313
-0.1453,0.978,0.0389,-0.3659,0.2255,0.2147,-2.3363,1.155,-15.7412,2.3622760163445014,-8.461049083698772,27.715466252273202,15.77809280047113
-0.1452,0.9778,0.0417,-0.3666,0.2254,0.2176,-2.5113,1.225,-15.4175,2.3769520277825023,-8.45606396101671,27.709534990529594,15.779292214672846
-0.1409,0.9761,0.0354,-0.3666,0.2254,0.2176,-2.8875,1.4787,-15.5662,2.264265614701667,-8.380455461805623,27.743691926105278,15.780491628874561
-0.1426,0.9772,0.0441,-0.3661,0.2248,0.2181,-1.82,1.4437,-15.575,2.3658349162298373,-8.353703355994933,27.728636349487733,15.78169245873187
-0.1434,0.9778,0.0386,-0.3661,0.2248,0.2181,-2.17,1.4612,-15.4875,2.3549293593175533,-8.349238459732383,27.752080556277285,15.782907445145115
-0.1443,0.9774,0.04,-0.367,0.2253,0.2164,-2.0388,1.0325,-16.2313,2.352669623199756,-8.371350945776287,27.72762508770963,15.78410933674412
-0.1448,0.9784,0.0397,-0.3655,0.2249,0.2176,-2.135,0.9625,-16.24,2.348860997938891,-8.392588056917036,27.733017956865993,15.785312643998719
-0.145,0.9778,0.0432,-0.3655,0.2249,0.2176,-2.4325,1.4612,-15.995,2.3720163762565214,-8.408555656504415,27.714996790610225,15.786518428650606
-0.1413,0.9785,0.0426,-0.3672,0.2238,0.2197,-2.345,1.855,-16.0562,2.3787831920115896,-8.312550108244306,27.777358919438665,15.787719258507915
-0.1446,0.9775,0.0451,-0.3672,0.2238,0.2197,-2.4938,1.2687,-16.1087,2.4240658564132462,-8.35877805879455,27.775246959752774,15.788919734451325
-0.145,0.9759,0.04,-0.3682,0.2255,0.2166,-2.8612,0.875,-16.1,2.3959563809185473,-8.400938043673229,27.707502662176793,15.790114193858463
-0.1476,0.9792,0.0397,-0.3676,0.225,0.2198,-2.1263,0.91,-15.6538,2.385746769627165,-8.45760612116062,27.73667488740099,15.791315023715772
-0.1439,0.976,0.0412,-0.3676,0.225,0.2198,-2.3275,1.33,-15.6275,2.387009271617752,-8.4316365262482,27.75266160592076,15.792567525002248
-0.1424,0.9789,0.0445,-0.3718,0.2252,0.2182,-2.905,1.365,-15.7325,2.4695505055011764,-8.369992706838334,27.681765317231676,15.793923015233164
-0.1437,0.9765,0.0412,-0.3718,0.2252,0.2182,-2.9225,1.3912,-15.645,2.4487014029268566,-8.367988442098653,27.631621870516827,15.795603398422818
-0.1454,0.9766,0.0431,-0.3673,0.2249,0.2166,-1.75,1.3037,-16.135,2.476006057743124,-8.414243106407351,27.605763790701538,15.79683714227268
-0.144,0.977,0.0405,-0.3673,0.2235,0.2188,-2.345,0.9538,-15.9425,2.4702797622083543,-8.397669688168833,27.636578405010656,15.798062746102877
-0.1447,0.9778,0.037,-0.3666,0.2235,0.2188,-2.3013,1.575,-16.0825,2.465616023426598,-8.404627132522686,27.722532404168906,15.799273839463241
-0.1429,0.9782,0.0372,-0.3632,0.2246,0.219,-2.73,1.3737,-16.52,2.3770909085892398,-8.346809062861196,27.799911582439726,15.80054155904735
-0.145,0.9785,0.0432,-0.3632,0.2246,0.219,-2.5988,1.1725,-15.8812,2.4130572623674102,-8.378726422397653,27.802789433910874,15.801769286360937
-0.1449,0.9772,0.0417,-0.3662,0.2242,0.2113,-2.7825,1.6887,-16.0475,2.4231607526600945,-8.401800184142004,27.50612756400582,15.80297577884062
-0.1449,0.9778,0.0437,-0.3662,0.2242,0.2113,-2.8963,1.3912,-15.9425,2.474648768028627,-8.410437582925686,27.388907618674907,15.80417908609522
-0.1438,0.9761,0.0422,-0.369,0.2258,0.2175,-2.7213,1.2075,-16.1,2.4749199947942957,-8.3919075834709,27.392781455941748,15.80538840988609
-0.1447,0.9781,0.04,-0.3671,0.2248,0.2192,-2.5288,1.3912,-16.0037,2.4488934363776567,-8.399598755173605,27.478564013638728,15.806618614596967
-0.1443,0.9783,0.0375,-0.3671,0.2248,0.2192,-2.1525,1.4088,-16.0825,2.419074576313219,-8.392267260921455,27.56750276436453,15.80784988104954
-0.1436,0.9781,0.0395,-0.3651,0.2254,0.2182,-2.1875,1.505,-16.3013,2.409555494904253,-8.367012278980951,27.6444749708931,15.809585828721247
-0.1444,0.9765,0.0411,-0.3651,0.2254,0.2182,-2.625,1.2425,-16.1963,2.409694699162516,-8.386298854976125,27.657501662502202,15.810866289205698
-0.1431,0.9784,0.044,-0.366,0.2246,0.221,-2.6425,1.1725,-16.3362,2.453150133223847,-8.346032197848094,27.664009116434126,15.812089769552506
-0.1432,0.9775,0.0415,-0.3658,0.2247,0.2194,-2.1613,1.5662,-16.2225,2.4507049892298056,-8.336043890160985,27.736351212870257,15.813303340310156
-0.1447,0.9777,0.0433,-0.3658,0.2247,0.2194,-2.5113,1.4875,-16.4412,2.466376507107481,-8.378370245551956,27.763409267483503,15.814526466743066
-0.1438,0.9773,0.0393,-0.3674,0.2249,0.2181,-2.5025,1.3562,-15.995,2.4372267926764035,-8.371587280121537,27.756905382742627,15.815728712255968
-0.1421,0.9791,0.039,-0.3674,0.2249,0.2181,-2.9138,1.3037,-16.275,2.3769662185730644,-8.307341719752294,27.756812157521352,15.816942636927518
-0.1452,0.9767,0.0425,-0.3674,0.2252,0.2146,-2.94,1.54,-16.3187,2.4223022543180566,-8.383844317658024,27.606341809015433,15.818161516393646
-0.1452,0.9783,0.0372,-0.3665,0.2229,0.2186,-2.9575,1.05,-16.1788,2.3239813228329984,-8.410713326679433,27.634745192375433,15.819384288912657
-0.1426,0.9771,0.0393,-0.3665,0.2229,0.2186,-1.995,0.6212,-16.275,2.3193135952472197,-8.34972425492345,27.71738875070177,15.820585118769966
-0.1446,0.9759,0.0434,-0.369,0.2234,0.2182,-2.4413,0.805,-15.8987,2.3498894219801083,-8.380368937703246,27.669622383113964,15.82180045909711
-0.144,0.978,0.0388,-0.369,0.2234,0.2182,-2.2925,0.9887,-15.7587,2.3493610873114585,-8.37616398566262,27.67052516471402,15.82311878836869
-0.145,0.9781,0.045,-0.366,0.2252,0.2187,-2.2575,1.2163,-16.3537,2.3571673543915437,-8.402362078273628,27.67200962561969,15.824372705310761
-0.1431,0.9764,0.0415,-0.3674,0.2241,0.2206,-1.82,0.9713,-16.7038,2.3815095210150323,-8.358334626730866,27.71615025197792,15.825599370882655
-0.1465,0.9784,0.0376,-0.3674,0.2241,0.2206,-1.8725,1.155,-16.8175,2.3286740774158003,-8.453446147802715,27.716522235346073,15.826827452110141
-0.1437,0.9766,0.0394,-0.3671,0.2246,0.2194,-2.1088,1.54,-16.3887,2.3259111709172346,-8.403484260455876,27.764510688840716,15.828033590675927
-0.1412,0.9798,0.0401,-0.3671,0.2246,0.2194,-2.3975,0.9887,-16.1175,2.3276922535421245,-8.299070083374911,27.784280946398557,15.829247515347477
-0.1436,0.9781,0.0398,-0.3662,0.2242,0.22,-2.6075,1.05,-15.6887,2.3282893822472017,-8.315753216894782,27.805364370029864,15.830464271330214
-0.1443,0.9786,0.0401,-0.3665,0.2242,0.2228,-2.8,1.1112,-15.9512,2.334471339327797,-8.34533741434953,27.825158156371312,15.83166828641261
-0.1432,0.9759,0.0437,-0.3665,0.2242,0.2228,-2.2225,1.5575,-15.5312,2.3481079326131615,-8.343672456786932,27.930253176641816,15.83286876235602
-0.1449,0.978,0.0437,-0.3651,0.2238,0.218,-2.5813,1.2425,-15.9512,2.3961007436127892,-8.377869941116767,27.913741726423012,15.834080917458078
-0.1438,0.9767,0.0416,-0.3651,0.2238,0.218,-2.4675,1.2337,-16.0737,2.4026838904092824,-8.373084313820364,27.90503340474475,15.835286348196066
0.245,0.9151,0.1658,-0.2442,0.1035,0.1112,0.9887,-0.945,-17.0975,8.429103255971308,6.973426415258122,25.20147764229686,15.837208100664439
0.2446,0.9216,0.1627,-0.247,0.1012,0.1111,0.5688,-1.0937,-16.8787,9.601247740330864,11.859384085689124,24.18130416213479,15.838400082674287
0.2442,0.9252,0.1624,-0.247,0.1012,0.1111,-0.3588,-1.1025,-16.7388,9.83458828175915,13.534004548544797,23.867521436821978,15.839707440615019
0.2441,0.9268,0.1566,-0.244,0.1018,0.1141,-0.28,-1.435,-17.0012,9.671772151974803,14.201829300961393,24.587535713634207,15.840911455697412
0.2443,0.9271,0.1602,-0.2438,0.102,0.1142,-0.6737,-0.9713,-16.45,9.753204850763485,14.403620448173514,24.741258297902856,15.842124672541166
0.2456,0.9212,0.161,-0.2438,0.102,0.1142,-1.6187,-1.0587,-16.2838,9.817369710866005,14.570762713815197,24.794139185338395,15.843371865119167
0.2483,0.9234,0.1597,-0.245,0.103,0.1118,-2.3013,-0.9538,-16.0912,9.817288933650802,14.703126899723289,24.399460914600763,15.844622596836151
0.2505,0.9226,0.164,-0.245,0.103,0.1118,-2.4237,-0.4288,-15.645,9.849093474258103,14.793118327653909,24.236965610337602,15.845845015441265
0.2528,0.916,0.1647,-0.2448,0.1013,0.1141,-3.0188,-0.2888,-14.7262,9.994596602140046,14.9083626624548,24.53350941281425,15.847067787960274
0.2484,0.9106,0.1602,-0.2448,0.1022,0.1117,-3.01,-0.175,-14.525,9.987551771921323,14.957063390248532,24.349373786294862,15.848276757837247
0.245,0.907,0.1637,-0.2467,0.1022,0.1117,-2.24,-0.4112,-14.84,9.998182063699147,14.941348671425304,24.050822086656133,15.84947227898608
0.2467,0.9074,0.1588,-0.2488,0.1013,0.1107,-1.4612,-0.0613,-15.505,9.965812463755531,14.955350535959637,23.805562771389422,15.850684434088137
0.2525,0.9113,0.1601,-0.2488,0.1013,0.1107,-0.5775,0.14,-15.6975,9.964805677305701,15.067626799181083,23.738897594794206,15.85188030915087
0.253,0.9137,0.1545,-0.2481,0.1,0.111,-0.4288,0.0963,-16.3625,9.726077555114777,15.179919128344169,23.866639431708336,15.853066274624444
0.2562,0.9169,0.156,-0.2481,0.1,0.111,-0.0263,0.84,-16.3712,9.677332712572118,15.302420287127665,23.899468403734453,15.854380710843143
0.2547,0.9149,0.1528,-0.2442,0.1026,0.1138,-0.385,2.5725,-16.38,9.549088995823771,15.331277211988931,24.59181591643085,15.855645953029963
0.2535,0.9154,0.1565,-0.2452,0.1014,0.1114,-0.4025,3.2025,-16.765,9.648762884552793,15.291940573388526,24.400496460438575,15.85684288983439
0.2567,0.9189,0.1574,-0.2452,0.1014,0.1114,-0.6737,4.025,-16.2925,9.692704281865604,15.347238068601275,24.356173686163032,15.85804124229441
0.2563,0.922,0.1559,-0.2447,0.102,0.1104,-1.6187,5.075,-16.0912,9.654533346012265,15.337727725063761,24.217455935536638,15.859238886926633
0.2508,0.9238,0.1593,-0.2447,0.102,0.1104,-2.0125,6.4837,-16.03,9.682282523218294,15.166988512356173,24.02267619964574,15.86043830112835
0.2515,0.9206,0.1655,-0.247,0.1014,0.1015,-2.9575,6.9038,-15.0062,9.886884824172286,15.154424466376298,21.88248080403063,15.8616295753104
0.2506,0.924,0.1618,-0.2474,0.1005,0.1137,-3.9813,7.6038,-14.8137,9.91542831812425,15.107438003963317,24.08654123041152,15.862828281684319
0.2483,0.9281,0.1738,-0.2474,0.1005,0.1137,-4.48,8.12,-15.085,10.390230925053586,15.092599619163499,24.068061254175824,15.864020971521965
0.2394,0.9083,0.1741,-0.2467,0.101,0.1104,-4.7512,8.4962,-15.5137,10.717801664245519,14.930715921316668,23.291265288403693,15.86520516742605
0.2347,0.9087,0.1731,-0.2467,0.101,0.1104,-5.46,8.9862,-16.1087,10.769029021486872,14.586737373098613,23.148241926215714,15.866399980747085
0.2328,0.9151,0.1814,-0.2439,0.103,0.1088,-4.6375,8.7412,-17.0187,11.08010120498378,14.210433510001991,22.76901213727572,15.878514453489698
0.232,0.9208,0.1774,-0.2439,0.103,0.1088,-4.69,8.365,-17.8412,10.956372822295203,13.980808758906667,22.81951440639341,15.890735454315733
0.2329,0.9197,0.1808,-0.2443,0.1026,0.1092,-5.1975,8.2075,-17.6312,11.079448804766058,13.96178363820064,22.809594996809665,15.903235339293715
0.2283,0.9193,0.1859,-0.2424,0.101,0.1093,-5.4513,8.4437,-17.6575,11.347468203604274,13.760191043686083,22.822616652386593,15.912324202118812
0.2188,0.9226,0.1914,-0.2424,0.101,0.1093,-5.7925,7.91,-17.8325,11.63747205731901,13.258451800893928,22.55131329555397,15.924392666054633
0.2116,0.9196,0.192,-0.2453,0.1018,0.1102,-5.8625,7.875,-17.535,11.759149051730677,12.859334352455848,22.31898620077847,15.93661083556948
0.2078,0.9162,0.1973,-0.2453,0.1018,0.1102,-6.4837,7.28,-17.9988,12.077090831703478,12.593960886406919,22.09929218176113,15.948604269758837
0.1971,0.9103,0.1957,-0.2458,0.1016,0.1134,-6.3438,6.3963,-17.9463,12.121952938403567,12.120226766740874,22.525796305662613,15.960756965202478
0.1871,0.9088,0.202,-0.2427,0.1024,0.1111,-6.055,4.7863,-17.2812,12.445611326121538,11.603310796398059,22.10923256646954,15.972843832661015
0.186,0.9087,0.2015,-0.2427,0.1024,0.1111,-5.8362,4.0338,-16.1963,12.490207622916662,11.446931491518383,22.021364049564863,15.982045240105807
0.1928,0.9167,0.2011,-0.244,0.1029,0.1126,-5.6613,2.8,-15.1725,12.399936191062281,11.45409074328924,22.222827804288666,15.994077958737886
0.1953,0.9184,0.2086,-0.244,0.1029,0.1126,-5.565,2.0475,-14.6562,12.70399549295184,11.537653125453064,22.200424484930757,16.006145007018112
0.2015,0.9181,0.2037,-0.2436,0.105,0.1126,-5.6087,1.1638,-14.5775,12.55460110833513,11.734643491084483,22.20231173798382,16.018278237197343
0.2071,0.9224,0.2022,-0.2436,0.1014,0.1163,-5.7663,0.665,-14.385,12.406755412985536,12.00512214097485,22.626484589094527,16.030341038510787
0.205,0.9125,0.2006,-0.2437,0.1014,0.1163,-5.88,-0.4638,-14.595,12.400245664209242,12.133666005791833,23.14807220398048,16.042477807829002
0.2101,0.908,0.2014,-0.2446,0.102,0.1134,-5.5825,-0.6125,-14.9713,12.48145629963252,12.21359700692873,22.900314572711654,16.05166151957887
0.2122,0.9138,0.2048,-0.2446,0.102,0.1134,-4.9437,-0.9013,-14.91,12.591087252804023,12.312075774301254,22.773830378031306,16.06382589418116
0.2201,0.9119,0.2066,-0.2438,0.1016,0.1209,-5.25,-1.3125,-14.875,12.721448822042053,12.499665583711524,24.07463242659566,16.075936119956992
0.223,0.9173,0.2074,-0.2438,0.1016,0.1209,-5.3113,-1.4962,-14.49,12.735592295671717,12.82627460389205,24.487941021026852,16.088061917944355
0.2288,0.9152,0.2042,-0.2454,0.1038,0.1195,-5.1013,-1.9775,-14.0525,12.619191900722145,13.285024682363439,24.347584433001973,16.10015621759476
0.2291,0.913,0.2104,-0.2452,0.1038,0.1155,-5.1975,-2.5463,-14.2975,12.885679796564736,13.49142622517959,23.46117134445867,16.11230501998552
0.2356,0.911,0.2058,-0.2452,0.1038,0.1155,-5.2762,-2.625,-15.0587,12.7688330428861,13.533630092611082,23.470845063445207,16.1244492214956
0.2324,0.8996,0.2031,-0.247,0.1004,0.1171,-4.6463,-3.0188,-15.9687,12.736080066594866,13.812600219912397,23.701444160075123,16.136530072417862
0.2373,0.8974,0.2044,-0.247,0.1004,0.1171,-2.9925,-2.9925,-17.0187,12.77551496125729,14.234568924212624,23.786727026990356,16.145875876733207
0.2427,0.9019,0.1976,-0.2461,0.1012,0.1127,-2.52,-3.2462,-17.8062,12.696225111179576,14.593759162378674,23.273689363984047,16.157916027557153
0.2452,0.9095,0.1961,-0.2477,0.1022,0.1157,-1.6013,-2.6338,-18.165,12.48137661768256,14.721970126754853,23.66972872994294,16.17002943855807
0.2409,0.9019,0.1929,-0.2477,0.1022,0.1157,-0.7962,-2.7475,-18.0862,12.236818932790746,14.65946581490469,23.755078287048534,16.182357321381424
0.2393,0.9027,0.1874,-0.2437,0.1025,0.1164,-0.595,-2.1263,-17.8237,11.91709308601827,14.580021050270492,24.296914088784334,16.194289528466356
0.2383,0.9083,0.185,-0.2437,0.1025,0.1164,-0.3063,-1.4612,-16.8437,11.648213426329438,14.477241972981634,24.45567989264973,16.20638595160015
0.2428,0.9142,0.1809,-0.2467,0.1037,0.1182,-0.2187,-1.3475,-15.47,11.341407420972152,14.509399665358087,24.7076389932849,16.218510687845818
0.2439,0.9157,0.1723,-0.2458,0.1007,0.1147,-0.035,-0.5688,-14.5162,10.867055363026141,14.569737211839088,24.518697291353252,16.2278034050764
0.2464,0.9137,0.1732,-0.2458,0.1007,0.1147,-0.5775,-0.2538,-13.4925,10.782862546560867,14.73725733317068,24.467326060842424,16.23991186128274
0.2556,0.9147,0.1735,-0.2478,0.0998,0.1147,-0.8663,-0.28,-13.23,10.757864365747153,15.139607714256138,24.43285454372649,16.251976786079577
0.2549,0.9187,0.1698,-0.2478,0.0998,0.1147,-0.6825,0.42,-12.6262,10.581566952019301,15.22626782117087,24.45906187097209,16.264068254418792
0.26,0.9196,0.1744,-0.2464,0.1035,0.1054,-1.1287,1.4262,-12.2675,10.66573460897859,15.44702827290173,24.008075832058307,16.27623333684888
0.2558,0.9196,0.1642,-0.2469,0.1007,0.1203,-1.4875,2.5113,-12.2237,10.42518354379368,15.34815725708338,25.164691199034642,16.288297553817916
0.2564,0.9197,0.1651,-0.2469,0.1007,0.1203,-1.6538,3.3338,-12.6262,10.32910703547037,15.345401648739758,25.740627840514964,16.29760371977664
0.2535,0.921,0.1584,-0.2454,0.1025,0.1144,-1.435,3.8063,-13.5537,10.066894700743932,15.24241650505427,25.14108543264618,16.309648471481264
0.2572,0.9246,0.1589,-0.2454,0.1025,0.1144,-2.3187,3.5175,-13.545,10.056812760545002,15.29682992289274,25.02098754184294,16.321652523087575
0.2621,0.9281,0.1508,-0.2478,0.1018,0.1147,-2.8525,4.5062,-13.895,9.757306444310522,15.450760022758512,25.086393192403897,16.333652681641
0.2605,0.9371,0.1478,-0.2478,0.1018,0.1147,-3.675,5.4513,-13.8775,9.295378320399843,15.397282134583246,25.13304561398541,16.34574556563581
0.2677,0.9396,0.153,-0.2501,0.1005,0.1183,-5.0662,6.2825,-14.0612,9.26097309829449,15.556627391834498,25.633446182536524,16.357768728592635
0.2688,0.9455,0.146,-0.252,0.1018,0.1139,-6.7638,7.6475,-13.58,8.866192622599185,15.639719104782044,24.848568162785142,16.366976506487596
0.2683,0.9466,0.1473,-0.252,0.1018,0.1139,-8.12,9.2225,-13.055,8.84796013753769,15.643750481154465,24.70244545527981,16.379045678251213
0.2697,0.9421,0.1502,-0.2506,0.1011,0.1153,-9.345,10.43,-12.5212,9.032367308683073,15.746441181339149,25.065064956358626,16.391178554516543
0.2669,0.9396,0.1494,-0.2506,0.1011,0.1153,-10.8238,11.725,-11.9525,9.034380880024402,15.688738495713478,25.074713309227743,16.40340309448156
0.2631,0.9334,0.1532,-0.2492,0.103,0.1218,-11.7862,13.2125,-11.1387,9.293627717009766,15.572991441190283,26.39555721971166,16.41552075244926
0.2584,0.9316,0.149,-0.2506,0.1027,0.1175,-12.9412,13.9562,-9.7125,9.104653574348132,15.357057987219,25.490077317013473,16.427668139184426
0.2552,0.9456,0.1532,-0.2506,0.1027,0.1175,-14.6912,15.19,-8.0412,9.195412868866857,14.971927755179083,25.254715351884194,16.439808093727727
0.2483,0.9462,0.1566,-0.2522,0.1024,0.118,-14.8312,16.7038,-6.3787,9.38258212842337,14.561844270511205,24.99594583137073,16.451898854239147
0.2442,0.9415,0.1604,-0.2522,0.1024,0.118,-16.1788,18.1037,-5.0838,9.649255025476258,14.362476883729112,24.82099019825721,16.461146978318528
0.2377,0.9426,0.1626,-0.2543,0.101,0.12,-18.1125,19.3113,-3.6488,9.779088804416853,13.988185346084784,24.886074484145944,16.473274191961483
0.2397,0.939,0.1694,-0.255,0.1015,0.1238,-19.8275,19.075,-2.0038,10.20230511644861,14.093766902306083,25.4700379432074,16.485391849929183
0.2391,0.9328,0.1794,-0.255,0.1015,0.1238,-22.5487,19.4862,-1.96,10.854263536455585,14.126076619311695,25.24933810852279,16.49754065231994
0.2477,0.9276,0.182,-0.2575,0.1017,0.1266,-23.3887,19.39,-1.5662,11.089570219406218,14.645203917236497,25.660248344787355,16.509655125062555
0.25,0.9255,0.1932,-0.2575,0.1017,0.1266,-24.8325,20.055,-1.7325,11.761477884635232,14.799851967836,25.446630437885148,16.521781984791613
0.2583,0.9182,0.2011,-0.2587,0.101,0.127,-24.9813,20.4925,-1.3212,12.328613159153836,15.327271970495335,25.368195050686086,16.533892210567444
0.2582,0.9156,0.2018,-0.2616,0.1009,0.1343,-25.7687,20.8425,-1.6538,12.42526613352712,15.39227061120719,26.556678945489026,16.543165816447512
0.2627,0.9125,0.2109,-0.2616,0.1009,0.1343,-26.5562,21.035,-1.6013,12.990583232786094,15.649576874872068,26.473905182189412,16.555300108368435
0.2579,0.9059,0.2204,-0.2634,0.0987,0.1336,-26.985,21.3675,-1.9162,13.647455957313642,15.475678496467488,25.869543967083512,16.567354061834422
0.2597,0.9005,0.2245,-0.2634,0.0987,0.1336,-27.0287,21.8312,-1.8288,13.98516141697554,15.62220592835561,25.766889815725115,16.579512773814336
0.2636,0.9015,0.2276,-0.2655,0.1006,0.1404,-27.1863,21.98,-2.0738,14.162151952285035,15.813670343682697,26.881235174103626,16.591656975324415
0.2669,0.9001,0.2385,-0.2673,0.1014,0.1427,-27.9738,22.4525,-2.8875,14.815227621187892,15.98033567857738,26.98206921465963,16.60374667409414
0.265,0.8955,0.2386,-0.2673,0.1014,0.1427,-29.19,23.485,-3.57,14.915733992291845,15.95957521497269,26.94125951912161,16.61592449742457
0.2608,0.8805,0.2488,-0.268,0.1026,0.1445,-30.4762,23.8612,-4.375,15.748969039477904,15.913661029617051,26.82130012094035,16.625131213577838
0.2602,0.875,0.2546,-0.268,0.1026,0.1445,-29.8638,23.7562,-5.4075,16.206882417330906,15.933577499514643,26.635159540277428,16.637364955304214
0.258,0.8684,0.2602,-0.2695,0.1014,0.144,-29.6712,24.4475,-5.39,16.663209344915195,15.89061842688489,26.206116887963002,16.649343879023736
0.2501,0.8621,0.2657,-0.2695,0.1016,0.1554,-29.1725,24.0625,-6.37,17.11263009071665,15.535863819836198,28.07723565233384,16.66206814541331
0.245,0.8507,0.2799,-0.2702,0.1016,0.1554,-28.6737,23.9662,-5.7225,18.172247529734214,15.322750111260522,27.54712109607678,16.673252886344798
0.2403,0.8405,0.2879,-0.2716,0.1016,0.1567,-27.0988,23.135,-5.9675,18.879579722693514,15.153373698134606,27.271250654918312,16.68545265233693
0.2548,0.8532,0.2883,-0.2716,0.1016,0.1567,-25.9525,22.6887,-6.2475,18.678818028472975,15.732318623702632,27.61292476820908,16.69768108535483
0.2596,0.8774,0.2859,-0.2699,0.1036,0.158,-25.795,22.0412,-6.2125,18.073884372143915,15.7141830911294,28.21722385169247,16.709884744399844
0.269,0.8988,0.289,-0.2699,0.1036,0.158,-27.2213,22.0062,-4.8562,17.834275584434028,15.886600024492724,28.417218651890806,16.718527321799044
0.275,0.9085,0.2811,-0.2719,0.1062,0.1614,-28.9538,22.0325,-4.1038,17.215838862785162,16.108235654735676,29.159594671520708,16.73075717047254
0.2769,0.9094,0.2904,-0.2741,0.1065,0.1666,-31.0888,22.9162,-3.9638,17.693338647171565,16.169644194640778,29.737191405188987,16.742970739106706
0.2843,0.896,0.2883,-0.2741,0.1065,0.1666,-33.1888,23.59,-3.8413,17.83179435093401,16.754985090590253,29.97426755176605,16.755697482893574
0.2925,0.8978,0.2926,-0.275,0.1056,0.1706,-35.7262,24.9813,-4.6813,18.044821475975485,17.171089194428053,30.75232040798741,16.76777337902126
0.2954,0.8987,0.2916,-0.275,0.1056,0.1706,-37.8875,25.7162,-5.0225,17.97848629892356,17.344714085329752,30.882439909168777,16.779904485717097
0.2976,0.9002,0.2952,-0.2766,0.1051,0.1792,-40.145,26.6875,-4.9,18.151159728089915,17.430853878405564,32.28411219687115,16.792015419320727
0.2992,0.8938,0.2965,-0.2757,0.1066,0.1814,-42.98,28.7612,-4.7512,18.34739332304308,17.60915433639786,32.81205150176713,16.801381396728278
0.285,0.867,0.3101,-0.2757,0.1066,0.1814,-45.605,33.0225,-4.7425,19.650530333662548,17.23430621405446,32.05464082190859,16.81352135127158
0.2722,0.8459,0.314,-0.2794,0.11,0.1899,-49.8662,33.2762,-4.9525,20.35033243261039,16.827209538124386,32.5718747238426,16.825586983896212
0.2666,0.8441,0.3242,-0.2794,0.11,0.1899,-51.0475,33.8888,-4.2088,20.99739994653601,16.46117190792453,32.11723737652227,16.837706411433402
0.2732,0.8439,0.3381,-0.2766,0.1123,0.1971,-52.7363,34.7112,-3.5088,21.816767378146956,16.705253375263826,33.40330971831688,16.84979787977262
0.2757,0.8494,0.3416,-0.2774,0.1129,0.2016,-53.9437,35.6388,-2.5113,21.90658741173277,16.75525922007261,34.11850631020891,16.86192120036269
0.2794,0.8525,0.3547,-0.2774,0.1129,0.2016,-56.105,36.645,-1.7237,22.57826780448213,16.82997952536092,33.85271043495393,16.87400311302665
0.2686,0.8479,0.3659,-0.2785,0.1157,0.209,-59.4038,38.0887,-0.7788,23.32883167420323,16.25730383718961,34.22548557977174,16.886052465611957
0.2516,0.8309,0.3863,-0.2785,0.1157,0.209,-63.3413,39.2262,0.0438,24.908668419933026,15.409737387057087,32.94603628494291,16.89542941435036
0.2341,0.8099,0.4065,-0.277,0.1189,0.221,-65.3363,39.8037,0.7788,26.62547782870852,14.539502605261148,33.606044005622394,16.90750672613364
0.2249,0.7928,0.4322,-0.2766,0.1208,0.2329,-66.8675,39.235,1.1462,28.56722639060933,14.01817126309287,34.18360609811836,16.919557848288438
0.2189,0.779,0.4464,-0.2766,0.1208,0.2329,-67.9088,38.1237,2.135,29.795814137313755,13.719163697046726,33.29009748823005,16.931558006841865
0.2195,0.7654,0.4728,-0.2761,0.1273,0.2374,-67.8913,36.9687,2.94,31.67564475166097,13.711715491305885,32.406637610232586,16.943623993380395
0.2109,0.751,0.484,-0.2761,0.1273,0.2374,-68.8625,36.3825,4.2,32.784080182941565,13.302746795546293,31.352697470365385,16.952952455914716
0.2013,0.7354,0.4989,-0.277,0.13,0.2502,-70.5513,36.4612,5.1625,34.13344974615959,12.788651069707551,31.888578989745362,16.965009240691888
0.2007,0.7149,0.5148,-0.277,0.13,0.2502,-70.875,34.7988,5.6875,35.734347093539476,12.831897894834507,30.715957384435967,16.977009753159212
0.2044,0.7011,0.5276,-0.2806,0.1342,0.2629,-71.5925,33.3112,7.07,36.94515165362483,13.101069546629551,31.246128098913072,16.98904955006926
0.2128,0.6835,0.5425,-0.2846,0.1374,0.2654,-71.5313,31.2025,7.525,38.41807141577566,13.679210168587447,30.062378281411256,17.00113358621661
0.2398,0.6576,0.5667,-0.2846,0.1374,0.2654,-69.7988,31.0012,6.9038,40.71968809324142,15.365597691714559,29.08144850925116,17.01318895533819
0.2448,0.6509,0.5749,-0.2835,0.1414,0.2752,-69.1775,30.3975,6.44,41.44139513789643,15.725708966311629,30.02457741342955,17.02251812570031
0.2432,0.647,0.5937,-0.2835,0.1414,0.2752,-68.3113,30.4325,5.4075,42.523715206964866,15.491802676079912,28.743691756613657,17.03451014423407
0.2344,0.6269,0.6041,-0.2836,0.147,0.2897,-67.9875,30.3187,5.2063,43.91769915929564,15.088817254896973,28.779734223197092,17.046546755919035
0.2309,0.6116,0.6167,-0.2833,0.1525,0.2933,-66.465,30.1175,5.355,45.217640468021195,14.896899411679563,27.07483783525635,17.05862512944401
0.2356,0.5962,0.6314,-0.2833,0.1525,0.2933,-65.38,29.3913,4.7425,46.62020997496749,15.165622646462849,25.501917175105312,17.070691823810336
0.2467,0.5823,0.6511,-0.2858,0.1559,0.3011,-63.4463,28.2887,4.2962,48.16739690273461,15.741444108827428,24.497219109639467,17.082646681384766
0.2546,0.5754,0.6512,-0.2858,0.1559,0.3011,-62.755,28.6737,3.99,48.530201294506845,16.300456904347833,24.422132184026456,17.092038140593004
0.257,0.5683,0.6677,-0.283,0.1602,0.3126,-61.9062,29.2075,3.6225,49.580259819188726,16.33454003653051,24.673884850111275,17.104082538383732
0.2559,0.5614,0.6708,-0.283,0.1663,0.3199,-60.2962,29.6362,2.835,50.06530036173379,16.308264067942858,24.25285966785956,17.116133306624633
0.2594,0.5514,0.6848,-0.2819,0.1663,0.3199,-60.025,29.7763,1.7937,51.14041110821042,16.43096214583341,22.707833123356867,17.128118954708224
0.256,0.5444,0.6896,-0.2834,0.1706,0.3242,-58.8263,30.8175,1.2425,51.700999591555835,16.255576126907666,21.397062168630256,17.140192019524722
0.2517,0.5258,0.715,-0.2834,0.1706,0.3242,-57.435,31.7012,-0.7263,53.63474484741987,15.860726976642288,17.57348787281131,17.152239602540536
0.2361,0.5142,0.7312,-0.2794,0.1757,0.3342,-56.5862,31.885,-1.5575,54.861465039760766,14.868441461727327,15.602037074492706,17.162577427513124
0.2228,0.4961,0.7475,-0.2794,0.1757,0.3342,-55.9738,32.6287,-1.7413,56.39995243648956,14.010920119857177,12.115929991035149,17.173789419814792
0.2075,0.4915,0.7593,-0.28,0.182,0.337,-54.46,30.905,-2.03,57.071867851529724,12.998004871493036,9.285004912582108,17.18588690469028
0.214,0.4736,0.7663,-0.2783,0.1854,0.3429,-48.7462,29.2512,-4.3225,58.256987491293124,13.332315450473105,7.1872380177412545,17.197662681832114
0.2136,0.4677,0.7895,-0.2783,0.1854,0.3429,-49.3325,28.0788,-3.4825,59.33458404939814,13.121630463967502,4.859097118644168,17.2098497069239
0.2095,0.4563,0.7987,-0.2766,0.1906,0.3485,-47.355,27.055,-4.5675,60.24042790556664,12.8556490606001,2.422434447058463,17.222028238082128
0.21,0.4545,0.8049,-0.2766,0.1906,0.3485,-44.8875,26.4162,-5.8713,60.54098664932448,12.804971148257597,1.725386431562499,17.234177748300684
0.2056,0.4441,0.8122,-0.2757,0.1941,0.3546,-42.8838,25.7337,-7.175,61.311770991522664,12.55400667395016,0.01168864415682838,17.24318414918745
0.2055,0.4409,0.8103,-0.2723,0.1975,0.3585,-40.6525,24.4913,-8.75,61.445053983321806,12.557971187040897,0.6636994336896486,17.255227131322584
0.2064,0.4358,0.8178,-0.2723,0.1975,0.3585,-39.4538,24.29,-10.1325,61.93399815667626,12.556899682545781,1.7971720893559098,17.268064296245754
0.2025,0.4407,0.8258,-0.2709,0.2,0.3622,-38.4562,24.08,-11.1562,61.913322009607285,12.277508163900096,1.9066393453263484,17.280161427207343
0.1964,0.4366,0.829,-0.2709,0.2,0.3622,-37.4412,23.4587,-12.11,62.21742917227327,11.948046307896927,2.5681994114137634,17.292238738990623
0.1831,0.4337,0.8322,-0.2679,0.2071,0.3671,-36.2425,22.8113,-12.285,62.466449449489396,11.276718229071891,4.3114839063429615,17.304438504982755
0.1634,0.4261,0.8342,-0.2686,0.2087,0.3698,-35.5425,22.0937,-11.4712,62.928666247273725,10.191810423109699,5.214998943842731,17.31660394132674
0.1263,0.3913,0.8423,-0.2686,0.2087,0.3698,-33.1012,20.4837,-10.15,65.01455234068183,8.153643304952492,8.902741785889638,17.328786719451745
0.1014,0.3752,0.8398,-0.265,0.2115,0.3731,-31.185,18.0075,-6.5012,65.89570537759198,6.484461873926252,10.594537903358198,17.340842442487222
0.0896,0.3706,0.8489,-0.265,0.2115,0.3731,-27.7287,11.235,-3.7975,66.39594319368605,5.602960613384118,11.249177428707245,17.350225053848
0.0971,0.3837,0.8468,-0.2676,0.2164,0.3766,-27.055,6.825,-1.0325,65.65384270287781,5.938813546617187,10.755363651961627,17.362292809956024
0.1179,0.398,0.8541,-0.2663,0.2179,0.3796,-25.4188,4.1388,1.2512,65.04153397666326,7.063247159662855,10.214896803633032,17.374280227609106
0.1448,0.4139,0.8527,-0.2663,0.2179,0.3796,-24.3075,1.6187,1.0587,64.1486410973317,8.591366832079277,9.74077123363981,17.38626304438151
0.1824,0.4091,0.8628,-0.271,0.2201,0.3824,-23.8612,0.1663,0.4112,64.6104436973509,10.679926213878911,10.268263074203404,17.398249754206798
0.1946,0.4092,0.8608,-0.271,0.2201,0.3824,-23.5025,-1.0412,-1.4262,64.57650546765382,11.481183326133285,10.791986890764775,17.41030229201719
0.2048,0.4,0.8676,-0.2732,0.2214,0.3833,-22.9687,-1.6362,-4.3838,65.2173326499687,12.046600883445706,12.471404972611268,17.41973799046273
0.2087,0.3936,0.8604,-0.2732,0.2232,0.3889,-22.0412,-2.065,-7.14,65.40806774430096,12.395286860114632,13.31142114524716,17.431877591092128
0.223,0.3858,0.8608,-0.2729,0.2232,0.3889,-20.2825,-2.3712,-9.135,65.83494323398709,13.171230350817728,14.873230509585026,17.443917741916078
0.2297,0.3856,0.858,-0.2748,0.2249,0.3912,-19.2675,-1.5312,-10.2287,65.80196892232385,13.628983777326562,15.397460394846908,17.45608140869057
0.2326,0.3762,0.8536,-0.2748,0.2249,0.3912,-18.585,-0.5775,-11.025,66.19194767269578,13.928247212622134,16.350485777363488,17.468254985054216
0.2321,0.3687,0.8581,-0.2759,0.2283,0.3917,-17.9025,0.42,-11.76,66.71476654852063,13.949647616081593,17.51272532262861,17.48039246220023
0.2314,0.3615,0.853,-0.2759,0.2283,0.395,-16.9225,1.1725,-12.2587,67.01250702460958,14.004788808972869,17.549922494209895,17.49245101654689
0.2311,0.3593,0.8575,-0.2754,0.2285,0.395,-15.82,2.1438,-13.1162,67.24845629504027,13.974140401561975,18.857771622394715,17.504485858662363
0.2343,0.358,0.8539,-0.2744,0.2306,0.3949,-14.5687,2.7475,-15.4263,67.25357701523156,14.02638111928603,20.28417129894181,17.513988446834702
0.2361,0.3651,0.8568,-0.2744,0.2306,0.3949,-11.6812,5.0225,-16.4325,66.95222820488792,14.138907366030104,20.34469787846138,17.526079915173916
0.23,0.3694,0.8597,-0.2761,0.2302,0.3924,-10.2725,5.8362,-16.7388,66.77031620655929,13.935757369935825,19.596138057294354,17.538180585274493
0.2207,0.3703,0.8554,-0.2761,0.2302,0.3924,-9.0562,6.615,-16.8,66.61526458200136,13.550835299351391,18.74404993051272,17.550153492457742
0.2131,0.3748,0.8514,-0.2737,0.2311,0.3961,-7.5862,7.0788,-17.8237,66.29967218528719,13.077958626762133,17.647979395720213,17.562208153751524
0.2076,0.372,0.8451,-0.2726,0.2333,0.3967,-6.825,7.175,-19.0662,66.25212063764067,12.753606934840406,17.91423320325476,17.574291835984976
0.1992,0.3795,0.8411,-0.2726,0.2333,0.3967,-4.7075,7.0525,-20.0637,65.87221573087506,12.278153036724841,16.48598989247708,17.583638348128115
0.1953,0.3883,0.8441,-0.2722,0.2315,0.3962,-3.78,7.14,-20.965,65.52748170397486,11.930173607113115,14.821578556077577,17.59564275364832
0.194,0.3946,0.8456,-0.2722,0.2315,0.3962,-3.57,7.21,-21.4375,65.22183313966667,11.769908091115854,13.844663625845655,17.607668394002435
0.194,0.4058,0.8369,-0.2691,0.2298,0.3967,-3.3163,7.5338,-22.9162,64.66868116972341,11.780526257362029,11.563584813496412,17.61975349189148
0.1873,0.4041,0.8352,-0.2696,0.2323,0.3952,-2.6688,7.49,-24.045,64.53349023572093,11.449997562876456,11.949339839057155,17.631800367079496
0.1785,0.4055,0.8425,-0.2696,0.2323,0.3952,-2.8087,8.1287,-24.745,64.45269811507151,10.868605395877191,11.952063727323866,17.643753808998333
0.1319,0.3861,0.8516,-0.2676,0.2336,0.3969,-3.0888,7.9275,-25.1562,64.96875589296958,8.286792998097123,13.443229664174911,17.65310562984995
0.1202,0.3872,0.8464,-0.2676,0.2336,0.3969,-2.1088,6.2388,-25.4625,65.03619609587777,7.440424284957239,12.98256945249132,17.665139410223723
0.1152,0.3908,0.8536,-0.2659,0.234,0.4005,-0.735,4.06,-25.3487,65.25765971997616,7.035359839174887,12.623072406148205,17.677235833357518
0.1158,0.4006,0.8472,-0.2659,0.234,0.3986,-0.0175,2.0213,-24.71,64.86563094165817,7.043363339949912,11.971832367498209,17.688923839852546
0.1232,0.4144,0.8448,-0.2636,0.2354,0.3986,1.05,0.0963,-24.0012,64.10013653692788,7.417157599897668,10.997753535804987,17.70106910310432
0.1363,0.4281,0.8353,-0.2628,0.2334,0.3957,1.365,-2.1263,-23.415,63.1300991940336,8.171407332258086,8.687720866420076,17.709672396060796
0.1421,0.4285,0.8391,-0.2628,0.2334,0.3957,0.5513,-4.97,-23.24,62.99555912402172,8.532267853894485,8.34654044268972,17.72188738035056
0.1479,0.4288,0.8347,-0.2654,0.235,0.3967,0.4462,-5.1887,-22.7237,62.85945975753971,8.907280220158988,8.297990338757307,17.73407369761455
0.1507,0.4267,0.8344,-0.2654,0.235,0.3967,-0.3588,-6.0025,-22.05,62.89632655370817,9.106350319759743,8.570811624594835,17.7467590334753
0.1549,0.426,0.8368,-0.2641,0.2345,0.3902,-0.7875,-6.7463,-21.3325,62.970593384949865,9.33114180356687,9.585497247281525,17.758846608761633
0.159,0.4235,0.8325,-0.2639,0.2337,0.3949,-0.8925,-7.1312,-19.495,63.00934668141614,9.599458500664397,9.120524646121673,17.77104071213139
0.1541,0.4205,0.8284,-0.2639,0.2337,0.3949,0.5163,-7.4988,-17.6837,63.0668863864288,9.469132622407157,9.088114546156264,17.783005833208875
0.1672,0.4138,0.8297,-0.2666,0.2342,0.3954,1.2337,-7.9625,-15.925,63.39870264803782,9.803689682521483,10.239193462232576,17.792383489775073
0.1836,0.4125,0.8257,-0.2666,0.2342,0.3954,1.1112,-8.89,-14.5162,63.441718214309624,10.351788738757087,10.74390846490034,17.804347903024762
0.1931,0.4183,0.8222,-0.2674,0.2334,0.4038,2.1613,-9.205,-13.4137,63.10964031728769,11.280459030511699,8.718819592655834,17.81622914650832
0.2043,0.4207,0.8243,-0.2694,0.2304,0.3962,2.7125,-8.9512,-12.7487,62.98618631777663,12.10288955939323,8.686248716385276,17.828353174926193
0.2121,0.4227,0.8149,-0.2694,0.2304,0.3962,2.555,-8.33,-11.9525,62.652528308301726,12.792329694538644,7.964675664976183,17.840482865966436
0.22,0.423,0.8148,-0.2719,0.2298,0.395,2.7562,-7.35,-11.3662,62.578741433948075,13.33241051621157,7.914744817117066,17.84952111910406
0.2208,0.4211,0.822,-0.2719,0.2298,0.395,2.3975,-6.4488,-11.9437,62.82247693337665,13.418274609894526,8.67048525012591,17.861557376875126
0.2215,0.4176,0.8168,-0.2738,0.2295,0.3942,2.8263,-5.1275,-11.9,62.90487942159615,13.53749166218136,8.855420447305127,17.873683528776386
0.2204,0.4235,0.809,-0.2738,0.2295,0.3942,3.0625,-3.8238,-12.3375,62.45306235419365,13.561118180364602,7.590590681577958,17.885810034591547
0.2226,0.4301,0.8142,-0.2745,0.229,0.395,3.9025,-4.0862,-12.5913,62.19630142000718,13.581852857926478,6.615490657126426,17.89801121623927
0.2223,0.4343,0.8042,-0.2758,0.2275,0.392,3.255,-3.745,-13.4925,61.71589407526348,13.636654515345766,5.223137006757249,17.910029070487617
0.2266,0.4419,0.7998,-0.2758,0.2275,0.392,3.3863,-2.5025,-13.9912,61.17426537670439,13.791341096484851,3.8281600047081135,17.919028039182518
0.2294,0.4446,0.7961,-0.2762,0.2285,0.3922,2.1788,-1.6187,-13.7637,60.88306604833821,13.981718412717795,3.2277299422989203,17.931132602335975
0.2334,0.4427,0.794,-0.2762,0.2285,0.3922,2.2575,-1.1725,-14.5162,60.862404000392544,14.1399641418258,3.1916066369954,17.943278927329445
0.2342,0.4418,0.7945,-0.2768,0.2278,0.3966,0.7613,-0.8312,-14.9187,60.90783541128274,14.19268504844613,2.6389053814261736,17.95536791827137
0.2394,0.4412,0.795,-0.2773,0.2265,0.3903,0.4462,-0.1488,-16.0475,60.95414957646287,14.46054063170748,2.9738144310969865,17.967491946689243
0.2382,0.4441,0.7888,-0.2773,0.2265,0.3903,1.5137,0.1138,-17.2025,60.68976602116814,14.650887868493896,2.5789657237037478,17.97649374669533
0.2298,0.4506,0.7808,-0.2774,0.2273,0.3895,0.945,1.0237,-17.4825,60.171238975784576,14.405068499382732,2.373435760389016,17.988527527069106
0.2247,0.4547,0.7886,-0.2774,0.2273,0.3895,0.1925,1.4437,-17.6925,60.07247353982689,14.017042764760395,2.028062387829325,18.000616518011032
0.2205,0.4511,0.7813,-0.2742,0.2271,0.3892,-0.5338,1.5312,-17.2462,60.0257675752204,13.824966745861163,1.6760399945358107,18.012702677641773
0.215,0.4515,0.7821,-0.2742,0.2271,0.3892,-1.9425,1.4787,-17.1238,60.01982480179506,13.536121462536832,1.4462411296080342,18.024827767801337
0.2142,0.4479,0.7873,-0.2774,0.2257,0.3859,-1.9775,1.225,-17.1937,60.10094670637691,13.380219410368378,1.472075991293194,18.03691746657106
0.2101,0.4516,0.7837,-0.2786,0.2263,0.3906,-2.6688,1.05,-17.3687,60.08619591520315,13.170431221794649,1.3672631187721067,18.045943332722242
0.2123,0.4494,0.7884,-0.2786,0.2263,0.3906,-3.0975,0.7088,-16.94,60.189254284932176,13.168293093089307,1.2785038532716375,18.05803480106146
0.2108,0.4451,0.7968,-0.2762,0.2265,0.3902,-3.85,1.1987,-16.1788,60.5690657560193,13.084706296868335,1.332844889437467,18.070197052180358
0.2192,0.4463,0.793,-0.2762,0.2265,0.3902,-4.2788,0.595,-16.1875,60.6091176756712,13.321111502317759,1.6125553335853762,18.08229843010873
0.2248,0.4514,0.7953,-0.2775,0.227,0.3958,-4.235,0.4812,-16.695,60.48506428753393,13.620188646486874,1.257355193808383,18.094424582009992
0.231,0.4466,0.7963,-0.2776,0.2274,0.3905,-5.0838,0.7962,-16.0037,60.65400247003759,13.890579495604204,1.6234251055956486,18.10345752643914
0.2275,0.4437,0.7943,-0.2776,0.2274,0.3905,-5.1275,1.2163,-15.9337,60.77091381287234,13.956806907733467,1.6984212146050246,18.11549732334919
0.2234,0.4332,0.8037,-0.2769,0.2278,0.3921,-6.1687,1.8025,-14.7087,61.4898650843595,13.89565471291276,3.049870287750021,18.12763019961452
0.223,0.4297,0.8054,-0.2769,0.2278,0.3921,-6.7375,2.5113,-14.3675,61.840303327675805,13.823230222618154,4.636648362641298,18.139758121085272
0.2173,0.4233,0.8084,-0.2754,0.2279,0.3893,-6.1075,2.6863,-14.2625,62.25399146057963,13.624519124603717,6.323289155533067,18.15188285733094
0.222,0.4182,0.8118,-0.2754,0.2279,0.3952,-6.3787,2.7475,-14.385,62.648327969528914,13.641245506943408,7.166036086037297,18.163956629975235
0.2284,0.4226,0.8117,-0.2802,0.2282,0.3952,-5.8888,2.6513,-14.5425,62.52980093320285,13.778579024709684,7.0840393697059625,18.172917729883004
0.23,0.4241,0.8151,-0.2777,0.2289,0.3943,-6.2388,2.7738,-14.1312,62.515472497427595,13.915654582419464,7.375787132008144,18.185573336976287
0.2305,0.4295,0.8227,-0.2777,0.2289,0.3943,-5.67,3.43,-13.965,62.451557423489504,13.933088256146288,7.316482669777196,18.196921232214944
0.2325,0.4232,0.8192,-0.2763,0.2262,0.395,-5.0487,4.0163,-13.6588,62.6185974302431,14.063481729530887,7.1963830276621,18.209036412785352
0.2229,0.416,0.8201,-0.2763,0.2262,0.395,-4.655,4.3663,-13.755,62.959484773425686,13.810130161618183,7.902533847451966,18.22124962750562
0.2178,0.4066,0.8167,-0.2782,0.2299,0.3959,-3.6575,3.9988,-14.3238,63.29134091637358,13.639583905722317,9.542860222331697,18.233524777158113
0.2172,0.4086,0.8195,-0.2762,0.231,0.3938,-2.7562,3.7713,-14.7613,63.357883568913955,13.560411697997992,10.403428127697095,18.24278776562123
0.2206,0.4132,0.8156,-0.2762,0.231,0.3938,-2.4325,3.5263,-15.6363,63.32900020867306,13.561952925677398,10.021876239965167,18.254866139146205
0.2343,0.4331,0.8093,-0.2758,0.2286,0.3917,-1.9512,3.7188,-16.1525,62.95738629564341,13.9455452868091,7.240849801154444,18.266897088208793
0.2314,0.4349,0.8048,-0.2758,0.2286,0.3917,-1.5925,4.4363,-16.7825,62.40740184140115,14.101359432313757,5.865835827670239,18.278982540011736
0.2281,0.4319,0.8054,-0.2766,0.229,0.3961,-2.275,5.075,-17.2987,62.40095513362518,14.041650930044064,5.414183611446065,18.29106091353671
0.2237,0.4266,0.7961,-0.2742,0.2265,0.3925,-2.7475,5.845,-17.7275,62.21578244216983,13.947175716634552,5.220930330137624,18.300268691431675
0.2194,0.4219,0.8015,-0.2742,0.2265,0.3925,-2.8875,6.8075,-17.7362,62.22421193548411,13.707988860015714,6.123042416443011,18.31235555889021
0.214,0.4192,0.8059,-0.2718,0.2296,0.3936,-2.8875,7.3675,-18.9175,62.334659373729004,13.350248059036778,7.60197455200389,18.32437801401924
0.2125,0.4128,0.8083,-0.2718,0.2296,0.3936,-2.5638,7.8575,-18.55,62.467803391410676,13.216476241226749,8.80991108837193,18.336483285000494
0.2125,0.4123,0.8141,-0.2722,0.2294,0.393,-2.1963,7.63,-19.215,62.52296464256572,13.129714751471312,9.397472908135578,18.348569090717334
0.2139,0.4197,0.8106,-0.2722,0.2294,0.393,-2.2138,8.015,-20.1163,62.529906194699066,13.178479984528972,8.281845730498432,18.36066303645384
0.216,0.4282,0.8136,-0.2711,0.2294,0.3922,-2.1613,8.3475,-19.775,62.49806214661186,13.213503717965233,7.367125430256654,18.369818435091837
0.2076,0.4329,0.8144,-0.2685,0.2274,0.3924,-2.1088,9.1437,-19.0662,62.4242291117208,12.79212326470728,6.0107458755189,18.38220011282775
0.1993,0.4293,0.8111,-0.2685,0.2274,0.3924,-2.7913,10.0362,-18.9875,62.31822436467551,12.363736669210432,5.986268141501694,18.393995709147898
0.1868,0.4305,0.8197,-0.2676,0.2293,0.3929,-2.6688,9.4587,-17.9988,62.310931928112275,11.653785229605754,6.6418947832482935,18.406081514864738
0.1794,0.4208,0.8214,-0.2676,0.2293,0.3929,-3.2288,9.485,-17.15,62.58428031301966,11.21636573363179,7.911563988656531,18.41808733604054
0.1724,0.415,0.8303,-0.2662,0.2293,0.3862,-3.5,8.89,-17.3425,63.05532332966784,10.737601044263217,9.957130049288866,18.430091741560748
0.171,0.4102,0.8381,-0.2673,0.2295,0.393,-2.7475,7.8225,-17.1325,63.32881107306192,10.5021560416865,10.376432602629478,18.43877855819725
0.1693,0.4119,0.8341,-0.2673,0.2295,0.393,-1.82,6.7288,-17.4387,63.45267407479245,10.371145001517549,9.986499636794289,18.45104875305516
0.1799,0.4197,0.8304,-0.2633,0.2298,0.3922,-1.155,5.3025,-17.5875,63.31174049414658,10.77786077997538,9.420433597414199,18.46323825554424
0.1786,0.4268,0.8277,-0.2633,0.2298,0.3922,-1.2163,5.1625,-16.9137,63.007137492600556,10.82831422703247,8.328194967555422,18.475347773492274
0.1745,0.4317,0.8267,-0.2639,0.2297,0.3888,-1.6712,4.0687,-17.1238,62.786176265097,10.674709681621628,7.808792893191343,18.48756169604034
0.1764,0.4288,0.827,-0.2639,0.2297,0.3888,-1.5925,3.4475,-17.2112,62.707186386610786,10.70707126595648,8.009115383658804,18.499691387080585
0.1736,0.4238,0.8228,-0.264,0.2297,0.3926,-2.1088,2.9138,-17.1413,62.71337166917665,10.651169797014933,7.949050975161985,18.508476237866947
0.1778,0.4192,0.8269,-0.2623,0.2301,0.391,-3.0013,2.4675,-17.0362,62.88177615643634,10.785970459825645,8.755981642240227,18.520629287224487
0.1785,0.4177,0.835,-0.2623,0.2301,0.391,-2.5638,1.365,-17.6138,62.99975822525637,10.812749236900391,8.996421295234013,18.532802863588135
0.1742,0.4171,0.8288,-0.2615,0.2296,0.3917,-2.4413,0.6825,-17.43,63.03828041486929,10.687691849874302,9.15675075811657,18.54494848075381
0.1731,0.4169,0.8336,-0.2615,0.2296,0.3917,-1.4612,0.0788,-18.4538,63.215049615850674,10.559684740247219,9.493763578732432,18.557320602814464
0.1712,0.4138,0.8363,-0.2618,0.2313,0.395,-1.505,-0.665,-18.9,63.41620107370344,10.431045178053388,10.078360886647621,18.56670852288372
0.1709,0.4097,0.8414,-0.2626,0.2305,0.3913,-1.3212,-0.9625,-18.3838,63.72114504363264,10.368316919896666,11.02721142291953,18.578780525958525
0.1743,0.4125,0.8341,-0.2626,0.2305,0.3913,-0.77,-1.4962,-18.655,63.699688385685405,10.556107020848989,10.82138493609579,18.59088827433707
0.1806,0.4143,0.8389,-0.2653,0.2282,0.3912,-0.1225,-2.065,-18.9175,63.71154757626266,10.848157629080482,10.328001246914997,18.602983281815266
0.1817,0.4125,0.8429,-0.2653,0.2282,0.3912,0.2013,-2.625,-19.6788,63.86286650342036,10.938359732069793,10.62757088362887,18.615048206612105
0.1824,0.4088,0.8459,-0.2646,0.2288,0.3973,0.455,-3.0188,-20.4662,64.11486352319645,10.979352503849041,10.81957566598294,18.627078801760792
0.1795,0.4058,0.8464,-0.2634,0.2264,0.3946,0.5862,-3.2725,-21.0525,64.31520750438872,10.848199801768658,10.922821695189096,18.639119660412536
0.1792,0.4001,0.8517,-0.2634,0.2264,0.3946,1.4088,-3.6837,-21.2975,64.72619720751179,10.791323982505862,11.859163066588232,18.648439982927194
0.1781,0.3888,0.8586,-0.2625,0.2288,0.3898,2.73,-4.1213,-21.7875,65.48605126397528,10.712300423806319,14.725595508636268,18.660527558213527
0.177,0.3791,0.8595,-0.2625,0.2288,0.3898,3.8763,-4.6638,-22.0325,66.09957792592122,10.675836032599044,16.30351353554217,18.67253479504492
0.1737,0.3712,0.8657,-0.2638,0.2288,0.3927,4.83,-5.3812,-22.365,66.70582714312222,10.476082561509708,17.219738521981505,18.684573530213274
0.1774,0.3597,0.8683,-0.2638,0.2288,0.3927,6.86,-5.5125,-23.38,67.41977530337708,10.66595292073995,18.91772282362251,18.69642716841276
0.1787,0.3569,0.8715,-0.2634,0.2275,0.3892,8.89,-5.9412,-24.0187,67.70427503963421,10.736409783322785,19.646825067021442,18.708552966400124
0.1964,0.3628,0.8672,-0.265,0.2249,0.3855,12.25,-6.2125,-25.8388,67.32379263895147,11.710107346462562,19.219009444042996,18.717299594485457
0.2112,0.3841,0.852,-0.265,0.2249,0.3855,18.2525,-6.0988,-26.0662,65.80697357131712,12.648290273342832,16.54316693185808,18.730265584067645
0.2106,0.3945,0.8431,-0.2622,0.2229,0.3835,20.6937,-4.8475,-26.3113,64.96116055966459,12.740269628695637,14.335574809188545,18.742243446045475
0.2087,0.4107,0.8294,-0.2622,0.2229,0.3835,22.6012,-3.5613,-26.3463,63.70683525025165,12.710115581530767,11.231956436256485,18.754398618886402
0.212,0.426,0.8238,-0.2602,0.2214,0.3777,23.2138,-2.7562,-25.55,62.69546323525286,12.861451228633323,9.005424022813008,18.766319854640486
0.2035,0.4423,0.8129,-0.2622,0.2167,0.3786,24.2112,-1.5662,-24.64,61.49464705400584,12.44545271665863,4.843150156064998,18.778593234723484
0.1943,0.4482,0.8081,-0.2622,0.2167,0.3786,24.0625,-1.0587,-23.2138,61.00435370245048,11.937169777406401,2.896023273823615,18.790591623707417
0.165,0.4472,0.8117,-0.2598,0.2138,0.3739,24.22,-0.8663,-21.805,61.142550661632754,10.335225186855197,2.4109409676702387,18.79964403340098
0.155,0.4507,0.8059,-0.2598,0.2138,0.3739,24.9725,-1.3825,-21.0875,60.7965669735765,9.644867963919186,1.5924888409778868,18.81182114890361
0.1584,0.456,0.8112,-0.2613,0.2114,0.3662,25.4713,-1.7587,-20.8425,60.66315184249391,9.657818576739531,1.5119245164625446,18.823971720863863
0.1555,0.4618,0.806,-0.2618,0.2074,0.367,26.0487,-2.5113,-20.2912,60.20547744556026,9.528205553769716,0.2709630508452399,18.83610070407631
0.1616,0.4704,0.8095,-0.2618,0.2074,0.367,26.6175,-3.7275,-20.5275,59.85140298839033,9.751589709178155,1.3398803426840518,18.848279235234536
0.1558,0.4624,0.8108,-0.258,0.2047,0.3634,27.3437,-5.005,-21.07,60.28907578031706,9.516024487654422,0.7741545997452345,18.8604273297975
0.1598,0.4653,0.8107,-0.258,0.2047,0.3634,28.0963,-6.3088,-21.0613,60.15094467079207,9.674592382200359,1.0135773187857402,18.872618247942167
0.162,0.4707,0.8162,-0.263,0.1994,0.3536,29.4175,-7.77,-22.1812,60.03184174451874,9.745833379588586,1.1614728742958391,18.881621817517747
0.1606,0.4791,0.8023,-0.2611,0.1994,0.3529,31.92,-11.095,-22.575,59.18099224896639,9.75107137916195,2.81778098483104,18.893815566973604
0.1656,0.4812,0.81,-0.2611,0.1994,0.3529,33.355,-12.3812,-22.8463,59.28367017206699,9.943927275517941,2.705896304028435,18.90601391731014
0.1666,0.4855,0.8006,-0.2642,0.1929,0.3505,34.4313,-14.4462,-23.0037,58.78024285738548,10.072857928017974,4.909990479308322,18.918219699838545
0.1654,0.4927,0.7844,-0.2642,0.1929,0.3505,35.735,-15.6625,-24.2375,57.889535421919454,10.118942720246924,6.817446421029821,18.930436453697798
0.1721,0.5011,0.7758,-0.2648,0.1894,0.3509,37.4938,-16.8787,-24.92,57.15937608659198,10.515183968885285,9.335150763652807,18.94261321528653
0.1767,0.5142,0.7673,-0.2647,0.1865,0.3424,38.5088,-18.1912,-25.5325,56.19591505621174,10.802444952473476,10.729793478009706,18.954815458675952
0.1832,0.5309,0.7541,-0.2647,0.1865,0.3424,38.9987,-19.25,-26.39,54.88550467998036,11.200089976688355,13.481848170510268,18.9670559247664
0.1887,0.5627,0.7403,-0.265,0.182,0.3348,38.8063,-19.705,-26.9325,52.812091789886885,11.450064646333649,17.164823100333773,18.979212159349025
0.1826,0.5721,0.7299,-0.265,0.182,0.3348,37.9137,-19.9237,-27.0025,51.93232370999397,11.163029380274637,18.59311556375005,18.99137299481233
0.1678,0.5849,0.7329,-0.2668,0.179,0.3276,36.9162,-19.985,-26.7313,51.42098904774519,10.226483043001348,18.065022695239755,19.00357523820175
0.1557,0.5938,0.7272,-0.269,0.1751,0.3271,35.2187,-20.755,-25.76,50.783414365746324,9.486039983916518,19.052810656407033,19.012675780185493
0.1459,0.6014,0.7076,-0.269,0.1751,0.3271,31.1675,-24.185,-22.7413,49.67152133907485,8.993480051856677,20.46810017479515,19.02486740615796
0.1352,0.5986,0.7083,-0.2723,0.1705,0.3235,28.945,-26.215,-20.475,49.79418051927369,8.404730336438696,19.852872231079694,19.037195642895213
0.1216,0.5818,0.7081,-0.2723,0.1705,0.3235,28.2887,-29.26,-19.4512,50.566989056423736,7.717111460056817,18.33634679231496,19.04923827111645
0.1157,0.5714,0.7216,-0.2794,0.1682,0.3235,28.9013,-33.565,-18.585,51.593105131417786,7.288492012133387,16.567429590280394,19.061728600419176
0.1158,0.5635,0.7122,-0.2792,0.166,0.3156,29.9075,-38.15,-19.9675,51.6469192148898,7.2703280245045185,15.778530692237405,19.07388271151841
0.1307,0.5728,0.7004,-0.2792,0.166,0.3156,30.66,-43.1813,-21.9363,50.75028406135112,8.098087469702545,17.44393259635807,19.08599364512204
0.1679,0.5772,0.6856,-0.2814,0.1638,0.3116,32.3838,-47.67,-24.0012,49.92996021959355,10.356481960187075,19.424682522983787,19.098142801426697
0.187,0.5883,0.6793,-0.2814,0.1638,0.3116,33.4162,-51.1263,-25.4888,49.12861964751083,11.632017238427105,21.261568784214308,19.110336196968657
0.2043,0.5965,0.6567,-0.287,0.1586,0.3078,34.1688,-53.9525,-26.32,47.78700709389195,12.858602759788324,23.594889093564465,19.122511896815695
0.2231,0.6069,0.6518,-0.2932,0.1554,0.3044,34.7812,-56.5775,-27.685,47.062518474404975,13.974603644526244,24.59509091502884,19.134709539324437
0.2313,0.5988,0.639,-0.2932,0.1554,0.3044,35.1837,-58.2663,-28.1138,46.865400574997246,14.73674623810545,25.378038020551138,19.143957663403818
0.2343,0.5972,0.6269,-0.2954,0.1532,0.2995,35.9888,-60.1125,-30.7475,46.4019866238183,15.117716352018137,25.459645131667628,19.156140087614926
0.2467,0.6007,0.6196,-0.2954,0.1532,0.2995,39.3225,-65.1,-32.8825,45.89940470808675,15.908972699636061,26.704364805791478,19.168329590104
0.263,0.6102,0.5972,-0.2998,0.1485,0.295,40.8362,-66.255,-34.6325,44.4174895129593,17.061375017872145,28.773269343238468,19.180549175274443
0.276,0.6276,0.5824,-0.3031,0.1454,0.2885,42.1312,-67.1125,-36.995,42.89496756260428,17.831813355391407,29.90761979177778,19.192725936863177
0.3034,0.6598,0.5572,-0.3031,0.1454,0.2885,42.4813,-67.8563,-37.975,40.240335116478754,19.293395201301475,33.976680117323355,19.205660074194512
0.3126,0.6588,0.5456,-0.3059,0.1438,0.2846,42.8138,-67.7425,-39.1825,39.64384358243882,20.043456884318484,34.277375704673624,19.216632112873054
0.3079,0.6562,0.5363,-0.3059,0.1438,0.2846,43.6362,-67.6463,-39.9612,39.2667000616794,19.969758461269222,34.53007164315583,19.22885983806316
0.311,0.6519,0.5263,-0.3102,0.1406,0.2736,44.2225,-67.4275,-40.285,38.92246368671939,20.349595780691104,32.871362091387276,19.24137741873606
0.3127,0.6654,0.5301,-0.3126,0.1351,0.2712,45.885,-67.4625,-40.5825,38.55077464661602,20.187823395625145,32.78321913757457,19.25352622112682
0.3268,0.6751,0.497,-0.3126,0.1351,0.2712,46.7687,-67.4888,-41.0988,36.403793337595474,21.25621510612718,35.53787873895587,19.265729172344034
0.3314,0.6792,0.4737,-0.3127,0.1334,0.2666,48.3613,-67.4975,-41.6325,34.922634620865296,21.791413335386352,36.401097791563444,19.274511899647006
0.3312,0.6883,0.4644,-0.3127,0.1334,0.2666,49.7612,-67.3225,-41.825,34.02501447224979,21.747914742091115,36.99636549490638,19.286789526696786
0.3321,0.6891,0.449,-0.3129,0.1294,0.2624,52.8063,-66.0625,-43.3913,33.10395920970866,21.979807481328,37.28851809487917,19.298931958637375
0.3396,0.7011,0.4389,-0.3168,0.1274,0.251,54.5125,-65.2138,-43.4087,32.06551847967174,22.309778665949448,35.79426375113503,19.311664718960515
0.3672,0.726,0.4072,-0.3168,0.1274,0.251,55.0638,-63.8838,-42.5337,29.334876528185575,23.751341679998635,38.658196910617136,19.3237852082394
0.3855,0.7389,0.3923,-0.3169,0.1228,0.2429,56.2713,-61.4775,-42.2537,27.987923190224073,24.705210401153842,38.86254800183358,19.335957015033554
0.3969,0.7557,0.3647,-0.3169,0.1228,0.2429,56.6125,-58.5638,-41.7025,25.79906954289772,25.292377208347638,40.41577936462214,19.348078212140237
0.4121,0.7762,0.3468,-0.3187,0.12,0.2358,56.14,-55.0112,-41.02,24.103729770425105,25.840053813139246,40.17525868689576,19.360276916390674
0.4188,0.8075,0.3246,-0.3174,0.1153,0.2277,55.2212,-50.61,-40.39,21.9368905320682,25.702920175307572,39.69310622635391,19.37240837700041
0.4326,0.8684,0.2885,-0.3174,0.1153,0.2277,53.4012,-45.9637,-39.235,18.44031819828719,25.318454115395355,40.607531858286684,19.384600356886775
0.429,0.8919,0.2804,-0.3178,0.1141,0.2212,50.1287,-41.1862,-36.1113,17.470862608227126,24.678688971422115,39.358362395197524,19.393887057581082
0.4205,0.9081,0.2736,-0.3178,0.1141,0.2212,45.885,-35.8925,-32.4888,16.781260885176145,23.952796102744657,39.073515807626364,19.406035506057943
0.4076,0.9015,0.276,-0.3162,0.112,0.2119,40.8888,-30.73,-29.3475,17.016847860690742,23.417784842662876,37.33110560712613,19.418219345924648
0.3899,0.8722,0.2748,-0.3161,0.1104,0.2082,36.0412,-24.3512,-23.4937,17.475857472910334,23.12669064535677,36.365863619284234,19.430403893619147
0.3698,0.7938,0.2801,-0.3161,0.1104,0.2082,31.5438,-21.385,-22.1987,19.379606785033335,23.64344714472501,36.016083067866774,19.443013845819536
0.3672,0.7681,0.279,-0.3182,0.1071,0.2054,32.6725,-20.3175,-21.8137,19.946523237626987,24.124303468222283,35.423097457224905,19.454711054075922
0.3513,0.7706,0.2772,-0.3182,0.1071,0.1849,35.14,-19.18,-21.0525,19.78887003622846,23.348694559309457,31.33405348960926,19.466900910478895
0.352,0.7773,0.2755,-0.3188,0.1065,0.1982,38.465,-18.8913,-20.8337,19.522492660967654,23.149309494632554,33.47226059974961,19.479154471383584
0.3474,0.7988,0.2659,-0.3175,0.1047,0.1902,41.2212,-19.495,-20.9037,18.436242861146905,22.53022591610256,32.4040026447603,19.491261511934333
0.3566,0.8137,0.2611,-0.3175,0.1047,0.1902,42.945,-19.0487,-21.2275,17.804363347144143,22.633317087475284,32.68928766888572,19.50340146647763
0.3894,0.828,0.2561,-0.319,0.1016,0.1874,44.625,-18.725,-20.5975,17.199702624603077,23.9527366439827,33.088410535411214,19.515604417694846
0.4045,0.8636,0.2198,-0.319,0.0997,0.176,44.6425,-17.5875,-20.7812,14.340438216795082,24.344770930206096,32.16067167797418,19.524909167997972
0.3985,0.8602,0.2262,-0.3173,0.0997,0.176,44.6338,-15.1812,-20.6063,14.724877195566554,24.166477400318232,32.007265676188645,19.537095839175862
0.4075,0.8653,0.1976,-0.3178,0.0983,0.1685,43.7675,-12.9587,-20.4837,12.903053455324121,24.582886371213775,31.449308776904424,19.549297728651382
0.4045,0.8799,0.182,-0.3178,0.0983,0.1685,43.155,-10.9025,-20.545,11.712553627342707,24.290395038673907,31.54726381243058,19.561552351297767
0.4061,0.8959,0.1827,-0.3185,0.0965,0.1662,39.6375,-4.9437,-19.2413,11.530566380199412,24.01510345618022,31.051052225741888,19.57353552198407
0.4038,0.902,0.171,-0.3185,0.0946,0.1579,37.905,-2.8087,-17.8762,10.753990679239186,23.81461186559222,29.875321109683608,19.585682908719235
0.4017,0.9039,0.166,-0.3187,0.0946,0.1579,35.875,-0.6825,-17.43,10.415212443326896,23.671954467364394,29.6950123745809,19.597811184103886
0.3944,0.8998,0.1527,-0.3204,0.0944,0.1508,34.055,0.8312,-17.3075,9.652568377332722,23.465709978775877,29.345277202903098,19.609855227980717
0.385,0.8897,0.1459,-0.3204,0.0944,0.1508,33.6263,2.0125,-17.6138,9.322123147298074,23.221811743004412,28.840682789510854,19.61904070930008
0.3784,0.8858,0.1462,-0.3171,0.0922,0.1439,32.865,2.3538,-19.1712,9.370710450727199,22.927355497323813,27.908550215434513,19.631092185368775
0.3695,0.8913,0.1407,-0.3171,0.0922,0.1439,32.2438,2.6688,-20.335,8.981906051993956,22.37480033850476,27.378799806752045,19.643196040694438
0.3697,0.8965,0.1412,-0.3171,0.0926,0.1389,31.4738,2.6163,-21.8663,8.951536205231845,22.191241184551888,26.601208682930647,19.655247162849236
0.3679,0.9071,0.1308,-0.3154,0.0891,0.1338,30.9662,3.1588,-22.4088,8.227041107615428,21.910392361911022,25.763757718745946,19.667314918957256
0.3684,0.9207,0.1226,-0.3154,0.0891,0.1338,29.1812,3.7275,-23.9575,7.604639728987689,21.66277068859532,25.529568389060348,19.679526010194138
0.3648,0.9252,0.1297,-0.3134,0.09,0.1274,27.6238,4.1737,-25.2087,7.967911284546402,21.35948177540039,24.521171588621375,19.688603547774484
0.3527,0.9233,0.1247,-0.3134,0.09,0.1274,25.5062,4.375,-26.2938,7.701360200675938,20.78611794641099,24.18880063286178,19.70011388949251
0.3475,0.9274,0.1199,-0.3117,0.0909,0.1363,23.2225,5.39,-27.2125,7.379314294026447,20.416206908539344,25.551096317790716,19.712365680827705
0.3303,0.9285,0.1144,-0.309,0.0897,0.1157,20.1425,5.6613,-26.6612,7.0391499412955,19.523729568578567,22.64770268910671,19.724827697018558
0.3147,0.9292,0.1089,-0.309,0.0897,0.1157,17.71,5.4163,-25.3137,6.701329045963913,18.675023757154296,22.02394066631783,19.736947832383546
0.309,0.9224,0.1082,-0.3066,0.0886,0.117,14.7875,4.5938,-22.9512,6.690980562325301,18.433849352639612,22.19735138303565,19.74896887185698
0.3213,0.9167,0.1132,-0.3066,0.0886,0.117,12.3638,3.7888,-19.74,7.017335298114345,19.047449263276018,22.309900258418313,19.75772505561757
0.3376,0.9088,0.11,-0.3102,0.0884,0.1149,9.5987,1.7587,-17.5438,6.910431625267118,19.893403938515117,22.197175791916916,19.770170791769097
0.3558,0.9006,0.1158,-0.3102,0.0884,0.1149,7.5425,2.1263,-15.785,7.288477591329231,20.49068804147194,22.204262297915033,19.78196886548653
0.3647,0.8977,0.1143,-0.308,0.0898,0.1151,6.6588,3.185,-15.3912,7.259413116152375,20.79626581723645,22.47528062318639,19.794116606135592
0.3717,0.8995,0.1224,-0.3067,0.0874,0.1136,6.0637,4.8562,-15.4875,7.696601488373052,21.186526223993194,22.370410099513066,19.803583095090296
0.3782,0.9043,0.121,-0.3067,0.0874,0.1136,5.0225,6.0637,-15.4875,7.630278046309265,21.53917221101055,22.44142426218968,19.81552308828099
0.37,0.9016,0.12,-0.3066,0.089,0.1132,4.6112,6.8513,-15.8375,7.587521976310664,21.787311695916546,22.309742439658734,19.827512983331363
0.3595,0.9007,0.1207,-0.3066,0.089,0.1132,4.2088,7.5425,-17.0275,7.626548351715594,21.653842942034274,22.13363709278607,19.839365913703052
0.3534,0.9055,0.1174,-0.3068,0.0916,0.1054,3.0625,8.155,-17.5175,7.424996795894063,21.304593115251585,20.679522761017328,19.85145242724769
0.3435,0.9126,0.1177,-0.3077,0.0889,0.1066,1.4962,8.7587,-17.2287,7.364886949202633,20.739599156801802,20.500736861579792,19.86035371570663
0.3426,0.9125,0.1236,-0.3077,0.0889,0.1066,0.0175,8.89,-17.5613,7.60822876956956,20.504494614151202,20.364311165701345,19.872451908409914
0.3326,0.9073,0.1208,-0.3063,0.0877,0.1091,-0.735,7.9275,-17.9725,7.59343105964501,20.108898132207056,20.80609860115375,19.88457947596677
0.319,0.8866,0.1216,-0.3063,0.0877,0.1091,-1.7325,7.5425,-18.3663,7.670411877953104,19.73480189712824,20.72363936784309,19.896704920040232
0.3156,0.8894,0.1298,-0.3058,0.0886,0.1093,-2.9138,7.1487,-18.445,7.914534284227309,19.437195187061853,20.582286660638008,19.908844166755735
0.3136,0.8859,0.1343,-0.3058,0.0886,0.1093,-3.7713,6.79,-17.29,8.336328351926362,19.33625866556959,20.46418868190507,19.91780880580249
0.3195,0.8904,0.1434,-0.3064,0.0899,0.1122,-4.5675,6.0113,-17.7975,8.90136743889779,19.46073226603818,20.79024826522896,19.9299016897973
0.3217,0.889,0.1437,-0.303,0.0891,0.1096,-4.9,5.1625,-18.3925,9.104356198439124,19.611971273145002,20.647510081781267,19.942138616748764
0.3226,0.8839,0.1477,-0.303,0.0891,0.1096,-4.9525,4.0513,-18.9437,9.382281283140381,19.75936343887341,20.574080531874465,19.954170981466945
0.3159,0.8739,0.1462,-0.3047,0.0883,0.1102,-4.8825,3.115,-20.1075,9.4653970907414,19.645452157919905,20.52913093700979,19.966353405678053
0.3149,0.8713,0.1496,-0.3047,0.0883,0.1102,-4.5237,1.9862,-20.5538,9.656952823051542,19.61212570476117,20.480335728102162,19.97844204270608
0.3168,0.8721,0.1471,-0.3024,0.0896,0.111,-2.8525,0.7875,-21.2625,9.626998026216485,19.69421236810576,20.570978108734,19.98776873567091
0.3212,0.8777,0.1523,-0.3019,0.0906,0.1098,-1.6975,-0.6825,-21.2275,9.70737981221612,19.808904244986937,20.552769947106963,19.99977526467451
0.3215,0.8812,0.1471,-0.3019,0.0906,0.1098,-2.1875,-0.7088,-21.6212,9.686790701381241,19.794229376514146,20.62106484836405,20.011872749549998
0.3234,0.8826,0.1465,-0.3006,0.091,0.1106,-1.575,-0.6825,-21.7787,9.577792384646276,19.863130316716813,20.83570180704477,20.02396527963091
0.3284,0.887,0.15,-0.3006,0.091,0.1106,-1.3125,-0.595,-21.1662,9.5879765149862,20.027569292324014,20.90444293855583,20.036092493273866
0.3299,0.8907,0.1449,-0.3004,0.0903,0.1074,-1.4787,-0.2362,-20.3525,9.432569855683795,20.07262455284483,20.630587808695555,20.04822324605581
0.329,0.8923,0.1459,-0.3004,0.0903,0.1074,-1.6187,-0.4462,-19.6788,9.374028954386066,20.009250331664305,20.485437181849104,20.060236499423475
0.3305,0.8877,0.1459,-0.2986,0.0905,0.1135,-2.1,-0.4288,-18.97,9.367687503315764,20.138713065315816,21.299801659817767,20.069092840817316
0.3281,0.8872,0.1398,-0.2995,0.0909,0.1095,-1.5575,-0.2187,-19.2763,9.193679982214045,20.08143961112887,21.138282615083792,20.08126677109486
0.3311,0.8897,0.1402,-0.2995,0.0909,0.1095,-1.6187,-0.28,-19.2325,9.098220602853408,20.163927952910957,21.087989617984416,20.09326268268151
0.3359,0.8913,0.1443,-0.2988,0.0883,0.1106,-1.5575,-0.2888,-18.8738,9.139546133669214,20.355224355997983,21.229190622768606,20.105494300924494
0.3348,0.8932,0.1412,-0.2988,0.0883,0.1106,-1.5837,0.105,-18.2525,9.075047778495222,20.325725331963294,21.30195929576306,20.118148138448287
0.3385,0.8957,0.1429,-0.297,0.0886,0.1114,-1.1638,0.5862,-17.8937,9.069512339555837,20.428345024823624,21.441270355359386,20.130118568234245
0.3401,0.8899,0.1429,-0.2983,0.0893,0.1099,-2.0738,1.0937,-17.0187,9.07880569987827,20.588860649640445,21.434108486535205,20.14214633207175
0.3445,0.884,0.146,-0.2983,0.0893,0.1099,-2.1525,1.5837,-16.1875,9.113994972244264,20.81680905751745,21.40367259518543,20.151551593922026
0.3505,0.8833,0.1522,-0.2981,0.0906,0.1102,-1.9425,2.205,-16.9312,9.283274524907648,21.16487866289163,21.383391847624434,20.16381258701858
0.3467,0.8812,0.1494,-0.2981,0.0906,0.1102,-2.31,3.9375,-16.7825,9.291328923088447,21.187733592776606,21.374063723808696,20.17560287463025
0.3437,0.8793,0.1568,-0.2978,0.09,0.1106,-2.3888,4.2175,-17.7362,9.367943993166351,21.08609902694564,21.294089002722174,20.18762214453419
0.344,0.874,0.1554,-0.2966,0.0901,0.1086,-1.75,4.8213,-18.6375,9.617026456077806,21.160812871142483,21.051393310232132,20.19972175289307
0.3414,0.8675,0.156,-0.2966,0.0901,0.1086,-1.785,5.2937,-19.7225,9.809651145281263,21.17079647918331,20.964326738975018,20.209027918851792
0.3359,0.863,0.1677,-0.2984,0.0884,0.1087,-1.1287,5.6,-19.7313,10.44641811911846,20.957096137529714,20.579973376193266,20.221264491889357
0.3319,0.8586,0.1646,-0.2984,0.0884,0.1087,-0.945,5.565,-19.7663,10.678929506568268,20.818863624014927,20.522545436406002,20.2325702713741
0.3237,0.8485,0.1696,-0.295,0.0889,0.1095,-0.4025,5.2413,-19.7575,11.086834884462728,20.56539426706873,20.653273935539016,20.244767206055045
0.3285,0.847,0.177,-0.295,0.0889,0.1095,0.4987,4.7512,-19.9325,11.614053090171783,20.750238643337106,20.600438927325037,20.256926271948856
0.3326,0.8512,0.1764,-0.2936,0.0913,0.1062,1.68,5.1363,-20.1688,11.689132485946251,20.90650108213936,20.135763456297557,20.269029773360618
0.3362,0.8579,0.1792,-0.2931,0.0904,0.1067,2.8087,4.5413,-20.58,11.780489755994934,20.9746972979798,20.154052283958425,20.277703849096778
0.3318,0.8665,0.1815,-0.2931,0.0904,0.1067,3.7888,3.815,-20.825,11.823282629062739,20.609405478568732,20.05800683479187,20.290363349242945
0.3276,0.8613,0.1771,-0.2921,0.0898,0.1046,4.865,3.78,-21.175,11.644221607025768,20.458396490659965,19.797598842504975,20.302391820908245
0.3201,0.8615,0.1655,-0.2921,0.0898,0.1046,6.2125,3.6663,-21.4988,10.955472937718735,20.102347986259776,19.84629589269752,20.314401535136927
0.3229,0.8683,0.1719,-0.2921,0.0889,0.1034,7.14,3.15,-21.1138,11.174936600984474,20.050437149204683,19.617409473993302,20.32368469669225
0.3199,0.8754,0.1687,-0.2908,0.0912,0.098,7.6125,2.4325,-20.4837,10.932365629526316,19.788442128516458,18.94216973100889,20.33566645172296
0.3293,0.8796,0.1684,-0.2908,0.0912,0.098,8.0237,2.24,-20.5012,10.846495696190582,20.12558349367802,18.740573634807777,20.347660239826215
0.3298,0.8899,0.1637,-0.2893,0.089,0.1002,7.5163,2.1438,-20.475,10.462403030878018,20.0418394182736,19.011352491576222,20.359614743486745
0.3278,0.8954,0.1645,-0.2893,0.089,0.1002,6.9388,1.9337,-20.1513,10.41522587083915,19.842049992979696,19.107669629504294,20.37164250732425
0.3288,0.8937,0.1663,-0.2898,0.0901,0.1002,6.9212,2.0125,-19.5387,10.528729025029408,19.8771068074548,19.12906709466734,20.380841083457852
0.3195,0.8913,0.1574,-0.2898,0.0901,0.1002,6.5188,1.715,-19.25,10.067350033436465,19.527874513712653,19.165794884030163,20.39282602371365
0.3196,0.8876,0.1631,-0.2854,0.0897,0.0978,6.3525,1.6538,-18.9263,10.37639496075057,19.506784996440476,19.07522671380873,20.40482972140606
0.3135,0.8826,0.1601,-0.2883,0.0879,0.095,5.6963,1.1025,-18.0513,10.291996309580284,19.3261326135667,19.027453996658327,20.41686951831611
0.318,0.8835,0.1609,-0.2883,0.0879,0.095,5.6087,0.2625,-17.57,10.318090178730554,19.449120259468433,18.60880390828232,20.42614843290465
0.318,0.8916,0.1674,-0.2874,0.0871,0.0948,5.4425,0.2888,-17.0275,10.597471491098654,19.362845860674486,18.33214905264922,20.438101874823484
0.3194,0.8926,0.1632,-0.2874,0.0871,0.0948,4.4012,-0.0263,-16.8787,10.392044254975533,19.381319671377355,18.221799443270292,20.450109819482677
0.3118,0.8891,0.1651,-0.2886,0.089,0.0978,4.0513,-0.4112,-16.8087,10.5022383645535,19.157247204972855,18.4058352069925,20.46216872774324
0.3087,0.8814,0.1694,-0.2886,0.089,0.0978,4.0425,-1.2512,-16.5987,10.82781026036079,19.05188077996792,18.3884222150798,20.474248516923808
0.3056,0.8769,0.166,-0.2892,0.0909,0.0912,4.7163,-2.1788,-17.0187,10.732975063225565,18.953934833975786,17.249283163310647,20.486194526650777
0.3023,0.8752,0.1664,-0.2868,0.09,0.0921,5.46,-3.3425,-16.9662,10.76137684656727,18.817610393453005,17.227580077677718,20.495595187620374
0.2937,0.8714,0.1643,-0.2868,0.09,0.0921,5.8975,-4.445,-16.4325,10.686727094137156,18.538762838774776,17.171015142798325,20.50767780811213
0.2927,0.8694,0.1553,-0.2883,0.089,0.0899,6.1687,-5.1275,-15.8812,10.186976385344405,18.45170340927035,16.860105912319387,20.519676197096068
0.2953,0.873,0.1595,-0.2883,0.089,0.0899,6.4575,-6.265,-16.0387,10.336795218396107,18.42937496948697,16.75633114131056,20.531690158291532
0.2942,0.8761,0.1535,-0.2906,0.0906,0.083,6.5887,-7.2713,-15.4612,9.978230212622003,18.397557390304314,15.364170741595373,20.543760745710742
0.2837,0.8745,0.1608,-0.289,0.0897,0.091,5.8625,-8.0587,-15.3562,10.370786892716872,18.266423543627127,16.61248012540606,20.55308708476167
0.2745,0.8682,0.1638,-0.289,0.0897,0.091,6.8775,-9.0562,-16.765,10.653353774164007,17.641102536618494,16.56312202962025,20.565149886075115
0.2705,0.8661,0.1585,-0.2865,0.0887,0.0874,8.4175,-11.06,-17.3512,10.394775072297312,17.252523840438137,16.072129460465014,20.577254449228576
0.2681,0.8658,0.1535,-0.2865,0.0887,0.0874,9.8175,-12.3112,-17.3075,10.07968657810591,17.049563325981946,16.120455867974872,20.588823894567636
0.2671,0.8649,0.1488,-0.289,0.0902,0.0815,11.0425,-13.7287,-17.7887,9.783962645592702,16.96093897725217,14.858540423505458,20.60106506848588
0.2607,0.8671,0.1383,-0.2895,0.0897,0.0794,12.2587,-15.3387,-15.1812,9.108617471627737,16.938839864242,14.509982896096183,20.613666526752706
0.2624,0.8661,0.1425,-0.2895,0.0897,0.0794,14.035,-18.4713,-14.9012,9.329660590487745,16.884655750184255,14.41035394895025,20.625839041374658
0.2742,0.8621,0.1306,-0.2888,0.0893,0.0808,14.9713,-19.5212,-13.7812,8.653454539364278,17.212899023669188,15.13128712744842,20.637968024587106
0.2811,0.8575,0.1302,-0.2888,0.0893,0.0808,15.8812,-20.5975,-12.8975,8.634691978488235,17.726848560525212,15.248813057385885,20.650148325314824
0.2889,0.8555,0.1232,-0.2933,0.0889,0.0746,17.5963,-21.2975,-12.5562,8.215854426274182,18.270592052461314,13.970755491557473,20.65956526632375
0.2925,0.8534,0.116,-0.292,0.0878,0.076,19.81,-22.1287,-13.1075,7.761174916072861,18.59700823563057,14.49158083800424,20.671750521846043
0.2927,0.8505,0.1192,-0.292,0.0878,0.076,21.7612,-22.855,-13.0987,7.96953485543324,18.746419463573403,14.443533385168635,20.683921620812402
0.2995,0.8454,0.1064,-0.2949,0.0874,0.0712,23.2488,-23.9837,-13.1075,7.203395256568355,19.16104832663053,13.651675079502064,20.696296220270348
0.3002,0.844,0.0979,-0.2949,0.0874,0.0712,26.11,-24.3775,-13.6325,6.636436338493633,19.339667626629762,13.822629684785984,20.707728700930723
0.3,0.8426,0.0964,-0.2955,0.0899,0.07,27.8862,-25.0862,-14.3675,6.530225825314787,19.400376343057932,13.561346778935645,20.719933421717432
0.3045,0.8403,0.0838,-0.2962,0.087,0.0612,30.3187,-25.5762,-14.805,5.719918183952113,19.504453161645987,11.995928241148457,20.732119031153626
0.3063,0.8353,0.0888,-0.2962,0.087,0.0612,32.2438,-26.1712,-15.5575,6.058466775316752,19.66396264006714,11.845476046721307,20.74434675634373
0.3109,0.8281,0.0741,-0.2954,0.0882,0.0566,38.1675,-27.3,-17.1063,5.136119779505605,20.22142116342963,11.259133611514486,20.756590053745366
0.3095,0.822,0.0676,-0.2954,0.0882,0.0566,41.3263,-28.1225,-18.3925,4.711081998105446,20.48737168823434,11.388872840068839,20.76904534557215
0.307,0.8274,0.0597,-0.2931,0.0889,0.0554,43.68,-28.9625,-18.4188,4.139389892272372,20.35016392980065,11.381480885702409,20.781194147962907
0.3101,0.8355,0.0471,-0.2931,0.0884,0.0425,46.13,-29.3475,-18.0075,3.245017296140869,20.33744097241614,8.834413073451403,20.79058065237657
0.309,0.8433,0.0323,-0.2931,0.0884,0.0425,48.4225,-29.54,-17.3075,2.213801805628589,20.181606420728215,9.08166074842451,20.802752105256825
0.3099,0.8375,0.0067,-0.2932,0.0899,0.0347,49.8138,-29.7588,-17.185,0.49141601616612646,20.264915003028936,7.973980326611001,20.814959303440823
0.3097,0.8312,0.0009,-0.2932,0.0899,0.0347,50.995,-30.4237,-16.8787,0.06994855984843106,20.373251400447668,8.089243705555628,20.82710598234819
0.3068,0.8226,-0.0151,-0.294,0.0886,0.0252,52.5525,-30.4762,-17.605,-1.0315417126077364,20.42831767266593,6.3119710573847785,20.83935989716678
0.2984,0.8123,-0.0262,-0.2924,0.0904,0.019,54.74,-31.1675,-17.92,-1.8333229660596293,20.231660359651208,5.174364302592629,20.851494189087703
0.289,0.7943,-0.0601,-0.2924,0.0904,0.019,57.925,-32.3575,-17.325,-4.286250057198348,20.03189601296015,5.988755906928219,20.86372828472798
0.2786,0.7956,-0.0738,-0.293,0.0914,0.0101,61.1188,-34.2038,-17.6575,-5.283867367186304,19.451780040543024,4.329909912808228,20.87595884122927
0.288,0.7993,-0.0963,-0.293,0.0914,0.0101,67.1388,-38.0975,-18.6287,-6.8473860361331935,19.632087570044572,4.86204157249909,20.88819222904175
0.2999,0.8036,-0.1077,-0.2895,0.0916,0.0002,70.0,-39.375,-19.5212,-7.622677414384613,20.17526088680978,2.9951641781027725,20.900373945425063
0.3137,0.8156,-0.1295,-0.2889,0.0941,-0.0105,71.7325,-39.6637,-21.2187,-9.003387925540421,20.711996414489775,1.1087759186734647,20.912664667289086
0.3218,0.838,-0.1661,-0.2889,0.0941,-0.0105,73.6313,-39.655,-22.5487,-11.182580139879146,20.64895424260089,1.9118540215458695,20.924916104710384
0.3123,0.8481,-0.1825,-0.2889,0.0975,-0.0217,74.1213,-39.4975,-24.4475,-12.131692781005869,19.880979891995974,0.1193231736358163,20.937221690958136
0.3007,0.853,-0.2026,-0.2684,0.0989,-0.0331,74.4275,-38.815,-25.0075,-13.345194545857419,19.018204598268955,2.375064271762001,20.949438444817392
0.2868,0.856,-0.2132,-0.2865,0.0989,-0.0331,75.005,-38.4738,-25.41,-13.97765194723376,18.099434144724935,1.968437341741716,20.961749693687523
0.2548,0.8436,-0.2416,-0.2834,0.0986,-0.0436,75.1713,-38.92,-25.1387,-15.95573297948596,16.3647346656938,3.4497275028576317,20.974058111246464
0.2437,0.8323,-0.2563,-0.2834,0.0986,-0.0436,76.1338,-39.4362,-22.7938,-17.101182408755786,15.71786565478117,2.978794454385523,20.986317334773528
0.2393,0.8239,-0.2696,-0.2789,0.1057,-0.0548,78.2513,-42.2013,-24.0012,-18.106860481807516,15.460849173398795,4.585687817630737,20.998539751255155
0.2425,0.8246,-0.2762,-0.279,0.1078,-0.066,80.0013,-43.9075,-22.8812,-18.513348200869533,15.567629937852088,6.8091191286284545,21.01084109053613
0.2664,0.8249,-0.3084,-0.279,0.1078,-0.066,81.7338,-44.9663,-22.9075,-20.47558076137503,16.68668453136567,5.964012438684578,21.023293551051726
0.2841,0.8313,-0.3133,-0.2736,0.1126,-0.0798,82.8538,-45.0013,-22.5662,-20.64837252894595,17.609973046560725,8.967682244070163,21.035422534264175
0.2943,0.84,-0.3353,-0.2736,0.1126,-0.0798,84.0088,-43.855,-22.3213,-21.747499963173883,17.973887545913147,8.432724602019649,21.047653444679366
0.2987,0.836,-0.3409,-0.2725,0.1156,-0.087,84.7438,-42.2275,-22.575,-22.179449460263,18.267265181565655,9.721976692135945,21.059945228285084
0.2982,0.8159,-0.3747,-0.2682,0.1201,-0.1012,84.4638,-40.7313,-23.2925,-24.638486364198393,18.361599063173784,11.397744708841486,21.072235950149103
0.2834,0.8022,-0.39,-0.2682,0.1201,-0.1012,84.7525,-39.445,-23.9925,-25.912669254203184,17.700679768728627,10.437319228427791,21.084531626807703
0.2739,0.7932,-0.4107,-0.2643,0.1253,-0.1159,87.2025,-37.135,-28.0875,-27.357891153148582,17.094586017506003,12.443715167235554,21.09681243908257
0.2766,0.7901,-0.4266,-0.2594,0.1311,-0.1227,87.7363,-35.9275,-29.61,-28.354938764650253,17.119619933382495,13.052948084194925,21.109048658206238
0.2691,0.8114,-0.4639,-0.2594,0.1311,-0.1227,87.6225,-34.86,-30.1963,-29.74237562037007,16.127714772814315,11.693584092654952,21.121329824395
0.2503,0.827,-0.4923,-0.2568,0.1386,-0.1366,86.8963,-33.0575,-30.0562,-30.75333242165464,14.675182760509252,12.984909799986898,21.1336262088814
0.2401,0.8233,-0.5062,-0.2568,0.1386,-0.1366,85.4,-31.4825,-29.7675,-31.575598769296793,13.997826102786554,12.163604092120023,21.146076545913605
0.2238,0.803,-0.5227,-0.2511,0.145,-0.1492,83.7025,-30.485,-28.42,-33.044389951611166,13.206847346760544,13.012504968709884,21.158185356033844
0.2137,0.7817,-0.529,-0.2486,0.1509,-0.1597,82.8888,-30.135,-27.8162,-34.07529553836583,12.789975581167809,13.712845601240234,21.170398216840216
0.2069,0.7618,-0.5511,-0.2486,0.1509,-0.1597,81.8563,-29.8375,-28.2537,-35.86143480788779,12.43705193320456,11.836869854469573,21.182693185671017
0.2043,0.7381,-0.5644,-0.2434,0.156,-0.169,80.5963,-29.61,-28.9538,-37.385527238953,12.403093811207631,11.798989316891994,21.19500160322996
0.205,0.725,-0.5788,-0.2392,0.1622,-0.1804,78.5925,-29.575,-30.2225,-38.5870793773925,12.457149058190764,12.318561734735015,21.20721729534752
0.2178,0.7254,-0.584,-0.2392,0.1622,-0.1804,77.5338,-28.1837,-29.715,-38.83351755615003,13.118119036539772,12.274318280170712,21.21947687278848
0.1951,0.7116,-0.6121,-0.2338,0.1708,-0.1868,75.9063,-27.0812,-28.6825,-40.67768472657397,11.836526057255952,9.742489855399795,21.231738927626733
0.1729,0.6924,-0.6285,-0.2338,0.1708,-0.1868,75.3638,-26.2062,-27.0025,-42.21067001188851,10.581268355461175,7.367575874287445,21.243953911916496
0.1557,0.6652,-0.6414,-0.231,0.179,-0.1994,74.9525,-26.0225,-25.9,-43.9341466656009,9.65063735022498,6.054893951731239,21.256208534562877
0.1408,0.6477,-0.6548,-0.227,0.1858,-0.206,75.2763,-26.0925,-24.1325,-45.294776900246454,8.78756904971438,4.07590099756919,21.268494301632323
0.1111,0.6081,-0.6774,-0.227,0.1858,-0.206,76.685,-26.5562,-23.17,-48.05087014599538,7.160623314055493,0.045715564570063434,21.280777591304478
0.106,0.5927,-0.7006,-0.2233,0.1922,-0.2146,77.5863,-27.6675,-23.1525,-49.747894402220204,6.65230309305286,2.3851740886811683,21.29307893058545
0.095,0.6013,-0.7283,-0.2233,0.1922,-0.2146,81.2088,-30.2838,-24.955,-50.44781073779924,5.8278225404161415,3.3960435357914447,21.30527268004131
0.1168,0.613,-0.7531,-0.2186,0.2002,-0.221,82.1275,-30.2925,-24.4475,-50.850708550161485,6.758860831058763,4.913163245019856,21.317622505526366
0.1197,0.6458,-0.7892,-0.2164,0.209,-0.2327,82.11,-29.3825,-24.1588,-50.708326976851936,6.7012097653948075,4.615921202036608,21.32985518551105
0.1086,0.6494,-0.8109,-0.2164,0.209,-0.2327,80.5963,-28.3587,-22.925,-51.303723249821644,6.0511153056880795,5.494353133501406,21.342147323030666
0.1056,0.6406,-0.8289,-0.2114,0.2178,-0.2389,79.1525,-27.7025,-22.0325,-52.289912247213266,5.793444141630114,8.290091921696792,21.354430966616718
0.1034,0.6416,-0.8513,-0.21,0.2259,-0.2501,77.7,-26.9325,-22.6537,-52.98701627501955,5.569929392822222,9.555422356911174,21.363379325624145
0.1082,0.6543,-0.8918,-0.21,0.2259,-0.2501,74.6813,-26.3725,-23.0562,-53.72350470739971,5.585140971895324,10.921953570803568,21.375664030951896
0.1234,0.6737,-0.9064,-0.2034,0.2342,-0.2554,71.4088,-24.6662,-24.3775,-53.38231188765066,6.1722943639512415,12.148558086741641,21.38794732062405
0.1161,0.6795,-0.9257,-0.2034,0.2342,-0.2554,68.3113,-19.5037,-26.5125,-53.71516010919836,5.805441941968939,12.634511366626901,21.400233087693493
0.1029,0.6884,-0.9414,-0.1994,0.2406,-0.2662,59.9375,-15.8463,-27.6588,-53.82209382104072,5.098651955869248,12.50839498813549,21.41250292863751
0.0832,0.6856,-0.9429,-0.1962,0.2469,-0.2663,54.7925,-14.1575,-26.9412,-53.97571652841912,4.161422883017974,14.113530662520398,21.42478692613746
0.06,0.6565,-0.9588,-0.1962,0.2469,-0.2663,50.68,-12.8537,-26.9237,-55.5700637262488,3.050007398230171,16.539706582115826,21.437070923637414
0.056,0.6403,-0.9562,-0.194,0.2544,-0.2703,45.745,-11.3662,-25.48,-56.17986121081372,2.809214849212663,18.924529657471407,21.449330147164478
0.0577,0.6282,-0.9604,-0.1918,0.2606,-0.2729,40.9325,-9.73,-24.5875,-56.7969245008179,2.8717163559026475,21.436974753151063,21.461566720202043
0.0569,0.6081,-0.9512,-0.1918,0.2606,-0.2729,36.96,-8.7412,-22.7763,-57.394094909948684,2.8837017723388954,22.645449220130686,21.47383797680165
0.034,0.5617,-0.945,-0.1905,0.2626,-0.2801,32.8913,-7.9625,-21.6475,-59.22116916473358,1.9193503009077038,24.585269508000817,21.48613860825483
0.0318,0.5399,-0.9451,-0.1905,0.2626,-0.2801,29.3213,-7.5687,-19.5912,-60.230371116597674,1.7184719931011083,26.206082847361163,21.498348283836116
0.0305,0.5315,-0.9393,-0.189,0.2642,-0.2811,24.5525,-8.2337,-17.64,-60.487212696654346,1.6471461935272238,27.070640555990206,21.51056751509266
0.0376,0.5212,-0.9351,-0.1868,0.268,-0.283,23.2225,-8.6712,-16.6863,-60.85157686918774,1.8691975535143914,28.863073813566466,21.52285151259261
0.0386,0.5055,-0.9337,-0.1868,0.268,-0.283,21.455,-9.2662,-16.9487,-61.540128413479536,2.0066436095128997,30.140062544763463,21.535088085630175
0.0566,0.4989,-0.9343,-0.1874,0.2726,-0.2852,20.335,-9.5375,-16.4325,-61.88338172235709,2.6026285423270803,32.25938144663327,21.54729846903926
0.0792,0.4997,-0.9385,-0.1874,0.2726,-0.2852,18.4713,-9.415,-16.03,-61.963286918030036,3.3894233949662476,33.74948782477444,21.559593437870063
0.0923,0.5019,-0.9443,-0.1851,0.274,-0.2842,16.4237,-8.085,-14.28,-62.00681387845278,4.096956897150702,35.39743950348016,21.571821163060168
0.0903,0.5025,-0.9311,-0.1842,0.2746,-0.289,13.475,-6.195,-11.0513,-61.66655186852934,4.724229506895867,34.77643310180872,21.584364933361552
0.0858,0.4792,-0.9229,-0.1842,0.2746,-0.289,12.25,-4.0775,-7.8138,-62.50265712474587,4.717610374982509,35.811381572339734,21.596539571466895
0.0907,0.4567,-0.9195,-0.1854,0.274,-0.2913,12.2675,-1.9075,-4.3488,-63.51746075101341,5.020509831337749,37.07592639568344,21.608717748711225
0.0926,0.4365,-0.9309,-0.1854,0.274,-0.2913,11.9,-0.7175,-1.3475,-64.78847128743254,5.137886519454079,38.69989346490997,21.620748697773813
0.1026,0.4277,-0.929,-0.1893,0.275,-0.2906,10.885,0.0088,1.3037,-65.2446140133699,5.694853819894047,39.626595035740955,21.629780934375162
0.1151,0.4372,-0.9224,-0.1912,0.2757,-0.2925,6.755,2.4413,1.3912,-64.70016323016067,6.391241860814215,39.885550856268424,21.64194778637474
0.13,0.4525,-0.8951,-0.1912,0.2757,-0.2925,6.58,3.36,3.2462,-63.3359088445385,7.333873031298284,39.38736332271545,21.65392741792206
0.1239,0.4427,-0.9002,-0.1928,0.2741,-0.2926,8.26,4.5237,3.6663,-63.77166110780708,7.0556841730566795,39.081488557720185,21.665966153090412
0.1186,0.4229,-0.9024,-0.1928,0.2741,-0.2926,9.7212,4.9088,2.2225,-64.80436174440226,6.801345489984619,40.0222462128375,21.678063284052005
0.117,0.4048,-0.9168,-0.1945,0.2772,-0.2923,11.4275,4.27,-0.0788,-66.0835448596382,6.667695332131807,41.70793015544346,21.687495443358557
0.118,0.3908,-0.9277,-0.1982,0.2759,-0.295,12.9937,3.0013,-3.01,-67.09050353212271,6.684330201206115,42.19327126481113,21.6996038995649
0.1272,0.3904,-0.9432,-0.1982,0.2759,-0.295,13.58,1.7413,-6.1163,-67.48968282589945,7.061075724688029,42.664091489331106,21.711658206944783
0.1593,0.4391,-0.9593,-0.1987,0.2762,-0.2982,12.4425,0.9887,-8.4263,-65.53757092359434,8.388282785794434,42.635022683247286,21.724082354348507
0.183,0.481,-0.9537,-0.1987,0.2762,-0.2982,10.0187,0.2275,-9.7737,-63.408844903251115,9.511999193139022,41.7785768968807,21.735601190000093
0.1959,0.5083,-0.9489,-0.1988,0.278,-0.3014,8.1287,1.4525,-9.5637,-61.96216485484464,10.191842410362502,41.26047202344096,21.74779033857527
0.1996,0.5245,-0.9454,-0.1962,0.279,-0.3026,6.8338,2.6688,-8.9337,-61.07602386058577,10.422789745516692,39.85182234487319,21.759933124429757
0.1936,0.5186,-0.9457,-0.1962,0.279,-0.3026,6.1425,5.145,-8.4175,-61.24107251388677,10.208129269888921,39.14937597181094,21.76921487032949
0.1893,0.5018,-0.9434,-0.2021,0.2797,-0.3012,5.355,7.0175,-8.6363,-61.904409673469836,10.067667826461161,39.127424517875056,21.781242988080887
0.166,0.4568,-0.9348,-0.2021,0.2797,-0.3012,2.6863,7.7175,-8.8638,-63.613345561679566,9.2030694893315,40.63995980036566,21.79330401982484
0.1554,0.4455,-0.9216,-0.2035,0.2802,-0.2972,-0.7088,7.6825,-9.2837,-63.972920451872255,8.715729317272933,40.72363640857656,21.805471579652217
0.1587,0.4382,-0.9151,-0.2035,0.2802,-0.2972,-2.7388,7.49,-10.8587,-64.10994510755359,8.856836590959857,41.33046262425784,21.81766178996909
0.1585,0.444,-0.9066,-0.2043,0.279,-0.3048,-6.3525,6.2213,-14.805,-63.94711186863776,8.872974936740142,39.96820969926118,21.829787587956453
0.1526,0.446,-0.9065,-0.2032,0.2764,-0.3012,-6.5363,5.5037,-15.9512,-63.830213624026065,8.744822272884122,39.13761501178064,21.841973197392647
0.1463,0.4518,-0.8887,-0.2032,0.2764,-0.3012,-6.7463,5.4513,-16.6513,-63.19450466577255,8.50541216542974,37.705092260074984,21.851291396423914
0.1493,0.4523,-0.8816,-0.2049,0.2778,-0.2965,-7.4463,4.9525,-16.7825,-62.89767733516247,8.544904702221146,37.742189779363116,21.86348019108519
0.1483,0.4462,-0.8802,-0.2049,0.2778,-0.2965,-7.8225,4.7075,-17.815,-63.08444018459716,8.545959860481615,38.07738589786361,21.87578754690244
0.1506,0.4444,-0.8754,-0.205,0.2781,-0.304,-8.9337,4.2438,-17.3687,-63.085106475405254,8.667179316396258,37.844714812928274,21.887768240191456
0.1617,0.4451,-0.8774,-0.203,0.276,-0.3014,-9.2137,4.41,-17.4913,-63.09950226129511,9.13544577569389,38.58705528308162,21.89997756185884
0.1555,0.4494,-0.8574,-0.203,0.276,-0.3014,-10.57,5.075,-17.7712,-62.420952307594746,9.128384363468339,37.47374372168844,21.9122382010415
0.1446,0.4487,-0.8491,-0.2056,0.2753,-0.3002,-10.745,4.7163,-17.7712,-62.175202122460746,8.717803895592306,35.92755577860676,21.92438629560446
0.1446,0.444,-0.8517,-0.2056,0.2744,-0.297,-8.715,4.0775,-17.71,-62.42729411088534,8.605140095592892,36.08166483346581,21.936575798093536
0.1475,0.4414,-0.8519,-0.2067,0.2744,-0.297,-8.015,4.095,-18.48,-62.58259648663297,8.708847762735578,36.33136321992126,21.94877273277448
0.1515,0.456,-0.8472,-0.208,0.2733,-0.297,-11.095,3.2288,-21.5338,-61.7979897393232,8.91618734556644,35.18300034602705,21.961000457964584
0.1502,0.4699,-0.842,-0.208,0.2733,-0.297,-10.08,3.1412,-23.1963,-60.944644821229126,8.860658362703397,33.67221623357628,21.973256850180462
0.1445,0.4911,-0.8364,-0.2043,0.274,-0.2957,-8.96,3.675,-24.0538,-59.7580633228902,8.512660755397352,31.75972582709975,21.98534796460578
0.1491,0.4833,-0.8406,-0.205,0.2744,-0.2963,-7.6125,4.2263,-24.4475,-60.04881981414764,8.719668752095574,32.15193006660066,21.997505614844
0.1318,0.4779,-0.8375,-0.205,0.2744,-0.2963,-7.105,4.5413,-25.3487,-60.24835493109556,7.866701049204904,31.574336129849133,22.006862036576294
0.1221,0.4683,-0.835,-0.2032,0.2742,-0.2978,-6.9563,4.445,-25.3137,-60.63239633917593,7.321694353181216,31.6222126454355,22.019054724290456
0.1211,0.4688,-0.8312,-0.2032,0.2742,-0.2978,-6.1163,4.6375,-25.9962,-60.58833640756604,7.239761260660268,31.401080216059274,22.03117521356934
0.1208,0.4717,-0.8341,-0.2023,0.2757,-0.2969,-6.44,4.305,-26.6525,-60.52599170335899,7.189426500149482,31.693941307481165,22.04335976126384
0.1229,0.4778,-0.8288,-0.2019,0.2735,-0.296,-7.1225,4.5763,-26.4075,-60.120542655993376,7.309873066075669,30.91238745237444,22.05556448205055
0.119,0.494,-0.828,-0.2019,0.2735,-0.296,-6.16,5.04,-26.0487,-59.37210197864333,7.058974811752626,29.142614816620583,22.06775115322844
0.1051,0.4805,-0.8237,-0.2008,0.2742,-0.2956,-5.5037,5.425,-24.4037,-59.65516766106567,6.364260293426466,29.28958345363412,22.07988615297716
0.096,0.4763,-0.8235,-0.2008,0.2742,-0.2956,-5.25,5.74,-22.7588,-59.87978460359569,5.832062873672468,29.163394277212994,22.092062560651996
0.0981,0.4718,-0.8251,-0.2026,0.2755,-0.3002,-3.9813,4.9088,-23.1612,-60.10553301784005,5.886057696690519,29.259803417140866,22.10424993965768
0.1032,0.4812,-0.8211,-0.2013,0.2762,-0.2979,-2.9663,4.4363,-22.7763,-59.91208371493632,6.1537511594891585,29.15514510275598,22.116464923947444
0.1124,0.4863,-0.8308,-0.2013,0.2762,-0.2979,-2.0913,4.5763,-22.8463,-59.870712976618364,6.601663202779148,29.592204279993723,22.125766489025484
0.1223,0.4982,-0.8331,-0.201,0.2753,-0.2971,-1.0937,4.6463,-23.3187,-59.46262427424893,7.117928407888099,29.292553202831474,22.13786468172877
0.1124,0.4955,-0.8322,-0.201,0.2753,-0.2971,-1.4612,5.0662,-23.3187,-59.35751010295033,6.67380492722253,28.875420508654607,22.15005843118463
0.1028,0.4885,-0.8356,-0.2014,0.2753,-0.2978,-1.645,6.0637,-22.7763,-59.48696462646821,6.133192072865441,28.873051253849063,22.162264213713033
0.0903,0.4851,-0.8373,-0.1992,0.2761,-0.2983,-1.4525,5.8713,-21.8575,-59.68087825259603,5.434938404926515,28.94261552325641,22.17443991356007
0.0848,0.4809,-0.8341,-0.1992,0.2761,-0.2983,-0.63,4.8038,-20.8512,-59.90129289779346,5.093117256089377,28.878204930654963,22.18655969501116
0.096,0.4887,-0.8359,-0.1998,0.2782,-0.2977,-0.14,3.7625,-19.9762,-59.75564479144949,5.564843234836638,29.250475512464515,22.19875309055312
0.1042,0.4924,-0.8432,-0.1998,0.2782,-0.2977,0.2187,3.4125,-20.0725,-59.7276923647497,6.002673570322996,29.723158967813028,22.210877826798786
0.1088,0.4931,-0.8396,-0.2018,0.2788,-0.3006,0.9363,3.3863,-19.6788,-59.610506438239554,6.308570649473999,29.542827728622843,22.22301707351429
0.1075,0.4928,-0.8497,-0.2008,0.2782,-0.3007,0.3237,1.9425,-19.3987,-59.81081423012289,6.257588646039178,29.702528173219527,22.235029972968057
0.1014,0.4895,-0.8399,-0.2008,0.2782,-0.3007,0.5338,1.7325,-20.2475,-59.77776843482633,6.00426711801228,29.570209444739874,22.24430464058982
0.0986,0.4876,-0.8453,-0.2018,0.2791,-0.2991,0.5688,1.5225,-20.2213,-59.95869405660681,5.8080877199581735,29.65161974635986,22.256499097873473
0.1002,0.4893,-0.8516,-0.2018,0.2791,-0.2991,0.2888,0.4987,-19.8362,-60.074735987841635,5.822176166384361,29.834819674767193,22.268213647910883
0.1045,0.4912,-0.8494,-0.1993,0.2789,-0.298,0.595,0.07,-20.0725,-59.98927682901645,6.035974767601226,30.226130520503936,22.28055214815119
0.1009,0.4918,-0.8505,-0.1998,0.2789,-0.2967,-0.1225,-0.9538,-19.7488,-59.9702361770759,5.894445243674941,30.357352815069582,22.29265387999346
0.1027,0.4884,-0.852,-0.1998,0.2789,-0.2967,-0.6038,-1.19,-18.935,-60.09988111438029,5.954350418203885,30.763275453609072,22.305251799121304
0.1103,0.4977,-0.8567,-0.1979,0.2795,-0.2995,-1.2425,-1.1812,-18.2525,-59.970026710519285,6.255926436599824,30.851290974690002,22.31750819133718
0.1204,0.5014,-0.8549,-0.1979,0.2795,-0.2995,-1.9162,-1.3562,-17.675,-59.87243965137584,6.737537933028753,31.058448455227126,22.329746180030337
0.1224,0.4986,-0.8572,-0.1958,0.2812,-0.3049,-1.9775,-1.2075,-16.6513,-59.85893073303047,6.9180272777570755,31.58737806879404,22.34191232420212
0.1183,0.494,-0.8585,-0.1985,0.281,-0.3006,-2.7388,-0.4812,-15.9075,-59.92877624689455,6.871063869267529,31.871672487541453,22.354133325028155
0.096,0.4716,-0.8456,-0.1985,0.281,-0.3006,-2.835,-0.6125,-16.275,-60.255802962968254,6.224927529134815,31.98527501996439,22.366391486813523
0.0999,0.4595,-0.8547,-0.1978,0.2769,-0.299,-0.8663,-1.26,-16.765,-61.1246812444693,6.009358153939058,32.84130619874489,22.378617796348035
0.1111,0.4543,-0.8684,-0.1978,0.2769,-0.299,-0.0175,-1.19,-18.69,-61.99857838194282,6.367111103439819,34.38153690635268,22.390680243747582
0.1289,0.4645,-0.87,-0.1967,0.2822,-0.2949,-1.575,-1.8025,-19.8362,-61.95840741387104,7.2572922701388025,36.61324224812819,22.40025821558028
0.13,0.4938,-0.8458,-0.195,0.281,-0.2987,-2.6425,-0.3763,-20.3437,-61.37040480761476,7.512111736060676,34.54623029300436,22.412549999185998
0.1204,0.4866,-0.863,-0.195,0.281,-0.2987,-0.07,1.6013,-19.6963,-60.82831264254197,7.033664658193565,34.36888505339066,22.424651377114373
0.1147,0.4898,-0.8531,-0.196,0.2822,-0.3007,-0.1312,2.7125,-20.09,-60.35689302524803,6.714856521657406,33.32940647199753,22.436861760523453
0.1138,0.4815,-0.8505,-0.196,0.2822,-0.3007,-0.6038,3.7888,-20.1163,-60.436711703614066,6.653771817042922,33.306239757575156,22.4489691549881
0.1088,0.476,-0.8543,-0.1946,0.2826,-0.302,-0.0088,4.9612,-20.475,-60.740737509877434,6.396305495882343,33.720162689119626,22.461118311292758
0.0956,0.4731,-0.8683,-0.1977,0.2818,-0.3005,0.1312,5.9237,-20.2388,-61.218303364134314,5.665231182060667,33.29343032351407,22.47325331104148
0.0794,0.4655,-0.8581,-0.1977,0.2818,-0.3005,1.1112,6.1338,-19.425,-61.452281598380225,4.8414514274180975,32.52089356967976,22.485371322923076
0.083,0.4656,-0.8722,-0.1961,0.2824,-0.3025,1.0762,5.6613,-17.71,-61.80174687127017,4.810613612183019,33.21535147741771,22.497421383336178
0.0919,0.4737,-0.8693,-0.1961,0.2824,-0.3025,-0.0788,5.5125,-16.0825,-61.53428950953949,5.05155977942288,33.139797150383686,22.509601684063895
0.0925,0.4845,-0.8648,-0.1976,0.2858,-0.3004,-1.4962,5.18,-15.19,-61.184078867953154,5.06830241285515,32.821494190681726,22.519050477323674
0.1005,0.4995,-0.8495,-0.1966,0.2852,-0.3037,0.6913,5.1625,-14.6825,-59.95697132312622,5.3002785953979235,31.181375021213015,22.531143715232385
0.0936,0.4774,-0.8624,-0.1966,0.2852,-0.3037,0.7,5.32,-13.51,-60.762531433879744,5.376903048718994,32.67309672511481,22.54323270617431
0.093,0.4651,-0.8736,-0.1987,0.2834,-0.3038,1.2075,5.1188,-12.9937,-61.70079984429094,5.3709981799717825,33.590636424999985,22.555314264924373
0.0969,0.4637,-0.8773,-0.1987,0.2834,-0.3038,0.0088,4.6813,-13.3525,-62.0074880090371,5.502937831914006,34.19598480235266,22.567445017706312
0.0974,0.4681,-0.886,-0.2013,0.2842,-0.303,-1.155,4.3575,-13.2388,-62.08374138806627,5.53482945360215,34.184754630585424,22.579623902778437
0.0933,0.4812,-0.8832,-0.1981,0.2823,-0.3026,-1.9775,4.13,-13.51,-61.92662830677855,5.389634802832998,33.121080980076975,22.59180278785056
