AcclX,AcclY,AcclZ,MagX,MagY,MagZ,GyroX,GyroY,GyroZ,Roll,Pitch,Yaw,Time Elapsed(s)
0.892,0.2729,0.0098,-0.5854,0.6116,0.1022,-0.4025,-1.5662,-5.3637,0,0,0,0.0
0.8927,0.2712,0.0082,-0.5854,0.6116,0.1022,-0.35,-1.5838,-5.6875,0,0,0,0.01600000000325963
0.8929,0.2704,0.0063,-0.5847,0.6109,0.1054,-0.35,-1.5838,-5.6875,0,0,0,0.01600000000325963
0.8929,0.2736,0.0052,-0.5847,0.6109,0.1054,0.385,-1.3125,-5.7575,0,0,0,0.031000000002677552
0.8861,0.2736,0.0052,-0.5844,0.6107,0.1106,0.4812,-0.7962,-5.67,0,0,0,0.031000000002677552
0.8908,0.2738,0.0091,-0.5844,0.6107,0.1106,0.2275,-1.225,-5.7575,0,0,0,0.04700000000593718
0.8957,0.2734,0.0068,-0.5844,0.6107,0.1106,0.2275,-1.225,-5.7575,0,0,0,0.04700000000593718
0.8954,0.275,0.0071,-0.585,0.6114,0.1174,0.3762,-1.3038,-5.8713,0,0,0,0.0629999999946449
0.8957,0.2736,0.0076,-0.585,0.6114,0.1174,-0.1488,-0.8487,-5.5825,0,0,0,0.0629999999946449
0.8957,0.2736,0.0076,-0.5846,0.6129,0.1167,0.455,-0.9975,-5.8625,0,0,0,0.07800000000861473
0.8922,0.2724,0.0096,-0.5846,0.6129,0.1167,0.455,-0.9975,-5.8625,0,0,0,0.07800000000861473
0.8893,0.2712,0.0071,-0.5846,0.6129,0.1167,0.1663,-1.015,-5.53,0,0,0,0.09400000001187436
0.888,0.2722,0.0068,-0.586,0.6105,0.1119,0.0,-1.4438,-5.5388,0,0,0,0.09400000001187436
0.8943,0.2715,0.011,-0.586,0.6105,0.1119,-0.1925,-2.1962,-6.0637,0,0,0,0.10900000001129229
0.8943,0.2715,0.0061,-0.5836,0.6096,0.1088,-0.1925,-2.1962,-6.0637,0,0,0,0.10900000001129229
0.8957,0.2732,0.0061,-0.5836,0.6096,0.1088,0.35,-2.0125,-5.985,0,0,0,0.12500000001455192
0.8946,0.2715,0.0046,-0.5846,0.6093,0.1119,0.175,-1.5225,-6.1075,0,0,0,0.12500000001455192
0.8936,0.2718,0.0062,-0.5846,0.6093,0.1119,-0.2275,-1.3913,-5.9325,0,0,0,0.14100000000325963
0.8932,0.2726,0.0099,-0.5846,0.6093,0.1119,-0.2275,-1.3913,-5.9325,0,0,0,0.14100000000325963
0.892,0.2709,0.0073,-0.585,0.6095,0.1096,-0.1225,-1.155,-5.88,0,0,0,0.15600000000267755
0.892,0.2709,0.0073,-0.585,0.6095,0.1096,0.0437,-1.225,-5.6087,0,0,0,0.15600000000267755
0.8897,0.2725,0.007,-0.5853,0.6105,0.1106,0.0437,-1.225,-6.1163,0,0,0,0.17200000000593718
0.8926,0.2732,0.0116,-0.5853,0.6105,0.1106,-0.3938,-1.3475,-6.1163,0,0,0,0.17200000000593718
0.8951,0.272,0.0073,-0.5853,0.6105,0.1106,0.0088,-1.3475,-5.9763,0,0,0,0.1870000000053551
0.8938,0.2722,0.0079,-0.5842,0.611,0.1013,0.735,-0.945,-5.8975,0,0,0,0.1870000000053551
0.8938,0.2722,0.0093,-0.5842,0.611,0.1013,0.735,-0.945,-5.8975,0,0,0,0.20300000000861473
0.8922,0.2723,0.0093,-0.5828,0.6091,0.1098,1.12,-0.6737,-5.9675,0,0,0,0.20300000000861473
0.891,0.271,0.0076,-0.5828,0.6091,0.1098,0.2975,-1.2075,-5.5213,0,0,0,0.21899999999732245
0.8897,0.273,0.0078,-0.5828,0.6091,0.1098,-0.2887,-1.7938,-5.5738,0,0,0,0.21899999999732245
0.8898,0.2739,0.0104,-0.5859,0.6103,0.1223,-0.2887,-1.7938,-5.5738,0,0,0,0.2340000000112923
0.8942,0.2723,0.0072,-0.5859,0.6103,0.1223,-0.14,-1.7413,-5.6875,0,0,0,0.2340000000112923
0.8942,0.2723,0.0072,-0.5838,0.6114,0.113,-0.0525,-1.7938,-5.5125,0,0,0,0.25
0.8936,0.272,0.0045,-0.5838,0.6114,0.113,0.07,-1.505,-5.775,0,0,0,0.25
0.8954,0.2749,0.0111,-0.5838,0.6114,0.113,0.07,-1.505,-5.775,0,0,0,0.26500000001396984
0.8939,0.2719,0.0096,-0.5842,0.6093,0.1223,0.1838,-1.0063,-5.9763,0,0,0,0.26500000001396984
0.8902,0.2715,0.0073,-0.5842,0.6093,0.1223,0.0,-1.6975,-6.1337,0,0,0,0.28100000000267755
0.8902,0.2715,0.0098,-0.585,0.6109,0.1069,0.1225,-1.1812,-5.5475,0,0,0,0.28100000000267755
0.892,0.2717,0.0098,-0.585,0.6109,0.1069,0.1225,-1.1812,-5.5475,0,0,0,0.29699999999138527
0.8922,0.274,0.0102,-0.5829,0.611,0.1046,-0.035,-1.47,-5.5213,0,0,0,0.29699999999138527
0.8926,0.2732,0.0034,-0.5829,0.611,0.1046,0.1225,-1.715,-5.8625,0,0,0,0.3120000000053551
0.8935,0.2747,0.0069,-0.5829,0.611,0.1046,0.1225,-1.7587,-5.635,0,0,0,0.3120000000053551
0.8955,0.2727,0.0109,-0.5834,0.6105,0.1108,-0.21,-1.7587,-5.635,0,0,0,0.32800000000861473
0.8955,0.2727,0.0109,-0.5834,0.6105,0.1108,0.105,-1.295,-5.8187,0,0,0,0.32800000000861473
0.8919,0.2728,0.0073,-0.5846,0.6104,0.1132,-0.2713,-1.61,-5.5912,0,0,0,0.34300000000803266
0.8891,0.2731,0.0069,-0.5846,0.6104,0.1132,-0.2713,-1.61,-5.5912,0,0,0,0.34300000000803266
0.8925,0.2736,0.0104,-0.5846,0.6104,0.1132,-0.07,-1.5575,-5.8362,0,0,0,0.3590000000112923
0.8927,0.2715,0.0073,-0.585,0.6096,0.1137,0.245,-1.9688,-6.055,0,0,0,0.3590000000112923
0.8927,0.2715,0.0073,-0.585,0.6096,0.1137,-0.21,-2.1175,-5.8888,0,0,0,0.375
0.8941,0.2734,0.0043,-0.5848,0.6112,0.1105,-0.21,-2.1175,-5.8888,0,0,0,0.39000000001396984
0.896,0.2733,0.0098,-0.5848,0.6112,0.1105,-0.3237,-1.6275,-6.265,0,0,0,0.39000000001396984
0.8943,0.2728,0.0085,-0.5848,0.6112,0.1105,-0.35,-1.1287,-5.6438,0,0,0,0.40600000000267755
0.8915,0.2721,0.0054,-0.5843,0.608,0.1174,-0.07,-1.3825,-6.265,0,0,0,0.40600000000267755
0.8896,0.272,0.0093,-0.5843,0.608,0.1174,-0.07,-1.3825,-6.265,0,0,0,0.4210000000020955
0.8896,0.272,0.0093,-0.5849,0.6106,0.1098,0.14,-0.9712,-5.9675,0,0,0,0.4210000000020955
0.8915,0.2724,0.0092,-0.5849,0.6106,0.1098,0.5075,-1.2337,-6.0113,0,0,0,0.4370000000053551
0.8916,0.2718,0.0084,-0.5849,0.6106,0.1098,0.105,-1.33,-5.9763,0,0,0,0.4370000000053551
0.8921,0.2725,0.0065,-0.5852,0.6116,0.1117,0.105,-1.33,-5.9763,0,0,0,0.4529999999940628
0.8951,0.2737,0.0095,-0.5852,0.6116,0.1117,0.0787,-1.1025,-6.2475,0,0,0,0.4529999999940628
0.8951,0.2737,0.0095,-0.584,0.6111,0.1094,-0.2362,-2.0125,-5.6175,0,0,0,0.46800000000803266
0.8933,0.2733,0.0077,-0.584,0.6111,0.1094,-0.7,-1.75,-5.9325,0,0,0,0.46800000000803266
0.894,0.273,0.0089,-0.584,0.6106,0.1067,-0.7,-1.75,-5.9325,0,0,0,0.48399999999674037
0.894,0.2727,0.0104,-0.5855,0.6106,0.1067,-0.1312,-1.3038,-5.9325,0,0,0,0.48399999999674037
0.891,0.2721,0.0081,-0.5855,0.6106,0.1067,-0.0263,-1.3825,-5.8275,0,0,0,0.4990000000107102
0.8904,0.271,0.0049,-0.5847,0.6108,0.1148,-0.0263,-1.3825,-6.1425,0,0,0,0.4990000000107102
0.8904,0.271,0.0049,-0.5847,0.6108,0.1148,0.14,-1.5137,-6.1425,0,0,0,0.5150000000139698
0.8915,0.2724,0.0057,-0.5834,0.6095,0.1118,0.2187,-1.33,-6.0637,0,0,0,0.5150000000139698
0.8922,0.2716,0.0108,-0.5834,0.6095,0.1118,-0.35,-1.4525,-6.1512,0,0,0,0.5310000000026776
0.8941,0.2709,0.009,-0.5834,0.6095,0.1118,-0.35,-1.4525,-6.1512,0,0,0,0.5310000000026776
0.8924,0.2744,0.0084,-0.5852,0.6102,0.1211,-0.315,-2.0738,-5.8975,0,0,0,0.5460000000166474
0.8924,0.2744,0.0084,-0.5852,0.6102,0.1211,0.0613,-1.3737,-5.8012,0,0,0,0.5460000000166474
0.8933,0.2731,0.0079,-0.5857,0.6088,0.1094,0.2975,-1.6275,-5.5475,0,0,0,0.5619999999908032
0.8936,0.2722,0.0059,-0.5857,0.6088,0.1094,0.2975,-1.6275,-5.5475,0,0,0,0.5619999999908032
0.8927,0.2705,0.0072,-0.5857,0.6088,0.1094,0.2625,-1.4525,-5.7838,0,0,0,0.577000000004773
0.8922,0.2743,0.0087,-0.584,0.6107,0.1036,-0.105,-1.5225,-5.6788,0,0,0,0.577000000004773
0.8923,0.2721,0.0082,-0.584,0.6107,0.1036,-0.0875,-1.4963,-5.9588,0,0,0,0.5929999999934807
0.8923,0.2721,0.0082,-0.5855,0.6107,0.1118,-0.0875,-1.4963,-5.9588,0,0,0,0.5929999999934807
0.8929,0.2721,0.0068,-0.5855,0.6107,0.1118,-0.0875,-1.2075,-5.5563,0,0,0,0.6089999999967404
0.891,0.2729,0.0071,-0.5855,0.6107,0.1118,-0.315,-1.3212,-5.7225,0,0,0,0.6089999999967404
0.8936,0.2746,0.0093,-0.5842,0.6102,0.1144,-0.105,-1.4088,-5.7925,0,0,0,0.6240000000107102
0.8965,0.2725,0.0106,-0.5842,0.6102,0.1144,-0.105,-1.4088,-5.7925,0,0,0,0.6240000000107102
0.8965,0.2725,0.0106,-0.5857,0.6102,0.1174,0.2275,-1.54,-6.09,0,0,0,0.6399999999994179
0.8933,0.2733,0.0059,-0.5857,0.6102,0.1174,-0.1225,-1.4963,-6.125,0,0,0,0.6399999999994179
0.8922,0.273,0.008,-0.5857,0.6102,0.1137,-0.1225,-1.4963,-5.6962,0,0,0,0.6550000000133878
0.8927,0.2721,0.0098,-0.5836,0.6122,0.1137,0.3675,-1.0063,-5.6962,0,0,0,0.6550000000133878
0.8907,0.2711,0.0088,-0.5836,0.6122,0.1137,0.4638,-1.2425,-5.705,0,0,0,0.6710000000020955
0.892,0.2732,0.0054,-0.5851,0.6118,0.1097,-0.2537,-1.365,-5.6175,0,0,0,0.6710000000020955
0.892,0.2732,0.0054,-0.5851,0.6118,0.1097,-0.2537,-1.365,-5.6175,0,0,0,0.6870000000053551
0.892,0.2734,0.0113,-0.5837,0.6089,0.1102,-0.35,-1.4963,-5.95,0,0,0,0.702000000004773
0.8943,0.2727,0.0074,-0.5837,0.6089,0.1102,0.1225,-1.4612,-6.37,0,0,0,0.702000000004773
0.8894,0.2738,0.0079,-0.5837,0.6089,0.1102,0.49,-0.9363,-5.9412,0,0,0,0.7179999999934807
0.8916,0.2722,0.0084,-0.586,0.611,0.114,0.49,-0.9363,-5.9412,0,0,0,0.7179999999934807
0.8916,0.2722,0.0084,-0.586,0.611,0.114,0.4375,-0.8487,-5.67,0,0,0,0.7330000000074506
0.893,0.2727,0.0098,-0.5844,0.6102,0.1086,-0.035,-1.5662,-5.6613,0,0,0,0.7330000000074506
0.8916,0.2718,0.0079,-0.5844,0.6102,0.1086,0.105,-1.4,-5.7925,0,0,0,0.7489999999961583
0.8908,0.2721,0.0082,-0.5844,0.6102,0.1086,0.105,-1.4,-5.7925,0,0,0,0.7489999999961583
0.8915,0.2719,0.0104,-0.5849,0.6104,0.1125,0.14,-1.2687,-5.6525,0,0,0,0.7649999999994179
0.8915,0.2729,0.0107,-0.5849,0.6104,0.1125,0.5688,-1.5313,-5.4862,0,0,0,0.7649999999994179
0.8932,0.2729,0.0107,-0.5839,0.6112,0.1109,0.1663,-1.1638,-5.9675,0,0,0,0.7799999999988358
0.8928,0.2742,0.0052,-0.5839,0.6112,0.1109,0.1663,-1.1638,-5.9675,0,0,0,0.7799999999988358
0.8935,0.2737,0.0037,-0.5839,0.6112,0.1109,-0.0613,-1.505,-6.2825,0,0,0,0.7960000000020955
0.8923,0.2732,0.0084,-0.5842,0.6129,0.1169,0.0613,-1.0237,-6.3088,0.046588466799179815,32.729396959738544,0.0,2.169000000008964
0.8914,0.2724,0.0124,-0.5842,0.6129,0.1169,-0.1575,-1.2862,-6.2387,0.4582314611721291,49.89540266014414,-0.0173636999993262,2.184000000008382
0.8914,0.2724,0.0124,-0.5843,0.6109,0.1056,-0.1575,-1.2862,-6.2387,0.8036776405327423,59.742474066822204,-0.034148610003166865,2.2000000000116415
0.8895,0.2721,0.0093,-0.5843,0.6109,0.1056,-0.0525,-1.3212,-5.9412,0.8956637656313148,63.8244084996549,-0.04856994898485465,2.2149999999965075
0.8922,0.2738,0.0086,-0.5843,0.6109,0.1056,0.2713,-1.96,-5.7312,1.0688492784573709,65.56192445663432,-0.07193695409211918,2.230999999999767
0.8952,0.2722,0.009,-0.5851,0.6102,0.1159,0.2713,-1.96,-5.74,1.2269841863159745,67.0389644307703,-0.09296725868865725,2.247000000003027
0.8933,0.2733,0.0066,-0.5851,0.6102,0.1159,0.0787,-1.6275,-5.74,1.2336578972378542,68.20720972749258,-0.10564178281893893,2.2620000000024447
0.8933,0.2733,0.0066,-0.5853,0.6113,0.1179,-0.2013,-1.1638,-5.3463,1.2621900608317942,68.82717849616512,-0.11183632454045925,2.2780000000057044
0.892,0.2733,0.0066,-0.5853,0.6113,0.1179,-0.315,-1.435,-5.7137,1.2935524427843266,69.56774163375589,-0.12002519208566156,2.2930000000051223
0.8937,0.2723,0.0097,-0.5844,0.611,0.1103,-0.315,-1.435,-5.7137,1.4867581584850706,70.1906276263619,-0.12868667288130523,2.309000000008382
0.8915,0.2705,0.0077,-0.5844,0.611,0.1103,-0.105,-1.5838,-5.67,1.5043177123116371,70.62518694046912,-0.13862472559782107,2.3250000000116415
0.8909,0.2735,0.0088,-0.5844,0.611,0.1103,0.2625,-1.4963,-5.8012,1.5672624086091231,71.1638493901452,-0.1449623030372551,2.3400000000110595
0.8907,0.2725,0.0112,-0.5846,0.6104,0.109,0.1925,-1.5225,-5.845,1.674768517544487,71.63311083824159,-0.15239007271805635,2.355999999999767
0.8907,0.2725,0.0112,-0.5846,0.6104,0.109,0.1925,-1.5225,-5.845,1.7675763686730643,71.98082524004396,-0.15770481544545314,2.370999999999185
0.894,0.271,0.0062,-0.5841,0.6104,0.1122,-0.3063,-1.0762,-5.81,1.6515178248241404,72.25631353882292,-0.15743161390406504,2.3870000000024447
0.8922,0.2741,0.008,-0.5841,0.6104,0.1122,-0.0875,-1.3563,-5.7663,1.653715510035925,72.39675243305823,-0.16121917251763748,2.4030000000057044
0.8944,0.274,0.0051,-0.5841,0.6104,0.1122,-0.0088,-1.2775,-6.2913,1.6295386999053634,72.64846495710331,-0.1623435052652045,2.4180000000051223
0.894,0.2728,0.0071,-0.5846,0.611,0.1069,-0.0088,-1.2775,-6.2913,1.6238309112651026,72.81544505061855,-0.16450515474243183,2.434000000008382
0.894,0.272,0.0091,-0.5846,0.611,0.1069,-0.63,-1.6363,-5.8538,1.7404973237553671,72.88224805241018,-0.17014468926733145,2.4490000000078
0.8911,0.272,0.0091,-0.5834,0.6105,0.1105,0.2975,-1.1463,-6.0375,1.7771186751196044,72.92951942789512,-0.16963694034396115,2.4650000000110595
0.8899,0.2729,0.0067,-0.5834,0.6105,0.1105,0.735,-1.3388,-5.8012,1.6243549539732607,72.93344567432602,-0.17195196631349263,2.481000000014319
0.8919,0.2716,0.0095,-0.5834,0.6105,0.1105,0.735,-1.3388,-5.8012,1.780493133331771,72.96162263431047,-0.1728305696639081,2.495999999999185
0.8931,0.2706,0.0034,-0.5849,0.6103,0.1026,0.8225,-1.26,-5.8888,1.3129336339497604,73.01268135908815,-0.17369151270121375,2.5120000000024447
0.8926,0.2743,0.007,-0.5849,0.6103,0.1026,0.0613,-1.365,-6.055,1.3168728957588096,72.97667719204651,-0.1747498614303773,2.5270000000018626
0.8926,0.2743,0.007,-0.5861,0.6101,0.1116,0.0613,-1.365,-5.7838,1.320707947701422,72.9622758193223,-0.17693087529134402,2.5430000000051223
0.8921,0.2733,0.0095,-0.5861,0.6101,0.1116,-0.21,-1.3563,-5.7838,1.4521995119530844,72.96122036064027,-0.17876850776618855,2.559000000008382
0.8941,0.2715,0.0076,-0.5861,0.6101,0.1116,-0.245,-1.5137,-5.6525,1.4852029526933699,72.98039284896014,-0.18132660698877673,2.5740000000078
0.8918,0.2738,0.0088,-0.5843,0.611,0.1094,-0.3413,-1.6712,-5.88,1.5822825101800353,72.96478303325074,-0.1872592262948018,2.5900000000110595
0.891,0.2732,0.0113,-0.5843,0.611,0.1094,-0.3413,-1.6712,-5.88,1.796882251109626,72.95778592264065,-0.19109450366444614,2.6050000000104774
0.891,0.2732,0.0074,-0.5844,0.6122,0.1086,0.315,-0.98,-6.0462,1.743086524141036,72.95410818825327,-0.18609705330087653,2.621000000013737
0.8919,0.2732,0.0074,-0.5844,0.6122,0.1086,-0.0525,-1.4963,-5.9763,1.727817525013638,72.95720370542008,-0.18903406795558192,2.6370000000024447
0.8946,0.2729,0.0077,-0.5855,0.6117,0.1082,0.1312,-1.4438,-5.6262,1.7179410400718846,72.96552658701245,-0.18962196115926738,2.6520000000018626
0.8929,0.2738,0.0092,-0.5855,0.6117,0.1082,0.1312,-1.4438,-5.6262,1.7362164542357632,72.96294889561892,-0.19145048504757625,2.6680000000051223
0.8947,0.2724,0.0084,-0.5855,0.6117,0.1082,-0.14,-1.1725,-5.7663,1.7406735686625558,72.98342843720854,-0.1881341865422044,2.68300000000454
0.893,0.2726,0.0096,-0.5855,0.6117,0.1121,-0.1663,-1.855,-5.915,1.7867964493249906,72.99263634822073,-0.1960327678934259,2.6990000000078
0.893,0.2726,0.0096,-0.5855,0.6117,0.1121,0.0088,-1.6275,-6.0462,1.7924808090594424,73.00043078677346,-0.19986549110885787,2.7150000000110595
0.8906,0.2731,0.009,-0.5857,0.6114,0.1141,0.0088,-1.6275,-6.0462,1.794827843724452,72.98013004495412,-0.2018501919971195,2.7300000000104774
0.8918,0.2721,0.0104,-0.5857,0.6114,0.1141,0.0962,-1.4438,-5.5738,1.8178565458367644,72.98307670789303,-0.20245589280164317,2.746000000013737
0.8921,0.272,0.0092,-0.5857,0.6114,0.1141,0.3237,-1.295,-5.8888,1.8446566258067612,72.99758620165379,-0.1996928035038402,2.760999999998603
0.8908,0.2724,0.0065,-0.5846,0.6126,0.1176,0.4025,-1.6538,-5.9938,1.7160503502848183,72.9957939703011,-0.20353824315830787,2.7770000000018626
0.8908,0.2724,0.0102,-0.5846,0.6126,0.1176,0.4025,-1.6538,-5.9938,1.8313736315224314,72.99238027035958,-0.2069991388473288,2.7930000000051223
0.894,0.2738,0.0102,-0.5843,0.6113,0.1106,0.2275,-1.295,-5.4075,1.8803266515440626,72.98983829183899,-0.20378172496191752,2.80800000000454
0.8937,0.2727,0.0065,-0.5843,0.6113,0.1106,0.0088,-0.9712,-5.6,1.8676079262227736,72.99332062289085,-0.19738883246857494,2.8240000000078
0.8918,0.2729,0.0076,-0.5843,0.6113,0.1106,-0.35,-1.5662,-5.8625,1.7920138901669098,72.98951129236158,-0.19879364922089698,2.8390000000072177
0.8895,0.2715,0.0093,-0.5855,0.6121,0.1043,-0.35,-1.5662,-5.8625,1.8391475270503106,72.99688645673045,-0.20146756430340199,2.8550000000104774
0.8925,0.2719,0.0092,-0.5855,0.6121,0.1043,-0.4725,-1.6888,-5.7575,1.8723609511251444,73.00739811524623,-0.20563952787801618,2.871000000013737
0.8925,0.2719,0.0092,-0.5833,0.6114,0.1075,0.1138,-1.7413,-6.4313,1.877198710341364,73.02678943850485,-0.20858312508930235,2.886000000013155
0.8901,0.2721,0.007,-0.5833,0.6114,0.1075,0.1138,-1.7413,-5.775,1.8474198835405118,73.02017575538186,-0.21279953258548054,2.9020000000164146
0.8921,0.2735,0.0068,-0.5833,0.6114,0.1075,-0.035,-1.75,-5.775,1.8200584946662333,73.00496319076646,-0.21514457930309644,2.9170000000012806
0.8944,0.2729,0.0081,-0.5842,0.6133,0.111,0.3588,-1.435,-5.7488,1.7906591369847273,73.00899768278138,-0.2142941213769966,2.93300000000454
0.8962,0.2718,0.0087,-0.5842,0.6133,0.111,-0.245,-1.4875,-5.4775,1.7999738900285767,73.01095964536842,-0.21428470922417941,2.948999999993248
0.8962,0.2718,0.0074,-0.5885,0.6103,0.1113,-0.245,-1.4875,-5.4775,1.7475080451245795,73.01292673788346,-0.2129374883204636,2.9640000000072177
0.8888,0.2722,0.0074,-0.5885,0.6103,0.1113,-0.4288,-1.5662,-5.495,1.6873040600323068,73.01290635032127,-0.21419701949301195,2.9800000000104774
0.8897,0.2716,0.0094,-0.5862,0.6107,0.1152,-0.0263,-1.3125,-5.5213,1.7041082897410147,73.01294620345534,-0.2104960675430232,2.9950000000098953
0.8926,0.2718,0.0091,-0.5862,0.6107,0.1152,0.07,-1.6712,-5.775,1.7115007927578418,73.02221455175548,-0.21351174079362362,3.011000000013155
0.891,0.2719,0.0076,-0.5862,0.6107,0.1152,0.07,-1.6712,-5.775,1.7076769616795449,73.0224991000285,-0.21622584669727676,3.0270000000018626
0.8914,0.2729,0.0064,-0.5822,0.6102,0.1142,-0.3762,-1.8463,-5.67,1.6017052672668517,73.01525347052487,-0.21952831202658188,3.0420000000012806
0.8914,0.2729,0.0064,-0.5822,0.6102,0.1142,0.6562,-0.9187,-5.8625,1.5026606814865575,73.00410844996229,-0.21080476082661886,3.05800000000454
0.8947,0.2726,0.007,-0.5849,0.6109,0.1079,0.4812,-1.0412,-5.7663,1.4928652202850587,73.0138126296896,-0.20378048474341154,3.073000000003958
0.8921,0.2741,0.0074,-0.5849,0.6109,0.1079,0.4812,-1.0412,-5.7663,1.5094245796863792,72.99263110707005,-0.19839571627212493,3.0890000000072177
0.8932,0.2735,0.0098,-0.5849,0.6109,0.1079,-0.2537,-1.5137,-6.16,1.6307190442805197,72.9815964087111,-0.20035342462952863,3.1049999999959255
0.8934,0.272,0.0098,-0.5848,0.6091,0.109,0.0525,-1.4612,-6.195,1.638526001626057,73.01243381691329,-0.20004428218494721,3.1200000000098953
0.8934,0.272,0.0054,-0.5848,0.6091,0.109,0.3063,-0.9712,-5.7225,1.5313006422505493,73.02192531920578,-0.19402513395658214,3.135999999998603
0.8916,0.2718,0.0054,-0.5835,0.6102,0.1102,0.3063,-0.9712,-5.7225,1.447194440464961,73.02587209108609,-0.18773382057313467,3.151000000012573
0.8872,0.2736,0.0112,-0.5835,0.6102,0.1102,-0.525,-1.6888,-5.8713,1.7688502593401367,72.97713350301899,-0.1932791585207756,3.1670000000158325
0.8917,0.2727,0.0106,-0.5835,0.6102,0.1102,0.2537,-1.3038,-5.6,1.8511555468681742,72.9777079775238,-0.19272596265544745,3.18300000000454
0.893,0.2729,0.004,-0.5844,0.6085,0.1181,0.2537,-0.9363,-6.0113,1.6690604948335601,72.98705508340078,-0.1860934163894122,3.198000000003958
0.8919,0.2733,0.0092,-0.5844,0.6085,0.1181,0.4725,-0.9363,-6.0113,1.7479772759731513,72.97599754375018,-0.18096679475321778,3.2140000000072177
0.8919,0.2733,0.0092,-0.5857,0.6096,0.1105,0.2975,-1.5225,-6.0637,1.7855061232444736,72.96823050140213,-0.18342386527709842,3.2290000000066357
0.895,0.2736,0.0072,-0.5857,0.6096,0.1105,0.035,-1.3388,-6.0025,1.7852635795569312,72.97762423165993,-0.1843601987533162,3.2450000000098953
0.8938,0.273,0.0068,-0.5857,0.6096,0.1105,0.035,-1.3388,-6.0025,1.7849509596742428,72.9886521538893,-0.18520289886437827,3.260999999998603
0.8906,0.2719,0.0073,-0.5848,0.611,0.1194,-0.3413,-1.365,-5.7225,1.7175213874565345,72.99386342213272,-0.18511010899510238,3.276000000012573
0.8926,0.2724,0.0123,-0.5848,0.611,0.1194,0.0525,-1.2775,-5.5912,1.7331790242030707,72.99551634895263,-0.18499509808260886,3.2920000000012806
0.8926,0.2724,0.0123,-0.5848,0.61,0.1126,0.1138,-1.4875,-5.705,1.7960666309884192,72.99850689478374,-0.18657683827356872,3.3070000000006985
0.8958,0.2731,0.0106,-0.5848,0.61,0.1126,0.1138,-1.4875,-5.705,1.8275524823038887,73.00452185290801,-0.18933915445057567,3.323000000003958
0.8925,0.2732,0.0054,-0.5848,0.6105,0.1119,-0.1838,-1.785,-6.1775,1.7031572898510532,72.99343528914349,-0.19610923898737703,3.338999999992666
0.8926,0.2744,0.0096,-0.5852,0.6105,0.1119,-0.2013,-1.855,-6.4313,1.7604296584426924,72.94916521906494,-0.20154081511196198,3.3540000000066357
0.8927,0.273,0.0107,-0.5852,0.6105,0.1119,-0.2625,-1.96,-5.6,1.8711718155381942,72.95240044854124,-0.2096107335808462,3.3699999999953434
0.8916,0.274,0.006,-0.5838,0.6094,0.1061,-0.2625,-1.96,-5.6,1.7300858589396568,72.94869773893112,-0.21510966024740438,3.3850000000093132
0.8916,0.274,0.006,-0.5838,0.6094,0.1061,0.0263,-1.54,-5.8713,1.7263919817492337,72.93902374204174,-0.21577469422718182,3.401000000012573
0.8918,0.2743,0.0113,-0.5858,0.609,0.113,0.315,-1.61,-5.9588,1.8651140110989977,72.92333792227866,-0.2173812247881011,3.4170000000012806
0.8941,0.2746,0.0081,-0.5858,0.609,0.113,0.245,-1.5137,-6.1775,1.8345464975289458,72.92198527973076,-0.21607805232832253,3.4320000000152504
0.8926,0.2716,0.0096,-0.5858,0.609,0.113,0.245,-1.5137,-6.1775,1.8675988547067686,72.98042206432434,-0.21626752708010646,3.448000000003958
0.893,0.2725,0.0079,-0.5876,0.6107,0.1158,0.42,-1.575,-5.9412,1.8099598443822094,72.99375023305032,-0.21590327437127074,3.463000000003376
0.893,0.2725,0.0079,-0.5876,0.6107,0.1158,0.7175,-1.2075,-6.0462,1.7493211862222064,73.00436932027596,-0.21170094692187177,3.4789999999920838
0.8926,0.2717,0.0068,-0.585,0.6116,0.1116,-0.07,-1.33,-6.1512,1.7195536826524518,73.02845723834119,-0.20968285223358638,3.4949999999953434
0.8899,0.272,0.0072,-0.585,0.6116,0.1116,-0.07,-1.33,-6.1512,1.7003853164126426,73.01659114173988,-0.20666956702694964,3.5100000000093132
0.8907,0.273,0.0084,-0.585,0.6116,0.1116,0.0787,-1.5575,-5.88,1.703031163461302,72.99867169102001,-0.20843061030842572,3.525999999998021
0.8915,0.2747,0.007,-0.5852,0.6108,0.1114,-0.2187,-1.6275,-5.81,1.6539286737212504,72.9676443982646,-0.20955879929804547,3.541000000011991
0.8927,0.2738,0.0071,-0.5852,0.6108,0.1114,-0.2187,-1.6275,-5.845,1.6199234059174947,72.9613391131009,-0.21203891935170055,3.5570000000006985
0.8927,0.2738,0.0071,-0.5842,0.6097,0.112,0.035,-1.2862,-5.845,1.6198060897091895,72.95666700873826,-0.20935630742030378,3.573000000003958
0.8936,0.2733,0.005,-0.5842,0.6097,0.112,-0.14,-1.0938,-5.6438,1.5350208032709953,72.96116846995545,-0.2031869766777004,3.588000000003376
0.8934,0.2714,0.0074,-0.5842,0.6097,0.112,0.0875,-1.1638,-5.6262,1.5363797650921887,72.97678020532332,-0.19962699899810257,3.6039999999920838
0.8927,0.2714,0.0081,-0.5842,0.6126,0.1171,0.0875,-1.1638,-5.6262,1.5451514967733126,72.98900558992814,-0.19537559911292463,3.6190000000060536
0.8917,0.2719,0.0142,-0.5842,0.6126,0.1171,0.385,-0.9975,-6.0637,1.920319433838315,73.00043201104971,-0.19020203919149453,3.6349999999947613
0.8917,0.2719,0.0142,-0.5845,0.6122,0.1092,-0.105,-1.155,-5.845,2.0509109727881247,73.00564027123768,-0.18781383527573348,3.650999999998021
0.8903,0.2727,0.0067,-0.5845,0.6122,0.1092,0.2625,-1.225,-5.74,1.9312770633681153,72.99770670683726,-0.1855699517475184,3.665999999997439
0.8916,0.2723,0.0067,-0.5845,0.6122,0.111,0.2625,-1.225,-5.74,1.8342691125901023,73.00054868131474,-0.1846529565763603,3.6820000000006985
0.8936,0.2745,0.0073,-0.5854,0.6104,0.111,0.0437,-0.8487,-5.8362,1.831320943552786,72.97961224728215,-0.17764511092939483,3.6970000000146683
0.8967,0.2721,0.0077,-0.5854,0.6104,0.111,-0.1838,-1.295,-5.8012,1.7936782356884817,73.01094451242543,-0.1785285998232942,3.713000000003376
0.8902,0.2721,0.0068,-0.5834,0.6117,0.1094,-0.0525,-1.5488,-5.8625,1.7648106092905342,73.00763443049473,-0.18297845984550842,3.7290000000066357
0.8902,0.2721,0.0068,-0.5834,0.6117,0.1094,-0.0525,-1.5488,-5.8625,1.7382443391739735,73.00521311619198,-0.1855894138601462,3.7440000000060536
0.8929,0.2741,0.0087,-0.5852,0.6113,0.1159,-0.3325,-1.6013,-6.055,1.7596328600764268,72.9770107897862,-0.1900891924578575,3.7599999999947613
0.8921,0.2735,0.0123,-0.5852,0.6113,0.1159,0.035,-1.4875,-5.775,1.7603440580497434,72.96876756305484,-0.19116152323077387,3.775000000008731
0.891,0.2713,0.0066,-0.5852,0.6113,0.1159,0.4812,-1.3212,-5.6875,1.6470315773954831,72.98352183258278,-0.19107065089426906,3.790999999997439
0.8909,0.2735,0.0064,-0.5847,0.6117,0.1178,0.4812,-1.3212,-5.6875,1.5523279327571962,72.97481543161533,-0.19098886580871813,3.8070000000006985
0.8909,0.2735,0.0064,-0.5847,0.6117,0.1178,0.5075,-1.3913,-5.81,1.484269957145753,72.96396805240481,-0.19067252922711747,3.8220000000001164
0.8931,0.2723,0.0104,-0.585,0.6115,0.1135,0.1838,-1.1988,-6.475,1.5757883960685188,72.9977549979907,-0.18886799630792261,3.838000000003376
0.8927,0.2724,0.0097,-0.585,0.6115,0.1135,0.1838,-1.1988,-6.3612,1.636145655735736,73.00841578675238,-0.18616499667650235,3.853000000002794
0.8897,0.2741,0.0063,-0.585,0.6115,0.1135,0.2013,-0.595,-6.3612,1.590387807450661,72.94541774259335,-0.1761164970028051,3.8689999999915017
0.8932,0.2731,0.0111,-0.585,0.6118,0.1187,-0.0525,-1.2163,-5.8888,1.6491491030903032,72.95673923241553,-0.1760195673060928,3.8849999999947613
0.8927,0.271,0.0073,-0.585,0.6118,0.1187,-0.4812,-1.3038,-5.74,1.6130566561423736,72.98633023672522,-0.1760189105748005,3.8999999999941792
0.8927,0.271,0.0073,-0.5849,0.6119,0.11,-0.4812,-1.3038,-5.74,1.589238399787191,73.01010651453399,-0.17719173952114536,3.915999999997439
0.8926,0.2721,0.006,-0.5849,0.6119,0.11,0.0875,-1.4175,-5.67,1.5727188903750904,73.01496648047767,-0.17860881558685285,3.9310000000114087
0.8946,0.2727,0.0071,-0.5849,0.6119,0.11,-0.21,-1.6187,-5.6438,1.5567646369830146,73.01843891322078,-0.18405721401171662,3.9470000000001164
0.8928,0.2726,0.0092,-0.5843,0.6118,0.1055,0.0,-1.365,-6.1163,1.5691789281303536,73.01589829586418,-0.1853074926145494,3.963000000003376
0.8899,0.2731,0.0079,-0.5843,0.6118,0.1055,0.0,-1.365,-6.1163,1.5720751309137437,72.9840047639738,-0.1852042433523794,3.978000000002794
0.8899,0.2731,0.0079,-0.5846,0.6113,0.1122,0.3063,-1.1638,-5.7488,1.590231530006761,72.97362060914037,-0.18344253902055568,3.9940000000060536
0.8907,0.2724,0.0087,-0.5846,0.6113,0.1122,0.4112,-1.1463,-5.7838,1.6556963454422542,72.97656805063393,-0.18057333510288684,4.00899999999092
0.8908,0.2721,0.0059,-0.5846,0.6113,0.1094,0.035,-0.9712,-5.7838,1.6553356443864053,72.98419476145571,-0.17650128159544734,4.024999999994179
0.8929,0.2736,0.0115,-0.5865,0.6106,0.1094,0.035,-0.9712,-5.7838,1.655991143171343,72.97650993553265,-0.1728364334387518,4.040999999997439
0.8957,0.274,0.0093,-0.5865,0.6106,0.1094,-0.42,-1.7237,-6.1425,1.7459258408726366,72.97850389499966,-0.17882274009397361,4.055999999996857
0.8957,0.275,0.0061,-0.5858,0.6102,0.1078,-0.07,-1.7938,-5.9237,1.7011102024574027,72.96347571461418,-0.18677118608983867,4.072000000000116
0.8921,0.275,0.0061,-0.5858,0.6102,0.1078,0.14,-1.1375,-5.5738,1.6599055556497724,72.95621244588834,-0.18345031748025892,4.086999999999534
0.8938,0.2738,0.0101,-0.5854,0.6116,0.1116,0.14,-1.1375,-5.5738,1.7032435092766849,72.95631020275606,-0.18148528573557007,4.103000000002794
0.8949,0.2722,0.0093,-0.5854,0.6116,0.1116,0.1575,-1.4525,-5.915,1.7310910744874561,72.99068237139858,-0.18425275716627423,4.119000000006054
0.8909,0.2726,0.0052,-0.5854,0.6116,0.1116,-0.21,-1.435,-6.1425,1.6058466850847148,72.98800946777011,-0.18519998144889505,4.1340000000054715
0.8907,0.273,0.0124,-0.585,0.611,0.1129,-0.0787,-1.155,-5.9938,1.7067083615022205,72.9730796995519,-0.1833119832922672,4.149999999994179
0.8907,0.273,0.0124,-0.585,0.611,0.1129,-0.0787,-1.155,-5.9938,1.7973439018130735,72.96311562668679,-0.1805732849624354,4.164999999993597
0.8918,0.2719,0.0074,-0.5846,0.6118,0.1113,0.0962,-1.155,-5.775,1.7834121474125049,72.9795191474293,-0.17914795646958026,4.180999999996857
0.8935,0.2747,0.0071,-0.5846,0.6118,0.1113,0.4812,-1.4,-5.8975,1.6898456290409505,72.95813971779455,-0.18139316082672938,4.197000000000116
0.8978,0.2737,0.0092,-0.5846,0.6118,0.1113,0.4812,-1.4,-6.2475,1.7625532955642926,72.99190441758812,-0.18215384474332302,4.211999999999534
0.8919,0.2716,0.0066,-0.5857,0.6094,0.1148,0.0088,-1.3212,-6.2475,1.753401073148653,73.020630441098,-0.1829637402728667,4.228000000002794
0.8919,0.2734,0.0091,-0.5857,0.6094,0.1148,0.3675,-1.1725,-6.055,1.791644541477992,72.99489053195269,-0.18049611624496578,4.243000000002212
0.8927,0.2734,0.0091,-0.5866,0.6114,0.1092,-0.4725,-1.4262,-6.125,1.8302198522708404,72.98268032487674,-0.1829837846246532,4.2590000000054715
0.8918,0.2718,0.0106,-0.5866,0.6114,0.1092,-0.4725,-1.4262,-6.125,1.9657825410736416,73.00399302781884,-0.18522268616637189,4.275000000008731
0.8883,0.2726,0.0074,-0.5866,0.6114,0.1092,-0.5075,-1.7413,-5.355,1.821449657439915,72.99536956528955,-0.19020796752601715,4.289999999993597
0.8915,0.2722,0.008,-0.5834,0.6101,0.1186,0.455,-1.19,-5.775,1.780572318386545,72.99948092815708,-0.1883231707769065,4.305999999996857
0.8943,0.2724,0.0074,-0.5834,0.6101,0.1186,0.3588,-1.3913,-5.8187,1.7255574775281113,73.01270028335207,-0.188273403698487,4.320999999996275
0.8943,0.2724,0.0074,-0.5847,0.6131,0.1134,0.3588,-1.3913,-5.8187,1.684026593409213,73.02269027412864,-0.18948078333271992,4.336999999999534
0.8952,0.2715,0.0069,-0.5847,0.6131,0.1134,0.0787,-1.505,-5.1537,1.674288888968095,73.04827504804541,-0.19220470500386308,4.353000000002794
0.8959,0.275,0.0079,-0.5847,0.6131,0.1134,-0.1488,-1.0063,-5.635,1.6698368301048911,73.03370402095183,-0.1865692845029496,4.368000000002212
0.8921,0.2711,0.0088,-0.5858,0.6116,0.1169,-0.1663,-1.2513,-5.6087,1.7014514963610432,73.03924000536863,-0.18593107605632553,4.3840000000054715
0.8895,0.2715,0.0077,-0.5858,0.6116,0.1169,-0.1663,-1.2513,-5.6087,1.6886080633084917,73.0372753468902,-0.18423051845003746,4.399000000004889
0.9051,0.2727,0.0113,-0.585,0.6107,0.1185,-0.0088,-1.0412,-5.7137,1.7167709286231072,73.0698774332505,-0.18080074660808826,4.415000000008149
0.8932,0.2727,0.0113,-0.585,0.6107,0.1185,0.2013,-1.6888,-5.95,1.8107383271030315,73.05069170954846,-0.18703939195223382,4.431000000011409
0.8932,0.2724,0.0076,-0.5863,0.6109,0.1115,0.105,-1.645,-5.8975,1.7966684506071136,73.04579021269798,-0.19054295273460456,4.445999999996275
0.8918,0.2731,0.004,-0.5863,0.6109,0.1115,0.105,-1.645,-5.8975,1.733296288543376,73.02459537732699,-0.19813765747734527,4.464000000007218
0.8957,0.2745,0.0102,-0.5863,0.6109,0.1115,0.1225,-1.6712,-6.0025,1.7653487901158615,72.99966378846857,-0.200885091706848,4.478999999992084
0.8955,0.2724,0.0082,-0.5848,0.612,0.1126,-0.0088,-1.855,-5.8275,1.7636568347337236,73.01811055456963,-0.20750858254160517,4.494999999995343
0.8955,0.2724,0.0082,-0.5848,0.612,0.1126,2.2313,-0.7962,-5.7663,1.7365701105988829,73.02995053108725,-0.19822300428978046,4.510999999998603
0.8932,0.2709,0.008,-0.5844,0.6102,0.1071,0.0613,-0.7962,-5.7663,1.735378376235329,73.04934669779071,-0.1891494038603853,4.525999999998021
0.8886,0.2716,0.0099,-0.5844,0.6102,0.1071,-0.0088,-1.0588,-5.5125,1.7498735934150271,73.04841205840819,-0.18548118347745296,4.542000000001281
0.892,0.2723,0.0106,-0.5844,0.6102,0.1071,-0.0787,-1.82,-5.9588,1.7984779628194194,73.0369059439033,-0.19150306512875423,4.5570000000006985
0.8921,0.2727,0.0079,-0.5861,0.6114,0.1135,-0.0787,-1.82,-5.9588,1.784374085469344,73.02387976266186,-0.1985607586212181,4.573000000003958
0.8921,0.2766,0.0074,-0.5861,0.6114,0.1135,0.105,-1.5488,-5.8625,1.7677039998238986,72.95514674890242,-0.20100740276363996,4.589000000007218
0.8926,0.2766,0.0074,-0.5844,0.6121,0.111,0.3413,-1.2337,-5.6962,1.712431770056739,72.92535756548322,-0.19756161248662968,4.604000000006636
0.8954,0.2753,0.0084,-0.5844,0.6121,0.111,0.5688,-1.3125,-5.6438,1.7247107872597813,72.92232991519388,-0.1967054512246277,4.619999999995343
0.896,0.2728,0.0049,-0.5844,0.6121,0.111,0.5688,-1.3125,-5.6438,1.482338486552696,72.94060750719356,-0.19475365610147735,4.634999999994761
0.8946,0.2725,0.0115,-0.5849,0.6115,0.1159,0.315,-1.155,-5.4163,1.6871953743099974,72.94824609615395,-0.191910290494718,4.650999999998021
0.891,0.2711,0.0106,-0.5849,0.6115,0.1159,0.1575,-0.6037,-5.6962,1.7478100380885457,72.96770743338791,-0.18141254144701727,4.667000000001281
0.891,0.2711,0.0106,-0.5844,0.6106,0.1124,-0.2362,-0.805,-5.4425,1.852361827712667,72.97258132429339,-0.17413878730189383,4.6820000000006985
0.8903,0.2708,0.0092,-0.5844,0.6106,0.1124,-0.2362,-0.805,-5.4425,1.8722423309600604,72.97761813721402,-0.16831690857406606,4.698000000003958
0.8896,0.2736,0.0065,-0.5844,0.6106,0.1124,-0.2625,-1.6275,-5.3025,1.7552720752023545,72.96505976782628,-0.17345646771580686,4.713000000003376
0.891,0.2736,0.0082,-0.5854,0.6096,0.1083,0.2713,-1.5925,-5.7312,1.7478745615492246,72.9569578134872,-0.17904282094889803,4.729000000006636
0.8949,0.2715,0.0029,-0.5854,0.6096,0.1083,0.455,-1.5575,-5.67,1.4114130336460804,72.98149142693597,-0.18356653885857743,4.745000000009895
0.8949,0.2744,0.013,-0.5861,0.6114,0.1032,0.455,-1.5575,-5.67,1.7967814488795517,72.97459179693358,-0.18623613495150562,4.759999999994761
0.8989,0.2744,0.013,-0.5861,0.6114,0.1032,0.3413,-1.47,-5.6175,2.011948130401345,72.97807572638372,-0.18878052146066754,4.775999999998021
0.8975,0.2744,0.0096,-0.5844,0.6139,0.105,-0.0787,-1.3125,-5.53,2.011111854796181,72.97846763145834,-0.1876212193139132,4.790999999997439
0.8841,0.2688,0.0052,-0.5844,0.6139,0.105,-0.2713,-0.3413,-5.6613,1.7998747319936723,72.99373026175762,-0.17377381738352315,4.8070000000006985
0.8733,0.278,0.006,-0.5844,0.6139,0.105,-0.2713,-0.3413,-5.6613,1.668041948658344,72.90046704247115,-0.1613111556461721,4.823000000003958
0.9188,0.2697,0.0262,-0.5837,0.6112,0.1103,-0.14,-1.1988,-6.02,2.243539821206758,73.13025830598656,-0.16136384008092688,4.838000000003376
0.9188,0.2697,0.0262,-0.5837,0.6112,0.1103,-0.8313,-3.9813,-5.635,3.776849181130503,73.18390736471702,-0.202558176084514,4.854000000006636
0.9089,0.2788,0.0035,-0.585,0.6114,0.1179,-0.8313,-3.9813,-5.495,2.3583344216673527,73.18380256947947,-0.23604990847397694,4.869000000006054
0.8546,0.2849,-0.0005,-0.585,0.6114,0.1179,0.5775,-0.49,-5.495,1.4926372587342471,73.18308973589522,-0.21950091762801674,4.885000000009313
0.9021,0.2496,-0.017,-0.585,0.6114,0.1179,0.3237,0.805,-6.3437,0.28254513109592166,73.78738400731615,-0.18595882587339632,4.900999999998021
0.9057,0.2742,0.0569,-0.5849,0.6104,0.1117,-0.6562,-2.1788,-5.495,4.954900378122593,73.78695786148538,-0.19677674328491526,4.915999999997439
0.8804,0.265,-0.0092,-0.5849,0.609,0.1118,1.3125,-1.0762,-6.3612,1.0591166850453155,73.53255363433738,-0.19259634895958094,4.9320000000006985
0.9021,0.2847,0.0144,-0.5834,0.6095,0.1114,-0.6737,-3.2287,-5.39,1.8202366725703987,73.4305789449786,-0.21692416406193143,4.947000000000116
0.9085,0.2734,0.0077,-0.5827,0.6087,0.1098,0.7962,-1.4438,-6.8688,1.7307151113089823,73.3233772247565,-0.2160224676599739,4.963000000003376
0.8908,0.2811,0.0188,-0.5827,0.6087,0.1098,-0.4988,-1.1988,-5.4425,2.4592346118501376,73.27945085297668,-0.2116829408974934,4.979000000006636
0.8804,0.2724,0.0077,-0.5832,0.6103,0.1178,1.7413,-0.21,-6.3875,1.9294763545107876,73.05397601403709,-0.19334964680763403,4.994000000006054
0.883,0.2637,0.0091,-0.5838,0.6092,0.1107,-0.4112,-1.75,-6.0813,1.9439436911810923,73.16808897184336,-0.19921468213200455,5.010000000009313
0.8938,0.2811,0.01,-0.585,0.6115,0.1106,-0.7175,-2.2225,-6.1163,1.984050787306499,72.92416033720382,-0.20929696388853233,5.024999999994179
0.8936,0.2777,-0.0002,-0.5853,0.6106,0.1082,1.2775,-1.4963,-5.7137,0.8615346676536603,72.89054980483604,-0.20991398750406876,5.040999999997439
0.8983,0.274,0.0116,-0.5853,0.6106,0.1082,0.2275,-1.3038,-5.9938,1.1147495623556676,72.93456781660932,-0.2076973087574868,5.0570000000006985
0.888,0.2775,0.0151,-0.585,0.6096,0.1058,0.0175,-0.3063,-5.705,1.1474579749372673,72.88038798956681,-0.19106262788157766,5.072000000000116
0.8875,0.2672,0.006,-0.5848,0.6114,0.1093,0.49,-0.805,-5.3025,1.1909537190396848,72.93863368249963,-0.1835483650957815,5.088000000003376
0.893,0.2767,0.0061,-0.5844,0.6118,0.1083,-0.245,-1.9863,-5.5912,1.2066561465564085,72.9247912732365,-0.1920085785851628,5.103000000002794
0.8978,0.276,0.0092,-0.5881,0.609,0.1116,0.8138,-1.7763,-6.3263,1.514419082296575,72.91475924492656,-0.1983864407318576,5.119000000006054
0.8917,0.2727,0.0048,-0.5881,0.609,0.1116,-0.3063,-1.0762,-5.4687,1.3859065049421206,72.91679222788994,-0.19404507666182905,5.135000000009313
0.8882,0.2769,0.0098,-0.5853,0.6126,0.1134,-0.455,-1.3737,-5.67,1.59646952055423,72.88081692835172,-0.1931855189949265,5.150000000008731
0.8935,0.2679,0.0068,-0.5855,0.6115,0.1094,0.4725,-1.2163,-5.915,1.5530502852402897,73.00604037096971,-0.19138168709900208,5.166000000011991
0.8897,0.2778,0.011,-0.5848,0.6108,0.1106,0.0613,-1.505,-5.67,1.5719516901516486,72.95264663303593,-0.19256101836860287,5.180999999996857
0.8936,0.2731,0.0053,-0.5853,0.6116,0.1078,0.1312,-1.575,-5.8362,1.5312348064990273,72.96541960563323,-0.19598491653636313,5.197000000000116
0.8941,0.2727,0.0121,-0.5853,0.6116,0.1078,-0.3325,-0.9275,-5.8012,1.802021492909314,72.97880770964674,-0.1897424248854478,5.213000000003376
0.891,0.2746,0.007,-0.5856,0.611,0.1098,-0.3325,-1.2775,-5.6525,1.7103329500292088,72.96347169858792,-0.18801443239623378,5.228000000002794
0.8912,0.2699,0.0065,-0.5832,0.6112,0.111,0.77,-1.4,-5.7137,1.5701228939054503,72.99625362032799,-0.18937298916071754,5.244000000006054
0.8913,0.2721,0.006,-0.5848,0.6097,0.1096,-0.0263,-1.8725,-5.7488,1.5526337796837717,73.0009521387058,-0.19571444024366483,5.2590000000054715
0.8939,0.276,0.0116,-0.5864,0.6109,0.1138,0.1488,-2.0563,-5.7925,1.6404932331669642,72.96115384589618,-0.20575371622533087,5.275000000008731
0.893,0.2725,0.0047,-0.5864,0.6109,0.1138,0.2625,-1.26,-5.8538,1.5192077677952947,72.97878671237157,-0.2033223446064942,5.291000000011991
0.8929,0.2729,0.0076,-0.5843,0.6108,0.1082,0.245,-1.2163,-5.7488,1.532445178707206,72.98285089894117,-0.19941016012927806,5.305999999996857
0.8929,0.2711,0.0117,-0.5833,0.6098,0.11,1.0325,-0.9712,-6.265,2.001445170258942,73.03204528256627,-0.19345442411919944,5.322000000000116
0.8916,0.2744,0.0113,-0.5844,0.6122,0.1106,0.0613,-1.435,-5.8713,2.0108815291996103,72.99051121795918,-0.19348148170652774,5.336999999999534
0.8939,0.2736,0.0071,-0.5831,0.6098,0.1096,-0.2537,-1.9425,-5.95,1.8936851325413475,72.98616015038688,-0.20210533354157362,5.353000000002794
0.896,0.2726,0.0094,-0.5831,0.6098,0.1096,0.105,-1.3212,-5.705,1.899062382462333,73.00044359053604,-0.20092008019129223,5.369000000006054
0.8944,0.2725,0.0087,-0.5846,0.6099,0.109,0.1488,-1.3212,-5.6,1.891817472013766,73.00487634519926,-0.19866427217147087,5.3840000000054715
0.8883,0.2741,0.007,-0.5846,0.6102,0.1088,0.35,-1.435,-5.9763,1.7888586963284234,72.95336490156919,-0.1994618449585336,5.400000000008731
0.891,0.2727,0.0063,-0.5854,0.6108,0.1101,-0.4025,-2.1525,-6.2213,1.6474030710182401,72.96390928849071,-0.20857441046155262,5.415000000008149
0.8921,0.2736,0.0086,-0.5851,0.609,0.1139,0.07,-1.225,-6.055,1.6527004582650815,72.9559429660315,-0.2053569694189911,5.431000000011409
0.8937,0.2733,0.0077,-0.5851,0.609,0.1139,0.2275,-0.9887,-5.6438,1.6464025706967604,72.96029464765677,-0.1990585524799925,5.447000000014668
0.893,0.2718,0.0071,-0.5843,0.6109,0.1118,0.4462,-0.805,-5.8888,1.6026136171792809,72.99014239599279,-0.19002019722102867,5.461999999999534
0.8921,0.2713,0.0087,-0.586,0.6098,0.113,-0.0875,-1.3737,-5.6613,1.6279998008097945,73.00243606343095,-0.1907994575029558,5.478000000002794
0.8911,0.2754,0.0102,-0.584,0.6109,0.1092,0.105,-1.575,-5.985,1.6606341421722106,72.94077687714498,-0.19298201175183513,5.493000000002212
0.8951,0.2722,0.0076,-0.5854,0.6094,0.0998,-0.4462,-1.6187,-5.9412,1.640739227929054,72.98347525772748,-0.19699309058140035,5.5090000000054715
0.8926,0.2728,0.0081,-0.5854,0.6094,0.0998,-0.0088,-1.4875,-6.09,1.6432085091149842,72.98908915503449,-0.19871378152762414,5.525000000008731
0.8907,0.2733,0.0065,-0.5858,0.6122,0.1098,0.21,-1.05,-6.0988,1.6012131601875597,72.96967139817657,-0.19301740337431167,5.540000000008149
0.8933,0.2727,0.0079,-0.5862,0.6103,0.1098,0.0787,-1.6625,-5.6,1.6036947564628794,72.97417948383587,-0.19765566304175772,5.556000000011409
0.8935,0.2716,0.0063,-0.5863,0.611,0.1127,0.5425,-1.3913,-5.915,1.5110416717484547,73.00777510449741,-0.19667264671863163,5.570999999996275
0.8905,0.2735,0.0065,-0.5858,0.6114,0.1098,-0.14,-1.4963,-5.9237,1.4888544972821396,72.98209265680212,-0.1985521020511581,5.586999999999534
0.8926,0.2739,0.0079,-0.5858,0.6114,0.1098,0.42,-1.505,-6.125,1.534308490315763,72.963648795914,-0.20036889185045748,5.603000000002794
0.8961,0.2709,0.0046,-0.5855,0.6122,0.1164,0.3413,-1.1375,-5.7925,1.4023626744294342,73.01253911364375,-0.19568825266481585,5.618000000002212
0.8918,0.2745,0.0114,-0.5852,0.611,0.1097,0.105,-1.4875,-5.5388,1.466941364936255,73.00692784487848,-0.1975394274026981,5.6340000000054715
0.8927,0.2726,0.0054,-0.5872,0.6098,0.1117,-0.0175,-1.26,-5.7488,1.4506375638656548,73.00875856002303,-0.19479548466176821,5.649000000004889
0.8904,0.2743,0.0098,-0.5872,0.6111,0.1118,-0.2275,-1.5838,-5.985,1.5741313205844367,72.96234707503442,-0.19812265620023772,5.665000000008149
0.8922,0.2722,0.007,-0.5838,0.6111,0.1118,0.1312,-1.9688,-6.2913,1.5651930868738217,72.99160418658064,-0.20666111058598977,5.681000000011409
0.8932,0.2725,0.0101,-0.5853,0.611,0.1172,-0.1138,-1.6712,-5.7312,1.6370296987385307,72.99758849157308,-0.2085561995265153,5.696000000010827
0.8914,0.272,0.0082,-0.5853,0.6122,0.1099,0.0088,-1.33,-5.6962,1.6392465628210597,73.0019701003702,-0.20685257957776554,5.712000000014086
0.8906,0.272,0.0082,-0.5862,0.611,0.1124,-0.1312,-1.3737,-5.67,1.6516645524527744,73.0030778805253,-0.2047122716012784,5.726999999998952
0.8948,0.2725,0.0074,-0.5862,0.6091,0.1104,0.3413,-0.945,-5.9588,1.629076162778786,73.02004541786263,-0.19784904444392284,5.743000000002212
0.8925,0.2725,0.0096,-0.585,0.6091,0.1104,0.315,-1.47,-5.9763,1.7142855865981195,73.01726517097715,-0.19923214000384304,5.7590000000054715
0.8942,0.2729,0.0072,-0.5855,0.6112,0.1135,-0.175,-1.33,-5.8275,1.6791779093727497,73.01865025194213,-0.197263926002762,5.774000000004889
0.8905,0.2725,0.0118,-0.5852,0.6128,0.112,0.0962,-1.2862,-5.6962,1.725953772456706,73.010592278324,-0.19605881340625908,5.790000000008149
0.8924,0.2718,0.0063,-0.5838,0.6106,0.112,-0.1925,-1.4612,-5.4075,1.652394244258103,73.01429873389633,-0.1961791320648677,5.805000000007567
0.8943,0.2715,0.0088,-0.5838,0.6113,0.1102,0.0263,-1.6625,-5.6087,1.6539789914396457,73.02341479457436,-0.20050121886325814,5.821000000010827
0.892,0.273,0.0071,-0.5845,0.6113,0.1102,-0.0175,-1.4875,-5.3288,1.645917767099014,73.01687768498981,-0.20187109698129616,5.837000000014086
0.8927,0.2719,0.0072,-0.5848,0.6111,0.1121,0.0,-1.5225,-5.9588,1.6416586379761202,73.02883185652136,-0.2022377372624292,5.851999999998952
0.8902,0.2728,0.0091,-0.584,0.6114,0.1095,0.1225,-1.5838,-5.9412,1.6634919898808358,73.00560373375787,-0.20482068354083263,5.868000000002212
0.8924,0.2746,0.0082,-0.5861,0.611,0.1088,-0.2975,-1.5313,-5.6,1.6751829595547638,72.99458374437131,-0.20638933517118668,5.88399999999092
0.8932,0.2729,0.0069,-0.5861,0.611,0.1122,-0.245,-1.61,-5.6,1.625685757526201,72.9956041953471,-0.20748540167431032,5.899000000004889
0.8929,0.2727,0.0092,-0.586,0.6098,0.1122,0.0787,-1.2425,-5.7312,1.638766659146527,72.99791826211334,-0.20462886151052437,5.915000000008149
0.8915,0.2725,0.0061,-0.5849,0.6106,0.1083,-0.1925,-2.0738,-5.565,1.572920196630353,72.99801785574722,-0.21216227535838553,5.930000000007567
0.8918,0.2714,0.0088,-0.5856,0.6116,0.11,0.1663,-1.6625,-5.705,1.606100145975765,73.00964404320737,-0.2148860478274242,5.946000000010827
0.8918,0.2714,0.007,-0.5855,0.6113,0.1106,0.21,-1.5313,-5.845,1.5868590943001781,73.02481170662618,-0.2154481630291191,5.961999999999534
0.8922,0.2719,0.0066,-0.5855,0.6113,0.1106,0.315,-1.3038,-5.9237,1.5438017531631527,73.03133686284241,-0.21150464674259967,5.977000000013504
0.8926,0.2728,0.0105,-0.5853,0.6112,0.1136,0.14,-1.3825,-5.8275,1.6070274112323732,73.02196244295612,-0.2102621820723955,5.993000000016764
0.8933,0.2718,0.0104,-0.5842,0.611,0.1113,0.035,-1.2862,-5.9763,1.6075370049039497,73.03598629670672,-0.20659966384763714,6.00800000000163
0.8938,0.2738,0.0087,-0.5839,0.6109,0.1111,0.105,-1.3212,-5.6962,1.621595818105404,73.02334412395719,-0.20496497746674938,6.024000000004889
0.8947,0.2726,0.008,-0.5854,0.6115,0.1106,0.0525,-1.12,-5.8275,1.6226671705403772,73.02949749723356,-0.20059647970869182,6.039999999993597
0.8932,0.2737,0.0104,-0.5854,0.6115,0.1106,-0.2187,-1.26,-5.88,1.7343461583576378,73.00796558291749,-0.19754683175366444,6.055000000007567
0.8911,0.2729,0.0059,-0.5841,0.6112,0.1147,-0.1925,-1.6275,-5.845,1.6427394070433512,72.99787469255061,-0.2012281485617576,6.070999999996275
0.8921,0.273,0.0084,-0.5864,0.6134,0.1114,0.1575,-1.68,-5.705,1.6558799924917365,72.99430665542485,-0.20378533372670427,6.0860000000102445
0.8921,0.2728,0.0087,-0.5857,0.6119,0.111,0.175,-1.4963,-5.8625,1.6769637808831794,72.9927389199648,-0.20495352035842349,6.102000000013504
0.8946,0.2735,0.0106,-0.5854,0.609,0.1102,0.0525,-1.6625,-6.055,1.6867518415491896,72.9911694136269,-0.20839816830568506,6.118000000002212
0.8918,0.275,0.0077,-0.5854,0.609,0.1102,0.49,-1.5225,-5.5475,1.6607970438519712,72.98446785125122,-0.20811210147431897,6.13300000000163
0.8947,0.2719,0.0068,-0.5849,0.611,0.1107,0.8575,-1.4438,-5.7663,1.5577612835221706,73.00716250464663,-0.2080916113311227,6.149000000004889
0.8907,0.2735,0.0083,-0.5856,0.6113,0.1122,0.1575,-1.2163,-6.2737,1.5775822964236152,72.97027314920634,-0.20370250019737324,6.164000000004307
0.8908,0.2719,0.0074,-0.5844,0.6092,0.1099,-0.07,-1.2687,-6.2387,1.5758270903367537,72.99158101759642,-0.20160153018135785,6.180000000007567
0.8916,0.2731,0.0077,-0.5857,0.6114,0.1112,0.2713,-1.2513,-5.5912,1.5833396725164797,72.98913800781968,-0.19946009715050506,6.195999999996275
0.8952,0.2733,0.01,-0.5857,0.6114,0.1112,0.315,-1.5925,-5.6788,1.6956491854732203,72.99270054274501,-0.20101283745547682,6.2110000000102445
0.893,0.274,0.009,-0.5838,0.6091,0.1154,-0.2713,-1.0762,-5.9237,1.7390857867916836,72.97501033185179,-0.19640883369899165,6.226999999998952
0.8889,0.2714,0.0076,-0.5846,0.6124,0.1118,0.0,-1.3475,-5.9938,1.7346288906109766,72.98837314875563,-0.1949592003460344,6.242000000012922
0.8903,0.2728,0.0082,-0.585,0.6117,0.112,0.0437,-1.1638,-5.9237,1.7345064422538745,72.97895889333633,-0.19222200029960318,6.25800000000163
0.893,0.2727,0.0073,-0.5846,0.6089,0.111,0.3063,-1.7587,-6.09,1.691481947623502,72.9916138542953,-0.1983250802748023,6.274000000004889
0.8936,0.276,0.0092,-0.5846,0.6089,0.111,0.3938,-1.1287,-5.5563,1.749062113211491,72.98217266193808,-0.1937300222467308,6.289000000004307
0.8926,0.2734,0.0069,-0.5856,0.6083,0.1097,0.035,-1.4525,-6.0988,1.7487975173619692,72.97580947449379,-0.1952730200072959,6.304999999993015
0.8905,0.273,0.0101,-0.5855,0.6098,0.1083,0.2362,-1.0938,-5.635,1.8109908899891376,72.9720463619012,-0.19051201802031853,6.320000000006985
0.8902,0.2712,0.0063,-0.5842,0.6102,0.1103,-0.2537,-1.6013,-5.88,1.7036571817527368,72.99433674431079,-0.19451953622298437,6.3360000000102445
0.8926,0.2739,0.0082,-0.5846,0.6107,0.1096,-0.5163,-1.5488,-5.5125,1.707614856727371,72.99332190397445,-0.1973703025849454,6.351999999998952
0.8923,0.274,0.0065,-0.5846,0.6107,0.1096,-0.0613,-1.6275,-5.74,1.6772414114512797,72.97994376858296,-0.19960452234691317,6.367000000012922
0.8919,0.2735,0.0104,-0.5846,0.6118,0.1082,-0.1225,-1.4525,-5.8187,1.7450061897627476,72.97025985717154,-0.20056007009746002,6.38300000000163
0.8899,0.2707,0.012,-0.5857,0.6108,0.112,0.3237,-1.575,-5.7575,1.923124759496315,72.98993635944471,-0.20176656310751626,6.3980000000156
0.8918,0.2735,0.0078,-0.585,0.6095,0.1104,-0.7962,-1.68,-5.8538,1.791775974978321,72.97770610864394,-0.2057819067576882,6.4139999999897555
0.8933,0.2736,0.0076,-0.5858,0.6114,0.1095,0.0263,-1.6013,-5.6175,1.790217795197947,72.9763270114831,-0.20826243608661707,6.429999999993015
0.8942,0.2732,0.0068,-0.5858,0.6114,0.1095,0.0962,-1.6712,-5.7575,1.7689198427404573,72.98245647046353,-0.20999739249896712,6.445000000006985
0.8904,0.2721,0.0093,-0.5838,0.6114,0.1074,-0.0962,-1.505,-6.0637,1.7906664288760459,72.98803965578635,-0.210669653233775,6.460999999995693
0.8905,0.2713,0.0076,-0.5838,0.6105,0.1122,0.6562,-1.0938,-5.7925,1.7193176481140593,73.00219272886483,-0.20436898792414973,6.4760000000096625
0.8919,0.2729,0.0093,-0.585,0.6094,0.1099,-0.14,-1.1463,-5.9412,1.7537946965166373,72.9946846001133,-0.20043880912008485,6.49199999999837
0.8952,0.2725,0.0055,-0.585,0.6098,0.1102,0.1575,-1.505,-5.9325,1.6881724863724747,73.01650627878017,-0.20206692821249153,6.50800000000163
0.8928,0.2733,0.0103,-0.585,0.6098,0.1102,-0.1663,-1.3563,-5.9062,1.7666688548737348,73.00251402334287,-0.20017028540829496,6.5230000000156
0.8894,0.2707,0.0082,-0.5837,0.6083,0.1123,0.1138,-1.5925,-5.4513,1.7643366020935904,73.00513008140975,-0.2030852568512808,6.539000000004307
0.892,0.2727,0.0063,-0.5838,0.612,0.1094,0.0437,-1.5662,-5.9938,1.7601558206550516,73.00223211317066,-0.20392043116533223,6.554000000003725
0.8914,0.2715,0.0079,-0.5819,0.612,0.1114,-0.385,-2.0125,-6.02,1.7325543667619432,73.01994347801246,-0.21250838802834585,6.569999999992433
0.8932,0.2726,0.0073,-0.5835,0.6094,0.109,0.1138,-1.4963,-5.8275,1.717899841105918,73.02054303126458,-0.21280426922990092,6.585999999995693
0.8918,0.2723,0.0108,-0.5835,0.6094,0.109,-0.0875,-1.7675,-5.9763,1.7779075665533228,73.01647732055201,-0.2153850923059849,6.600999999995111
0.8928,0.271,0.0088,-0.5835,0.6114,0.1045,-0.0437,-1.6363,-5.81,1.7838261160764488,73.03801748888417,-0.21740930308018677,6.61699999999837
0.889,0.2708,0.0095,-0.5847,0.6138,0.11,-0.385,-1.4,-5.88,1.8503833635481894,73.04101645166527,-0.2145683727897701,6.63200000001234
0.8944,0.2732,0.0127,-0.5837,0.6098,0.111,0.21,-1.295,-5.985,1.9717065706929224,73.02658275696847,-0.21175953549763193,6.648000000001048
0.8957,0.2754,0.0076,-0.5837,0.611,0.1104,0.21,-1.5575,-5.7925,1.9132313643522425,72.99824056055839,-0.21301158195243794,6.664000000004307
0.8943,0.2744,0.0063,-0.5837,0.611,0.1104,0.0787,-1.5313,-6.3175,1.887714172675027,72.97109262682714,-0.21238297375639195,6.679000000003725
0.891,0.2711,0.0067,-0.5863,0.6108,0.1186,-0.315,-1.3388,-5.8275,1.7655733665376796,72.99623842704437,-0.21042339636714646,6.694999999992433
0.8903,0.2727,0.0112,-0.5862,0.6126,0.1094,-0.1838,-0.8225,-5.985,1.8704792708802611,72.98320522858302,-0.20048480674077301,6.710000000006403
0.8968,0.2743,0.0094,-0.585,0.6101,0.1101,0.42,-1.4787,-5.81,1.8961576310014225,72.98328530422044,-0.2017296060516676,6.725999999995111
0.8951,0.2768,0.0105,-0.584,0.6115,0.1106,0.2537,-1.4612,-6.055,1.9458906343232487,72.91921417581267,-0.20259792545078753,6.74199999999837
0.8957,0.2728,0.0066,-0.584,0.6115,0.1106,-0.07,-1.2513,-5.7137,1.893081232842571,72.9437849142286,-0.19923068290505327,6.756999999997788
0.8892,0.2714,0.0084,-0.5861,0.6106,0.1015,0.1838,-0.8138,-5.5388,1.8774187846214638,72.94691893934832,-0.19102633461693536,6.773000000001048
0.8885,0.275,0.0152,-0.5851,0.612,0.1103,0.2275,-1.085,-5.7488,2.0858424680298504,72.91266389856791,-0.1865712011546734,6.788000000000466
0.8888,0.2681,0.006,-0.5831,0.6125,0.1093,0.6825,-1.5838,-5.9763,1.7696773348244237,73.00937034403273,-0.1907208010438524,6.804000000003725
0.9083,0.2627,0.0129,-0.5834,0.6106,0.1095,0.56,-1.3737,-6.0287,2.1286514154672904,73.30193293245705,-0.19143000094349713,6.820000000006985
0.8803,0.2738,0.0067,-0.5834,0.6106,0.1095,-0.455,-0.5512,-5.88,1.8898964734362955,73.13970666163466,-0.17972820084163976,6.834999999991851
0.894,0.2747,0.0049,-0.5853,0.6112,0.1158,0.35,-1.3913,-5.7575,1.6815386085421105,73.09341758163377,-0.1817901007615574,6.850999999995111
0.8985,0.2746,0.0073,-0.5843,0.6113,0.1127,-0.0875,-1.6625,-5.8625,1.6643252394520072,73.06836601503348,-0.18605484070630404,6.86600000000908
0.8947,0.2727,0.0081,-0.5838,0.609,0.1113,-0.1138,-0.9887,-5.915,1.669097008916146,73.0605729962362,-0.18168663662562543,6.881999999997788
0.8856,0.2701,0.0117,-0.5847,0.6107,0.1096,0.0263,-0.7525,-5.8713,1.6753973521732572,73.05052084854984,-0.17435397296527047,6.898000000001048
0.8844,0.2738,0.0096,-0.5847,0.6107,0.1096,-0.1838,-1.4875,-5.8625,1.7349264390532706,72.98006928212352,-0.17699982566796416,6.913000000000466
0.9013,0.2735,0.0058,-0.5849,0.6104,0.1094,0.1575,-1.9863,-6.16,1.6778114146037773,73.03432637400545,-0.18790256310699488,6.929000000003725
0.9043,0.2749,0.0066,-0.5862,0.609,0.1104,0.2625,-1.3563,-5.46,1.6215764498228988,73.03611387733527,-0.1874223567955849,6.944000000003143
0.8891,0.2717,0.0097,-0.5848,0.6117,0.1107,-0.4638,-0.3325,-5.8538,1.7622127326090007,73.02584092949567,-0.17346812111700183,6.960000000006403
0.8835,0.2704,0.0129,-0.5853,0.609,0.1102,0.4025,-0.6913,-5.5213,2.0231079867739057,73.0243009334552,-0.16607602899827592,6.975999999995111
0.8911,0.2722,0.0059,-0.5853,0.609,0.1102,0.7088,-1.5225,-6.265,1.7083054459731868,73.01814867293459,-0.17002217609765075,6.9909999999945285
0.9009,0.2747,0.0055,-0.5847,0.6118,0.1113,0.0787,-2.0563,-5.9062,1.6843545561039308,73.0243437003451,-0.18263067849391815,7.006999999997788
0.8977,0.2742,0.0072,-0.5845,0.6122,0.1093,0.0088,-1.1812,-5.8538,1.6799029750500214,73.02038409192316,-0.18031381064390753,7.021999999997206
0.886,0.2713,0.0065,-0.5839,0.6112,0.1096,0.035,-0.9887,-5.705,1.679634820872597,73.01172537423172,-0.17651970958241728,7.038000000000466
0.8863,0.2733,0.0102,-0.5859,0.6102,0.1146,-0.0962,-0.91,-5.775,1.7324129088245568,72.97662454228636,-0.17197173862684517,7.054000000003725
0.8943,0.2726,0.0065,-0.5859,0.6102,0.1146,0.1838,-1.47,-6.0725,1.6847011894402637,73.0009919896781,-0.17461956476339055,7.069000000003143
0.8912,0.2728,0.0077,-0.5856,0.6114,0.0952,0.1663,-1.6363,-5.775,1.6767730860680103,72.99510516810203,-0.18072032829185186,7.085000000006403
0.8916,0.2725,0.0104,-0.5854,0.611,0.1106,-0.2362,-1.12,-6.0637,1.7850606461255296,72.99455965313118,-0.17776829544741163,7.099999999991269
0.8882,0.2719,0.0063,-0.5852,0.6109,0.1122,-0.035,-1.2075,-5.845,1.7554644396529153,72.9895062858112,-0.17737946590621287,7.1159999999945285
0.893,0.2699,0.01,-0.5868,0.6117,0.1134,0.1575,-1.6538,-5.3987,1.795705730374622,73.0056224511431,-0.18345623932044328,7.131999999997788
0.8911,0.274,0.0123,-0.5868,0.6117,0.1134,0.245,-1.2687,-5.9062,1.9306029348786289,72.97251286554989,-0.18223806538773432,7.146999999997206
0.8933,0.2718,0.0074,-0.5851,0.611,0.1055,0.35,-1.19,-5.7663,1.8415308857827615,72.9934851155979,-0.18115025885245195,7.163000000000466
0.8907,0.2735,0.0127,-0.5851,0.6094,0.1099,0.035,-1.5488,-5.8713,1.8422435872109135,72.97148504289936,-0.1839440329663954,7.177999999999884
0.8916,0.2722,0.0056,-0.5849,0.6114,0.1109,-0.1663,-1.4438,-6.195,1.7314372663006503,72.99125105214986,-0.18634034967399146,7.194000000003143
0.8932,0.273,0.0101,-0.5848,0.6111,0.111,0.3762,-1.3038,-6.1075,1.8301616019590112,72.99216467087267,-0.18648103471041724,7.210000000006403
0.8894,0.2731,0.0068,-0.5843,0.6108,0.1191,0.3675,-0.9275,-6.1512,1.72919477470018,72.96569894334765,-0.18035418123888963,7.225000000005821
0.8943,0.2729,0.0092,-0.5843,0.6108,0.1191,0.21,-1.645,-5.7575,1.7593519208270407,72.97720067102615,-0.18600676311982656,7.24100000000908
0.8915,0.2738,0.0078,-0.5854,0.6102,0.1149,0.6475,-0.875,-5.635,1.7108583327774916,72.9702638909702,-0.1792185867959259,7.255999999993946
0.8927,0.271,0.0086,-0.584,0.6115,0.1101,0.2625,-1.4175,-5.6087,1.7307092464741398,72.9839804340486,-0.1817087281204918,7.271999999997206
0.893,0.274,0.0121,-0.5854,0.6112,0.1106,-0.2275,-1.47,-5.88,1.8961642492914703,72.96807362868319,-0.1847058553127551,7.288000000000466
0.8915,0.2735,0.0069,-0.5854,0.6112,0.1106,-0.0613,-1.4963,-5.985,1.8568773160604648,72.95871265297448,-0.18643531978069572,7.302999999999884
0.8935,0.2723,0.0054,-0.5858,0.6118,0.1078,-0.0263,-1.4963,-5.6875,1.815804089198079,72.97308439259355,-0.1893385078070158,7.319000000003143
0.8903,0.2741,0.0075,-0.5856,0.6114,0.1128,-0.4288,-1.4963,-6.02,1.737184149130113,72.94165673999534,-0.19060470702553037,7.334000000002561
0.8911,0.271,0.0065,-0.5838,0.6101,0.109,0.2187,-1.12,-5.4338,1.6805933670425348,72.94968480117426,-0.18767223632626304,7.350000000005821
0.8904,0.2733,0.0107,-0.5882,0.6106,0.1107,0.28,-1.4787,-5.5825,1.7913965472166518,72.94765231515532,-0.19019829269797472,7.36600000000908
0.8937,0.2714,0.0073,-0.5882,0.6106,0.1107,-0.315,-2.065,-5.6087,1.7265331214800164,72.96332289930548,-0.19905596340005074,7.380999999993946
0.8946,0.2738,0.0087,-0.5856,0.6116,0.0963,0.1488,-1.2687,-5.985,1.7361447123017977,72.96707154022437,-0.1974196470637676,7.396999999997206
0.8918,0.2725,0.0054,-0.5846,0.6124,0.1127,0.5337,-0.7875,-5.7838,1.5359618817704936,72.975718825917,-0.18830893235697832,7.411999999996624
0.892,0.2725,0.011,-0.5844,0.6082,0.1098,0.28,-1.3388,-5.635,1.6890344601024707,72.97861940826446,-0.1887567591252081,7.427999999999884
0.8905,0.2718,0.0057,-0.585,0.6112,0.113,0.2362,-1.2513,-5.8012,1.6070597604255876,72.9890471713135,-0.18789980321635819,7.444000000003143
0.8952,0.273,0.0089,-0.585,0.6112,0.113,0.0787,-1.54,-6.0375,1.618161195564438,73.00411406223857,-0.18989982289391563,7.459000000002561
0.8914,0.275,0.0107,-0.584,0.6121,0.1069,0.0525,-1.5313,-5.705,1.6291672736208576,72.97613331910702,-0.1929605606090164,7.475000000005821
0.89,0.2714,0.0102,-0.5853,0.6114,0.111,0.0088,-1.4875,-5.915,1.6420900884994227,72.99204041862852,-0.1937457545473355,7.490000000005239
0.8933,0.2724,0.0087,-0.5844,0.6114,0.1104,-0.315,-1.6712,-6.0637,1.6905387039298279,73.00704852782164,-0.1984364590975047,7.506000000008498
0.8949,0.2715,0.0064,-0.5854,0.6113,0.1105,-0.0613,-1.3038,-5.985,1.6609051392253285,73.04368584964065,-0.19736753319157918,7.522000000011758
0.8904,0.2722,0.0093,-0.5854,0.6113,0.1105,0.0263,-1.12,-5.5563,1.6632031961399483,73.04071977132017,-0.1927507798571662,7.536999999996624
0.8927,0.274,0.0095,-0.585,0.6123,0.095,0.28,-1.225,-5.7575,1.726855244983293,73.01717122472394,-0.19111570187504331,7.552999999999884
0.8902,0.2735,0.0087,-0.5834,0.6113,0.1091,0.2275,-1.0675,-5.6438,1.7422654494717098,73.00372717432953,-0.18641538168697974,7.5679999999993015
0.893,0.271,0.0095,-0.5849,0.6115,0.1092,0.3237,-0.8838,-6.1075,1.8018689873478455,73.04357335545417,-0.18050056352087457,7.584000000002561
0.8932,0.274,0.0088,-0.5853,0.6114,0.1102,-0.1838,-1.6275,-5.7838,1.808606721826442,73.01987308125634,-0.18588650717356164,7.600000000005821
0.8924,0.2706,0.0065,-0.5853,0.6114,0.1102,-0.1663,-1.3563,-5.8187,1.7363806763452638,73.04596429601304,-0.18560790645549496,7.615000000005239
0.891,0.2727,0.0134,-0.5849,0.613,0.1109,0.2713,-0.6125,-5.9588,1.9428036702346632,73.01981161838054,-0.17586711581174233,7.631000000008498
0.8909,0.2721,0.0071,-0.5846,0.6104,0.1046,0.21,-1.155,-5.8187,1.875781622662934,73.01759912419737,-0.1738729042148363,7.645999999993364
0.8936,0.2716,0.0071,-0.585,0.6111,0.1107,0.21,-1.26,-5.4513,1.819195302783949,73.02059534101988,-0.1746296137970491,7.661999999996624
0.8949,0.2715,0.011,-0.5854,0.6102,0.1102,-0.1575,-1.4088,-5.7488,1.8997475308859206,73.03864509200055,-0.17745337242147716,7.677999999999884
0.8899,0.2744,0.0084,-0.5854,0.6102,0.1102,0.28,-1.1812,-5.9325,1.870866809093937,72.9828942211184,-0.17565423517871065,7.6929999999993015
0.8921,0.2727,0.0076,-0.5849,0.6112,0.1152,0.2975,-1.2687,-5.9588,1.8136469029572881,72.98712886822938,-0.17635809166456154,7.709000000002561
0.8907,0.274,0.0075,-0.5842,0.611,0.1174,0.2713,-1.1638,-6.1337,1.766540373324902,72.95117992730697,-0.17443358249749571,7.724000000001979
0.8945,0.2715,0.0104,-0.5847,0.6103,0.1094,0.5425,-0.9275,-6.1425,1.9105019409911053,73.01127523619772,-0.1703462242504671,7.740000000005239
0.8912,0.2726,0.0098,-0.5839,0.6114,0.112,0.0613,-1.4612,-6.0988,1.9144277639166825,73.0001981296429,-0.1743528818297071,7.756000000008498
0.8932,0.273,0.0093,-0.5852,0.611,0.1058,0.3063,-1.3038,-6.0287,1.9222692130434904,72.99850283255196,-0.17451889364605339,7.771000000007916
0.8946,0.2732,0.0082,-0.5852,0.611,0.1058,-0.3675,-1.3913,-5.845,1.8640799567577673,73.00167672748015,-0.17710172428552967,7.787000000011176
0.8932,0.2735,0.0118,-0.5851,0.611,0.1098,0.1488,-1.2337,-5.74,1.9264619896188915,72.99355871743023,-0.17604650184017298,7.801999999996042
0.8902,0.2723,0.0068,-0.5849,0.6107,0.1105,-0.0088,-1.0412,-5.5213,1.9060489194486676,72.9933895778692,-0.1734351316592102,7.8179999999993015
0.8913,0.2722,0.0112,-0.5842,0.6103,0.1118,-0.3675,-1.3475,-5.5388,2.035029714954141,72.99382905002803,-0.1754956184972423,7.834000000002561
0.8918,0.2745,0.0057,-0.5842,0.6103,0.1118,-0.1225,-1.3737,-5.5738,1.920541077958095,72.98613376033605,-0.17649100664679843,7.849000000001979
0.8941,0.2734,0.0073,-0.5855,0.6116,0.1126,-0.0787,-1.5575,-5.67,1.8808922856624253,72.98694354702353,-0.18126990598668777,7.865000000005239
0.8922,0.2716,0.0076,-0.5826,0.6098,0.1106,0.5075,-1.05,-6.0813,1.7915617153386185,73.01491580836188,-0.1773179153874689,7.880000000004657
0.8919,0.2713,0.0085,-0.5861,0.6106,0.1108,-0.0263,-1.0412,-6.1425,1.791730623421345,73.03787268271154,-0.17457940385177653,7.896000000007916
0.8929,0.2715,0.0075,-0.5843,0.6102,0.1106,0.385,-1.155,-5.9675,1.7373475458553873,73.051771536326,-0.17375346346998727,7.912000000011176
0.8953,0.2741,0.0073,-0.5843,0.6102,0.1106,0.5512,-1.1113,-5.5475,1.6651681437689716,73.04782986758845,-0.171380667107852,7.926999999996042
0.8913,0.2718,0.0078,-0.5834,0.6096,0.1137,0.1838,-0.91,-5.6175,1.662386096220839,73.04637416163236,-0.16734660039973642,7.9429999999993015
0.8881,0.2721,0.0136,-0.5835,0.6094,0.1127,-0.1225,-0.9975,-5.775,1.8247469122098992,73.02438334963924,-0.1640781903592402,7.957999999998719
0.8919,0.2727,0.0063,-0.5845,0.6116,0.111,-0.245,-1.5838,-6.09,1.7153510225658337,73.01328580108655,-0.17047709132796252,7.974000000001979
0.8941,0.2738,0.0081,-0.586,0.6108,0.1094,0.0962,-1.6625,-5.5475,1.7141337466322013,73.01098732123711,-0.17736938220004347,7.990000000005239
0.8961,0.2718,0.0076,-0.586,0.6108,0.1094,0.245,-1.4088,-5.8012,1.6945486096453786,73.0366254191476,-0.1786512439793011,8.005000000004657
0.8899,0.2725,0.0094,-0.585,0.6116,0.1131,-0.2187,-1.2425,-5.8625,1.7512779825921276,73.01742829675526,-0.1786781195850161,8.021000000007916
0.8892,0.2722,0.0107,-0.5858,0.6114,0.1107,0.1663,-1.5575,-5.81,1.8096285579583704,73.00544042622795,-0.18183655762569856,8.036000000007334
0.8936,0.2737,0.0068,-0.5845,0.6091,0.1087,0.0525,-1.5925,-6.0375,1.8026568856455947,72.99150271889305,-0.18658490186780058,8.052000000010594
0.895,0.2729,0.0086,-0.5846,0.6108,0.1104,0.3237,-1.5225,-6.0375,1.8031798938474062,73.00670566329862,-0.18985041168548702,8.068000000013853
0.8906,0.2732,0.0057,-0.5846,0.6108,0.1104,-0.2013,-1.5662,-5.845,1.6873281866119851,72.99010428950291,-0.19200907049560575,8.08299999999872
0.8915,0.2716,0.0089,-0.5856,0.611,0.1122,0.3675,-0.875,-5.8012,1.7347106358089022,73.00361527564128,-0.18540816344861213,8.099000000001979
0.8936,0.2728,0.0062,-0.5867,0.6108,0.1063,0.4288,-0.6825,-6.0113,1.612246170215975,73.00898050210851,-0.1760810971033934,8.114000000001397
0.8956,0.2731,0.0071,-0.5826,0.6107,0.111,0.245,-1.5313,-6.16,1.5908227724818331,73.01988273517426,-0.1805237073975464,8.130000000004657
0.8936,0.271,0.003,-0.5841,0.6099,0.1102,-0.3588,-1.4438,-5.8275,1.3209842621954668,73.04687696223264,-0.18326205666202738,8.146000000007916
0.8923,0.2726,0.0087,-0.583,0.6104,0.11,0.07,-0.875,-6.2038,1.338541468909239,73.02901496932104,-0.17674835099536626,8.161000000007334
0.8942,0.2719,0.0073,-0.583,0.6104,0.11,-0.2625,-1.3388,-5.9763,1.384151493388369,73.0459846371959,-0.17835223589975724,8.177000000010594
0.8919,0.272,0.0123,-0.5826,0.6117,0.1105,-0.2362,-1.4787,-5.39,1.6405839521476535,73.04385832990825,-0.18047946230900688,8.192000000010012
0.8894,0.2726,0.0072,-0.5854,0.6112,0.112,0.6562,-1.3825,-5.67,1.5916407019035388,73.03052825602362,-0.182339516082162,8.208000000013271
0.8943,0.2725,0.0121,-0.5844,0.6094,0.1114,-0.3063,-1.2687,-5.8187,1.8331226369066482,73.03232500661252,-0.18237484446105193,8.224000000001979
0.8914,0.2734,0.0081,-0.5844,0.6094,0.1114,0.3413,-0.8487,-6.0637,1.8011353913203578,72.99949719301533,-0.1755948100145021,8.239000000001397
0.8949,0.2716,0.0085,-0.5836,0.6114,0.1032,-0.3325,-1.5575,-6.0025,1.798830831354732,73.03643663629792,-0.1804633290176211,8.255000000004657
0.8927,0.2753,0.0093,-0.585,0.6125,0.1102,-0.0263,-1.8375,-5.1712,1.8065783861756557,72.99116541054777,-0.18722324611489638,8.270000000004075
0.8937,0.2727,0.0086,-0.5844,0.6128,0.1103,-0.1925,-1.5662,-5.7225,1.8065286046712836,72.9970963335837,-0.19105420150800145,8.286000000007334
0.8932,0.2733,0.0113,-0.5818,0.6118,0.1067,0.0,-1.4963,-5.7925,1.825045445939873,72.99165094659836,-0.19349550136159097,8.302000000010594
0.8918,0.273,0.0066,-0.5818,0.6118,0.1067,0.4112,-1.26,-5.9237,1.704524702339906,72.98659484603081,-0.1911559512247718,8.317000000010012
0.8929,0.2733,0.0093,-0.5838,0.6106,0.1054,0.2187,-1.295,-5.9062,1.7426079702088497,72.98244700506514,-0.19068835610609372,8.333000000013271
0.8907,0.2731,0.0095,-0.5853,0.6107,0.1116,0.21,-1.1113,-5.88,1.779950291748669,72.97179041275795,-0.1866220704803478,8.347999999998137
0.8919,0.2711,0.0068,-0.5853,0.6116,0.1122,0.245,-1.6538,-5.6262,1.7201992620806252,72.9852201097093,-0.19177458343716472,8.364000000001397
0.8922,0.2748,0.0071,-0.5852,0.6113,0.1093,-0.3588,-1.5137,-6.3787,1.6524478019458335,72.93383019590479,-0.19439440509788894,8.380000000004657
0.8908,0.2714,0.0062,-0.5852,0.6113,0.1093,0.0962,-1.26,-5.8713,1.6323554505668787,72.96595600306254,-0.19196496458743997,8.395000000004075
0.893,0.2724,0.0102,-0.585,0.6119,0.1157,0.1225,-1.3038,-5.6262,1.6739349349980406,72.9727877831773,-0.19154318813252091,8.411000000007334
0.8904,0.2721,0.0081,-0.5865,0.611,0.1106,0.0437,-1.1113,-5.4163,1.6742304871550617,72.97479232706667,-0.18739141931868664,8.426000000006752
0.894,0.2744,0.0071,-0.5849,0.6118,0.1102,0.0088,-1.5137,-5.4163,1.6694864921187382,72.97161976936518,-0.19044955739125868,8.442000000010012
0.8907,0.2725,0.0058,-0.5855,0.6096,0.1106,0.315,-1.0412,-5.4338,1.5707733950420817,72.97242259979343,-0.18639788165518736,8.458000000013271
0.893,0.2725,0.0099,-0.5855,0.6096,0.1106,-0.0613,-1.47,-5.4687,1.6151913258472492,72.97365695884997,-0.18760309348889853,8.47300000001269
0.8891,0.273,0.008,-0.5865,0.6095,0.1122,-0.0263,-1.5575,-5.6788,1.6187998452752603,72.96594501503893,-0.19127078414457788,8.489000000015949
0.8941,0.2721,0.0076,-0.5848,0.6109,0.111,0.4812,-1.0412,-5.81,1.6129629561001926,72.99019418943159,-0.18619990571593834,8.504000000000815
0.8927,0.2741,0.0085,-0.5849,0.6105,0.1096,-0.2362,-1.7675,-5.8888,1.64770128703206,72.97133047720709,-0.24234516515378907,8.551000000006752
0.8935,0.2724,0.0059,-0.5863,0.611,0.1107,-0.0875,-0.875,-5.9675,1.603577057158209,72.99381302248369,-0.23071064864097712,8.567000000010012
0.8925,0.2715,0.0073,-0.5863,0.611,0.1107,0.175,-0.9975,-6.1337,1.5957487045338734,73.02520374728313,-0.22110583377635684,8.58200000000943
0.893,0.2741,0.0074,-0.5864,0.6105,0.1064,0.1312,-1.6975,-5.4513,1.591387821893355,73.02120650434759,-0.22343925040370108,8.59800000001269
0.8927,0.2728,0.0071,-0.585,0.611,0.1111,0.0088,-1.3038,-5.8625,1.5889047911326455,73.01603890321067,-0.2198700453500804,8.614000000001397
0.894,0.2702,0.0089,-0.585,0.6124,0.1107,-0.0875,-1.4963,-5.5912,1.621181780689126,73.02989826034127,-0.2180830908142885,8.629000000000815
0.8907,0.2734,0.0056,-0.5858,0.6118,0.1102,0.2537,-1.225,-5.9675,1.5405653515026452,72.99875507841055,-0.2139147817364534,8.645000000004075
0.8924,0.2719,0.0064,-0.5858,0.6118,0.1102,-0.4112,-1.085,-5.4425,1.4813510232457707,73.00135349362053,-0.20717080356223966,8.660000000003492
0.889,0.2729,0.0104,-0.5839,0.6099,0.111,-0.0088,-1.785,-6.09,1.5102079317931003,72.97221312028027,-0.21215772321125229,8.676000000006752
0.8929,0.2729,0.0069,-0.5878,0.6107,0.1105,0.0437,-1.715,-5.6525,1.5096214486689525,72.97598261477897,-0.2156379508951583,8.692000000010012
0.8918,0.274,0.0079,-0.585,0.6118,0.1121,0.07,-1.3038,-5.9675,1.5145348387083803,72.95612725033209,-0.21167545580495947,8.70700000000943
0.8929,0.2725,0.009,-0.5854,0.6117,0.113,-0.1225,-1.4262,-5.5125,1.5656026637817964,72.95719624352414,-0.2110451902286475,8.72300000001269
0.8888,0.2719,0.0091,-0.5854,0.6117,0.113,0.14,-1.4262,-6.0725,1.599231990762261,72.9659819778557,-0.20919437120503565,8.738000000012107
0.8924,0.2737,0.0085,-0.5859,0.6109,0.1043,-0.0088,-1.785,-5.8713,1.6066230444826841,72.95927372892953,-0.21397893408976867,8.754000000015367
0.893,0.2716,0.0052,-0.5844,0.6122,0.1092,0.1488,-1.1025,-5.8362,1.554178616663005,72.99002991010971,-0.20845704066958703,8.770000000004075
0.8915,0.2719,0.01,-0.5854,0.6122,0.1093,0.0787,-1.2775,-5.7663,1.577737683770599,72.99810689821636,-0.22325358660570685,8.801000000006752
0.8877,0.2714,0.0066,-0.5828,0.6092,0.1113,-0.1663,-1.5488,-5.4338,1.5469040304431085,72.99793198052787,-0.2218370279443248,8.81600000000617
0.8949,0.2713,0.0088,-0.5828,0.6092,0.1113,-0.0175,-1.8463,-5.32,1.562167596716876,73.01709231790277,-0.22624004515530877,8.83200000000943
0.8926,0.2724,0.0085,-0.5839,0.6122,0.1141,0.1312,-1.7763,-5.7488,1.5820867092412187,73.01794070875826,-0.22919476062172525,8.847999999998137
0.8924,0.2708,0.01,-0.5856,0.6115,0.1098,0.42,-1.435,-5.5563,1.7304217590985755,73.02314497080184,-0.2256477845775948,8.863000000012107
0.8911,0.2738,0.0104,-0.585,0.6111,0.1102,0.3938,-1.54,-5.6,1.8480978666347916,73.0122702335038,-0.22525900612435318,8.879000000015367
0.8914,0.2721,0.0107,-0.585,0.611,0.1111,0.2887,-1.4875,-5.7225,1.9300411239756794,73.01237140510456,-0.22281435549165723,8.894000000000233
0.8922,0.2745,0.0041,-0.585,0.611,0.1111,0.2187,-1.8988,-5.9412,1.7626469551502009,72.97674700465049,-0.22787563994806195,8.910000000003492
0.8958,0.2734,0.0081,-0.5853,0.6119,0.1095,-0.28,-1.295,-5.5037,1.7469550634796225,72.97710695396984,-0.2237360759400946,8.9259999999922
0.8882,0.2719,0.0076,-0.5846,0.6109,0.1106,-0.1663,-1.6712,-5.53,1.7225998788344323,72.97697279244844,-0.22392366836709687,8.94100000000617
0.8924,0.2727,0.0079,-0.5851,0.6116,0.1099,0.1138,-1.68,-6.0813,1.717933888881701,72.98590600217133,-0.22572330151331327,8.956999999994878
0.8939,0.272,0.0092,-0.5856,0.6116,0.1105,0.5512,-1.0325,-5.81,1.7926700343123736,73.00523392158428,-0.21708972137496343,8.972000000008848
0.8918,0.2712,0.0107,-0.5856,0.6116,0.1105,0.1838,-1.26,-5.8362,1.8534313400618578,73.0224221086111,-0.21352474924116352,8.988000000012107
0.8896,0.2724,0.0113,-0.5837,0.6119,0.1184,0.5775,-0.8225,-5.5825,2.0372160169442015,73.01753127410578,-0.20401627430868807,9.004000000000815
0.8902,0.2738,0.0101,-0.5854,0.61,0.1114,0.6475,-1.4612,-5.8012,2.0658689102354044,72.98828967223217,-0.20334084689619072,9.019000000014785
0.892,0.2745,0.0062,-0.5862,0.6117,0.1083,0.0,-1.7413,-5.5738,2.0403930790791254,72.9812132316294,-0.20808148218887473,9.035000000003492
0.8948,0.2746,0.0106,-0.5855,0.6116,0.1086,0.315,-1.6275,-5.6087,2.077718958943236,72.9757596757643,-0.20924458396913467,9.05000000000291
0.8915,0.2715,0.0064,-0.5855,0.6116,0.1086,0.1838,-1.3125,-6.0113,1.9830270757269886,73.00368619184094,-0.20722012557607164,9.06600000000617
0.8885,0.273,0.0085,-0.5842,0.6097,0.1065,0.5163,-1.1812,-5.7838,1.9180718754470207,72.98319551818717,-0.2035073930064599,9.081999999994878
0.8907,0.2742,0.009,-0.5854,0.6092,0.1103,0.1488,-1.4612,-5.8012,1.9141480512742828,72.95913846832103,-0.20288285372418535,9.097000000008848
0.8934,0.2712,0.0073,-0.5851,0.6104,0.109,0.0875,-1.8813,-5.7312,1.895285795064192,72.98755182743265,-0.20968528833264705,9.112999999997555
0.8926,0.2718,0.008,-0.5846,0.611,0.1088,0.07,-1.3737,-5.5037,1.888035425103987,72.98812404169078,-0.20726170951665368,9.128000000011525
0.8919,0.2721,0.0087,-0.5846,0.611,0.1088,0.3237,-0.8575,-5.5912,1.875301117294902,72.99143224981296,-0.2228077885583399,9.17500000000291
0.8923,0.2697,0.0093,-0.5859,0.6118,0.1095,0.0875,-0.9975,-5.46,1.8803493826571458,72.99764644021245,-0.2148910096923683,9.190999999991618
0.8899,0.2735,0.0107,-0.5861,0.6117,0.1111,0.5075,-1.3475,-5.67,1.996031795687165,72.98365689261274,-0.2115931587400734,9.206000000005588
0.8918,0.2709,0.004,-0.5856,0.6118,0.111,0.0875,-1.6187,-5.8362,1.9377584303775202,73.0135253815755,-0.2137431228708148,9.222000000008848
0.8938,0.2719,0.01,-0.5856,0.6118,0.1094,0.1663,-1.3737,-5.4075,1.9574330212797046,73.01801751531022,-0.2121500905697723,9.237999999997555
0.8822,0.2738,-0.0362,-0.5872,0.6118,0.1094,1.9425,-0.7175,-5.6,-4.268927642699726,72.98002608064336,-0.20062133152181608,9.253000000011525
0.8626,0.2948,-0.0503,-0.5862,0.6122,0.1054,-3.0187,-3.815,-6.6675,-8.346972725485788,71.84616004769897,-0.2354951983308624,9.269000000000233
0.9212,0.2512,0.0296,-0.5848,0.6106,0.1107,0.98,-1.995,-6.0988,-1.0228342154545276,72.89992586457723,-0.23887817852285903,9.284000000014203
0.8464,0.2746,-0.0095,-0.5821,0.6107,0.1096,2.7912,-4.305,-3.3075,-1.7262649226686713,72.29270276197323,-0.2769823606268212,9.30000000000291
0.9376,0.3074,-0.0504,-0.585,0.6121,0.1087,0.1925,-7.5338,-4.7775,-2.763269325117513,72.01227123909557,-0.35777084458624075,9.31600000000617
0.9606,0.2779,0.0614,-0.585,0.6121,0.1087,-2.3625,4.2,-7.98,7.977368114385832,73.07072713574435,-0.2652937601298169,9.331000000005588
0.8896,0.2435,0.0263,-0.5832,0.6121,0.1105,1.3038,7.8488,-5.0487,6.963245230749041,73.54517964342045,-0.12574166419660304,9.346999999994296
0.7868,0.2609,0.0027,-0.5858,0.6115,0.1096,-0.0263,3.675,-4.55,6.600240909102807,72.62598814467528,-0.0635549977307375,9.362000000008265
0.9379,0.268,0.0262,-0.5854,0.611,0.1114,-0.5425,-8.8988,-6.9913,6.228405953056635,73.43801149170022,-0.1853422178672247,9.377999999996973
0.953,0.285,0.0037,-0.5842,0.6109,0.1101,0.8575,-6.8075,-5.6262,3.751744308201734,73.42772810494688,-0.2648359961004732,9.394000000000233
0.8893,0.2941,-0.0217,-0.5842,0.6109,0.1101,-0.1838,1.26,-5.3725,2.325358135726067,73.2335436994067,-0.2213423964745841,9.409000000014203
0.8799,0.2685,0.0098,-0.5843,0.6121,0.1093,-1.1025,2.31,-6.965,2.200321474164875,73.10639323226388,-0.16594415685060238,9.42500000000291
0.8653,0.255,0.0364,-0.5863,0.6109,0.1113,-0.105,-1.2075,-5.5563,2.9237854258494753,73.12453590006128,-0.16565099118072388,9.44000000001688
0.8876,0.278,-0.0066,-0.5842,0.6114,0.1122,1.4,-3.0187,-4.7162,0.45065505733491523,72.89683356310114,-0.19255517199243719,9.455999999991036
0.9172,0.2814,-0.0053,-0.5856,0.6094,0.1058,-0.1575,-4.0512,-6.4925,0.204668703816192,72.91886612006272,-0.23163693480507835,9.471999999994296
0.9152,0.2796,0.011,-0.5856,0.6094,0.1058,-0.9363,-1.33,-6.4837,1.213445469340595,72.95886406833269,-0.2264282413238738,9.486999999993714
0.8866,0.2714,0.0118,-0.5857,0.6124,0.1166,-0.4812,0.91,-5.3725,1.6474195391329092,72.95951480441985,-0.1906814171888168,9.502999999996973
0.8625,0.2638,0.0144,-0.5848,0.6099,0.1116,-0.0175,-0.735,-5.7575,1.719932761160367,72.96161476047843,-0.18153577547917615,9.518000000010943
0.9005,0.2727,0.0127,-0.586,0.6125,0.11,-0.0263,-3.1063,-6.0375,1.773866698571441,73.02249090755205,-0.20811291789968903,9.53399999999965
0.9087,0.2774,-0.0001,-0.585,0.6106,0.1172,0.665,-2.59,-5.4425,1.0796893982950735,73.02257052781722,-0.22459762611731832,9.55000000000291
0.9007,0.2784,0.0023,-0.585,0.6106,0.1172,-0.0525,-1.3913,-5.8975,1.0313504522557508,72.96546686843726,-0.22092041350485764,9.565000000002328
0.8923,0.272,0.0111,-0.586,0.6112,0.1059,-0.9013,-0.2975,-6.02,1.6623349771624598,72.98901094285631,-0.20311237215524464,9.581000000005588
0.8791,0.2655,0.0171,-0.5857,0.6107,0.1107,0.1663,-0.3938,-6.0375,1.8984835939510694,73.0498645368323,-0.18811743493951388,9.596000000005006
0.8799,0.2695,0.0074,-0.5846,0.6103,0.1118,0.5688,-1.4525,-5.3463,1.7850332974486927,73.03884044269132,-0.19022169143080067,9.611999999993714
0.9013,0.276,0.0027,-0.5856,0.6126,0.1108,-0.2625,-2.9575,-5.88,1.504895453715496,73.02065586096508,-0.21378752229639691,9.627999999996973
0.9027,0.2745,0.0081,-0.5856,0.6126,0.1108,-0.14,-2.3275,-6.0462,1.5323774370583858,73.04144279315497,-0.22383002006553793,9.642999999996391
0.8767,0.2506,0.03,-0.5851,0.6122,0.1148,1.0588,-0.7088,-4.9788,4.211718952497386,73.3474158871887,-0.21165373806106352,9.65899999999965
0.9133,0.3115,0.0339,-0.5874,0.6107,0.1086,0.8138,-10.4913,-1.2337,5.087582922653812,71.49771680277175,-0.3321209142494611,9.673999999999069
0.9652,0.2591,-0.0089,-0.583,0.6106,0.1086,0.4288,-6.125,-6.2125,3.091144471372121,72.9457737381387,-0.3871088228424837,9.690000000002328
0.9877,0.3376,-0.0124,-0.583,0.6106,0.1086,-0.455,-4.6375,-5.46,1.3848757893882184,72.88319856373586,-0.4151779405718402,9.706000000005588
0.9506,0.3251,-0.008,-0.5834,0.6113,0.1058,-4.025,8.8725,-7.77,-0.8572683220903168,71.65448182179207,-0.2538813965193042,9.721000000005006
0.847,0.2252,0.0448,-0.5855,0.6116,0.1078,-4.585,13.7463,-8.7587,9.09633990492819,74.08686790249635,-0.030546537007078205,9.736999999993714
0.7723,0.2224,0.0642,-0.5835,0.6106,0.1125,-2.0125,6.4225,-4.9175,13.802380024940636,73.80415802312378,0.059211866774378785,9.752000000007683
0.815,0.2469,0.0066,-0.5827,0.6101,0.1094,2.5375,-10.4475,-5.075,5.033901415394798,73.60769338506496,-0.09715331979688056,9.767999999996391
0.9801,0.312,-0.0108,-0.5827,0.6106,0.112,-0.63,-13.7638,-6.7638,2.2337560721654133,72.89438298767762,-0.28563670785757095,9.78399999999965
0.9627,0.2927,-0.0122,-0.5847,0.6106,0.112,0.56,2.9575,-5.95,0.6413537413330216,72.95074828450191,-0.21714678707336318,9.798999999999069
0.8664,0.2783,-0.0054,-0.5856,0.6109,0.1087,-1.0412,8.6363,-5.5037,-0.26693633030355113,72.9445086339217,-0.07106938834069085,9.815000000002328
0.824,0.235,0.0517,-0.5859,0.61,0.1108,0.175,1.1025,-6.3088,1.298070810604663,73.2929912015412,-0.04907869950719933,9.830000000001746
0.843,0.2385,0.0332,-0.5817,0.611,0.112,0.8138,-4.4625,-6.3437,4.20125125265116,73.64419084174959,-0.1084308295695709,9.846000000005006
0.9243,0.2969,-0.0108,-0.5817,0.611,0.112,0.5425,-7.21,-5.6875,2.0831551721070793,73.4084657857398,-0.20141174663376557,9.862000000008265
0.9452,0.2889,-0.0143,-0.5844,0.6122,0.113,-0.0175,-2.1088,-6.2825,1.8417735072374783,73.22180479821932,-0.20973937194166592,9.876999999993131
0.9104,0.2777,0.01,-0.5826,0.6126,0.1147,-1.05,2.1088,-6.4925,1.9565056160365735,73.1242057959578,-0.1583987147413128,9.892999999996391
0.8391,0.2528,0.0253,-0.5854,0.6106,0.1124,0.5688,2.9662,-5.3113,3.265975997264567,73.12895215841077,-0.10251514326873544,9.907999999995809
0.8427,0.2533,0.0146,-0.5845,0.6122,0.1124,0.9712,-1.2687,-5.53,3.2818697457054453,73.13279484724487,-0.11053290894558383,9.923999999999069
0.9116,0.2826,0.0057,-0.5845,0.6122,0.1124,-0.14,-6.23,-6.0813,2.96652054806401,72.99989107407518,-0.1891916180693022,9.940000000002328
0.9301,0.2858,-0.0042,-0.5856,0.6102,0.0975,0.2187,-3.9288,-6.0025,2.373110078003469,72.97206255403883,-0.2233112562603138,9.955000000001746
0.9083,0.279,0.0004,-0.5854,0.6105,0.1118,-0.35,1.9863,-5.1275,1.7373145467494286,72.95933431869705,-0.1723774106284553,9.971000000005006
0.8601,0.2602,0.0204,-0.5843,0.6113,0.1099,-0.2187,1.54,-5.6788,2.2913858447980466,72.98415346087737,-0.13434966956641653,9.986000000004424
0.8632,0.2567,0.0234,-0.5839,0.613,0.1107,0.8575,-2.73,-5.5037,3.608662187064086,72.98734388937882,-0.1602267026177838,10.002000000007683
0.896,0.2782,0.001,-0.5839,0.613,0.1107,0.4288,-4.48,-6.1075,2.645742360963811,72.89753129261085,-0.20871603231047495,10.017999999996391
0.9238,0.2824,0.0008,-0.5824,0.6116,0.1146,0.1838,-4.0687,-5.6962,2.322430698818293,72.9149751789826,-0.24277187907729597,10.032999999995809
0.9106,0.2801,0.009,-0.5842,0.6113,0.111,-0.1838,0.5075,-6.3263,2.2361723643158866,72.90537744618476,-0.21118669116807756,10.048999999999069
0.8711,0.2643,0.0136,-0.5866,0.6116,0.1102,-0.4112,1.3913,-5.7312,2.4547738678281426,72.94263120533527,-0.17128547205199868,10.063999999998487
0.8663,0.2654,0.0131,-0.5847,0.611,0.1114,0.0875,-1.6888,-6.0988,2.4735730219954593,72.94445451568629,-0.17847564485175318,10.080000000001746
0.8965,0.2714,0.0088,-0.5847,0.611,0.1114,-0.0962,-3.6837,-5.6613,2.4024974859912684,72.97353436304985,-0.21367336037738463,10.096000000005006
0.9082,0.2805,0.0024,-0.585,0.6111,0.1138,-0.2537,-1.9775,-5.9237,1.9751067792745174,72.93228465209981,-0.21900227433861022,10.111000000004424
0.9016,0.2786,0.0052,-0.5852,0.6107,0.1131,-0.175,-0.595,-5.88,1.8184389565956607,72.90268401903897,-0.20567004690649474,10.127000000007683
0.8827,0.2671,0.0112,-0.5848,0.6111,0.1101,-0.2362,-0.5425,-5.9412,1.942432435259641,72.97909957409482,-0.1924267922084561,10.14199999999255
0.8778,0.2649,0.0126,-0.5858,0.611,0.1095,0.4812,-0.5425,-5.88,2.183659142898111,73.0375296314575,-0.180996112989202,10.157999999995809
0.8916,0.2722,0.0093,-0.5858,0.611,0.1095,-0.035,-2.3537,-6.0988,2.1689916319674287,73.02850809764682,-0.19678978169718678,10.173999999999069
0.904,0.2771,0.0057,-0.5852,0.6106,0.1154,0.0962,-2.3012,-6.1687,2.1110974778850164,72.99889536307775,-0.2081770035262626,10.188999999998487
0.9044,0.276,0.0081,-0.5842,0.6109,0.1146,-0.0525,-1.1287,-5.7838,2.0768115917462295,73.00412260780867,-0.20361258317694755,10.205000000001746
0.8844,0.2707,0.0089,-0.5858,0.6106,0.1098,-0.1925,-0.6562,-5.9675,2.041017831577309,72.9940991575762,-0.19211002485890905,10.220000000001164
0.8814,0.2684,0.0112,-0.5859,0.6105,0.1099,-0.0962,-1.1113,-5.7575,2.081197423093237,73.0056647466699,-0.18890174237627833,10.236000000004424
0.8936,0.2735,0.0121,-0.5859,0.6134,0.1071,-0.3938,-2.6425,-5.8362,2.216652056126389,72.99578267954683,-0.2080635681464027,10.252000000007683
0.8987,0.277,0.0004,-0.5856,0.6134,0.1071,-0.0263,-2.17,-5.88,2.09505381970271,72.96070287974482,-0.21655221133062563,10.267000000007101
0.8991,0.2757,0.0065,-0.5853,0.6106,0.1054,-0.3063,-0.9363,-5.5213,1.9059792801166968,72.96038025705484,-0.20837971020030988,10.283000000010361
0.8874,0.2718,0.0099,-0.5856,0.6118,0.1099,-0.0175,-0.8225,-5.7137,1.914817447911366,72.96034113378926,-0.19864548916907596,10.297999999995227
0.8838,0.2689,0.0134,-0.585,0.6104,0.1126,0.3063,-0.2187,-5.8538,2.11550131860606,72.98599761922169,-0.18193022025280997,10.313999999998487
0.8915,0.2735,0.0093,-0.585,0.6104,0.1117,-0.0787,-2.38,-5.9675,2.098469630630335,72.96977789935828,-0.1980091982345111,10.330000000001746
0.8985,0.2758,0.0055,-0.5858,0.6112,0.1117,0.0,-2.3012,-6.1775,2.066919913504239,72.9547107632601,-0.20927447840985447,10.345000000001164
0.8996,0.2721,0.0032,-0.5846,0.6118,0.1114,-0.0088,-0.875,-5.8538,2.0095784869637168,73.0115154248856,-0.20094703057143598,10.361000000004424
0.8866,0.2743,0.011,-0.5838,0.6103,0.1107,-0.2887,-0.5512,-5.5912,2.079587376227266,72.99266010954263,-0.18829352751400363,10.376000000003842
0.8866,0.2696,0.0084,-0.5854,0.6102,0.1098,-0.2625,-1.575,-5.8362,2.012104277719855,73.01451114306343,-0.1921441747672238,10.392000000007101
0.8921,0.2735,0.0121,-0.5854,0.6098,0.1138,-0.0175,-1.8637,-5.9325,2.0376856219618533,72.99179018282071,-0.1997670372959689,10.408000000010361
0.8924,0.274,0.0031,-0.5842,0.6098,0.1138,0.2887,-1.5488,-5.915,1.7557385653223874,72.97368639877331,-0.20069913354527644,10.422999999995227
0.8971,0.2749,0.0141,-0.585,0.6107,0.1119,0.28,-1.4,-6.1337,1.9887038707171778,72.96140847668141,-0.20078922019485593,10.438999999998487
0.8888,0.2743,0.003,-0.5842,0.6114,0.1096,0.4812,-1.3475,-5.9763,1.567886695395104,72.92453348778425,-0.19890154817466443,10.453999999997905
0.89,0.27,0.0096,-0.5825,0.6093,0.111,0.4288,-1.1988,-5.7312,1.7004483284732002,72.96061873952188,-0.19627411336071487,10.470000000001164
0.8888,0.2729,0.0083,-0.5825,0.6093,0.1115,-0.2625,-1.5838,-6.0988,1.7099679605395381,72.94677027808615,-0.19945342202928973,10.486000000004424
0.8939,0.271,0.0058,-0.584,0.6106,0.1115,0.0525,-1.855,-6.0725,1.7012376926942605,73.01412401105438,-0.204550579825389,10.501000000003842
0.8947,0.274,0.0073,-0.5858,0.6107,0.1136,-0.6475,-1.7587,-5.81,1.6302608868756032,73.00289803169885,-0.20942080184800954,10.517000000007101
0.8945,0.2706,0.0071,-0.5842,0.6106,0.11,0.6037,-0.8313,-6.0287,1.5840731312073468,73.05863709102425,-0.1997012716627731,10.53200000000652
0.8941,0.271,0.0126,-0.5854,0.6115,0.1108,0.0175,-1.1025,-5.81,1.6017030138013582,73.07352725764783,-0.19560714449973018,10.548000000009779
0.8923,0.2721,0.0082,-0.5834,0.6105,0.1151,-0.1138,-1.47,-6.1075,1.6177387787493582,73.05854353671596,-0.19721443005406966,10.564000000013039
0.889,0.2724,0.0071,-0.5834,0.6105,0.1151,0.0787,-1.9688,-5.7488,1.6124183578878017,73.03839552266682,-0.20407178702184647,10.578999999997905
0.8947,0.2715,0.0091,-0.5861,0.6105,0.1174,0.1575,-1.6187,-6.0637,1.6461643320315937,73.06450338878042,-0.20697388832441058,10.595000000001164
0.8919,0.2735,0.0112,-0.5877,0.6097,0.1114,0.3938,-0.84,-5.8538,1.8310236492844425,73.03124810457673,-0.19761649949152948,10.610000000000582
0.8943,0.2722,0.0087,-0.586,0.611,0.1094,0.3675,-0.8487,-5.635,1.8309308865073233,73.03514434110993,-0.19007612954486633,10.626000000003842
0.8905,0.2725,0.0089,-0.586,0.6105,0.1055,0.0088,-1.54,-5.9938,1.8319119232152306,73.01578187861713,-0.19324451659489755,10.642000000007101
0.8921,0.2734,0.0085,-0.5864,0.6105,0.1055,-0.2887,-1.1812,-5.9062,1.8194264270442022,72.99768398536422,-0.189866264934789,10.65700000000652
0.8899,0.2726,0.0089,-0.585,0.6089,0.1111,0.0525,-1.3563,-5.7137,1.8203381477700855,72.99097448228613,-0.19041035844528903,10.673000000009779
0.8941,0.274,0.0092,-0.5848,0.6105,0.1124,0.5075,-1.1638,-6.4575,1.8533467617486525,72.97239989169194,-0.18708062258490848,10.687999999994645
0.8924,0.2746,0.009,-0.587,0.6108,0.1098,0.1925,-1.5838,-6.02,1.8566071717590962,72.94326423194902,-0.19117928033106396,10.703999999997905
0.8915,0.2725,0.0049,-0.587,0.6108,0.1098,0.0437,-1.5137,-6.02,1.8487706285942676,72.96308581354724,-0.19385863230239828,10.720000000001164
0.8923,0.2741,0.0087,-0.5856,0.6124,0.1069,0.0525,-1.2425,-5.67,1.8482149654222648,72.95605797685458,-0.19236476907580352,10.736000000004424
0.8899,0.2722,0.0105,-0.5853,0.6112,0.1101,0.2187,-1.365,-5.6262,1.9044404707009106,72.95887424455589,-0.19278429215435058,10.751999999993131
0.8506,0.2768,0.0061,-0.5835,0.611,0.1094,0.0787,-0.6212,-5.8275,1.877046315823137,72.71239445204635,-0.18189206294672577,10.767000000007101
0.9194,0.2672,0.0167,-0.5838,0.6116,0.1091,0.175,-6.3175,-6.3088,2.0868714293634247,73.18448033570341,-0.2546748565878481,10.782999999995809
0.886,0.303,-0.006,-0.5853,0.6114,0.1125,0.7088,-4.165,-4.6375,0.7891139251228596,72.2295814233455,-0.289183370941282,10.798999999999069
0.9099,0.2533,0.0423,-0.5853,0.6114,0.1125,-1.3125,2.0563,-6.3263,5.776814444104259,73.1414533137268,-0.23250498382130022,10.814000000013039
0.8699,0.2762,0.0585,-0.5841,0.6095,0.1176,-0.875,-1.89,-5.075,8.720624215032712,72.80924131329,-0.23647048541996205,10.830000000001746
0.8767,0.2634,-0.0167,-0.5845,0.6102,0.1094,-0.1312,-3.815,-5.1712,6.968732541700219,72.91610281605128,-0.26432593692593126,10.845000000015716
0.9252,0.2962,0.0356,-0.5846,0.6108,0.1088,-1.365,-5.18,-4.8125,6.901502934956415,72.59630149698548,-0.3124853431806935,10.861000000004424
0.9001,0.2585,-0.0225,-0.5846,0.6108,0.1088,1.0762,-0.455,-7.6475,0.8411486184453636,73.49936354666612,-0.28778880885799996,10.876999999993131
0.8825,0.2855,0.0282,-0.586,0.6113,0.1042,-1.855,-0.21,-4.3663,3.9796761798881644,72.69961117641586,-0.26184492797484027,10.892000000007101
0.8656,0.2758,0.006,-0.5845,0.611,0.1081,0.3237,0.07,-5.9763,3.3658904733621298,72.57732167921148,-0.23465243517806766,10.907999999995809
0.9115,0.2598,0.0154,-0.5862,0.6102,0.1106,-0.6037,-3.6575,-6.3088,3.3761815572535268,73.2444361311158,-0.2605634417062461,10.923000000009779
0.9088,0.2871,0.0268,-0.5858,0.61,0.1123,-1.4787,-2.0387,-5.7137,4.5542381924695565,73.09253568682469,-0.2638643775149021,10.938999999998487
0.8896,0.2663,-0.0043,-0.5858,0.61,0.1123,0.9538,-0.7525,-5.6262,1.92921473274174,73.12034057480952,-0.24831393976561947,10.955000000001746
0.8891,0.2784,0.0205,-0.5842,0.6102,0.1148,-1.435,-1.75,-5.5213,3.287098259205388,73.10644482063546,-0.24710754578814073,10.970000000001164
0.8849,0.2772,0.0123,-0.5852,0.6106,0.1134,1.1812,-1.1025,-6.405,2.888323828641064,72.86066892977964,-0.23827279121256104,10.986000000004424
0.905,0.2676,0.0084,-0.5859,0.611,0.1092,0.5512,-1.8375,-5.6438,2.5166790574245197,72.94583344709905,-0.23925176209034232,11.001000000003842
0.8918,0.2821,0.0121,-0.584,0.6128,0.1092,-0.6562,-1.75,-5.5125,2.4919219143686626,72.93720287580267,-0.24052658586352274,11.01699999999255
0.9046,0.2642,0.0015,-0.584,0.6128,0.1092,1.1725,-1.1463,-6.3875,1.3385074199632587,73.3056276810738,-0.23298064728053336,11.032999999995809
0.8772,0.2752,0.0078,-0.5854,0.6119,0.1056,-0.6125,-1.8112,-5.7488,1.4504237947358345,73.15802774562124,-0.234133782575252,11.048000000009779
0.8862,0.2674,0.0043,-0.5852,0.6118,0.1069,0.6475,-0.5775,-5.6438,1.249254119995804,73.1644070446804,-0.21903640431185764,11.063999999998487
0.8933,0.2733,0.0139,-0.585,0.6106,0.1098,0.3063,-1.995,-5.6,1.6048906137836914,73.14582367290505,-0.22406526390575474,11.079000000012456
0.8915,0.273,0.0025,-0.5847,0.6112,0.1106,-0.1663,-1.785,-5.565,1.4245339705175204,73.13461026377378,-0.22736273749703823,11.095000000001164
0.898,0.2749,0.0079,-0.5847,0.6112,0.1106,-0.0088,-1.8112,-5.8713,1.433653538817698,73.09038884511595,-0.23070774375264785,11.111000000004424
0.8874,0.2732,0.0082,-0.5854,0.6118,0.1106,-0.63,-1.0588,-5.9325,1.5476091113920174,73.02668866280298,-0.2219307693768284,11.126000000003842
0.8912,0.2722,0.014,-0.5854,0.6108,0.1013,-0.0962,-1.0325,-5.5563,1.7086463554526117,73.02484521594424,-0.2146056924286522,11.14199999999255
0.8929,0.2707,0.0052,-0.5858,0.6115,0.1106,0.7525,-1.75,-5.2238,1.4544021577850097,73.04759929155948,-0.2167701232077895,11.15700000000652
0.8924,0.2723,0.0024,-0.585,0.6104,0.1152,0.3325,-2.24,-5.8888,1.236220127901031,73.04284026306257,-0.22734911086424528,11.172999999995227
0.896,0.2749,0.0112,-0.585,0.6104,0.1152,0.0525,-1.1113,-5.4425,1.2560087783868263,73.03717880236697,-0.22061691978108094,11.188999999998487
0.89,0.2714,0.0072,-0.5858,0.6113,0.1012,0.315,-0.735,-5.9325,1.3138205683876523,73.03670319185653,-0.20847772780258783,11.203999999997905
0.8886,0.2725,0.0112,-0.5845,0.6126,0.1102,0.1925,-1.1463,-5.7663,1.4559772989806294,73.01559109503319,-0.2041366750256919,11.220000000001164
0.892,0.2726,0.0099,-0.5845,0.6114,0.109,-0.1312,-1.8813,-6.0375,1.5444934289200545,73.00870767108157,-0.20912055754677603,11.235000000015134
0.8971,0.2706,0.0035,-0.5844,0.6114,0.1098,0.0437,-1.8112,-5.5912,1.5368748531439274,73.02659043103307,-0.2142897817736911,11.251000000003842
0.8926,0.2752,0.0104,-0.5844,0.6114,0.1098,0.2362,-0.8838,-5.6175,1.642333533586945,73.00773800726482,-0.20558752359891477,11.267000000007101
0.8927,0.2714,0.0088,-0.586,0.6126,0.1085,0.1312,-1.225,-5.7575,1.661339892953016,73.02299629136192,-0.20156627122233808,11.281999999991967
0.8929,0.2729,0.0115,-0.585,0.6112,0.1022,-0.0175,-1.2513,-5.7575,1.6982415159262478,73.01632930492863,-0.19942836410377518,11.297999999995227
0.8928,0.2721,0.0098,-0.5842,0.6113,0.1098,0.2887,-1.1113,-5.7488,1.772192541789576,73.02109668852718,-0.19448807769281548,11.312999999994645
0.8911,0.2732,0.0112,-0.5853,0.6119,0.1132,0.5337,-0.9013,-5.7838,1.9638727210019593,73.0033118365213,-0.18801798992617805,11.328999999997905
0.894,0.2712,0.0099,-0.5855,0.612,0.1126,-0.28,-1.6712,-5.9325,1.9941704847750414,73.03695345309022,-0.19328147093846298,11.345000000001164
0.8914,0.2716,0.0087,-0.584,0.6117,0.1094,0.2713,-1.3475,-5.915,1.9635979527969494,73.03974298990194,-0.1921445738439108,11.360000000000582
0.8931,0.2704,0.0063,-0.5846,0.6098,0.109,0.84,-1.2687,-5.915,1.6829436249325307,73.07267839582894,-0.19119939646324166,11.376000000003842
0.8929,0.2749,0.0088,-0.5846,0.6098,0.109,0.1312,-1.3913,-5.6788,1.6962659108021385,73.04275329320132,-0.19086200681618865,11.39100000000326
0.8951,0.272,0.0089,-0.5824,0.611,0.1137,-0.245,-1.6625,-5.7225,1.735068582333347,73.0512494477178,-0.195715806139447,11.40700000000652
0.8902,0.2722,0.009,-0.5838,0.6114,0.1091,0.2713,-1.645,-5.9412,1.7654855146475628,73.0320492537413,-0.1998322255087841,11.422999999995227
0.8909,0.2726,0.0095,-0.584,0.6126,0.1088,0.1925,-1.1638,-5.8275,1.796991528888764,73.01834231234089,-0.195560302957296,11.437999999994645
0.8952,0.2728,0.011,-0.588,0.6112,0.1116,0.0263,-1.6625,-5.8888,1.8009683837984771,73.0242115699919,-0.19994427266644366,11.453999999997905
0.8899,0.2727,0.0078,-0.588,0.6112,0.1116,0.35,-0.945,-5.8713,1.7619384821299926,73.00566828602126,-0.19270734539930423,11.468999999997322
0.8935,0.2753,0.0068,-0.5846,0.6112,0.1017,-0.3762,-1.855,-6.0462,1.6609802161898972,72.95758316779273,-0.20014861086481578,11.485000000000582
0.891,0.2719,0.0118,-0.5866,0.6099,0.1085,-0.245,-1.47,-5.6525,1.8407909424548479,72.96533753238766,-0.2013017497826467,11.501000000003842
0.8929,0.2711,0.0093,-0.5847,0.6109,0.11,0.2362,-1.3563,-5.8187,1.861627780085774,72.99858292833298,-0.19948162480367151,11.51600000000326
0.8908,0.2733,0.0074,-0.5839,0.6114,0.1106,0.35,-1.3737,-5.5912,1.7870594050120276,72.99328395294174,-0.19931474232733434,11.53200000000652
0.893,0.2739,0.0073,-0.5856,0.6112,0.1082,0.1138,-1.4088,-5.9062,1.7678457471115345,72.97850590247332,-0.19840206807541222,11.546999999991385
0.8931,0.2713,0.007,-0.5871,0.6101,0.1106,0.3938,-1.1725,-6.195,1.6911732171201055,73.02740804961338,-0.19544586127131072,11.562999999994645
0.8924,0.2755,0.0124,-0.5858,0.6114,0.1094,0.0787,-1.1113,-5.5738,1.7289762238756736,73.01286339284836,-0.19190399514743983,11.578999999997905
0.8915,0.2719,0.0068,-0.5838,0.6103,0.111,-0.0613,-1.3125,-5.6262,1.703159687374195,73.01527710789652,-0.19043234563200828,11.593999999997322
0.8925,0.2736,0.012,-0.5838,0.6103,0.111,-0.28,-1.6275,-6.0113,1.8963514914451427,72.99013714581271,-0.194825111073582,11.610000000000582
0.8907,0.2729,0.0085,-0.5853,0.6109,0.1062,0.4112,-1.435,-6.1863,1.8655903105367695,72.97691225736011,-0.19471509996547204,11.625
0.8915,0.2732,0.0067,-0.5848,0.6113,0.1096,0.1488,-1.7325,-5.5125,1.818191145120321,72.97658665655804,-0.2001915899740074,11.64100000000326
0.8925,0.2729,0.0048,-0.5846,0.6114,0.1108,-0.245,-1.47,-5.7312,1.6413204101538006,72.98018459750975,-0.20134043098091917,11.65700000000652
0.8919,0.2726,0.0109,-0.5845,0.6101,0.1143,-0.0088,-1.2513,-5.7137,1.668010699741431,72.98229657629025,-0.19809893788217176,11.672000000005937
0.8916,0.2759,0.0087,-0.5845,0.6101,0.1143,-0.28,-1.3212,-5.8625,1.701023846284141,72.93270645596911,-0.19731432409783056,11.688000000009197
0.8932,0.2713,0.0091,-0.5861,0.6102,0.1076,-0.6125,-1.61,-5.8713,1.7874498416231492,72.97716208178653,-0.19931789166611835,11.702999999994063
0.8918,0.2732,0.0076,-0.5865,0.6121,0.1112,0.0525,-1.0762,-6.37,1.7839501264730193,72.96986399569465,-0.19488338250266374,11.718999999997322
0.8907,0.2729,0.0085,-0.584,0.612,0.1089,0.0787,-0.9363,-5.985,1.7839527437506206,72.96588904549388,-0.18887776425514416,11.735000000000582
0.8915,0.2732,0.0087,-0.5858,0.6122,0.1092,-0.3762,-1.785,-5.8275,1.7955915871597938,72.96297287933197,-0.19408748782869464,11.75
0.8924,0.2727,0.0045,-0.5858,0.6122,0.1092,-0.1225,-1.6363,-5.8888,1.6804596870250699,72.97503285642819,-0.19824145905062554,11.76600000000326
0.893,0.2741,0.0082,-0.5843,0.6117,0.1064,0.2713,-1.4,-5.6262,1.6868041611650013,72.96974596739224,-0.19731731314482956,11.781000000002678
0.8924,0.2727,0.0053,-0.5854,0.6107,0.1106,0.2625,-1.0412,-5.7838,1.580203273186111,72.97760243924202,-0.19257886183340112,11.797000000005937
0.8917,0.2708,0.0113,-0.585,0.6107,0.1091,0.0,-0.8925,-6.1163,1.6069095181123652,73.02186139056201,-0.1861729756526793,11.813000000009197
0.8899,0.2724,0.0087,-0.5854,0.611,0.1101,-0.1575,-1.7587,-5.705,1.6426739245822242,73.01328847712968,-0.19129812806345683,11.827999999994063
0.8918,0.2721,0.0099,-0.5854,0.611,0.1101,-0.1312,-1.9775,-5.4862,1.7052448207369744,73.01336618590562,-0.2006443152629125,11.843999999997322
0.8933,0.273,0.0093,-0.5837,0.6118,0.103,0.1925,-1.2337,-5.74,1.7388554233529032,73.01017326370163,-0.19723483373597495,11.85899999999674
0.8945,0.2733,0.0081,-0.5821,0.6088,0.1115,0.385,-0.9712,-6.0287,1.728145448914864,73.00777776325609,-0.19149663036522663,11.875
0.8936,0.2739,0.0093,-0.5853,0.6114,0.1132,0.56,-1.0588,-5.5125,1.8027691893649425,73.00680470310225,-0.18759368733181014,11.89100000000326
0.891,0.2732,0.0071,-0.5861,0.6102,0.1061,-0.1488,-1.7237,-5.6875,1.7541992876076908,72.99731394934659,-0.19210426859772614,11.906000000002678
0.894,0.2734,0.0124,-0.5865,0.6099,0.11,-0.0787,-1.7938,-5.6525,1.839634587849413,72.99483205824536,-0.19872456174321596,11.922000000005937
0.8893,0.2737,0.0051,-0.5845,0.6094,0.1125,0.2187,-1.7587,-5.9588,1.7193251973296653,72.96176467514553,-0.20259455556797304,11.937000000005355
0.8936,0.2744,0.0113,-0.5853,0.6122,0.1091,-0.035,-1.3563,-6.02,1.7606300428104673,72.94604950868323,-0.20186582001515468,11.953000000008615
0.8913,0.2722,0.0081,-0.5853,0.6122,0.1091,-0.245,-1.435,-6.02,1.748376714069174,72.96819824495516,-0.20234323801784904,11.969000000011874
0.8941,0.2726,0.0074,-0.5858,0.6094,0.1103,-0.105,-1.5488,-6.125,1.7247549628816798,72.99528067500752,-0.20301771419496856,11.98399999999674
0.8926,0.2727,0.0099,-0.5848,0.6102,0.1099,0.035,-1.4525,-5.9237,1.725064063947077,72.9969696819827,-0.20363194277973284,12.0
0.8942,0.2749,0.007,-0.5854,0.6112,0.1096,-0.1925,-1.365,-6.055,1.6758430198023382,72.96433521043566,-0.20169624850104448,12.014999999999418
0.8926,0.2743,0.008,-0.5858,0.6123,0.1096,0.4288,-1.295,-5.6262,1.6743497851297382,72.95813641691821,-0.20017462365473915,12.031000000002678
0.8909,0.2711,0.0051,-0.5858,0.6123,0.1096,0.0613,-1.1113,-5.8362,1.658566846712895,72.98713195061823,-0.19615988129252543,12.047000000005937
0.8941,0.2723,0.0097,-0.5858,0.611,0.1044,0.0875,-1.4612,-6.09,1.6779013984956839,73.0111885493893,-0.19627009316250743,12.062000000005355
0.8892,0.2736,0.0055,-0.5847,0.6115,0.1091,-0.1225,-1.6712,-5.9588,1.6066344846088658,72.97408734682284,-0.20070836385115945,12.078000000008615
0.8945,0.2729,0.0105,-0.5842,0.6101,0.1114,0.2275,-1.7938,-5.9938,1.7033345132362876,72.98999694138486,-0.2048538274416109,12.09299999999348
0.8952,0.2749,0.0051,-0.5863,0.6108,0.1081,0.105,-1.2425,-5.9675,1.6609450746530627,72.9696162478828,-0.20226044470109492,12.10899999999674
0.8944,0.2708,0.0101,-0.5863,0.6108,0.1081,-0.6825,-1.8112,-5.7925,1.8592478857636667,73.00956986239933,-0.2081156802362989,12.125
0.8918,0.2736,0.0094,-0.5836,0.6108,0.1086,-0.2275,-1.4262,-5.915,1.8817423252260317,72.98745839225109,-0.20655781221192185,12.139999999999418
0.8927,0.2716,0.0077,-0.5871,0.6122,0.1083,0.1225,-1.6888,-5.4425,1.860808640105393,72.99168084104804,-0.21022075099568405,12.156000000002678
0.8946,0.273,0.0101,-0.5848,0.6114,0.1096,0.0613,-1.7062,-5.8012,1.867632729227074,72.99801682271668,-0.21223237589522181,12.171000000002095
0.8938,0.2743,0.0107,-0.5858,0.6119,0.1099,-0.5075,-1.6975,-5.7225,1.9963092208598117,72.98486668963126,-0.21545313831067955,12.187000000005355
0.8925,0.2721,0.0071,-0.5858,0.6119,0.1099,0.1925,-1.4088,-5.3463,1.9277290410827999,72.99195228748856,-0.21419454448374456,12.203000000008615
0.8941,0.2731,0.0071,-0.5838,0.6111,0.1134,-0.14,-1.0412,-5.8975,1.8626979938983403,72.99697474923008,-0.20683129003482467,12.218000000008033
0.8903,0.271,0.0068,-0.5846,0.6107,0.1094,-0.0437,-0.98,-5.845,1.8319868097864653,73.01463549303851,-0.2002601610342172,12.234000000011292
0.8919,0.2717,0.0089,-0.585,0.6102,0.111,0.14,-1.2075,-6.125,1.8362149379021215,73.02794868733545,-0.19653539491434863,12.248999999996158
0.8915,0.2736,0.0084,-0.5839,0.6126,0.1098,0.1225,-1.8025,-6.2562,1.8299070101645367,72.98617194190626,-0.20283785542820168,12.264999999999418
0.8907,0.2718,0.0048,-0.5839,0.6126,0.1098,-0.3237,-1.26,-5.4862,1.614296367896459,72.98655276342956,-0.20069806988907796,12.281000000002678
0.8918,0.2743,0.0089,-0.5822,0.6113,0.1176,0.3063,-1.155,-5.6087,1.6665164245601216,72.97720468794202,-0.1962207628995651,12.296000000002095
0.8922,0.2736,0.0093,-0.585,0.6116,0.1093,0.2362,-1.7237,-5.53,1.7136338821612063,72.97603413277572,-0.20141996661466535,12.312000000005355
0.8933,0.2746,0.0133,-0.5848,0.6095,0.1102,0.1838,-1.6888,-5.88,1.8515372725916255,72.9531755002387,-0.20407676995231414,12.327000000004773
0.8914,0.2752,0.0073,-0.5854,0.6102,0.1091,0.0962,-1.19,-5.7312,1.832130190315116,72.93108880329564,-0.20080509296057378,12.343000000008033
0.8943,0.2741,0.0084,-0.5854,0.6102,0.1091,0.4025,-1.4088,-5.635,1.811453234069056,72.93369073470282,-0.20101130366864936,12.359000000011292
0.8903,0.2727,0.006,-0.5848,0.6118,0.1142,0.4988,-1.0325,-5.8625,1.6366389994327217,72.94242636036104,-0.19484892328772116,12.373999999996158
0.8922,0.2741,0.0089,-0.5845,0.6098,0.1095,0.105,-1.1812,-5.9325,1.6514040350314347,72.93366467350964,-0.1923733109624143,12.389999999999418
0.8921,0.2733,0.0096,-0.5841,0.6118,0.1095,0.0263,-1.3737,-6.2825,1.6542026200380104,72.94409846265081,-0.19168092986545324,12.404999999998836
0.8922,0.2725,0.0093,-0.5846,0.6122,0.1095,-0.1488,-1.3475,-6.2737,1.7006646640286902,72.97150090867717,-0.191916836882861,12.421000000002095
0.8912,0.272,0.0099,-0.5846,0.6122,0.1095,-0.0787,-1.3825,-5.705,1.7395785967791926,72.97936301597534,-0.19263315319863072,12.437000000005355
0.8909,0.2714,0.0073,-0.5845,0.6101,0.1094,0.6388,-1.6013,-5.7663,1.6646543474538964,72.99476168684924,-0.19498738787792877,12.452000000004773
0.8918,0.2743,0.0085,-0.5839,0.6101,0.1097,-0.1138,-1.6013,-5.9938,1.6788626260546602,72.96171777559027,-0.19854736909483356,12.468000000008033
0.8935,0.2722,0.0086,-0.5849,0.6104,0.1092,0.035,-1.75,-6.0113,1.6789766817911531,72.99140476902359,-0.20231763218443344,12.48300000000745
0.8938,0.2744,0.0087,-0.5854,0.6095,0.1106,-0.4638,-1.6712,-5.985,1.7245198007318703,72.96965814527735,-0.20765522895478383,12.5
0.8895,0.273,0.0055,-0.5854,0.6095,0.1106,-0.4025,-1.3475,-5.4425,1.5511714541549915,72.96790332663845,-0.20629370606325856,12.51600000000326
0.8916,0.2721,0.0095,-0.5834,0.6122,0.1102,-0.0088,-1.6275,-5.5825,1.5696284852443856,72.9719974988166,-0.20763558547739502,12.53100000001723
0.8915,0.2744,0.0047,-0.5846,0.613,0.1106,-0.3325,-1.8463,-5.5912,1.4117919752785488,72.9647869574939,-0.21345874691089148,12.547000000005937
0.8932,0.2744,0.0076,-0.5836,0.6106,0.1106,-0.1663,-1.5925,-5.67,1.4409623932875844,72.9575882867717,-0.2136116222189681,12.562000000005355
0.8921,0.273,0.0056,-0.5836,0.611,0.111,-0.0525,-1.085,-6.02,1.419770224952922,72.96581390020144,-0.20787445998604437,12.577999999994063
0.8921,0.273,0.0088,-0.5851,0.611,0.111,0.49,-0.9625,-5.6962,1.5533149081016642,72.96760736892837,-0.2009470139902636,12.593999999997322
0.8921,0.2705,0.0104,-0.5858,0.6118,0.1111,-0.2362,-1.6363,-5.6087,1.6913100005837527,72.9831158058586,-0.20294236259038007,12.60899999999674
0.8947,0.2734,0.0074,-0.5841,0.6118,0.1104,-0.2013,-1.6712,-5.7575,1.664461854608036,72.98707304034774,-0.2067134063362448,12.625
0.8931,0.2748,0.0077,-0.5842,0.6096,0.1113,0.3675,-0.5075,-5.6962,1.6496024287578523,72.97100187217582,-0.19289331570900103,12.64000000001397
0.8909,0.2734,0.0086,-0.5849,0.612,0.1081,0.2275,-1.2775,-6.0375,1.6742460985665821,72.95722657903659,-0.19199998412511762,12.656000000002678
0.8922,0.2713,0.0076,-0.5849,0.612,0.1081,0.07,-1.26,-5.9675,1.671834983647736,72.99668947373151,-0.1909439857163023,12.672000000005937
0.8911,0.2725,0.0101,-0.5859,0.611,0.1147,-0.1925,-1.645,-5.7575,1.7551261954812667,72.99431856738843,-0.19405708714381031,12.687000000005355
0.8921,0.2721,0.0077,-0.5846,0.6122,0.1102,0.1138,-1.6275,-5.3987,1.7452246555175173,72.99758372730649,-0.1980873784128889,12.702999999994063
0.8927,0.2722,0.0084,-0.5859,0.6121,0.1106,-0.5337,-1.2687,-5.2587,1.7533166418434065,73.00474627030967,-0.19540609058755118,12.718000000008033
0.8919,0.2737,0.0097,-0.5859,0.6121,0.1118,-0.1925,-1.995,-5.8012,1.8043853658524707,72.98726168068418,-0.20459348150852077,12.73399999999674
0.893,0.2735,0.0071,-0.5849,0.6105,0.1118,-0.1925,-1.8988,-5.4338,1.7457560222572783,72.98604392839177,-0.21147685336323915,12.75
0.8954,0.2738,0.0116,-0.5854,0.6111,0.1088,-0.3588,-1.9162,-5.7312,1.9376390634948388,72.98542039582688,-0.2161978680259114,12.764999999999418
0.8913,0.2724,0.0049,-0.5853,0.6102,0.1105,-0.3675,-1.4875,-5.74,1.6777157372087088,72.98890556246461,-0.21599808122768407,12.781000000002678
0.8916,0.2719,0.0119,-0.5854,0.611,0.1106,0.1663,-1.3212,-5.775,1.7744134476952202,72.99684098696139,-0.21223447310422353,12.796000000002095
0.8919,0.2705,0.0055,-0.584,0.6098,0.1103,-0.4288,-1.8288,-5.705,1.5815138592281466,73.0190347179886,-0.21734574579916627,12.812000000005355
0.8945,0.272,0.0096,-0.584,0.6098,0.1103,0.0088,-1.5925,-5.7312,1.5923787914221934,73.03001276227927,-0.2185431712239215,12.828000000008615
0.8955,0.2729,0.0045,-0.5841,0.612,0.1018,-0.1138,-1.5313,-5.7925,1.5089155437140769,73.0344621411447,-0.21736140408067214,12.84299999999348
0.8933,0.2726,0.007,-0.5848,0.6106,0.109,-0.3325,-1.0237,-5.6613,1.4987318178283664,73.03305930605946,-0.21036654367560814,12.85899999999674
0.8907,0.2718,0.0082,-0.5858,0.6106,0.1084,-0.14,-1.3388,-5.8625,1.5327398990383978,73.0303540785717,-0.20740368932487985,12.87400000001071
0.889,0.2729,0.011,-0.5846,0.6107,0.1044,0.0175,-1.3475,-5.9325,1.5454228864724755,72.9973442006066,-0.20606732037869716,12.889999999999418
0.8943,0.2726,0.0051,-0.5846,0.6107,0.1044,-0.1663,-1.4612,-5.6962,1.4663463937305727,73.0053060449745,-0.20650186834511414,12.906000000002678
0.8929,0.2749,0.0083,-0.585,0.6112,0.1046,-0.0263,-1.4438,-5.8538,1.4813358336204883,72.97236943986528,-0.20534298150984637,12.921000000002095
0.891,0.2705,0.0112,-0.5858,0.6112,0.1112,0.315,-1.2775,-5.5388,1.6764162149251935,72.97761169299953,-0.2032046833626095,12.937000000005355
0.8913,0.2725,0.0061,-0.5863,0.6106,0.1091,-0.21,-1.5225,-5.8975,1.5990951222859149,72.98284318568035,-0.2034379650056112,12.951999999990221
0.8935,0.2724,0.0075,-0.5852,0.6106,0.1171,0.2887,-1.2862,-5.9412,1.5946377472537503,73.00019807761025,-0.20161544850882337,12.96799999999348
0.8909,0.274,0.0083,-0.5852,0.6106,0.1171,-0.1488,-1.6975,-5.7312,1.6163543252322203,72.98053230509737,-0.20589790366292096,12.98399999999674
0.89,0.273,0.0117,-0.5869,0.6121,0.1114,0.0263,-1.4525,-5.915,1.6228599066593212,72.96627749923034,-0.20491686329586795,12.998999999996158
0.8901,0.2724,0.0079,-0.5844,0.6122,0.1124,0.0525,-1.575,-5.5388,1.6235515501439621,72.96674047805637,-0.2071051769709017,13.014999999999418
0.8915,0.273,0.0109,-0.5861,0.6114,0.112,0.4112,-1.5488,-5.8975,1.8050593637550096,72.9651797701938,-0.20730345927300015,13.029999999998836
0.8922,0.2729,0.0056,-0.5861,0.6114,0.112,0.4812,-1.4262,-5.46,1.6105767748969313,72.96600064231885,-0.20711039334988413,13.046000000002095
0.8945,0.271,0.0083,-0.5842,0.6105,0.1088,0.105,-1.5313,-5.8538,1.620086546528539,73.01129855181867,-0.20845007401938803,13.062000000005355
0.8923,0.2713,0.0059,-0.5846,0.6125,0.1158,-0.2537,-1.2075,-5.9675,1.536439357630561,73.03479193338136,-0.20390631661681666,13.077000000004773
0.8905,0.2714,0.0094,-0.5854,0.6109,0.1097,-0.315,-1.5838,-6.2737,1.6521708948443568,73.03734908459005,-0.20632240495978135,13.093000000008033
0.8896,0.2718,0.0048,-0.5845,0.6106,0.1086,0.14,-1.785,-5.8538,1.5908580200471882,73.02960342643681,-0.20978766443949046,13.107999999992899
0.8938,0.2725,0.0102,-0.5845,0.6106,0.1086,-0.0088,-1.5488,-5.8187,1.6136109457521366,73.03055408883704,-0.21111161800008507,13.123999999996158
0.8918,0.2746,0.0078,-0.5846,0.6112,0.1157,0.4988,-1.5662,-6.02,1.617873396921255,72.97842019232213,-0.21255373620467127,13.139999999999418
0.8929,0.2725,0.0091,-0.5863,0.6104,0.1172,0.28,-1.2513,-5.2587,1.6760481163990064,72.98631484786588,-0.20819091258354863,13.154999999998836
0.8897,0.2725,0.008,-0.5842,0.6101,0.1097,0.0088,-0.98,-5.9237,1.6761851304049136,72.97966909120902,-0.20148382132806877,13.171000000002095
0.889,0.2723,0.0109,-0.5851,0.6105,0.1102,0.6825,-1.1463,-6.055,1.918524815548443,72.97166705411185,-0.19681048919466138,13.186000000001513
0.8944,0.2727,0.0059,-0.5846,0.6115,0.1032,0.4988,-1.1375,-5.7312,1.7030792152642091,72.98469338232891,-0.19350944027853229,13.202000000004773
0.8938,0.2717,0.0073,-0.5846,0.6115,0.1032,-0.2625,-1.4088,-5.7925,1.6655534591792054,73.00786465015219,-0.194445216254812,13.218000000008033
0.8891,0.2717,0.0077,-0.5846,0.609,0.1105,-0.1575,-1.0237,-5.95,1.6587638589631797,73.00570270218046,-0.18882064461538742,13.232999999992899
0.8933,0.2716,0.0138,-0.585,0.6114,0.1117,0.2275,-1.5925,-5.74,1.8613019767967403,73.01794417561175,-0.19287058015852054,13.248999999996158
0.8863,0.2744,0.0066,-0.5822,0.6109,0.1117,-0.07,-1.4438,-5.7137,1.8157080697129446,72.97759077127661,-0.19307482214191213,13.263999999995576
0.8995,0.2724,0.0114,-0.5822,0.6109,0.1136,-0.4112,-1.4525,-5.7312,1.994641108895876,73.00818323724602,-0.19468333993198206,13.279999999998836
0.891,0.275,0.0086,-0.5847,0.6105,0.1136,0.0263,-1.2425,-5.53,1.9930612311574423,73.00255447997917,-0.19310700594242894,13.296000000002095
0.8899,0.2721,0.0075,-0.5837,0.6098,0.1068,0.2013,-1.0938,-6.0287,1.9337365397987623,72.99893003949774,-0.18856260534761304,13.311000000001513
0.8899,0.27,0.0096,-0.5838,0.6112,0.113,-0.2013,-1.3388,-6.16,1.9532862181622677,73.04402762974571,-0.18898506481677935,13.327000000004773
0.892,0.2725,0.0118,-0.5856,0.6103,0.1104,0.385,-1.5662,-6.0462,2.0899680480639944,73.02748143185975,-0.19123025833428092,13.342000000004191
0.8932,0.275,0.0077,-0.5856,0.6103,0.1104,-0.2975,-1.8288,-6.0988,1.9689088966157868,72.97237409589601,-0.19844195250621793,13.35800000000745
0.8951,0.2715,0.0038,-0.5854,0.6094,0.1139,-0.1838,-1.7325,-6.1075,1.7600887893202424,73.03030073859992,-0.20354575726067872,13.37400000001071
0.8922,0.2729,0.0117,-0.5867,0.6111,0.1129,0.1575,-1.54,-5.7575,1.8363988146327008,73.01940259251894,-0.20398118151363515,13.388999999995576
0.892,0.2707,0.006,-0.5858,0.6098,0.1096,-0.0437,-1.4262,-5.9675,1.7954818409875508,73.04984702702744,-0.20412034336645563,13.404999999998836
0.8882,0.273,0.0098,-0.5854,0.6114,0.1122,-0.14,-1.7587,-5.5738,1.834101070373188,73.03925869697194,-0.20745075902888874,13.419999999998254
0.8943,0.271,0.0056,-0.5854,0.6114,0.1078,0.3325,-1.5488,-6.0813,1.6846592056620915,73.07581271080008,-0.20900840313054353,13.436000000001513
0.8919,0.275,0.0056,-0.5834,0.6114,0.1078,0.3237,-1.155,-5.8012,1.5683268302681228,73.02540103735917,-0.20473956282087757,13.452000000004773
0.8896,0.2713,0.0088,-0.5853,0.6106,0.1151,0.9275,-1.2425,-5.6,1.7049211469226464,73.02598185280854,-0.20103935653813892,13.467000000004191
0.8893,0.2758,0.0137,-0.5841,0.6102,0.112,-0.2275,-1.54,-5.7838,1.9410841160897931,72.96414513327315,-0.2031114208888429,13.48300000000745
0.8952,0.2688,0.0081,-0.5854,0.6114,0.1111,0.4288,-1.155,-6.0287,1.8802252772368888,73.07382433444234,-0.19839277879935355,13.498000000006869
0.8899,0.2763,0.0127,-0.5846,0.6104,0.1166,0.2887,-1.5225,-5.845,2.0327158862228583,72.98583519425529,-0.20047750090394495,13.513999999995576
0.8949,0.273,0.005,-0.5846,0.6104,0.1166,0.1312,-1.12,-5.88,1.9456957815677804,72.99875783210078,-0.19655775081683619,13.529999999998836
0.891,0.275,0.0064,-0.5834,0.6087,0.1084,-0.1838,-1.3388,-5.5213,1.8360981636487077,72.99483667583226,-0.1949757757344512,13.544999999998254
0.8921,0.2711,0.0088,-0.5848,0.6083,0.1102,-0.3588,-1.2425,-5.775,1.842611529915839,73.01521702677913,-0.19337019816465117,13.561000000001513
0.8887,0.2709,0.0146,-0.5833,0.6112,0.1122,-0.2013,-1.295,-6.1512,2.079353431951321,73.01875883603161,-0.19151567834750766,13.576000000000931
0.8886,0.271,0.0079,-0.5833,0.6112,0.1122,-0.0613,-1.8988,-5.7925,2.0436732602478913,73.02198832481064,-0.19970683051832736,13.592000000004191
0.8946,0.2741,0.0056,-0.5835,0.6111,0.1022,-0.245,-2.1613,-5.7663,1.8531144198649288,73.00918271653433,-0.21085886747283514,13.60800000000745
0.9004,0.274,0.0067,-0.5849,0.6133,0.1162,0.0875,-1.7587,-5.845,1.8301936719295453,73.02486882148273,-0.21351543072463028,13.623000000006869
0.891,0.2735,0.0072,-0.5857,0.6096,0.1106,0.3675,-1.2163,-5.8362,1.7496347322016275,73.00078794322971,-0.20967860765573548,13.639000000010128
0.8893,0.2705,0.0102,-0.5845,0.6102,0.1098,0.0437,-1.015,-5.7663,1.7535210078923646,73.01562032763535,-0.20241324687633705,13.653999999994994
0.8907,0.2722,0.0076,-0.5851,0.6128,0.1052,0.175,-1.26,-6.0113,1.7344805013112838,73.01046956394559,-0.20031592219239977,13.669999999998254
0.8953,0.2735,0.0085,-0.5851,0.6128,0.1052,-0.0525,-2.2662,-6.44,1.7381173534438916,73.00790363201956,-0.21291760997980808,13.686000000001513
0.8952,0.2746,0.0074,-0.5844,0.609,0.1137,-0.1575,-2.0125,-6.1775,1.7068447541925313,72.98074456866755,-0.218794598980773,13.701000000000931
0.8917,0.2715,0.007,-0.5846,0.611,0.1102,-0.2187,-1.3913,-5.6438,1.6604431396744217,72.99105280552438,-0.2169498590867773,13.717000000004191
0.8904,0.2726,0.0094,-0.5842,0.611,0.1087,-0.175,-1.295,-5.9325,1.7148365428678185,72.98412120222548,-0.21273737317742117,13.732000000003609
0.8902,0.2724,0.0081,-0.5841,0.6111,0.1143,-0.0962,-1.5838,-5.88,1.7134979872912284,72.98266385567236,-0.2142703558643254,13.748000000006869
0.8965,0.272,0.0093,-0.5841,0.6111,0.1143,0.105,-1.3212,-5.845,1.7296960939782546,73.01636885697398,-0.21186860028176885,13.764000000010128
0.8952,0.275,0.0076,-0.5846,0.6113,0.1107,0.1838,-1.3825,-5.39,1.7106038382496518,73.00691174148217,-0.20934549025286772,13.779000000009546
0.8921,0.2729,0.0055,-0.5861,0.6115,0.1091,-0.0263,-1.085,-6.2387,1.6789194143191515,72.99862918818845,-0.20403494121655405,13.794999999998254
0.8896,0.2733,0.0096,-0.5857,0.6114,0.1099,0.1225,-1.6975,-6.1163,1.705945014530821,72.96554117598504,-0.20654769709400939,13.809999999997672
0.8908,0.2723,0.0079,-0.5851,0.6125,0.1103,-0.0613,-1.47,-5.7488,1.702099874572226,72.97167830352944,-0.20706092738892093,13.826000000000931
0.8913,0.273,0.0106,-0.5851,0.6125,0.1103,0.14,-1.505,-5.6262,1.7520223770638808,72.97014163518863,-0.208026834654444,13.842000000004191
0.8927,0.2719,0.009,-0.5854,0.6102,0.1086,0.2187,-1.19,-5.6525,1.7744282564817186,72.9811829502654,-0.2032891511883762,13.857000000003609
0.8932,0.2729,0.0079,-0.5873,0.6122,0.1114,0.2013,-1.6538,-6.02,1.7577744434272526,72.9889557353499,-0.20677495607439028,13.873000000006869
0.8917,0.2732,0.0087,-0.5847,0.6088,0.1094,-0.1838,-1.4088,-5.8538,1.76961655918239,72.98073430478213,-0.20511626046621323,13.888000000006286
0.8921,0.2708,0.0112,-0.5847,0.6132,0.1142,0.3063,-1.3825,-5.7575,1.8977100622090866,73.00561141892662,-0.2045126344236477,13.904000000009546
0.889,0.2719,0.0068,-0.583,0.6132,0.1142,0.2275,-1.2862,-6.0988,1.822347752690567,72.99927605834269,-0.2025826509850562,13.920000000012806
0.893,0.2744,0.0099,-0.5858,0.6114,0.1116,0.1925,-1.3212,-6.2825,1.8556957603620912,72.95927383039106,-0.20016058586855506,13.934999999997672
0.8932,0.273,0.0048,-0.5864,0.6106,0.1098,-0.07,-1.8112,-5.6875,1.7756855126047255,72.96617998608873,-0.206225807287013,13.951000000000931
0.8914,0.2737,0.0113,-0.5852,0.6118,0.1106,0.3413,-1.4088,-5.5037,1.9139749503883754,72.96578083610913,-0.2046220265575737,13.96600000000035
0.8912,0.2729,0.0088,-0.5852,0.6114,0.1094,0.35,-0.98,-5.5213,1.8978818177099097,72.96579187610202,-0.19827182390469134,13.982000000003609
0.8908,0.2722,0.0092,-0.585,0.6114,0.1094,0.4812,-0.8575,-5.6525,1.9095919017170555,72.97035116303756,-0.19079264151673783,13.998000000006869
0.8927,0.2716,0.0066,-0.5863,0.6117,0.1121,-0.07,-1.82,-6.2038,1.8607829763573227,73.01297203847595,-0.1962833773641106,14.013000000006286
0.8941,0.2733,0.0097,-0.5854,0.6106,0.1099,0.245,-1.3038,-5.9675,1.8907215887054438,73.00658938174124,-0.19542975963152445,14.029000000009546
0.8946,0.2721,0.0095,-0.5852,0.6105,0.1105,-0.175,-1.5137,-5.5738,1.9095514391602242,73.01139397030659,-0.19632173366757905,14.044000000008964
0.8944,0.2727,0.0116,-0.5845,0.6116,0.1163,-0.35,-1.6187,-5.5825,2.0555852214880095,73.01282267838069,-0.19999884030556989,14.060000000012224
0.8901,0.2722,0.0082,-0.5845,0.6116,0.1163,-0.3762,-0.77,-5.7575,1.9595511148014837,73.0078059498751,-0.19108695626718733,14.076000000000931
0.8905,0.2723,0.009,-0.5849,0.6121,0.1062,0.0613,-1.2775,-5.9675,1.957791577611478,73.00161365243932,-0.18922451063979936,14.09100000000035
0.8897,0.2719,0.0049,-0.5864,0.6105,0.1134,0.0613,-1.2775,-5.9675,1.9333120316592707,73.00231320840894,-0.1886980595795672,14.107000000003609
0.8942,0.2736,0.0093,-0.5846,0.611,0.1098,0.0263,-1.2687,-6.1163,1.933416815952308,72.99304164204084,-0.18695570362094585,14.122000000003027
0.8913,0.2721,0.0057,-0.5846,0.611,0.1098,-0.1488,-1.3913,-5.7488,1.8200120893917686,72.99846609120398,-0.18829485326293288,14.138000000006286
0.8915,0.2725,0.0113,-0.583,0.6118,0.096,0.2013,-1.785,-5.495,1.8994415137598248,72.99846223487093,-0.1951693679418762,14.154000000009546
0.8895,0.2712,0.0077,-0.5831,0.6117,0.11,-0.0088,-1.3388,-5.9237,1.888199955556909,73.01019741268605,-0.19372623114698723,14.169000000008964
0.895,0.2702,0.0093,-0.5838,0.6095,0.1115,-0.0787,-1.0938,-5.9588,1.8966234875122343,73.06762972070031,-0.19010432803549734,14.185000000012224
0.8922,0.2721,0.0074,-0.5844,0.6087,0.111,0.5163,-1.1988,-5.985,1.7864074052650016,73.05645111356424,-0.18727769521561924,14.19999999999709
0.894,0.2737,0.0078,-0.5844,0.6087,0.111,0.5775,-1.2163,-6.0813,1.732184029303903,73.02503409716806,-0.18606464569762554,14.21600000000035
0.8931,0.2715,0.0079,-0.5845,0.6105,0.112,-0.0437,-1.2075,-5.8275,1.7274555839159405,73.03976346765263,-0.18484618113140538,14.232000000003609
0.8914,0.2717,0.0109,-0.5838,0.6097,0.1104,0.28,-0.9013,-5.95,1.8399237080023845,73.03854064820364,-0.1785291130177927,14.247000000003027
0.889,0.2722,0.0092,-0.5814,0.6112,0.1088,0.21,-1.0675,-5.8713,1.8542614440883407,73.01898306963346,-0.17604820171914512,14.263000000006286
0.8935,0.2733,0.0074,-0.5828,0.6107,0.1109,0.4288,-1.2862,-5.9325,1.768439476998304,73.00911132627819,-0.1758070815465568,14.278000000005704
0.8938,0.2729,0.0089,-0.5828,0.6108,0.1126,-0.6125,-1.9162,-5.53,1.8075000900228373,73.00923194187216,-0.1858196533975226,14.294000000008964
0.8914,0.2729,0.0082,-0.5842,0.6108,0.1126,0.1312,-1.2425,-5.7838,1.7998537616512746,73.00065632709368,-0.18512968806141544,14.310000000012224
0.8915,0.2724,0.0086,-0.5852,0.6112,0.107,-0.2362,-1.6187,-5.8275,1.801650481308029,73.00083234503893,-0.18846916925442592,14.325000000011642
0.8916,0.2711,0.0056,-0.5878,0.611,0.1116,-0.0525,-1.6538,-5.5912,1.7523602833363545,73.0081156343174,-0.19343697233383503,14.341000000014901
0.8935,0.2707,0.0069,-0.5851,0.6125,0.1093,0.2187,-1.12,-5.8975,1.7068256354278184,73.0458833340127,-0.18921327508519648,14.355999999999767
0.8924,0.2732,0.0084,-0.5844,0.6115,0.1083,-0.4812,-1.3212,-5.7838,1.7252836297274696,73.02910899304273,-0.1893172275805528,14.372000000003027
0.8925,0.2722,0.0049,-0.5844,0.6115,0.1083,-0.0787,-1.4438,-5.845,1.6549218865146513,73.03100737695891,-0.19117622482673313,14.388000000006286
