AcclX,AcclY,AcclZ,MagX,MagY,MagZ,GyroX,GyroY,GyroZ,Roll,Pitch,Yaw,Time(s)
-0.1127,0.9809,0.0279,-0.3503,0.012,-0.2737,-2.3712,1.085,-14.1312,0,0,0,1.620412332239854
-0.1155,0.9812,0.027,-0.3508,0.013,-0.2731,-2.4588,1.365,-14.8575,0,0,0,1.6325254279098098
-0.1107,0.9528,0.0295,-0.3508,0.013,-0.2731,-2.5288,1.575,-14.8925,0,0,0,1.6447001047942391
-0.1183,0.9808,0.0264,-0.3538,0.0114,-0.2739,-2.8,1.6013,-14.6125,0,0,0,1.656881506064157
-0.116,0.9811,0.0311,-0.3538,0.0114,-0.2739,-2.3888,1.4525,-14.525,0,0,0,1.6690522898833038
-0.1152,0.9802,0.0279,-0.3531,0.0139,-0.2745,-2.9488,1.2075,-14.875,0,0,0,1.678468906972374
-0.1175,0.9807,0.0281,-0.3531,0.0139,-0.2745,-2.5988,1.0062,-14.91,0,0,0,1.6906188098050035
-0.1159,0.9797,0.029,-0.3511,0.0121,-0.278,-2.7913,1.3125,-14.84,0,0,0,1.7028136598458985
-0.1168,0.9815,0.0254,-0.3506,0.0137,-0.2741,-2.765,0.8487,-14.4637,0,0,0,1.7149632087635025
-0.1143,0.9812,0.0293,-0.3506,0.0137,-0.2741,-2.8612,1.435,-14.8487,0,0,0,1.7271403630531117
-0.1144,0.9811,0.025,-0.3519,0.0143,-0.2742,-2.9575,1.2163,-15.0237,0,0,0,1.7392435491023477
-0.1155,0.9817,0.0298,-0.3519,0.0143,-0.2742,-3.5438,1.645,-14.6475,0,0,0,1.7514560948945281
-0.1149,0.9794,0.0301,-0.3517,0.0129,-0.273,-2.8175,1.1638,-14.875,0,0,0,1.7636013968318236
-0.1157,0.982,0.0281,-0.3497,0.0116,-0.2764,-2.8438,1.12,-14.9975,0,0,0,1.7757789050364587
-0.1135,0.9798,0.0278,-0.3497,0.0116,-0.2764,-2.765,0.875,-14.4637,0,0,0,1.7879298696141654
-0.1149,0.9817,0.0277,-0.3494,0.0123,-0.2751,-2.5375,0.9713,-14.7613,0,0,0,1.80001996080745
-0.1155,0.9819,0.0289,-0.3494,0.0123,-0.2751,-2.0825,0.5163,-14.7875,0,0,0,1.809493204300634
-0.1175,0.9818,0.0279,-0.3496,0.014,-0.2745,-2.7475,1.0325,-14.98,0,0,0,1.821671774250346
-0.1158,0.979,0.0288,-0.3501,0.0128,-0.2749,-3.1325,1.1987,-14.77,0,0,0,1.8338004421814331
-0.1183,0.983,0.0295,-0.3501,0.0128,-0.2749,-2.4675,1.085,-14.9012,0,0,0,1.8459846747715567
-0.1174,0.9824,0.0289,-0.3495,0.0136,-0.2758,-2.695,1.2512,-14.8837,0,0,0,1.8582995020061674
-0.1195,0.9805,0.0269,-0.3495,0.0136,-0.2758,-2.7037,1.3912,-15.2512,0,0,0,1.8702940361425104
-0.1167,0.9808,0.0276,-0.3532,0.0139,-0.2698,-3.0713,0.9538,-14.4637,0,0,0,1.8824559720860141
-0.1146,0.9795,0.0283,-0.3501,0.0116,-0.276,-2.45,0.8225,-14.9975,0,0,0,1.8946016279383353
-0.1146,0.9803,0.0298,-0.3501,0.0116,-0.276,-2.485,0.7788,-14.56,0,0,0,1.9067791361429705
-0.1166,0.9811,0.0248,-0.3499,0.0112,-0.2753,-2.87,0.6563,-14.735,0,0,0,1.9189538130273998
-0.1171,0.9812,0.0281,-0.3499,0.0112,-0.2753,-2.835,0.6475,-14.6037,0,0,0,1.9310718635077155
-0.1142,0.9794,0.0322,-0.3498,0.0125,-0.2724,-3.1063,1.1025,-14.665,0,0,0,1.9405008676226856
-0.1154,0.9801,0.0269,-0.3515,0.0119,-0.2757,-2.8175,1.2075,-14.805,0,0,0,1.9526666966314723
-0.1167,0.9819,0.0293,-0.3515,0.0119,-0.2757,-2.9225,1.26,-15.1287,0,0,0,1.9649103869459152
-0.1166,0.9812,0.032,-0.3502,0.0128,-0.2726,-3.2113,1.19,-14.7175,0,0,0,1.9770252521909994
-0.1197,0.9823,0.0284,-0.3502,0.0128,-0.2726,-2.765,1.26,-15.1025,0,0,0,1.9891309156454156
-0.1149,0.9807,0.0334,-0.3509,0.0129,-0.2787,-3.01,0.77,-14.9537,0,0,0,2.001303822954716
-0.1166,0.9817,0.0287,-0.3507,0.0147,-0.2742,-2.345,0.9013,-14.77,0,0,0,2.013496195590431
-0.1144,0.9803,0.0292,-0.3507,0.0147,-0.2742,-2.6075,1.155,-14.945,0,0,0,2.0256754733701947
-0.1157,0.9791,0.0257,-0.3494,0.013,-0.2769,-2.9488,1.155,-14.6912,0,0,0,2.0378519198297527
-0.1161,0.9829,0.0307,-0.3494,0.013,-0.2738,-2.975,0.9625,-14.9275,0,0,0,2.049980233845814
-0.1134,0.9799,0.0335,-0.3511,0.0138,-0.2738,-2.8963,1.1462,-14.8925,0,0,0,2.0593954352747814
-0.1195,0.9795,0.0316,-0.3506,0.0121,-0.2746,-2.3625,1.085,-14.8312,0,0,0,2.0715577251333106
-0.1159,0.9798,0.025,-0.3506,0.0121,-0.2746,-2.5288,0.8312,-14.6737,0,0,0,2.0837239080571233
-0.1156,0.9808,0.027,-0.35,0.0118,-0.2717,-2.415,1.1287,-14.7525,0,0,0,2.0958635473540075
-0.1151,0.9823,0.0289,-0.35,0.0134,-0.273,-2.17,0.9013,-15.1462,0,0,0,2.108030792022897
-0.1162,0.9789,0.0256,-0.3497,0.0134,-0.273,-2.765,1.0762,-14.735,0,0,0,2.1202125472078404
-0.1144,0.9803,0.0314,-0.3496,0.0127,-0.2758,-2.7825,1.2512,-14.6387,0,0,0,2.1324572992673603
-0.1139,0.9796,0.0296,-0.3496,0.0127,-0.2758,-2.905,1.4612,-14.7087,0,0,0,2.1445176615984853
-0.1156,0.98,0.0298,-0.353,0.014,-0.2715,-3.0188,1.2775,-14.5162,0,0,0,2.156698355038352
-0.1136,0.9796,0.0315,-0.3502,0.0126,-0.2717,-2.7738,1.0587,-14.5775,0,0,0,2.168873385837807
-0.1148,0.9806,0.029,-0.3502,0.0126,-0.2717,-2.9313,0.9975,-14.7525,0,0,0,2.1810236425854623
-0.1154,0.9814,0.0292,-0.3509,0.0117,-0.2754,-3.0625,1.3212,-14.7,0,0,0,2.190442029249661
-0.1183,0.9792,0.0272,-0.3509,0.0117,-0.2754,-2.7388,0.945,-14.63,0,0,0,2.2025947634024963
-0.1182,0.9808,0.0265,-0.3506,0.0132,-0.2728,-2.4237,1.1638,-14.8662,0,0,0,2.214746435810255
-0.1165,0.98,0.0303,-0.349,0.0119,-0.2778,-2.1613,1.1812,-14.7788,0,0,0,2.2269204048646327
-0.1166,0.9809,0.0263,-0.349,0.0119,-0.2778,-2.8175,1.4,-14.8575,0,0,0,2.239062167651671
-0.113,0.979,0.0283,-0.351,0.011,-0.2757,-2.7562,1.19,-14.5687,0,0,0,2.2512138400594295
-0.1192,0.9816,0.0266,-0.351,0.011,-0.2757,-2.0038,1.05,-15.1025,0,0,0,2.2634366493873554
-0.1147,0.9817,0.0332,-0.3509,0.0117,-0.2766,-2.8263,1.3387,-15.0762,0,0,0,2.2755685025536736
-0.1155,0.981,0.0296,-0.3505,0.0128,-0.2729,-3.0363,1.015,-15.015,0,0,0,2.2877414098629747
-0.117,0.9803,0.0279,-0.3505,0.0128,-0.2729,-2.9488,0.6125,-14.6825,0,0,0,2.299864769068676
-0.116,0.9813,0.0259,-0.3513,0.011,-0.2751,-2.9225,1.2512,-14.805,0,0,0,2.311969370778015
-0.1188,0.9806,0.0292,-0.3513,0.011,-0.2751,-3.045,0.91,-15.1725,0,0,0,2.3214631413426896
-0.1157,0.9789,0.0311,-0.349,0.0139,-0.2761,-2.4325,0.8138,-14.9888,0,0,0,2.3336668392592275
-0.1175,0.9804,0.0272,-0.3514,0.0136,-0.2777,-2.7037,0.8312,-14.84,0,0,0,2.345855672744685
-0.1147,0.9809,0.0329,-0.3514,0.0136,-0.2777,-2.6863,1.3475,-14.9537,0,0,0,2.3579415169576614
-0.1163,0.9805,0.0289,-0.3497,0.0133,-0.2746,-2.6863,1.0412,-14.9275,0,0,0,2.3701055763913197
-0.1174,0.9806,0.0312,-0.3497,0.0133,-0.2746,-2.9225,1.4437,-14.9975,0,0,0,2.382274236720312
-0.1124,0.9787,0.0287,-0.3502,0.013,-0.2777,-2.7388,1.33,-14.8575,0,0,0,2.394422369977813
-0.1163,0.9801,0.0285,-0.3516,0.0122,-0.2713,-2.94,1.2512,-14.8925,0,0,0,2.4065659023399797
-0.1166,0.9807,0.027,-0.3516,0.0122,-0.2713,-2.8788,0.6563,-15.4175,0,0,0,2.418763229786055
-0.1186,0.982,0.027,-0.3494,0.0129,-0.2746,-2.3975,1.0587,-15.3562,0,0,0,2.4309563102518212
-0.1143,0.9822,0.0323,-0.3494,0.0129,-0.2746,-3.1325,0.945,-15.3037,0,0,0,2.4430074707922778
-0.1139,0.9798,0.0288,-0.3514,0.0142,-0.2746,-2.1438,0.8138,-14.9625,0,0,0,2.4525330937092664
-0.1146,0.9814,0.0321,-0.3498,0.0132,-0.2745,-2.7562,0.8312,-15.3387,0,0,0,2.4646486667844023
-0.1133,0.9791,0.0303,-0.3498,0.0132,-0.2745,-2.5025,0.8487,-14.8575,0,0,0,2.476892357098845
-0.1157,0.9824,0.0279,-0.3514,0.012,-0.275,-2.835,1.2775,-14.8225,0,0,0,2.488990588337721
-0.1139,0.9794,0.0295,-0.3514,0.012,-0.275,-2.835,0.9975,-14.805,0,0,0,2.5011716356926135
-0.1144,0.9799,0.0246,-0.3512,0.013,-0.2741,-2.5725,1.3475,-14.595,0,0,0,2.5132748217418492
-0.115,0.9814,0.0307,-0.3498,0.0122,-0.2753,-3.1675,1.4088,-14.7437,0,0,0,2.5254558690967417
-0.1137,0.9792,0.0301,-0.3498,0.0122,-0.2753,-3.22,1.1375,-14.28,0,0,0,2.537682925404976
-0.1161,0.9823,0.0315,-0.3492,0.0126,-0.2742,-3.0888,0.9887,-14.6125,0,0,0,2.549819025551603
-0.1146,0.9794,0.028,-0.3492,0.0126,-0.2742,-2.485,1.4525,-14.5338,0,0,0,2.5620181225728063
-0.1179,0.9805,0.0263,-0.3506,0.0137,-0.2754,-2.8,1.61,-14.7525,0,0,0,2.571358647931349
-0.1148,0.9829,0.0296,-0.3498,0.0133,-0.2751,-3.0275,0.8575,-14.6387,0,0,0,2.583583580749429
-0.1144,0.9804,0.0263,-0.3498,0.0133,-0.2751,-3.1937,1.3562,-14.4637,0,0,0,2.59575401065355
-0.117,0.9801,0.0289,-0.3518,0.0139,-0.2746,-2.6075,0.77,-14.6212,0,0,0,2.6079049752312566
-0.1152,0.9792,0.0268,-0.3518,0.0139,-0.2746,-2.975,1.0062,-14.9187,0,0,0,2.6199971899146957
-0.1155,0.9805,0.0298,-0.352,0.0148,-0.2726,-3.0975,1.3125,-14.665,0,0,0,2.6321736363742536
-0.1159,0.9808,0.029,-0.3499,0.0114,-0.2747,-2.6513,0.9275,-14.455,0,0,0,2.644352206323966
-0.1158,0.9819,0.029,-0.3499,0.0114,-0.2747,-2.7475,1.3737,-14.7525,0,0,0,2.656525821463318
-0.1149,0.9812,0.0293,-0.3504,0.0123,-0.2755,-2.5988,1.3125,-14.98,0,0,0,2.6686435180286083
-0.1159,0.9815,0.0275,-0.3504,0.0123,-0.2755,-2.6863,1.0937,-14.6737,0,0,0,2.6819174549828935
-0.1163,0.9795,0.0257,-0.352,0.0131,-0.2753,-2.415,1.3562,-14.7525,0,0,0,2.6928587380027227
-0.1133,0.9802,0.027,-0.3515,0.013,-0.2754,-2.7475,1.4088,-14.4812,0,0,0,2.7016085791833553
-0.1158,0.9811,0.0312,-0.3515,0.013,-0.2754,-3.045,1.4525,-14.4462,0,0,0,2.713939332594123
-0.1118,0.9805,0.0318,-0.3518,0.0126,-0.2759,-2.3888,1.1725,-14.8137,0,0,0,2.7260510126039756
-0.1178,0.9801,0.0278,-0.3518,0.0126,-0.2759,-2.7037,1.365,-14.6562,0,0,0,2.7382398460894337
-0.1169,0.9815,0.0274,-0.3495,0.0126,-0.2763,-3.0713,1.26,-14.5338,0,0,0,2.7505210513966016
-0.1161,0.9792,0.0306,-0.3498,0.0134,-0.2752,-2.9488,1.2075,-14.7087,0,0,0,2.762781021802227
-0.1155,0.9813,0.0269,-0.3498,0.0134,-0.2752,-2.8438,0.9538,-15.1375,0,0,0,2.7750583340441124
-0.116,0.9812,0.0281,-0.3498,0.0137,-0.2749,-2.555,1.0412,-14.6912,0,0,0,2.7875352543604985
-0.1125,0.9812,0.0325,-0.3498,0.0137,-0.2749,-2.9925,1.4175,-14.6562,0,0,0,2.799713470395185
-0.1157,0.983,0.0305,-0.3503,0.0139,-0.2734,-3.0275,1.3475,-14.6825,1.7722109750256392,-5.034062000401974,176.50921999949912,14.117319291872661
-0.116,0.9806,0.0315,-0.3506,0.0125,-0.2748,-3.045,0.7437,-14.595,1.839701551103296,-6.372145542615917,176.79228840838525,14.122138552777756
-0.1148,0.9812,0.0262,-0.3506,0.0125,-0.2748,-2.9313,0.7613,-14.6737,1.5304140126218615,-6.605808894974605,177.0133027859076,14.12699001995019
-0.1134,0.9817,0.0341,-0.3507,0.0133,-0.2761,-3.22,0.42,-14.3413,1.9881248322497072,-6.589473042507792,176.55495461722256,14.131787692038717
-0.1157,0.9814,0.0257,-0.3507,0.0133,-0.2761,-3.0188,1.2337,-14.8137,1.5014289117990358,-6.689395395867241,176.91278932917854,14.136655793217361
-0.1173,0.9814,0.027,-0.3499,0.0138,-0.2774,-2.8438,1.2512,-14.875,1.5756999725999712,-6.783071232450193,176.77566311187996,14.141189444696709
-0.115,0.9806,0.0265,-0.351,0.0141,-0.2754,-3.0538,1.3037,-14.665,1.5480772401122849,-6.710279355057524,176.76181881775895,14.14605188323494
-0.1169,0.9828,0.0295,-0.351,0.0141,-0.2754,-3.01,1.1812,-14.8137,1.7188119446027883,-6.763435521715549,176.64186817658683,14.150950421105794
-0.1143,0.9804,0.0253,-0.3502,0.0133,-0.2773,-2.7125,1.3212,-14.6562,1.4789060666211873,-6.676353476117811,176.91865575632312,14.155511677957147
-0.1171,0.9816,0.0276,-0.3502,0.0133,-0.2773,-3.29,0.6737,-14.9888,1.610213779016628,-6.773796453815912,176.82789474906352,14.160147256963898
-0.1147,0.9815,0.0311,-0.3522,0.0135,-0.2781,-2.555,0.6737,-15.1637,1.8143073341445721,-6.686015535284958,176.6592134202051,14.16472762522664
-0.1126,0.9806,0.0284,-0.3525,0.0122,-0.2743,-2.66,1.3387,-14.5775,1.659361987978839,-6.582187700763916,176.97789761387565,14.16935824942303
-0.1146,0.9802,0.0308,-0.3525,0.0122,-0.2743,-2.4588,1.4612,-15.0237,1.7993735245810634,-6.643861309642174,176.88119473189985,14.173923399339666
-0.1179,0.9812,0.027,-0.3482,0.0131,-0.2795,-2.2575,1.3387,-14.7437,1.5768505383319693,-6.798021899636002,176.86115903723913,14.178961025815624
-0.1151,0.9806,0.0256,-0.3482,0.0131,-0.2795,-2.5638,1.2775,-15.0237,1.4956775793594959,-6.718264637170343,176.9151880599522,14.183570061195448
-0.114,0.9795,0.0302,-0.3513,0.0127,-0.2704,-2.9313,1.1638,-14.84,1.7652328108710287,-6.65520862809126,176.83396498982225,14.18808601692351
-0.1155,0.9809,0.0299,-0.349,0.013,-0.2745,-2.9575,1.1462,-14.9012,1.7460151617427835,-6.69888408366854,176.77158852692727,14.192589939540698
-0.1155,0.9788,0.0288,-0.349,0.013,-0.2745,-2.835,0.9275,-14.35,1.6855416108725243,-6.720637132219705,176.81573552344918,14.197262679625148
-0.1153,0.98,0.0286,-0.3515,0.0132,-0.2738,-2.5463,1.435,-14.9713,1.6716656578833,-6.7107396542887585,176.8180733482483,14.201855788828814
-0.1132,0.9818,0.0296,-0.3515,0.0132,-0.2719,-2.5113,1.4088,-14.84,1.7267166471776063,-6.608761643728597,176.78080389770503,14.205900683657656
-0.1113,0.9801,0.0327,-0.3519,0.0122,-0.2719,-2.9925,0.8663,-14.42,1.9103900657105195,-6.504955187984747,176.7999473150182,14.208501605181599
-0.1173,0.9803,0.0294,-0.3502,0.0126,-0.275,-3.1937,1.1025,-15.0412,1.7183703107754733,-6.7461466953154945,176.86380400634894,14.211076336993642
-0.117,0.9808,0.0279,-0.3502,0.0126,-0.275,-3.1763,1.015,-14.7788,1.6296543635051097,-6.787554423182387,176.92681016334086,14.213611430322803
-0.117,0.9801,0.0253,-0.3506,0.0137,-0.2773,-2.9138,0.9538,-14.3062,1.4791086106389844,-6.8012311050805065,176.86698125786208,14.216224384957622
-0.116,0.9811,0.0319,-0.3506,0.0142,-0.2746,-2.5988,1.1112,-14.875,1.8612204036129443,-6.7540661757849865,176.52212090495303,14.2188051333251
-0.1146,0.9818,0.0317,-0.3499,0.0142,-0.2746,-2.7213,1.1462,-14.945,1.8493360096501963,-6.677984941253356,176.52173201473647,14.22138163471227
-0.1163,0.9802,0.0284,-0.3523,0.0133,-0.2744,-2.3712,0.7962,-14.7262,1.6601339701324338,-6.744850237346611,176.81797688982013,14.223939732518103
-0.1127,0.9809,0.0249,-0.3523,0.0133,-0.2744,-2.905,0.9625,-14.4287,1.4547074654739924,-6.596042455845411,176.95824116692373,14.22667231043161
-0.1146,0.9798,0.0235,-0.3507,0.013,-0.2734,-2.8963,1.225,-14.9187,1.374171839533084,-6.651513780436851,177.0548129661253,14.22937515948296
-0.1119,0.9807,0.0295,-0.3518,0.0106,-0.2761,-2.9663,1.5575,-14.8662,1.7219956260677867,-6.544721180330749,177.1588121471616,14.232129326213036
-0.1143,0.9801,0.0306,-0.3518,0.0106,-0.2761,-2.7037,1.0325,-14.6825,1.7880831859801423,-6.624564738638727,177.1161196862372,14.234947551562765
-0.1169,0.9802,0.0284,-0.3501,0.0116,-0.275,-2.835,1.5312,-15.155,1.6599637314390896,-6.7527708207680375,177.05455011534897,14.237011230077682
-0.1166,0.979,0.0256,-0.3501,0.0116,-0.275,-3.2113,0.8225,-15.1112,1.4983462663032767,-6.781545088498888,177.17073064236715,14.238322485247938
-0.1137,0.9802,0.0309,-0.3502,0.0136,-0.2788,-2.7388,1.2425,-14.6475,1.8047472731840364,-6.654240406001417,176.62939903720888,14.239580653164337
-0.1138,0.9808,0.027,-0.3515,0.0145,-0.2755,-2.6075,1.4612,-14.8837,1.5775068484924388,-6.625696414053232,176.68249062389822,14.240817586179194
-0.1166,0.9798,0.0298,-0.3515,0.0145,-0.2755,-2.835,1.3475,-14.9888,1.7416187977726234,-6.7440134130334695,176.56977032597706,14.242056642684206
-0.1136,0.9812,0.0295,-0.3505,0.0118,-0.2744,-2.59,1.0937,-14.8837,1.7221462747888971,-6.634701908818447,176.9781405641414,14.243302777489731
-0.1144,0.9822,0.0276,-0.3505,0.0118,-0.2744,-1.9512,1.0762,-14.7962,1.6099116233450452,-6.639444385622648,177.0605859628493,14.244542187909769
-0.1172,0.9817,0.0303,-0.3523,0.0126,-0.2776,-2.5288,1.3737,-14.5425,1.7674226691804398,-6.763240609275327,176.83528819345582,14.245763902578519
-0.1126,0.9802,0.0298,-0.3498,0.0124,-0.2748,-2.6688,1.1987,-14.5775,1.7414402280232246,-6.601421121100198,176.8653751217932,14.246995880783016
-0.1157,0.98,0.0298,-0.3498,0.0124,-0.2748,-2.8963,1.3562,-14.3762,1.7417219300591222,-6.697939388217483,176.87114535433932,14.248225381582333
-0.1121,0.9784,0.0276,-0.3508,0.0132,-0.2745,-3.0538,1.26,-14.595,1.616197998590197,-6.573744494493068,176.84416310645378,14.24945488238165
-0.1174,0.9804,0.0268,-0.3508,0.0132,-0.2745,-2.3888,1.0587,-14.9275,1.5659753167518655,-6.76721059141069,176.88976803208328,14.25068261360584
-0.1131,0.9809,0.0326,-0.3473,0.0138,-0.2754,-2.6425,1.4,-14.6825,1.9025708677537976,-6.622661029746957,176.51329372844083,14.2519085752549
-0.1163,0.9816,0.0314,-0.3525,0.012,-0.2795,-2.38,1.47,-15.1462,1.8323825881474238,-6.719782432214767,176.87064613362986,14.253141615204473
-0.1152,0.98,0.027,-0.3525,0.012,-0.2795,-2.5463,1.12,-14.6037,1.578866796934559,-6.70611758373637,177.05382367209907,14.254360852468045
-0.116,0.9811,0.0265,-0.3516,0.0114,-0.2754,-2.3975,0.8487,-15.0762,1.5472995956065996,-6.732946229261895,177.17355107229687,14.255586460202078
-0.1158,0.982,0.029,-0.3516,0.0114,-0.2754,-2.5463,0.7,-14.9625,1.6911404180820457,-6.724749247583611,177.06931794866318,14.256816668831448
-0.1159,0.9814,0.0325,-0.3506,0.0133,-0.2714,-2.8175,0.8225,-14.9713,1.8961378004960607,-6.730075169987951,176.6448261547384,14.258060326231794
-0.1152,0.9809,0.0226,-0.3527,0.0117,-0.2779,-2.8612,0.9975,-14.6125,1.3214731623047489,-6.704251405364723,177.29175659300506,14.259286995710905
-0.1157,0.9806,0.0249,-0.3527,0.0117,-0.2779,-2.5813,1.4787,-14.3587,1.4542060377964574,-6.72113473653613,177.19565629965936,14.260519681745453
-0.1193,0.9809,0.0265,-0.3498,0.0124,-0.2758,-3.22,1.4,-14.1225,1.5472659979540515,-6.878582506852967,177.0145650710951,14.261746351224565
-0.1152,0.9808,0.0282,-0.3498,0.0124,-0.2758,-2.6163,1.47,-14.42,1.6466388705247932,-6.7432199063428016,176.93506594320715,14.26296204933788
-0.1133,0.9794,0.0261,-0.3509,0.0122,-0.2782,-2.66,0.91,-14.5513,1.526847190868903,-6.62953041281221,177.05003599051534,14.264185887496785
-0.1161,0.9809,0.0295,-0.3516,0.0137,-0.2744,-2.9225,0.84,-14.735,1.722071770115898,-6.72107351820943,176.70704027006087,14.2654387466878
-0.1124,0.9825,0.0179,-0.3516,0.0137,-0.2744,-2.87,1.085,-14.8837,1.0456395852418265,-6.571188292358798,177.1864620486318,14.266657276121318
-0.1145,0.9809,0.0295,-0.3522,0.0112,-0.2749,-2.5025,1.295,-15.0062,1.7207308683587283,-6.634337991955518,177.08119890505895,14.267910135312333
-0.1135,0.9817,0.0368,-0.3522,0.0112,-0.2749,-2.4588,1.0325,-14.3238,2.1455964182186222,-6.600592735464026,176.7749158527364,14.269149899647395
-0.1134,0.9808,0.0317,-0.3535,0.0128,-0.2702,-2.4938,0.9625,-14.4812,1.8520077115806715,-6.593831291163622,176.77636612943897,14.270368075165889
-0.1175,0.9843,0.0311,-0.351,0.0132,-0.2766,-2.5463,1.0937,-14.5338,1.8098366290685866,-6.754687810550659,176.70801296675936,14.271588728089563
-0.1125,0.975,0.0256,-0.351,0.0132,-0.2766,-2.3625,1.5225,-14.7613,1.5048881276565556,-6.625394800762519,176.921269134201,14.27281822888888
-0.1181,0.9795,0.024,-0.3496,0.0124,-0.2754,-2.625,1.0062,-14.77,1.4038798488820519,-6.816037240719225,177.11606593707378,14.274032157427067
-0.1122,0.9834,0.0245,-0.3496,0.0124,-0.2754,-2.4675,0.6913,-14.7,1.4270820573999077,-6.573274302493994,177.0878500846884,14.275245378135201
-0.1131,0.9789,0.0265,-0.3506,0.0138,-0.2782,-1.6362,1.1725,-14.7525,1.5503431458434889,-6.5846411015036646,176.78971860928627,14.276472401529338
-0.1144,0.9816,0.0214,-0.3534,0.0114,-0.2746,-2.4325,1.435,-14.6737,1.2497557024073487,-6.630296880871261,177.39943722090905,14.277695885773218
-0.1133,0.9822,0.0252,-0.3534,0.0114,-0.2746,-3.045,1.4262,-15.1637,1.4690834755968993,-6.591342599221162,177.24007942662013,14.278907336906224
-0.1158,0.9833,0.0279,-0.3515,0.0127,-0.2754,-3.0975,1.3562,-15.47,1.6248292654440388,-6.683242586060077,176.92132805318425,14.28013294464026
-0.1136,0.9811,0.0281,-0.3515,0.0127,-0.2754,-3.0975,1.1025,-14.5513,1.640534327382247,-6.621188924329034,176.90643378276957,14.281358552374293
-0.1143,0.9812,0.0342,-0.3488,0.0142,-0.2724,-2.5025,0.8225,-14.98,1.9952605538777863,-6.63619181591003,176.41456318539718,14.282586637513507
-0.1179,0.9813,0.0359,-0.3506,0.0126,-0.2747,-3.0275,1.0937,-14.7,2.0949024811335213,-6.797129055385894,176.59798613560812,14.283840912364624
-0.1169,0.9816,0.0273,-0.3506,0.0126,-0.2747,-2.8087,1.225,-14.4287,1.5944846246552462,-6.790849068210939,176.9565562973095,14.285073952314198
-0.1157,0.9814,0.0279,-0.3496,0.013,-0.2742,-2.3975,0.6563,-14.7175,1.6283156878005542,-6.735902448348129,176.86266328124756,14.286294251322847
-0.1144,0.9814,0.0214,-0.3496,0.013,-0.2742,-2.4063,1.05,-14.4112,1.250226686990369,-6.667889844019043,177.13332781836314,14.287511011181238
-0.1171,0.9799,0.0217,-0.3506,0.0129,-0.2703,-2.9313,1.1638,-14.4462,1.2685630568280561,-6.778342049251894,177.15655323668275,14.288740865895582
-0.1132,0.981,0.0273,-0.352,0.0134,-0.2754,-3.2113,1.2425,-14.6475,1.5931490564281319,-6.62816297863909,176.83851779567854,14.28996364230941
-0.1158,0.9817,0.026,-0.352,0.0134,-0.2754,-2.5725,1.2163,-14.4637,1.517317170951042,-6.701666090916462,176.8984083375107,14.291181817827903
-0.1144,0.9814,0.0314,-0.3494,0.0126,-0.2748,-3.0013,1.1638,-14.3325,1.8316794836377308,-6.658901349339379,176.7693861673211,14.292404948156758
-0.1156,0.9817,0.0279,-0.3494,0.0126,-0.2748,-2.73,1.4262,-14.5775,1.6284813124482518,-6.699402509659113,176.9192344117663,14.293647189897001
-0.1163,0.9808,0.0297,-0.3505,0.0138,-0.2706,-3.5,1.0675,-14.8575,1.7341702716345821,-6.745317226127854,176.68781414983167,14.294867134990623
-0.1168,0.9795,0.0324,-0.3504,0.0135,-0.2757,-2.94,1.0237,-14.7613,1.894097159899533,-6.784609305529763,176.59979478775026,14.296101944515327
-0.1135,0.9797,0.0211,-0.3504,0.0135,-0.2757,-2.5725,1.2075,-15.0237,1.2356413989692914,-6.649735049633378,177.07021027486724,14.297331799229669
-0.1133,0.9793,0.0219,-0.3539,0.0128,-0.2747,-2.6688,1.0675,-14.6037,1.2809602080152247,-6.609962438769788,177.16968885552575,14.298593860211351
-0.1161,0.9824,0.0181,-0.3539,0.0128,-0.2747,-3.1937,1.5312,-14.3587,1.0561430525298288,-6.70509175376106,177.3348545867121,14.300017306444758
-0.1186,0.9835,0.0298,-0.3504,0.0124,-0.2682,-2.9925,1.47,-14.7087,1.7336315898312717,-6.829712401137218,176.90909372155056,14.301285737896903
-0.1144,0.9813,0.0281,-0.3526,0.0126,-0.2762,-2.5288,0.5163,-15.435,1.6405044915439007,-6.684649575499699,176.92921582891572,14.302518777846478
-0.1153,0.983,0.0369,-0.3526,0.0126,-0.2762,-3.185,1.4175,-14.7437,2.1483456407980897,-6.6850731215824615,176.56435330018533,14.303745093410564
-0.1145,0.9817,0.032,-0.3523,0.0143,-0.2734,-2.765,1.5225,-14.6737,1.86776673073012,-6.658495513170067,176.5202236573304,14.304960791523877
-0.1193,0.9824,0.0302,-0.3523,0.0143,-0.2734,-2.275,1.7675,-14.5425,1.7610755546528445,-6.84754926138633,176.60549763235926,14.306176489637192
-0.1127,0.9806,0.0296,-0.3518,0.0132,-0.2753,-2.7562,1.26,-15.0062,1.7290720487582654,-6.625180550074438,176.76886452250056,14.307400327796097
-0.115,0.9795,0.0242,-0.3496,0.0127,-0.2754,-2.8263,1.2425,-14.9187,1.4161648487842984,-6.677431748944011,177.05685778001236,14.30861779548454
-0.1144,0.9816,0.0244,-0.3496,0.0127,-0.2754,-2.8087,1.3125,-14.6737,1.4239078243303585,-6.653390394627077,177.04927024263222,14.309835263172983
-0.1191,0.9808,0.0193,-0.3518,0.0128,-0.2742,-2.0388,1.1287,-14.6912,1.1281360110332606,-6.858613680885008,177.2750416223324,14.311048129966093
-0.1146,0.9804,0.0245,-0.3518,0.0128,-0.2742,-3.29,1.0587,-14.9625,1.4306645043320365,-6.710134907740284,177.04988784772587,14.312268075059714
-0.1172,0.9797,0.0278,-0.3518,0.0136,-0.2806,-2.7125,1.6625,-14.9713,1.624847608326197,-6.789541189870698,176.77559544378738,14.313488020153338
-0.1189,0.9809,0.0315,-0.349,0.0134,-0.2758,-2.8263,1.75,-14.6475,1.8387297068259307,-6.87502090751938,176.6459917927759,14.314707611331935
-0.1161,0.9792,0.0306,-0.349,0.0134,-0.2758,-2.6863,1.3737,-14.9012,1.790046779049528,-6.787794472325845,176.67633753029736,14.315926140765455
-0.1165,0.9803,0.0294,-0.349,0.0126,-0.2733,-2.9225,1.1112,-14.8487,1.7180340095716407,-6.77747719081221,176.85837035388585,14.317140777133693
-0.1163,0.98,0.0298,-0.349,0.0126,-0.2733,-3.0625,1.26,-14.6387,1.7416565742963621,-6.767851505513542,176.84102248367356,14.31835541350193
-0.113,0.98,0.0267,-0.3524,0.0138,-0.279,-2.4063,1.3475,-14.4987,1.561136136310405,-6.623227071364937,176.79439213689562,14.319565448974833
-0.1158,0.9814,0.0275,-0.3509,0.0122,-0.2736,-2.765,1.1462,-14.4287,1.6049535695215214,-6.702223188455405,177.0120654248292,14.32078256274825
-0.1158,0.9809,0.0249,-0.3509,0.0122,-0.2736,-3.255,1.1725,-14.8312,1.4545538687807538,-6.7239112996658195,177.12039266129182,14.322001446096795
-0.1168,0.9813,0.0307,-0.3514,0.0119,-0.2793,-3.5,0.7263,-14.5425,1.7909725807592445,-6.7713639373809,176.9081850557096,14.323217852040163
-0.1126,0.98,0.0323,-0.3514,0.0119,-0.275,-2.7825,1.085,-14.875,1.887468781733498,-6.602569544214101,176.84752518417673,14.324438858878862
-0.1154,0.9798,0.0288,-0.351,0.0139,-0.275,-2.5113,1.5137,-15.155,1.6842214859172033,-6.685283409427753,176.6965499368836,14.325652079586996
-0.1169,0.9809,0.0295,-0.3492,0.0136,-0.2759,-2.905,0.945,-14.6737,1.7225110278712326,-6.768711131187079,176.69756724704806,14.326873086425696
-0.1152,0.9809,0.0242,-0.3492,0.0136,-0.2759,-2.7125,1.2775,-14.9713,1.4141327344383057,-6.7140686123012925,176.9182600161777,14.328125591701685
-0.1174,0.9802,0.0241,-0.3511,0.0138,-0.279,-2.0388,1.4525,-14.9888,1.4084530593340396,-6.798648841404421,176.9030355141279,14.329346598540385
-0.1154,0.9805,0.0231,-0.3511,0.0128,-0.2814,-2.6075,1.225,-14.8312,1.349769120737827,-6.732014678195858,177.08541153077667,14.330645112769716
-0.1149,0.981,0.0231,-0.3508,0.0128,-0.2814,-2.3888,0.945,-15.54,1.3489197682084813,-6.69065807499983,177.08274658839372,14.331893371065394
-0.114,0.9808,0.0298,-0.3507,0.0122,-0.2749,-2.2925,1.0325,-14.665,1.7392124529088988,-6.64158660223731,176.9058970958116,14.333281779711255
-0.1186,0.9809,0.0273,-0.3507,0.0122,-0.2749,-2.1,1.4962,-14.595,1.594624479831257,-6.826673100695487,177.01930573854924,14.334528622346832
-0.118,0.9811,0.0304,-0.3526,0.0135,-0.2748,-2.7825,0.9538,-14.245,1.7742752477455086,-6.848515241714998,176.71043664224587,14.335751398760662
-0.1127,0.9806,0.0267,-0.3506,0.0141,-0.2747,-2.695,0.7788,-14.8225,1.5602757578381905,-6.618254261385229,176.74757223311587,14.337006735356855
-0.1166,0.9825,0.0285,-0.3506,0.0141,-0.2747,-2.345,1.0237,-14.4025,1.661266837642706,-6.73125417284709,176.68171717694344,14.338263133698126
-0.1166,0.9799,0.0251,-0.3496,0.013,-0.2755,-2.695,1.54,-14.2975,1.4678434776059492,-6.769877006436677,176.976625224721,14.339487325772058
-0.1167,0.9815,0.024,-0.3496,0.013,-0.2755,-2.1525,1.4437,-14.0963,1.400925298929416,-6.776373304338447,177.02475497902248,14.340708686525783
-0.1153,0.981,0.0298,-0.3523,0.0127,-0.2738,-2.9225,0.9887,-14.2712,1.7390020956997014,-6.71776301679368,176.85057457025198,14.341937833410075
-0.1151,0.9804,0.0237,-0.351,0.012,-0.2778,-2.835,1.2687,-14.7262,1.385775810230827,-6.699817072735437,177.18797180242598,14.343160609823903
-0.1158,0.9816,0.0287,-0.351,0.012,-0.2778,-2.5113,1.1987,-15.1112,1.6739300741798744,-6.719146174282709,176.97868984754385,14.344377369682295
-0.115,0.9819,0.03,-0.3494,0.0136,-0.2744,-3.185,1.085,-14.5862,1.7498015752271066,-6.686842552618374,176.68092724366653,14.345602623501303
-0.1118,0.9798,0.0281,-0.3494,0.0136,-0.2744,-3.3075,1.19,-14.4112,1.64305294201138,-6.550154822437332,176.7521110982741,14.346928743102639
-0.116,0.9813,0.0262,-0.3512,0.0138,-0.2757,-2.7738,0.875,-14.8137,1.5297096266928956,-6.69704942386522,176.82270675274427,14.348203545025248
-0.1167,0.9806,0.0285,-0.3501,0.0146,-0.277,-2.6425,1.0412,-14.4987,1.6643899719361368,-6.7637840311065505,176.593129553936,14.349449679830773
-0.1161,0.9781,0.0285,-0.3501,0.0146,-0.277,-2.415,1.4525,-14.6475,1.6690064364146047,-6.765775690640872,176.58925791155832,14.350755626275642
-0.1147,0.9797,0.0255,-0.3502,0.0129,-0.2742,-2.7213,1.1375,-14.6562,1.4914760720148286,-6.6968135623346035,176.97963197303818,14.352065465785797
-0.1179,0.9823,0.0285,-0.3502,0.0129,-0.2742,-2.9225,1.0237,-14.7613,1.6614115179895828,-6.807918094278593,176.86255098888378,14.35330593795091
-0.1146,0.9816,0.0287,-0.3527,0.0125,-0.2726,-2.8263,0.9713,-14.5862,1.6746984953657509,-6.690844886103991,176.93279191964902,14.354547825776127
-0.1163,0.9802,0.0257,-0.3535,0.0134,-0.2756,-2.4325,1.2425,-14.9012,1.5023835494594646,-6.74632242344096,176.9220405277933,14.355766709124673
-0.1155,0.9809,0.0298,-0.3535,0.0134,-0.2756,-3.0013,0.7088,-14.9625,1.7394619121500083,-6.719807701581395,176.74989930404018,14.356976744597576
-0.1165,0.9799,0.0275,-0.3517,0.0133,-0.2756,-2.9838,0.805,-14.4987,1.6079001670326583,-6.764739851373505,176.84702727662915,14.358198813181353
-0.1166,0.9809,0.0326,-0.3517,0.0133,-0.2756,-3.22,1.0237,-14.8575,1.9026864641738357,-6.772827648355501,176.63444786502387,14.359437161856313
-0.1171,0.9797,0.0263,-0.3511,0.0138,-0.279,-2.8,1.33,-15.0325,1.53875144752023,-6.803454231861725,176.80830853624087,14.360652152139576
-0.1174,0.9811,0.0276,-0.3514,0.0135,-0.276,-2.7475,1.4612,-14.7788,1.6111993734045187,-6.816479942670197,176.81208331184789,14.36196199164973
-0.1138,0.9798,0.0295,-0.3514,0.0135,-0.276,-2.7475,1.4875,-14.7875,1.7242347465942407,-6.672346902394962,176.72376842428636,14.363222990886335
-0.1167,0.9798,0.0282,-0.3516,0.0136,-0.2747,-2.8,1.2337,-15.4263,1.6488077583918024,-6.7610396600306135,176.77520859308135,14.36443868899965
-0.1166,0.9808,0.0294,-0.3516,0.0136,-0.2747,-2.555,1.1812,-15.1112,1.716767224528241,-6.77289413294078,176.72584147874366,14.36567031328912
-0.1165,0.9825,0.0275,-0.3506,0.0134,-0.2779,-2.1963,0.8487,-14.9187,1.6035961816448898,-6.762593599982905,176.81806262185154,14.36690122974854
-0.1147,0.9801,0.0252,-0.3486,0.0134,-0.2761,-2.485,1.1812,-14.84,1.4732097156881125,-6.694264098289071,176.89906376498453,14.36811409654165
-0.116,0.9815,0.0242,-0.3486,0.0134,-0.2761,-2.8175,1.1287,-14.7613,1.412576172747099,-6.727864025817434,176.9451771785064,14.369325901589681
-0.1161,0.9812,0.0261,-0.3519,0.013,-0.2748,-2.1525,0.84,-14.7175,1.5234035666441574,-6.741789121403866,176.9552425751979,14.370547262343406
-0.1175,0.9811,0.0279,-0.3519,0.013,-0.2748,-2.9225,1.1987,-14.84,1.628613429346017,-6.806241885911461,176.88253044183907,14.371771100502313
-0.1148,0.9795,0.0287,-0.3496,0.0142,-0.2725,-2.8263,0.8487,-15.0325,1.6781854627139285,-6.709496091831946,176.65051367440321,14.37298325946537
-0.1128,0.9812,0.0251,-0.3509,0.0146,-0.276,-2.485,1.155,-14.875,1.4659525495303383,-6.592483450978217,176.7391733580354,14.374204974134122
-0.1176,0.9814,0.0249,-0.3509,0.0146,-0.276,-2.8525,1.0937,-14.5862,1.4534270393820268,-6.774929216384259,176.7573861281743,14.375427042717899
-0.1183,0.9807,0.0239,-0.3507,0.013,-0.275,-2.555,0.875,-14.1925,1.3962017425440962,-6.8535994069624895,177.04092611763653,14.376656543517216
-0.1153,0.9832,0.031,-0.3507,0.013,-0.275,-2.695,1.1987,-14.28,1.8047775488491724,-6.725780294805302,176.74016559695696,14.377870118140375
-0.1154,0.9815,0.025,-0.3506,0.0134,-0.2755,-2.905,1.19,-15.1812,1.4600426229557848,-6.7089431266221595,176.92785959633062,14.379097141534512
-0.1175,0.9808,0.0289,-0.3491,0.0134,-0.2751,-2.4325,1.4175,-15.7762,1.6871395642689622,-6.798149051574648,176.7561251320744,14.380307530922442
-0.1147,0.9815,0.0265,-0.3491,0.0134,-0.2751,-2.7825,1.2425,-15.435,1.5469732909725384,-6.695931657380031,176.85236533119624,14.381521813375652
-0.1149,0.9817,0.029,-0.3485,0.0137,-0.2746,-3.1675,1.1812,-14.2887,1.6916539879623382,-6.6783070033903265,176.69892898430632,14.382741050639224
-0.1138,0.9806,0.0238,-0.3485,0.0137,-0.2746,-2.5113,1.225,-14.5862,1.3911846003751898,-6.632395318527249,176.91510618935718,14.383967012288284
-0.1143,0.98,0.0277,-0.3515,0.0146,-0.2703,-3.29,1.0412,-14.8137,1.6184150107134423,-6.645816359961673,176.65530683329916,14.385184126061702
-0.1143,0.9803,0.0303,-0.35,0.0116,-0.2754,-3.045,1.05,-14.8662,1.7699618720502053,-6.646984769865734,176.9673368706175,14.38640937988071
-0.1161,0.9813,0.0277,-0.35,0.0116,-0.2754,-3.0713,0.8225,-14.5862,1.6173353052766275,-6.723184625050217,177.08144989522938,14.387639588510078
-0.1158,0.9817,0.0257,-0.3514,0.0124,-0.275,-3.0363,1.225,-14.7,1.4999368067034238,-6.724682772777144,177.05729285759696,14.388852809218212
-0.115,0.9828,0.0276,-0.3514,0.0124,-0.275,-2.9488,1.0587,-14.8925,1.60831283130849,-6.6837906407632275,176.9772595185464,14.390056474220653
-0.114,0.9791,0.0271,-0.3513,0.0139,-0.2708,-2.94,1.0062,-15.1725,1.58551911355267,-6.6490935274431555,176.78046058566144,14.39129836204587
-0.1164,0.9803,0.0281,-0.3501,0.0129,-0.2742,-1.8375,1.085,-14.9537,1.6417594746398092,-6.740739422458953,176.87354032675944,14.392534941145701
-0.1154,0.9801,0.0243,-0.3501,0.0129,-0.2742,-2.4763,0.84,-14.6825,1.4208829963423883,-6.719319024525069,177.03108462160637,14.393749931428964
-0.117,0.9801,0.0233,-0.3482,0.014,-0.2757,-2.2662,1.0762,-15.12,1.3620053801623748,-6.785417771454566,176.8915304072297,14.39496881477751
-0.1153,0.9816,0.0256,-0.3482,0.014,-0.2757,-2.4938,0.945,-14.3762,1.49356004371738,-6.717126968273495,176.79192822343404,14.39619159119134
-0.118,0.9803,0.0358,-0.3494,0.0145,-0.2736,-3.1063,1.0675,-14.6037,2.0898101907615154,-6.826051275661736,176.3101197823088,14.397402688409318
-0.1101,0.9599,0.0364,-0.3513,0.011,-0.2754,-1.9512,0.8925,-13.9912,2.171422958580743,-6.603015711896752,176.77481876931475,14.39864422231951
-0.1041,0.9745,0.0095,-0.3513,0.011,-0.2754,-1.5225,1.2862,-13.65,0.5630195746441337,-6.221579083482269,177.92895798606386,14.39987690835406
-0.1133,0.9837,0.0256,-0.3508,0.0118,-0.2758,-2.345,1.9337,-13.2737,1.488154800707371,-6.466667308395781,177.14247016662236,14.4010929603824
-0.1144,0.9901,0.022,-0.3508,0.0118,-0.2758,-2.0738,1.8725,-13.6763,1.2735008671613377,-6.554080625312445,177.30002979296555,14.40230653500556
-0.1088,0.993,0.0207,-0.3501,0.0137,-0.2755,-2.555,1.3037,-13.86,1.1944314404051557,-6.326197926339947,177.0561422160847,14.403524356609028
-0.1064,0.9881,0.029,-0.3534,0.0137,-0.2757,-3.2375,1.1287,-14.9537,1.6797463619101556,-6.186672483195517,176.72657025161507,14.404734038166906
-0.1194,0.9707,0.0307,-0.3534,0.0137,-0.2757,-3.2375,1.0675,-15.9425,1.811102411687238,-6.81699684933749,176.66321648967352,14.405940180574525
-0.1177,0.9761,0.0321,-0.3514,0.0138,-0.2748,-3.3425,1.05,-15.0675,1.8833463007776188,-6.859182676706354,176.5778384891929,14.407156940432916
-0.1153,0.976,0.0325,-0.3514,0.0138,-0.2748,-3.0888,0.7175,-15.3737,1.9071311759839495,-6.760797710940854,176.55584832900274,14.40838431774208
-0.1193,0.9822,0.0282,-0.3524,0.0148,-0.272,-3.0625,0.8487,-15.155,1.6453037210401062,-6.886600879642924,176.618992889543,14.409596476705136
-0.1121,0.983,0.0307,-0.3522,0.0128,-0.2758,-3.7188,1.3125,-14.945,1.7884173371893344,-6.597730315642616,176.78552807956837,14.41081712962881
-0.133,1.0054,0.1006,-0.3522,0.0128,-0.2758,-3.2375,0.7,-14.6737,5.703012142365026,-7.304971885089388,174.03898438978365,14.412044153022949
-0.1029,0.9517,0.0181,-0.3506,0.0127,-0.2739,-1.8463,-1.19,-15.0412,1.1023922704027387,-6.3433870213707015,177.28553994828167,14.413273653822266
-0.1735,0.9914,0.0051,-0.3506,0.0127,-0.2739,-2.1175,-0.49,-15.0325,0.2969898767418068,-9.313057065707268,177.94117596597988,14.414498553726249
0.1876,0.9354,0.0936,-0.244,0.113,-0.005,-4.76,-6.1687,-17.15,5.699033701225409,9.49764778128801,154.86231068655954,14.417550362992946
0.187,0.9382,0.0944,-0.244,0.113,-0.005,-4.935,-6.4925,-17.535,5.7455299521811725,11.071978564425482,154.85298992771996,14.418776678557032
0.1928,0.9409,0.09,-0.2429,0.1131,0.005,-4.4363,-6.4138,-16.5987,5.464684700165255,11.490141628833015,155.06592513899628,14.4199945001605
0.1967,0.9448,0.0899,-0.2433,0.1145,-0.0043,-4.445,-5.5825,-16.905,5.435548799622845,11.689094631873795,154.47630146904552,14.421206659123559
0.2007,0.9454,0.0953,-0.2433,0.1145,-0.0043,-5.215,-4.9437,-16.0562,5.755292387345546,11.90366387351585,154.4803799094282,14.422416340681435
0.206,0.9395,0.0944,-0.2425,0.1145,-0.0034,-5.495,-3.815,-16.205,5.737812837139441,12.26318441218451,154.41444343494626,14.424153355627622
0.2059,0.9353,0.0974,-0.2425,0.1145,-0.0034,-5.0925,-2.9488,-15.9425,5.944639320058799,12.340003485983043,154.42540969449007,14.490648680233175
0.2103,0.9341,0.0963,-0.2422,0.113,-0.0041,-5.2675,-2.205,-15.4088,5.886215009840322,12.585623188033802,154.63518914150455,14.495190471758113
0.2081,0.9324,0.0976,-0.2449,0.1122,-0.0033,-5.0575,-1.0412,-15.12,5.97548550094981,12.526293087794398,155.07789363115657,14.499711028381508
0.212,0.9242,0.1012,-0.2449,0.1122,-0.0033,-4.1825,0.315,-14.7175,6.248231582178199,12.78190335654017,155.0732161362182,14.502430511439066
0.2079,0.9257,0.1015,-0.2439,0.1122,-0.0018,-4.165,1.12,-14.4112,6.257274777255014,12.631412552917197,155.065233332376,14.50410240602052
0.2048,0.9249,0.0964,-0.2439,0.1122,-0.0018,-3.0713,1.9775,-15.5225,5.951167342433798,12.482888053393557,155.05399720091492,14.505775362347052
0.2026,0.924,0.1012,-0.2414,0.1144,-0.0023,-2.17,3.08,-15.7762,6.249506298568862,12.37822042236972,154.4148297447471,14.507445841268403
0.2002,0.9319,0.0935,-0.2417,0.1132,-0.0026,-1.6013,3.36,-16.2663,5.7309096354750775,12.222640685692445,154.63971736200833,14.509122336745193
0.195,0.9381,0.0989,-0.2417,0.1132,-0.0026,-0.9275,4.375,-16.3712,6.0174283321699376,12.210331003779809,154.68525445594716,14.510803787032343
0.1838,0.9318,0.0935,-0.2418,0.114,-0.0037,-0.8138,4.7688,-15.9162,5.7308716000945505,11.884793425341138,154.51597294288348,14.51248452948944
0.1802,0.929,0.0994,-0.2418,0.114,-0.0037,-0.8487,4.095,-15.6625,6.106183882018051,11.686975224857207,154.55119767264563,14.514172350247051
0.1809,0.9255,0.0928,-0.2447,0.1118,-0.0035,-0.035,4.165,-15.9162,5.726969360861666,11.579770860126164,155.21382844684413,14.515838228273068
0.1759,0.9305,0.0883,-0.2426,0.1124,-0.005,1.0237,4.0687,-15.82,5.421707626501226,11.376391751685768,154.86114606773796,14.51751790898509
0.1848,0.937,0.0865,-0.2426,0.1124,-0.005,1.0587,4.0163,-16.4237,5.274769093525053,11.309700632973339,154.82374079549106,14.519171753900233
0.1831,0.9491,0.0841,-0.2426,0.1138,-0.0046,1.6887,3.675,-16.7562,5.064349941302626,11.135347838422826,154.57140593368416,14.520804363913834
0.1852,0.9519,0.0825,-0.2426,0.1138,-0.0046,1.4962,4.025,-16.7825,4.95368292904323,11.094548770655171,154.55929829516643,14.522471657599954
0.1799,0.9555,0.0814,-0.2414,0.1138,-0.0034,0.735,4.4187,-17.0362,4.869560775636818,11.06511369824826,154.50815009660383,14.524110284168993
0.1744,0.9583,0.0798,-0.2414,0.1138,-0.0034,0.3063,4.2525,-17.0275,4.7604806107409265,10.994149063631312,154.52337784661896,14.525757404698647
0.1695,0.9573,0.0792,-0.243,0.1137,-0.0036,-0.315,4.0338,-16.695,4.729548711488701,10.756037458401927,154.69669472888367,14.52743106885523
0.1649,0.9565,0.0752,-0.243,0.1136,-0.0068,-1.1987,3.5175,-15.96,4.495996108307816,10.299410124352349,154.620511473031,14.529096946881248
0.1611,0.9496,0.0764,-0.243,0.1136,-0.0068,-2.485,3.0888,-15.6275,4.599530607218753,9.908025450003702,154.63406718165183,14.530776981508295
0.1651,0.9489,0.0825,-0.242,0.1142,-0.0054,-2.485,3.2462,-15.995,4.967929189875633,9.869035740977441,154.47302258219636,14.532446044769543
0.1667,0.9482,0.0853,-0.242,0.1142,-0.0054,-3.7275,2.38,-15.5662,5.14000410171534,9.910672025079426,154.47523008232838,14.53370527443102
0.1702,0.9491,0.0809,-0.2415,0.1137,-0.0029,-3.0625,1.0762,-15.1025,4.872786258244586,10.079232238151995,154.58319582196245,14.534924157779566
0.172,0.9537,0.0835,-0.2421,0.1163,-0.0058,-3.7362,0.9713,-14.8312,5.003333924055035,10.161059412218915,154.04551712639235,14.536131008017238
0.176,0.9495,0.0836,-0.2421,0.1163,-0.0058,-4.0513,1.2687,-14.49,5.03162881788155,10.388014573538698,154.02876155887432,14.537352014855937
0.1731,0.9441,0.0867,-0.2426,0.1146,-0.0068,-3.9463,1.6975,-14.385,5.24635194962274,10.35832944175464,154.3845105147484,14.538567005139202
0.1756,0.9443,0.0852,-0.2426,0.1146,-0.0068,-3.6837,0.9187,-14.6037,5.155838201305278,10.462315082472774,154.37098932354405,14.539779164102258
0.172,0.9531,0.0819,-0.2432,0.1136,-0.0054,-3.9638,0.805,-13.8775,4.912052922186305,10.252182969158234,154.67328653121422,14.540977874294338
0.1736,0.9572,0.0827,-0.2422,0.112,-0.0062,-4.3663,1.2163,-13.3875,4.937895953355167,10.244626675405415,154.8639694913003,14.542181185381754
0.1809,0.9523,0.0847,-0.2422,0.112,-0.0062,-5.1188,1.1287,-12.775,5.082252328881597,10.603242529741426,154.8398443040494,14.554100335617619
0.1853,0.9362,0.0892,-0.2431,0.1127,-0.0059,-5.53,1.3562,-12.5562,5.441629236500631,11.010549054475533,154.78492397741533,14.562599958875074
0.1886,0.9284,0.0892,-0.2431,0.1127,-0.0059,-5.005,1.1987,-11.935,5.487960682680708,11.330410659500641,154.76758853369435,14.57486736149624
0.1911,0.9284,0.0888,-0.2435,0.113,-0.004,-4.7163,1.1375,-12.18,5.463698351672575,11.520610927390843,154.804452892765,14.587061149792058
0.1901,0.9301,0.0916,-0.2437,0.1118,-0.0066,-3.8675,1.2075,-12.565,5.62413158711186,11.502898452497417,154.97206641833543,14.60002505718382
0.1955,0.9307,0.0888,-0.2437,0.1118,-0.0066,-3.7625,1.225,-12.8712,5.450696042071984,11.736176798376293,154.94073121084494,14.612152309454805
0.2009,0.9374,0.0913,-0.2441,0.1129,-0.0052,-3.325,0.9975,-15.2337,5.562580775270291,11.971090167776923,154.80623827050331,14.624288409601432
0.2042,0.9434,0.0914,-0.2441,0.1129,-0.0052,-3.0713,1.6538,-13.615,5.533831661111012,12.107532739435683,154.79591770404775,14.63641283055221
0.2006,0.9435,0.0886,-0.247,0.1126,-0.004,-3.2725,2.1088,-13.9387,5.36513908572888,11.999967867074876,155.16117008066539,14.648402055963167
0.1984,0.9423,0.09,-0.2448,0.1119,-0.006,-3.5438,2.7475,-14.735,5.45557288958861,11.899911119619704,155.04065216490068,14.657914584024205
0.1972,0.941,0.0936,-0.2448,0.1119,-0.006,-3.325,2.9838,-15.1025,5.679820525283903,11.830276434452347,155.05667908205731,14.669971407205074
0.1903,0.934,0.0946,-0.2443,0.1122,-0.0042,-3.045,2.7562,-15.7937,5.783179009455026,11.602142569940085,155.05011986118203,14.682085918535133
0.1918,0.9338,0.0938,-0.2443,0.1122,-0.0042,-2.7213,2.6775,-16.3187,5.73623837494262,11.569758813962414,155.0412382337361,14.694127523369895
0.1902,0.9328,0.0874,-0.2433,0.1128,-0.0026,-2.8175,2.8087,-16.6338,5.353850581397492,11.512765444536342,154.8767101483312,14.706221861543488
0.1853,0.9373,0.0879,-0.2433,0.1135,-0.0075,-2.555,2.8525,-16.5812,5.357519042131442,11.28632093253059,154.5875022091203,14.718379550506683
0.1803,0.9431,0.0878,-0.2443,0.1135,-0.0075,-2.5463,2.275,-16.065,5.3188559340884405,10.942935152959164,154.70117273368518,14.730494415751767
0.1765,0.9493,0.0843,-0.2421,0.1112,-0.0056,-2.9225,1.8725,-15.8638,5.07536565186751,10.621725926842265,155.02098951885736,14.739863608227392
0.1813,0.9532,0.0872,-0.2421,0.1112,-0.0056,-2.9313,1.4525,-15.1637,5.2265220536300605,10.69878599153063,155.0134744509591,14.752053503457928
0.1875,0.9518,0.0827,-0.2475,0.1118,-0.0066,-4.2088,1.2862,-14.8662,4.966574465577363,11.003958323373235,155.30553001790184,14.764169430448089
0.1859,0.9506,0.0812,-0.2475,0.1118,-0.0066,-4.9437,1.0937,-14.5425,4.882575049898136,11.02081682500071,155.30745573205505,14.77616254892433
0.1831,0.9498,0.09,-0.2478,0.113,-0.0031,-5.355,1.365,-15.3562,5.411511352792676,10.903319285915888,155.26151370919106,14.788315990907217
0.182,0.9414,0.0947,-0.2438,0.1134,-0.0033,-6.4488,1.4,-14.63,5.743398392543005,10.892116572743452,154.84204345450232,14.800337068670487
0.1748,0.925,0.0984,-0.2438,0.1134,-0.0033,-5.5213,0.4725,-15.6187,6.0712713538990775,10.693656351365327,154.8767672318639,14.8124537034907
0.181,0.9266,0.1018,-0.2446,0.1136,-0.0043,-4.7512,0.2362,-16.1262,6.269043981274182,10.930751228610724,154.86389863113345,14.82450698752131
0.1815,0.9317,0.0942,-0.2446,0.1136,-0.0043,-4.1737,-0.07,-16.17,5.774688480045715,10.96186476018102,154.8351870471276,14.834095607312877
0.1808,0.9409,0.0946,-0.2439,0.1129,-0.0026,-4.4275,-0.1225,-15.855,5.741433741817372,10.849101011284178,154.9760569841707,14.84628727211854
0.182,0.9432,0.0977,-0.245,0.1127,-0.0032,-4.3137,0.28,-15.3037,5.913326318540588,10.861732154503711,155.09878906226797,14.858270127059034
0.1789,0.9324,0.1027,-0.245,0.1127,-0.0032,-4.2613,-0.1138,-14.7437,6.284512778415243,10.809344587180973,155.12628957567793,14.870467808420134
0.1835,0.9268,0.1013,-0.2445,0.1129,-0.0021,-4.3488,-0.49,-14.1925,6.237845500594432,11.078991560591096,155.06291677479874,14.882587982390605
0.1876,0.9281,0.1025,-0.2445,0.1129,-0.0021,-3.1412,-0.665,-14.4112,6.302064977205715,11.313427960816808,155.05394411753954,14.894757350549648
0.1902,0.9296,0.1056,-0.244,0.1134,-0.0074,-2.6163,-0.4725,-14.5162,6.4803623708144835,11.460872294741222,154.70581650251123,14.906887788055863
0.1936,0.9313,0.1049,-0.2438,0.1142,-0.0027,-2.1175,-0.49,-15.2512,6.42675831491023,11.635617418784387,154.70817217233278,14.919070604985885
0.1936,0.9377,0.0972,-0.2438,0.1142,-0.0027,-1.1375,-0.5425,-16.3013,5.919436397579659,11.610230903948098,154.6771381142023,14.931356411188387
0.1907,0.9413,0.0986,-0.2429,0.1114,-0.002,-1.435,0.2013,-16.1437,5.979686154930203,11.434357591952262,155.1799632436551,14.94329891981595
0.1853,0.9442,0.0902,-0.2429,0.1114,-0.002,-1.5225,0.6825,-15.5137,5.458394037671801,11.1355806138846,155.1665867159542,14.95267519059209
0.1828,0.9443,0.0907,-0.2426,0.1125,-0.002,-1.4262,0.4462,-15.6712,5.486350235813027,10.953568051832193,154.93745042782,14.964815183804
0.1864,0.9481,0.0866,-0.2446,0.1133,-0.0035,-2.4763,0.5862,-14.8137,5.219693006968162,11.051680700655368,154.88238678431304,14.976898904526822
0.1906,0.9614,0.0878,-0.2446,0.1133,-0.0035,-3.2813,1.2163,-14.385,5.218075630652606,11.14012171380906,154.87645943552909,14.98913056173039
0.1936,0.9551,0.0922,-0.2442,0.1115,-0.0026,-4.0687,1.925,-13.6325,5.5130994211089535,11.329153399381399,155.2225083966525,15.001112001010782
0.1954,0.9485,0.088,-0.2442,0.1115,-0.0026,-4.1825,1.9862,-13.2212,5.301212956615354,11.514037883141544,155.1975295574158,15.013220141870377
0.1906,0.942,0.0891,-0.2442,0.1131,-0.0044,-4.1737,2.3975,-12.74,5.403016625499442,11.431353217732878,154.84311927972598,15.02533111405018
0.1911,0.9358,0.0922,-0.2452,0.1118,-0.0026,-4.4975,3.2725,-13.7462,5.626297223245898,11.460531183573655,155.25499861268455,15.034696059545496
0.1926,0.9328,0.0914,-0.2452,0.1118,-0.0026,-4.2263,3.1412,-13.9825,5.596321947142022,11.54354792997454,155.24532345158272,15.046831097947045
0.1907,0.9405,0.0963,-0.2453,0.1116,-0.0017,-2.905,2.905,-14.4112,5.845577229685133,11.461092717011425,155.3555975026869,15.05888332023258
0.1918,0.9444,0.0991,-0.2453,0.1116,-0.0017,-2.5813,3.0188,-15.0587,5.989968707196096,11.437118696420848,155.36452845073444,15.070991461092175
0.1898,0.9439,0.0978,-0.2458,0.1115,-0.0017,-3.535,3.0013,-14.5513,5.915668681683698,11.36435541520796,155.429008771827,15.083095354971462
0.1835,0.9463,0.0961,-0.2446,0.1119,-0.0055,-4.0687,3.5263,-15.1725,5.79903012939004,11.163145931822624,155.12243238816603,15.095250920444505
0.1845,0.9442,0.0997,-0.2446,0.1119,-0.0055,-4.5763,3.5525,-15.4175,6.0270010750325795,11.089271197498183,155.12968359495548,15.107316237585989
0.1804,0.9365,0.0985,-0.2456,0.1148,-0.0021,-3.3775,3.1238,-15.4437,6.004292429223402,10.954670263348829,154.7992283756551,15.116696401427411
0.1781,0.937,0.1034,-0.2456,0.1148,-0.0021,-4.0687,3.465,-16.0125,6.296415090037883,10.834347596184182,154.82729585557374,15.128797110071467
0.1823,0.9328,0.1058,-0.2467,0.1131,0.0007,-3.8763,3.185,-16.3187,6.470456889675282,10.917832996406144,155.35117757428466,15.140900650035729
0.1788,0.9309,0.1014,-0.2444,0.1122,-0.0064,-3.2725,3.2725,-16.7562,6.21724868455035,10.861907952773024,155.04239139118474,15.152975876797933
0.1778,0.933,0.1008,-0.2444,0.1122,-0.0064,-3.7625,2.8175,-16.8262,6.166380427320241,10.7810849352804,155.04471002098373,15.16500226328659
0.1792,0.9373,0.1044,-0.244,0.112,-0.0029,-3.1937,2.7125,-16.3537,6.355093912618452,10.767152318668998,155.19016198443916,15.177139425178295
0.1809,0.9409,0.1005,-0.244,0.112,-0.0029,-2.8175,2.5375,-16.1437,6.0975175424279024,10.803120086702386,155.16984217509565,15.18927234008969
0.1847,0.9411,0.1039,-0.2438,0.114,0.0001,-3.465,2.485,-15.4612,6.299529519781032,10.956275870361655,154.88498800285046,15.198584552246176
0.1876,0.9408,0.096,-0.2438,0.114,-0.0204,-3.2813,2.1438,-14.7962,5.8276640825533566,11.138040513456282,154.0642645721756,15.209900985193258
0.1887,0.9398,0.106,-0.246,0.1123,-0.0019,-3.85,2.2138,-14.5687,6.433491692174448,11.237222249693048,155.32203455037885,15.222114592730515
0.1921,0.942,0.1038,-0.2437,0.113,-0.0021,-3.3688,3.1238,-14.7,6.288521883024229,11.359268285380038,154.95672633016838,15.234465519297748
0.1961,0.9445,0.1027,-0.2437,0.113,-0.0021,-3.5525,3.4038,-15.1287,6.205895267206566,11.506807464191715,154.93805197783377,15.246577907137652
0.1978,0.9441,0.1038,-0.2454,0.1125,-0.0018,-4.0075,3.5175,-14.9975,6.274049034033318,11.62382554341853,155.19511768258224,15.258769571943317
0.1976,0.9401,0.1068,-0.2454,0.1125,-0.0018,-4.6813,4.3225,-16.3887,6.480714644377427,11.628740721159145,155.20823959596237,15.2709711463697
0.2003,0.9429,0.1027,-0.2443,0.1129,-0.0003,-4.165,5.0575,-17.1238,6.216852680323634,11.751129874424283,155.06659997570893,15.283158210280028
0.2037,0.9498,0.1053,-0.2422,0.11,-0.0001,-4.725,5.7575,-17.5,6.325980422852487,11.915883509345115,155.45072738699957,15.292705775928612
0.1999,0.9433,0.1085,-0.2422,0.11,-0.0001,-4.9263,5.81,-18.7075,6.560764455511964,11.899773630456645,155.47802517500273,15.304802945422411
0.1926,0.9326,0.1069,-0.2426,0.113,-0.0018,-4.6375,6.4138,-19.4512,6.539094932282584,11.694397855476554,154.8801248719483,15.316856229453021
0.1846,0.9252,0.1155,-0.2426,0.113,-0.0018,-4.2,6.58,-20.195,7.1142542621157165,11.352475777593524,154.94622969415843,15.328948798051487
0.1749,0.919,0.1131,-0.2404,0.1137,-0.0012,-4.2962,6.1775,-21.2712,7.016304531604239,10.928710133789897,154.65718384010233,15.341079235557702
0.1598,0.9253,0.1099,-0.2418,0.1123,-0.0021,-2.7913,5.7838,-21.3762,6.774097007232133,10.223653493191916,155.048058272392,15.35325815942244
0.1555,0.9379,0.1076,-0.2418,0.1123,-0.0021,-1.9512,5.6788,-19.845,6.545249208835677,9.727446998896005,155.0506308378167,15.365264018839605
0.1502,0.942,0.1077,-0.2405,0.113,-0.0022,-2.0038,4.3925,-18.55,6.52243853583772,9.69906670394038,154.80849104537398,15.37463073391005
0.1523,0.9462,0.1042,-0.2405,0.113,-0.0022,-1.7325,3.465,-16.8875,6.285020603038066,9.41273470390875,154.78916122122507,15.387052443482425
0.1609,0.9484,0.1094,-0.242,0.1148,-0.0035,-1.9512,2.5375,-15.5137,6.579288799622391,9.511883980998464,154.52839533885495,15.398889485432328
0.166,0.9469,0.1058,-0.2417,0.1122,-0.0014,-2.1438,2.4325,-14.4725,6.375955629388523,9.755967517722159,155.05029854903498,15.41099302539659
0.1673,0.9475,0.1063,-0.2417,0.1122,-0.0014,-2.4063,1.6975,-13.8425,6.401174444747158,9.898589512201307,155.04904272016202,15.423058342538074
0.1675,0.9417,0.1068,-0.2399,0.1145,-0.0012,-3.6663,1.085,-14.9275,6.470183782637757,9.99366810067913,154.45074053119103,15.435199751410087
0.1614,0.9349,0.1078,-0.2399,0.1145,-0.0012,-2.6863,1.015,-14.8575,6.577225499158987,9.792098076447783,154.47207955216422,15.447309307929785
0.1606,0.9332,0.1053,-0.2393,0.1133,-0.0038,-2.3625,0.5862,-15.2337,6.438272700596829,9.722741008285814,154.54188545630572,15.459342418803931
0.159,0.935,0.1069,-0.2414,0.1131,0.0025,-2.38,-0.5338,-15.0325,6.522159678499435,9.612321921732095,155.019365265697,15.468744171461921
0.1554,0.9392,0.1055,-0.2414,0.1131,0.0025,-2.1613,-1.0762,-14.6037,6.409462521178716,9.380134101581492,155.02038906446862,15.480873901138086
0.1598,0.945,0.1049,-0.2438,0.1129,-0.0038,-1.5925,-1.7587,-13.9387,6.3344118540943954,9.517892422102637,155.03000036477818,15.493039376231847
0.1658,0.9467,0.1,-0.2438,0.1129,-0.0038,-2.1088,-1.6013,-13.2125,6.0306463466303475,9.827800751056666,154.9945319502743,15.505192110384682
0.1683,0.9503,0.0991,-0.241,0.1144,-0.0024,-2.3625,-2.0388,-12.4687,5.953663922365781,9.968040825790993,154.49264564349699,15.517381651700191
0.175,0.9503,0.1071,-0.2437,0.1132,-0.0021,-2.2138,-1.785,-12.4512,6.428845890101699,10.313712494021672,154.98970661740998,15.5295092578862
0.179,0.9494,0.1019,-0.2437,0.1132,-0.0021,-1.9512,-2.6338,-12.5562,6.127000294204407,10.579573246880058,154.9560523625815,15.541662345954062
0.1804,0.9459,0.0989,-0.2456,0.1125,-0.003,-2.1,-2.415,-12.3638,5.969398715924288,10.719764781975014,155.20828305393374,15.55385684207993
0.1814,0.9463,0.097,-0.2456,0.1125,-0.003,-3.045,-1.82,-12.2062,5.852959657101903,10.785698569891524,155.1979621304111,15.56604142858508
0.1825,0.9431,0.1026,-0.2415,0.1126,-0.0003,-2.7125,-1.47,-13.0025,6.207806910091496,10.874099990451196,154.93339663651307,15.57549768415703
0.1841,0.9432,0.1,-0.2429,0.1116,-0.009,-3.4913,-0.7613,-12.2325,6.052443053986294,10.966402108197464,154.9044501642883,15.58758812926534
0.1821,0.9421,0.0981,-0.2429,0.1116,-0.009,-2.975,-0.7525,-12.4687,5.945032907258876,10.89620798133325,154.90688611821656,15.599906141735183
0.186,0.9412,0.1044,-0.2417,0.113,-0.0016,-3.1063,-0.56,-12.3025,6.3284275848071525,11.075760325057423,154.81986816549426,15.612302723340733
0.186,0.9403,0.1022,-0.2417,0.113,-0.0016,-3.0538,-0.56,-12.6525,6.203405208586025,11.116932700310246,154.80999549964574,15.624019434181893
0.1905,0.9417,0.1048,-0.2449,0.113,-0.0047,-3.0188,-0.0263,-12.0925,6.349798516474255,11.321241016816952,154.97093004015963,15.63619340323627
0.1928,0.939,0.1055,-0.2454,0.1127,-0.0027,-3.0625,-0.0525,-12.5212,6.410332000434381,11.493316544366419,155.1452365787463,15.648383298466806
0.1929,0.9383,0.0988,-0.2454,0.1127,-0.0027,-2.8263,0.4462,-12.67,6.012027667907683,11.542517724181462,155.1169020366037,15.660507719417584
0.1954,0.9382,0.1075,-0.2443,0.1132,-0.0022,-3.0275,0.28,-12.845,6.535043745116151,11.661329691876325,154.97131692658382,15.672622938577694
0.1976,0.9358,0.1006,-0.2443,0.1132,-0.0022,-2.5025,0.4812,-13.0987,6.136937100917091,11.816705196551906,154.93202696060698,15.68468648614405
0.1937,0.9359,0.1018,-0.2477,0.1138,0.0017,-2.4413,1.2862,-13.02,6.207590960918769,11.673300385076127,155.2882225317016,15.694007192261154
0.1954,0.9329,0.1042,-0.2453,0.1109,0.0018,-2.7738,1.5487,-12.74,6.372757807711955,11.736294346291858,155.64405094171389,15.706044550115607
0.197,0.9373,0.1024,-0.2453,0.1109,0.0018,-2.8875,1.505,-13.65,6.23522035628607,11.784418763697849,155.63049648827877,15.718097126316167
0.1945,0.9413,0.1066,-0.2462,0.111,-0.0018,-2.765,2.0913,-13.7812,6.460454099591308,11.65832278491201,155.57622740132697,15.730183678359195
0.1957,0.9403,0.1108,-0.2462,0.111,-0.0018,-3.185,2.3712,-13.86,6.719716555911222,11.671595185733297,155.5902375429958,15.742076284968132
0.1964,0.9325,0.1107,-0.2457,0.1124,-0.0044,-3.1588,2.3187,-14.1225,6.769936561125996,11.766392156158734,155.1671737733442,15.754280336799695
0.1863,0.9275,0.1114,-0.2457,0.1124,-0.0044,-1.9512,2.275,-14.1225,6.848643386289006,11.437059924795925,155.20595567838546,15.763036902365817
0.1837,0.9222,0.1138,-0.2469,0.1131,0.0002,-2.1263,1.8463,-14.4025,7.034249233053493,11.255514219898435,155.38378979168067,15.775218303635734
0.1771,0.9218,0.1094,-0.2474,0.1116,-0.0026,-1.89,1.33,-14.5425,6.7689928618672655,10.914299009918688,155.60125404814264,15.787388025709804
0.1797,0.9327,0.1076,-0.2474,0.1116,-0.0026,-0.5338,0.5163,-14.07,6.581300678295323,10.851559545223472,155.58692738985653,15.799586768815981
0.1838,0.9385,0.1046,-0.2468,0.1126,-0.0022,-0.3763,0.1488,-14.4637,6.36023726735824,10.983018071530605,155.334537616624,15.811806392908677
0.1859,0.9446,0.1007,-0.2468,0.1126,-0.0022,-0.4375,-0.42,-14.5687,6.085852320129111,11.057005807868254,155.31252781057225,15.824049375393068
0.1887,0.9465,0.1012,-0.2474,0.112,0.0012,-0.3588,-0.4375,-14.49,6.102845354814082,11.185829574273772,155.60006387272566,15.836224760107548
0.1862,0.9455,0.1039,-0.2458,0.1128,-0.0038,-1.2775,-0.49,-14.1575,6.270544423219755,11.094673891966753,155.13781367112787,15.84843305891942
0.1782,0.9451,0.099,-0.2458,0.1128,-0.0038,-0.9975,-0.455,-15.1287,5.980778003518739,10.702625167359859,155.14690975410218,15.857257576170477
0.1788,0.9419,0.0961,-0.2456,0.1124,-0.0029,-1.1025,-0.4112,-15.3475,5.826035767025049,10.695733570328807,155.22504155736027,15.86948144724348
0.18,0.9436,0.0936,-0.2456,0.1124,-0.0029,-1.995,-0.8138,-15.1725,5.6653474902988865,10.73986605895811,155.2121095492191,15.881710627041869
0.1812,0.9411,0.0943,-0.2472,0.1123,0.002,-2.4675,-1.1638,-15.2425,5.721887851743512,10.829190140953793,155.54486911187337,15.893890258736658
0.1845,0.9387,0.0981,-0.2476,0.1132,-0.0041,-2.2225,-1.3387,-14.2537,5.965428875267577,11.026277656510048,155.19068888546605,15.906118730704996
0.1909,0.9392,0.0958,-0.2476,0.1132,-0.0041,-2.625,-1.33,-13.86,5.824518191959868,11.370916305326315,155.1583399671791,15.918339416542768
0.197,0.9368,0.1005,-0.247,0.1098,-0.0026,-2.835,-1.26,-13.5537,6.122444111403025,11.743476151853052,155.80837416534524,15.930573197236491
0.2022,0.9372,0.0977,-0.247,0.1098,-0.0026,-3.5088,-0.6913,-13.1075,5.951877120683435,12.050363631983387,155.7779494692895,15.94281724146596
0.2025,0.9357,0.1003,-0.2468,0.1126,-0.0029,-2.8,0.105,-13.6062,6.117849860294259,12.126065123795758,155.22062480740084,15.955178785483964
0.1998,0.9335,0.1016,-0.2463,0.1116,-0.0032,-3.2288,0.0088,-13.7375,6.211230322100231,12.033402265840259,155.3710635640032,15.967229592109394
0.1997,0.9392,0.0991,-0.2463,0.1116,-0.0032,-2.9575,0.4112,-13.7462,6.0238203668236325,11.958538584220188,155.3636267353715,15.9766769998057
0.2014,0.9398,0.1024,-0.2482,0.1119,-0.0023,-2.8612,1.2075,-13.72,6.217837053031793,12.010101560735597,155.51379792010385,15.988775231044578
0.2014,0.9401,0.107,-0.2482,0.1119,-0.0023,-3.045,1.8375,-13.9038,6.492560448086376,12.01470528825282,155.5337537973032,16.000799140128052
0.1962,0.9376,0.1026,-0.2474,0.1122,-0.0001,-2.3538,1.7413,-13.5712,6.245623722945075,11.823936323084576,155.49270644118934,16.01295824475135
0.1866,0.9321,0.095,-0.2482,0.1117,-0.0033,-2.3187,2.0388,-13.7637,5.820700732179085,11.43281834702483,155.53669160065826,16.025239096143494
0.1888,0.9316,0.0994,-0.2482,0.1117,-0.0033,-2.2662,1.9512,-12.8275,6.089560783120627,11.405098247041707,155.54533100564285,16.037214164953422
0.1952,0.9356,0.1036,-0.2489,0.1109,-0.0037,-1.2337,1.1462,-13.0725,6.31804579539701,11.641548431959313,155.73670394981536,16.04928266733014
0.2013,0.9372,0.0998,-0.2489,0.1109,-0.0037,-1.05,0.9275,-13.02,6.07903829600267,11.962445512900809,155.69925999959935,16.05861823787832
0.2099,0.94,0.1002,-0.2475,0.1122,-0.0035,-1.82,1.4875,-13.5975,6.084495081256604,12.374868291877362,155.30620160539777,16.07082016621973
0.209,0.9434,0.0987,-0.2488,0.1127,-0.003,-1.6187,1.5662,-14.4025,5.972957811608855,12.412352411915567,155.34239118755335,16.082901055622347
0.2054,0.9415,0.0956,-0.2488,0.1127,-0.003,-2.065,1.89,-14.84,5.7984343659965605,12.293986752929893,155.34334132505992,16.0949879615804
0.198,0.9316,0.0966,-0.2494,0.1109,-0.0035,-1.995,2.0913,-15.6363,5.919651294322151,12.046354895699727,155.74758673494776,16.107040891695984
0.1948,0.9278,0.0966,-0.2494,0.1109,-0.0035,-1.855,1.785,-16.2313,5.943995075738731,11.865880849868221,155.75869477071734,16.119182300567996
0.1923,0.9267,0.1019,-0.2488,0.11,0.0002,-2.1875,1.9337,-16.0037,6.2741161086610235,11.716546062641958,156.05212331819232,16.131263189970614
0.1889,0.9287,0.0983,-0.2487,0.1108,-0.0021,-2.4063,1.4175,-16.1175,6.04272909859084,11.506624553502359,155.79999895379675,16.140590620473205
0.1823,0.9343,0.0944,-0.2487,0.1108,-0.0021,-2.24,1.1375,-16.2313,5.770244393233052,11.109714479833821,155.80910277971648,16.152780869618766
0.1864,0.9385,0.0974,-0.2483,0.113,-0.0044,-1.6975,0.5862,-16.4937,5.9246640758279145,11.161379929836125,155.26930005203158,16.16480407087219
0.1846,0.9431,0.0936,-0.2483,0.113,-0.0044,-1.1375,0.0788,-16.24,5.668595844575995,11.048508759377295,155.26388260264105,16.17693804752866
0.1873,0.9394,0.1028,-0.2479,0.1121,-0.001,-1.7587,-0.0438,-15.8112,6.2435122833254475,11.180638308114515,155.55158923987278,16.189074501590316
0.192,0.9362,0.0969,-0.2504,0.1126,-0.0023,-1.3387,-0.1575,-14.56,5.910201914596681,11.466450501807188,155.58068195820698,16.20117379457427
0.1907,0.9356,0.095,-0.2504,0.1126,-0.0023,-1.4,-0.28,-14.5075,5.798203832762764,11.463786802343838,155.57762312673285,16.213325820897055
0.194,0.936,0.093,-0.2496,0.1106,-0.0038,-1.1112,-0.4987,-14.875,5.674570711459898,11.621327713469833,155.81495483444374,16.225300535791956
0.1914,0.9381,0.0887,-0.2496,0.1106,-0.0038,-1.19,-0.1225,-14.7525,5.402177777290106,11.507374722124993,155.8108865420169,16.237533962570655
0.1942,0.9402,0.0947,-0.25,0.111,-0.0059,-0.9538,-0.2187,-15.5662,5.750649090518663,11.594262474586026,155.70270336320175,16.246201341550297
0.1949,0.9418,0.0903,-0.247,0.1128,-0.006,-0.805,-0.2713,-15.4612,5.477550564120945,11.631923281088,155.07846940687904,16.25845246408028
0.1958,0.9454,0.0876,-0.247,0.1128,-0.006,-1.1812,-0.175,-15.6275,5.294374815514477,11.64873609021508,155.0677532908571,16.270679520388512
0.1952,0.9426,0.0861,-0.2502,0.1114,-0.0049,-1.575,-0.21,-15.0675,5.219299978824669,11.651941463285578,155.64868611945568,16.283716688190598
0.1933,0.9418,0.0867,-0.2502,0.1114,-0.0049,-2.3013,0.1837,-14.8575,5.259584093811255,11.57060460300489,155.65817919428866,16.29566415162852
0.1942,0.9389,0.0891,-0.2473,0.1122,-0.0042,-2.17,0.4987,-15.225,5.420587050556532,11.621969783820235,155.2824725679157,16.307786449089146
0.1961,0.9362,0.0856,-0.2489,0.1122,-0.0066,-2.555,0.21,-15.12,5.224772560716125,11.751347183781151,155.31475788677005,16.320010320162147
0.2008,0.936,0.091,-0.2489,0.1122,-0.0066,-2.555,0.21,-14.77,5.552055926253437,11.994315168049356,155.31107492120148,16.332148897713957
0.2006,0.9356,0.0909,-0.2492,0.1119,-0.0042,-1.8725,0.5075,-15.0237,5.54927140270308,12.035643804204918,155.4836249187364,16.344182362503126
0.2031,0.938,0.091,-0.2492,0.1119,-0.0042,-1.4787,0.4112,-15.8112,5.541227202691004,12.136389101684545,155.4751260087192,16.353458121411965
0.2053,0.9379,0.0899,-0.2482,0.1128,0.0,-1.8025,1.2425,-16.1087,5.47539643791136,12.254363217194031,155.36011243413898,16.365555644820788
0.207,0.9326,0.0888,-0.2482,0.1128,0.0,-1.2337,2.0213,-17.1937,5.439272958481064,12.398194556223174,155.34630663231547,16.37758167739442
0.2059,0.9326,0.0952,-0.2476,0.1114,-0.0005,-1.2512,2.0213,-17.57,5.827494068559674,12.39085109210934,155.57631213491607,16.389700435704786
0.2055,0.9343,0.093,-0.2462,0.1124,-0.0062,-0.805,2.765,-17.5963,5.6848801792813966,12.363094136346271,155.03615988609045,16.401777785957147
0.1964,0.9359,0.0913,-0.2462,0.1124,-0.0062,-0.4375,3.4213,-17.0187,5.5720676510233025,12.090336890193564,155.07026224275975,16.413906807803258
0.1915,0.9394,0.0928,-0.2462,0.1136,-0.0054,-0.9275,3.99,-16.8262,5.641549174075425,11.924927437600049,154.89724789370206,16.425952305703305
0.1869,0.9412,0.0849,-0.2462,0.1136,-0.0054,-1.33,3.9813,-16.3537,5.155712277260535,11.725492472914866,154.89033034386188,16.435420594386127
0.1836,0.9403,0.0875,-0.2455,0.1115,-0.0062,-1.0325,4.3925,-16.135,5.315925966662311,11.69719868311408,155.22395924120565,16.447532628311006
0.1815,0.9404,0.09,-0.2468,0.1115,-0.0056,-1.75,4.55,-14.91,5.466363093498122,11.561267524308509,155.37540275115703,16.45957175574059
0.1806,0.947,0.0828,-0.2468,0.1115,-0.0056,-1.4787,4.2788,-14.2625,4.998197003978671,11.506551053394386,155.3605812272302,16.47168378966547
0.1866,0.9536,0.0858,-0.2466,0.1124,-0.0058,-1.7587,3.955,-13.9387,5.140935912056827,11.37067951167602,155.1521680600563,16.483808918446297
0.1868,0.9605,0.0833,-0.2466,0.1124,-0.0058,-2.135,3.535,-13.6062,4.957125885023038,11.188499982956056,155.14747074002125,16.49592980024682
0.1867,0.9587,0.0903,-0.2471,0.1134,-0.0026,-2.94,3.7975,-14.6125,5.379634666880099,11.111518040549507,155.13281072506743,16.50799547130333
0.1833,0.9512,0.0897,-0.2469,0.1145,-0.0066,-3.2288,3.2462,-14.315,5.387150369937344,10.97965674538585,154.77287302942756,16.51737917429501
0.1738,0.9263,0.0944,-0.2469,0.1145,-0.0066,-3.3075,2.9313,-15.3475,5.81776433648624,10.741140874540342,154.8126707633821,16.529802653442513
0.1631,0.928,0.0926,-0.2474,0.1136,-0.0079,-2.9925,1.9862,-15.505,5.698700227315899,10.163907992954853,155.0174612776491,16.541647835438006
0.1671,0.9314,0.0907,-0.2474,0.1136,-0.0079,-2.1613,0.49,-15.3825,5.562323481024237,10.132356734244071,154.9991111087814,16.55371492215462
0.1712,0.9393,0.0885,-0.2494,0.1118,-0.009,-1.82,-0.7,-14.9012,5.382967584997486,10.259748004782296,155.46200651927563,16.56583191088986
0.1814,0.9499,0.0924,-0.2475,0.112,-0.007,-2.03,-0.7263,-15.0412,5.5553942635154065,10.679247939161824,155.30329476468677,16.578009419094492
0.1887,0.9513,0.088,-0.2475,0.112,-0.007,-2.6163,-1.0412,-13.965,5.285858522371945,11.095821782461615,155.2629863341297,16.59017843333851
0.1891,0.9509,0.0883,-0.2475,0.1122,-0.0065,-3.2288,-0.8312,-13.6937,5.305183482773303,11.183475178238195,155.24127718130148,16.602353464137966
0.1799,0.9497,0.0869,-0.2475,0.1122,-0.0065,-3.8325,0.0788,-13.3437,5.228368331434166,10.77771064674667,155.2725730368685,16.614346582614207
0.1735,0.9451,0.0886,-0.2473,0.1123,0.0011,-4.5062,0.6038,-12.9062,5.3552804416755295,10.446412044876125,155.5203298414173,16.623741964801734
0.1767,0.9418,0.091,-0.2481,0.1106,-0.0113,-3.9113,0.7962,-12.6962,5.518527106209423,10.549210149599073,155.48426677409876,16.635873464053027
0.1759,0.9383,0.0901,-0.2481,0.1106,-0.0113,-3.6925,0.63,-12.0225,5.48508797145731,10.565828597579642,155.48380263189225,16.64804283221207
0.1868,0.9379,0.0916,-0.2494,0.1115,-0.007,-3.1063,1.365,-11.4187,5.5778417502163675,11.050014223853008,155.53467247075005,16.66001683927692
0.1868,0.9395,0.0912,-0.2494,0.1115,-0.007,-3.2288,1.1112,-11.4537,5.544589272195393,11.16014812171433,155.53438661802707,16.672180544795555
0.1952,0.9416,0.0949,-0.2484,0.1119,-0.0036,-3.6488,1.6013,-10.9375,5.754583417056997,11.522681445980915,155.47579895141837,16.68427311339402
0.1972,0.9399,0.095,-0.2512,0.1122,-0.0081,-3.2375,2.0913,-10.885,5.77149868475447,11.70866928915982,155.48409532518744,16.696373822038076
0.1965,0.9415,0.0938,-0.2512,0.1122,-0.0081,-2.7037,2.6425,-10.8062,5.689732421716841,11.723692950943452,155.48466350059758,16.705409626559483
0.1962,0.9338,0.088,-0.2506,0.113,-0.0062,-2.7037,2.52,-10.395,5.384428316595754,11.78269596502383,155.32989623569264,16.717261532940462
0.1981,0.9393,0.0923,-0.2506,0.113,-0.0062,-2.7913,2.45,-9.9137,5.611498063001342,11.829288583529378,155.33871269610432,16.729413205348223
0.2006,0.9404,0.0952,-0.2562,0.1099,-0.0058,-2.5375,2.7037,-10.5962,5.7800887888445445,11.924350163852253,156.40837928669293,16.741610532794297
0.2059,0.9412,0.0899,-0.2562,0.1099,-0.0097,-2.9838,2.555,-10.7887,5.457036180972624,12.156439100261297,156.23076475765757,16.753864132729458
0.2051,0.9383,0.0985,-0.2533,0.1104,-0.0097,-2.4675,2.8875,-10.8762,5.991300924039926,12.220842401088385,155.91748026903332,16.76598182929475
0.2073,0.9365,0.0783,-0.2551,0.1096,-0.0059,-2.5813,3.1238,-11.5062,4.782716893401735,12.34133971537577,156.28998872881033,16.778189774191596
0.2001,0.9274,0.0967,-0.2551,0.1096,-0.0059,-3.1675,2.6688,-11.7862,5.949452256275653,12.197498108794608,156.37164871030168,16.786991286965982
0.2008,0.9249,0.0944,-0.255,0.112,-0.0014,-2.9663,3.045,-12.0487,5.828058183434669,12.19193317743804,156.06665704914914,16.79919817011775
0.201,0.9265,0.0918,-0.255,0.112,-0.0014,-2.3888,2.6338,-12.4162,5.659016366504955,12.185984193413493,156.05539699015077,16.81139266624362
0.2037,0.93,0.0941,-0.2553,0.112,-0.0042,-2.485,2.0738,-12.6087,5.7773526577117025,12.26082049736912,155.97705299044318,16.823561680487636
0.2094,0.9338,0.0883,-0.2546,0.1113,-0.0066,-2.4325,2.1525,-12.6,5.402865757044377,12.483578843482679,155.92026470234276,16.835762193168943
0.2133,0.9364,0.0944,-0.2546,0.1113,-0.0066,-1.8637,2.2313,-12.5387,5.75564685292246,12.678015093526911,155.92394443651432,16.84797261547097
0.2145,0.9333,0.0876,-0.2558,0.1103,-0.0073,-2.3187,2.3363,-12.25,5.363197310047759,12.818864897737905,156.1573122440893,16.860174189897354
0.2183,0.9337,0.0926,-0.2558,0.1103,-0.0073,-2.8263,2.2662,-11.7075,5.662967883177935,13.007136604521559,156.15517163466527,16.868928278058295
0.222,0.9315,0.0883,-0.2576,0.1105,0.001,-2.6163,2.9925,-12.145,5.415768966226688,13.203115513236385,156.5409149521126,16.881100123622517
0.2256,0.932,0.0898,-0.2562,0.1098,-0.0054,-2.7388,3.5525,-12.5387,5.503324880406375,13.355824077279959,156.3104068409849,16.893312669414698
0.2492,0.9235,0.0978,-0.2562,0.1098,-0.0054,-2.8,4.8038,-12.9762,6.043663022041319,13.874190828456555,156.21671932893793,16.90551353601103
0.2594,0.9094,0.1085,-0.2571,0.1098,-0.0058,-1.9862,6.125,-13.02,6.80164941258887,15.114476960814848,156.25004880422816,16.917710155627052
0.2761,0.892,0.11,-0.2571,0.1098,-0.0058,-1.33,7.9713,-13.0025,7.029494793956035,16.65221796402464,156.14318413569066,16.92986465935502
0.2817,0.8809,0.1101,-0.2575,0.1107,-0.0162,-0.6737,11.5675,-12.285,7.123953096761473,17.489164826636845,155.43758907313827,16.942124275845618
0.2879,0.8707,0.1168,-0.26,0.1108,-0.0102,2.2838,15.89,-11.0862,7.638907303657999,18.09260329395768,155.89804626395124,16.954315586736254
0.2823,0.8633,0.0979,-0.26,0.1108,-0.0102,5.3987,19.8013,-10.85,6.473008996259368,18.00557065353097,155.84086755178785,16.96308666281843
0.2701,0.8791,0.1017,-0.2616,0.1104,-0.0115,9.2312,23.625,-10.745,6.598673231920907,17.023683357764074,156.10921822396904,16.975283282434454
0.2626,0.8914,0.0972,-0.2616,0.1104,-0.0115,12.0312,26.5125,-10.7625,6.224063647543717,16.35328329249098,156.1615884831887,16.987525557088794
0.2577,0.8977,0.0888,-0.2638,0.11,-0.0145,15.7062,31.7187,-10.9112,5.650814222698858,15.957649108297991,156.30341341261166,17.00022119689107
0.2618,0.8988,0.0945,-0.2664,0.1103,-0.0187,16.7388,33.8537,-10.5962,6.00110805136364,16.148794104477457,156.26409761708192,17.01238419457965
0.2635,0.8974,0.0844,-0.2664,0.1103,-0.0187,18.3487,36.4962,-10.8675,5.374489119025223,16.29111297875741,156.2348492613375,17.02448773454391
0.2657,0.8977,0.0761,-0.2658,0.1104,-0.0245,20.5012,39.0775,-10.5962,4.8468899276442565,16.427944796011825,155.91124735129998,17.036687539395164
0.2631,0.9039,0.0764,-0.2658,0.1104,-0.0245,22.2775,41.3787,-11.4625,4.831347042854758,16.180832685377165,155.9451468917489,17.048870356325185
0.2591,0.911,0.075,-0.2678,0.1109,-0.0296,23.275,44.2837,-11.4625,4.706707394827496,15.83426031553798,155.86383856459696,17.061029460948482
0.252,0.9136,0.0666,-0.2689,0.1112,-0.036,24.8675,46.5763,-10.9112,4.170788566146203,15.39214808153678,155.7396054174873,17.0732218335842
0.2449,0.9185,0.0589,-0.2689,0.1112,-0.036,25.4975,48.4663,-11.4537,3.670439306128035,14.911140006424572,155.8338784416787,17.082587840824594
0.2295,0.9267,0.0503,-0.271,0.1111,-0.0413,25.8738,49.9975,-10.4212,3.1083432040871926,13.911848392325865,156.03547578708995,17.094763933369126
0.2229,0.9364,0.0479,-0.271,0.1111,-0.0413,26.2938,51.5725,-9.24,2.928783472575179,13.383792202775238,156.1232269531645,17.106863226353077
0.2174,0.9426,0.0467,-0.2741,0.1133,-0.047,26.6788,52.4912,-8.5925,2.8365706896693776,12.98051908304779,155.87131531864193,17.11897667593806
0.2084,0.9482,0.0382,-0.2791,0.1125,-0.0519,26.0137,53.305,-6.7112,2.308387021136396,12.397826433396453,156.42977995255634,17.13103491477903
0.2033,0.9574,0.0359,-0.2791,0.1125,-0.0519,24.7362,54.32,-5.5125,2.14785306584276,11.988469620214874,156.5084844930413,17.143172076670734
0.1931,0.9707,0.0314,-0.2814,0.1151,-0.0586,24.6138,53.7863,-4.1563,1.8535107088086051,11.259901348980696,156.2142340785806,17.155312777712695
0.1947,0.9726,0.0305,-0.2814,0.1151,-0.0586,23.24,54.1538,-2.31,1.7963128287844556,11.313630695758581,156.21150749384162,17.167380218344334
0.1956,0.9668,0.0249,-0.2861,0.115,-0.0664,21.6387,53.9437,-0.49,1.4761689901583903,11.431452049930558,156.4626573697056,17.176787279727712
0.196,0.9617,0.0228,-0.2908,0.1143,-0.0694,20.79,53.7863,0.8225,1.3584239541827192,11.514613733159079,156.8906707556395,17.18879136956975
0.2044,0.9561,0.0278,-0.2908,0.1143,-0.0694,20.5362,53.5237,1.19,1.6646845950076932,12.051467770514716,156.7465495175597,17.200833328319536
0.2136,0.9534,0.0282,-0.3003,0.1154,-0.0726,19.3025,53.6725,1.5225,1.6941430985832893,12.61133920101036,157.0833059417145,17.21287811838953
0.2177,0.9487,0.0265,-0.3003,0.1154,-0.0726,18.8475,53.7863,2.2225,1.6002723641480217,12.913050809385432,157.04899360509896,17.224998646275026
0.2253,0.945,0.0297,-0.3028,0.115,-0.0746,18.5587,53.305,2.3975,1.7996056780210798,13.393516071307799,157.13313679949553,17.236864709257034
0.2339,0.9376,0.0296,-0.3028,0.115,-0.0746,18.2962,53.165,2.205,1.8082025199235088,13.988591109245972,157.02312725323415,17.245540582197293
0.2425,0.9334,0.0258,-0.3082,0.1166,-0.0753,18.1037,53.445,1.96,1.5838957119545136,14.54693902712006,157.05182594578454,17.257720921722136
0.2495,0.9299,0.0258,-0.3142,0.1163,-0.0859,18.2787,54.1362,1.995,1.5892449073725454,15.00449452048449,157.1881854666806,17.269929928364057
0.2624,0.9267,0.0225,-0.3142,0.1163,-0.0859,18.1825,54.635,0.875,1.391374139457605,15.78970904978348,157.06519023691422,17.282077707706534
0.2673,0.9238,0.0238,-0.3204,0.1182,-0.0895,18.2,55.6413,0.9625,1.4755709238976074,16.126079608534155,156.99777519797232,17.29427397340753
0.2698,0.9166,0.027,-0.3204,0.1182,-0.0895,18.6025,56.6212,0.1225,1.6866986355736708,16.389945388027947,156.89490130487027,17.302951262007895
0.2786,0.9107,0.0259,-0.325,0.1191,-0.0893,19.2325,57.3913,-0.6125,1.6291850691588459,16.992012704872035,156.94452110547232,17.315173009590744
0.2803,0.9088,0.0209,-0.3308,0.1186,-0.0969,20.6763,59.1237,-1.7237,1.3182358055225074,17.134398778690496,157.2714085714737,17.328245214980374
0.2833,0.9084,0.0188,-0.3308,0.1186,-0.0969,21.8312,60.235,-2.3975,1.185954917031692,17.314272961821988,157.26051268535608,17.340079425610067
0.2938,0.9157,0.0157,-0.3349,0.1211,-0.1018,22.2862,61.3987,-2.765,0.982791305279077,17.77812495039172,156.93393403173158,17.352261888625065
0.2944,0.921,0.0066,-0.3349,0.1211,-0.1018,22.4,62.7725,-3.4563,0.4120733030541451,17.72705908787771,157.0903807076631,17.36443833508462
0.2929,0.9243,0.0082,-0.3394,0.121,-0.0983,22.6537,64.2425,-4.8125,0.5080400089307416,17.58453791558881,157.49716840881018,17.376495512180515
0.2865,0.9205,0.0045,-0.3449,0.1207,-0.1146,23.1612,64.9425,-5.8275,0.28068968118143084,17.29305085750302,157.6847343768738,17.38846279485988
0.2762,0.913,0.0006,-0.3449,0.1207,-0.1146,21.945,65.0563,-6.7638,0.03828761944073528,16.839047607012187,157.86829692200914,17.397905601660852
0.2735,0.9098,-0.0017,-0.3551,0.1221,-0.1146,22.2862,65.1175,-8.155,-0.10668046141015902,16.733306088897177,158.3460969569122,17.410077447225074
0.2762,0.9169,-0.0038,-0.3551,0.1221,-0.1146,21.8487,64.68,-7.98,-0.23711384149582573,16.763369753435235,158.37582989817565,17.42273415637452
0.2833,0.928,0.0057,-0.3562,0.1239,-0.1163,20.5713,64.8638,-8.5137,0.3503771848437152,16.972631231849324,157.90443516207586,17.434359911054074
0.2847,0.9356,0.0026,-0.3607,0.1246,-0.1162,20.1338,64.68,-8.9162,0.15972385618295304,16.92555125015626,158.13782526411933,17.44640293154894
0.2839,0.9401,0.0084,-0.3607,0.1246,-0.1162,19.04,64.8288,-8.9512,0.511010460643565,16.805105108449194,158.0688245156156,17.458548941316288
0.2839,0.9434,0.0104,-0.3664,0.1272,-0.1232,17.9025,64.5925,-10.2462,0.6312824683833592,16.74824724109315,157.8485404226969,17.470732819991383
0.2805,0.9456,0.0137,-0.3664,0.1272,-0.1232,14.1312,63.595,-13.0462,0.8295225135394131,16.52444646617665,157.84643450519562,17.483057556846717
0.2741,0.934,0.0132,-0.3712,0.1263,-0.1226,14.5775,63.14,-14.9187,0.8097464955520565,16.35663463367124,158.32826108869227,17.494946270390372
0.2602,0.924,0.0113,-0.376,0.1271,-0.1262,14.4287,62.5013,-17.4037,0.7009506202934385,15.736852253108262,158.5944480673664,17.504442518360225
0.2527,0.925,0.0162,-0.376,0.1271,-0.1262,14.4637,61.2938,-19.7138,1.002542865937397,15.285443638638414,158.60829843156128,17.516665327688152
0.2341,0.9359,0.0177,-0.3762,0.1283,-0.1313,14.6912,60.3225,-21.6212,1.0832492075464806,14.062877083989191,158.60227929052306,17.528790102553955
0.2308,0.9352,0.018,-0.3762,0.1283,-0.1313,14.0175,58.2925,-22.715,1.1025966163123546,13.864340059306105,158.63599606390295,17.54099309264044
0.2221,0.9353,0.0139,-0.379,0.13,-0.1327,13.3437,57.0413,-23.3712,0.8521115028949785,13.366291755220672,158.7050194458672,17.553065488082442
0.2231,0.9365,0.0181,-0.3806,0.1298,-0.1382,13.545,55.6413,-23.1788,1.106553070669934,13.396662027196898,158.64863601887015,17.565233440581384
0.2175,0.9401,0.0176,-0.3806,0.1298,-0.1382,12.7662,54.6787,-22.5662,1.0726236086103185,13.031708131750099,158.74096286735326,17.57742545930207
0.2155,0.949,0.0254,-0.3859,0.1304,-0.1381,11.27,53.69,-21.9975,1.5319199845327145,12.79421176009992,158.8524140774626,17.589611107552297
0.2136,0.9451,0.0216,-0.3859,0.1304,-0.1381,10.2725,52.9025,-21.4025,1.3098507441862572,12.7333703317372,158.93385891069286,17.60173198935282
0.2197,0.9427,0.0177,-0.3882,0.1326,-0.1354,9.2312,51.765,-20.3,1.0762831856433308,13.108694885011511,158.77564302892364,17.613819603140925
0.2252,0.9398,0.0115,-0.3914,0.1322,-0.1398,8.7762,50.3037,-19.845,0.7020873324949907,13.466677961772492,158.9782657511079,17.62321180009322
0.2301,0.9443,0.0179,-0.3914,0.1322,-0.1398,7.7613,50.75,-18.4625,1.0849191753220748,13.687404519272205,158.81027618417036,17.635322418357998
0.2305,0.9453,0.0219,-0.3933,0.1312,-0.1419,7.3763,51.485,-16.8175,1.3264909575180324,13.699674868278718,158.94362179979876,17.647387735499482
0.227,0.9406,0.0295,-0.3933,0.1312,-0.1419,6.65,51.6688,-16.0562,1.7950990084203244,13.564487846111986,158.8268400071707,17.659504370319695
0.2219,0.9338,0.0351,-0.3964,0.1324,-0.1406,5.985,52.605,-14.3762,2.151666573629955,13.362425761129689,158.78044550941175,17.671641886126423
0.2194,0.9324,0.0342,-0.4014,0.1344,-0.1419,5.7575,53.0337,-11.83,2.1007799752274816,13.235232524860177,158.78545097127983,17.683787541978745
0.2187,0.9221,0.0449,-0.4014,0.1344,-0.1419,5.8013,53.4888,-9.975,2.7858412658934095,13.325580374038328,158.56075542932368,17.695876925341977
0.2165,0.9123,0.0533,-0.4044,0.1345,-0.1445,6.2562,53.8475,-7.84,3.3421162626185406,13.328072534572366,158.48922719606543,17.705088271716136
0.2042,0.9087,0.0501,-0.4044,0.1345,-0.1445,6.8513,53.9875,-5.0138,3.156240217821631,12.659805290035719,158.68753600810481,17.71720313696122
0.2011,0.9075,0.0534,-0.4143,0.1342,-0.1447,7.6737,53.515,-2.2138,3.36699807400859,12.477518083786235,159.19827641340484,17.72916971181053
0.2054,0.9077,0.0571,-0.4143,0.1342,-0.1447,8.12,53.55,-0.7,3.598889838400851,12.721220909462703,159.08135573647556,17.741252724703305
0.2153,0.907,0.0597,-0.4182,0.1331,-0.1424,8.8638,52.2988,0.56,3.7654044235055837,13.313338177950087,159.298602154669,17.753051189915404
0.2209,0.9117,0.0486,-0.4257,0.1346,-0.1457,9.345,51.7475,1.6887,3.053305472322261,13.59543526456688,159.54883988879982,17.761647785889902
0.2276,0.9171,0.0528,-0.4257,0.1346,-0.1457,10.885,51.9487,2.1963,3.294390453645062,13.908978131154512,159.4149652437911,17.77383555763028
0.227,0.9189,0.0489,-0.4329,0.1389,-0.1479,11.7512,51.0913,3.2025,3.0468330595018815,13.858446981685113,159.24267331664907,17.78606084436339
0.2253,0.9177,0.0516,-0.4329,0.1389,-0.1479,12.5387,49.77,2.2488,3.2177527024752983,13.774520931252201,159.21067079342765,17.79826843534521
0.2209,0.9124,0.0537,-0.4408,0.137,-0.1432,14.6562,46.3575,0.5163,3.367900706869413,13.591634071422913,159.90216987600246,17.81039674936127
0.2211,0.9048,0.0482,-0.4426,0.1388,-0.1526,14.665,44.4062,-0.5688,3.050193926702195,13.710217154165331,159.65167283245688,17.82265318061664
0.2358,0.9135,0.0484,-0.4426,0.1388,-0.1526,14.6037,42.735,-1.4262,3.0329144027266053,14.435392654025376,159.50367513858015,17.83131737436105
0.253,0.9367,0.0479,-0.4516,0.1393,-0.1516,14.8312,41.9912,-2.9225,2.9276633017214873,15.078844823913512,159.76641276737226,17.844281281752814
0.251,0.9458,0.0456,-0.4516,0.1393,-0.1516,14.49,41.4925,-4.1125,2.760718297759839,14.852387415422386,159.86663835382333,17.85634412148912
0.2452,0.9432,0.042,-0.4544,0.1406,-0.1493,14.6212,39.69,-5.705,2.5502160810229437,14.566667906493384,159.9875611636514,17.868435628342507
0.2379,0.9354,0.038,-0.4544,0.1426,-0.1578,14.0087,38.1763,-7.0613,2.326920298279548,14.26706265416242,159.72328716300348,17.880580930279802
0.2297,0.9333,0.0344,-0.4568,0.1426,-0.1578,13.0725,36.5488,-8.2775,2.11145582181377,13.83111984713048,159.9853291707393,17.892680223263753
0.232,0.9399,0.0287,-0.463,0.1436,-0.1558,13.405,34.2125,-10.2462,1.749960123090048,13.858309344233678,160.26088724767598,17.904826586946125
0.2219,0.9571,0.0266,-0.463,0.1436,-0.1558,12.9762,31.5963,-12.3987,1.5923933051474002,13.077000703546714,160.46543346197043,17.916985691569426
0.2156,0.9614,0.0329,-0.4642,0.1437,-0.1554,12.0837,29.2863,-12.6,1.958965235289623,12.64979494569702,160.47871069746094,17.929093478513995
0.2014,0.9587,0.026,-0.4642,0.1437,-0.1495,10.0975,26.705,-13.5362,1.5545761659429178,11.893552047720316,160.80989313968146,17.938566722007177
0.1783,0.9559,0.0332,-0.4665,0.146,-0.1495,8.5225,22.9337,-15.05,1.9880028394791736,10.627626365546302,160.72780066347673,17.950807581001417
0.1634,0.9462,0.0302,-0.4678,0.145,-0.1598,7.7962,14.5513,-13.9825,1.8285303043198802,9.86745729013295,160.95533758350223,17.96276636972016
0.1699,0.959,0.0275,-0.4678,0.145,-0.1598,6.9038,10.3162,-13.3787,1.6430519322291441,10.017318897207153,160.97001631042934,17.974872033174577
0.1864,0.9715,0.025,-0.4685,0.1475,-0.161,5.5563,6.6937,-12.4162,1.4745506899576006,10.606256878154559,160.60185777031094,17.986941597296372
0.194,0.9821,0.0149,-0.4685,0.1475,-0.161,3.9113,4.0425,-11.8475,0.870858296804399,10.740107783432661,160.73080526295902,17.99901647014355
0.1955,0.9877,0.0156,-0.4673,0.1456,-0.159,0.1663,1.5312,-12.355,0.9047756270494219,11.075744277450534,160.91326657619436,18.008268516745666
0.1956,0.9903,0.0255,-0.4705,0.1487,-0.1602,-2.3625,-1.785,-12.6787,1.4734381919811423,11.156280590279414,160.49550324684287,18.02044531712025
0.1986,0.9845,0.0359,-0.4705,0.1487,-0.1602,-5.9588,-4.5062,-11.3575,2.0866463105993796,11.373169944495805,160.27158629669404,18.03261999400468
0.2172,0.967,0.0411,-0.4726,0.1462,-0.1606,-8.6363,-7.2537,-9.5725,2.4327694366498545,12.547034688233751,160.31518833682642,18.044789008248696
0.2328,0.9471,0.0437,-0.4726,0.1462,-0.1606,-10.2112,-9.0825,-8.4175,2.6412067556657064,13.709080375611395,160.031846102353,18.056905289153885
0.2407,0.9322,0.0434,-0.471,0.1468,-0.1562,-10.4912,-10.395,-7.5075,2.6654986121263002,14.415035761173362,159.8226188566112,18.06907536514298
0.2524,0.9237,0.0455,-0.4713,0.1457,-0.1578,-10.4912,-11.4275,-8.1287,2.819579464988381,15.214616150609766,159.73029340543087,18.08132082503255
0.2818,0.9078,0.0331,-0.4713,0.1457,-0.1578,-10.4562,-12.88,-10.6312,2.090266084136536,17.123858523005623,159.50832696190525,18.093607339065105
0.2987,0.9094,0.0363,-0.4676,0.1461,-0.1538,-10.1237,-14.0262,-17.92,2.2852723372998645,18.11570956151236,159.0917442507791,18.105908009698688
0.3077,0.9049,0.0362,-0.4676,0.1461,-0.157,-9.3975,-13.2912,-17.675,2.290847015794218,18.73112316449612,158.87895513912193,18.11807490045255
0.3066,0.9007,0.0373,-0.4675,0.1437,-0.157,-9.17,-12.3462,-18.4363,2.371162477420023,18.780731814886085,159.1484503420161,18.130309388976325
0.2979,0.8919,0.0401,-0.4654,0.145,-0.1573,-7.6213,-10.5787,-18.83,2.573721403031797,18.47287457329864,158.9045600906931,18.1425438775001
0.2974,0.893,0.038,-0.4654,0.145,-0.1573,-6.8338,-9.2925,-18.865,2.4370350589728647,18.408719180173442,158.95655283609463,18.154721385704732
0.3037,0.8993,0.0387,-0.4671,0.1446,-0.1578,-5.9063,-8.47,-19.5825,2.4640396835808938,18.627097804333,159.00742428430243,18.166811830813046
0.3094,0.9037,0.0403,-0.4637,0.1443,-0.1582,-5.495,-7.0963,-20.3875,2.553130612618373,18.8617471084711,158.79278900563585,18.178928819548283
0.3007,0.9071,0.0401,-0.4637,0.1443,-0.1582,-4.585,-5.11,-20.0112,2.5312772471067455,18.37490602833781,158.93923722428417,18.1884314379886
0.2832,0.9088,0.0461,-0.4609,0.1441,-0.1567,-4.4888,-3.36,-19.8712,2.9028653666361786,17.4120224175791,159.00731360113488,18.200694947544484
0.274,0.908,0.0407,-0.4609,0.1441,-0.1567,-4.9,-2.0738,-19.2062,2.56744004373412,16.861590311853394,159.22502620377173,18.212772297796842
0.2716,0.9072,0.0472,-0.4625,0.1449,-0.1547,-4.445,-1.4262,-18.3838,2.9771602258167054,16.67740264070046,159.1490888443893,18.224872298610848
0.2735,0.9104,0.0451,-0.4598,0.1418,-0.1535,-3.8588,-0.35,-17.5525,2.8364328737941467,16.697557098035798,159.4643196075327,18.238971565405087
0.2786,0.9197,0.0449,-0.4598,0.1418,-0.1535,-3.0625,-0.1225,-18.1037,2.795091914561554,16.809036778688153,159.4465732910471,18.24929880585531
0.2691,0.9277,0.0417,-0.4622,0.1439,-0.1565,-3.6138,-0.0263,-19.0837,2.574324848901857,16.281097462453577,159.4502286879787,18.26142641204132
0.2561,0.9313,0.0426,-0.4622,0.1439,-0.1565,-4.2875,0.0,-19.7138,2.6189019008153855,15.532533006734196,159.61181207317523,18.273301676814
0.2502,0.9335,0.045,-0.4624,0.1429,-0.1537,-4.9263,-0.0613,-18.9263,2.759449826453967,15.08807086397221,159.83136416790256,18.285500773835203
0.2464,0.934,0.0504,-0.4582,0.1434,-0.1593,-5.2413,-0.3763,-18.025,3.087842858887105,14.815666130439757,159.43479892517595,18.29769456213102
0.2424,0.929,0.0475,-0.4582,0.1434,-0.1593,-5.1013,-1.225,-17.1413,2.9274501660682866,14.637561520839496,159.51503594102013,18.30664259572605
0.2379,0.9362,0.0522,-0.4571,0.1419,-0.1554,-5.6613,-1.5312,-16.3625,3.1906122238900627,14.294834712538734,159.7204321376963,18.318814441290275
0.2386,0.9403,0.0501,-0.4571,0.1419,-0.1554,-5.9412,-2.7913,-16.4937,3.0502811055581653,14.228200132519838,159.765105735048,18.33100504435086
0.2319,0.944,0.0472,-0.4571,0.1425,-0.1567,-6.265,-3.4563,-16.345,2.86293455085979,13.835523381554243,159.81124901195585,18.343259706031102
0.2318,0.9363,0.0551,-0.4574,0.1418,-0.1512,-7.5163,-4.7425,-15.8025,3.366467831860108,13.877446267691807,159.84291014659945,18.355562854069863
0.2402,0.927,0.0545,-0.4574,0.1418,-0.1512,-8.89,-6.44,-15.2425,3.3646542161820445,14.449720268108642,159.72051858684253,18.367711695157414
0.2611,0.9112,0.055,-0.4579,0.1428,-0.1534,-9.7825,-7.7613,-14.3675,3.4539256487063077,15.846521662463816,159.24461088421864,18.379907606943387
0.2691,0.909,0.0551,-0.4579,0.1428,-0.1534,-9.6687,-8.0412,-15.3387,3.4687578631094462,16.41628903868283,159.12930163077996,18.392131478016392
0.2745,0.9084,0.053,-0.4552,0.141,-0.1506,-9.0825,-8.2775,-16.9837,3.3394673630646614,16.759625470038728,159.25322960753732,18.404562389379432
0.276,0.9084,0.0589,-0.4537,0.1406,-0.1512,-8.8112,-7.9888,-17.7275,3.7087729316641225,16.858952763708523,159.10009757837813,18.41675440810012
0.2733,0.9016,0.062,-0.4537,0.1406,-0.1512,-8.8287,-7.6563,-18.41,3.9332062862495505,16.828560556252135,159.04726412285032,18.428766991902776
0.2749,0.8908,0.0573,-0.4526,0.1383,-0.1522,-7.0613,-7.4725,-18.3925,3.681148643269101,17.094391120691604,159.26886628129407,18.43827491906848
0.2911,0.8992,0.0556,-0.4526,0.1383,-0.1522,-5.8187,-6.6325,-18.2437,3.5386524867599367,17.838670419406153,159.12549711369996,18.450478263069993
0.2962,0.9087,0.05,-0.4539,0.1403,-0.1533,-4.8913,-5.3113,-18.1212,3.150539962362561,18.010609427594378,158.98743227225805,18.4626044535959
0.2995,0.9163,0.05,-0.4537,0.1405,-0.1517,-4.1125,-4.2962,-17.2812,3.1234534080104615,18.068556758793,158.98432631997753,18.47481947679326
0.2939,0.919,0.0468,-0.4537,0.1405,-0.1517,-4.62,-1.9862,-16.7213,2.915848387365019,17.761433011343147,159.129864637068,18.48689434964044
0.2734,0.9055,0.0478,-0.453,0.139,-0.1512,-3.9638,-0.63,-17.08,3.0214578843909154,16.94301431822252,159.48388945989564,18.499071857845074
0.2681,0.899,0.0565,-0.453,0.139,-0.1512,-3.6837,1.4875,-16.3712,3.5945654248233083,16.67004424604236,159.3670211721674,18.51119309356062
0.2687,0.9006,0.0533,-0.4514,0.1407,-0.1502,-1.2687,2.3363,-15.2425,3.3875488139289835,16.613469834089415,159.1557788791868,18.523323177151813
0.2733,0.9091,0.0542,-0.4518,0.141,-0.1502,-0.0875,3.7188,-14.5775,3.4118340974150487,16.648636465882298,159.10267896481062,18.53538247773786
0.2775,0.9173,0.0509,-0.4518,0.141,-0.1502,0.3588,4.6725,-14.3762,3.1766769711940595,16.687122931528354,159.14526763243288,18.545119387925197
0.2625,0.9266,0.0512,-0.4523,0.1408,-0.1518,0.2013,5.4425,-14.2187,3.1627451129580106,16.221296351374676,159.38936981427113,18.5567706244866
0.2572,0.9265,0.0473,-0.4523,0.1408,-0.1518,-0.0525,5.6,-13.9825,2.923211856181102,15.818418913847909,159.52246239703115,18.568874872280915
0.2525,0.9243,0.0403,-0.4523,0.1399,-0.1514,0.0613,5.0487,-14.3238,2.497728077819091,15.591307043023129,159.81476899516855,18.580885332593414
0.2518,0.9252,0.04,-0.453,0.1413,-0.1522,-0.2888,4.5413,-14.315,2.475639452147134,15.530747434232708,159.67369271481118,18.593035943256094
0.2571,0.9291,0.0376,-0.453,0.1413,-0.1522,-0.4462,4.655,-14.5338,2.317892340095892,15.513299507440582,159.6674137291287,18.605124264874252
0.277,0.9434,0.0326,-0.4533,0.1392,-0.1518,-0.6475,5.1188,-15.2337,1.9800571272936032,15.87821838068538,159.85833394767192,18.617184273290352
0.2665,0.9463,0.0356,-0.4533,0.1392,-0.1518,-1.435,5.88,-14.8137,2.1539781883048974,15.78130041150751,159.9450082204439,18.62663309664676
0.2671,0.9436,0.0248,-0.4529,0.1415,-0.1528,-2.52,6.6238,-14.3413,1.5073275002574373,15.794125336126694,159.7929421396096,18.63872283392502
0.2687,0.946,0.0328,-0.4529,0.1415,-0.1506,-3.9463,7.2537,-13.895,1.9844419625675638,15.833835683238586,159.67758361287437,18.650816818183586
0.2721,0.9409,0.0287,-0.4549,0.141,-0.1506,-5.11,7.6388,-12.9412,1.7478012617829874,16.055008202128025,159.84085999284582,18.66290372414164
0.2745,0.9423,0.03,-0.4549,0.1414,-0.1521,-5.355,8.5925,-13.1162,1.8232967329403018,16.199440273164587,159.71791982837183,18.675038408628165
0.2644,0.9399,0.0362,-0.4549,0.1414,-0.1521,-7.2013,11.2788,-12.88,2.2045615511851744,15.763505524102118,159.7222436365708,18.687173093114687
0.2536,0.9332,0.0432,-0.4559,0.1394,-0.1516,-8.3475,11.3925,-12.215,2.6491990687372176,15.259260726810156,160.00632108204192,18.69933432122814
0.2456,0.9277,0.0467,-0.4559,0.1394,-0.1516,-7.945,11.0162,-11.1125,2.881152648029552,14.868981391468356,160.01764522113928,18.71150333547216
0.236,0.917,0.0522,-0.4574,0.1403,-0.147,-8.225,10.1587,-9.835,3.2569643642877164,14.4775472778149,160.03015859238752,18.720947557933233
0.2297,0.9085,0.0553,-0.4586,0.1402,-0.1486,-7.56,9.6425,-9.7737,3.482631532608376,14.213697698263458,160.05195733712105,18.732234969848207
0.2444,0.918,0.0634,-0.4586,0.1402,-0.1486,-6.7112,8.785,-9.6687,3.949434854002427,14.75267435456968,159.78577953088285,18.744458487006185
0.2471,0.9237,0.0656,-0.4606,0.1406,-0.1506,-6.1512,7.105,-10.43,4.061935305871617,14.890555859807106,159.740606652111,18.756639888276105
0.2525,0.9236,0.0656,-0.4606,0.1406,-0.1506,-5.5563,6.1775,-11.0775,4.062689289403298,15.125153937070575,159.67679612748918,18.768944098059944
0.2536,0.9229,0.0647,-0.463,0.1402,-0.1481,-6.3525,5.075,-11.795,4.010313536546499,15.210706870538312,159.88116695521694,18.781071704245953
0.2517,0.9231,0.065,-0.463,0.1401,-0.1467,-6.4925,3.9638,-11.9263,4.027779339315676,15.212198899508756,159.94002273795698,18.793298052724136
0.2492,0.9194,0.0638,-0.463,0.1401,-0.1467,-6.2213,3.2288,-12.25,3.969731215938514,15.169101759739883,159.9722361770684,18.801955875998082
0.2489,0.9153,0.065,-0.4639,0.1378,-0.1462,-5.6613,2.1613,-12.32,4.0617790104361085,15.174033867973336,160.26810819207742,18.81418505579647
0.2517,0.9096,0.0683,-0.4639,0.1378,-0.1462,-5.6438,0.6125,-12.5475,4.293510733106861,15.373005667195729,160.15860575282133,18.8264092807845
0.2604,0.9054,0.0656,-0.463,0.1391,-0.1399,-6.0113,0.035,-12.7837,4.144497052763709,15.886816133286583,160.01795036570036,18.838583603753904
0.2668,0.9022,0.0649,-0.4621,0.1388,-0.1461,-4.1475,-1.4962,-14.0175,4.114584033530995,16.35402654315646,159.80228010389158,18.85081066006214
0.273,0.9206,0.0662,-0.4621,0.1388,-0.1461,-4.2438,-1.8987,-14.9713,4.113042551996765,16.460269803612906,159.79345894476177,18.86304444075586
0.2844,0.9165,0.0643,-0.4648,0.138,-0.1451,-3.9288,-2.415,-16.625,4.0134729160993174,17.104682766672287,159.90632354985036,18.875281406684817
0.2844,0.9159,0.0658,-0.4648,0.138,-0.1451,-4.3575,-2.765,-17.0713,4.108909891981999,17.19578884929708,159.8796570565323,18.88766843258467
0.2785,0.909,0.0694,-0.4639,0.1375,-0.1508,-5.25,-1.8637,-17.0187,4.365205391818251,17.016341740909578,159.75199860703307,18.899791791790374
0.2672,0.9052,0.0645,-0.4627,0.1368,-0.1445,-5.0662,-1.4,-16.94,4.0765334461557385,16.49671416932449,160.12569488456492,18.909265743113608
0.2704,0.9017,0.0735,-0.4627,0.1368,-0.1445,-4.4888,-1.5487,-16.2313,4.65839512705565,16.619839058635325,159.92720028305817,18.92144749829855
0.2769,0.904,0.0688,-0.4624,0.1374,-0.1442,-4.4187,-1.3125,-15.8812,4.353032159718792,16.929209845921704,159.85404071148923,18.9338055031663
0.2788,0.9105,0.0736,-0.4624,0.1374,-0.1442,-3.885,-1.1025,-15.1375,4.620687926980556,16.965966300980018,159.7875174740914,18.94580039121767
0.2791,0.9144,0.0741,-0.4614,0.1375,-0.1402,-3.7975,-0.3675,-15.2337,4.632905481532187,16.92914550222963,159.83269581751688,18.95790570075706
0.2824,0.9135,0.0713,-0.4618,0.1382,-0.1445,-3.8937,-0.385,-15.5837,4.463446124431492,17.09455143979219,159.66230758840967,18.970083916791744
0.2888,0.9088,0.0725,-0.4618,0.1382,-0.1445,-4.1563,0.9887,-15.5662,4.5608679092294935,17.466359735263033,159.54065817231057,18.982216477788114
0.2976,0.9117,0.0727,-0.4621,0.1372,-0.1443,-3.5,2.4588,-15.0412,4.559188564233465,17.831496628213245,159.58557860952138,18.99428745757001
0.3038,0.9199,0.072,-0.4621,0.1372,-0.1443,-3.3425,4.2613,-14.1138,4.475615177402622,17.864065278882162,159.5627338737593,19.006395952344633
0.3043,0.9211,0.0719,-0.4623,0.137,-0.1466,-3.8937,5.9675,-14.2012,4.463425713153546,18.09011289404145,159.54188766074137,19.01576089783995
0.2898,0.9201,0.0691,-0.4618,0.1362,-0.1438,-5.005,6.6062,-14.9537,4.2953543380186625,17.63735907687031,159.9044187460042,19.02794194519484
0.2747,0.9068,0.0649,-0.4618,0.1362,-0.1438,-4.9875,6.4138,-16.4237,4.094265302432719,17.08204944832692,160.08800295400633,19.040017171957047
0.2628,0.9024,0.0611,-0.4604,0.1383,-0.1429,-3.7362,6.055,-17.465,3.874107340948239,16.527339871493005,159.96875090553536,19.052060900281962
0.2743,0.9126,0.0681,-0.4604,0.1383,-0.1429,-3.0975,5.7137,-17.185,4.266514873870116,16.61847264624862,159.76820105260413,19.06419700042859
0.288,0.9246,0.0628,-0.4642,0.1381,-0.1491,-2.5375,6.2125,-16.3187,3.88669580902084,17.038137590837696,159.79881290401596,19.076311865673674
0.2968,0.9357,0.0616,-0.4622,0.1374,-0.1468,-2.4325,8.0675,-14.9625,3.766856721974836,17.451800297508246,159.81535658100165,19.08843487096435
0.2929,0.9409,0.0623,-0.4622,0.1374,-0.1468,-3.36,9.1437,-13.8425,3.7881476368614533,17.289566464331507,159.87651893657676,19.097740712650374
0.2622,0.9359,0.0606,-0.4646,0.1371,-0.1433,-3.7188,10.1587,-13.8775,3.70499228703322,15.864883292476536,160.4482700160633,19.10992883830578
0.2538,0.9295,0.0619,-0.4646,0.1371,-0.1433,-4.4888,10.7187,-14.1487,3.809689233128112,15.324950568619105,160.49466816055354,19.122110239575697
0.2488,0.9213,0.0676,-0.4638,0.1398,-0.1432,-5.6438,7.4812,-16.4587,4.195445368710747,15.134577483810324,160.0672493517495,19.134248817127503
0.2395,0.9183,0.073,-0.4648,0.1358,-0.139,-6.7463,7.1925,-16.415,4.5441671022395305,14.71963368711473,160.68542339533022,19.14643623495286
0.2333,0.917,0.0802,-0.4648,0.1358,-0.139,-6.5188,6.475,-15.9425,4.997038873951659,14.3813929646057,160.63825070682265,19.15837237310996
0.2318,0.9183,0.0834,-0.4648,0.1379,-0.1399,-5.7488,5.4425,-15.6625,5.188824724839222,14.240375658547139,160.34117883819,19.17051661330218
0.2316,0.921,0.0783,-0.4648,0.1379,-0.1399,-5.9325,4.5237,-14.49,4.860316668244061,14.214876830960332,160.42857187473635,19.182621215011515
0.2383,0.9158,0.0809,-0.4658,0.137,-0.1364,-6.1687,2.5813,-14.4462,5.047764403059042,14.417080757221095,160.52413654515837,19.19468016168254
0.2399,0.9112,0.0818,-0.4652,0.136,-0.1412,-6.0025,1.435,-15.505,5.129559519786961,14.622961005168063,160.4669185826862,19.204074836040014
0.2441,0.9096,0.087,-0.4652,0.136,-0.1412,-5.88,0.0175,-16.3712,5.4625772702600575,14.894187310883765,160.33718411617565,19.216221199722387
0.246,0.908,0.0878,-0.4645,0.1358,-0.1387,-6.2125,-1.0587,-16.205,5.522933024606619,15.060980562335002,160.34983187734363,19.228347390248295
0.2533,0.9096,0.0834,-0.4645,0.1358,-0.1387,-5.4163,-2.135,-16.87,5.239524189815881,15.440729348648969,160.34183003309215,19.24050260180631
0.2549,0.9116,0.0807,-0.464,0.1365,-0.1349,-4.8387,-2.4938,-16.5725,5.059466075081173,15.548341752909216,160.35237683642896,19.252301420933435
0.2621,0.9084,0.084,-0.4626,0.138,-0.1372,-4.7775,-3.0363,-16.5025,5.282505024608224,15.972179556161418,159.91723661036477,19.264525645921463
0.2682,0.9082,0.0734,-0.4626,0.138,-0.1372,-4.9525,-3.8413,-17.15,4.62241470509724,16.355044366739797,160.00050677398207,19.276782077176833
0.284,0.9148,0.0775,-0.4658,0.1354,-0.1386,-4.5588,-4.0163,-18.2262,4.841802506470707,17.10002226197,160.21399700995033,19.288979404622907
0.2813,0.9154,0.0752,-0.4658,0.1354,-0.1386,-5.1363,-3.5,-17.395,4.69670452217579,17.0361610424108,160.28187701737522,19.30120752267622
0.2769,0.9124,0.086,-0.4642,0.1348,-0.1431,-5.1538,-2.4413,-17.4562,5.38268207276871,16.840752498128165,160.05410023089235,19.309998417999832
0.2713,0.9116,0.0811,-0.4633,0.1322,-0.1389,-4.7163,-1.3212,-16.905,5.084741811798945,16.561108578025067,160.56993804598596,19.322231844778532
0.2648,0.9112,0.0807,-0.4633,0.1322,-0.1389,-4.7512,-0.6212,-15.6275,5.061234776212707,16.214073143764864,160.6466617501072,19.334466687217333
0.2677,0.9249,0.0836,-0.4604,0.1346,-0.1379,-4.9875,-0.2187,-15.4175,5.164533653102433,16.10426287337168,160.23939024581387,19.346681002584642
0.2641,0.924,0.0883,-0.4604,0.1346,-0.1379,-5.0225,0.6038,-15.085,5.457940691906657,15.929163757425618,160.20686966647924,19.358870189985122
0.2563,0.92,0.0866,-0.4614,0.1357,-0.1392,-5.5388,0.7437,-13.86,5.377658040921296,15.59464627595379,160.17675986047226,19.371073180071612
0.2514,0.9141,0.0904,-0.461,0.1357,-0.1416,-5.6262,0.8138,-13.1512,5.6471462797610075,15.369934519513967,160.074668054324,19.383272631007838
0.2483,0.9104,0.0864,-0.461,0.1357,-0.1416,-5.075,0.49,-13.58,5.421957838334086,15.227462984011854,160.1520041602778,19.395471374114017
0.2519,0.9262,0.0845,-0.4615,0.133,-0.1383,-4.795,-0.3063,-13.4488,5.213421348664291,15.167624556855644,160.63494222358096,19.40765242146891
0.2643,0.9293,0.0803,-0.4615,0.133,-0.1383,-4.6025,-1.5662,-14.07,4.939381765022645,15.725845234251802,160.57798300807966,19.41649817362151
0.2655,0.929,0.0814,-0.4621,0.1333,-0.1354,-4.5588,-1.7237,-15.715,5.007339124278783,15.868236200629465,160.60214654181948,19.428734077805387
0.2635,0.9243,0.0866,-0.4575,0.1334,-0.1388,-5.8362,-2.0213,-16.0912,5.351589129389227,15.848956602397678,160.24063581749795,19.44095865670844
0.2591,0.9184,0.0887,-0.4575,0.1334,-0.1388,-6.3525,-2.0825,-15.9862,5.516109124722836,15.70749336678691,160.23140477671603,19.45316978684052
0.2636,0.9098,0.0926,-0.4589,0.1348,-0.1352,-6.1512,-2.8612,-16.1875,5.810754399798147,16.03407688689231,160.06362474343175,19.46542161720055
0.2646,0.9073,0.0938,-0.4589,0.1348,-0.1352,-5.915,-3.43,-15.5925,5.9022202331177605,16.160574402997426,160.02398178911014,19.47762637686217
0.2608,0.9135,0.0897,-0.4599,0.1338,-0.1353,-5.8013,-2.9663,-15.7412,5.608937209026146,15.897346937126454,160.3146211260652,19.48987502198697
0.2615,0.9246,0.0859,-0.4597,0.1325,-0.1366,-5.6613,-3.1675,-16.5987,5.308677341932463,15.74776421268909,160.53045421453461,19.502065625047557
0.2585,0.9315,0.0879,-0.4597,0.1325,-0.1366,-6.0025,-4.0862,-17.325,5.390461232582606,15.476649775517256,160.563514354865,19.514265075983786
0.2488,0.9325,0.0912,-0.4585,0.1327,-0.1344,-7.2625,-5.8013,-18.6812,5.585302691332746,14.925555435049144,160.59764074625545,19.52650098016766
0.2518,0.9235,0.0927,-0.4585,0.1327,-0.1344,-9.5375,-7.1663,-20.1338,5.731674614538718,15.158486767149409,160.50859896266462,19.538724851240666
0.2498,0.9102,0.1009,-0.4581,0.1322,-0.1346,-9.6075,-8.2862,-20.8425,6.323992984361088,15.25035541218955,160.39708158936122,19.547546891086544
0.2466,0.8946,0.1042,-0.4562,0.131,-0.1318,-9.485,-8.4525,-18.7512,6.642774207119089,15.307964281408367,160.45268353372163,19.559778194375085
0.2488,0.8825,0.1147,-0.4562,0.131,-0.1318,-7.3063,-8.4612,-13.7375,7.403161267648558,15.597090851545293,160.23106128763365,19.571980122716496
0.2697,0.883,0.1108,-0.4547,0.1327,-0.1345,-5.1538,-8.0237,-12.4687,7.152872663569452,16.765512240221426,159.70165744020815,19.58418488237811
0.2741,0.8883,0.1082,-0.4547,0.1327,-0.1345,-3.7188,-7.2975,-12.0662,6.945323856932033,17.009077517281074,159.71361460797533,19.596445560613788
0.2765,0.8929,0.1019,-0.4562,0.1312,-0.1314,-3.1763,-6.5887,-13.3437,6.511786220745421,17.093724398503095,160.13422618269897,19.609073956561176
0.2858,0.9013,0.0961,-0.4562,0.1319,-0.1374,-2.1438,-6.0113,-15.2163,6.0872833258949095,17.46479167327781,159.89989295022897,19.62121111845288
0.2891,0.9054,0.0888,-0.4562,0.1319,-0.1374,-1.1025,-5.495,-17.2287,5.602900446838612,17.614133507447917,159.98837563960106,19.633386149252335
0.2914,0.9112,0.088,-0.4543,0.1306,-0.1338,-1.0062,-4.4012,-18.4538,5.516526921194112,17.652748527526278,160.17719502648933,19.645569320097383
0.2846,0.9084,0.0823,-0.4543,0.1306,-0.1338,-0.735,-2.73,-18.8563,5.177741384262521,17.369036932303892,160.32355775634505,19.657739750001504
0.282,0.9082,0.0872,-0.4553,0.1314,-0.1402,-1.2425,-1.4,-18.1125,5.483538681317704,17.204151070689985,160.06098324717993,19.669808606293245
0.2764,0.9101,0.0845,-0.4533,0.1323,-0.1371,-0.8575,0.5513,-17.08,5.305026790238312,16.904325708466924,160.05380689988294,19.679254952244474
0.2752,0.9086,0.0778,-0.4533,0.1323,-0.1371,-0.8487,1.155,-16.87,4.895224850337961,16.81931758058643,160.1604229740466,19.691347874757966
0.2787,0.9176,0.0788,-0.4515,0.1315,-0.135,-0.7525,2.1613,-16.5637,4.908265322918857,16.831124258810704,160.22058388154824,19.70352962994291
0.2768,0.9237,0.0783,-0.4515,0.1315,-0.135,-0.945,3.1937,-16.2488,4.845427884975296,16.720664661350533,160.27786279537557,19.71554150591551
0.2719,0.9229,0.0786,-0.4531,0.1316,-0.1339,-0.4288,4.0513,-16.8087,4.867861709778242,16.637261355627675,160.4075429395228,19.727617440507768
0.2639,0.9177,0.0827,-0.4549,0.1342,-0.1366,-0.4462,4.7425,-17.5,5.148610868933509,16.45318442002142,160.10378856790496,19.739768405085474
0.251,0.9158,0.0786,-0.4549,0.1342,-0.1366,-0.8138,4.6025,-18.305,4.9061552143394795,16.21673449084541,160.29745700292133,19.7518673441544
0.2489,0.9315,0.0775,-0.4527,0.1313,-0.1356,-0.8487,4.4713,-18.4975,4.756422661097398,16.077345861790665,160.68817319474675,19.761257771531568
0.2474,0.943,0.0788,-0.4527,0.1313,-0.1356,-0.665,3.9463,-18.4538,4.7766588280246225,15.666013491626343,160.73025615973813,19.773298314621254
0.2496,0.9431,0.0826,-0.4535,0.133,-0.1366,-1.3037,3.7625,-18.0163,5.004756925014073,15.333748883155062,160.45487950304076,19.78545600358445
0.2419,0.9367,0.0793,-0.4535,0.133,-0.1369,-2.4588,3.71,-16.9837,4.839521354504798,14.980714002233427,160.55030341768037,19.797106178400778
0.2336,0.9306,0.0797,-0.4502,0.1342,-0.1369,-2.555,3.0275,-15.575,4.894921097224399,14.445824363947713,160.31651343594712,19.809325802493472
0.24,0.926,0.0837,-0.4526,0.1338,-0.1358,-3.3863,3.3163,-13.7462,5.164105219852148,14.459978628249536,160.35034228116908,19.82146898094061
0.2545,0.9376,0.0833,-0.4526,0.1338,-0.1358,-3.15,3.3163,-12.8013,5.0772910623902,14.800567154653367,160.25114794509528,19.833687189373205
0.2583,0.9382,0.0799,-0.4528,0.1322,-0.1278,-4.375,3.7275,-12.8362,4.868326729082289,15.007936571365551,160.64861436414083,19.845841693101168
0.2583,0.9327,0.0835,-0.4528,0.1322,-0.1278,-5.0313,3.71,-13.3875,5.115073842429566,15.169293706584737,160.57879019031378,19.85519708289079
0.2522,0.9231,0.0896,-0.4542,0.1324,-0.1366,-5.46,4.0163,-13.8512,5.542798202234522,15.18019569725429,160.34752286276796,19.866864953458403
0.2453,0.916,0.0882,-0.4543,0.1329,-0.1349,-5.1013,3.6575,-13.6062,5.500072713719039,15.07595339391265,160.3932325158837,19.87905060170863
0.2442,0.9143,0.0868,-0.4543,0.1329,-0.1349,-4.8125,3.185,-14.0525,5.423395046767549,14.975862226590138,160.41784518967557,19.89125182221999
0.251,0.9157,0.091,-0.4538,0.1344,-0.1346,-4.6813,3.1763,-12.9412,5.674572408443003,15.127802861746975,160.09256993267303,19.903450565326164
0.2521,0.9176,0.0869,-0.4538,0.1344,-0.1346,-4.3225,2.9488,-12.88,5.410721420169556,15.226647596433297,160.14671289113,19.915647184942188
0.2514,0.9183,0.0916,-0.4542,0.1321,-0.1282,-2.9225,2.6863,-12.5387,5.695587083917112,15.234025589577774,160.54467211239702,19.92782327748672
0.2547,0.9168,0.094,-0.4542,0.1319,-0.1331,-3.5175,2.4325,-13.1862,5.853667464867389,15.37532887444099,160.3774260194658,19.9366219589409
0.2594,0.9138,0.0919,-0.4542,0.1319,-0.1331,-3.9638,2.4938,-13.7375,5.743182940224627,15.633243993852583,160.34316646714288,19.948818578556924
0.2666,0.9085,0.0908,-0.4559,0.132,-0.1324,-3.1238,2.9313,-13.7637,5.707570756654205,16.011388005106312,160.33462405336266,19.961046696610236
0.2649,0.9091,0.0857,-0.4559,0.132,-0.1324,-3.0363,2.9488,-12.9762,5.386204078000262,16.108368871429178,160.42743631106921,19.97322915962523
0.2686,0.9105,0.0905,-0.4548,0.1315,-0.1405,-2.625,2.8087,-12.8712,5.675514377739713,16.261010241098866,160.13663767020788,19.985396050379094
0.2682,0.9151,0.0881,-0.4562,0.1314,-0.1342,-2.2838,2.9313,-13.79,5.499616240571239,16.262619614452035,160.42792776919669,19.99759762480548
0.2655,0.9166,0.0884,-0.4562,0.1314,-0.1342,-2.1875,3.2638,-14.0963,5.508735597752996,16.169186909339118,160.4600768061086,20.009809462767606
0.2629,0.913,0.0864,-0.4566,0.1346,-0.134,-2.3363,3.4913,-14.1312,5.4062630658113315,16.089115719536416,160.12752366937514,20.02196750564583
0.2601,0.9164,0.0872,-0.4566,0.1346,-0.134,-2.03,3.3163,-14.1925,5.435529469815723,15.93070784312119,160.16182160374078,20.030769726250266
0.2647,0.914,0.0872,-0.4589,0.1332,-0.1375,-1.715,2.5375,-14.3675,5.449758608009878,16.02831598766108,160.28760092110835,20.04296811544142
0.2637,0.9163,0.0858,-0.4586,0.1319,-0.139,-1.6187,2.6688,-14.4812,5.349711809991542,16.003547310045516,160.4412737628696,20.055180307318572
0.2689,0.9184,0.0854,-0.4586,0.1319,-0.139,-2.3712,2.6338,-14.6562,5.31263551472505,16.16135172544281,160.39929045270156,20.06738648264029
0.2743,0.9217,0.0843,-0.4566,0.1326,-0.1342,-2.8087,2.9138,-14.21,5.226056890867154,16.365810859902776,160.31361137136568,20.079577793530927
0.2722,0.9201,0.0907,-0.4566,0.1326,-0.1342,-3.1588,3.0713,-13.8687,5.628686455884574,16.387803710666468,160.2391676681196,20.09171353976253
0.2628,0.9189,0.0903,-0.4569,0.1324,-0.1314,-3.43,3.4125,-14.0525,5.612462886218707,16.145519943965557,160.44718383904538,20.103946966541226
0.2628,0.9166,0.0899,-0.457,0.1314,-0.131,-3.1763,3.1675,-15.085,5.601676137985524,16.02633904752456,160.5798895544163,20.112747063655508
0.2627,0.9131,0.0881,-0.457,0.1314,-0.131,-3.9375,2.8788,-15.4437,5.511349211756603,15.998855200865622,160.5904849193977,20.124950053741994
0.2635,0.911,0.0883,-0.4587,0.134,-0.1327,-4.27,2.5638,-15.2425,5.536113412711457,16.038556621592942,160.28126332062868,20.13712862369171
0.2698,0.913,0.0947,-0.4587,0.134,-0.1327,-4.2525,2.3538,-14.6825,5.920690054711009,16.26595630922036,160.1336406511332,20.14932772071291
0.2674,0.9141,0.0888,-0.4569,0.1311,-0.1342,-3.6312,2.3888,-14.0087,5.549613427914534,16.2443332778377,160.4892988076254,20.161503105427393
0.2707,0.9158,0.0935,-0.4569,0.1311,-0.1342,-2.9313,3.2113,-13.9387,5.828719917335293,16.32008076702728,160.395001608569,20.17376378366307
0.2692,0.9139,0.0941,-0.4613,0.1315,-0.1342,-3.0013,3.71,-14.0525,5.8786213492597215,16.324447211863184,160.53211732799562,20.185885019378617
0.2623,0.9129,0.1063,-0.457,0.1318,-0.1318,-2.8438,3.8937,-14.2275,6.639601729438108,16.20009082732103,160.2779014554008,20.19468334691777
0.2615,0.9137,0.0928,-0.457,0.1318,-0.1318,-2.7213,3.8763,-14.6912,5.801707000217973,16.10127599024406,160.47214021663478,20.20689589270995
0.2545,0.9129,0.0918,-0.4562,0.1319,-0.1263,-3.0713,2.8525,-14.77,5.742449206204764,15.74244269865776,160.64305184532446,20.21908472619541
0.2605,0.9138,0.0949,-0.4562,0.1319,-0.1263,-2.8438,2.4413,-15.1375,5.928508906276947,15.800308914111763,160.54516936365937,20.23127745274615
0.259,0.9101,0.0949,-0.4591,0.1338,-0.1316,-2.7562,1.9337,-15.6187,5.952892988910301,15.80301674980953,160.30389499552197,20.24345283746063
0.2552,0.9134,0.0969,-0.4618,0.1311,-0.1319,-2.5288,1.4525,-15.8987,6.055409032837412,15.597963949001727,160.7657427303753,20.25566538325281
0.2546,0.9188,0.0985,-0.4618,0.1311,-0.1319,-2.4063,1.1462,-16.065,6.11884918371548,15.450153335361332,160.77374773182976,20.267871204659503
0.2528,0.9141,0.1045,-0.4584,0.131,-0.1323,-3.2288,1.0062,-15.0587,6.520620787097423,15.383682353300797,160.55111697366908,20.28005260592942
0.2519,0.9115,0.1027,-0.4584,0.131,-0.1323,-3.64,0.7175,-14.7613,6.428743155867567,15.361980193318418,160.57314710013907,20.288813772390874
0.2528,0.9145,0.0978,-0.4594,0.1323,-0.1321,-3.2113,-0.0175,-15.7325,6.1051276392745235,15.367865065200506,160.5321285956214,20.30113072311564
0.2549,0.9185,0.0943,-0.4581,0.1317,-0.1336,-2.8175,-0.6737,-16.1612,5.862548759591626,15.422230394836799,160.55713692624363,20.31327921028817
0.2538,0.9189,0.0913,-0.4581,0.1317,-0.1336,-2.6775,-1.2687,-16.3362,5.6746924853882685,15.376254150216917,160.6121451323708,20.325512283151838
0.2592,0.916,0.0971,-0.4589,0.1315,-0.1327,-2.4675,-1.6712,-15.96,6.049956440241824,15.667814626493202,160.5430311849727,20.33778817973362
0.2597,0.9145,0.0914,-0.4589,0.1315,-0.1327,-2.45,-1.9337,-14.3238,5.708446114188919,15.763594855437606,160.60962096948865,20.34994409912169
0.2628,0.9112,0.1008,-0.4594,0.1296,-0.1342,-2.3625,-1.225,-13.0025,6.310901046824723,15.960320264805537,160.6480726898308,20.36218071113562
0.267,0.9107,0.0919,-0.459,0.1326,-0.1332,-1.8987,-1.2337,-12.53,5.76381694505726,16.216143761944124,160.36433361861856,20.374398919568208
0.2757,0.9146,0.0895,-0.459,0.1326,-0.1332,-1.8725,-1.085,-13.0637,5.589484117495811,16.62464548777098,160.3202278841442,20.386626683706496
0.2765,0.9198,0.0788,-0.4584,0.1328,-0.1333,-2.0475,-0.6475,-14.0787,4.898548121734419,16.665418019756647,160.4327973067579,20.39884029124375
0.2772,0.9257,0.0866,-0.4584,0.1328,-0.1333,-2.17,-0.63,-14.7087,5.3432703155830215,16.612439456967238,160.34246555457082,20.407680734670965
0.2748,0.9241,0.0845,-0.4591,0.1329,-0.134,-3.1675,0.0175,-15.4088,5.22494658538972,16.517716836849512,160.39129874786542,20.41987735428699
0.267,0.919,0.0836,-0.4534,0.1334,-0.133,-4.1475,0.0,-15.3562,5.197877719554538,16.20829324588654,160.182165486002,20.432117505451174
0.2726,0.9122,0.0839,-0.4534,0.1334,-0.133,-3.9375,0.63,-15.8812,5.254859846415474,16.495015518057265,160.08455548209577,20.444279795309704
0.2788,0.9121,0.085,-0.4567,0.1346,-0.1335,-4.1825,1.1638,-16.4762,5.323910596213654,16.824309566641666,159.98162995361048,20.45644562431849
0.2818,0.9165,0.085,-0.4567,0.1346,-0.1335,-4.06,1.3825,-15.75,5.298760653203604,16.972571239804314,159.96853277071685,20.468642951764565
0.2826,0.9196,0.0874,-0.4585,0.1312,-0.1217,-3.5263,2.3538,-15.33,5.428794333992949,16.997773363034614,160.73384123395,20.480856559301824
0.276,0.919,0.0927,-0.4598,0.1303,-0.1326,-3.8325,3.3688,-15.68,5.759044958401297,16.81877322857502,160.62639452973443,20.493045746702307
0.2684,0.9201,0.0946,-0.4598,0.1303,-0.1326,-4.13,4.3488,-17.465,5.8699225264680805,16.816867282737913,160.68618742374204,20.50181363754925
0.2603,0.9241,0.098,-0.458,0.1329,-0.1319,-3.6837,5.3288,-17.6837,6.053028017929342,16.239245199899482,160.36563838185432,20.51402724508651
0.259,0.9218,0.1005,-0.458,0.1329,-0.1319,-3.1675,5.3987,-17.5438,6.221671167922897,15.915339219967597,160.33556178765195,20.526224218617557
0.253,0.9229,0.0996,-0.4597,0.1344,-0.1223,-4.0075,5.4688,-17.045,6.159734259578957,15.562088559054585,160.54065279069437,20.538421192148608
0.2445,0.9217,0.1,-0.4573,0.1309,-0.1315,-4.0775,6.0637,-16.6075,6.192004499313651,15.064504965649752,160.71422113168984,20.550605778653757
0.2419,0.9174,0.1041,-0.4573,0.1309,-0.1315,-4.1825,5.95,-15.8287,6.473035402146532,14.82886521545147,160.6674997693612,20.562777978133006
0.2381,0.9196,0.1041,-0.4599,0.1314,-0.131,-3.85,5.9063,-15.1287,6.458508935261235,14.584807688615417,160.7741785703065,20.574964334213284
0.2395,0.9202,0.1087,-0.4599,0.1314,-0.131,-3.2725,5.3375,-14.1312,6.736152042656251,14.538838911006586,160.70245381815985,20.583786727974186
0.2439,0.9179,0.1012,-0.4612,0.1334,-0.1294,-2.9838,4.41,-13.1862,6.292786020081341,14.552918140409538,160.60014948499114,20.5959914876358
0.2422,0.9185,0.1014,-0.4589,0.1306,-0.129,-3.2025,3.7538,-12.9587,6.299774335705272,14.603011079047597,160.869095366525,20.60814882268397
0.2508,0.9188,0.1026,-0.4589,0.1306,-0.129,-3.675,3.8413,-12.915,6.371472589335096,14.797282670172978,160.76974310886519,20.62035818324092
0.2542,0.9211,0.0967,-0.4591,0.1313,-0.1311,-3.395,3.29,-13.0025,5.994196677646372,15.08079359309965,160.6945935498752,20.63256683596782
0.2547,0.9237,0.0994,-0.4591,0.1313,-0.1311,-3.6138,3.2025,-12.985,6.141589884020615,15.21474089031325,160.6643121777631,20.64478398265533
0.2525,0.9232,0.0966,-0.4586,0.133,-0.1328,-3.2638,3.0013,-13.4225,5.9739363845905205,15.21626873695811,160.45268526208883,20.65692822284755
0.2519,0.9203,0.0952,-0.4614,0.1325,-0.1311,-4.1213,1.4,-13.4663,5.906119160714352,15.226762177291302,160.6845976589151,20.669091574451155
0.254,0.9171,0.0981,-0.4614,0.1325,-0.1311,-5.075,0.6913,-12.705,6.105016641309094,15.360446872526875,160.61114222695275,20.677940865754014
0.2515,0.9109,0.1035,-0.4598,0.1295,-0.1299,-5.0662,0.175,-12.3638,6.4813084518696735,15.344628334818509,160.8657145189386,20.690112357403212
0.26,0.9109,0.0983,-0.4598,0.1295,-0.1299,-4.9437,-0.0263,-12.0837,6.160156491920386,15.750423980553204,160.8484932390341,20.702345784181908
0.2618,0.9135,0.0964,-0.4654,0.133,-0.132,-4.095,0.42,-11.2087,6.024405464041535,15.876007860291848,160.6216053294166,20.714522230641467
0.2662,0.9166,0.0987,-0.4654,0.133,-0.1306,-3.4825,-0.0963,-10.7975,6.145620395815991,16.063926353785813,160.59363341477686,20.726753180014985
0.268,0.9144,0.0939,-0.4627,0.1298,-0.1306,-3.78,-0.1575,-10.57,5.863958417776158,16.21975720725228,160.906099207696,20.7389965164144
0.2687,0.9144,0.1008,-0.4613,0.1321,-0.1304,-4.1912,-0.0088,-11.2,6.289475530112883,16.27060659048574,160.4728426097472,20.75128940091742
0.2721,0.9114,0.0922,-0.4613,0.1321,-0.1304,-4.6988,-0.1138,-12.39,5.778002091614403,16.493403278130778,160.53704125272716,20.763424793233995
0.2747,0.9095,0.0929,-0.4633,0.1328,-0.1298,-4.3137,-0.4987,-13.02,5.832043180132875,16.684570703597753,160.50474710157977,20.775567971681134
0.2774,0.9084,0.1009,-0.4633,0.1321,-0.1298,-4.585,0.0,-13.055,6.336695835652909,16.846196063467207,160.45063973160984,20.784248445516727
0.2766,0.9103,0.0963,-0.4638,0.1321,-0.1298,-4.7425,0.0,-13.3437,6.039655349589435,16.81938790517515,160.54942045490338,20.796334997559754
0.2789,0.9143,0.1039,-0.4636,0.1302,-0.1286,-4.9788,-0.105,-13.2737,6.481969122102939,16.853866496599483,160.6994934442305,20.808531971090805
0.2727,0.9117,0.1022,-0.4636,0.1302,-0.1286,-5.1013,-0.28,-14.3413,6.396297667360267,16.607712923396406,160.77434591968085,20.82079583456171
0.2675,0.9102,0.1061,-0.4636,0.1318,-0.1279,-5.495,-0.6737,-14.91,6.64812572371507,16.328807769066714,160.59589209982994,20.833053681477185
0.2703,0.9023,0.1066,-0.4636,0.1325,-0.1249,-5.145,-1.155,-15.0937,6.737583790634965,16.530966342747288,160.51971192446166,20.845313297967785
0.2714,0.9054,0.1054,-0.4644,0.1325,-0.1249,-4.8738,-1.6275,-15.6975,6.640338827656551,16.573578130506146,160.57036055861334,20.85759733459516
0.2743,0.9082,0.1041,-0.4645,0.1319,-0.127,-4.4625,-1.3125,-15.68,6.539123543969639,16.683125111959384,160.5902148952288,20.86990543744428
0.2769,0.911,0.1059,-0.4645,0.1319,-0.127,-4.8913,-1.5487,-15.995,6.630381707159033,16.783099533000296,160.55340782699017,20.882109135360817
0.2713,0.9116,0.1135,-0.4638,0.1308,-0.129,-5.4425,-1.19,-15.715,7.095854351856759,16.503768383958647,160.56903894797645,20.89435530308044
0.2679,0.9099,0.1112,-0.4646,0.1311,-0.1304,-4.9088,-0.8575,-15.8112,6.967996184146936,16.325425448528485,160.5847537950428,20.903228306690018
0.2637,0.9062,0.1047,-0.4646,0.1311,-0.1304,-4.83,-1.5662,-16.0912,6.5916429563118895,16.152363627008537,160.69582303658672,20.915909082061216
0.2678,0.8976,0.1127,-0.4622,0.1312,-0.1274,-4.5763,-1.8288,-16.0125,7.154855540886298,16.443127025008994,160.47901909345902,20.92777125197794
0.2718,0.8946,0.113,-0.4622,0.1312,-0.1274,-3.9113,-2.2925,-15.2512,7.198977085195876,16.73094840937792,160.41838233248941,20.939958669803296
0.2771,0.898,0.1139,-0.4624,0.1311,-0.1223,-2.555,-1.2163,-13.1337,7.228566641068678,16.976418606643424,160.5319921477651,20.952177232150913
0.2807,0.901,0.1105,-0.4622,0.1317,-0.1281,-1.8112,-0.5688,-12.5475,6.9925838015066795,17.14807688343896,160.3048046087071,20.96437031261668
0.2797,0.9007,0.106,-0.4622,0.1317,-0.1281,-2.17,-0.56,-11.4537,6.712832656604654,17.14151067056036,160.37100187578451,20.976591706284502
0.2847,0.9025,0.1124,-0.4658,0.1321,-0.1278,-1.5925,-0.1225,-12.0487,7.098155470593212,17.338181026238047,160.35721142135492,20.988828672213458
0.2838,0.9002,0.1106,-0.4658,0.1321,-0.1278,-1.9687,0.315,-11.2613,7.004608779443688,17.3680475216323,160.37787432599114,21.00099910211758
0.2852,0.8981,0.1158,-0.4654,0.1309,-0.1276,-2.065,0.4812,-11.0862,7.346162535263683,17.458545049135505,160.42196409929957,21.013138741414462
0.2808,0.8999,0.1154,-0.4662,0.1314,-0.1326,-1.6887,0.6125,-10.6225,7.307633749550571,17.252430303781857,160.31342373498904,21.02201174502404
0.2799,0.899,0.1193,-0.4662,0.1314,-0.1326,-1.1462,1.1638,-10.3775,7.558457459674412,17.176231213802374,160.26837350413814,21.034236677842124
0.2765,0.8976,0.1188,-0.4658,0.1298,-0.129,-0.63,1.5837,-9.8175,7.539497868022953,17.033291019870283,160.58455493294366,21.04638410326957
0.2774,0.8935,0.1155,-0.4658,0.1298,-0.129,0.3325,1.2425,-9.7388,7.366085348016018,17.09415926848523,160.59639906389427,21.05853506784728
0.2816,0.8873,0.1047,-0.4663,0.1319,-0.126,0.7788,0.1575,-10.71,6.731450893547757,17.416896407572743,160.50709655367936,21.07070797515658
0.2831,0.8897,0.1034,-0.4663,0.1319,-0.126,1.4612,-0.2625,-11.445,6.629398124961803,17.51821272926281,160.5188293243517,21.082840182237923
0.2903,0.8968,0.1024,-0.4681,0.1338,-0.1313,2.2662,-0.7437,-12.4512,6.514353098654419,17.777727468194687,160.18724474127853,21.091754239990486
0.297,0.9046,0.0951,-0.4679,0.1335,-0.1311,3.4038,-1.1638,-13.7462,6.002829431090479,18.036167874128417,160.2804753655366,21.103875475706033
0.3038,0.908,0.0921,-0.4679,0.1335,-0.1311,2.59,-0.2187,-15.1462,5.792380865567679,18.343903509400672,160.26040923869795,21.116099346779038
0.3015,0.9072,0.0891,-0.4679,0.1319,-0.1311,2.7562,0.5163,-15.8812,5.609777546596653,18.310369996243175,160.51898512940298,21.12821173461894
0.2956,0.9058,0.0881,-0.4679,0.1319,-0.1311,1.9862,1.12,-16.765,5.55538400163276,18.068946821505744,160.59200983688248,21.140385349758294
