AcclX,AcclY,AcclZ,MagX,MagY,MagZ,GyroX,GyroY,GyroZ,Roll,Pitch,Yaw,Time Elapsed(s)
0.34,-0.0323,0.8492,-0.3168,0.1829,0.4692,-0.0263,1.4438,-2.9925,0,0,0,0.020549999999957436
0.34,-0.0323,0.8492,-0.3176,0.1842,0.4641,-0.6562,1.2513,-2.8875,0,0,0,0.020549999999957436
0.3315,-0.0344,0.8461,-0.3176,0.1842,0.4641,-0.6212,0.9187,-2.6425,0,0,0,0.020549999999957436
0.3399,-0.0306,0.8578,-0.3176,0.1842,0.4641,-0.6212,0.9187,-2.6425,0,0,0,0.020800000000008367
0.3399,-0.0306,0.8578,-0.3173,0.1847,0.4694,-0.9538,0.7,-2.6075,0,0,0,0.020800000000008367
0.3403,-0.039,0.8386,-0.3173,0.1847,0.4694,-0.9538,0.7,-2.6075,0,0,0,0.020800000000008367
0.3403,-0.039,0.8386,-0.3173,0.1847,0.4694,-0.8138,0.5688,-2.7738,0,0,0,0.020800000000008367
0.3371,-0.0365,0.8453,-0.3173,0.1847,0.4694,-0.8138,0.5688,-2.7738,0,0,0,0.020800000000008367
0.3386,-0.0339,0.8503,-0.3359,-0.0279,0.835,-0.3157,0.1848,0.4771,0,0,0,0.020800000000008367
0.3359,-0.0279,0.835,-0.3167,0.184,0.4633,-0.7,0.8662,-2.7037,0,0,0,0.020800000000008367
0.3313,-0.0314,0.8461,-0.3167,0.184,0.4633,-0.5512,0.875,-2.7037,0,0,0,0.021066666666683886
0.3313,-0.0357,0.8399,-0.3167,0.184,0.4633,-0.63,0.98,-2.8612,0,0,0,0.021066666666683886
0.3457,-0.0357,0.8399,-0.3167,0.184,0.4565,-0.63,0.98,-2.8612,0,0,0,0.021066666666683886
0.3352,-0.029,0.844,-0.317,0.1832,0.4565,-0.0613,1.1375,-2.7912,0,0,0,0.021066666666683886
0.3352,-0.029,0.844,-0.317,0.1832,0.4565,-0.0613,1.1375,-2.7912,0,0,0,0.021066666666683886
0.3404,-0.04,0.842,-0.317,0.1832,0.4565,-0.3237,1.0063,-2.4588,0,0,0,0.021066666666683886
0.3404,-0.04,0.8577,-0.3173,0.1845,0.4674,-0.3237,1.0063,-2.4588,0,0,0,0.021066666666683886
0.3361,-0.0359,0.8451,-0.3173,0.1845,0.4674,-0.3325,1.3212,-2.6163,0,0,0,0.021066666666683886
0.3412,-0.0317,0.8406,-0.3173,0.1845,0.4674,-0.3325,1.3212,-2.6163,0,0,0,0.021066666666683886
0.3412,-0.0317,0.8406,-0.3162,0.1826,0.4602,-0.7437,0.5337,-2.73,0,0,0,0.021066666666683886
0.3417,-0.042,0.8535,-0.3162,0.1826,0.4602,-0.3413,1.0588,-2.8437,0,0,0,0.021066666666683886
0.3417,-0.042,0.8535,-0.3162,0.1826,0.4602,-0.3413,1.0588,-2.8437,0,0,0,0.02131666666662113
0.3384,-0.03,0.8333,-0.3162,0.1826,0.4602,-0.455,1.0325,-2.9838,0,0,0,0.02131666666662113
0.3354,-0.0401,0.8456,-0.3171,0.1821,0.4653,-0.455,1.0325,-2.9838,0,0,0,0.02131666666662113
0.3354,-0.0401,0.8456,-0.3171,0.1821,0.4653,-0.6212,1.1638,-2.3712,0,0,0,0.02131666666662113
0.3417,-0.034,0.8392,-0.3171,0.1821,0.4653,-0.6212,1.1638,-2.3712,0,0,0,0.02131666666662113
0.3417,-0.034,0.8392,-0.3172,0.1838,0.4578,0.0088,0.8838,-2.7738,0,0,0,0.02131666666662113
0.3393,-0.0264,0.8515,-0.3172,0.1838,0.4578,0.0088,0.8838,-2.7738,0,0,0,0.02236666666669862
0.3343,-0.0384,0.8415,-0.3172,0.1838,0.4578,-0.7175,1.015,-2.7825,0,0,0,0.02236666666669862
0.3343,-0.0384,0.8415,-0.3173,0.1826,0.471,-0.3938,1.295,-2.9225,0,0,0,0.022616666666635865
0.3362,-0.0349,0.8391,-0.3173,0.1826,0.471,-0.3938,1.295,-2.9225,0,0,0,0.022616666666635865
0.3362,-0.0349,0.8391,-0.3173,0.1826,0.471,-0.4638,1.3825,-2.975,0,0,0,0.022616666666635865
0.3411,-0.0371,0.8385,-0.3173,0.1826,0.471,-0.4638,1.3825,-2.975,0,0,0,0.022616666666635865
0.3441,-0.0417,0.8512,-0.3172,0.1823,0.4626,-0.5163,1.0237,-2.4762,0,0,0,0.022616666666635865
0.3441,-0.0417,0.8512,-0.3172,0.1823,0.4626,-0.5163,1.0237,-2.4762,0,0,0,0.022616666666635865
0.3478,-0.0358,0.8493,-0.3172,0.1823,0.4626,-0.2887,0.77,-2.7387,0,0,0,0.022616666666635865
0.3478,-0.0358,0.8493,-0.3165,0.1824,0.4674,-0.2887,0.77,-2.7387,0,0,0,0.022616666666635865
0.3396,-0.0366,0.8367,-0.3165,0.1824,0.4674,-0.4725,1.0237,-2.7037,0,0,0,0.022616666666635865
0.3396,-0.0312,0.8457,-0.3165,0.1824,0.4674,-0.4725,1.4175,-2.4762,0,0,0,0.022616666666635865
0.3249,-0.0312,0.8457,-0.3165,0.183,0.4678,-0.3063,1.4175,-2.4762,0,0,0,0.022616666666635865
0.3361,-0.0312,0.8431,-0.3165,0.183,0.4678,-0.6562,0.525,-2.5287,0,0,0,0.022883333333311384
0.3361,-0.0312,0.8431,-0.3165,0.183,0.4678,-0.6562,0.525,-2.5287,0,0,0,0.022883333333311384
0.3427,-0.0354,0.8613,-0.3165,0.183,0.4678,-0.3588,0.805,-2.5025,0,0,0,0.022883333333311384
0.3427,-0.0354,0.8494,-0.3171,0.1842,0.4651,-0.3588,0.805,-2.5025,0,0,0,0.022883333333311384
0.3403,-0.0325,0.8494,-0.3171,0.1842,0.4651,-0.8838,1.1638,-2.835,0,0,0,0.022883333333311384
0.3414,-0.0387,0.8389,-0.3171,0.1842,0.4651,-0.8838,1.1638,-2.835,0,0,0,0.022883333333311384
0.3414,-0.0387,0.8389,-0.3165,0.1842,0.4655,-0.8838,0.98,-2.8525,0,0,0,0.022883333333311384
0.3365,-0.0356,0.8474,-0.3165,0.1842,0.4655,-0.8838,0.98,-2.8875,0,0,0,0.024450000000001637
0.3365,-0.0356,0.8474,-0.3165,0.1842,0.4655,-0.7788,0.63,-2.8875,0,0,0,0.024450000000001637
0.3433,-0.0335,0.8457,-0.3165,0.1842,0.4655,-0.5775,0.9275,-2.7213,0,0,0,0.024450000000001637
0.3382,-0.0367,0.8491,-0.3178,0.1829,0.4729,-0.5775,0.9275,-2.7213,0,0,0,0.024699999999938882
0.3382,-0.0367,0.8491,-0.3178,0.1829,0.4729,-0.49,1.155,-2.7387,0,0,0,0.024699999999938882
0.339,-0.0319,0.8444,-0.3178,0.1829,0.4729,-0.49,1.155,-2.7387,0,0,0,0.024699999999938882
0.339,-0.0319,0.8444,-0.3158,0.1834,0.4762,-0.3237,0.7962,-2.87,0,0,0,0.024699999999938882
0.3399,-0.034,0.8402,-0.3158,0.1834,0.4762,-0.3237,0.7962,-2.87,0,0,0,0.024699999999938882
0.3326,-0.0335,0.8427,-0.3158,0.1834,0.4762,-0.6913,0.7088,-2.7825,0,0,0,0.024699999999938882
0.3326,-0.0335,0.8427,-0.3174,0.1838,0.4557,-0.6913,0.7088,-2.7825,0,0,0,0.024699999999938882
0.3407,-0.0324,0.8469,-0.3174,0.1838,0.4557,-0.2275,0.9712,-2.5463,0,0,0,0.0249666666666144
0.3407,-0.0324,0.8469,-0.3174,0.1838,0.4557,-0.3063,1.1812,-2.6337,0,0,0,0.0249666666666144
0.3389,-0.0378,0.847,-0.3174,0.1838,0.4557,-0.3063,1.1812,-2.6337,0,0,0,0.0249666666666144
0.3376,-0.0356,0.8373,-0.3176,0.1843,0.4686,-0.7,1.0588,-2.8,0,0,0,0.0249666666666144
0.3376,-0.0356,0.8373,-0.3176,0.1843,0.4686,-0.7,1.0588,-2.8,0,0,0,0.0249666666666144
0.3409,-0.0382,0.8467,-0.3176,0.1843,0.4686,-0.3938,0.8575,-2.5988,0,0,0,0.0249666666666144
0.3409,-0.0382,0.8467,-0.3175,0.1834,0.471,-0.3938,0.8575,-2.5988,0,0,0,0.0249666666666144
0.3362,-0.0378,0.8506,-0.3175,0.1834,0.471,0.1138,1.3825,-2.6075,0,0,0,0.0249666666666144
0.3362,-0.0307,0.8372,-0.3175,0.1834,0.471,0.1138,1.3825,-2.6075,0,0,0,0.026266666666629135
0.3395,-0.0307,0.8372,-0.3175,0.1834,0.4588,-0.3413,1.3125,-2.695,0,0,0,0.026266666666629135
0.3378,-0.0326,0.8507,-0.317,0.1832,0.4588,-0.7175,1.05,-2.6075,0,0,0,0.026266666666629135
0.3378,-0.0326,0.8507,-0.317,0.1832,0.4588,-0.7175,1.05,-2.6075,0,0,0,0.026516666666680067
0.3392,-0.036,0.8475,-0.317,0.1832,0.4588,-0.8487,0.9712,-2.5463,0,0,0,0.026516666666680067
0.3392,-0.036,0.8475,-0.316,0.1829,0.4838,-0.8487,0.9712,-2.5463,0,0,0,0.026516666666680067
0.3366,-0.0338,0.8526,-0.316,0.1829,0.4838,-0.6562,1.085,-2.8525,0,0,0,0.026783333333355586
0.3384,-0.0317,0.8296,-0.316,0.1829,0.4838,-0.6562,1.085,-2.8525,0,0,0,0.026783333333355586
0.3384,-0.0317,0.8296,-0.3166,0.1818,0.4578,-0.2975,1.0675,-2.5025,0,0,0,0.026783333333355586
0.3342,-0.034,0.8365,-0.3166,0.1818,0.4578,-0.2975,1.0675,-2.5025,0,0,0,0.027050000000031105
0.3342,-0.034,0.8365,-0.3166,0.1818,0.4578,-0.4375,0.98,-2.1788,0,0,0,0.027050000000031105
0.3378,-0.0386,0.8422,-0.3166,0.1818,0.4578,-0.4375,0.98,-2.87,0,0,0,0.027050000000031105
0.3401,-0.034,0.8547,-0.3172,0.1842,0.463,-1.085,0.91,-2.87,0,0,0,0.027050000000031105
0.3401,-0.034,0.8547,-0.3172,0.1842,0.463,-0.9013,0.7262,-2.6163,0,0,0,0.02729999999996835
0.3387,-0.0371,0.8431,-0.3172,0.1842,0.463,-0.9013,0.7262,-2.6163,0,0,0,0.02729999999996835
0.3387,-0.0371,0.8431,-0.3178,0.1837,0.4764,-0.6037,0.9187,-2.66,0,0,0,0.02729999999996835
0.3387,-0.0343,0.8571,-0.3178,0.1837,0.4764,-0.6037,0.9187,-2.66,0,0,0,0.02756666666664387
0.3433,-0.0337,0.8407,-0.3178,0.1837,0.4764,-0.5163,1.0938,-2.3712,0,0,0,0.02756666666664387
0.3433,-0.0337,0.8407,-0.3175,0.1833,0.4739,-0.5163,1.0938,-2.3712,0,0,0,0.02756666666664387
0.3436,-0.0365,0.8478,-0.3175,0.1833,0.4739,0.0,1.3388,-2.5638,0,0,0,0.028083333333256633
0.3436,-0.0365,0.8478,-0.3175,0.1833,0.4739,0.0,1.3388,-2.5638,0,0,0,0.028083333333256633
0.3379,-0.0346,0.8378,-0.3175,0.1833,0.4739,-0.9363,1.225,-2.4938,0,0,0,0.02834999999993215
0.3369,-0.035,0.8437,-0.3154,0.1841,0.4669,-0.3237,0.9275,-2.6337,0,0,0,0.02834999999993215
0.3369,-0.035,0.8437,-0.3154,0.1841,0.4669,-0.3237,0.9275,-2.6337,0,0,0,0.02834999999993215
0.3376,-0.0372,0.8396,-0.3154,0.1841,0.4669,-0.3413,1.505,-2.695,0,0,0,0.02834999999993215
0.3376,-0.0372,0.8396,-0.3162,0.1824,0.4667,-0.3413,1.505,-2.695,0,0,0,0.028599999999983083
0.3374,-0.0346,0.8422,-0.3162,0.1824,0.4667,-1.0063,0.9975,-2.765,0,0,0,0.028599999999983083
0.3374,-0.0382,0.835,-0.3162,0.1824,0.4667,-1.0063,0.9975,-2.765,0,0,0,0.028599999999983083
0.3419,-0.0382,0.835,-0.3162,0.1824,0.4681,-0.9187,1.0237,-2.765,0,0,0,0.028599999999983083
0.3355,-0.0354,0.8358,-0.3178,0.1833,0.4681,-0.9187,1.0237,-2.765,0,0,0,0.028599999999983083
0.3355,-0.0354,0.8358,-0.3178,0.1833,0.4681,-0.7437,0.735,-2.4938,0,0,0,0.028599999999983083
0.3425,-0.0355,0.8543,-0.3178,0.1833,0.4681,-0.735,0.9187,-2.555,0,0,0,0.028599999999983083
0.3425,-0.0355,0.8543,-0.3171,0.1837,0.4675,-0.735,0.9187,-2.555,0,0,0,0.028866666666658602
0.3429,-0.0371,0.8475,-0.3171,0.1837,0.4675,-0.42,0.805,-2.6775,0,0,0,0.028866666666658602
0.3444,-0.0325,0.8441,-0.3171,0.1837,0.4675,-0.42,0.805,-2.6775,0,0,0,0.028866666666658602
0.3444,-0.0325,0.8441,-0.3182,0.1822,0.4687,-0.7,0.945,-2.4325,15.913483274280296,1.1735815876732167,0.1999192064909326,0.041600000000016735
0.3387,-0.0365,0.8447,-0.3182,0.1822,0.4687,-0.7,0.945,-2.4325,29.126965809054628,2.2665436962299994,0.39748401444423076,0.041600000000016735
0.3387,-0.0365,0.8447,-0.3182,0.1822,0.4687,-0.5425,0.8313,-2.345,32.20595240551055,4.719690554063099,6.164779079902536,0.041600000000016735
0.3395,-0.0374,0.8411,-0.3182,0.1822,0.4687,-0.5425,0.8313,-2.345,35.13877345987603,6.881586039314859,11.389840141520164,0.041866666666692254
0.3347,-0.0346,0.8487,-0.3161,0.1824,0.4622,-1.05,0.7262,-2.7125,55.63737679618965,9.559349541530189,19.582811119554673,0.041866666666692254
0.3347,-0.0346,0.8487,-0.3161,0.1824,0.4622,-1.05,0.8225,-2.2838,68.78941141747097,11.588263492986254,23.63075848312957,0.041866666666692254
0.3458,-0.0373,0.8483,-0.3161,0.1824,0.4622,-0.8575,0.8225,-2.2838,75.148180575055,13.38333136939996,27.396456882864918,0.0421166666666295
0.3458,-0.0373,0.8483,-0.3164,0.1841,0.4562,-0.8662,0.9712,-2.66,79.88337166933675,14.668804675018915,28.295469428951,0.0421166666666295
0.3341,-0.0361,0.8371,-0.3164,0.1841,0.4562,-0.8662,0.9712,-2.66,83.31450098811419,15.704591350744675,29.14483552254201,0.0421166666666295
0.3429,-0.0328,0.8449,-0.3164,0.1841,0.4562,-0.84,1.12,-2.6862,85.61724722251712,16.756663326146892,33.55791990459042,0.0421166666666295
0.3429,-0.0328,0.8449,-0.3175,0.1827,0.4673,-0.84,1.12,-2.6862,87.32477111743756,17.634974592224616,37.38378962778874,0.0421166666666295
0.3307,-0.0318,0.8434,-0.3175,0.1827,0.4673,-0.84,0.84,-2.9137,88.57441475449036,18.757449401887133,39.23449510253773,0.0421166666666295
0.3307,-0.0318,0.8434,-0.3175,0.1827,0.4673,-0.84,0.84,-2.9137,89.50104589539683,19.544965887248484,40.9145155408187,0.0421166666666295
0.3376,-0.0344,0.8453,-0.3175,0.1827,0.4673,-0.595,1.2337,-2.905,89.7666225598549,20.194851227777658,44.83983724532091,0.04238333333330502
0.3351,-0.0347,0.8513,-0.3168,0.1845,0.4782,-0.595,1.2337,-2.905,90.00762303647232,20.56988815561083,48.03095369840254,0.04238333333330502
0.3351,-0.0347,0.8513,-0.3168,0.1845,0.4782,-0.1925,0.8575,-2.3975,90.54301527953706,20.64486789125604,48.87841328455229,0.04238333333330502
0.3366,-0.0335,0.8488,-0.3168,0.1845,0.4782,-0.5163,0.8925,-2.3537,90.58471347385402,20.76012602624762,49.36110520385051,0.04238333333330502
0.3366,-0.0335,0.8488,-0.3172,0.184,0.4706,-0.5163,0.8925,-2.3537,90.62539908468855,20.861705025328025,49.785929288311614,0.04238333333330502
0.3362,-0.0349,0.8492,-0.3172,0.184,0.4706,-0.6475,0.7262,-2.4675,90.85870183588588,20.8764303142676,51.320054955603155,0.04238333333330502
0.3362,-0.0349,0.8402,-0.3172,0.184,0.4706,-0.6475,0.7262,-2.4675,91.06390512466865,20.895131679934654,52.658412554751735,0.04238333333330502
0.337,-0.0357,0.8402,-0.3172,0.184,0.4642,-0.3762,0.9887,-2.9225,91.20534848042995,21.180439118846245,52.92028934966856,0.04264999999998054
0.3392,-0.0331,0.8464,-0.3165,0.1834,0.4642,-0.3762,0.9887,-2.9225,91.31218757741244,21.37514459636155,53.16544539428485,0.04264999999998054
0.3392,-0.0331,0.8464,-0.3165,0.1834,0.4642,-0.7175,0.91,-2.8175,91.48318452698457,21.486204768490666,53.324860626869075,0.04264999999998054
0.3409,-0.0379,0.8569,-0.3165,0.1834,0.4642,-0.7175,0.91,-2.8175,91.6766752917284,21.532929910038746,53.477199768753245,0.04264999999998054
0.3409,-0.0379,0.8569,-0.317,0.1824,0.469,-0.6913,1.085,-2.59,91.81924548609611,21.546027220566323,54.10336344661877,0.04264999999998054
0.3373,-0.0305,0.833,-0.317,0.1824,0.469,-0.3413,1.3825,-2.45,91.85548845084892,21.563936807256777,55.55551477066406,0.04264999999998054
0.3349,-0.0364,0.8474,-0.317,0.1824,0.469,-0.3413,1.3825,-2.45,91.93433985245603,21.563286133198712,56.35394951024359,0.04264999999998054
0.3349,-0.0364,0.8474,-0.3173,0.1831,0.475,-0.2362,1.1638,-2.5988,92.04114151533224,21.561599417515325,56.776345241964215,0.04264999999998054
0.3345,-0.0365,0.8324,-0.3173,0.1831,0.475,-0.2362,1.1638,-2.5988,92.13662533410904,21.5926383531792,57.247243032602725,0.04264999999998054
0.3345,-0.0365,0.8324,-0.3173,0.1831,0.475,-0.245,1.2513,-2.66,92.21059078703823,21.63381145656472,57.748371788949996,0.04264999999998054
0.334,-0.0364,0.8383,-0.3173,0.1831,0.475,-0.245,1.2513,-2.66,92.2650957696929,21.64424649915322,58.04714852735091,0.04264999999998054
0.3423,-0.0354,0.8463,-0.3175,0.1833,0.4602,-0.3413,1.1812,-2.87,92.28208170575789,21.743694891158775,58.096852071368005,0.04290000000003147
0.3423,-0.0354,0.8463,-0.3175,0.1833,0.4602,-0.3413,1.1812,-2.87,92.29685064657843,21.815673664138288,58.13694841190371,0.04290000000003147
0.3336,-0.0315,0.8413,-0.3175,0.1833,0.4602,-0.3413,1.2337,-2.73,92.27693590522908,21.776819459698867,57.96434201375636,0.04290000000003147
0.3336,-0.0315,0.8413,-0.3165,0.184,0.4783,-0.3413,0.9712,-2.9575,92.25962042521552,21.72547255009883,57.997308653035184,0.04290000000003147
0.3454,-0.0387,0.8453,-0.3165,0.184,0.4783,-0.7088,0.9712,-2.9575,92.32420832125484,21.87845011411832,58.073688314802745,0.04290000000003147
0.3357,-0.0349,0.8482,-0.3165,0.184,0.4783,-0.2975,1.3212,-3.2987,92.32939792164463,21.743094093020275,58.38073076278844,0.04290000000003147
0.3357,-0.0349,0.8482,-0.3166,0.1813,0.4597,-0.2975,1.3212,-3.2987,92.33374464099226,21.668325599289535,58.09315851880667,0.04290000000003147
0.3404,-0.0357,0.8533,-0.3166,0.1813,0.4597,-0.0613,0.9887,-2.7562,92.35238372111813,21.6815444551382,58.07371547194298,0.04290000000003147
0.3404,-0.0357,0.8533,-0.3166,0.1813,0.4597,-0.0613,0.9887,-2.7562,92.36541702209446,21.691970777056017,58.05514705330252,0.04290000000003147
0.3376,-0.0335,0.8434,-0.3166,0.1813,0.4597,-0.2275,0.7875,-2.4237,92.34645453522637,21.698525318271667,58.007951737189494,0.04290000000003147
0.3325,-0.0328,0.8443,-0.3165,0.1826,0.4657,-0.2275,0.7875,-2.4237,92.32104207799003,21.685292484958918,57.96872203303262,0.04290000000003147
0.3325,-0.0328,0.8443,-0.3165,0.1826,0.4657,-0.1488,1.3038,-2.8087,92.29647013107024,21.635644249640205,57.901031012790696,0.0431666666665933
0.3354,-0.0324,0.8416,-0.3165,0.1826,0.4657,-0.1488,1.3038,-2.7387,92.27304933969877,21.65133431115214,57.96787557072969,0.0431666666665933
0.3354,-0.0324,0.8416,-0.3175,0.1833,0.4622,-0.6212,1.26,-2.7387,92.26519632196951,21.663882997313795,57.91931986344116,0.0431666666665933
0.3336,-0.0366,0.8417,-0.3175,0.1833,0.4622,-0.6475,1.1463,-2.5988,92.29552747503934,21.657719640709658,57.893378146799556,0.0431666666665933
0.3336,-0.0366,0.8394,-0.3175,0.1833,0.4622,-0.6475,1.1463,-2.5988,92.3226834432087,21.6575015404998,57.89000864731524,0.0431666666665933
0.3362,-0.0323,0.8394,-0.3175,0.1833,0.4629,-0.4462,0.98,-3.0538,92.31753435600744,21.713548170483254,57.894553696536455,0.0431666666665933
0.3376,-0.0325,0.8569,-0.317,0.1828,0.4629,-0.4462,0.98,-3.0538,92.31124079146089,21.632558143081308,57.87619364687776,0.0431666666665933
0.3376,-0.0325,0.8569,-0.317,0.1828,0.4629,-0.56,1.0762,-2.765,92.30230607411242,21.601520464024084,57.81947582934438,0.0431666666665933
0.336,-0.0353,0.8373,-0.317,0.1828,0.4629,-0.56,1.0762,-2.765,92.30948302345911,21.654824802454346,57.87292176994597,0.0431666666665933
0.336,-0.0353,0.8373,-0.3171,0.1833,0.4605,-0.28,1.3475,-2.5638,92.3277442315452,21.668340677230614,57.943518836258704,0.0431666666665933
0.342,-0.0334,0.8522,-0.3171,0.1833,0.4605,-0.28,1.3475,-2.5638,92.31320383509487,21.681160104436,57.95952780712484,0.0431666666665933
0.3394,-0.0329,0.8405,-0.3171,0.1833,0.4605,-0.5775,1.0237,-2.5025,92.30752863003946,21.685241560789294,57.980359227813544,0.0431666666665933
0.3394,-0.0329,0.8405,-0.3176,0.1834,0.4693,-0.35,0.8313,-2.6775,92.29936124989293,21.731167715613374,58.06926400222423,0.04341666666664423
0.337,-0.0318,0.853,-0.3176,0.1834,0.4693,-0.35,0.8313,-2.6775,92.27899925554809,21.70143052286403,58.05714268904968,0.04341666666664423
0.337,-0.0318,0.853,-0.3176,0.1834,0.4693,-0.49,0.6388,-2.8263,92.2787962275402,21.66171811472554,58.03160034266223,0.04341666666664423
0.3377,-0.0342,0.8472,-0.3176,0.1834,0.4693,-0.49,0.6388,-2.8263,92.27884258895737,21.675565306624527,58.12166855597365,0.04341666666664423
0.3325,-0.0393,0.8304,-0.3174,0.1826,0.4606,-0.98,0.8138,-2.7912,92.42022423638788,21.704378029834313,58.119989795604106,0.04341666666664423
0.3325,-0.0393,0.8304,-0.3174,0.1826,0.4606,-0.98,0.8138,-2.7912,92.51520125315177,21.726493434478634,58.11850126498243,0.04341666666664423
0.3422,-0.0325,0.8414,-0.3174,0.1826,0.4606,-0.5775,1.0938,-2.8525,92.49116923563692,21.830687196275875,58.14954808891201,0.04341666666664423
0.3422,-0.0325,0.8414,-0.3173,0.1854,0.4603,-0.5775,1.0938,-2.8525,92.46904209905605,21.907068025004147,58.22140597468733,0.04341666666664423
0.3439,-0.0389,0.8448,-0.3173,0.1854,0.4603,-0.5688,1.2337,-2.7912,92.48106345574104,21.95865584963192,58.40075995495291,0.04341666666664423
0.3389,-0.0368,0.8492,-0.3173,0.1854,0.4603,-0.8225,1.12,-2.4938,92.48113587172465,21.957460530329058,58.36445229985703,0.04341666666664423
0.3389,-0.0368,0.8492,-0.3167,0.1836,0.4627,-0.8225,1.12,-2.4938,92.48119027532802,21.956271672468663,58.3466391593966,0.04341666666664423
0.3423,-0.035,0.8571,-0.3167,0.1836,0.4627,-0.3237,0.9363,-2.4237,92.46068144571188,21.94397699969783,58.34572417339576,0.04368333333331975
0.3423,-0.035,0.8571,-0.3167,0.1836,0.4627,-0.3237,0.9363,-2.4237,92.44311818557912,21.93242907357005,58.34481400853816,0.04368333333331975
0.3351,-0.0349,0.8419,-0.3167,0.1836,0.4627,-0.6212,0.9975,-2.975,92.4351517993801,21.852109567389356,58.330307098020256,0.04368333333331975
0.3408,-0.0354,0.8456,-0.316,0.1827,0.4621,-0.6212,0.9975,-2.975,92.43079395163203,21.87871927387329,58.34125516335256,0.04368333333331975
0.3408,-0.0354,0.8456,-0.316,0.1827,0.4621,-0.1838,0.8225,-2.6862,92.42289513760315,21.887750420043304,58.36209696969234,0.04368333333331975
0.3425,-0.037,0.85,-0.316,0.1827,0.4621,-0.1838,0.8225,-2.6862,92.43926433521098,21.89435546879451,58.386919748940166,0.04368333333331975
0.3425,-0.037,0.85,-0.317,0.1842,0.474,-0.455,0.9363,-2.45,92.44113388148658,21.895589022498452,58.39314098954988,0.04368333333331975
0.3465,-0.0341,0.8536,-0.317,0.1842,0.474,-0.455,0.9363,-2.5988,92.43574197043597,21.913699027792077,58.40014440841355,0.04368333333331975
0.3465,-0.0341,0.8276,-0.317,0.1842,0.474,-0.4462,0.7875,-2.5988,92.43244190005711,21.991978310844967,58.75404221472708,0.04368333333331975
0.3346,-0.0326,0.8276,-0.317,0.1842,0.474,-0.28,1.2075,-2.7037,92.4016100654856,21.993068546695426,58.91877530314374,0.04368333333331975
0.3381,-0.0369,0.8411,-0.3161,0.1835,0.4717,-0.28,1.2075,-2.7037,92.42087835559161,21.972994015293626,59.01684175502344,0.04368333333331975
0.3381,-0.0369,0.8411,-0.3161,0.1835,0.4717,-0.6562,0.9625,-2.7037,92.43377249130113,21.95647632148756,59.02439304878878,0.04394999999999527
0.339,-0.0331,0.8371,-0.3161,0.1835,0.4717,-0.6562,0.9625,-2.7037,92.40980611071092,21.96965948465701,59.034322391226965,0.04394999999999527
0.339,-0.0331,0.8371,-0.316,0.1832,0.4507,-0.7175,1.0325,-2.6513,92.38298771843192,21.978237048245887,58.92769188012666,0.04394999999999527
0.3409,-0.0365,0.8543,-0.316,0.1832,0.4507,-0.7175,1.0325,-2.6513,92.39469490641167,21.944298723552517,58.795127755943994,0.04394999999999527
0.338,-0.0367,0.8442,-0.316,0.1832,0.4507,-0.5425,1.05,-2.6425,92.39929115273763,21.92522409155184,58.667408306478926,0.04394999999999527
0.338,-0.0367,0.8442,-0.317,0.1842,0.4619,-0.5425,1.05,-2.6425,92.40366399908916,21.908696881129593,58.634114472443734,0.04394999999999527
0.3403,-0.0326,0.8491,-0.317,0.1842,0.4619,-0.805,0.9887,-2.9488,92.35473631078109,21.8823803128374,58.61277794053137,0.04394999999999527
0.3403,-0.0326,0.8491,-0.317,0.1842,0.4619,-0.9975,0.9712,-2.9225,92.30230738574826,21.865078337354547,58.59975403650721,0.04394999999999527
0.3326,-0.0366,0.8569,-0.317,0.1842,0.4619,-0.9975,0.9712,-2.9225,92.35050364812076,21.662471836501737,58.55812033662922,0.04394999999999527
0.3401,-0.0379,0.8353,-0.317,0.1834,0.4577,-0.77,0.5337,-3.185,92.4044070712532,21.855905287780363,58.56986990903079,0.04394999999999527
0.3401,-0.0379,0.8353,-0.317,0.1834,0.4577,-0.77,0.5337,-3.185,92.4465656267319,21.96991534373148,58.57821538629339,0.04394999999999527
0.3412,-0.0362,0.8481,-0.317,0.1834,0.4577,-0.4638,0.8313,-2.5375,92.44649962175771,21.96651998778002,58.5245957763294,0.04394999999999527
0.3412,-0.0362,0.8481,-0.3168,0.1839,0.48,-0.4638,0.8313,-2.5375,92.44643539034139,21.963283649318846,58.668629128380154,0.044199999999932515
0.3396,-0.032,0.8394,-0.3168,0.1839,0.48,0.0263,1.2862,-2.3888,92.35664202358518,21.96774462312793,59.01535859598709,0.044199999999932515
0.3343,-0.0344,0.8419,-0.3168,0.1839,0.48,0.0263,1.2862,-2.3888,92.35089755845057,21.938117652403324,59.10781089784245,0.044199999999932515
0.3343,-0.0344,0.8419,-0.3164,0.1835,0.4664,-0.49,1.085,-2.4762,92.35088191317303,21.93454129142276,59.00631115819784,0.044199999999932515
0.3381,-0.036,0.8456,-0.3164,0.1835,0.4664,-0.6212,0.9625,-2.3975,92.3608668460157,21.921281582476578,58.998669471213546,0.044199999999932515
0.3381,-0.036,0.8456,-0.3164,0.1835,0.4664,-0.6212,0.9625,-2.3975,92.36970472785076,21.909126358002258,58.99118424785316,0.044199999999932515
0.3378,-0.0368,0.8528,-0.3164,0.1835,0.4664,-0.7613,0.9275,-2.5463,92.39121013430307,21.89168424766453,58.98156603152369,0.044199999999932515
0.3412,-0.0342,0.8466,-0.3169,0.1841,0.459,-0.7613,0.9275,-2.5463,92.37465473577778,21.89402455369741,58.971049561806836,0.044199999999932515
0.3412,-0.0342,0.8466,-0.3169,0.1841,0.459,-0.5688,1.085,-2.7475,92.37024860327172,21.902338082763997,58.87748698259437,0.044199999999932515
0.3342,-0.0354,0.8446,-0.3169,0.1841,0.459,-0.5688,1.085,-2.7475,92.37238937836673,21.83415276098516,58.71713936925241,0.044199999999932515
0.3342,-0.0354,0.8446,-0.3174,0.1828,0.4737,-0.5512,1.26,-2.625,92.37394998140785,21.802522282937677,58.66958740631129,0.044199999999932515
0.3416,-0.034,0.8479,-0.3174,0.1828,0.4737,-0.5512,1.26,-2.625,92.36956806408618,21.817540699135982,58.7863811020577,0.044466666666608035
0.3416,-0.034,0.8505,-0.3174,0.1828,0.4737,-0.4812,0.665,-2.66,92.3687562974276,21.824764346038627,58.83831972176486,0.044466666666608035
0.3388,-0.0348,0.8505,-0.3174,0.1828,0.4532,-0.4812,0.7175,-2.52,92.3684966462406,21.821048468594487,58.517826286751266,0.044466666666608035
0.3374,-0.0361,0.8381,-0.3158,0.1834,0.4621,-0.3325,0.7175,-2.52,92.38192296516196,21.82378242725787,58.544994158461634,0.044466666666608035
0.3374,-0.0361,0.8381,-0.3158,0.1834,0.4621,-0.4988,0.9013,-2.87,92.38254259222651,21.847653886946812,58.549690232597314,0.044466666666608035
0.3324,-0.0342,0.8489,-0.3158,0.1834,0.4621,-0.4988,0.9013,-2.87,92.38198895884015,21.715117266327432,58.5093742671914,0.044466666666608035
0.3324,-0.0342,0.8489,-0.3166,0.1823,0.4693,-0.4462,1.0063,-2.4588,92.37874746861029,21.7051445880538,58.465593957431864,0.044466666666608035
0.3415,-0.0363,0.8545,-0.3166,0.1823,0.4693,-0.4462,1.0063,-2.4588,92.3810734030802,21.706899934376978,58.47761877730484,0.044466666666608035
0.3392,-0.0341,0.8458,-0.3166,0.1823,0.4693,-0.7175,0.6913,-2.59,92.36773445603234,21.71887614113091,58.52423436094429,0.044466666666608035
0.3392,-0.0341,0.8458,-0.3165,0.1844,0.4574,-0.7175,0.6913,-2.59,92.35685518223805,21.72974744310837,58.42296548665439,0.044466666666608035
0.3357,-0.0348,0.8318,-0.3165,0.1844,0.4574,-0.6475,0.9538,-2.765,92.36209778780301,21.7798064748172,58.421690526622776,0.044466666666608035
0.3357,-0.0348,0.8318,-0.3165,0.1844,0.4574,-0.6475,0.9538,-2.835,92.36663256851602,21.8263862976259,58.42043093735896,0.044466666666608035
0.336,-0.0359,0.8397,-0.3165,0.1844,0.4574,-0.6388,1.1988,-2.835,92.37709703424127,21.817130591714434,58.340941378438636,0.044716666666658966
0.3346,-0.032,0.8575,-0.3175,0.183,0.4758,-0.7,0.63,-2.87,92.33568670865775,21.67496138756383,58.25048718594593,0.044716666666658966
0.3346,-0.032,0.8575,-0.3175,0.183,0.4758,-0.7,0.63,-2.87,92.30142331568716,21.57206213837674,58.18152225808113,0.044716666666658966
0.3381,-0.0362,0.8401,-0.3175,0.183,0.4758,-0.3237,0.6737,-2.6513,92.32525516457041,21.61857204450394,58.44139004866678,0.044716666666658966
0.3381,-0.0362,0.8401,-0.3168,0.183,0.4736,-0.3237,0.6737,-2.6513,92.34566417713796,21.658565600573016,58.636356697071456,0.044716666666658966
0.3339,-0.032,0.8491,-0.3168,0.183,0.4736,-0.385,0.9187,-2.6862,92.32764226402892,21.624595792546856,58.627330210332545,0.044716666666658966
0.3368,-0.0354,0.8472,-0.3168,0.183,0.4736,-0.385,0.9187,-2.6862,92.33389889959113,21.630920441126058,58.631824456041485,0.044716666666658966
0.3368,-0.0354,0.8472,-0.3162,0.183,0.4643,-0.9187,0.875,-2.8525,92.35150079089662,21.639454160256484,58.60411084578722,0.044716666666658966
0.3462,-0.0376,0.8528,-0.3162,0.183,0.4643,-0.9187,0.875,-2.8525,92.4033033791331,21.755889043833424,58.63425824067919,0.044716666666658966
0.3462,-0.0376,0.8528,-0.3162,0.183,0.4643,-0.35,1.0762,-2.6337,92.41832354032434,21.796464029143632,58.68796215430283,0.044716666666658966
0.3344,-0.0366,0.8381,-0.3162,0.183,0.4643,-0.455,1.3038,-2.3712,92.42121167024459,21.789819308234893,58.61224819573152,0.044716666666658966
0.3344,-0.0365,0.8398,-0.3168,0.183,0.4598,-0.455,1.3038,-2.3712,92.42358148052516,21.779704956395157,58.407325420240475,0.044983333333334485
0.3368,-0.0365,0.8398,-0.3168,0.183,0.4598,-0.735,1.0325,-2.4413,92.43632966713352,21.78216688391051,58.38254777206797,0.044983333333334485
0.344,-0.0346,0.8484,-0.3168,0.183,0.4598,-0.735,1.0325,-2.4413,92.4165560417799,21.79440637729468,58.38576214918579,0.044983333333334485
0.344,-0.0346,0.8484,-0.3179,0.1842,0.4636,-0.2887,1.1025,-2.59,92.40287408462277,21.818398625462365,58.42540472663371,0.044983333333334485
0.3368,-0.0362,0.8454,-0.3179,0.1842,0.4636,-0.2887,1.1025,-2.59,92.41113812983019,21.80783233955742,58.37760084472351,0.044983333333334485
0.3368,-0.0362,0.8416,-0.3179,0.1842,0.4636,-0.2362,0.5425,-2.625,92.42167521926996,21.805993933609876,58.34357488158578,0.044983333333334485
0.3426,-0.0339,0.8416,-0.3179,0.1842,0.4636,-0.2362,0.5425,-2.625,92.39828828033892,21.845438869477046,58.47564281657331,0.044983333333334485
0.3383,-0.0332,0.8431,-0.3177,0.1836,0.4638,-1.0063,0.8138,-2.31,92.34960568652917,21.845848566274874,58.44355309887494,0.044983333333334485
0.3383,-0.0332,0.8431,-0.3177,0.1836,0.4638,-0.525,1.1025,-2.7387,92.34653314596554,21.846308450080688,58.408750358196905,0.044983333333334485
0.3373,-0.0345,0.8434,-0.3177,0.1836,0.4638,-0.525,1.1025,-2.7387,92.34639971188544,21.83331019906448,58.3698784117309,0.044983333333334485
0.3373,-0.0345,0.8434,-0.3177,0.1833,0.472,-0.8225,0.8925,-3.0625,92.34541157003396,21.814372143196998,58.38806711604666,0.044983333333334485
0.3392,-0.0376,0.8505,-0.3177,0.1833,0.472,-0.8225,0.8925,-3.0625,92.39166277362622,21.781436298003158,58.40666069387064,0.044983333333334485
0.3371,-0.0374,0.8487,-0.3177,0.1833,0.472,-0.735,1.295,-2.7475,92.41743614867909,21.753090248913445,58.46280689963069,0.045250000000010004
0.3371,-0.0374,0.8487,-0.3158,0.1822,0.461,-0.735,1.295,-2.7475,92.43816115973807,21.730577929670698,58.33116901707734,0.045250000000010004
0.3364,-0.0329,0.8356,-0.3158,0.1822,0.461,-0.4112,1.33,-2.5812,92.42454082990109,21.746125893064246,58.31672681200841,0.045250000000010004
0.3364,-0.0329,0.8356,-0.3158,0.1822,0.461,-0.4112,1.33,-2.5812,92.41193188847387,21.760353075935907,58.30632478531377,0.045250000000010004
0.3403,-0.0333,0.8531,-0.3158,0.1822,0.461,-0.7875,0.8487,-2.38,92.37159334006631,21.75757694153203,58.272877029378236,0.045250000000010004
0.3406,-0.0372,0.8428,-0.3168,0.1823,0.4579,-0.7875,0.8487,-2.6688,92.40716739047755,21.792447148325383,58.265444644517885,0.045250000000010004
0.3406,-0.0372,0.8428,-0.3168,0.1823,0.4579,-0.91,1.2687,-2.6688,92.44261957506347,21.82198728123685,58.24572466783293,0.045250000000010004
0.3315,-0.0307,0.842,-0.3168,0.1823,0.4579,-0.5163,1.0938,-2.5463,92.43401117025276,21.803087344868917,58.06634885621237,0.045250000000010004
0.3315,-0.0307,0.842,-0.3178,0.1845,0.4734,-0.5163,1.0938,-2.5463,92.4256118087511,21.7852224133108,58.08474807063809,0.045250000000010004
0.3355,-0.0356,0.8479,-0.3178,0.1845,0.4734,-0.4638,0.6388,-2.8437,92.425036829244,21.728961398331442,58.21139060130124,0.045250000000010004
0.3367,-0.0325,0.8465,-0.3178,0.1845,0.4734,-0.4638,0.6388,-2.8437,92.4189551169725,21.715068874773788,58.32114979579021,0.04549999999994725
0.3367,-0.0325,0.8465,-0.318,0.1833,0.4678,0.0175,0.9975,-2.8263,92.34466914945837,21.705193779051424,58.30649169010889,0.04549999999994725
0.3385,-0.033,0.8385,-0.318,0.1833,0.4678,0.0175,0.9975,-2.8263,92.31401123206876,21.77167407720932,58.3252031185899,0.04549999999994725
0.3385,-0.033,0.8385,-0.318,0.1833,0.4678,-0.63,1.1287,-2.5113,92.30667861537547,21.776084807382382,58.37795818545375,0.04549999999994725
0.3411,-0.0419,0.8413,-0.318,0.1833,0.4678,-0.63,1.1287,-2.5113,92.37295682627278,21.782116227904098,58.513883751433035,0.04549999999994725
0.3411,-0.0315,0.8431,-0.317,0.1826,0.4698,-0.9538,0.525,-3.0187,92.29920289543062,21.862232300173567,58.638499342131674,0.04549999999994725
0.3362,-0.0315,0.8431,-0.317,0.1826,0.4698,-0.7088,0.8925,-2.5113,92.27071993230952,21.8591937718024,58.62572471007205,0.04549999999994725
0.3457,-0.0397,0.8521,-0.317,0.1826,0.4698,-0.7088,0.8925,-2.5113,92.34157723762726,21.86371703485262,58.66276261134244,0.04549999999994725
0.3457,-0.0397,0.8521,-0.3161,0.1832,0.4684,-0.8138,1.05,-2.6075,92.42104098351737,21.884711750233155,58.749010591555965,0.04549999999994725
0.3378,-0.0337,0.8305,-0.3161,0.1832,0.4684,-0.8138,1.05,-2.6075,92.39730301418709,21.90946518360442,58.81388916681731,0.04549999999994725
0.3378,-0.0337,0.8564,-0.3161,0.1832,0.4684,-0.0263,0.9013,-2.5988,92.35164215549167,21.869859420326176,58.78866539724004,0.04549999999994725
0.3392,-0.0295,0.8564,-0.3161,0.1832,0.4684,-0.0263,0.9013,-2.5988,92.23139466197217,21.8425967978073,58.762503356740325,0.04576666666662277
0.3372,-0.0425,0.8422,-0.3172,0.1835,0.4639,-0.5425,0.7525,-2.2575,92.26335119581742,21.833677729716857,58.7430740925372,0.04576666666662277
0.3372,-0.0425,0.8422,-0.3172,0.1835,0.4639,-0.5425,0.7525,-2.2575,92.29375448635568,21.826431550736675,58.72673458095561,0.04576666666662277
0.3341,-0.0263,0.8449,-0.3172,0.1835,0.4639,-0.2013,1.2862,-2.6688,92.1788822739524,21.786610036122113,58.37973441446175,0.04576666666662277
0.3341,-0.0263,0.8449,-0.3178,0.1837,0.4598,-0.5337,1.4088,-2.4938,92.16281734901892,21.785417030364563,57.92760243115621,0.04576666666662277
0.3353,-0.0397,0.8322,-0.3178,0.1837,0.4598,-0.5337,1.4088,-2.4938,92.18587864294908,21.786157148284566,58.061699134071226,0.04576666666662277
0.3439,-0.037,0.8453,-0.3178,0.1837,0.4598,-0.3063,1.3563,-2.7562,92.23593076170322,21.85651713712501,58.20908622142503,0.04576666666662277
0.3439,-0.037,0.8453,-0.317,0.1835,0.4586,-0.3063,1.3563,-2.7562,92.27816484485663,21.91201330881962,58.32161550055082,0.04576666666662277
0.3389,-0.0326,0.8391,-0.317,0.1835,0.4586,-0.2625,0.9275,-2.8,92.26824084710525,21.92770298882298,58.31878556138765,0.04576666666662277
0.3389,-0.0326,0.8391,-0.317,0.1835,0.4586,-0.2625,0.9275,-2.8,92.26016541310233,21.93966491420874,58.31599496131372,0.04576666666662277
0.3464,-0.0439,0.838,-0.317,0.1835,0.4586,-0.4812,1.0325,-2.3275,92.26763201711077,22.00772199831738,58.41708340151514,0.04576666666662277
0.3329,-0.0296,0.8447,-0.3171,0.1833,0.4591,-0.4812,1.0325,-2.3275,92.26499673194154,21.937036652477786,58.301558026157245,0.0460166666666737
0.3329,-0.0296,0.8447,-0.3171,0.1833,0.4591,-0.0088,1.015,-2.7825,92.18099515922552,21.837166676233515,58.21465194287526,0.0460166666666737
0.3392,-0.0349,0.8367,-0.3171,0.1833,0.4591,-0.0088,0.9975,-2.7125,92.24854348001676,21.87621023207956,58.22308380559133,0.0460166666666737
0.3392,-0.0349,0.8367,-0.3154,0.1826,0.463,-1.1025,0.9975,-2.7125,92.30163203855692,21.908105044208973,58.2608887498885,0.0460166666666737
0.3386,-0.0356,0.8451,-0.3154,0.1826,0.463,-0.3675,1.2862,-2.73,92.31381887151747,21.890297645535828,58.32156318985268,0.0460166666666737
0.3407,-0.0311,0.8415,-0.3154,0.1826,0.463,-0.3675,1.2862,-2.73,92.29207133511501,21.91710771622483,58.417099714537805,0.0460166666666737
0.3407,-0.0311,0.8415,-0.3166,0.1842,0.4687,-0.665,0.2275,-2.3625,92.26611157117462,21.929511574068883,58.71533741164101,0.04655000000002474
0.3395,-0.038,0.8525,-0.3166,0.1842,0.4687,-0.665,0.2275,-2.3625,92.3084360189174,21.9032844798003,58.74795135751078,0.04655000000002474
0.3395,-0.038,0.8525,-0.3166,0.1842,0.4687,-0.7,0.7788,-2.3625,92.35051668860787,21.879989418430966,58.75434559308531,0.04679999999996198
0.3329,-0.0334,0.8438,-0.3166,0.1842,0.4687,-0.7,0.7788,-2.3625,92.33605890886139,21.839203140351227,58.68137060472123,0.04679999999996198
0.3329,-0.0348,0.8458,-0.3172,0.1841,0.4645,-0.7525,0.7875,-2.45,92.34020313929332,21.825476535144535,58.556935551702225,0.04679999999996198
0.3375,-0.0348,0.8458,-0.3172,0.1841,0.4645,-0.7525,0.7875,-2.485,92.34348937342762,21.825179249044783,58.518022382808745,0.04679999999996198
0.3419,-0.0347,0.8443,-0.3172,0.1841,0.4645,-1.1988,0.3325,-2.485,92.34762961602411,21.825861840872548,58.63630991205615,0.04679999999996198
0.3419,-0.0347,0.8443,-0.3163,0.1833,0.4694,-0.6737,1.33,-2.94,92.34853202394658,21.888973002776222,58.825880516953475,0.04679999999996198
0.3398,-0.0304,0.8574,-0.3163,0.1833,0.4694,-0.6737,1.33,-2.94,92.29951716307487,21.801186925480806,58.66046966542081,0.04679999999996198
0.3398,-0.0304,0.8331,-0.3163,0.1833,0.4694,-0.7175,1.225,-2.8175,92.26084728334192,21.893990581962136,58.82782230426467,0.04679999999996198
0.3387,-0.0402,0.8331,-0.3163,0.1833,0.4898,-0.7175,1.225,-2.8175,92.35336567036296,21.945290602261437,59.41377396431449,0.04679999999996198
0.3348,-0.0315,0.84,-0.317,0.1828,0.4721,-0.3413,1.54,-2.7125,92.32650734378538,21.903486039278732,59.09599500991476,0.04679999999996198
0.3348,-0.0315,0.84,-0.317,0.1828,0.4721,-0.3413,1.54,-2.7125,92.3031545515551,21.869335751130198,58.897184725900196,0.04679999999996198
0.3375,-0.0372,0.8414,-0.317,0.1828,0.4721,-0.56,1.0588,-2.59,92.31781194723501,21.866375230119587,58.91750607824771,0.0470666666666375
0.3375,-0.0372,0.8414,-0.3178,0.1847,0.4705,-0.56,1.0588,-2.59,92.33152854865664,21.863687841818916,58.9297879025349,0.0470666666666375
0.3408,-0.0373,0.8435,-0.3178,0.1847,0.4705,-0.5775,0.98,-2.5988,92.34741870057013,21.875334375212894,58.944108937321644,0.0470666666666375
0.3382,-0.0345,0.8493,-0.3178,0.1847,0.4705,-0.6388,1.33,-2.5375,92.34468949916032,21.866969478191336,58.850494506459675,0.0470666666666375
0.3382,-0.0345,0.8493,-0.3177,0.1834,0.478,-0.6388,1.33,-2.5375,92.34231087797048,21.85899634125323,58.914902651670445,0.0470666666666375
0.3375,-0.0374,0.8382,-0.3177,0.1834,0.478,-0.9887,0.5075,-2.31,92.41288733767286,21.867075953619334,59.14764085137833,0.04861666666658948
0.3375,-0.0374,0.8382,-0.3177,0.1834,0.478,-0.9887,0.5075,-2.31,92.46002353304901,21.873932583242674,59.30992987346531,0.04861666666658948
0.3422,-0.0323,0.8544,-0.3177,0.1834,0.478,-0.2013,1.1025,-2.4325,92.3936797174219,21.870694076264183,59.293885208371094,0.04861666666658948
0.3393,-0.0333,0.8452,-0.3172,0.1843,0.4738,-0.2013,1.1025,-2.4325,92.36277026865753,21.869986033843478,59.28252754206577,0.048883333333265
0.3393,-0.0333,0.8452,-0.3172,0.1843,0.4738,-0.5425,0.9538,-2.4675,92.35759175184886,21.869726992222105,59.28167655305017,0.048883333333265
0.3383,-0.0406,0.8423,-0.3172,0.1843,0.4738,-0.5425,0.9538,-2.4675,92.37713122719089,21.86951397046792,59.285249710846955,0.048883333333265
0.3383,-0.0406,0.8423,-0.3174,0.1831,0.4746,-0.3063,0.98,-2.8788,92.43687177139167,21.866647129389225,59.29188807720298,0.04914999999994052
0.339,-0.0323,0.8392,-0.3174,0.1831,0.4746,-0.455,1.1988,-2.905,92.42869636801058,21.900521022346908,59.294834988765665,0.04914999999994052
0.3373,-0.035,0.8448,-0.3174,0.1831,0.4746,-0.455,1.1988,-2.905,92.42671862963299,21.85573404295715,59.22660440470173,0.04914999999994052
0.3373,-0.035,0.8448,-0.3165,0.1838,0.4682,-0.3588,0.9187,-2.4762,92.42035908567954,21.85444205989563,59.21473414682321,0.04914999999994052
0.3418,-0.0362,0.8444,-0.3165,0.1838,0.4682,-0.3588,0.9187,-2.4762,92.42439227418808,21.85642042568959,59.21639874565988,0.04914999999994052
0.3418,-0.0362,0.8444,-0.3165,0.1838,0.4682,-0.2013,0.805,-2.7475,92.43123145324786,21.889889851350013,59.22513581250757,0.04914999999994052
0.3382,-0.0345,0.8468,-0.3165,0.1838,0.4682,-0.2013,0.805,-2.7475,92.4091490746956,21.862069612402045,59.15962034205202,0.04914999999994052
0.3382,-0.0376,0.8474,-0.3168,0.1837,0.4651,-0.4375,0.8925,-2.59,92.41587362444865,21.85059603419137,59.12771153572434,0.04939999999999145
0.3426,-0.0376,0.8474,-0.3168,0.1837,0.4651,-0.4375,0.8925,-2.59,92.42225418539971,21.863797502939555,59.120515892443635,0.04939999999999145
0.3392,-0.0333,0.8403,-0.3168,0.1837,0.4651,-0.315,1.1812,-2.5638,92.39932803256006,21.871010102062193,59.04409161203267,0.04939999999999145
0.3392,-0.0333,0.8403,-0.3159,0.1839,0.4602,-0.315,1.1812,-2.5638,92.37983983213401,21.87771678272875,58.942623114019526,0.04939999999999145
0.3369,-0.0357,0.8427,-0.3159,0.1839,0.4602,-0.5512,1.1638,-2.5638,92.38243370365574,21.870382633565413,58.818622096687896,0.04939999999999145
0.3369,-0.0357,0.8431,-0.3159,0.1839,0.4602,-0.1663,1.4088,-2.8087,92.39279591473439,21.84452639893376,58.634967326592836,0.04939999999999145
0.342,-0.0341,0.8431,-0.3159,0.1839,0.4602,-0.1663,1.4088,-2.8087,92.37398400589319,21.897634407864548,58.66861386782613,0.05044999999995525
0.3361,-0.0351,0.8483,-0.3183,0.182,0.4766,-0.3325,0.8662,-2.7738,92.37335112821587,21.83085563128991,58.657650235604756,0.05044999999995525
0.3361,-0.0351,0.8483,-0.3183,0.182,0.4766,-0.3325,0.8662,-2.7738,92.37280503181054,21.77890529807615,58.647455272980366,0.050700000000006185
0.3437,-0.0343,0.8428,-0.3183,0.182,0.4766,-0.4025,0.7525,-2.3888,92.3693522758499,21.8142663352985,58.80547533060229,0.050700000000006185
0.3437,-0.0343,0.8428,-0.317,0.184,0.4637,-0.4025,0.7525,-2.3888,92.366181444818,21.84642545024154,58.844318362093865,0.050700000000006185
0.3361,-0.0325,0.8462,-0.317,0.184,0.4637,-0.4725,1.19,-2.695,92.36308726112678,21.812423173137578,58.664066060009546,0.050700000000006185
0.3343,-0.0351,0.8453,-0.317,0.184,0.4637,-0.4725,1.19,-2.695,92.3633597481094,21.769363367572137,58.51310712571657,0.050966666666681704
0.3343,-0.0351,0.8453,-0.3165,0.1829,0.46,-0.7613,1.2513,-2.6075,92.36642189807736,21.747180122818946,58.289608516929206,0.050966666666681704
0.3384,-0.0324,0.8461,-0.3165,0.1829,0.46,-0.6825,1.2163,-2.5988,92.33859565533746,21.75090203187496,58.19615992955944,0.050966666666681704
0.3384,-0.0324,0.8461,-0.3165,0.1829,0.46,-0.6825,1.2163,-2.5988,92.31523361765431,21.75425378956993,58.12284984291984,0.050966666666681704
0.344,-0.0373,0.8446,-0.3165,0.1829,0.46,-0.2187,1.155,-2.5725,92.36097561500192,21.784286862231408,58.24015459398088,0.050966666666681704
0.3389,-0.039,0.842,-0.3166,0.1846,0.4539,-0.2187,1.155,-2.5725,92.4233239085584,21.79351788437314,58.21768394357643,0.050966666666681704
0.3389,-0.039,0.842,-0.3166,0.1846,0.4539,-0.4988,0.7613,-2.5375,92.4250005895341,21.798656340801973,58.20159926747548,0.050966666666681704
0.345,-0.0346,0.849,-0.3166,0.1846,0.4539,-0.4988,0.7613,-2.5375,92.42433123430592,21.812689929115887,58.209631898853374,0.050966666666681704
0.345,-0.0346,0.849,-0.3166,0.1835,0.4562,-0.1575,0.5863,-2.3625,92.40165167452648,21.84461974640785,58.23526846172889,0.050966666666681704
0.3429,-0.0364,0.8352,-0.3166,0.1835,0.4562,-0.1575,0.5863,-2.3625,92.42514603440057,21.895753873722246,58.386844184706675,0.050966666666681704
0.3392,-0.0379,0.8555,-0.3166,0.1835,0.4562,-0.3762,1.2075,-2.8,92.43666388594292,21.8275648900715,58.20683268479942,0.050966666666681704
0.3392,-0.0379,0.8555,-0.3174,0.1832,0.4634,-0.4725,1.0938,-2.7825,92.43851944398142,21.77783298312995,58.16849863613423,0.05121666666661895
0.3403,-0.0351,0.8497,-0.3174,0.1832,0.4634,-0.4725,1.0938,-2.7825,92.43716355898216,21.784909322383783,58.16917663118199,0.05121666666661895
0.3403,-0.0351,0.8497,-0.3174,0.1832,0.4634,-0.07,0.9363,-2.7912,92.41590801043067,21.790501469524376,58.16920010257662,0.05121666666661895
0.337,-0.0352,0.8434,-0.3174,0.1832,0.4634,-0.07,0.9363,-2.7912,92.40819730149799,21.784143740444872,58.16885341573692,0.05226666666669644
0.337,-0.035,0.843,-0.3177,0.1842,0.4573,-0.4288,1.2425,-2.8263,92.40638634587768,21.781250499175187,58.057896191297935,0.05251666666663368
0.3429,-0.035,0.843,-0.3177,0.1842,0.4573,-0.4288,1.2425,-2.8263,92.4046820967065,21.86615174432215,58.12388887369948,0.05251666666663368
0.3362,-0.034,0.8424,-0.3177,0.1842,0.4573,-0.14,1.1375,-2.4325,92.3803874949197,21.859518741236744,58.03483135037616,0.05251666666663368
0.3362,-0.034,0.8424,-0.3174,0.1828,0.4651,-0.14,1.1375,-2.4325,92.36241029641415,21.853236685211204,58.043770429712765,0.0527833333333092
0.3376,-0.0353,0.8519,-0.3174,0.1828,0.4651,-0.4725,0.7175,-2.4675,92.36260305915839,21.848084032835033,58.011209932580485,0.0527833333333092
0.3376,-0.0353,0.8488,-0.3174,0.1828,0.4651,-0.4725,0.805,-2.8788,92.36295290784578,21.798807803982815,58.01108736426554,0.0527833333333092
0.3419,-0.0358,0.8488,-0.3174,0.1828,0.4651,-0.4812,0.805,-2.8788,92.3634804917268,21.833436860463138,58.07218492705806,0.05304999999998472
0.3416,-0.0365,0.8382,-0.3161,0.1836,0.4708,-0.2187,0.7175,-2.7912,92.39132113403805,21.90792591866917,58.39888573773595,0.05304999999998472
0.3416,-0.0365,0.8382,-0.3161,0.1836,0.4708,-0.2187,0.7175,-2.7912,92.41319618692611,21.965100509623536,58.66577701406282,0.05304999999998472
0.3348,-0.0342,0.8409,-0.3161,0.1836,0.4708,-0.735,0.9887,-2.6688,92.39669963647488,21.923577842504578,58.67274581148052,0.05304999999998472
0.3348,-0.0342,0.8409,-0.3163,0.1834,0.465,-0.735,0.9887,-2.6688,92.38343435050294,21.888402108881834,58.655379898950166,0.05304999999998472
0.34,-0.0309,0.8489,-0.3163,0.1834,0.465,-1.015,1.1375,-2.94,92.28075529374894,21.86522815458287,58.603546917898655,0.05304999999998472
0.3381,-0.032,0.8594,-0.3163,0.1834,0.465,-1.015,1.1375,-2.94,92.22978581006116,21.73972922792808,58.453884369490765,0.05304999999998472
0.3381,-0.032,0.8594,-0.3182,0.1833,0.4714,-0.805,0.9013,-2.5725,92.20654662937199,21.7181644120489,58.42951648168866,0.05304999999998472
0.34,-0.0378,0.8567,-0.3182,0.1833,0.4714,-0.805,0.9013,-2.5725,92.28290676078556,21.711138494235946,58.43027563602633,0.05304999999998472
0.34,-0.0378,0.8567,-0.3182,0.1833,0.4714,-0.4112,0.6475,-2.625,92.30098839084108,21.701100029393317,58.43455698990753,0.053299999999921965
0.3356,-0.0348,0.8478,-0.3182,0.1833,0.4714,-0.0263,0.9975,-2.38,92.31671394973681,21.689215198968704,58.423354828806914,0.053299999999921965
0.3343,-0.0354,0.8414,-0.318,0.1839,0.4517,-0.0263,0.9975,-2.38,92.34606469204806,21.685502107080914,58.345314244350185,0.054083333333323935
0.3343,-0.0354,0.8414,-0.318,0.1839,0.4517,-0.9538,0.6737,-2.6513,92.36601756718952,21.680701395609848,58.050350067433634,0.054349999999999454
0.3471,-0.0357,0.8519,-0.318,0.1839,0.4517,-0.9538,0.6737,-2.6513,92.37665221664399,21.74652276727853,58.01211585378431,0.054349999999999454
0.3471,-0.0357,0.8519,-0.3169,0.1826,0.471,-0.7437,0.735,-2.5375,92.38128571485089,21.7654423750291,58.271116544611786,0.054349999999999454
0.3358,-0.036,0.8429,-0.3169,0.1826,0.471,-0.7437,0.735,-2.5375,92.39424234282532,21.762551969354305,58.33909924545139,0.054349999999999454
0.3398,-0.0323,0.843,-0.3169,0.1826,0.471,-0.7175,1.2337,-2.5463,92.3573633278321,21.772215627165686,58.47689401772707,0.054349999999999454
0.3398,-0.0323,0.843,-0.3178,0.1827,0.4574,-0.7175,1.2337,-2.5463,92.32728472418114,21.781350080427345,58.29449857091126,0.054349999999999454
0.3376,-0.0339,0.8476,-0.3178,0.1827,0.4574,-0.2275,1.5838,-2.4062,92.31957047357322,21.775303277664275,57.902250371598605,0.054349999999999454
0.3376,-0.0339,0.8476,-0.3178,0.1827,0.4574,-0.6562,1.4875,-2.7562,92.3154351137835,21.759756387320923,57.686564414698104,0.054349999999999454
0.3389,-0.0328,0.8475,-0.3178,0.1827,0.4574,-0.6562,1.4875,-2.7562,92.30141832874011,21.76420251816531,57.58014232412796,0.054349999999999454
0.3389,-0.0354,0.8416,-0.3165,0.184,0.4673,-0.3413,1.26,-2.6337,92.31540729938956,21.783513137208153,57.923802385746086,0.0545999999999367
0.3376,-0.0354,0.8416,-0.3165,0.184,0.4673,-0.3413,1.26,-2.6337,92.32757043710959,21.79071088990992,58.14839486283321,0.0545999999999367
0.34,-0.0354,0.8476,-0.3165,0.184,0.4673,-0.0613,1.4,-2.3187,92.34681777890619,21.797872727171576,58.36612146662159,0.0545999999999367
0.34,-0.0354,0.8476,-0.3182,0.1836,0.479,-0.0613,1.4,-2.3187,92.3602764043821,21.803995708761736,58.70004448315937,0.0545999999999367
0.3405,-0.0343,0.8444,-0.3182,0.1836,0.479,-0.6037,1.6538,-2.975,92.35682700322258,21.850194075169423,59.07173633936387,0.0545999999999367
0.3405,-0.0343,0.8288,-0.3182,0.1836,0.479,-0.6037,1.6538,-2.975,92.35814081893677,22.003111024499376,59.619965652567885,0.0545999999999367
0.3307,-0.034,0.8361,-0.3182,0.1836,0.479,-0.4988,1.2075,-3.0538,92.35792453431954,21.844483566863538,59.45306152544728,0.0545999999999367
0.3339,-0.033,0.8522,-0.3178,0.1838,0.4554,-0.9013,1.155,-2.7825,92.31712127589412,21.73917303005482,58.95487033086619,0.0545999999999367
0.3339,-0.033,0.8522,-0.3178,0.1838,0.4554,-0.9013,1.155,-2.7825,92.28818049589927,21.657797797325063,58.54429676661664,0.05486666666661222
0.3354,-0.0361,0.847,-0.3178,0.1838,0.4554,-0.8225,0.91,-2.7213,92.32607444155168,21.64405793874451,58.502082888795634,0.05616666666662695
0.3354,-0.0361,0.847,-0.3165,0.1824,0.4595,-0.8225,0.91,-2.7213,92.35454284157666,21.632913913649464,58.47317342643413,0.05616666666662695
0.3413,-0.0355,0.8464,-0.3165,0.1824,0.4595,-0.6475,0.91,-2.5988,92.36091128502484,21.663819125044334,58.46523343977947,0.05616666666662695
0.341,-0.0353,0.8393,-0.3165,0.1824,0.4595,-0.6475,0.91,-2.5988,92.36731963744894,21.70658273290029,58.46657065070817,0.056416666666677884
0.341,-0.0353,0.8393,-0.3164,0.1833,0.4644,-0.4812,1.19,-2.6163,92.36773466330561,21.75050380203601,58.58182216244654,0.056416666666677884
0.3343,-0.0363,0.8347,-0.3164,0.1833,0.4644,-0.4812,1.19,-2.6163,92.36897211841003,21.75697789687375,58.57477244735031,0.056416666666677884
0.3343,-0.0363,0.8347,-0.3164,0.1833,0.4644,-0.35,1.0063,-2.625,92.38398494526233,21.763061076206274,58.57304775884404,0.0566833333333534
0.3457,-0.0335,0.8536,-0.3164,0.1833,0.4644,-0.35,1.0063,-2.7475,92.36706944760245,21.81844073349805,58.5873253076379,0.0566833333333534
0.3323,-0.032,0.8385,-0.3171,0.183,0.4637,-0.2887,0.9538,-2.7475,92.33647349411353,21.77436783211113,58.57662089610108,0.0566833333333534
0.3323,-0.032,0.8385,-0.3171,0.183,0.4637,-0.3762,0.91,-2.8963,92.32088066873345,21.725089734873794,58.54975310482257,0.0566833333333534
0.3354,-0.0358,0.8372,-0.3171,0.183,0.4637,-0.3762,0.91,-2.8963,92.33407184935093,21.75085650429173,58.542148111783455,0.0566833333333534
0.3354,-0.0358,0.8372,-0.3168,0.1824,0.465,-1.0325,0.6913,-2.9838,92.37427188283743,21.77178259703286,58.511844420793444,0.0566833333333534
0.34,-0.0347,0.8458,-0.3168,0.1824,0.465,-1.0325,0.6913,-2.9838,92.36550873996012,21.808556810493005,58.49973928943219,0.0566833333333534
0.3392,-0.0361,0.8616,-0.3168,0.1824,0.465,-0.2887,1.3038,-2.7912,92.3711907489941,21.73026878906978,58.28522002588541,0.0566833333333534
0.3392,-0.0361,0.8616,-0.3171,0.1835,0.4635,-0.2887,1.3038,-2.7912,92.37591507953539,21.670178277667162,58.11758035177969,0.05695000000002892
0.3456,-0.0349,0.8431,-0.3171,0.1835,0.4635,-0.1488,1.1375,-2.7213,92.37450696655178,21.78393371494523,58.29228133892621,0.05695000000002892
0.3456,-0.0349,0.8431,-0.3171,0.1835,0.4635,-0.1488,1.1375,-2.7213,92.37345818031746,21.87619765203686,58.43836424627447,0.05695000000002892
0.333,-0.0342,0.8475,-0.3171,0.1835,0.4635,-0.35,1.1638,-2.4062,92.36570263856439,21.84270001264079,58.271022361733436,0.05695000000002892
0.333,-0.0356,0.833,-0.3156,0.1826,0.4752,-0.77,1.4963,-2.8175,92.38345246593326,21.825077817041674,58.67415253935353,0.05695000000002892
0.3343,-0.0356,0.833,-0.3156,0.1826,0.4752,-0.77,1.4963,-2.8175,92.39733483255085,21.830888043741787,58.988844066063024,0.05695000000002892
0.3357,-0.0331,0.8516,-0.3156,0.1826,0.4752,-0.3413,1.12,-2.905,92.37495307430815,21.733445657735505,58.943447589283444,0.05798333333325445
0.3357,-0.0331,0.8516,-0.316,0.1822,0.4627,-0.3413,1.12,-2.905,92.35549257112001,21.664661259491577,58.7334931407433,0.05824999999992997
0.343,-0.0324,0.8474,-0.316,0.1822,0.4627,-0.1663,1.1375,-2.59,92.3147949492249,21.697624373431662,58.702668983335236,0.05824999999992997
0.343,-0.0324,0.8474,-0.316,0.1822,0.4627,-0.1663,1.1375,-2.59,92.28408235897206,21.727546365688703,58.676894186041416,0.05824999999992997
0.3348,-0.0369,0.8472,-0.316,0.1822,0.4627,-0.805,1.3038,-2.9225,92.3341845277144,21.672163742774906,58.45608515103702,0.0584999999999809
0.3394,-0.0335,0.851,-0.317,0.182,0.475,-0.805,1.3038,-2.9225,92.31511645068356,21.68909211061431,58.549501017588575,0.0584999999999809
0.3394,-0.0335,0.851,-0.317,0.182,0.475,-0.385,0.9625,-2.8,92.30926826449519,21.698356643302183,58.55478173277051,0.0584999999999809
0.341,-0.0337,0.8555,-0.317,0.182,0.475,-0.28,0.9363,-2.8437,92.29994388723064,21.703197075166177,58.55599954771558,0.0584999999999809
0.341,-0.0337,0.8555,-0.3166,0.1839,0.4666,-0.28,0.9363,-2.8437,92.29224677240553,21.70676846664061,58.55523951116043,0.0584999999999809
0.34,-0.034,0.8453,-0.3166,0.1839,0.4666,-0.525,0.595,-2.765,92.29260702024105,21.747588909130336,58.61720255899662,0.05876666666665642
0.3331,-0.0337,0.8359,-0.3166,0.1839,0.4666,-0.525,0.595,-2.765,92.29312922143117,21.739643817936123,58.57147199663695,0.05876666666665642
0.3331,-0.0337,0.8359,-0.3179,0.1805,0.4679,-0.245,1.1375,-2.2925,92.29620286812236,21.734939827375737,58.456996904910355,0.05876666666665642
0.3367,-0.0325,0.8573,-0.3179,0.1805,0.4679,-0.245,1.1375,-2.2925,92.27145599172958,21.684693499666174,58.25301050513351,0.05876666666665642
0.3367,-0.0325,0.8573,-0.3179,0.1805,0.4679,-0.56,1.2687,-2.7213,92.26500990147838,21.636226955141534,57.99636124144362,0.05876666666665642
0.3375,-0.0332,0.842,-0.3179,0.1805,0.4679,-0.56,1.2687,-2.7213,92.26455988968937,21.672287211809433,58.01260670341951,0.05876666666665642
0.3442,-0.0375,0.8534,-0.3165,0.1828,0.4674,-0.9887,1.3737,-2.7037,92.3480914491648,21.720860238278732,58.311411602170836,0.059016666666593665
0.3442,-0.0375,0.8534,-0.3165,0.1828,0.4674,-0.9887,1.3737,-2.555,92.40388002122005,21.734952059061257,58.52005923348738,0.059016666666593665
0.3347,-0.0345,0.8359,-0.3165,0.1828,0.4674,-0.6737,1.1725,-2.555,92.39764186355151,21.73930789868802,58.53741188046395,0.059016666666593665
0.3347,-0.0345,0.8359,-0.3163,0.183,0.467,-0.0525,1.4088,-2.38,92.38720328202257,21.745699000141112,58.57095232478471,0.059016666666593665
0.3358,-0.0306,0.8527,-0.3163,0.183,0.467,-0.0525,1.4088,-2.38,92.28594281821654,21.719950873852618,58.31864202061149,0.0603166666666084
0.3435,-0.036,0.8464,-0.3163,0.183,0.467,-0.0787,1.26,-2.4413,92.32963414306444,21.73573360519317,58.53643155852589,0.06058333333328392
0.3435,-0.036,0.8464,-0.3166,0.183,0.4657,-0.0787,1.26,-2.4413,92.36056141263383,21.750806911378127,58.661420067747514,0.06058333333328392
0.3391,-0.0359,0.8405,-0.3166,0.183,0.4657,-0.28,1.1025,-2.3975,92.37543161627121,21.76769185094204,58.68483249120238,0.06058333333328392
0.3391,-0.0359,0.8405,-0.3166,0.183,0.4657,-0.28,1.1025,-2.3975,92.38770671643316,21.78317033779781,58.70499991557366,0.06084999999995944
0.344,-0.0346,0.8407,-0.3166,0.183,0.4657,-0.5863,0.9187,-2.8612,92.38502346170628,21.906298397499512,58.718884268758494,0.06084999999995944
0.344,-0.0346,0.8536,-0.3177,0.1831,0.4611,-0.5863,0.9187,-2.5375,92.37948948669928,21.90755306826043,58.705561478808626,0.06084999999995944
0.3367,-0.0346,0.8536,-0.3177,0.1831,0.4611,-0.2275,1.1287,-2.5375,92.36731170453277,21.888960385020614,58.48667588933977,0.06084999999995944
0.3398,-0.0335,0.8378,-0.3177,0.1831,0.4611,-0.2625,0.8838,-2.6075,92.3528717040499,21.90725881010443,58.479088670344716,0.06110000000001037
0.3398,-0.0335,0.8378,-0.3169,0.1831,0.4669,-0.2625,0.8838,-2.6075,92.34112147255824,21.923609317490772,58.50659192295888,0.06110000000001037
0.3297,-0.0346,0.8307,-0.3169,0.1831,0.4669,-0.49,0.8487,-2.555,92.3411834592223,21.905318076623175,58.48131833830644,0.06110000000001037
0.3297,-0.0346,0.8774,-0.3169,0.1831,0.4669,-0.49,0.8487,-2.555,92.34106655243187,21.82252422116107,58.28037277982596,0.06110000000001037
0.3238,-0.0499,0.8774,-0.3169,0.1831,0.4669,-1.12,-0.0175,-2.135,92.693838667722,21.40574717650399,57.29268202680757,0.06110000000001037
0.4568,-0.2049,0.7447,-0.3168,0.1824,0.4657,-1.12,-0.0175,-2.135,97.5918519194756,23.806650123210414,66.9748746483108,0.06110000000001037
0.4568,-0.2049,0.7447,-0.3168,0.1824,0.4657,-2.7912,-0.0088,-1.4612,103.02254969625908,27.24937396050206,71.8940604028748,0.06110000000001037
0.2679,0.0738,0.8926,-0.3168,0.1824,0.4657,-2.7912,-0.0088,-1.4612,90.65237759242937,21.880011693387786,56.736878734910185,0.06110000000001037
0.2679,0.0738,0.8926,-0.3166,0.1838,0.4722,4.375,2.3363,-2.4413,86.19043218425466,21.645044670596207,47.75542762767394,0.06136666666668589
0.4954,-0.1319,0.7641,-0.3166,0.1838,0.4722,-7.3938,-1.9775,-3.1937,98.072512525564,26.16544764820646,73.8455220922538,0.06136666666668589
0.6103,-0.1976,0.7047,-0.3166,0.1838,0.4722,-7.3938,-1.9775,-3.1937,104.70304230644786,31.814717116294684,88.15319137794788,0.06136666666668589
0.6103,-0.1976,0.7047,-0.3176,0.1837,0.469,-1.0325,0.5337,-12.705,105.04032132493043,39.11000015922246,89.42739641870357,0.06136666666668589
0.6165,0.1166,0.7127,-0.3176,0.1837,0.469,-1.0325,0.5337,-12.705,96.497244104473,40.36371497356768,100.178205089279,0.06136666666668589
0.6165,0.1166,0.7127,-0.3176,0.1837,0.469,-10.885,1.3125,-23.7913,82.09429533446803,40.4809259552187,107.30910336208953,0.06136666666668589
0.7352,-0.0747,0.6353,-0.3176,0.1837,0.469,-10.885,1.3125,-23.7913,95.42370883273874,48.593573872419555,110.23298625848047,0.06136666666668589
0.5416,0.1304,0.7501,-0.3156,0.1822,0.4694,-18.795,3.0625,-42.2275,80.92991661400418,35.75001675765515,107.56425853121438,0.06136666666668589
0.5416,0.1304,0.7501,-0.3156,0.1822,0.4694,-18.795,3.0625,-42.2275,80.17908250903186,35.43475338461682,106.7091445698814,0.06551666666666733
-0.0398,-0.0504,0.9455,-0.3156,0.1822,0.4694,-21.875,6.4313,-54.1625,92.47619851722422,-1.688567762318453,43.28695709839264,0.06551666666666733
-0.0398,-0.0504,0.9455,-0.3114,0.1838,0.4676,-10.8588,18.6287,-1.3038,93.00068144991259,-2.0781216403114002,32.84183191723578,0.06578333333334285
-1.0552,-0.3236,1.5149,-0.3114,0.1838,0.4676,-10.8588,18.6287,-1.3038,101.26105126386474,-19.529551555074598,29.544844618807872,0.06578333333334285
1.1359,-0.2569,0.3353,-0.3114,0.1838,0.4676,-17.8762,-14.9888,11.4888,126.03363949444118,63.65042308202564,102.77236992233664,0.06578333333334285
1.1359,-0.2569,0.3353,-0.3126,0.1846,0.4734,-17.8762,-14.9888,11.4888,127.38108980121525,69.2042094385958,107.33901721333146,0.06605000000001837
0.0236,-0.0813,1.0747,-0.3126,0.1846,0.4734,9.94,-3.2375,-35.4025,97.21771986150928,3.2579915926202987,49.775226130463366,0.06605000000001837
0.0236,-0.0813,1.0747,-0.3126,0.1846,0.4734,9.94,-3.2375,-35.4025,94.5790808255174,1.3134862161459915,38.6605875973623,0.06605000000001837
0.8483,0.7665,0.5459,-0.3126,0.1846,0.4734,10.5612,-4.2088,-35.8225,40.36362198493603,40.84750811207447,77.99912206014196,0.06605000000001837
0.3342,-0.1477,1.0364,-0.3113,0.1822,0.4638,10.5612,-4.2088,-35.8225,93.3194978141156,18.379036684513913,34.35659149463879,0.06605000000001837
0.3342,-0.1477,1.0364,-0.3113,0.1822,0.4638,-24.8325,4.5937,-7.9975,97.92168162234792,17.80855136446896,51.482284381019184,0.06605000000001837
0.4392,-0.2646,0.8781,-0.3113,0.1822,0.4638,1.3913,10.3775,-24.1063,103.70007250510963,25.245766887107997,68.30543675614179,0.06605000000001837
0.4392,-0.2646,0.8781,-0.3101,0.1833,0.4678,1.3913,10.3775,-24.1063,105.7045706591957,25.574586274140408,70.42059919946249,0.06629999999995562
0.4872,0.2272,0.7519,-0.3101,0.1833,0.4678,-0.6825,10.1237,-32.3225,100.48770833465478,31.607473643902317,88.6681494555451,0.06629999999995562
0.4872,-0.2093,0.8298,-0.3101,0.1833,0.4678,-0.6825,10.1237,-32.3225,101.07628265483214,29.716222000819595,78.17800048502787,0.06629999999995562
0.4615,-0.2093,0.8298,-0.3101,0.1816,0.4641,-15.1287,10.5087,-34.9125,103.95943159313603,28.377865363140373,74.82856987298372,0.06629999999995562
0.8882,-0.062,0.6473,-0.3054,0.1816,0.4641,-15.1287,10.5087,-34.9125,96.01405838595541,53.03132613591206,123.33542868368954,0.06629999999995562
0.8882,-0.062,0.6473,-0.3054,0.1816,0.4641,-11.7863,26.7575,-53.9263,95.51539091936749,53.77716917049719,128.21652746313012,0.06629999999995562
0.8988,0.2372,0.6685,-0.3054,0.1816,0.4641,-11.7863,26.7575,-53.9263,72.50162036586704,51.75866113629891,173.71802220431698,0.06629999999995562
0.8988,0.2372,0.9515,-0.2938,0.1838,0.4784,-34.5625,77.8313,-33.1538,75.9022093143752,42.79937393445558,154.02652757878434,0.06656666666663114
0.3645,0.0195,0.9515,-0.2938,0.1838,0.4784,-34.5625,116.7425,-27.3875,88.45744591952256,21.80015753991793,60.43598010213103,0.06656666666663114
0.4813,0.6359,0.7498,-0.2938,0.1838,0.4784,-31.9025,116.7425,-27.3875,50.894802087686045,25.918772713912,72.03123614396239,0.06656666666663114
0.4813,0.6359,0.7498,-0.273,0.1903,0.4892,-53.3312,152.46,-5.5912,49.721172909546965,26.043868184519717,80.97333764032447,0.06656666666663114
0.5114,0.0889,0.7919,-0.273,0.1903,0.4892,-53.3312,152.46,-5.5912,82.96554528290216,31.070578510990604,106.97693865973345,0.06656666666663114
0.5114,0.0889,0.7919,-0.273,0.1903,0.4892,-73.0013,180.0838,3.045,83.58614067264757,32.44265263608439,108.21049794135742,0.06656666666663114
0.3625,0.2091,0.8386,-0.273,0.1903,0.4892,-73.0013,180.0838,3.045,76.10234001534324,24.237336688768778,53.08889415871796,0.06656666666663114
0.4508,0.3134,0.7837,-0.2464,0.2017,0.5053,-68.7312,208.7663,-1.0588,68.31771029145631,26.513997846929897,178.3833460425367,0.06656666666663114
0.4508,0.3134,0.7837,-0.2464,0.2017,0.5053,-68.7312,208.7663,-1.0588,68.20528028627074,27.451063189145945,179.49179842808257,0.06656666666663114
0.2681,-0.281,0.9378,-0.2464,0.2017,0.5053,-95.5325,244.9037,27.5363,106.27957608573627,15.706278189980601,68.68696503754879,0.06656666666663114
0.2681,-0.281,0.9378,-0.211,0.216,0.5176,-95.5325,244.9037,27.5363,106.67601365836629,15.327715359433832,75.92599843473344,0.06656666666663114
-0.4932,-0.296,1.4852,-0.211,0.216,0.5176,-70.63,276.1325,68.5212,101.34732319781148,-17.575592371915512,42.35895979630188,0.06656666666663114
-0.4898,-0.5406,1.6093,-0.211,0.216,0.5176,-35.56,258.9475,110.2412,108.36815309932268,-16.106543935105734,49.11475038567499,0.06681666666668207
-0.4898,-0.5406,1.6093,-0.1806,0.2222,0.5193,-35.56,258.9475,110.2412,108.56280529645086,-16.093626903049824,52.310111849138636,0.06681666666668207
-0.0045,-0.8159,1.3443,-0.1806,0.2222,0.5193,2.1788,220.5788,92.1813,117.79679567548868,-0.33046640191275056,68.36413000143962,0.06681666666668207
-0.0045,-0.8159,1.3443,-0.1806,0.2222,0.5193,2.1788,220.5788,92.1813,120.312724013971,-0.16569985338206347,68.43689206483607,0.06681666666668207
-0.1803,-0.0016,1.1365,-0.1806,0.2222,0.5193,57.925,192.815,52.4562,90.58947940132862,-8.85638037267885,40.78886962110135,0.06681666666668207
-0.1803,0.1049,0.7819,-0.1554,0.2158,0.5202,57.925,192.815,52.4562,82.49732848942668,-12.80173101983574,28.014967491617963,0.06681666666668207
0.0878,0.1049,0.7819,-0.1554,0.2158,0.5202,54.9588,186.7075,41.7725,82.36125712850115,5.927359296377866,56.77119702435435,0.06681666666668207
0.4699,-0.1541,0.6514,-0.1554,0.2158,0.5202,54.9588,186.7075,41.7725,102.93853191596351,34.42475572870322,111.98469718433839,0.06681666666668207
0.4699,-0.1541,0.6514,-0.1274,0.2124,0.5246,28.84,210.875,27.6238,103.2973918626115,35.04791209308723,116.15439838247165,0.06681666666668207
0.283,-0.0893,1.1371,-0.1274,0.2124,0.5246,28.84,210.875,26.0575,94.78075828226042,14.649134011127762,89.73772994829189,0.06681666666668207
0.283,-0.0893,1.1371,-0.1274,0.2124,0.5246,33.8713,235.8562,26.0575,94.49861035737761,13.958723421288559,89.61242976974002,0.06681666666668207
0.2238,-0.3843,1.2941,-0.1274,0.2124,0.5246,36.6888,241.6575,27.2475,106.2241094380193,9.560957364481354,81.44253669192078,0.06708333333335759
-0.1565,-0.3278,1.028,-0.0942,0.209,0.513,36.6888,241.6575,27.2475,107.64771573765445,-7.67316837262952,66.57259761521205,0.06708333333335759
-0.1565,-0.3278,1.028,-0.0942,0.209,0.513,64.1288,245.1837,8.7937,107.68542159227466,-8.2055534659546,66.51107569173293,0.06708333333335759
-0.2552,-0.224,0.8369,-0.0942,0.209,0.513,64.1288,245.1837,8.7937,105.0254058368811,-15.744927933300216,57.2949930580838,0.06708333333335759
-0.2552,-0.224,0.8369,-0.059,0.1999,0.5122,77.875,253.5312,-3.3338,104.98476065732577,-16.051073649620836,60.804349778149096,0.06708333333335759
-0.1377,0.131,0.5936,-0.059,0.1999,0.5122,77.875,253.5312,-3.3338,77.90063263661492,-14.544942550182215,25.673665814047048,0.06708333333335759
-0.1036,-0.0763,0.7451,-0.059,0.1999,0.5122,67.7425,272.615,-8.0413,95.58763158837036,-8.892934374882852,63.30591161304957,0.06708333333335759
-0.1036,-0.0763,0.7451,-0.0174,0.1915,0.4937,67.7425,272.615,-8.0413,95.84309886503898,-8.030418849351262,71.19633578953201,0.06708333333335759
-0.2162,0.2017,0.7349,-0.0174,0.1915,0.4937,68.1012,285.215,5.7663,74.95705857124227,-14.994860881597239,18.77935509098185,0.06708333333335759
-0.2162,0.2017,0.7349,-0.0174,0.1915,0.4937,51.905,286.58,25.9438,74.6582670678378,-15.809892761138727,18.595609048668624,0.06708333333335759
-0.0318,0.1249,0.8473,-0.0174,0.1915,0.4937,51.905,286.58,25.9438,81.48417810293688,-2.5913170021789704,72.52735170823374,0.06708333333335759
-0.0318,-0.0289,0.8147,0.0315,0.1842,0.464,52.3425,286.58,43.3825,91.83568619434679,-2.2415008923953392,93.82115682273039,0.0673500000000331
-0.3866,-0.0289,0.8147,0.0315,0.1842,0.464,52.3425,286.58,43.3825,92.02797220342245,-24.878324924714008,50.2922717809736,0.0673500000000331
-0.8941,-0.0855,0.9894,0.0315,0.1842,0.464,69.6325,286.58,55.755,94.89807365397056,-41.708490539941124,39.10707217173074,0.0673500000000331
-0.8941,-0.0855,0.9894,0.0744,0.1757,0.4452,69.6325,286.58,55.755,94.93842719147771,-41.992575780798504,42.67171982867026,0.0673500000000331
-0.6329,-0.4694,0.8211,0.0744,0.1757,0.4452,81.2175,286.58,48.9738,119.45534877454628,-33.94551978813572,74.2409930472671,0.0673500000000331
-0.6329,-0.4694,0.8211,0.0744,0.1757,0.4452,81.2175,286.58,48.9738,119.75177295653853,-33.792131989659175,74.35112927775185,0.0673500000000331
-0.732,-0.1061,0.6884,0.0744,0.1757,0.4452,113.1637,286.58,20.755,98.94486792718298,-45.901434010190684,44.33074838118252,0.06759999999997035
-0.8621,0.2877,0.726,0.1114,0.1627,0.4141,113.1637,286.58,20.755,68.64907738626188,-47.74888211617182,0.13680436462045312,0.06759999999997035
-0.8621,0.2877,0.726,0.1114,0.1627,0.4141,122.4737,286.58,19.0487,68.38466868206514,-47.824838172422254,0.29193903004001653,0.06759999999997035
-0.6954,-0.0483,0.5334,0.1114,0.1627,0.4141,105.525,286.58,14.8663,94.92375959518274,-52.14818057742651,38.75837961037048,0.06759999999997035
-0.6954,-0.0483,0.5334,0.145,0.1519,0.3682,105.525,286.58,14.8663,95.17175044459673,-52.38372518720305,43.95910804854234,0.06759999999997035
-0.8021,0.3219,0.4601,0.145,0.1519,0.3682,108.2113,286.58,-6.5975,55.388175390859445,-54.49217505167026,19.98214367938283,0.06759999999997035
-0.8388,0.5372,0.4334,0.145,0.1519,0.3682,108.2113,286.58,-6.5975,39.04608949662594,-51.321378295294544,47.00298939315266,0.06759999999997035
-0.8388,0.5372,0.4334,0.1776,0.149,0.3352,70.07,286.58,-8.9163,38.89785288780334,-50.653616793222014,50.22708585515146,0.06759999999997035
-0.8616,0.1332,0.5567,0.1776,0.149,0.3352,70.07,286.58,-8.9163,76.0179104677643,-55.62766951410623,18.075880438504356,0.0681166666666968
-0.8616,0.1332,0.5567,0.1776,0.149,0.3352,31.8325,286.58,-13.1512,76.52819137052154,-56.33513859619022,18.31417009396848,0.0681166666666968
-1.016,0.0741,0.5649,0.1776,0.149,0.3352,31.8325,286.58,-13.1512,82.34695544805794,-60.34195658669361,25.314270057137104,0.0681166666666968
-0.1103,0.83,-0.1621,0.2026,0.1524,0.3014,30.3363,286.3175,-31.1238,-8.116353489328791,-9.216388683411665,119.67316683398114,0.0681166666666968
-0.1133,0.83,-0.1621,0.2026,0.1524,0.3014,30.3363,286.3175,-30.3625,-10.958634735853414,-7.685670549614615,120.12561661684303,0.0681166666666968
-1.3023,-0.2567,1.1291,0.2026,0.1524,0.3014,-16.59,285.9937,-30.3625,96.1548389197423,-46.950142986962746,73.81335865951438,0.0681166666666968
-1.3023,-0.2567,1.1291,0.2239,0.1535,0.2647,-10.9462,260.5925,25.725,102.22757619255962,-48.310558795621716,84.83221454694056,0.06838333333325863
-0.2904,0.487,0.1224,0.2239,0.1535,0.2647,-10.9462,260.5925,25.725,21.800994177017014,-30.66691871712431,110.88352462903502,0.06838333333325863
-0.2904,0.487,0.5753,0.2239,0.1535,0.2647,-6.195,216.2912,8.0325,45.58209185421929,-21.903330190901585,151.6543681640491,0.06838333333325863
-1.7,0.1825,0.5713,0.2239,0.1535,0.2647,-6.195,216.2912,8.0325,68.30084251366243,-66.34368954158114,16.7926835903556,0.06838333333325863
-0.5117,0.4365,-0.0945,0.2352,0.1551,0.2445,-41.79,165.8562,4.6988,-10.312190778815705,-51.017896850660094,105.54946879929845,0.06838333333325863
-0.5117,0.4365,-0.0945,0.2352,0.1551,0.2445,-41.79,165.8562,4.6988,-12.170716961592257,-49.14596771634792,106.28684905502948,0.07306666666659112
-0.8556,0.9471,0.0369,0.2352,0.1551,0.2445,-61.6263,163.695,23.0912,1.9993903072432058,-42.33882267893851,105.12241983512399,0.07331666666664205
-0.8556,0.9471,0.0369,0.2395,0.154,0.2337,-61.6263,163.695,23.0912,2.2274442673442594,-42.08271822284943,106.76121079661719,0.07331666666664205
-0.9159,0.238,-0.034,0.2395,0.154,0.2337,-128.6512,181.0638,65.0212,-8.04991062589532,-74.80739050786562,77.9697719728156,0.07331666666664205
-1.3408,0.1242,0.1265,0.2395,0.154,0.2337,-154.0963,180.3025,74.6375,45.17910257939549,-82.37004553263493,12.96113871132074,0.07358333333331757
-1.3408,0.1242,0.1265,0.242,0.1515,0.228,-154.0963,180.3025,74.6375,45.5233932023756,-82.46684644517228,12.404804599603901,0.07358333333331757
-1.051,-0.0241,0.0825,0.242,0.1515,0.228,-160.3875,157.1763,60.4625,105.90656342536278,-85.28021391330451,52.87973515291905,0.07358333333331757
-1.051,-0.0241,0.0825,0.242,0.1515,0.228,-160.3875,157.1763,60.4625,106.28185639223086,-85.32420655465707,53.2949395480488,0.07358333333331757
-1.1586,0.1021,0.2328,0.242,0.1515,0.228,-150.5963,135.5988,46.6987,66.58346962999354,-77.77839518396259,12.871123657139757,0.07358333333331757
-0.9633,0.2144,0.0786,0.2435,0.1521,0.226,-150.5963,135.5988,46.6987,20.440566868763067,-76.68621305289979,44.81561033788801,0.07358333333331757
-0.9633,0.2144,0.0786,0.2435,0.1521,0.226,-144.165,123.1825,47.7487,20.13528728410839,-76.6644417624152,45.240531186147365,0.07384999999999309
-0.9908,0.0115,0.0804,0.2435,0.1521,0.226,-144.165,123.1825,47.7487,81.43327345421231,-85.14499247540898,27.242519814629006,0.07384999999999309
-0.9908,0.0115,0.0804,0.2454,0.1514,0.2126,-142.0562,119.9187,51.0387,81.85692835972449,-85.31070720246458,29.553193892512137,0.07384999999999309
-1.2227,-0.1884,0.3624,0.2454,0.1514,0.2126,-142.0562,119.9187,39.8387,117.21866581477374,-71.84607389600087,81.0210418464116,0.07384999999999309
-1.2227,-0.1884,0.4246,0.2454,0.1514,0.2126,-113.6888,101.0888,38.185,113.9562433608831,-69.26106561977254,80.62353556672463,0.07384999999999309
-1.3403,-0.0978,0.4246,0.2454,0.1514,0.2126,-84.9887,56.1663,19.9762,103.09944892791991,-71.8748363986164,65.80349781612391,0.07409999999993033
-1.4246,-0.1206,0.4249,0.2464,0.153,0.2188,-84.9887,56.1663,19.9762,105.8134918359245,-72.7361123722586,66.9006240559736,0.07409999999993033
-1.4246,-0.1206,0.4249,0.2464,0.153,0.2188,-48.3525,6.2737,10.3512,105.84495434638323,-72.77168141598021,66.91735320202426,0.07409999999993033
-1.5065,-0.165,0.5189,0.2464,0.153,0.2188,-48.3525,6.2737,10.3512,107.60291078243064,-70.31936815357764,71.2342082826438,0.07409999999993033
-1.5065,-0.165,0.5189,0.2446,0.1534,0.2154,-11.1737,-62.8075,0.7262,107.6364970633128,-70.17368977728955,72.59778818253676,0.07409999999993033
-1.6577,-0.1749,0.5073,0.2446,0.1534,0.2154,-11.1737,-62.8075,0.7262,108.90383423854952,-71.6147533289188,71.7940932266111,0.07409999999993033
-1.8413,-0.1065,0.5604,0.2446,0.1534,0.2154,22.89,-145.1975,-13.4838,101.09433975526144,-72.68941569470121,61.86199332487346,0.07436666666660585
-1.8413,-0.1065,0.5604,0.235,0.151,0.2428,22.89,-145.1975,-13.4838,100.77403449634994,-72.7790049731044,55.890582301196645,0.07436666666660585
-1.9369,-0.0714,0.5522,0.235,0.151,0.2428,50.96,-240.1263,-23.17,97.43246924820986,-73.9071959475179,50.75310884192575,0.07436666666660585
-1.9369,-0.0714,0.5522,0.235,0.151,0.2428,68.88,-284.6375,-34.055,97.36844611605328,-73.96007128517073,50.73187189321665,0.07436666666660585
-1.8568,-0.0376,0.3104,0.235,0.151,0.2428,68.4512,-284.6375,-34.055,96.9134171495651,-80.24253704617729,44.75654286111954,0.07436666666660585
-1.7866,0.1446,0.0895,0.21,0.1466,0.2854,83.6588,-285.6,-34.4837,32.520600395785586,-84.43176438876283,32.84845406425113,0.07461666666665678
-1.7866,0.1446,0.0895,0.21,0.1466,0.2854,83.6588,-285.6,-34.4837,31.76437424858844,-84.55872861999688,33.11834543904713,0.07461666666665678
-1.6393,0.3162,-0.2155,0.21,0.1466,0.2854,90.545,-285.6,-18.62,-33.55808812633205,-77.31036979160669,104.91281768443932,0.07461666666665678
-1.6393,0.3162,-0.2155,0.1679,0.1389,0.3434,90.545,-285.6,-18.62,-34.2678339862089,-76.8872718894864,107.5754528767296,0.07461666666665678
-1.377,0.2583,-0.34,0.1679,0.1389,0.3434,71.0062,-285.6,0.805,-52.52055801058919,-73.73057911743962,125.86061842632516,0.07461666666665678
-1.377,0.1333,-0.0415,0.1679,0.1389,0.3434,71.0062,-285.6,0.805,-17.77873491932662,-81.76969868164011,88.04509119231093,0.07461666666665678
-1.3019,0.1272,-0.0415,0.1679,0.1389,0.3844,56.1225,-285.6,23.1788,-18.064278777338984,-84.0436142337071,90.60964494738425,0.07461666666665678
-1.6059,-0.009,0.2169,0.1134,0.1275,0.387,56.1225,-285.6,23.1788,90.45915129390993,-82.3667183340064,21.184014990893175,0.07461666666665678
-1.6059,-0.009,0.2169,0.1134,0.1275,0.387,57.155,-285.6,33.775,92.34336943453339,-82.3031392552037,21.572806251373922,0.07461666666665678
-1.6859,-0.2076,0.2117,0.1134,0.1275,0.387,61.1012,-285.6,20.3,133.76722235573385,-80.12099382827148,65.39920152906726,0.07461666666665678
-1.6859,-0.2076,0.2117,0.0439,0.1154,0.4324,61.1012,-285.6,20.3,134.42902335105262,-80.0292622011953,60.63207982072744,0.07461666666665678
-1.3664,-0.1615,0.1875,0.0439,0.1154,0.4324,81.9875,-285.6,-1.3825,130.78361507504223,-79.8745356625478,56.96827368695341,0.0748833333333323
-0.9739,-0.2239,0.1232,0.0439,0.1154,0.4324,81.9875,-285.6,-1.3825,150.93409102115137,-77.47057071426535,77.88394162578557,0.0748833333333323
-0.9739,-0.2239,0.1232,-0.035,0.0981,0.4468,113.47,-285.6,-22.2425,151.17627650974273,-75.40148063705693,73.02247123053236,0.0748833333333323
-0.9005,0.1268,0.2074,-0.035,0.0981,0.4468,113.47,-285.6,-22.2425,59.36489694065974,-74.91756001851657,18.977163765100094,0.0748833333333323
-0.9005,0.1268,0.2074,-0.035,0.0981,0.4468,141.33,-285.6,-23.4587,58.564902121997626,-74.89417784933497,19.297116203131633,0.0748833333333323
-0.6978,-0.1402,0.1327,-0.035,0.0981,0.4468,141.33,-285.6,-23.4587,136.0280384270696,-74.55249843151263,58.60084487875411,0.0748833333333323
-0.6434,0.2363,-0.0676,-0.1173,0.0736,0.4285,168.2625,-285.6,-25.0775,-15.069238190643963,-69.32454322925128,89.76531331907734,0.0748833333333323
-0.6434,0.2363,-0.0676,-0.1173,0.0736,0.4285,168.2625,-285.6,-28.2537,-15.95933418217383,-69.10175339692188,90.2812948666022,0.0748833333333323
-0.0461,0.2113,-0.3498,-0.1173,0.0736,0.4285,190.365,-285.6,-28.2537,-58.641890599325464,-8.777404805438032,74.40615297394231,0.0748833333333323
-0.0461,0.2113,-0.3498,-0.185,0.0506,0.4145,182.6825,-285.6,-26.6788,-58.86431333379032,-6.529049940976891,60.341084654680536,0.0748833333333323
0.7271,0.6691,-0.6724,-0.185,0.0506,0.4145,182.6825,-285.6,-26.6788,-45.215456593306904,35.72380664654243,47.25467792721531,0.0748833333333323
0.7271,0.3771,-0.1321,-0.185,0.0506,0.4145,149.9312,-285.6,-4.6463,-19.476720248524202,53.13918858683967,67.62383126354892,0.07515000000000782
0.6798,0.3771,-0.1321,-0.185,0.0506,0.3923,149.9312,-285.6,-4.6463,-19.306740771847476,57.52275401898204,66.98610418888899,0.07515000000000782
0.0114,-0.0247,0.6436,-0.2318,0.0352,0.3923,136.2375,-285.6,10.0625,91.38821725782086,5.184140039217016,12.31323272294828,0.07799999999997453
0.0114,-0.0247,0.6436,-0.2318,0.0352,0.3923,136.2375,-285.6,10.0625,92.19193345961347,1.32175826655785,12.589016601660749,0.07826666666665005
0.7114,0.2735,0.3497,-0.2318,0.0352,0.3923,160.6325,-285.6,-18.2087,52.21916206516185,54.64188532507509,125.93269516728687,0.07826666666665005
0.7114,0.2735,0.3497,-0.2629,0.0182,0.3726,160.6325,-285.6,-18.2087,51.97260515137082,57.83082424636566,119.0295451170851,0.07826666666665005
0.457,0.511,0.3016,-0.2629,0.0182,0.3726,184.0388,-285.425,-22.4263,30.665221227698492,38.568908426197076,75.21142440777588,0.07851666666670098
0.4122,0.1199,0.3405,-0.2629,0.0182,0.3726,187.7925,-276.43,-12.7837,70.39035882952938,47.884207661435305,131.72426894873422,0.07851666666670098
0.4122,0.1199,0.3405,-0.2863,0.002,0.3248,187.7925,-276.43,-12.7837,70.6002294792961,48.70891088938191,111.85013279080476,0.07851666666670098
0.5974,0.4106,0.2867,-0.2863,0.002,0.3248,209.7988,-255.885,-8.8638,35.09338202482123,49.84877102816665,81.50443885327249,0.07878333333326282
0.5974,0.4106,0.2867,-0.2863,0.002,0.3248,209.7988,-255.885,-8.8638,34.92533426189658,50.003319219396694,81.38674077909927,0.07878333333326282
0.2109,0.4885,0.3621,-0.2863,0.002,0.3248,215.7663,-246.33,-3.5263,36.540176871846825,34.27847491643779,51.623172490757824,0.07878333333326282
0.6879,0.4515,0.0156,-0.3042,-0.0118,0.283,215.7663,-246.33,-3.5263,2.137947410611073,45.700776911188306,59.194351494544854,0.07904999999993834
0.6879,0.4515,0.0156,-0.3042,-0.0118,0.283,213.5087,-239.0238,15.3125,1.9796075351988947,56.12027398284856,59.22484330558749,0.07904999999993834
0.4311,0.586,0.2245,-0.3042,-0.0118,0.283,213.5087,-239.0238,15.3125,20.873835459502477,35.63876304904378,53.39037170989771,0.07904999999993834
0.4311,0.586,0.2245,-0.3228,-0.0207,0.249,209.5275,-215.8625,25.8475,20.961707795969872,34.527393581121174,46.67084465299444,0.07904999999993834
0.4444,0.7235,0.2819,-0.3228,-0.0207,0.249,209.5275,-215.8625,25.8475,21.28602170142159,29.94537637977896,44.382275685524,0.07904999999993834
0.4444,0.6562,0.1593,-0.3228,-0.0207,0.249,192.5262,-207.1125,41.0725,13.68461826842655,33.27322664303452,44.81797052717456,0.07904999999993834
0.7313,0.6562,0.1593,-0.3228,-0.0207,0.2134,176.8988,-185.6488,55.8338,13.645457114927877,47.04546004591639,47.15506137059868,0.07904999999993834
0.5228,0.8188,0.4931,-0.3398,-0.0244,0.2134,176.8988,-185.6488,55.8338,30.95970271478509,28.986889474509777,37.478918225196644,0.07904999999993834
0.5228,0.8188,0.4931,-0.3398,-0.0244,0.2134,158.7425,-163.0125,70.4112,31.056698988386806,28.681444637669205,37.42737493203076,0.07929999999998927
0.828,0.6276,0.3713,-0.3398,-0.0244,0.2134,158.7425,-163.0125,70.4112,30.612151513966197,48.3601068869684,50.91667374614385,0.07929999999998927
0.828,0.6276,0.3713,-0.3532,-0.0257,0.1869,153.2563,-147.7525,66.0625,30.60937776593212,48.62616777642226,44.28498863721557,0.07929999999998927
0.5313,1.1,0.6195,-0.3532,-0.0257,0.1869,153.2563,-147.7525,66.0625,29.395317064893078,23.194696836913415,30.526899291590954,0.07929999999998927
0.5663,0.7649,0.471,-0.3532,-0.0257,0.1869,134.2863,-134.0937,66.7538,31.606971301482805,32.09973581943998,33.74235524100444,0.07929999999998927
0.5663,0.7649,0.471,-0.367,-0.0232,0.1656,134.2863,-134.0937,66.7538,31.62326008853049,32.22651207957557,29.179481226893543,0.07929999999998927
0.2711,0.6865,0.4895,-0.367,-0.0232,0.1656,114.3887,-149.94,68.9238,35.456909348939114,18.02327955870546,24.50998493236414,0.07929999999998927
0.2711,0.6865,0.4895,-0.367,-0.0232,0.1656,114.3887,-183.54,76.6413,35.489992241199424,17.826870733844608,24.47920370123615,0.07956666666666479
0.4327,0.82,0.3353,-0.367,-0.0232,0.1656,109.9,-181.7025,76.6413,22.358724511816586,25.92975894024935,27.456068887982156,0.07956666666666479
0.9051,0.6596,0.0475,-0.38,-0.0181,0.1252,83.9212,-188.1337,80.815,4.332499126615304,53.515255508294466,28.586418525836034,0.07956666666666479
0.9051,0.6596,0.0475,-0.38,-0.0181,0.1252,83.9212,-188.1337,80.815,4.121450372068362,53.84247253655952,28.592365377718924,0.07956666666666479
0.448,1.2273,0.3551,-0.38,-0.0181,0.1252,72.0212,-178.1675,102.5238,15.973522006166831,19.64867125519426,19.60113476064152,0.07956666666666479
0.448,1.2273,0.3551,-0.3954,-0.0067,0.1102,72.0212,-178.1675,102.5238,16.134747016565026,19.32612524095745,16.45500152042357,0.07956666666666479
0.1926,0.294,0.6251,-0.3954,-0.0067,0.1102,36.1813,-186.1475,138.9325,63.519148410604465,15.60545047134603,8.531374060720763,0.07956666666666479
1.1921,0.7924,0.1315,-0.3954,-0.0067,0.1102,36.1813,-186.1475,138.9325,10.8584162628686,55.74407882180844,27.34152601736899,0.07956666666666479
1.1982,0.7924,0.1315,-0.3954,0.0026,0.0894,49.21,-217.455,115.3075,9.450773221465559,56.159761251052416,23.108066593057995,0.07956666666666479
0.6057,1.1214,0.6328,-0.411,0.0026,0.0894,49.21,-217.455,115.3075,29.04163280621895,25.4530432818568,12.315277525329002,0.07956666666666479
0.6057,1.1214,0.6328,-0.411,0.0026,0.0894,39.4975,-192.1062,124.2063,29.426187363411643,25.194407309268776,12.266113893728786,0.07981666666660203
1.0295,0.3718,0.0921,-0.411,0.0026,0.0894,23.6163,-195.825,117.7138,14.530763938379703,69.2253917235458,35.37666749488854,0.07981666666660203
1.0295,0.3718,0.42,-0.422,0.0147,0.0706,23.6163,-195.825,117.7138,47.131238188774084,61.4806527093817,13.799483855462709,0.07981666666660203
0.4461,0.8331,0.4062,-0.422,0.0147,0.0706,24.9813,-193.935,106.9163,26.791276007456624,26.02589716112126,8.997368873195997,0.07981666666660203
0.7376,0.5071,0.0444,-0.422,0.0147,0.0706,24.9813,-193.935,106.9163,5.826882096708942,55.12330898124324,17.193275322163956,0.07981666666660203
0.7376,0.5071,0.0444,-0.4278,0.0252,0.0458,-9.9663,-214.0425,108.0537,5.082438458700527,55.38688592195693,11.241847116946609,0.07981666666660203
0.6107,0.4361,0.2023,-0.4278,0.0252,0.0458,-9.9663,-214.0425,108.0537,22.995290465458442,51.82274474578035,7.629843285283286,0.07981666666660203
0.6107,0.4361,0.2023,-0.4278,0.0252,0.0458,-12.18,-227.6662,85.3562,24.73685434075611,51.79086525642888,7.613115198452407,0.07981666666660203
0.852,0.754,-0.0206,-0.4278,0.0252,0.0458,-12.18,-227.6662,85.3562,0.5078876073351147,48.518567827827695,9.912552083855573,0.07981666666660203
0.7269,0.223,-0.0225,-0.4314,0.0329,0.0238,-35.9275,-233.8875,84.6213,-5.589401775703134,72.58708474653211,15.353558717278277,0.07981666666660203
0.7269,0.223,-0.0225,-0.4314,0.0329,0.0238,-35.9275,-233.8875,68.9413,-5.756743818104565,72.8595713299244,15.376630537942642,0.07981666666660203
0.7726,0.6392,-0.063,-0.4314,0.0329,0.0238,-35.98,-235.795,68.5825,-5.632435064244314,50.575277820471904,6.125172979666861,0.08008333333327755
0.7726,0.6392,-0.063,-0.431,0.0406,0.0038,-32.5238,-235.5675,65.8525,-5.629038323991572,50.266249355140936,1.8350837552515982,0.08008333333327755
0.5819,0.4993,-0.0504,-0.431,0.0406,0.0038,-32.5238,-235.5675,65.8525,-5.759902324810249,49.240151129815644,1.7921230049511978,0.08008333333327755
1.1636,0.7495,-0.3977,-0.431,0.0406,0.0038,-29.0238,-235.095,69.405,-27.199907296318173,53.8371303543337,5.630923399192563,0.08008333333327755
1.1636,0.7495,-0.3977,-0.431,0.0486,-0.0145,-29.0238,-235.095,69.405,-27.925890070603405,53.9001947940741,2.6832802058391865,0.08008333333327755
1.093,0.6492,-0.4018,-0.4307,0.0486,-0.0145,-31.43,-199.15,81.8213,-31.634151988459138,55.05131028852754,3.6655960298058328,0.08008333333327755
1.093,0.6492,-0.4018,-0.4307,0.0486,-0.0145,-31.43,-199.15,81.8213,-31.750257995332575,55.06480366579556,3.6704809471202373,0.08008333333327755
0.8198,0.2872,-0.2907,-0.4307,0.0486,-0.0145,-43.05,-165.1387,96.215,-45.03485413171286,63.420534130131166,9.060563546682932,0.08008333333327755
0.8198,0.2872,-0.4468,-0.4317,0.0554,-0.0205,-43.05,-165.1387,96.215,-56.98653735550497,57.12479385624524,10.3090309734661,0.08008333333327755
1.0623,0.3909,-0.4459,-0.4317,0.0554,-0.0205,-39.2612,-153.8513,96.1625,-48.96728939957955,60.79224835698877,9.680249101263254,0.08034999999995307
1.1624,0.4485,-0.4645,-0.4317,0.0554,-0.0205,-39.2612,-120.7412,103.985,-46.07849680622071,60.94733536578997,8.931589556136867,0.08034999999995307
1.1624,0.4485,-0.4645,-0.4382,0.062,-0.0362,-52.1063,-120.7412,103.985,-46.005401536204275,60.948778393174486,7.290471025073354,0.08034999999995307
0.6936,-0.2796,-0.1817,-0.4382,0.062,-0.0362,-56.9712,-101.745,97.5188,-145.22516464033487,64.29032934619141,16.24048965752639,0.08034999999995307
0.6936,-0.2796,-0.1817,-0.4382,0.062,-0.0362,-56.9712,-101.745,97.5188,-146.95133250831884,64.3234116622134,16.32680764742486,0.08034999999995307
0.9295,0.3528,-0.3594,-0.4382,0.062,-0.0362,-29.5225,-101.2463,71.4613,-48.9081280347267,61.58721426720875,7.366974552085736,0.08034999999995307
0.8612,0.1771,-0.2935,-0.4394,0.0702,-0.0315,-29.5225,-101.2463,71.4613,-58.56043651970263,68.20594011376824,22.753226403304446,0.08034999999995307
0.8612,0.1771,-0.2935,-0.4394,0.0702,-0.0315,-44.1175,-84.6825,77.7262,-58.88546793185806,68.29434117769114,22.902056464174237,0.08034999999995307
0.9026,-0.1434,-0.3904,-0.4394,0.0702,-0.0315,-44.1175,-84.6825,77.7262,-109.0198856320885,65.29786899856721,23.204754239205425,0.08034999999995307
0.9026,-0.1434,-0.3904,-0.441,0.0745,-0.0515,-31.0363,-75.7838,56.6038,-110.13263985538315,65.26113492698893,28.072261851863225,0.08034999999995307
0.4312,0.0651,-0.0459,-0.441,0.0745,-0.0515,-31.0363,-75.7838,56.6038,-37.56233960819424,79.29637990007154,172.75192695750349,0.08034999999995307
0.92,0.2725,-0.3716,-0.441,0.0745,-0.0515,-12.0138,-91.7787,33.2588,-52.45438623952203,63.827501646049136,15.45574346773438,0.080600000000004
0.92,0.2725,-0.3716,-0.4383,0.0771,-0.0596,-18.655,-100.73,34.055,-53.6793879893872,63.406297578485095,13.475574733333696,0.080600000000004
0.9259,-0.1224,-0.3949,-0.4383,0.0771,-0.0596,-18.655,-100.73,34.055,-104.42700107964617,65.87077835774483,31.56432806689356,0.080600000000004
0.9259,-0.1224,-0.3949,-0.4383,0.0771,-0.0596,0.7262,-85.5488,19.81,-105.96104337673957,65.93532363564401,31.740208082168365,0.080600000000004
1.0518,0.2929,-0.4681,-0.4383,0.0771,-0.0596,0.7262,-85.5488,19.81,-79.60807650745474,62.45695610579824,15.553974415024902,0.080600000000004
1.0518,0.2929,-0.4199,-0.4368,0.08,-0.0594,3.2812,-58.03,18.3575,-60.237057569586874,63.972795872068396,16.5668582899119,0.080600000000004
0.9539,0.1659,-0.4199,-0.4368,0.08,-0.0594,3.2812,-58.03,18.3575,-66.72228847141064,64.63960948142179,25.324802686775467,0.08111666666661677
1.0607,0.1344,-0.4413,-0.4368,0.08,-0.0594,-3.3775,-30.0562,14.0875,-71.43034472320765,66.38957417662289,30.293970254926776,0.08138333333329228
1.0607,0.1344,-0.4413,-0.4358,0.0791,-0.0698,-3.3775,-30.0562,14.0875,-72.641860327537,66.48914052486244,31.150534937558405,0.08140000000003056
1.0223,0.2793,-0.3559,-0.4358,0.0791,-0.0698,-1.4963,7.49,1.4175,-62.23371902674029,66.20217762092979,15.589958934180299,0.08141666666665515
1.0223,0.2793,-0.3559,-0.4358,0.0791,-0.0698,-1.4963,7.49,-18.7425,-57.042336116175356,66.13296597126455,13.528519447791176,0.08141666666665515
1.2584,0.3287,-0.457,-0.4358,0.0791,-0.0698,-18.1038,41.1688,-18.1038,-54.42292198422708,65.91321160581239,15.540820571381849,0.08141666666665515
1.0175,0.1867,-0.3546,-0.4371,0.0747,-0.0607,-33.53,85.6537,-34.1862,-62.0033608631099,68.42358377745273,25.79682893929621,0.08141666666665515
1.0175,0.1867,-0.3546,-0.4371,0.0747,-0.0607,-33.53,85.6537,-34.1862,-62.22606219487145,68.50035865174151,25.916485417307424,0.08141666666665515
1.0425,0.4063,-0.3307,-0.4371,0.0747,-0.0607,-43.7588,110.1888,-53.165,-39.66463912599376,63.420018061003056,0.2752588552165894,0.08141666666665515
1.0425,0.4063,-0.3307,-0.441,0.0673,-0.033,-43.7588,110.1888,-53.165,-39.15497672917745,63.321707855806096,7.18698277655058,0.08141666666665515
0.8331,0.2293,-0.22,-0.441,0.0673,-0.033,-58.9663,128.6512,-52.64,-43.7358721948714,69.00815543404389,14.08319443203337,0.08141666666665515
1.0126,0.3417,-0.2909,-0.441,0.0673,-0.033,-58.9663,128.6512,-52.64,-40.464740731597196,66.15531555811114,9.39326825255764,0.08244999999999436
1.0126,0.3417,-0.2909,-0.4423,0.0577,-0.013,-60.235,137.06,-57.0062,-40.409720874286954,66.09945588636549,11.810480331422868,0.08244999999999436
1.0515,0.363,-0.334,-0.4423,0.0577,-0.013,-60.235,137.06,-57.0062,-42.58112971333575,64.8899652096833,11.782379677777676,0.08244999999999436
1.0515,0.363,-0.334,-0.4423,0.0577,-0.013,-74.0075,149.9662,-58.3013,-42.61698743089339,64.868170476366,11.782174611114675,0.08271666666666988
1.3516,0.3797,-0.4902,-0.4423,0.0577,-0.013,-94.1675,180.8975,-65.5375,-52.13765453243115,65.34879094284061,14.73901166195463,0.08271666666666988
1.3516,0.2235,-0.2611,-0.444,0.0468,0.0087,-94.7363,180.8975,-65.5375,-49.46503535633279,75.57070465650594,25.45817691145999,0.08271666666666988
1.0619,0.2214,-0.2611,-0.444,0.0468,0.0087,-113.4437,214.34,-86.0912,-49.70159502303654,72.17252767148145,19.991706048279198,0.08271666666666988
1.1415,0.331,-0.2471,-0.444,0.0468,0.0087,-113.4437,214.34,-86.0912,-36.85600991423006,70.13134766671897,16.1738647796185,0.08271666666666988
1.1415,0.331,-0.2471,-0.4385,0.0295,0.0487,-126.7787,242.6638,-111.615,-36.74317760881341,70.10715416705213,20.142496278883485,0.08271666666666988
0.8754,0.2651,-0.1097,-0.4385,0.0295,0.0487,-126.7787,242.6638,-111.615,-22.5921251616569,71.8382592700454,23.660767599311693,0.08271666666666988
0.8754,0.2651,-0.1097,-0.4385,0.0295,0.0487,-131.7137,271.4425,-132.5712,-22.4809181830575,71.85400152133788,23.67526900910343,0.0829833333333454
0.7041,0.2135,0.0374,-0.4385,0.0295,0.0487,-131.7137,271.4425,-132.5712,9.690839913491574,72.88157565701226,24.69979982630741,0.08505000000002383
0.9054,0.1949,-0.0859,-0.4262,0.0135,0.1021,-134.3038,281.6537,-155.575,-23.536637108246026,76.7370002261282,38.149830674041326,0.08531666666669935
0.9054,0.1949,-0.0859,-0.4262,0.0135,0.1021,-134.3038,281.6537,-155.575,-23.783109094349683,76.76202137458223,38.19757456116759,0.08531666666669935
0.9428,0.2479,-0.0791,-0.4262,0.0135,0.1021,-131.0488,286.4925,-185.4037,-17.74312043996224,74.58235492558909,37.754046200745336,0.08531666666669935
0.9428,0.2479,-0.0791,-0.4026,-0.0051,0.139,-134.2863,286.58,-223.2388,-17.697200557453435,74.5704924041564,40.620355475079975,0.08558333333326118
0.9626,0.1873,0.0063,-0.4026,-0.0051,0.139,-134.2863,286.58,-223.2388,1.7808858729026609,78.96315742714525,60.849619835306875,0.08558333333326118
0.8481,0.2067,-0.0673,-0.4026,-0.0051,0.139,-137.2787,286.58,-257.1363,-17.89105431968837,75.63681990338958,41.81101614502099,0.08558333333326118
0.8481,0.2067,-0.0673,-0.3628,-0.0248,0.1887,-137.2787,286.58,-257.1363,-18.03382467592465,75.62380850345883,45.36321032964021,0.08558333333326118
0.743,0.4232,0.0928,-0.3628,-0.0248,0.1887,-128.9925,286.58,-278.7663,12.133392683483411,59.810091508212984,48.32198252424736,0.08558333333326118
0.743,0.4232,0.0928,-0.3628,-0.0248,0.1887,-128.9925,286.58,-278.7663,12.36634221174844,59.75305950169848,48.33230484032098,0.08558333333326118
0.785,0.5222,-0.0376,-0.3628,-0.0248,0.1887,-135.3887,286.58,-278.6963,-3.9970616608319802,56.31134983611816,38.67955702300205,0.08583333333331211
0.785,0.357,-0.0422,-0.3091,-0.035,0.2368,-135.3887,286.58,-278.6963,-6.721300108991097,65.36213582296465,51.18620734684517,0.08583333333331211
0.6573,0.357,-0.0422,-0.3091,-0.035,0.2368,-146.9037,286.58,-274.96,-6.741358021833932,61.33996574753009,48.678597270350046,0.08583333333331211
0.5353,0.4185,-0.0302,-0.3091,-0.035,0.2368,-146.9037,286.58,-277.3138,-4.145183237979283,51.94350964323434,45.26952482836697,0.08583333333331211
0.5353,0.4185,-0.0302,-0.2429,-0.037,0.2834,-161.735,286.58,-277.3138,-4.127560584105938,51.90944296586539,55.11875474945288,0.08583333333331211
0.3056,0.3557,-0.0084,-0.2429,-0.037,0.2834,-181.475,286.58,-279.58,-1.368058912603027,40.70011425812649,53.022418809091405,0.08609999999998763
0.3056,0.3557,-0.0084,-0.2429,-0.037,0.2834,-181.475,286.58,-279.58,-1.352895448128951,40.65980621826856,53.01510528822881,0.08609999999998763
-0.0279,0.4552,0.2316,-0.2429,-0.037,0.2834,-191.7038,286.58,-278.215,26.819082661005947,-2.96859476534653,47.41318786478225,0.08609999999998763
-0.2131,0.3963,0.3469,-0.1696,-0.0269,0.3104,-191.7038,286.58,-278.215,41.122379117645416,-21.959818658854335,47.990768555218196,0.08609999999998763
-0.2131,0.3963,0.3469,-0.1696,-0.0269,0.3104,-189.595,286.58,-255.6138,41.19678882048089,-22.028424625053052,47.992783570248946,0.08609999999998763
-0.424,0.6813,0.4357,-0.1696,-0.0269,0.3104,-189.595,286.58,-255.6138,32.6446559293474,-27.645600084057566,51.76714824978367,0.08609999999998763
-0.424,0.6813,0.4357,-0.098,-0.0092,0.3445,-180.1362,286.58,-215.46,32.59968168682226,-27.667687645095988,60.12310055173955,0.08609999999998763
-0.657,0.2013,0.8081,-0.098,-0.0092,0.3445,-180.1362,286.58,-215.46,75.77182731691929,-38.22070175558631,18.215150378943452,0.08609999999998763
-0.5184,0.1475,0.5139,-0.098,-0.0092,0.3445,-174.9125,286.58,-195.335,73.99560232103182,-44.08556419470091,19.150325319034874,0.08609999999998763
-0.5184,0.1475,0.5139,-0.0353,0.0087,0.3401,-142.8087,286.58,-180.5388,73.98548983198994,-44.115806397649514,18.559899985691807,0.08609999999998763
-0.3304,0.7127,0.4871,-0.0353,0.0087,0.3401,-142.8087,286.58,-180.5388,34.62748911569226,-21.073154663892783,69.1434788328996,0.08609999999998763
-0.3304,0.7127,0.4871,-0.0353,0.0087,0.3401,-152.5825,286.58,-143.8062,34.352744476527775,-20.944647581407743,69.3199505768034,0.08634999999992488
-0.2353,0.4166,0.4373,-0.0353,0.0087,0.3401,-152.5825,286.58,-143.8062,46.310056534436306,-21.282754613996186,61.42912232346484,0.08634999999992488
-0.1545,0.344,0.3594,0.0198,0.0316,0.343,-162.61,286.58,-127.3475,46.25455625416717,-17.284410763850296,74.05492500102,0.08634999999992488
-0.1545,0.344,0.3594,0.0198,0.0316,0.343,-162.61,286.58,-127.3475,46.25421600918989,-17.252642359831423,74.09897284159338,0.0887000000000171
-0.4194,0.6634,0.3751,0.0198,0.0316,0.343,-143.7187,286.58,-125.3525,29.600981902021292,-28.731440837446346,74.71975351683679,0.08894999999995434
-0.4194,0.6634,0.3751,0.0746,0.0549,0.332,-143.7187,286.58,-125.3525,29.485516691948362,-28.82411333281892,82.04951317582612,0.08894999999995434
-0.7944,0.2883,0.3996,0.0746,0.0549,0.332,-153.44,286.58,-101.3163,54.03015014936451,-57.895651032525144,34.79841719885982,0.08894999999995434
-1.0587,0.1555,0.6137,0.0746,0.0549,0.332,-139.5975,286.58,-73.85,75.62632345426864,-59.10398884204736,6.576293790937998,0.08921666666662986
-1.0587,0.1555,0.6137,0.1182,0.0735,0.3106,-139.5975,286.58,-73.85,75.7804650309352,-59.12068743943978,1.3724229249176478,0.08921666666662986
-1.1543,0.193,0.7183,0.1182,0.0735,0.3106,-124.985,286.58,-67.0512,74.96694214347231,-57.23339889472328,2.691527599876386,0.08921666666662986
-1.1543,0.193,0.7183,0.1182,0.0735,0.3106,-124.985,286.58,-67.0512,74.96045955818308,-57.204612943891284,2.6961295815409256,0.08921666666662986
-0.989,0.1898,0.6373,0.1182,0.0735,0.3106,-116.1913,286.58,-63.4987,73.4287115930247,-56.10280665354627,5.233465694868454,0.08921666666662986
-0.989,0.1898,0.5503,0.1545,0.0889,0.2844,-116.1913,286.58,-63.4987,70.99160760394618,-59.464419936047314,2.7979906656680695,0.08921666666662986
-1.1031,0.3381,0.5503,0.1545,0.0889,0.2844,-102.0338,286.58,-52.675,58.55622573124965,-59.64738023804915,23.05904393185883,0.08948333333330538
-1.3119,0.2957,0.662,0.1545,0.0889,0.2844,-102.0338,286.58,-52.675,65.85887839026489,-61.04432470371555,10.743227692580364,0.08948333333330538
-1.3119,0.2957,0.662,0.181,0.0983,0.2613,-102.83,286.58,-32.0075,65.9300997349941,-61.07124764295113,6.15458513644608,0.08948333333330538
-1.0443,0.2793,0.5163,0.181,0.0983,0.2613,-102.83,286.58,-18.5675,61.63019939242333,-60.68362533705634,13.924581657864497,0.08948333333330538
-1.0443,0.2793,0.5163,0.181,0.0983,0.2613,-109.2262,286.58,-19.1537,61.58856587032542,-60.66088283463411,13.951688969516029,0.08948333333330538
-0.9143,0.2463,0.3082,0.181,0.0983,0.2613,-113.1025,286.58,-20.5362,51.459622780283865,-66.34457426713506,26.603024239025068,0.08948333333330538
-0.7852,0.3284,0.1002,0.2025,0.1098,0.2402,-113.1025,286.58,-20.5362,17.271367100433856,-66.37963272400215,67.9939473101951,0.08948333333330538
-0.7852,0.3284,0.1002,0.2025,0.1098,0.2402,-133.9888,286.58,-21.3237,16.970028541580426,-66.3814773209835,68.13834848825765,0.08948333333330538
-0.8325,0.1591,0.1266,0.2025,0.1098,0.2402,-133.9888,286.58,-21.3237,38.35002387538288,-75.77641364976446,33.61612613853673,0.08948333333330538
-0.8325,0.1591,0.1266,0.2242,0.1218,0.2143,-152.2325,286.58,-30.6075,38.50912826123717,-76.25807741825783,28.538890797585992,0.08948333333330538
-1.0977,0.0836,0.3064,0.2242,0.1218,0.2143,-152.2325,286.58,-30.6075,74.50135735820126,-73.94537355754875,19.91598155179358,0.08973333333335631
-1.5848,0.1659,0.6708,0.2242,0.1218,0.2143,-145.915,286.58,-38.4738,76.0975728626793,-66.64453748224399,27.54821648572315,0.08973333333335631
-1.5848,0.1659,0.6708,0.2414,0.1314,0.1862,-145.915,286.58,-38.4738,76.10847421762,-66.44713988301865,40.133090610967606,0.08973333333335631
-1.6087,0.0122,0.8106,0.2414,0.1314,0.1862,-127.9512,286.4575,-31.2025,89.03630367078802,-63.361981068433494,65.12130722778691,0.08973333333335631
-1.6087,0.0122,0.8106,0.2414,0.1314,0.1862,-92.1113,268.5113,-20.5625,89.1366353145355,-63.26017012615891,65.20850088153915,0.08973333333335631
-1.6692,0.0874,0.7785,0.2414,0.1314,0.1862,-93.275,268.5113,-20.5625,83.65348261597363,-64.77455827737492,54.57656519469208,0.08973333333335631
-1.6692,0.4912,0.3824,0.2501,0.1354,0.1641,-57.89,211.4,-10.0188,38.684270848794704,-68.98826733494533,23.00277852287611,0.08973333333335631
-1.2769,0.4912,0.3824,0.2501,0.1354,0.1641,-57.89,211.4,-10.0188,37.9142314812816,-64.59388101620638,30.969777773856606,0.08973333333335631
-0.6335,0.2253,-0.0552,0.2501,0.1354,0.1641,-80.2113,180.0925,-6.3175,-13.126410748890052,-68.79265495160594,89.42586775860994,0.08973333333335631
-0.6335,0.2253,-0.0552,0.2567,0.1394,0.1488,-80.2113,180.0925,-6.3175,-13.758728799556474,-69.66212203740899,88.19327364274766,0.08973333333335631
-0.6037,0.3844,-0.3011,0.2567,0.1394,0.1488,-100.3625,209.3262,-15.1462,-37.83052158381147,-52.39718944383937,125.79839005942014,0.08973333333335631
-0.6037,0.3844,-0.3011,0.2567,0.1394,0.1488,-100.3625,209.3262,-15.1462,-38.069160754475064,-51.133084804006664,125.97798834830039,0.09000000000003183
-1.1293,0.4498,-0.0536,0.2567,0.1394,0.1488,-133.2888,251.3963,-3.29,-7.029292107078263,-58.70180103348014,84.40741787500919,0.09000000000003183
-1.4963,0.0456,0.1508,0.2609,0.1424,0.1229,-133.2888,251.3963,-3.29,72.57590327698996,-69.95354569548192,37.14416708149293,0.09000000000003183
-1.4963,0.0456,0.1508,0.2609,0.1424,0.1229,-173.005,258.3788,6.09,73.17189701554672,-82.52415521149639,37.62761279184115,0.09000000000003183
-1.6792,-0.1922,0.4411,0.2609,0.1424,0.1229,-162.7063,223.3963,-3.8675,113.29679024112673,-77.58923943165775,95.53666479315164,0.09000000000003183
-1.6792,-0.1922,0.4411,0.2646,0.1454,0.115,-162.7063,223.3963,-3.8675,113.5426311305043,-75.51499153070272,98.66852006565595,0.09103333333325736
-1.5098,0.0384,0.4347,0.2646,0.1454,0.115,-142.7738,170.3887,-23.7563,85.1513209484744,-73.95207186467583,70.22981718607467,0.09103333333325736
-1.3607,0.1263,0.3015,0.2646,0.1454,0.115,-142.7738,170.3887,-23.7563,67.3957146357873,-76.37759206081854,43.22267460822413,0.09129999999993288
-1.3607,0.1263,0.3015,0.2667,0.148,0.1069,-131.0137,117.2763,-29.96,67.27187214326545,-76.48763233680793,46.84168231286278,0.09129999999993288
-1.0088,0.1233,0.0034,0.2667,0.148,0.1069,-131.0137,117.2763,-29.96,2.079008879148011,-82.79924595021122,40.449186079792156,0.09129999999993288
-1.0088,0.1233,0.0034,0.2667,0.148,0.1069,-128.0038,86.2225,-33.8713,1.5834186186417418,-83.0219013570638,41.19083204284602,0.09154999999998381
-0.6142,-0.0583,-0.3945,0.2667,0.148,0.1069,-128.0038,86.2225,-33.8713,-97.62838369514179,-57.80875520406046,151.28802633169857,0.09154999999998381
-0.8484,0.6759,-0.2037,0.2735,0.1568,0.103,-129.8763,101.5437,-52.29,-17.391682843712854,-50.38621872537152,120.10504535990712,0.09154999999998381
-0.8573,0.6759,-0.2037,0.2735,0.1568,0.103,-129.8763,101.5437,-28.7087,-16.776299404096534,-50.52555753444946,119.35859896068295,0.09154999999998381
-1.1753,0.1079,0.0935,0.2735,0.1568,0.103,-139.9125,139.0725,-28.7087,40.49952796882076,-81.87794740110664,8.381307861421819,0.09154999999998381
-1.1753,0.1079,0.0935,0.2739,0.159,0.1026,-156.695,135.6337,1.0762,40.90772651653189,-82.81171662840363,9.849897299625182,0.09154999999998381
-1.5695,-0.2719,0.2502,0.2739,0.159,0.1026,-156.695,135.6337,1.0762,136.766332638429,-78.07985824413443,119.94632177605125,0.09154999999998381
-1.5695,-0.2719,0.0316,0.2739,0.159,0.1026,-117.1363,98.4287,-14.21,173.05972572228526,-79.9474551512964,147.51652853887862,0.09181666666665933
-1.3023,-0.0794,0.0465,0.2739,0.159,0.1026,-117.1363,98.4287,-14.21,149.84398407383839,-85.4859715299486,121.99587632031584,0.09181666666665933
-1.127,0.1093,-0.1551,0.2767,0.1598,0.0918,-101.8063,60.6637,-33.285,-52.826986096032186,-80.60182317560331,95.39009084223942,0.09181666666665933
-1.127,0.1093,-0.1551,0.2767,0.1598,0.0918,-101.8063,60.6637,-33.285,-54.80784122016496,-80.44821735051065,98.9701046497743,0.09181666666665933
-1.0824,0.2295,-0.0717,0.2767,0.1598,0.0918,-102.7075,40.7925,-24.2288,-17.71266929998783,-77.60663207263914,66.13997787125497,0.09181666666665933
-1.0824,0.2295,-0.0717,0.2766,0.1611,0.0981,-102.7075,40.7925,-24.2288,-17.353275986029086,-77.48167468823239,66.50116841719964,0.09181666666665933
-1.4295,0.0433,0.2561,0.2766,0.1611,0.0981,-102.55,13.7375,-4.6375,79.45494056433597,-78.99688718687376,53.74869228007126,0.09181666666665933
-1.7501,-0.1437,0.4389,0.2766,0.1611,0.0981,-86.24,-52.5,-12.8013,107.79839349600171,-75.55154712916011,98.11347305421779,0.09208333333333485
-1.7501,-0.1437,0.4389,0.2777,0.1629,0.1167,-86.24,-52.5,-12.8013,108.12512449629955,-75.24699839289373,93.86007105666572,0.09208333333333485
-1.8952,-0.1907,0.4692,0.2777,0.1629,0.1167,-51.24,-151.7513,-24.5525,112.04144799169234,-75.04698421638743,97.72139213555982,0.09208333333333485
-1.8952,-0.1907,0.4692,0.2777,0.1629,0.1167,-51.24,-151.7513,-24.5525,112.11712780532112,-75.0383121297687,97.74651574995103,0.09208333333333485
-1.9802,-0.0786,0.4258,0.2777,0.1629,0.1167,-15.1725,-249.795,-27.2738,101.20217801981916,-77.56384869568993,82.55299550891513,0.09208333333333485
-1.8607,0.0789,0.0805,0.2746,0.1663,0.1572,-15.1725,-249.795,-27.2738,49.12249460493718,-86.18549036100879,2.6805998846008854,0.09208333333333485
-1.8607,0.0789,0.0805,0.2746,0.1663,0.1572,6.6238,-285.1537,-20.7025,46.01222476900094,-86.51523757627952,2.363158442368427,0.09208333333333485
-1.7209,0.0913,-0.0483,0.2746,0.1663,0.1572,6.6238,-285.1537,-20.7025,-18.77457530417682,-86.56261349918024,75.01758007211511,0.09208333333333485
-1.7209,0.0913,-0.0483,0.2618,0.163,0.212,15.5925,-285.6,-11.1912,-27.346987549421122,-86.56494648036173,83.65361697311756,0.09208333333333485
-1.554,-0.0453,-0.0336,0.2618,0.163,0.212,15.5925,-285.6,-4.4713,-136.63970653283764,-87.46667688927015,163.78609713726317,0.09208333333333485
-1.554,-0.0453,-0.1807,0.2618,0.163,0.212,20.2213,-285.6,-3.9288,-105.57340689102243,-84.92712060179547,157.67620385565576,0.0923333333332721
-1.3507,-0.0432,-0.1807,0.2618,0.163,0.212,27.8862,-285.6,-14.7437,-103.517792822349,-82.37612489698667,158.50904228886807,0.0923333333332721
-1.2431,0.067,-0.1846,0.2386,0.1617,0.271,27.8862,-285.6,-14.7437,-71.1909572808469,-81.12481179580585,133.87812885792263,0.0923333333332721
-1.2431,0.067,-0.1846,0.2386,0.1617,0.271,33.8625,-285.6,-24.7712,-70.08401221270181,-81.0270936115805,133.7924685093403,0.0923333333332721
-1.2033,0.0234,-0.0493,0.2386,0.1617,0.271,33.8625,-285.6,-24.7712,-64.76374478903871,-87.129467368266,125.38867609013279,0.0923333333332721
-1.2033,0.0234,-0.0493,0.2062,0.1591,0.3167,32.235,-285.6,-24.2025,-64.61347021128915,-87.39127041127817,129.06688764668306,0.0972833333332801
-1.2394,-0.1453,0.1663,0.2062,0.1591,0.3167,32.235,-285.6,-24.2025,125.34014221145486,-80.22708587963706,73.0594868666328,0.0972833333332801
-1.1717,-0.1654,0.332,0.2062,0.1591,0.3167,51.8175,-285.6,-42.7962,116.64831740211466,-72.6226876765891,63.69954721700039,0.0972833333332801
-1.1717,-0.1654,0.332,0.1684,0.1553,0.3622,51.8175,-285.6,-42.7962,116.48527102800482,-72.43859673589833,57.41596791037394,0.09753333333333103
-1.2837,-0.0866,0.4006,0.1684,0.1553,0.3622,83.8425,-285.6,-62.5363,102.36567782803162,-72.29539323319466,41.920524055940746,0.09753333333333103
-1.2837,-0.0866,0.4006,0.1684,0.1553,0.3622,83.8425,-285.6,-71.365,102.20021496726446,-72.29304254242327,41.86663465692474,0.09753333333333103
-1.2193,-0.1381,0.3992,0.1684,0.1553,0.3622,110.6525,-285.6,-71.365,109.02127480157552,-70.91199787449469,50.24789740930087,0.09780000000000655
-1.0986,0.029,0.3783,0.123,0.1464,0.3971,131.1537,-285.6,-80.9725,85.79279913871652,-70.9468114409521,18.654127675020188,0.09780000000000655
-1.0986,0.029,0.3783,0.123,0.1464,0.3971,131.1537,-285.6,-80.9725,85.61768167443438,-70.94724943485438,18.544252199388467,0.09780000000000655
-0.9706,0.1373,0.3456,0.123,0.1464,0.3971,147.8663,-285.6,-80.5175,68.44878687576264,-69.06040696754053,1.6519207252506496,0.0980499999999438
-0.9706,0.1373,0.3456,0.0683,0.1326,0.4326,147.8663,-285.6,-80.5175,68.33383536392728,-69.03653169081741,5.242812576463506,0.0980499999999438
-0.8604,0.0445,0.3863,0.0683,0.1326,0.4326,155.365,-285.6,-65.5987,83.33251791482836,-65.73194548156123,12.232321954233155,0.0980499999999438
-0.8604,0.2475,0.3941,0.0683,0.1326,0.4326,155.365,-285.6,-65.5987,58.0329629142797,-61.6565679092283,18.404606891467285,0.0980499999999438
-0.793,0.2424,0.3941,0.0683,0.1326,0.4326,176.1463,-285.6,-48.2475,58.4033809865573,-59.77938743770949,18.297015685833035,0.0980499999999438
-0.5208,0.3634,0.505,0.0066,0.1104,0.4443,176.1463,-285.6,-48.2475,54.28437876300984,-40.35655580877265,32.34234477702237,0.0980499999999438
-0.5208,0.3634,0.505,0.0066,0.1104,0.4443,183.575,-285.6,-28.0613,54.261185837274226,-39.94807111416568,32.39119102826994,0.0980499999999438
-0.1678,0.1904,0.1535,0.0066,0.1104,0.4443,190.5225,-285.6,-11.1912,38.95579963363352,-35.020339824083415,53.927279911484206,0.0980499999999438
-0.1678,0.1904,0.1535,-0.0558,0.0826,0.4523,190.5225,-285.6,-11.1912,38.87608985612719,-34.51247472176205,51.02915037562465,0.09831666666661931
-0.1495,0.6695,0.3359,-0.0558,0.0826,0.4523,182.7088,-285.6,17.1938,26.710138580756578,-12.410252315045911,73.40865506698813,0.09831666666661931
0.1422,0.2196,0.214,-0.0558,0.0826,0.4523,182.7088,-285.6,17.1938,44.16478241690747,23.07676950577057,111.77149164193948,0.09831666666661931
0.1422,0.2196,0.214,-0.1126,0.0625,0.434,146.3525,-285.6,34.6587,44.25941430816472,24.832508932197076,99.41801214438051,0.09831666666661931
-0.1971,0.3583,0.5678,-0.1126,0.0625,0.434,146.3525,-285.6,34.6587,57.655533946712964,-15.2806205088284,39.20008014385362,0.09831666666661931
-0.1971,0.3583,0.5678,-0.1126,0.0625,0.434,137.0163,-285.6,41.405,57.74610223761033,-16.336413455578654,38.99065676779674,0.09831666666661931
-0.4142,0.355,0.6091,-0.1126,0.0625,0.434,137.0163,-285.6,41.405,59.75063015843972,-30.120875892844467,28.5426666248608,0.09831666666661931
0.0155,0.1463,0.355,-0.1684,0.049,0.4255,109.4713,-285.6,59.0625,67.53205589992906,1.7931803954108803,37.57854156138668,0.09831666666661931
0.0155,0.1463,0.355,-0.1684,0.049,0.4255,109.4713,-285.6,58.0387,67.60218239198424,2.303252135485863,37.609966144927974,0.09858333333329483
-0.0253,0.3818,0.4111,-0.1684,0.049,0.4255,97.65,-285.6,58.0387,47.32291867324872,-2.502559361102404,54.018812333266055,0.09858333333329483
-0.0253,0.3818,0.4111,-0.2195,0.037,0.4083,94.8063,-285.6,65.24,47.118431351824,-2.580803478494149,47.01611590347668,0.09858333333329483
0.3955,0.5639,0.3885,-0.2195,0.037,0.4083,94.8063,-285.6,65.24,34.695335464633814,29.5349472895051,79.28965626658173,0.09858333333329483
0.3955,0.4457,0.6301,-0.2195,0.037,0.4083,74.5062,-285.6,86.2225,54.4628210904324,27.15914272174545,80.71720689300483,0.09858333333329483
0.1615,0.4457,0.6301,-0.2195,0.037,0.3882,74.5062,-285.6,86.2225,54.722927758334,11.989682586218699,53.21092524400797,0.09858333333329483
0.4307,0.5459,0.3732,-0.267,0.032,0.3882,60.8125,-285.6,85.0238,34.685001649686626,32.83864990209011,73.40076629153695,0.09858333333329483
0.4307,0.5459,0.3732,-0.267,0.032,0.3882,60.8125,-285.6,85.0238,34.36338579178276,33.074199075651414,73.47098166648854,0.09858333333329483
0.2017,0.3054,0.6229,-0.267,0.032,0.3882,39.9175,-285.6,89.8538,63.169017054463524,16.39209690879331,42.608495390113234,0.09858333333329483
0.2017,0.3054,0.6229,-0.3096,0.0326,0.3575,39.9175,-285.6,89.8538,63.86465550211654,16.213377011232993,32.20665933282479,0.09858333333329483
0.2675,0.4141,0.4647,-0.3096,0.0326,0.3575,20.335,-285.6,85.6188,49.00869077573525,23.17725280826007,51.323759209904225,0.09858333333329483
0.4252,0.2883,0.3669,-0.3096,0.0326,0.3575,-1.6625,-285.6,76.51,50.536283038176684,42.101407414392064,82.32360074984585,0.09883333333334576
0.4252,0.2883,0.3669,-0.3474,0.037,0.342,-1.6625,-285.6,76.51,51.23988982999784,42.33796418159765,71.73742484687105,0.09883333333334576
0.4712,0.3098,0.3426,-0.3474,0.037,0.342,-14.385,-285.6,73.0625,48.10388940476087,45.528854746868625,77.60178344906922,0.09883333333334576
0.4712,0.3098,0.3426,-0.3474,0.037,0.342,-14.385,-285.6,73.0625,47.8933289659172,45.57053801936033,77.62217826729163,0.09883333333334576
0.4287,0.1171,0.4201,-0.3474,0.037,0.342,-17.92,-285.6,74.3225,72.9848743962249,44.52238926996613,80.060708495375,0.09883333333334576
0.7999,0.3349,0.2503,-0.3812,0.0418,0.3152,-17.92,-285.6,74.3225,38.738901800082374,62.17452037880251,95.05307103489196,0.09883333333334576
0.7999,0.3349,0.2503,-0.3812,0.0418,0.3152,-11.0337,-285.5475,68.215,36.94420837793511,62.40112827295142,95.10521080576741,0.09883333333334576
0.7282,-0.0772,0.3628,-0.3812,0.0418,0.3152,-11.0337,-285.5475,68.215,96.37535890082141,62.99865098862781,130.6303117770211,0.09883333333334576
0.7282,-0.0772,0.3628,-0.408,0.047,0.291,0.5163,-279.9825,65.9837,99.20488873189524,63.00698046218909,119.31407758384786,0.09883333333334576
0.8397,0.2494,0.4243,-0.408,0.047,0.291,0.5163,-279.9825,65.9837,79.3029613151356,59.67303805882715,105.20281751926561,0.09883333333334576
0.6679,0.389,0.6065,-0.408,0.047,0.291,30.5637,-261.0562,46.6375,58.01014279264972,43.16521592823536,45.74119227047528,0.09883333333334576
0.6695,0.389,0.6065,-0.408,0.0469,0.2675,40.4338,-236.9763,42.805,57.34085065502571,42.903322246834186,39.28903652586832,0.09910000000002128
0.6377,0.476,0.6079,-0.4266,0.0469,0.2675,40.4338,-236.9763,42.805,52.06708395788595,39.62710313834569,35.98050492421602,0.09910000000002128
0.6377,0.476,0.6079,-0.4266,0.0469,0.2675,50.5662,-227.2988,28.4288,51.94069584421035,39.557036108693204,35.9666593957467,0.09910000000002128
0.6226,0.5841,0.4543,-0.4266,0.0469,0.2675,50.5662,-227.2988,28.4288,38.14517876095289,40.060342886233684,42.78000583589409,0.09910000000002128
0.6226,0.5841,0.2825,-0.4396,0.049,0.2419,33.8187,-221.1562,30.1875,26.16005281690828,43.706593730539964,42.58675525090051,0.1011833333333243
0.685,0.2811,0.2938,-0.4396,0.049,0.2419,33.8187,-221.1562,30.1875,45.69610727849098,58.84345920325619,71.03890498335694,0.1011833333333243
0.4011,0.5802,0.4458,-0.4396,0.049,0.2419,24.4913,-224.6125,23.8263,37.851098432068255,29.833251108833522,28.876687192182143,0.1011833333333243
0.4011,0.5802,0.4458,-0.4533,0.0514,0.2131,24.4913,-224.6125,23.8263,37.549166561121815,28.77117664830389,23.597326895329335,0.10143333333326154
0.5128,0.3769,0.2837,-0.4533,0.0514,0.2131,3.115,-243.5562,28.8225,37.09533255094432,46.8118985606706,37.32869422285897,0.10143333333326154
0.5128,0.3769,0.2837,-0.4533,0.0514,0.2131,3.115,-257.495,36.1813,36.996810314944256,47.373554975224245,37.38463926552752,0.10143333333326154
0.6908,0.5034,0.1479,-0.4533,0.0514,0.2131,-5.8362,-257.495,36.1813,19.623428933423686,52.64621988928418,45.41018167765111,0.10169999999993706
0.7132,0.6002,0.0859,-0.4665,0.0574,0.1862,-19.1625,-259.7087,44.87,8.72833060078387,49.69334730991638,36.458638317686535,0.10169999999993706
0.7132,0.6002,0.0859,-0.4665,0.0574,0.1862,-19.1625,-259.7087,44.87,8.17446706600431,49.63228501843138,36.42442645757171,0.10169999999993706
0.8073,0.2761,-0.0102,-0.4665,0.0574,0.1862,-42.3063,-245.9362,60.7425,-1.8753822323514369,70.7727909638245,61.140526243861046,0.10169999999993706
0.8073,0.2761,-0.0102,-0.4773,0.0654,0.167,-42.3063,-245.9362,60.7425,-2.1101101451829676,71.10192409857824,59.802133222364226,0.10169999999993706
1.0995,0.3733,-0.1996,-0.4773,0.0654,0.167,-45.5962,-226.9925,58.7125,-27.5685677275872,68.97779760619218,43.049814183910655,0.10169999999993706
0.7949,0.3888,0.1071,-0.4773,0.0654,0.167,-45.5962,-226.9925,58.7125,14.468913199690022,63.194183067343985,50.05249207835821,0.10169999999993706
0.7949,0.3888,0.1071,-0.4845,0.0723,0.149,-56.595,-182.42,65.2487,15.384588030337481,63.101055733184694,45.650381658394004,0.10169999999993706
1.1244,0.1626,-0.0882,-0.4845,0.0723,0.149,-56.595,-182.42,65.2487,-27.708867300352022,80.40223175019213,62.43100297608197,0.101949999999988
1.1244,0.1626,-0.0882,-0.4845,0.0723,0.149,-65.6425,-162.8463,45.605,-28.465361082413395,80.65244575465444,62.5219641694481,0.101949999999988
0.9518,0.2869,-0.0264,-0.4845,0.0723,0.149,-69.615,-128.7563,28.0175,-5.58840204066536,73.39666255400387,61.402645716283104,0.101949999999988
0.9518,0.1932,-0.2065,-0.488,0.0758,0.1434,-69.615,-128.7563,28.0175,-46.31660294434946,73.45113037041826,39.11518985166892,0.101949999999988
1.1772,0.2023,-0.2065,-0.488,0.0758,0.1434,-86.2663,-91.7613,9.9225,-45.5970237181543,75.99789597577207,43.18743349035243,0.101949999999988
0.9514,-0.0553,-0.1149,-0.488,0.0758,0.1434,-86.2663,-91.7613,9.9225,-114.89307453831752,81.89134141455793,1.9971244709375031,0.101949999999988
0.9514,-0.0553,-0.1149,-0.4894,0.0758,0.147,-101.1675,-65.0738,-10.2812,-115.69301161870844,82.3121976566339,1.1519227924851752,0.101949999999988
0.7833,-0.1036,-0.0476,-0.4894,0.0758,0.147,-101.1675,-65.0738,-10.2812,-154.93336843878075,81.7860774846982,26.655879993012167,0.101949999999988
0.7833,-0.1036,-0.0476,-0.4894,0.0758,0.147,-100.345,-59.3688,-29.015,-155.31927213432974,81.72101681791187,27.070241586312555,0.10221666666666351
0.7402,-0.1622,-0.0457,-0.4894,0.0758,0.147,-100.345,-59.3688,-29.015,-164.17607078322948,77.33971844720315,28.9165360123902,0.10221666666666351
0.6888,-0.326,0.0033,-0.4871,0.0739,0.1338,-99.3213,-66.885,-32.8213,175.97821588854424,65.07560233038076,26.196081049789683,0.10221666666666351
0.6888,-0.326,0.0033,-0.4871,0.0739,0.1338,-99.3213,-66.885,-41.5887,179.385555048053,64.68136813033856,26.156554833455015,0.10221666666666351
0.9291,-0.254,-0.119,-0.4871,0.0739,0.1338,-82.4338,-81.2175,-41.5887,-150.8664299809645,72.98853814309268,19.196294834072795,0.10221666666666351
0.9291,-0.254,-0.119,-0.4855,0.0691,0.1386,-63.0438,-83.7637,-49.8225,-154.8333079482815,73.19660030881062,20.54035545584873,0.10221666666666351
1.0078,-0.3677,-0.0609,-0.4855,0.0691,0.1386,-63.0438,-83.7637,-49.8225,-170.34778134505868,69.77662295844239,26.254006548443378,0.10221666666666351
1.2912,-0.1765,-0.2513,-0.4855,0.0691,0.1386,-42.14,-80.5263,-71.1375,-126.14356330159633,76.5234632635884,5.311880664689278,0.10221666666666351
1.2912,-0.1765,-0.2513,-0.4777,0.0614,0.1391,-42.14,-80.5263,-71.1375,-125.1070877670848,76.62033223841696,6.612420007734472,0.10221666666666351
1.4423,0.2026,-0.3792,-0.4777,0.0614,0.1391,-22.225,-42.595,-87.9638,-64.6661720645879,73.4386381363775,27.101998965389004,0.10221666666666351
1.4423,0.2026,-0.3792,-0.4777,0.0614,0.1391,-22.225,-42.595,-87.9638,-62.007510541272836,73.40184509680459,27.859003793870254,0.10221666666666351
1.6474,0.1642,-0.3582,-0.4777,0.0614,0.1391,-27.3088,25.3663,-91.5863,-65.25214084531598,76.51323191061455,28.51160537468936,0.10248333333333903
1.6474,-0.0331,0.024,-0.4698,0.0534,0.1481,-27.3088,25.3663,-91.5863,136.53072222517824,88.44440900546475,96.82725592425302,0.10248333333333903
1.2575,-0.0331,0.024,-0.4698,0.0534,0.1481,-17.0187,92.89,-97.16,143.6257594209832,88.1409927776042,100.59912686236618,0.10248333333333903
1.6231,0.4816,-0.2064,-0.4698,0.0534,0.1481,-0.245,138.1013,-119.28,110.6450742895079,72.24511375975193,44.68401239503082,0.10248333333333903
1.6231,0.4816,-0.2064,-0.4558,0.0394,0.1664,-0.245,138.1013,-119.28,84.1845739641939,72.11016462675234,45.086627118368924,0.10248333333333903
1.3394,0.3832,-0.0783,-0.4558,0.0394,0.1664,-8.6713,191.0038,-119.77,-1.1198337026656986,73.70805894847729,54.28110721860802,0.10248333333333903
1.3394,0.3832,-0.0783,-0.4558,0.0394,0.1664,-8.6713,191.0038,-119.77,-10.412366211434826,73.7215681827868,54.32923018566205,0.10248333333333903
1.1964,0.283,-0.0494,-0.4558,0.0394,0.1664,-8.9862,229.3025,-133.4725,-9.955473422400841,76.47674640839747,60.491135597630766,0.10325000000000273
1.1946,0.6897,-0.1014,-0.4376,0.0256,0.1838,-8.9862,229.3025,-133.4725,-8.531377186558506,59.86096668277377,40.010808438972234,0.10325000000000273
1.1946,0.6897,-0.1014,-0.4376,0.0256,0.1838,-24.08,256.8563,-136.3862,-8.370551598311216,59.73505367307099,39.9214734852029,0.10325000000000273
0.9279,0.213,0.0614,-0.4376,0.0256,0.1838,-24.08,256.8563,-136.3862,15.08591074914992,76.4392506122508,80.38422464252902,0.10325000000000273
0.9279,0.213,0.0614,-0.4151,0.0154,0.2154,-41.8862,271.9413,-135.1438,16.056853812100204,76.56307051854773,83.22881686254159,0.10325000000000273
0.9722,0.6229,-0.0106,-0.4151,0.0154,0.2154,-41.8862,271.9413,-135.1438,-0.5731762387206344,57.491831648397536,45.3462968317412,0.10325000000000273
0.8971,0.6295,0.0493,-0.4151,0.0154,0.2154,-48.965,276.3163,-139.9825,4.375943749300312,54.87904587131517,45.125330831412086,0.10325000000000273
0.8971,0.6295,0.0493,-0.3874,0.0072,0.2526,-79.415,273.9362,-121.5725,4.476765599795019,54.860201228834065,51.322087192223556,0.10325000000000273
0.9578,0.4265,-0.0029,-0.3874,0.0072,0.2526,-79.415,273.9362,-121.5725,-0.3286909719825581,65.90377660286508,58.842692135806296,0.10351666666667825
0.9578,0.4265,-0.0029,-0.3874,0.0072,0.2526,-87.08,277.8737,-111.895,-0.3888832761420163,65.99567422633898,58.870141564171206,0.10351666666667825
0.9423,0.8572,0.0346,-0.3874,0.0072,0.2526,-87.08,277.8737,-111.895,2.2806011807165665,47.850191037665454,45.524101498019945,0.10351666666667825
1.0516,0.3509,-0.0398,-0.3606,0.0085,0.285,-116.5238,285.46,-80.2637,-6.396204180521661,71.13742470605848,64.15426469384036,0.10351666666667825
1.0495,0.3509,-0.0398,-0.3606,0.0085,0.285,-116.5238,285.46,-80.2637,-6.470344386575032,71.39888790962655,64.18664384448628,0.10351666666667825
0.8935,0.6984,-0.0101,-0.3606,0.0085,0.285,-125.8688,286.5275,-62.2825,-0.8731749861109007,52.303651511310804,52.55633968115121,0.10351666666667825
0.8935,0.6984,-0.0101,-0.3336,0.0155,0.325,-125.8688,286.5275,-62.2825,-0.8288856596020784,51.98955482421565,58.77734691091171,0.10351666666667825
0.9328,0.5869,-0.0279,-0.3336,0.0155,0.325,-145.7225,286.58,-43.8988,-2.70872890365138,57.656670912272475,61.34219373017154,0.10351666666667825
0.9328,0.5869,-0.0279,-0.3336,0.0155,0.325,-145.7225,286.58,-33.2412,-2.7215841950245063,57.78921335427087,61.35114175246169,0.10351666666667825
1.0252,0.0737,-0.1305,-0.3336,0.0155,0.325,-169.4613,286.58,-33.2412,-60.20417483843319,80.9304060805241,28.50098160836943,0.10351666666667825
0.7663,0.5442,-0.1595,-0.2927,0.027,0.3642,-171.8763,286.58,-49.525,-16.58985593922623,54.06817756405718,56.48299233707958,0.10351666666667825
0.7663,0.5442,-0.1595,-0.2927,0.027,0.3642,-171.8763,286.58,-49.525,-16.336850473345677,53.508974603307195,56.58061362730394,0.10378333333335377
0.7732,0.019,-0.2658,-0.2927,0.027,0.3642,-211.6888,286.58,-49.7175,-85.58344325852448,70.62150024164839,7.075392808483546,0.10378333333335377
0.7732,0.019,-0.2658,-0.2378,0.0465,0.407,-211.6888,286.58,-49.7175,-85.9097742913324,70.97631742089784,9.337697097431782,0.10378333333335377
0.3331,-0.1013,-0.0133,-0.2378,0.0465,0.407,-209.2738,286.58,-73.6838,-172.1073784919576,72.92071788220426,67.2541068322499,0.10481666666669298
-0.0581,0.0638,0.2242,-0.2378,0.0465,0.407,-209.2738,286.58,-73.6838,72.94167187931644,-12.791789072719824,11.198440611613638,0.10481666666669298
-0.0581,0.0638,0.2242,-0.1653,0.0711,0.441,-198.5112,286.58,-86.2575,74.10948001140423,-13.981491449495515,11.059263318323664,0.10481666666669298
-0.1021,0.1513,0.3127,-0.1653,0.0711,0.441,-198.5112,286.58,-86.2575,64.22985798767058,-16.350536036384952,24.589287967538624,0.10481666666669298
-0.1021,0.1513,0.3127,-0.1653,0.0711,0.441,-181.9738,286.58,-73.4125,64.18023930065436,-16.378423473489445,24.636490381826484,0.10481666666669298
