AcclX,AcclY,AcclZ,MagX,MagY,MagZ,GyroX,GyroY,GyroZ,Roll,Pitch,Yaw,Time(s)
-0.1398,0.9787,0.0428,-0.381,0.2105,0.0167,-2.1963,1.225,-15.4525,0,0,0,1.6206460627432715
-0.1356,0.9551,0.035,-0.383,0.211,0.0158,-2.5113,0.9187,-15.6275,0,0,0,1.6299493973908052
-0.1404,0.9781,0.0401,-0.383,0.211,0.0158,-2.8612,1.365,-16.415,0,0,0,1.6420943067286817
-0.1426,0.9781,0.0484,-0.3832,0.2077,0.0172,-3.1937,1.4262,-16.59,0,0,0,1.6542101951268888
-0.1415,0.976,0.0465,-0.3799,0.2087,0.0155,-3.29,1.26,-15.6887,0,0,0,1.6663122808830577
-0.1424,0.9758,0.0412,-0.3799,0.2087,0.0155,-2.1963,1.2687,-15.7062,0,0,0,1.6784228605727884
-0.1433,0.9791,0.0409,-0.3814,0.2091,0.0155,-1.7413,1.2512,-15.925,0,0,0,1.69065801795476
-0.1408,0.9787,0.0407,-0.3814,0.2091,0.0155,-2.1088,1.4612,-15.855,0,0,0,1.7026153529264787
-0.1426,0.9793,0.0395,-0.3859,0.2112,0.0154,-2.7475,1.54,-16.1087,0,0,0,1.714735134377568
-0.1418,0.979,0.0464,-0.3859,0.2112,0.0154,-2.0563,1.4962,-16.4675,0,0,0,1.724133317949876
-0.1407,0.9762,0.0436,-0.3827,0.2107,0.017,-1.9512,1.1725,-16.6338,0,0,0,1.7361886870714545
-0.144,0.9751,0.0414,-0.3813,0.2073,0.0173,-1.9512,1.19,-16.555,0,0,0,1.7482989128472868
-0.1416,0.9784,0.0433,-0.3813,0.2073,0.0173,-2.275,1.2687,-16.205,0,0,0,1.7604034760007445
-0.1407,0.9778,0.0397,-0.3855,0.2086,0.017,-2.345,1.2862,-16.6075,0,0,0,1.7725225496240373
-0.141,0.9809,0.0437,-0.3855,0.2086,0.017,-2.695,1.1987,-15.82,0,0,0,1.7847824809788975
-0.1391,0.977,0.0456,-0.3838,0.2086,0.0164,-2.8788,1.1112,-15.7237,0,0,0,1.7967199967723053
-0.144,0.9765,0.0403,-0.3806,0.208,0.0159,-2.8525,1.0237,-16.0737,0,0,0,1.8060955298551147
-0.1444,0.977,0.0485,-0.3806,0.208,0.0159,-2.4325,0.9887,-15.96,0,0,0,1.8182722914438483
-0.141,0.9776,0.0423,-0.3826,0.2102,0.0161,-2.4938,1.2075,-15.645,0,0,0,1.8303081953010143
-0.1435,0.9788,0.0422,-0.3826,0.2102,0.0161,-2.5288,1.4,-15.3475,0,0,0,1.842373827925647
-0.1447,0.9805,0.0437,-0.3845,0.2095,0.021,-2.9313,1.12,-15.8112,0,0,0,1.8544946711184316
-0.1384,0.9788,0.0411,-0.3833,0.2075,0.0136,-2.24,0.8575,-15.7762,0,0,0,1.8666342717478321
-0.1412,0.9767,0.0447,-0.3833,0.2075,0.0136,-2.1263,1.1025,-15.2775,0,0,0,1.8787515758016327
-0.1419,0.9773,0.0445,-0.3803,0.2093,0.0164,-2.0738,1.4437,-17.71,0,0,0,1.8907216516736942
-0.1419,0.9784,0.0436,-0.3803,0.2093,0.0164,-2.9488,0.6563,-15.7062,0,0,0,1.9001884945422938
-0.1415,0.9769,0.0391,-0.3844,0.2105,0.0186,-2.6863,0.8225,-15.715,0,0,0,1.9123121690462657
-0.1406,0.9791,0.0442,-0.3856,0.2084,0.0171,-2.6338,1.47,-15.7325,0,0,0,1.9244492922783774
-0.1404,0.9791,0.0437,-0.3856,0.2084,0.0171,-2.1788,1.0762,-15.9775,0,0,0,1.936528727545048
-0.14,0.9772,0.0477,-0.3798,0.2103,0.017,-1.8025,0.9363,-16.6513,0,0,0,1.9485639235744172
-0.1414,0.9777,0.0429,-0.3798,0.2103,0.017,-2.2313,1.2075,-16.2925,0,0,0,1.9607236972960271
-0.141,0.9765,0.0423,-0.3795,0.2098,0.0164,-2.5113,1.26,-15.8725,0,0,0,1.972847371799999
-0.1427,0.9808,0.0449,-0.3795,0.2105,0.0116,-2.135,1.12,-16.2225,0,0,0,1.982200962221107
-0.141,0.9776,0.043,-0.3857,0.2105,0.0116,-2.38,1.3387,-16.1963,0,0,0,1.9942581009121776
-0.1393,0.9771,0.044,-0.382,0.2086,0.0155,-2.38,1.5925,-16.5112,0,0,0,2.0064097346141243
-0.1418,0.9775,0.0439,-0.382,0.2086,0.0155,-3.0013,1.3475,-16.59,0,0,0,2.018508281231309
-0.138,0.9761,0.0429,-0.3803,0.2094,0.0186,-2.2575,1.1375,-16.3537,0,0,0,2.030685396733941
-0.1437,0.9826,0.0414,-0.3803,0.2094,0.0186,-2.6425,1.1375,-16.0475,0,0,0,2.042678477009399
-0.1444,0.9815,0.0443,-0.3848,0.2111,0.0239,-2.45,0.9013,-15.9075,0,0,0,2.054797550632692
-0.142,0.9754,0.0482,-0.3839,0.2095,0.0168,-2.3538,1.1375,-15.785,0,0,0,2.0668451336485054
-0.1442,0.9762,0.0426,-0.3839,0.2095,0.0168,-2.5463,1.7062,-15.715,0,0,0,2.076318700881175
-0.1417,0.9803,0.0464,-0.3831,0.2084,0.0164,-2.5638,1.5837,-16.1087,0,0,0,2.0884388362461626
-0.1365,0.9794,0.0415,-0.3831,0.2084,0.0164,-2.1525,1.4262,-15.925,0,0,0,2.10044996613044
-0.142,0.9808,0.0392,-0.3834,0.2114,0.0199,-2.8087,1.05,-15.9337,0,0,0,2.1125725788927165
-0.1441,0.9831,0.0412,-0.3826,0.2115,0.0154,-3.0625,0.875,-15.995,0,0,0,2.12477836142112
-0.1455,0.9725,0.048,-0.3826,0.2115,0.0154,-2.835,0.9625,-16.5987,0,0,0,2.136827714006426
-0.1426,0.9699,0.0477,-0.383,0.209,0.0168,-2.7125,0.91,-15.8987,0,0,0,2.1488859144391914
-0.1412,0.9716,0.0468,-0.383,0.209,0.0168,-2.2138,0.8838,-15.7937,0,0,0,2.1582642788331885
-0.1399,0.9784,0.0429,-0.3804,0.2095,0.015,-2.2575,0.8575,-15.7762,0,0,0,2.170384060284278
-0.1386,0.9829,0.0389,-0.3846,0.2099,0.0173,-1.9862,1.1025,-15.5225,0,0,0,2.182501364338078
-0.1385,0.9831,0.0399,-0.3846,0.2099,0.0173,-2.3538,1.015,-15.8812,0,0,0,2.1946013266108566
-0.1437,0.977,0.04,-0.386,0.2082,0.0175,-2.2575,1.225,-16.4762,0,0,0,2.2066789923080354
-0.1405,0.9734,0.049,-0.386,0.2082,0.0175,-1.9687,1.1112,-17.4125,0,0,0,2.218802312898109
-0.1437,0.9725,0.0517,-0.3817,0.2102,0.0144,-2.2225,1.1462,-16.5637,0,0,0,2.230925279574284
-0.1469,0.9733,0.0449,-0.381,0.2126,0.0195,-2.1788,1.4962,-15.96,0,0,0,2.2429725086761994
-0.1408,0.9767,0.0461,-0.381,0.2126,0.0195,-1.9162,1.0762,-15.7937,0,0,0,2.252439705458697
-0.1415,0.9817,0.0359,-0.3877,0.2082,0.0163,-2.4588,1.6975,-15.6538,0,0,0,2.264487288474511
-0.1388,0.9816,0.042,-0.3877,0.2082,0.0163,-2.3712,1.575,-16.0212,0,0,0,2.276577341158134
-0.1398,0.9777,0.0466,-0.3815,0.2111,0.0164,-2.3888,1.3387,-16.45,0,0,0,2.2887385305353374
-0.1425,0.9738,0.0423,-0.3788,0.2099,0.0179,-2.9313,1.225,-16.73,0,0,0,2.3007839900677602
-0.1412,0.9739,0.0452,-0.3788,0.2099,0.0179,-2.5988,1.295,-16.1612,0,0,0,2.3130768354151727
-0.1422,0.9776,0.0378,-0.3837,0.2103,0.0151,-2.17,1.4088,-16.1262,0,0,0,2.3250023181360344
-0.1407,0.9815,0.0436,-0.3837,0.2103,0.0151,-2.6688,1.5662,-16.2838,0,0,0,2.334522602003294
-0.1377,0.9791,0.042,-0.3844,0.2097,0.0168,-2.6688,1.6013,-15.8287,0,0,0,2.3469350702483696
-0.1437,0.9825,0.0374,-0.3844,0.2097,0.0165,-2.7125,1.3562,-15.7412,0,0,0,2.358569989658636
-0.1403,0.9755,0.0448,-0.3808,0.2093,0.0165,-2.8788,1.4437,-16.0475,0,0,0,2.3706717215009063
-0.1399,0.9728,0.0428,-0.3823,0.2103,0.017,-3.43,0.84,-15.7587,0,0,0,2.3827798237933484
-0.1425,0.9788,0.0456,-0.3823,0.2103,0.017,-2.3275,1.015,-15.4875,0,0,0,2.3949038522112187
-0.1375,0.9825,0.0457,-0.3842,0.2117,0.022,-2.1963,1.3475,-15.9687,0,0,0,2.406992489239248
-0.1367,0.9784,0.0397,-0.3842,0.2117,0.022,-2.1963,1.4962,-15.82,0,0,0,2.4164172163539366
-0.1455,0.9832,0.039,-0.382,0.2078,0.0164,-2.4413,1.2512,-16.135,0,0,0,2.428481079409077
-0.143,0.9858,0.0451,-0.382,0.2103,0.0159,-2.555,0.945,-16.59,0,0,0,2.440588119959824
-0.143,0.9658,0.0432,-0.382,0.2103,0.0159,-2.5375,0.8925,-16.4325,0,0,0,2.4527125022915923
-0.1387,0.9762,0.0424,-0.3821,0.2114,0.0194,-1.8375,1.7325,-16.1437,0,0,0,2.464757253996219
-0.1375,0.9861,0.0423,-0.3821,0.2114,0.0194,-1.8987,1.3387,-16.1262,0,0,0,2.476889068519854
-0.1396,0.9832,0.0429,-0.3851,0.2087,0.0208,-2.6688,1.4088,-15.6012,0,0,0,2.488997878640093
-0.1395,0.9789,0.0415,-0.3814,0.2082,0.0168,-1.785,1.1287,-16.1437,0,0,0,2.501173578487131
-0.1428,0.9773,0.05,-0.3814,0.2082,0.0168,-2.2662,1.3212,-16.5287,0,0,0,2.510434797380754
-0.139,0.975,0.053,-0.3808,0.2104,0.0162,-2.7213,1.4525,-16.6863,0,0,0,2.5225574101430306
-0.1393,0.9722,0.0416,-0.3808,0.2104,0.0162,-2.625,1.33,-15.9862,0,0,0,2.5346694054883554
-0.142,0.9758,0.0409,-0.3851,0.21,0.0182,-2.7388,1.3825,-15.7412,0,0,0,2.5467867095421557
-0.1373,0.9845,0.0464,-0.3809,0.21,0.0158,-2.1788,1.575,-15.8025,0,0,0,2.558847741286109
-0.1412,0.9837,0.0405,-0.3809,0.21,0.0158,-3.0188,1.0237,-16.275,0,0,0,2.570976724498557
-0.1439,0.9723,0.0464,-0.3803,0.2093,0.015,-3.2113,1.1462,-16.1437,0,0,0,2.583093320724561
-0.1438,0.9722,0.0437,-0.3803,0.2093,0.015,-3.2288,1.0762,-16.065,0,0,0,2.5924653146683863
-0.1399,0.9742,0.0402,-0.3849,0.2123,0.0122,-2.4063,1.2512,-15.0587,0,0,0,2.6045822648082884
-0.1396,0.9774,0.0455,-0.3838,0.2096,0.0174,-2.1438,1.1025,-15.8375,0,0,0,2.6166486052607176
-0.1391,0.9788,0.0396,-0.3838,0.2096,0.0174,-1.9862,1.0937,-15.8025,0,0,0,2.6287531684141756
-0.1414,0.9792,0.042,-0.3832,0.207,0.0149,-1.9425,0.9625,-15.7325,0,0,0,2.6408853368517096
-0.1432,0.9764,0.0484,-0.3832,0.207,0.0149,-2.5638,1.0237,-16.2488,0,0,0,2.6530029948194085
-0.1433,0.972,0.0467,-0.3806,0.2118,0.0185,-2.485,1.1287,-16.2138,0,0,0,2.6650785370331964
-0.1436,0.9735,0.0434,-0.3831,0.21,0.0149,-2.0388,1.085,-16.345,0,0,0,2.678142560765247
-0.1392,0.9771,0.0454,-0.3831,0.21,0.0149,-1.8637,1.3912,-15.715,0,0,0,2.686654543935933
-0.1437,0.9805,0.0401,-0.3858,0.2081,0.0176,-1.96,1.7587,-16.135,0,0,0,2.69814895952853
-0.1407,0.978,0.0416,-0.3858,0.2081,0.0176,-2.4413,1.0325,-16.4237,0,0,0,2.7103154576142097
-0.1402,0.9764,0.0454,-0.3806,0.2094,0.0138,-2.4938,1.155,-16.5375,0,0,0,2.7225162853480356
-0.1408,0.9743,0.0465,-0.3806,0.2094,0.0155,-1.855,1.3387,-16.1525,0,0,0,2.7347118043733847
-0.1407,0.9725,0.0439,-0.3791,0.2088,0.0155,-2.5463,1.085,-15.7675,0,0,0,2.7469098007960233
-0.1416,0.9761,0.0434,-0.385,0.2106,0.0165,-2.555,1.3037,-15.8025,0,0,0,2.759113459841036
-0.1398,0.9836,0.0422,-0.385,0.2106,0.0165,-2.1263,1.4875,-16.1963,0,0,0,2.76791777589181
-0.141,0.9799,0.0425,-0.384,0.2097,0.0149,-2.065,1.225,-16.5987,0,0,0,2.780089582685966
-0.1449,0.9765,0.0467,-0.384,0.2097,0.0149,-2.45,1.12,-15.96,0.4299261878716093,-3.884151248840935,0.022112631419145167,13.489570157413823
-0.1417,0.9735,0.0451,-0.3819,0.2086,0.0139,-2.4675,1.1287,-16.24,0.8061515456059088,-6.216585970564932,0.0360504494377332,13.494555388586843
-0.1429,0.9718,0.0459,-0.3852,0.2094,0.0173,-2.8263,1.1025,-15.995,1.4894958534188956,-7.223612212512347,0.084441479282914,13.49909539607566
-0.1411,0.9813,0.0422,-0.3852,0.2094,0.0173,-2.4325,1.3037,-15.3125,1.6299880507066478,-7.386621210776217,0.224069540461292,13.503818377049956
-0.1393,0.9822,0.0412,-0.3856,0.2101,0.0161,-2.6075,1.6187,-15.3125,1.827476839417815,-7.502877596085107,0.47481997809847387,13.508296095692655
-0.1415,0.9795,0.0395,-0.3856,0.2101,0.0161,-2.415,1.1375,-15.4962,1.890784933701727,-7.702458200457953,0.48413923335817527,13.51288565112725
-0.1413,0.9782,0.0486,-0.383,0.208,0.0109,-2.5988,0.735,-16.1437,2.1300915854044393,-7.960691331479511,0.3646402389899154,13.517776741203292
-0.1416,0.975,0.0481,-0.3798,0.2123,0.0166,-3.0625,1.1812,-15.855,2.4383656246147116,-8.086084845914352,0.37798073453782716,13.522269678143623
-0.1415,0.9745,0.0451,-0.3798,0.2123,0.0166,-2.765,1.3737,-15.68,2.5089516070150135,-8.146990899178864,0.48185925020284504,13.526799776043285
-0.1403,0.9799,0.0413,-0.3826,0.21,0.0161,-1.9075,1.19,-15.4175,2.483860583755618,-8.145562283721077,0.5005702453969373,13.530961095660803
-0.1419,0.9822,0.0387,-0.3826,0.21,0.0161,-1.5575,1.0412,-15.8638,2.389696631418352,-8.175264804324556,0.5607663756595747,13.532712969457938
-0.1395,0.9809,0.0435,-0.3848,0.2094,0.0177,-2.345,0.8838,-16.1175,2.400935960328515,-8.130509643412962,0.6908782841990593,13.534435114487607
-0.1399,0.9787,0.0432,-0.3808,0.2061,0.0167,-2.3275,1.0675,-16.5462,2.408517356564994,-8.128563382907071,0.7210549091777991,13.536154782119986
-0.1408,0.9761,0.0439,-0.3808,0.2061,0.0167,-1.9425,1.015,-16.4587,2.4490275109284045,-8.169628510210984,0.7606863823182916,13.537827025289978
-0.1438,0.9758,0.0473,-0.3822,0.2063,0.0162,-2.7475,1.19,-16.52,2.5553498184582804,-8.289018142502313,0.7644854232148417,13.539497852804377
-0.1434,0.9764,0.0421,-0.3822,0.2063,0.0162,-1.96,0.9538,-16.1,2.5352155627042214,-8.318138976723686,0.807769037220115,13.541177174252338
-0.1421,0.9788,0.0411,-0.3831,0.2109,0.0087,-2.835,1.085,-16.0562,2.487672280058105,-8.286489155934653,0.7544640099021371,13.542837738263684
-0.1381,0.9791,0.0422,-0.3829,0.209,0.0211,-2.45,1.5487,-16.2663,2.4845781165494407,-8.143953115340603,1.0205901752880695,13.544519891022832
-0.1409,0.9794,0.0408,-0.3829,0.209,0.0211,-2.4675,0.9975,-16.03,2.467799369226775,-8.161079006886913,1.1170643787613515,13.546310695348792
-0.1424,0.9776,0.0447,-0.3814,0.2089,0.0169,-2.6688,1.0237,-16.0037,2.5110955576767138,-8.216893853669717,1.1072542834481747,13.548095837052378
-0.1417,0.9746,0.0453,-0.3814,0.2089,0.0169,-2.52,1.4612,-16.1262,2.541721244242326,-8.240503887824874,1.0842997657121816,13.549834262121374
-0.1404,0.9773,0.048,-0.3819,0.2102,0.0154,-2.2138,1.5575,-16.03,2.5545660636162544,-8.204492082089116,0.9772079655150837,13.551589321143595
-0.141,0.9784,0.0459,-0.385,0.2078,0.0133,-2.4588,1.645,-15.715,2.5760143027836118,-8.199652760579111,0.8182910620618543,13.553335532318355
-0.1407,0.9778,0.0411,-0.385,0.2078,0.0133,-2.0913,1.785,-16.275,2.5511430889302256,-8.189713319953027,0.7478702771088876,13.555013084196824
-0.1394,0.9784,0.0432,-0.3844,0.2091,0.0157,-2.2225,1.0675,-15.7937,2.5502337789021463,-8.153554907682793,0.7601478777307723,13.55678477717227
-0.1401,0.9803,0.0405,-0.3844,0.2091,0.0157,-2.31,1.0675,-15.19,2.5420760777388,-8.151454824189601,0.7780220058841222,13.558512938738211
-0.1418,0.9773,0.044,-0.3826,0.2111,0.0195,-1.96,0.8138,-15.435,2.5504056332635865,-8.175221899503121,0.9354199287023067,13.56026198122416
-0.1422,0.9759,0.0447,-0.3826,0.2111,0.0183,-2.38,0.875,-15.4787,2.557918591802056,-8.204162375717582,0.9946749869125583,13.561959706194838
-0.1406,0.9737,0.0459,-0.3814,0.2107,0.0183,-2.765,0.8925,-15.8638,2.604995935989192,-8.205641875992471,1.0319306642605837,13.563174692608083
-0.1443,0.978,0.0463,-0.3863,0.2096,0.0177,-2.2662,1.4262,-16.1612,2.6052556490297154,-8.29720265163135,1.0418127515752778,13.564387555537937
-0.1402,0.9787,0.0443,-0.3863,0.2096,0.0177,-2.205,1.6712,-16.0912,2.604502254322788,-8.221163511366793,1.0753985379385103,13.565600418467794
-0.1407,0.9792,0.0391,-0.3818,0.2074,0.0157,-2.415,0.9975,-15.995,2.562736966286705,-8.197253830205918,1.0709133963723234,13.566804787464086
-0.1416,0.9785,0.0442,-0.3818,0.2074,0.0157,-2.3013,1.05,-15.855,2.5635923195351644,-8.209529340871555,1.0538252474781984,13.56801765039394
-0.1423,0.9774,0.044,-0.3812,0.2094,0.0138,-1.9862,1.12,-16.205,2.5666280431662476,-8.243942265702332,1.039510347561813,13.569230513323797
-0.145,0.9775,0.0398,-0.3862,0.2112,0.0169,-1.855,0.7962,-16.835,2.4984290331938315,-8.36227582092784,1.0686790744870553,13.570431697095003
-0.1443,0.9762,0.0408,-0.3862,0.2112,0.0169,-2.3363,1.0062,-15.4263,2.491313928039482,-8.37173276244017,1.0751304325035231,13.571627926071633
-0.1406,0.9797,0.0397,-0.3839,0.2107,0.015,-1.9775,1.7237,-15.505,2.453302989746292,-8.311411910342732,1.0123613387907708,13.572852114246237
-0.138,0.9805,0.0449,-0.3839,0.2107,0.015,-1.7675,1.7237,-15.9337,2.509222779765716,-8.171792784332727,0.9163124240451344,13.574050466706257
-0.1393,0.9756,0.0386,-0.3822,0.2074,0.0161,-2.2313,1.0587,-16.3013,2.5015746969933574,-8.143438887732772,0.9329652189699855,13.57525023482187
-0.1414,0.9765,0.0389,-0.3808,0.2115,0.0173,-2.2838,1.0062,-16.4587,2.497239738766728,-8.194870610187465,0.9733791165346292,13.576462036010032
-0.1432,0.9796,0.0409,-0.3808,0.2115,0.0173,-2.485,0.9625,-16.5287,2.477956779541735,-8.262233702751114,1.0081107018984174,13.577812571446367
-0.1407,0.975,0.0451,-0.3828,0.2101,0.0165,-2.6075,1.6362,-16.45,2.5215626973295224,-8.228199989032909,0.9888882983682453,13.579145765101682
-0.1421,0.9771,0.0437,-0.3828,0.2101,0.0165,-2.4237,1.8025,-15.5662,2.5269738996807685,-8.240239910361536,0.9908027962738862,13.580418793394267
-0.1415,0.9794,0.0434,-0.3855,0.2098,0.017,-2.8788,1.5487,-15.6975,2.5308984378610027,-8.230128688760585,1.0135509472889137,13.58169252951465
-0.1427,0.9803,0.0418,-0.3837,0.2094,0.0158,-3.325,1.1987,-15.5487,2.4849290023581623,-8.243850186125494,1.0112203825106125,13.583027138825557
-0.1413,0.9772,0.0324,-0.3837,0.2094,0.0158,-3.1063,1.33,-15.645,2.2169959966037163,-8.236651769638485,1.045152439649328,13.58469265763148
-0.1413,0.9772,0.042,-0.3798,0.2088,0.017,-2.625,1.3125,-15.5837,2.2817670490888573,-8.231355600596217,1.0570428471265085,13.585915430150491
-0.1387,0.9761,0.0436,-0.3798,0.2088,0.017,-2.0038,1.1287,-16.3013,2.3386651971038916,-8.148618465906504,1.0576787101538778,13.58712758525255
-0.1403,0.9761,0.0447,-0.3859,0.2087,0.0172,-2.6688,1.3125,-15.89,2.420347842488319,-8.158436752951706,1.05831530956316,13.588346464718677
-0.1436,0.9783,0.0431,-0.3843,0.2081,0.0143,-2.4675,0.9713,-16.135,2.437655398082116,-8.251828533452878,1.0054514915148172,13.589562512873618
-0.1413,0.9778,0.0461,-0.3843,0.2081,0.0143,-2.0213,1.26,-16.2138,2.4887102346802226,-8.231829804839183,0.9690147636761582,13.590782454081442
-0.1395,0.978,0.0461,-0.3822,0.209,0.0163,-1.7587,1.26,-16.0825,2.5591930372686615,-8.171094702723167,0.9628252455130455,13.591987176991632
-0.1423,0.9775,0.0423,-0.3822,0.209,0.0163,-2.3363,1.3037,-16.2663,2.5536895809692233,-8.226929698931611,0.9698856633247116,13.593252065264554
-0.1437,0.9786,0.0454,-0.3828,0.2098,0.0186,-2.9838,1.2163,-16.5287,2.5966064219769422,-8.296212249951877,0.9857893883199028,13.594477315180853
-0.1416,0.978,0.0454,-0.3843,0.2099,0.0174,-2.2575,0.9187,-16.3887,2.59698557272042,-8.258775937489444,1.0013203645240396,13.595674959813076
-0.1425,0.976,0.0412,-0.3843,0.2099,0.0174,-1.82,0.84,-16.3625,2.5417278965922168,-8.281419625524125,1.0464264020706342,13.596887114915134
-0.1413,0.9758,0.0455,-0.3798,0.2075,0.0172,-1.7587,1.1812,-16.5987,2.584662823438518,-8.250974966072711,1.0468293394408061,13.598100331758888
-0.139,0.9781,0.0384,-0.3798,0.2075,0.0172,-2.24,1.2862,-16.0387,2.576864835077936,-8.169479255345482,1.0739700853739271,13.599310363377556
-0.1415,0.9792,0.042,-0.3813,0.2097,0.011,-2.3363,0.9975,-16.1875,2.5686895455514054,-8.193236610565002,0.9669662736920331,13.600523226307411
-0.1408,0.9791,0.0429,-0.3813,0.2097,0.0169,-2.3187,1.4175,-16.24,2.5655717614478197,-8.1838685609041,0.9913166022351579,13.60173502749557
-0.1416,0.9754,0.0418,-0.3826,0.2095,0.0169,-2.4237,1.4962,-15.9775,2.550166388819668,-8.215845085403151,1.021394302259247,13.602934441697286
-0.1423,0.9775,0.0594,-0.3838,0.2085,0.0148,-2.065,0.9625,-16.4325,2.7038925746743017,-8.245377933388582,0.9051696521417577,13.604131024587813
-0.1402,0.9773,0.0416,-0.3838,0.2085,0.0148,-2.45,1.0762,-15.9337,2.662046941483291,-8.205104992666975,0.8996256942857394,13.605336101411904
-0.1452,0.977,0.0426,-0.3788,0.2107,0.0138,-2.7037,1.0937,-16.1262,2.6115202460527445,-8.326476829342093,0.8855488999905365,13.606543655633283
-0.1406,0.9786,0.0479,-0.3788,0.2107,0.0138,-2.4763,0.8575,-15.9075,2.644955586825083,-8.255223685571599,0.7957927045285321,13.607741654179405
-0.1412,0.9791,0.044,-0.3815,0.2105,0.0203,-3.2113,0.9713,-15.75,2.6099935489036925,-8.232847974489689,0.9077227343377186,13.609224199499849
-0.1415,0.9762,0.0394,-0.3865,0.2062,0.0172,-3.2462,1.05,-16.0825,2.461936010423092,-8.23685303683654,0.9382747941492283,13.610481301667004
-0.141,0.976,0.0454,-0.3865,0.2062,0.0172,-3.22,1.12,-15.995,2.56035424107862,-8.225027261222266,0.9421299102335203,13.61168956371618
-0.1412,0.9764,0.039,-0.3828,0.2082,0.0174,-2.59,1.3737,-15.7325,2.4931886680331945,-8.223936013645671,1.00165846829703,13.612899595334849
-0.143,0.9783,0.0431,-0.3828,0.2082,0.0174,-2.415,0.8925,-15.8725,2.4970521383924282,-8.2605037532705,1.0326778159006342,13.614111396523008
-0.141,0.9794,0.0484,-0.3796,0.2115,0.0142,-2.7388,0.7613,-15.54,2.6040068333388087,-8.236881757583127,0.8905748146248493,13.615317535088794
-0.1399,0.9781,0.042,-0.3851,0.2094,0.017,-2.5113,1.1287,-15.9862,2.5751904142572766,-8.188031313410082,0.8960529765758456,13.616780615144824
-0.1405,0.9773,0.0443,-0.3851,0.2094,0.017,-2.1438,0.9713,-16.3275,2.577352678469327,-8.179603409999132,0.9190876521138559,13.618158401951339
-0.1406,0.9761,0.0439,-0.3843,0.2097,0.015,-2.3712,0.7437,-16.1,2.577137631481161,-8.184034241688604,0.8777095510013858,13.619410903237815
-0.1423,0.9777,0.0422,-0.3843,0.2097,0.015,-2.1263,1.2862,-15.6887,2.564373450334693,-8.216949122794876,0.8720560447882773,13.620618457459194
-0.1401,0.9762,0.046,-0.3812,0.2091,0.0194,-2.1613,1.3387,-16.2138,2.5767768326978566,-8.186039730768817,0.9454122057234674,13.621836629097526
-0.1411,0.9788,0.0453,-0.38,0.2101,0.0174,-1.855,1.33,-16.52,2.5979709251978704,-8.190921865427367,0.9658294465742807,13.623051261596872
-0.1404,0.9769,0.044,-0.38,0.2101,0.0174,-2.9838,1.3125,-16.6075,2.589980538768868,-8.178585343725612,0.986766277220046,13.624317919439287
-0.1395,0.9746,0.0461,-0.3851,0.2101,0.0158,-2.3275,0.805,-16.9137,2.597064675988139,-8.151657785183763,0.942659379458421,13.625578206831529
-0.1408,0.9767,0.0473,-0.3851,0.2101,0.0158,-2.1963,0.6913,-16.3362,2.608151934602163,-8.174856790049374,0.8921353077217992,13.62679637846986
-0.1409,0.977,0.0431,-0.3826,0.2086,0.0108,-2.4763,1.1987,-16.1175,2.5937406339994227,-8.186786747382058,0.8633411966529525,13.628043217133962
-0.1418,0.9781,0.04,-0.3814,0.2107,0.0114,-1.855,0.9887,-16.2575,2.5206541902350894,-8.21644066631541,0.7964259885344924,13.629321554135023
-0.1407,0.9781,0.047,-0.3814,0.2107,0.0114,-2.1175,1.47,-16.4762,2.550050943998716,-8.193380868386477,0.6480753247691107,13.630585026752351
-0.1429,0.9772,0.043,-0.3826,0.2086,0.017,-2.4237,1.3037,-16.1175,2.545848281808151,-8.252886420338369,0.7063686040773873,13.631831511502556
-0.1418,0.9789,0.0454,-0.3826,0.2086,0.017,-2.9925,0.7788,-15.9687,2.592027923006086,-8.243954327511103,0.7935097509096853,13.63305782316055
-0.141,0.976,0.0505,-0.385,0.2082,0.018,-3.0013,1.0237,-15.7587,2.749051786894046,-8.230405033258691,0.8179950124021054,13.634277410454475
-0.1416,0.9782,0.0427,-0.3819,0.2111,0.013,-2.7562,1.155,-15.0675,2.666696129479103,-8.230351367076775,0.8176137369779648,13.63547682465619
-0.1394,0.9791,0.0479,-0.3819,0.2111,0.013,-2.6688,1.3562,-15.1287,2.705362437584732,-8.227277995442273,0.7430626129163593,13.636677654513498
-0.1419,0.9773,0.0443,-0.3794,0.2121,0.0154,-1.9775,1.2862,-15.9075,2.6808879572400417,-8.238735289842047,0.751554833174128,13.637888747873863
-0.1406,0.9765,0.0431,-0.3794,0.2121,0.0154,-1.8637,1.2512,-16.135,2.6369850971794055,-8.2117248058905,0.7604535271431224,13.63909417861185
-0.1424,0.9784,0.0466,-0.3894,0.2087,0.0178,-2.7825,1.2687,-15.645,2.667686395197819,-8.232719507260773,0.7936856832973577,13.64032827637561
-0.1409,0.9771,0.0427,-0.3894,0.2087,0.0178,-2.5813,1.0062,-16.135,2.6278181771384292,-8.215056991541232,0.8454236394013747,13.641538661908175
-0.1407,0.9766,0.0452,-0.3826,0.2086,0.0126,-2.7825,1.0675,-16.1788,2.635371227155963,-8.201888055387352,0.8110936840342863,13.642746923957352
-0.1413,0.9773,0.0451,-0.3786,0.2107,0.0161,-1.6275,1.3387,-15.9775,2.6380207997223657,-8.20953351928359,0.8251782334374202,13.643949523384153
-0.1423,0.9779,0.0443,-0.3786,0.2107,0.0161,-2.31,0.9713,-15.9075,2.6360648613169273,-8.236872468567396,0.8407620489193645,13.645148937585867
-0.141,0.9774,0.043,-0.3861,0.2092,0.0154,-2.6338,1.1375,-16.1963,2.6044611527510653,-8.218184313825493,0.8410792098122868,13.646361092687926
-0.1416,0.9778,0.0399,-0.3861,0.2092,0.0154,-3.0363,1.1987,-15.8375,2.4877621311270435,-8.224546890011908,0.8459130396827299,13.647567585167609
-0.1428,0.979,0.044,-0.3833,0.2093,0.0188,-2.1438,1.6625,-15.4962,2.4969285651574094,-8.243085897267816,1.0032645605596162,13.64876558371373
-0.1405,0.9759,0.0457,-0.3826,0.2092,0.0166,-2.0125,1.1287,-16.1437,2.533911954736915,-8.21284692219974,1.0020393008439505,13.649977030987992
-0.1419,0.9775,0.0411,-0.3826,0.2092,0.0166,-2.3625,1.3212,-16.5637,2.522561497223376,-8.236382319377606,1.0150678449095603,13.65118918609005
-0.1399,0.9781,0.045,-0.3838,0.2113,0.0169,-2.2488,1.3825,-16.1875,2.52420358199787,-8.181858920574626,1.0126799704332474,13.652393909000242
-0.1393,0.978,0.0456,-0.3838,0.2113,0.0169,-2.7125,1.0412,-15.8812,2.5692185766506856,-8.145072483166347,1.0098008254444033,13.653602171049418
-0.142,0.9779,0.0422,-0.385,0.2057,0.0179,-2.5375,1.1987,-15.6275,2.5481068180625694,-8.18260784544541,1.0204810727792715,13.65481574180707
-0.1443,0.9763,0.0414,-0.3811,0.2061,0.0173,-2.45,0.9187,-16.0737,2.5292746584428714,-8.289619758020853,1.0552531947373047,13.656068597007446
-0.1391,0.9717,0.0402,-0.3811,0.2061,0.0173,-2.765,1.1725,-15.5575,2.475766437699664,-8.242979638636212,1.0585808201727231,13.65733950181664
-0.1468,0.992,0.0412,-0.3814,0.2092,0.0159,-2.7738,0.7525,-15.7325,2.442829595554604,-8.307566119925871,1.0451909636063805,13.658559089110565
-0.1443,0.9809,0.0478,-0.3814,0.2092,0.0159,-2.4588,0.9538,-15.61,2.4994747197349976,-8.324796874436256,1.0044393291694798,13.659768766815334
-0.1378,0.9676,0.0444,-0.3865,0.2121,0.0155,-2.9313,0.9187,-15.4875,2.5506355288297633,-8.26180944145951,0.9655458686598962,13.66098800019536
-0.1418,0.9744,0.0442,-0.3847,0.2093,0.0159,-2.9925,0.7088,-15.6012,2.5702766100364567,-8.265014648070338,0.9429893802381333,13.662202278780809
-0.1457,0.9808,0.0448,-0.3847,0.2093,0.0159,-2.7213,1.225,-15.6275,2.5844047920630735,-8.325337155389093,0.9389357627598794,13.663412664313375
-0.1379,0.9734,0.0375,-0.3806,0.2095,0.017,-2.1088,1.05,-15.7937,2.533671618241866,-8.216150682347228,0.9689154546378503,13.664617033309668
-0.1444,0.9771,0.0401,-0.3806,0.2095,0.017,-2.0738,0.8925,-15.8463,2.5043690856408065,-8.294202898244023,1.0128536374975528,13.66581715533918
-0.1395,0.9831,0.0462,-0.3851,0.2099,0.0226,-2.9138,0.7437,-15.7587,2.577733527650795,-8.204631642708744,1.2340322760885418,13.667036742633105
-0.1408,0.9784,0.0476,-0.385,0.2078,0.0197,-2.6338,0.6913,-16.1525,2.633797295585327,-8.19181932547552,1.266254260286145,13.668231202040243
-0.1427,0.9732,0.0415,-0.385,0.2078,0.0197,-2.275,1.4088,-16.2663,2.6316575065288106,-8.268380682538039,1.3155415060815847,13.669421414480599
-0.142,0.9775,0.0451,-0.3814,0.2098,0.0162,-2.3275,1.085,-16.0387,2.6322562464606807,-8.262788168919904,1.2898273197328605,13.67063286175486
-0.1419,0.9813,0.0466,-0.3814,0.2098,0.0162,-2.2925,1.5225,-15.6712,2.634676984231422,-8.246983447465084,1.1782623609457827,13.672226536039405
-0.1382,0.9794,0.0397,-0.3802,0.2112,0.0169,-1.7675,0.9275,-15.6275,2.5307160251993306,-8.1709715561929,1.1777701903730688,13.676831663685531
-0.1407,0.9739,0.04,-0.3834,0.2081,0.0143,-4.4187,0.9887,-16.2225,2.408597483307903,-8.193594309171988,1.1249364222721356,13.67805018923776
-0.1848,1.0221,0.0897,-0.3834,0.2081,0.0143,-3.115,0.665,-16.135,3.6073092077940325,-9.21643706922813,0.576451937315728,13.679277208723553
-0.3942,0.8072,0.0212,-0.3851,0.2082,0.018,-7.2362,-6.5713,-16.03,1.856541404630298,-17.288074387605484,1.5180138193487371,13.68050493603714
-0.2121,0.9716,0.1185,-0.3851,0.2082,0.018,-1.3825,-12.565,-19.7663,4.244203672639026,-13.120776881510364,0.8285395979952342,13.681733017264627
-0.2169,0.9504,0.0898,-0.3827,0.208,0.0189,1.19,-13.7637,-15.155,5.138669345213371,-13.105746625709688,0.1480432457283349,13.682967115028386
-0.2266,0.8964,0.115,-0.3873,0.2095,0.0196,2.9838,-16.2225,-12.6175,6.96295100238405,-13.797718740884976,0.9241609832508343,13.68419802756706
-0.2155,0.952,0.1464,-0.3873,0.2095,0.0196,7.2537,-19.8537,-11.76,8.57334002055311,-12.884388291168179,1.650828317831856,13.685414075722
-0.175,0.7649,0.0971,-0.3887,0.2075,0.0162,11.0513,-25.8125,-6.4138,7.328211769319405,-12.79757486687263,1.3663291991740587,13.68665949873051
-0.1164,0.8957,0.0389,-0.3887,0.2075,0.0162,19.2588,-32.2,-1.2075,2.7017365881506583,-7.759905892449589,0.9292006424611166,13.687895012149864
-0.1189,0.871,0.0336,-0.3935,0.2024,0.013,28.6737,-32.1562,-0.315,2.224589545917158,-7.767186091984317,0.7186550358509071,13.689118138582772
-0.0061,0.898,-0.0081,-0.3978,0.2062,0.0106,35.9538,-29.6712,6.0813,-0.44689441280946346,-0.7217180738894976,1.754126999504986,13.69033064759873
0.0516,1.036,-0.0731,-0.3978,0.2062,0.0106,47.4337,-30.6425,13.0725,-3.96529563001999,2.7220962628727703,3.6480736869632318,13.691581379315714
-0.0991,1.0322,0.0797,-0.4109,0.2034,0.0014,65.8263,-25.1912,53.725,4.293960502372982,-5.350614528456327,1.7038649109866608,13.69280309009303
-0.0988,1.0586,-0.0727,-0.4109,0.2034,0.0014,69.5363,-27.1513,60.9437,-3.8157060746584133,-5.319961333709448,1.9238144485841058,13.694026924353736
-0.179,1.198,0.0071,-0.4241,0.2052,-0.0054,68.9675,-21.875,58.5375,0.2820346913196208,-8.455299400922774,0.7276257854593263,13.695265976912072
-0.0401,0.9811,-0.0248,-0.4298,0.2079,-0.0155,67.4888,-21.3587,34.9388,-1.4235480930400257,-2.459579577806723,1.3136139188106057,13.696514585145668
-0.0201,0.8893,-0.0576,-0.4298,0.2079,-0.0155,60.34,-13.7287,23.695,-3.669990176258923,-1.3214087061080038,0.3336100556778913,13.697757884670786
-0.1196,0.8494,0.0356,-0.4345,0.2078,-0.0193,49.8925,-7.0525,20.8075,2.2857815433940587,-7.826776963982579,3.1457034099369103,13.698998352884717
0.1086,1.3893,-0.2272,-0.4345,0.2078,-0.0193,43.8025,-2.7388,8.7412,-9.041787907892727,3.918755742285587,0.9396492048442802,13.700220063662032
0.2796,0.8121,-0.2542,-0.4434,0.2075,-0.0196,33.9412,-4.795,-1.5312,-17.156795189656254,17.209952328506898,6.042966019179588,13.701432572677987
-0.047,0.855,-0.2528,-0.4453,0.2074,-0.0273,54.0662,-1.0762,-4.9437,-16.483453717216033,-1.2053721226573435,4.699081205547995,13.702724358407188
0.124,0.8842,-0.1986,-0.4453,0.2074,-0.0273,25.6375,3.6225,-0.3588,-12.791427928273107,7.220099447411267,3.2113935314201054,13.703943945701113
-0.0055,1.0237,-0.1709,-0.4473,0.2074,-0.0307,31.045,16.8787,-14.805,-9.574334966351875,5.480633648728751,0.6569909124475654,13.705186891312334
-0.0813,1.0468,-0.1161,-0.4473,0.2074,-0.0307,19.3463,18.8825,-14.0,-6.472322435650539,0.2849119988609087,0.862775445436968,13.706427005612365
-0.1296,1.0405,-0.0594,-0.4465,0.2106,-0.0347,9.3887,14.5338,-16.24,-3.5206602507380196,-3.6337477649084615,2.630027119917997,13.707662872945617
-0.0904,1.0695,-0.1147,-0.449,0.2097,-0.0346,-0.245,7.735,-17.1937,-5.25984409914056,-4.42506335572116,1.6340807449316435,13.708902633331752
-0.0235,1.0133,-0.1613,-0.449,0.2097,-0.0346,-7.7875,3.2725,-16.0562,-8.464469549927403,-2.9080662765965655,0.6272418559293154,13.71012823716195
0.0831,0.9467,-0.2302,-0.4488,0.2077,-0.0338,-12.3725,1.9512,-16.6075,-13.198517433851976,1.764069728425561,0.6116396612169344,13.711358795786726
0.12,1.0292,-0.2866,-0.4488,0.2077,-0.0338,-14.2712,3.8063,-18.3487,-15.379242319316779,5.314036848088105,2.4449541622541306,13.71259395529218
0.0023,0.9767,-0.1107,-0.4502,0.2082,-0.0286,-14.14,11.8125,-14.6912,-7.1585515609357975,3.796054488329389,0.36923963345351996,13.713839732214588
-0.0382,0.978,-0.0834,-0.4486,0.2099,-0.0286,-14.8837,15.3037,-13.7375,-5.041890129651724,0.315287918637196,1.274028675126152,13.715103204831916
0.0495,0.7256,-0.066,-0.4486,0.2099,-0.0286,-15.785,22.5837,-27.5975,-5.186576129218234,3.6219357214183283,1.2530417588589498,13.716364200051954
0.0773,0.9639,-0.0804,-0.4512,0.208,-0.0248,-39.2788,19.0312,-55.0025,-4.779078017057768,4.546062194756913,0.9965081970565446,13.717607145663173
0.009,1.0867,-0.3005,-0.4401,0.2087,-0.0242,-32.7337,7.2275,-49.035,-15.118146256420701,0.574404187693532,3.4768273575201887,13.71888866788932
-0.0482,0.976,-0.082,-0.4401,0.2087,-0.0242,-29.26,14.07,-35.4025,-5.1709708624435375,-2.6580973899488156,0.5352582859252726,13.720173021426655
-0.0404,1.0288,-0.0494,-0.4346,0.2071,-0.0219,-18.5062,13.6675,-40.3288,-2.889527701357478,-2.2619171778505986,1.4713759912648146,13.721433662732796
-0.0586,0.9935,0.0399,-0.4346,0.2071,-0.0219,-8.7762,14.2887,-35.105,1.6090575989104865,-3.3199711432030234,3.70320676626356,13.722663867443673
-0.119,0.9911,0.0436,-0.4372,0.2074,-0.0227,-0.8312,10.3425,-25.6025,2.1448715585763702,-6.533912330788379,3.9396341559943218,13.723920261783032
-0.2675,0.9844,0.0273,-0.4342,0.2072,-0.0224,7.5513,4.2263,-18.0425,1.6399945905698614,-12.996323967301231,3.5348015091920986,13.725132770798988
-0.1283,1.0075,-0.0495,-0.4342,0.2072,-0.0224,17.395,-1.4088,-8.4875,-2.597227628092096,-8.003082747583017,2.0926955071141995,13.726364745079358
-0.1386,1.1127,0.0271,-0.4338,0.2088,-0.0276,27.0112,-7.6825,8.9775,1.2633012602120428,-7.134289752159349,3.893214584764962,13.727576900181417
-0.1815,1.0579,-0.0262,-0.4338,0.2088,-0.0276,24.15,-12.635,7.1663,-1.320865672334446,-9.62068041702222,2.8485432504987984,13.728817368395347
-0.0582,1.0416,-0.1465,-0.4418,0.2094,-0.0293,17.0362,-16.0737,13.0113,-7.6767554792999135,-3.3886481812891445,0.13828914942158563,13.730058898350974
-0.0361,1.0082,-0.0881,-0.4466,0.2107,-0.0309,11.34,-16.3887,11.655,-5.177719981649556,-2.091377280697857,1.4928248422274304,13.731301490048295
-0.0469,0.9903,-0.0914,-0.4466,0.2107,-0.0309,6.265,-21.1925,8.0325,-5.26317072412697,-2.67479411931111,1.4349234698538957,13.732541958262226
0.001,0.9631,-0.1168,-0.4482,0.209,-0.0286,3.6488,-24.7887,8.785,-6.675850596797542,-0.050775926920333475,0.4510091515649827,13.733874444089743
0.013,0.9285,-0.1227,-0.452,0.2094,-0.0282,5.6875,-23.3187,7.9713,-7.432747587943502,0.7600996541187411,0.08188555374891186,13.735133315826392
-0.017,0.9337,-0.0683,-0.452,0.2094,-0.0282,8.54,-20.1688,8.6012,-4.4589790020695945,-0.9674275329664431,1.5461168875561535,13.736370952729136
0.22,0.907,-0.2089,-0.4556,0.2087,-0.0314,4.5237,-18.725,1.9425,-11.877223847140169,12.508434302497733,2.1679780079681548,13.737585939142381
0.0493,0.9771,-0.1548,-0.4556,0.2087,-0.0314,3.815,-10.815,-15.2687,-9.408551208957599,11.155338143287786,0.3626580117658343,13.738811896886478
-0.039,0.9442,-0.072,-0.4562,0.2098,-0.0356,0.3938,-4.1213,-17.745,-5.74079071089797,1.3548985433715712,1.9675209089952426,13.7400541346699
-0.0432,1.0074,-0.0755,-0.4542,0.2094,-0.031,0.5775,-7.6038,-19.7138,-4.66476191599462,-1.7704088334680224,1.8970176171283426,13.741289294175356
-0.0764,1.0,-0.026,-0.4542,0.2094,-0.031,-0.6913,-14.56,-18.0425,-2.7237540902051656,-3.7077553268863888,3.04556700996982,13.742542857203528
-0.0658,1.0002,-0.0586,-0.4541,0.209,-0.0328,-1.7325,-21.595,-19.5562,-2.942068612133351,-3.748340585564612,2.5386440559198147,13.743806329820856
-0.1871,1.1288,-0.0454,-0.4541,0.209,-0.0328,-1.3562,-27.195,-17.7012,-2.638108581561714,-7.8308734095869585,2.8808644730476773,13.745072987663269
-0.1501,1.1421,-0.0622,-0.4596,0.2072,-0.0355,7.6388,-34.9038,-1.6625,-3.073357228781409,-7.500765058267093,2.8671224614060487,13.746329735916527
0.0543,0.8968,-0.1432,-0.4613,0.2095,-0.0366,11.6287,-27.5363,16.7475,-8.669514633757561,3.0892446191604326,0.48083633474032256,13.747561356282997
0.1492,0.9803,-0.2932,-0.4613,0.2095,-0.0366,14.805,-20.2562,6.1775,-16.209752031585744,8.062498141572185,3.183035057406252,13.748784128802008
0.0689,0.8952,-0.1563,-0.4605,0.2102,-0.0383,15.925,-6.6588,6.475,-10.232510776409278,4.50085520277868,0.18054125445251248,13.750055741438999
0.0986,0.9555,-0.2286,-0.4605,0.2102,-0.0383,19.4425,4.2088,6.44,-13.312986815709724,5.676439386424496,1.196346555840851,13.751989526979917
-0.0212,0.9726,0.0892,-0.1201,0.1537,0.0499,-8.2775,-0.9275,-16.4237,2.5948664207742898,1.7418509412202416,11.265859386364598,13.75409602250326
-0.021,0.9623,0.0989,-0.1207,0.1552,0.0592,-9.6775,-0.4725,-16.52,5.478933565253576,-0.007019231658952086,16.12473326420061,13.755318087194475
-0.021,0.9623,0.0989,-0.1207,0.1552,0.0592,-9.6775,-0.4725,-16.52,5.821713019322173,-0.7314062416276547,17.974907482801,13.757442278412737
-0.0148,0.9533,0.1033,-0.1209,0.1554,0.0516,-10.15,-0.4112,-15.7762,6.143643193470804,-0.7927613018741552,16.556676483110827,13.758677791832092
-0.0059,0.9508,0.1108,-0.1209,0.1554,0.0516,-9.8787,0.3588,-15.435,6.588478512918405,-0.683863176937003,15.98492004582832,13.759873312980924
0.0004,0.9486,0.1163,-0.1202,0.1556,0.0525,-10.1237,0.8138,-14.9713,6.944397374747954,-0.5999869631533412,15.846074560424798,13.761089361135864
-0.0003,0.9437,0.1129,-0.1202,0.1556,0.0525,-9.7388,1.1462,-15.3387,6.836603811608638,-0.4900341834061572,15.844479820009534,13.762291252734869
0.007,0.9389,0.1233,-0.1215,0.1547,0.0564,-9.24,1.9687,-14.9888,7.400641263018408,-0.39439907142531067,16.166348213468098,13.76347155558607
0.0117,0.9477,0.1266,-0.1193,0.1542,0.0555,-8.8375,2.6425,-15.085,7.581402021735851,-0.3721570572178451,16.322587828440852,13.76467203152948
0.0202,0.9534,0.1392,-0.1193,0.1542,0.0555,-8.2337,4.5763,-15.715,8.202645578153366,0.22345670728442873,15.862048873051748,13.765863305711532
0.0169,0.9416,0.1358,-0.1196,0.1546,0.0562,-7.735,5.5475,-16.3887,8.206122407488674,0.6698110888283496,16.006504134750607,13.767059180774265
-0.0009,0.94,0.1354,-0.1196,0.1546,0.0562,-6.93,5.7838,-16.9312,8.198323290562595,0.2019811040728703,15.726530472172835,13.76826708890954
-0.0154,0.9381,0.1394,-0.1226,0.1564,0.0507,-5.4425,5.7488,-17.3512,8.391447086577108,-0.581405769436942,12.861955932155098,13.769565245088913
-0.0199,0.9443,0.1437,-0.1194,0.1554,0.053,-3.3775,5.6262,-17.4475,8.529088793156713,-1.0103533755167953,13.22110718105063,13.770767136687917
-0.023,0.9566,0.1455,-0.1194,0.1554,0.053,-2.6688,5.4425,-16.555,8.563505176254676,-1.2182331195243448,13.251081027928496,13.771984600498453
-0.0199,0.9679,0.1432,-0.1218,0.1534,0.0546,-1.68,5.4688,-16.4412,8.509068788968357,-1.1878815743294546,13.995365916178363,13.773193570375424
-0.0182,0.9741,0.1432,-0.1218,0.1534,0.0546,-0.77,5.7663,-17.7975,8.42157882848986,-1.0939144255713482,14.215491805146604,13.77440430982189
-0.0181,0.9709,0.1395,-0.1205,0.1548,0.0539,-1.2163,5.9588,-19.6525,8.29613069251061,-1.0637852649584016,14.238489482220379,13.775606201420892
-0.0284,0.9742,0.1356,-0.1205,0.155,0.0551,-2.1525,6.4663,-21.6387,8.258896652414576,-1.5755497260247062,14.765955862458776,13.776815171297866
-0.0347,0.9774,0.1374,-0.1198,0.155,0.0551,-1.8987,5.9325,-24.0187,8.190207569874921,-1.9693201476445021,14.743643722759524,13.778022017691448
-0.0478,0.9786,0.1314,-0.1169,0.1567,0.0547,-1.9512,6.0113,-25.4888,8.060996190752387,-2.701094825851741,14.944427616997766,13.779215769270788
-0.0763,0.9812,0.1325,-0.1169,0.1567,0.0547,-1.9775,5.6175,-25.7337,7.978576202125964,-4.259968167010317,14.534926730710689,13.780430755684034
-0.0802,0.9781,0.1362,-0.1158,0.1583,0.0538,-1.9512,4.8387,-25.7512,7.966399010270455,-4.610037757187349,13.903570631548266,13.78165211254745
-0.086,0.9717,0.1365,-0.1158,0.1583,0.0538,-2.17,3.2462,-22.3475,7.968963753842334,-4.960452942093408,13.663879225487314,13.782855773715946
-0.0872,0.9654,0.1403,-0.117,0.1602,0.0522,-1.3037,2.6163,-19.9762,8.115830950046728,-5.082766728305693,12.850305025175707,13.784047401811897
-0.0872,0.9681,0.134,-0.1164,0.1559,0.0527,-1.0762,1.9512,-17.5088,7.9881046485475204,-5.093935315584915,13.054298725460178,13.78525389429158
-0.0861,0.9748,0.1334,-0.1164,0.1559,0.0527,-0.7962,1.6887,-15.3912,7.871737193768219,-5.073346122367675,13.188528444430279,13.786461802426858
-0.0748,0.9794,0.13,-0.1163,0.1586,0.0531,-1.2075,1.05,-13.5887,7.712078532520029,-4.625063215737875,13.255463300089184,13.793019826964416
-0.0715,0.9812,0.129,-0.1163,0.1586,0.0531,-1.8288,-0.0175,-12.0137,7.644710069523102,-4.252749696884071,13.680391661833314,13.805274803524698
-0.0672,0.9753,0.1296,-0.1176,0.1565,0.0519,-1.7062,-0.5075,-11.6988,7.617696646289826,-3.985702458262671,13.57185912698633,13.817529780084982
-0.0628,0.9673,0.1328,-0.1182,0.1564,0.053,-1.0325,-0.77,-11.1387,7.727803326866002,-3.7416862827016457,13.640384273618936,13.830160259291478
-0.0553,0.9668,0.1279,-0.1182,0.1564,0.053,-0.6125,-1.12,-11.0075,7.608356872274272,-3.3428085395552336,13.984486667720414,13.842375951409037
-0.0483,0.9653,0.1244,-0.1176,0.158,0.0538,-0.0963,-1.8025,-10.8937,7.427008775821405,-2.937296647300515,14.590271474654541,13.85456191475913
-0.0432,0.9715,0.1224,-0.1176,0.158,0.0538,-0.2013,-2.2313,-10.71,7.2612646675233234,-2.602363053397479,14.978226759568345,13.866688420574288
-0.0356,0.9742,0.1267,-0.1202,0.1546,0.0546,-0.0963,-2.205,-11.0862,7.363066393314987,-2.180346316561002,15.146331561232705,13.876044842306584
-0.0326,0.9814,0.1166,-0.1203,0.1555,0.0539,-1.225,-2.2925,-12.8975,7.063723506664767,-1.97999500299877,15.539849863134297,13.888229390001083
-0.0289,0.9853,0.116,-0.1203,0.1555,0.0539,-1.4,-1.96,-13.37,6.901906633625859,-1.7823958397608657,15.735905816347982,13.900362620180312
-0.0317,0.9871,0.1135,-0.1198,0.1552,0.0553,-1.3387,-2.0738,-14.2537,6.737251139042987,-1.803076223775802,16.39170881465122,13.91253832002735
-0.0315,0.9879,0.1128,-0.1198,0.1552,0.0553,-2.3712,-1.5925,-14.2975,6.715578376837114,-1.8081921356400583,16.583210912017215,13.924734900794395
-0.0298,0.9888,0.112,-0.1201,0.1555,0.0528,-2.59,-0.6563,-14.5775,6.65326336908121,-1.7760739291935284,15.978603235707448,13.936919094574995
-0.031,0.9846,0.111,-0.1198,0.1555,0.0546,-3.535,-0.1837,-15.1375,6.52950061817361,-1.7765647176608006,16.24773613055732,13.949067543051855
-0.0245,0.9764,0.1185,-0.1198,0.1555,0.0546,-3.3425,-0.49,-15.9687,6.732052205666666,-1.6145953055881659,16.087578729382916,13.961232271568043
-0.0256,0.9759,0.1247,-0.1219,0.1542,0.0573,-3.9638,-0.0963,-16.5025,7.0781729262824085,-1.542296835783032,16.307986138823523,13.973446901943907
-0.0252,0.9744,0.1228,-0.1219,0.1542,0.0573,-3.9375,0.4288,-16.835,7.143735093036938,-1.4963854026010084,16.433669287846286,13.98558614865941
-0.027,0.9673,0.1187,-0.1205,0.1538,0.0518,-4.1825,0.3588,-16.415,7.046578798864355,-1.5477433790888893,15.651873850669356,13.994767383011991
-0.0267,0.9604,0.1226,-0.1208,0.154,0.0548,-3.7538,0.8838,-16.31,7.183120608693907,-1.5651765957801131,15.63307913542956,14.006921140197328
-0.0215,0.9561,0.1232,-0.1208,0.154,0.0548,-3.8675,1.225,-16.1525,7.28128377103005,-1.4181247312654124,15.629606077819549,14.019045168615198
-0.0169,0.959,0.129,-0.1202,0.1562,0.0576,-3.5438,3.605,-16.8175,7.494553611024482,-1.1545557343423594,16.193725489724194,14.03127997208327
-0.0165,0.9614,0.129,-0.1202,0.1562,0.0576,-1.6538,2.6338,-17.5613,7.550514100121228,-1.0266121873699376,16.350295783805787,14.043307028092977
-0.0207,0.9614,0.1266,-0.1194,0.1557,0.0544,-1.8375,2.94,-18.655,7.535930651473012,-1.1797503514939043,15.679003241602098,14.05539495729321
-0.0175,0.9611,0.1259,-0.1183,0.1533,0.0547,-2.3538,3.0363,-19.2675,7.5299052955670325,-1.0624856284936477,15.770126871804589,14.067532434439219
-0.0198,0.9637,0.1216,-0.1183,0.1533,0.0547,-1.715,3.4475,-19.6525,7.410038577005746,-1.1487853720567878,16.00136751626162,14.076970610282048
-0.0221,0.9634,0.1252,-0.1198,0.1554,0.0546,-2.2925,3.8413,-20.3612,7.4098824570205934,-1.2784789656960387,15.600349446132611,14.088910249558847
-0.0265,0.9625,0.1235,-0.1198,0.1554,0.0546,-1.7587,3.7013,-20.055,7.376958372434376,-1.516238489682872,15.512257361690901,14.101013750970608
-0.0314,0.9637,0.1277,-0.1184,0.1556,0.051,-1.7325,3.8063,-20.125,7.436400459161333,-1.7945794260309507,14.197335534893305,14.113145565494245
-0.0313,0.9662,0.1268,-0.1147,0.1569,0.0538,-1.7237,3.5175,-19.3638,7.450471938162875,-1.8311037036260445,15.014958103407807,14.125280211329066
-0.0306,0.9662,0.1272,-0.1147,0.1569,0.0538,-1.4787,3.115,-19.4512,7.47218591078429,-1.8045745186323028,15.233763593513382,14.137410610197108
-0.0313,0.9721,0.133,-0.1178,0.1589,0.0546,-1.8463,3.6138,-19.5912,7.565981087838832,-1.8230598646583254,14.943793136088445,14.149503848105818
-0.04,0.9704,0.1268,-0.1178,0.1589,0.0546,-1.7762,3.43,-20.51,7.5261771461164,-2.2597277672772393,15.046114079283635,14.161577620750114
-0.045,0.9722,0.1274,-0.1158,0.1578,0.0546,-1.0762,3.4913,-21.5425,7.493330209566342,-2.5782296321860803,15.204693192037695,14.171191337886553
-0.0554,0.9793,0.1232,-0.1156,0.1576,0.0558,-1.5925,3.0625,-22.61,7.3636197828376195,-3.1379713235015743,15.718672142410858,14.183020909940945
-0.0643,0.9869,0.1258,-0.1156,0.1576,0.0558,-1.8812,2.4763,-22.0062,7.336141560758088,-3.6270399750114604,15.716675994084909,14.195142107047628
-0.0782,0.9859,0.1245,-0.1148,0.1562,0.0532,-2.7738,2.3013,-21.595,7.289225813170591,-4.383029680972346,15.141883112719592,14.207228266678369
-0.0815,0.9825,0.1245,-0.1148,0.1562,0.0532,-3.2375,1.61,-20.8075,7.25600563182533,-4.656509810436327,14.957055872552564,14.219381316035909
-0.0847,0.9736,0.133,-0.1129,0.1588,0.0535,-2.9225,1.1725,-19.8537,7.463638453066508,-4.879528285169769,14.938936475060993,14.231521624493107
-0.0874,0.9706,0.126,-0.1118,0.1602,0.0545,-1.7587,0.665,-19.7488,7.441135838798741,-5.063291197916019,14.907671875240139,14.243654500758437
-0.0883,0.9749,0.1308,-0.1118,0.1602,0.0545,-1.365,0.1837,-18.48,7.536023755256451,-5.114469833477676,14.722995137536083,14.252842813388988
-0.0862,0.976,0.1277,-0.11,0.1598,0.0536,-0.805,-0.7788,-18.1125,7.487505478069953,-5.032178857755676,14.674210177132496,14.264999401885511
-0.0832,0.9794,0.1295,-0.11,0.1598,0.0536,-1.12,-1.4175,-17.185,7.511337052279409,-4.88479826582681,14.62768875730708,14.277235974923077
-0.0882,0.9772,0.1277,-0.1116,0.1598,0.0551,-1.8375,-1.9075,-16.45,7.491570063387968,-5.016327605908993,14.968990314271567,14.289404242578248
-0.0881,0.9767,0.1207,-0.1121,0.1577,0.0552,-1.4962,-2.1,-15.7675,7.297591202855079,-5.055830625591071,15.516971463221742,14.301548798002226
-0.0828,0.9695,0.1221,-0.1121,0.1577,0.0552,-0.8925,-2.2575,-14.9275,7.228496514860978,-5.023699725522363,15.589000021866015,14.31373263786893
-0.0739,0.965,0.1222,-0.1124,0.1583,0.0542,-0.6825,-2.7125,-14.0875,7.221498570737276,-4.681093809169649,15.30050106650514,14.3259232020997
-0.0652,0.9676,0.1223,-0.1124,0.1583,0.0542,-0.735,-3.535,-13.545,7.2107459665397675,-4.159078443731879,15.389725588532993,14.338113766330471
-0.0559,0.9712,0.119,-0.1127,0.1603,0.0558,-0.8138,-3.675,-12.9587,7.077478120881555,-3.5523615547831233,16.22305278252014,14.350313178408703
-0.0475,0.9734,0.1154,-0.1141,0.1593,0.0534,-0.4375,-3.6925,-13.5537,6.873016974387748,-3.0791846103993663,15.790251773553075,14.362450301640814
-0.0392,0.9718,0.1145,-0.1141,0.1593,0.0534,-0.7613,-3.325,-13.1512,6.781001382146952,-2.5598003551563697,15.894912099115219,14.374575037886482
-0.0283,0.9673,0.1161,-0.1142,0.1575,0.0521,-0.4288,-2.4763,-13.685,6.821890873395268,-2.0339795211683738,15.582914407760619,14.383912702182162
-0.0269,0.9702,0.1194,-0.1142,0.1575,0.0521,-1.0237,-2.0738,-13.4925,6.929325825258683,-1.751442060594351,15.373055271076726,14.396118484710565
-0.0267,0.9701,0.112,-0.1158,0.1574,0.0569,-1.4088,-1.4612,-13.4575,6.7709755564278,-1.6361197238070773,17.090331504414085,14.408242513128435
-0.0296,0.9667,0.1149,-0.1162,0.1572,0.0518,-1.1025,-0.98,-13.2475,6.77488955526012,-1.7046807671407915,15.799739735206714,14.42075973988744
-0.0254,0.9628,0.1116,-0.1162,0.1572,0.0518,-0.665,-0.525,-13.3525,6.674531816170706,-1.5750716966806166,15.601781074984196,14.432593558908614
-0.024,0.9673,0.1126,-0.1139,0.158,0.0542,-0.8925,0.525,-13.825,6.654399682980776,-1.4833674276386717,16.060100005149373,14.444745900438358
-0.0231,0.9681,0.1093,-0.1139,0.158,0.0542,-0.0088,1.33,-14.9625,6.506912403187539,-1.4676937470571116,16.21013857136017,14.456828874844012
-0.027,0.9704,0.1071,-0.1138,0.1594,0.051,0.2538,1.6362,-15.7587,6.357438895200792,-1.5136968975621483,16.037632867364003,14.469003512949355
-0.0367,0.9737,0.1049,-0.1147,0.1579,0.0534,-0.3325,2.555,-16.2663,6.220078317205929,-1.8534110385686133,16.415010743562043,14.478158203759556
-0.0367,0.9767,0.11,-0.1147,0.1579,0.0534,0.1312,2.8175,-16.45,6.3652107430235665,-2.016831519797115,16.37003387214216,14.490245425131992
-0.0423,0.9768,0.106,-0.1165,0.1573,0.0508,-0.525,2.9138,-15.82,6.2561119136601135,-2.203638142797209,15.629066674173421,14.502368745722066
-0.0415,0.975,0.1069,-0.1165,0.1573,0.0508,-0.28,2.6513,-15.575,6.256686318202566,-2.2736275676431417,15.338052159469045,14.514497728934513
-0.042,0.9664,0.1072,-0.1155,0.1583,0.0552,-0.4638,2.6513,-15.96,6.30367447720481,-2.365651062428232,16.328334989583894,14.52660264600187
-0.0445,0.9653,0.1036,-0.1155,0.159,0.0507,0.0788,2.8963,-16.2838,6.178996358113839,-2.505601436458113,15.628407815304149,14.538699423049563
-0.0449,0.9682,0.1124,-0.1158,0.159,0.0507,0.9625,2.8788,-17.71,6.517118861879999,-2.6008940317441294,14.958475290816946,14.550778504402334
-0.0447,0.9668,0.1167,-0.1132,0.1578,0.051,1.4875,2.7125,-18.165,6.80577976100245,-2.6214243601413,14.827497023257418,14.55986524374404
-0.0527,0.9773,0.1094,-0.1132,0.1578,0.051,3.3075,3.185,-18.7425,6.450865122083565,-2.971304106142539,15.093145211678262,14.571977593003263
-0.0617,0.9867,0.1041,-0.1144,0.1598,0.052,2.275,3.8063,-19.7138,6.099928332073984,-3.4537481906413348,15.529068147267195,14.583707007424405
-0.0735,0.9911,0.0973,-0.1144,0.1598,0.052,3.045,3.9113,-20.2125,5.685112339914201,-4.095422121499879,15.86222933584223,14.595880937701951
-0.0816,0.9932,0.0946,-0.1146,0.1594,0.0555,2.8612,3.6138,-19.4162,5.480752190117139,-4.566453618576322,17.000293426562887,14.60807893412459
-0.0828,0.989,0.0919,-0.1138,0.1593,0.0466,2.5113,3.85,-18.445,5.338576775925003,-4.7194459502935455,14.815101802680742,14.616731067199048
-0.0847,0.9884,0.0905,-0.1138,0.1593,0.0466,2.4063,3.7362,-18.1562,5.25041423802506,-4.83858217445221,14.275449123966165,14.628904997476594
-0.0857,0.9857,0.0902,-0.1137,0.1589,0.0466,1.9075,3.3075,-17.2987,5.232732312112256,-4.914017535813821,14.141851838807256,14.641167052314843
-0.0861,0.9867,0.0917,-0.1137,0.1589,0.0466,1.7413,2.8438,-17.1763,5.294235465993216,-4.948894737481355,14.038351897416558,14.653304529460854
-0.0891,0.9817,0.0955,-0.1126,0.1598,0.0442,1.3387,2.2575,-16.6863,5.499330886110025,-5.079281737032616,13.321683234975806,14.665473858857721
-0.0937,0.9749,0.0976,-0.1122,0.1591,0.0454,0.8925,0.9887,-14.0087,5.6646235819960395,-5.279929659689208,13.27376074030375,14.677830054792949
-0.0953,0.9662,0.0934,-0.1122,0.1591,0.0454,1.4088,-0.2275,-14.2537,5.552111654875452,-5.4304500208461945,13.221424035338874,14.687209127014743
-0.103,0.9689,0.095,-0.1126,0.1596,0.0449,1.1112,-1.05,-12.4775,5.588987245850717,-5.871531774481706,12.864803870219207,14.699326077154645
-0.0905,0.9731,0.1022,-0.1126,0.1596,0.0449,2.4063,-2.7475,-10.815,5.9238213007564635,-5.39539434865418,12.502863153745487,14.711453290797602
-0.0813,0.9712,0.0955,-0.1167,0.1578,0.0498,1.9862,-3.2987,-8.085,5.674594721589316,-4.841198611695009,14.32473050045732,14.723434691914411
-0.0724,0.9667,0.0969,-0.1167,0.1578,0.0498,2.0825,-3.9988,-6.5975,5.71483188032484,-4.322767220102053,14.682353299300015,14.7355102341282
-0.0583,0.9613,0.1017,-0.1178,0.1562,0.0433,1.8725,-4.4538,-5.6262,5.975966053496097,-3.534508632990621,12.254689828320691,14.74762966166539
-0.0445,0.9601,0.0994,-0.1176,0.1569,0.0436,1.5925,-4.55,-5.355,5.924238081515977,-2.722872050275956,12.287508535297667,14.759571070511681
-0.0331,0.9585,0.11,-0.1176,0.1569,0.0436,2.3275,-4.4625,-5.705,6.435432839712157,-2.037803391349636,11.768046799957453,14.768894578251425
-0.0359,0.9493,0.1103,-0.1198,0.1562,0.0436,2.1088,-4.6638,-6.755,6.591773697759091,-2.1391468918332217,11.42765662637838,14.78096375001504
-0.0396,0.9389,0.1154,-0.1198,0.1562,0.0436,2.9313,-5.4688,-6.9825,6.9400315863690585,-2.3688402007524245,10.922910284729351,14.793013456514245
-0.0401,0.9345,0.1157,-0.1199,0.1557,0.044,3.7275,-5.9325,-6.86,7.04099481598916,-2.4309620158978147,10.96286627671213,14.805077319569385
-0.0362,0.9317,0.1261,-0.1218,0.1521,0.0406,5.6262,-6.685,-6.265,7.63279637342408,-2.2279178433363707,9.068598945330049,14.817098712956717
-0.0313,0.9317,0.1342,-0.1218,0.1521,0.0406,6.9913,-6.9563,-6.2562,8.14142682167265,-1.9372999667967619,8.378113016415336,14.826600947215157
-0.0348,0.9257,0.1531,-0.1248,0.1515,0.0422,8.2425,-7.1838,-6.2125,9.282441487517525,-2.105208358979159,7.490753442302297,14.838473342851257
-0.0508,0.911,0.1571,-0.1248,0.1515,0.0422,9.6862,-7.35,-6.2737,9.74554857916045,-3.0395522138916395,6.856566562039288,14.850521987608767
-0.0671,0.8987,0.1697,-0.1258,0.1506,0.0434,12.04,-7.9187,-6.2213,10.631238984962144,-4.079087494886875,6.202834537014434,14.86261628725917
-0.0802,0.8874,0.1792,-0.1258,0.1524,0.039,14.7788,-9.3362,-5.2675,11.37314217495065,-4.971775204129041,3.5665922913912462,14.874687582506176
-0.0851,0.8793,0.1654,-0.1264,0.1524,0.039,22.6625,-14.525,-3.7625,10.68086557755276,-5.395867230228714,4.094525549258721,14.886889825895596
-0.09,0.9029,0.1536,-0.1302,0.1505,0.036,26.6963,-17.2987,-3.1937,9.688897428934125,-5.59550722785133,4.054637570868926,14.899086052748743
-0.07,0.9254,0.1437,-0.1302,0.1505,0.036,30.3975,-20.965,-3.1238,8.852249736571908,-4.3764846195199,5.003353916122592,14.911216097702885
-0.0584,0.9321,0.1294,-0.1326,0.1497,0.0316,32.7425,-23.2313,-2.625,7.92999038541569,-3.6123895213800132,4.348175371775882,14.920531465422966
-0.061,0.9308,0.129,-0.1326,0.1484,0.028,34.5625,-25.5587,-2.5813,7.891433874455285,-3.7065978726848567,3.016106242180417,14.932771223685616
-0.0624,0.9127,0.1234,-0.1341,0.1484,0.028,36.4525,-27.5363,-2.2575,7.7047069658066505,-3.8637557269676126,3.122547672102051,14.944954355724521
-0.0602,0.8956,0.1042,-0.136,0.1468,0.0269,38.9025,-29.8987,-1.8288,6.661668457716418,-3.822883827518067,3.8101777995936756,14.957135010366137
-0.0449,0.8915,0.0912,-0.136,0.1468,0.0269,42.1575,-32.1037,-0.5338,5.859077848165462,-2.9295976692479964,4.690006478389704,14.969210906493824
-0.0387,0.8941,0.0676,-0.1392,0.1466,0.0261,45.4038,-34.895,-0.4987,4.3552696782096305,-2.500743741358967,5.8451953524520865,14.981544098025655
-0.0332,0.9019,0.0555,-0.1412,0.1467,0.0188,48.2912,-36.6975,-0.455,3.537531256003893,-2.129533764227024,3.8609993150363167,14.99358708016079
-0.0253,0.909,0.0361,-0.1412,0.1467,0.0188,50.7588,-38.8763,-0.8663,2.2976321847888292,-1.6282390036074064,5.070301498979781,15.005772689596984
0.0007,0.9229,-0.0037,-0.1443,0.1454,0.0104,55.3175,-42.5775,-2.0038,-0.18656096761249383,-0.07508657245609249,4.371744921387031,15.017940249424358
0.0137,0.9344,-0.0209,-0.1443,0.1454,0.0104,55.9212,-44.1875,-2.2925,-1.2628403585826087,0.7735579897040219,5.460255367788661,15.030073833517486
0.03,0.9445,-0.0332,-0.1477,0.1464,0.0065,56.3587,-44.7912,-2.3625,-2.000583172936765,1.742135501462152,4.670581509758341,15.042176627101451
0.0425,0.9561,-0.054,-0.1479,0.1437,0.002,56.28,-44.52,-2.0038,-3.211908699320609,2.484498021573298,4.098193270497743,15.05161904991106
0.0583,0.9625,-0.0667,-0.1479,0.1437,0.002,55.79,-44.2663,-2.2225,-3.951446614587771,3.38785999618979,4.8882397551726875,15.063241228420985
0.0681,0.9606,-0.0893,-0.148,0.1451,-0.0042,55.2038,-43.5575,-3.465,-5.28785264504267,3.9863326147289446,3.872840295624058,15.0757563316966
0.075,0.949,-0.0995,-0.148,0.1451,-0.0042,54.2062,-42.7262,-4.9263,-5.9732957199669245,4.448764336894969,4.581618931071302,15.087750827627652
0.0703,0.941,-0.1145,-0.1509,0.1462,-0.0062,54.1975,-41.5887,-6.3175,-6.920810470256969,4.262526715082447,4.705002538773761,15.100029870333026
0.0691,0.9434,-0.1208,-0.1503,0.1474,-0.0109,54.3288,-41.055,-7.6213,-7.290343568798833,4.168010091508669,3.2855530107265034,15.11229121734348
0.0675,0.9452,-0.1374,-0.1503,0.1474,-0.0109,55.2212,-41.4487,-9.3975,-8.254161521762573,4.06113405065043,4.247190885460611,15.124529913864436
0.0661,0.9367,-0.1524,-0.1513,0.1476,-0.0202,55.4837,-41.3263,-11.725,-9.224187549312534,4.001820685442154,1.5963913289433984,15.136756223398946
0.0714,0.9359,-0.1664,-0.1513,0.1476,-0.0202,56.0612,-40.9325,-12.7225,-10.067199284064445,4.208728832091214,2.418640176172892,15.14904234438229
0.0784,0.9387,-0.1678,-0.149,0.1489,-0.0258,56.4025,-40.2762,-13.6763,-10.133886061599512,4.49783431671203,0.3875740131534158,15.16133306624631
0.0771,0.9444,-0.1743,-0.1505,0.1502,-0.0304,56.7612,-39.27,-15.1112,-10.451548629092489,4.498336519260065,1.0597519133326123,15.173642545546949
0.0708,0.945,-0.1957,-0.1505,0.1502,-0.0304,56.1487,-38.1937,-15.7412,-11.67898144003222,4.380834375707269,0.2514382621095486,15.185903184729606
0.0634,0.9425,-0.2052,-0.148,0.1518,-0.0408,56.4375,-37.485,-16.2488,-12.272579480329629,4.049978753132556,3.069126124536606,15.198197799646511
0.0639,0.9355,-0.2106,-0.148,0.1553,-0.041,56.5862,-37.4238,-17.4125,-12.680018157301895,3.8842740380509975,2.477694890775192,15.210457731001371
0.0617,0.9284,-0.2254,-0.1486,0.1553,-0.041,56.84,-37.0563,-18.4713,-13.63034395717108,3.7384811428941007,1.3593209367815908,15.222745621554205
0.0624,0.9361,-0.2486,-0.1439,0.1574,-0.0478,57.1725,-36.7938,-18.7337,-14.852176940112352,3.6975459144592424,2.466512414815225,15.23499989028669
0.0596,0.9368,-0.2619,-0.1439,0.1574,-0.0478,56.84,-34.8162,-19.075,-15.606567304900897,3.54471475637419,1.5920253426516409,15.24727362428359
0.0613,0.941,-0.2708,-0.1458,0.1598,-0.0579,56.7962,-33.6875,-19.215,-16.04724360339673,3.5748618926958415,4.759178836169775,15.259578502703548
0.0664,0.9441,-0.2787,-0.1443,0.1612,-0.0607,56.3237,-32.2262,-20.055,-16.43999059044437,3.8112176600508394,5.406498051566364,15.271870286309266
0.0597,0.9282,-0.2941,-0.1443,0.1612,-0.0607,55.6675,-30.1875,-19.845,-17.561437381896603,3.5613550418830973,3.9767921711661103,15.28411606110819
0.059,0.9112,-0.3087,-0.1408,0.1609,-0.0651,55.5363,-28.805,-20.6675,-18.69593107463813,3.517255973202775,4.399985436421456,15.296423770839334
0.0476,0.8949,-0.3159,-0.1408,0.1609,-0.0651,55.2475,-27.6238,-20.58,-19.430280069220885,2.97113916994542,3.4295159632726357,15.308694673525046
0.0436,0.8764,-0.3176,-0.1404,0.1678,-0.0733,56.2887,-25.8738,-21.385,-19.91186619243961,2.7181936645079117,5.03566736601309,15.320992827580934
0.0356,0.8578,-0.3445,-0.137,0.1685,-0.0764,57.1637,-24.92,-22.0762,-21.848243157201512,2.269800498046715,3.6253689552115556,15.333232231929687
0.0324,0.8572,-0.3578,-0.137,0.1685,-0.0764,58.4938,-24.64,-22.7938,-22.642847404590565,2.029031360850389,2.5008772961046817,15.345516937257436
0.0353,0.8536,-0.3737,-0.136,0.1724,-0.0818,61.8712,-21.7962,-22.505,-23.62809877571042,2.1527716843665696,2.5746567636099873,15.357806597379764
0.0291,0.8455,-0.3905,-0.1342,0.176,-0.0975,62.9825,-20.7025,-21.735,-24.77263755721429,1.837268817907035,6.391888394585796,15.370101566210566
0.0223,0.8215,-0.4116,-0.1342,0.176,-0.0975,64.7238,-18.2787,-20.09,-26.58539721194033,1.4649673339653035,3.8193087595376,15.382355127115254
0.0104,0.769,-0.4381,-0.1327,0.1786,-0.1005,67.3575,-16.2663,-17.29,-29.6265232563176,0.9218808440366285,0.24385003779020237,15.394643371581987
0.015,0.7874,-0.4591,-0.1327,0.1786,-0.1005,70.9188,-14.3062,-14.105,-30.236339765889863,0.9323597370090936,1.3211233286150148,15.406929846479228
0.0187,0.8108,-0.4884,-0.135,0.1854,-0.1054,73.9113,-12.1012,-9.87,-31.05269882373715,1.0998180899987242,2.2828399623415314,15.419203580476127
0.0078,0.8361,-0.5169,-0.1346,0.1862,-0.1171,76.0813,-9.3712,-6.5188,-31.71701660083714,0.5219339551346037,0.4672229671728369,15.431408301262834
0.0026,0.8794,-0.5789,-0.1346,0.1862,-0.1171,77.3413,-6.93,-4.3225,-33.33616026038321,0.1737791404540924,1.686794905943452,15.443604528115982
0.0029,0.9031,-0.603,-0.138,0.1901,-0.1272,76.51,-4.62,-3.2025,-33.72609217884565,0.15462165732164823,0.1691435256861018,15.455776334910137
-0.0032,0.9255,-0.6349,-0.138,0.1901,-0.1272,71.2688,-2.0563,-4.235,-34.44069892477824,-0.13657331806066123,0.8741059085610329,15.464739912215196
0.0004,0.9411,-0.6535,-0.1414,0.1942,-0.1327,66.78,-0.9275,-6.0025,-34.771331187161046,0.004505321492031223,0.7678522443715672,15.476965867835808
0.0047,0.9567,-0.6751,-0.1426,0.1974,-0.144,61.8187,-0.1312,-7.5338,-35.202169046713394,0.20367793431413792,0.5380965046419348,15.489157139894377
0.0085,0.9611,-0.6921,-0.1426,0.1974,-0.144,55.9912,0.315,-9.03,-35.74874479951524,0.38186815429114596,0.5711850633647005,15.50133425539701
0.0023,0.9496,-0.6958,-0.1428,0.2022,-0.1502,49.8138,0.7613,-11.095,-36.22224357620076,0.16581053268119264,0.5971070615728666,15.513590293698988
-0.0007,0.9334,-0.6941,-0.1428,0.2022,-0.1502,43.9162,1.4612,-12.3812,-36.62667374726077,0.019295979686046297,0.4444842429570634,15.525839253722998
-0.0089,0.9195,-0.6978,-0.1426,0.2054,-0.1509,38.815,0.9887,-13.6062,-37.1810296281854,-0.25730218371556113,0.1591161387548912,15.538039019715127
-0.0143,0.9201,-0.6913,-0.1442,0.2057,-0.1594,33.705,0.1312,-14.665,-36.925783451952654,-0.396363045300849,0.8405519544683585,15.550317354592705
-0.0069,0.8997,-0.6878,-0.1442,0.2057,-0.1594,29.82,-0.0613,-14.9713,-37.38283682033478,-0.3907609656208463,0.7471962829913692,15.562579409430956
0.0,0.9026,-0.6844,-0.1443,0.209,-0.161,25.795,-1.3125,-16.0387,-37.17864375164185,-0.2021551046784068,0.7839198391737525,15.574824476402082
0.0148,0.9065,-0.6816,-0.1442,0.2094,-0.1647,17.64,-2.0388,-18.1037,-36.95104764420305,0.5100613603423867,1.9830578259195546,15.587084053843045
0.0264,0.8968,-0.6744,-0.1442,0.2094,-0.1647,13.0375,-1.435,-18.025,-36.943894538646944,1.1340443165384604,2.2834185575436976,15.599330182555867
0.0292,0.8541,-0.6593,-0.1429,0.21,-0.1659,9.2837,-0.07,-17.6662,-37.60789771661086,1.4333303016465746,1.7254094314909818,15.611554368606987
0.031,0.8443,-0.6559,-0.1429,0.21,-0.1659,6.2562,0.8487,-18.0338,-37.81748268472253,1.6029290175480704,1.5382215134221677,15.623767229413358
0.0311,0.8313,-0.649,-0.1431,0.2133,-0.1613,4.095,2.0825,-17.9638,-37.95733914780626,1.6667605336459002,0.04290198679078392,15.632587117675662
0.0321,0.8187,-0.6411,-0.143,0.2121,-0.1701,3.2375,3.885,-18.6812,-38.04713336263713,1.7459963935681464,0.9726649372090022,15.644761401867108
0.0342,0.7945,-0.6303,-0.143,0.2121,-0.1701,1.6013,5.1275,-18.8825,-38.34811851412783,1.8926147763318162,0.6874972015589725,15.656954443495168
0.0343,0.7606,-0.6095,-0.142,0.2136,-0.1699,0.8925,6.09,-17.7625,-38.62037046011782,1.9818694713526006,0.24004701002099332,15.669159164281876
0.0446,0.7585,-0.6037,-0.142,0.2136,-0.1699,0.7788,6.6763,-16.0737,-38.542373205511105,2.3026987064065905,0.06821512834787262,15.68134937459875
0.0539,0.7757,-0.5918,-0.1422,0.2114,-0.1722,0.91,8.785,-14.0963,-37.62874451783875,2.734379143176945,3.4503866160670413,15.69351127180375
0.0578,0.7893,-0.594,-0.1447,0.2146,-0.1742,1.2337,10.885,-12.7575,-37.111695968281495,3.1651809502391437,4.421561191006175,15.705737581338262
0.0551,0.794,-0.5889,-0.1447,0.2146,-0.1742,1.925,13.2125,-13.195,-36.66945136444107,3.181637022459316,5.272574955694298,15.717928499482932
0.0243,0.7969,-0.5877,-0.1473,0.2131,-0.172,1.5925,16.0562,-16.8437,-36.46194492447861,2.0544102043634433,4.884176647370968,15.726834742736449
0.0049,0.7928,-0.5772,-0.1473,0.2131,-0.172,0.7263,15.715,-17.675,-36.158176775697505,0.7816579527389284,5.304647105221526,15.739058928787568
-0.0128,0.7811,-0.5827,-0.1468,0.2138,-0.1721,1.0062,15.1375,-17.815,-36.590652094823305,-0.33892221553388746,3.9410526696643147,15.751287007891571
-0.0249,0.7674,-0.5838,-0.1494,0.2147,-0.1782,1.1638,13.7112,-17.745,-37.110434841605375,-1.1659270867009188,4.2942008785049195,15.763548708815923
-0.0335,0.7618,-0.5757,-0.1494,0.2147,-0.1782,2.0825,10.6138,-16.975,-37.08464564559145,-1.715373666442622,4.546465222697199,15.775803331462308
-0.041,0.7662,-0.5832,-0.1498,0.2146,-0.1764,3.0975,7.7613,-16.2663,-37.24667902729317,-2.103622615431273,3.794778031656111,15.788005220937828
-0.0285,0.7826,-0.5855,-0.1498,0.2146,-0.1764,4.3575,5.5125,-16.555,-36.860257381736496,-1.8471872778528304,4.4471218599353115,15.800208526068943
-0.0166,0.7973,-0.5927,-0.1497,0.2166,-0.1778,4.5413,3.1238,-16.4762,-36.65646633126245,-1.3326891040041975,4.80523723116177,15.812430234722775
-0.0084,0.8103,-0.5965,-0.1488,0.2148,-0.1798,4.2875,1.1375,-17.5875,-36.3979896479347,-0.7237012307727261,4.833617899720928,15.824654420773896
-0.0009,0.8118,-0.6018,-0.1488,0.2148,-0.1798,3.0275,-0.1837,-18.5675,-36.52593605821515,-0.20179199716397606,5.686928998306391,15.837001414947766
-0.0081,0.7897,-0.6025,-0.1488,0.2166,-0.1774,1.5575,-0.5425,-19.18,-37.17253466731539,-0.4149105259886353,4.409939102649002,15.849141723404962
-0.0104,0.773,-0.599,-0.1488,0.2166,-0.1774,0.9975,-2.7388,-18.2612,-37.63148262165194,-0.562525716666807,3.168282677884395,15.861397761706941
-0.0038,0.7605,-0.5982,-0.1451,0.2155,-0.1759,1.26,-3.255,-17.5,-38.065100812286545,-0.32445296388422695,2.189708840120161,15.873652384353324
0.0021,0.7621,-0.5966,-0.1504,0.2159,-0.1789,2.3888,-3.2813,-16.5025,-38.056910664699444,-0.06292134536302191,2.8303016593873673,15.885843656411893
0.0228,0.7837,-0.6044,-0.1504,0.2159,-0.1789,3.3075,-3.3075,-15.9337,-37.70335462208573,0.563341666465529,3.7056231757014992,15.894757685771175
0.0295,0.7904,-0.6035,-0.1478,0.2166,-0.181,3.2025,-3.3513,-15.925,-37.415711291370634,1.074830509991355,4.838149204428789,15.906949665657539
0.0317,0.7949,-0.6068,-0.1478,0.2166,-0.181,4.1038,-2.6075,-16.4762,-37.36488253404319,1.503103327810712,5.06337052342597,15.91917597519205
0.0328,0.7908,-0.6115,-0.1466,0.2172,-0.176,3.7275,-1.5925,-16.9662,-37.66373673309643,1.7477770302357996,3.296612780690148,15.931409716918429
0.0299,0.7943,-0.614,-0.1469,0.219,-0.179,3.5175,-1.2512,-18.1912,-37.69831713008774,1.7161542059300008,3.2122331105265767,15.943632133400058
0.0303,0.8018,-0.6165,-0.1469,0.219,-0.179,2.3187,-0.7088,-19.1712,-37.58190677099675,1.7159978889777052,3.385975739673028,15.955819158491845
0.0225,0.8004,-0.6222,-0.1456,0.2193,-0.1803,2.1438,-0.4987,-20.65,-37.808665256549496,1.339344473560055,3.2625645943721575,15.968055731529411
0.019,0.7959,-0.619,-0.1456,0.2193,-0.1803,1.6625,-0.2538,-20.6763,-37.86032968644948,1.1190958505988267,3.1903892746606672,15.980215151337122
0.0181,0.7892,-0.6167,-0.1465,0.2218,-0.1846,-0.0963,-0.4462,-19.6087,-37.95927835079219,1.050534366778344,3.4426079901685305,15.992537371538102
0.0163,0.785,-0.6189,-0.1442,0.2207,-0.1806,0.1138,-0.0963,-19.9937,-38.16569596124902,0.9539439472454705,2.7115918203143936,16.00472652011328
0.0224,0.7898,-0.6185,-0.1442,0.2207,-0.1806,0.0438,0.0788,-19.9237,-38.095331734419105,1.2232717727642368,2.623297628371572,16.01357684497085
0.0273,0.7889,-0.6198,-0.145,0.2199,-0.1818,-0.0613,0.7788,-20.7287,-38.13635492920662,1.508070322201974,2.7163776163326823,16.025797491882983
0.026,0.7949,-0.6228,-0.145,0.2199,-0.1818,-1.1112,1.1375,-21.21,-38.105385131672335,1.4795442406230424,2.722699293259377,16.03802026227851
0.0224,0.7914,-0.6177,-0.1428,0.2218,-0.1778,-1.6187,2.0738,-21.105,-38.0533155351249,1.306961686057759,2.160548642767685,16.050263913594044
0.0216,0.7835,-0.6149,-0.1437,0.2226,-0.1806,-2.1263,2.17,-21.1575,-38.062005775506535,1.251547192548711,2.046486947092425,16.062439259527185
0.0093,0.7778,-0.6158,-0.1437,0.2226,-0.1806,-2.2488,3.01,-20.7725,-38.066527548074895,0.6442652081684239,1.6196390184300102,16.07478483804546
0.0068,0.7775,-0.6106,-0.1423,0.2232,-0.1808,-2.4237,3.0538,-20.9913,-38.077195137075925,0.4304284669490351,1.7179556096047048,16.08691098994672
0.0061,0.771,-0.6045,-0.1423,0.2232,-0.1808,-2.45,3.395,-20.3,-38.08047809574827,0.3686298948018614,1.8167369086919518,16.09911040202495
0.0023,0.7637,-0.6077,-0.1432,0.2221,-0.1778,-1.8463,3.9375,-20.0375,-38.20707889385804,0.17440554089817084,0.7273095431387505,16.111292826236063
0.0035,0.7671,-0.6034,-0.1416,0.2218,-0.1814,-1.5837,3.71,-20.545,-38.19957911368798,0.20064584690687617,1.800079955846073,16.12351701228718
0.0075,0.7846,-0.6073,-0.1416,0.2218,-0.1814,-1.365,3.2288,-20.86,-37.98240805279756,0.3986835825085055,2.714921817461283,16.13578826888679
0.0079,0.7867,-0.6017,-0.1413,0.2224,-0.1782,-1.7762,3.29,-20.5713,-37.79487696985205,0.44798326933510085,2.6703900217891,16.144619482393846
0.0028,0.7834,-0.6027,-0.1413,0.2224,-0.1782,-1.5925,3.5175,-20.6937,-37.70555366387336,0.20567130611473386,2.4054844659067265,16.156817478816482
-0.0006,0.775,-0.6038,-0.1419,0.2224,-0.1826,-1.6187,4.0338,-20.545,-37.79044035705851,0.0023825162911032685,2.8208650533938546,16.16907174754897
-0.0058,0.7652,-0.6021,-0.1393,0.2229,-0.1817,-1.4525,3.36,-19.6612,-37.97277952849766,-0.27943131952701195,2.2658114400831177,16.18136211549909
-0.0137,0.766,-0.6065,-0.1393,0.2229,-0.1817,-1.2862,2.835,-19.495,-38.16978410253139,-0.706134393573683,1.869349588746646,16.193597272881064
-0.0057,0.7724,-0.6027,-0.1419,0.2254,-0.1822,-0.805,2.3538,-20.0462,-38.04813704362254,-0.3960973237723475,1.9340357017872882,16.205850833785753
-0.0028,0.7803,-0.6052,-0.1624,0.2255,-0.1826,-0.49,1.0762,-20.3875,-37.887620802227225,-0.1996530816147452,1.9485206200131924,16.218072542439586
0.0026,0.7892,-0.6024,-0.1436,0.2255,-0.1826,-0.1488,0.7962,-21.1487,-37.5257594335083,0.10039182410302669,2.3139173779518796,16.23030663807986
0.0017,0.8006,-0.612,-0.141,0.2255,-0.1829,0.1138,0.3675,-22.6975,-37.43389824202603,0.09709109462934867,2.7939780179900353,16.242500741449618
-0.0009,0.8066,-0.611,-0.141,0.2255,-0.1829,-0.7263,1.0325,-23.03,-37.25821923974293,-0.03437046590917114,2.9136030523670837,16.25475324061261
-0.0094,0.8041,-0.6156,-0.1384,0.2254,-0.1854,-1.9775,0.9887,-21.6387,-37.2979633819348,-0.4657805681195666,3.0861999650186607,16.266972471869153
-0.0115,0.7978,-0.6164,-0.1362,0.2257,-0.1866,-2.24,1.33,-20.5012,-37.30706414952033,-0.6241690333794521,3.2177872003464505,16.279245498038254
-0.0148,0.7906,-0.6124,-0.1362,0.2257,-0.1866,-2.1525,1.715,-19.4862,-37.35254378682614,-0.8063023847170567,3.4232816934292374,16.29149976677074
-0.0151,0.7885,-0.608,-0.1383,0.2251,-0.1826,-1.8987,2.0825,-18.1475,-37.42814492877736,-0.8533714789619832,3.1563216486014154,16.303729261530336
-0.014,0.7863,-0.6045,-0.1383,0.2251,-0.1826,-2.2488,2.0563,-18.235,-37.42997791911549,-0.8195262922942496,3.102304214542253,16.315956278892646
-0.0054,0.7877,-0.601,-0.1367,0.2282,-0.1826,-2.0913,1.645,-19.1362,-37.41717674736118,-0.4131058110065229,3.000585487240996,16.328174448407495
-0.0077,0.7888,-0.6046,-0.1361,0.2275,-0.1846,-2.1613,1.4262,-19.39,-37.42203544892775,-0.4380697946289585,3.0768876835462837,16.337114313481358
-0.0062,0.7926,-0.6013,-0.1361,0.2275,-0.1846,-2.3712,1.6013,-19.7663,-37.39908176435801,-0.3713705112698516,3.3524574586864246,16.34939547967012
-0.0107,0.7904,-0.6069,-0.1343,0.2264,-0.1827,-2.4588,2.4763,-20.3437,-37.418568046875116,-0.5760950737578451,3.1107215671737887,16.36160480133751
-0.0168,0.7883,-0.6054,-0.1343,0.2264,-0.1827,-2.9225,3.0013,-20.3175,-37.460282482377295,-0.9051955057065486,2.96091555989179,16.37385163787813
-0.0225,0.786,-0.6023,-0.1366,0.227,-0.1825,-2.0563,2.5813,-19.8275,-37.460646936358415,-1.2323583989380462,2.8161756084186926,16.38607193087637
-0.0207,0.7887,-0.6111,-0.135,0.2271,-0.1838,-1.9162,2.1175,-19.5037,-37.54022759214135,-1.196653611310359,2.668710743774584,16.398380702349208
-0.0062,0.8067,-0.6201,-0.135,0.2271,-0.1838,-2.0738,2.8,-18.8913,-37.54163131914447,-0.5262238799133011,2.913935503400192,16.410635678909493
-0.0025,0.8146,-0.6213,-0.1353,0.2277,-0.1858,-2.3888,3.4475,-17.3425,-37.51843531177102,-0.25919552905929544,3.7097404137183445,16.422859511046713
-0.0102,0.8098,-0.6134,-0.1353,0.2277,-0.1858,-3.8063,4.0075,-15.3037,-37.290582346778294,-0.3114272206460677,4.215931084465899,16.43511590326259
-0.0279,0.7894,-0.6137,-0.137,0.2283,-0.1869,-4.34,4.8913,-15.0587,-37.67653280131773,-0.3692239223026712,3.2019201581927037,16.44737866592864
-0.0389,0.7576,-0.6051,-0.1374,0.2264,-0.1823,-4.235,4.935,-14.0525,-38.298878982533,-1.3583435448437595,1.0197836258786073,16.459632580747225
-0.0365,0.7615,-0.6075,-0.1374,0.2264,-0.1823,-3.57,4.6463,-12.9062,-38.45908551789452,-1.8996971918603918,0.6230061837250251,16.471857120712244
-0.0315,0.7691,-0.6039,-0.139,0.2271,-0.181,-2.6688,4.4713,-13.8775,-38.36684417451666,-1.869570895628897,0.7701686713203193,16.484083784160653
-0.021,0.777,-0.6086,-0.1374,0.2282,-0.1843,-1.9687,3.22,-14.3413,-38.29933101028816,-1.5876741587244119,1.427216134893107,16.496354332932466
-0.0173,0.7854,-0.609,-0.1374,0.2282,-0.1843,-1.5575,2.87,-13.475,-38.08852813370349,-1.221685225682929,2.0011254553747815,16.508608247751052
-0.0181,0.7873,-0.6156,-0.1386,0.2265,-0.1839,-2.135,2.94,-13.6325,-38.08097593697164,-1.1120077832688149,2.0847054804234224,16.520924451415762
-0.0238,0.7871,-0.6148,-0.1386,0.2265,-0.1839,-2.7213,3.255,-13.72,-38.0534279505231,-1.2590052909424847,2.1394948741611195,16.5331001512628
-0.0191,0.7839,-0.6125,-0.14,0.229,-0.1837,-2.8875,2.9138,-14.1575,-38.03377883648091,-1.181575995146458,1.7182780250719298,16.545354773909185
-0.0177,0.7857,-0.6149,-0.1414,0.2256,-0.1845,-3.3338,2.4325,-14.2712,-38.04073680447532,-1.1064173880831194,2.1254694572241446,16.557569758198944
-0.0178,0.7835,-0.617,-0.1414,0.2256,-0.1845,-3.815,1.4175,-15.2075,-38.14982685063727,-1.098669354704062,2.120187946719391,16.566514578067387
-0.0081,0.7915,-0.6115,-0.141,0.2266,-0.184,-3.9025,1.12,-15.4787,-37.86369266604873,-0.9262559387048133,2.1430760813861287,16.57885697136058
-0.006,0.7937,-0.6107,-0.141,0.2266,-0.184,-4.1388,0.9013,-16.2575,-37.676010789416374,-0.6142028499302331,2.3289919238552654,16.590716980010235
-0.0059,0.7925,-0.6166,-0.1413,0.2276,-0.1867,-4.3575,1.0062,-17.6312,-37.81710476924539,-0.4153813878096289,2.4200869903078623,16.603107151679712
-0.0048,0.7946,-0.6138,-0.1398,0.2259,-0.1842,-5.4338,1.3475,-17.9463,-37.716526627343065,-0.31074240691260685,2.5324524595989044,16.615247814050807
-0.0049,0.7919,-0.6102,-0.1398,0.2259,-0.1842,-5.3025,1.7937,-17.4475,-37.64097705440411,-0.289777097145625,2.813519140409288,16.6281239095028
-0.0081,0.7832,-0.6124,-0.1395,0.2272,-0.184,-6.4663,2.4063,-16.0825,-37.94922677175602,-0.3772449172275624,2.371474408554908,16.640365437334943
-0.0106,0.7794,-0.6036,-0.1395,0.2272,-0.184,-6.0462,2.5113,-15.3387,-37.79616622793204,-0.4223702727690015,2.4765294931421145,16.652582899021994
-0.0112,0.7752,-0.5988,-0.1403,0.2259,-0.1787,-5.565,2.6338,-15.4437,-37.710186513517044,-0.4811554879781104,1.7908130435768423,16.664807792900913
-0.0095,0.7782,-0.5987,-0.1399,0.225,-0.1819,-4.5413,2.8,-16.03,-37.614512741773936,-0.5163136734899367,2.4173565011291496,16.677026670243556
0.0009,0.7905,-0.5985,-0.1399,0.225,-0.1819,-4.1825,2.7913,-15.7675,-37.295957731129114,-0.2899886695265957,3.258784073527254,16.68921227967975
0.0041,0.7985,-0.6023,-0.1413,0.2248,-0.1825,-4.445,3.4563,-15.9687,-37.11144778574888,-0.04686213370417033,3.9258097584482265,16.701388333440686
-0.0007,0.7975,-0.6053,-0.1413,0.2242,-0.1804,-4.6813,3.9025,-16.065,-37.172946115932625,-0.043531323167571086,3.4645930329091215,16.7136369395508
-0.0059,0.7939,-0.6052,-0.1401,0.2242,-0.1804,-4.7512,5.0838,-15.0325,-37.27692881356138,-0.06366511565741975,3.1313253304038535,16.72584059859581
-0.0155,0.7845,-0.6024,-0.1392,0.2248,-0.1836,-5.1363,5.3375,-14.5338,-37.45712295433682,-0.36715222162248784,3.4028377699374524,16.738061953335745
-0.0198,0.7764,-0.5968,-0.1392,0.2248,-0.1836,-5.0313,4.585,-14.0437,-37.52433083449925,-0.7746325057293835,3.3845433936068394,16.750289324611952
-0.0158,0.7735,-0.5938,-0.1428,0.2233,-0.183,-4.375,3.78,-13.7462,-37.51644233569064,-0.8631560147876554,3.514260985015923,16.762532268099687
-0.0146,0.7786,-0.6034,-0.1427,0.2232,-0.1841,-3.4913,3.6837,-13.9387,-37.65892539326184,-0.8556175960890424,3.4494232870058257,16.77466266696773
-0.0094,0.7934,-0.6026,-0.1427,0.2232,-0.1841,-3.7625,2.975,-13.4312,-37.394008435833406,-0.658362853971571,4.168754012678858,16.784103674121745
-0.0002,0.8041,-0.6057,-0.1418,0.2225,-0.1824,-4.4538,3.0975,-13.545,-37.11624599288329,-0.2640379695482855,4.561281914566124,16.796299193147092
0.0017,0.8043,-0.6069,-0.1418,0.2225,-0.1824,-4.9175,3.4125,-13.825,-37.05874659183099,-0.06148527413921762,4.647117260460023,16.808485510411085
-0.0038,0.7994,-0.6028,-0.143,0.2234,-0.1855,-5.1275,3.7538,-13.4837,-37.029055594208074,-0.15797437658368185,5.186706306608128,16.82072845389882
-0.0087,0.7894,-0.605,-0.1454,0.2216,-0.1838,-4.8738,3.3513,-13.825,-37.34549366444605,-0.35069899730354237,4.567343086055429,16.832917602473998
-0.0138,0.7878,-0.6069,-0.1454,0.2216,-0.1838,-6.2125,2.7562,-13.4837,-37.556305495274756,-0.6255709009257842,4.199300304888323,16.845049770911533
-0.0138,0.7921,-0.6026,-0.1457,0.2209,-0.1818,-5.8538,2.1613,-13.3175,-37.32652272846412,-0.7338452856517739,4.190417426781552,16.85737057545692
-0.0069,0.7953,-0.5966,-0.1457,0.2209,-0.1818,-5.3288,1.4,-13.1337,-36.986571947200154,-0.5107639029319866,4.346691999431989,16.869660943407045
0.0013,0.7998,-0.5962,-0.1451,0.2206,-0.1804,-5.8888,1.4,-12.775,-36.763673331968235,-0.1011003244428873,4.486002879302183,16.881760197852024
0.0071,0.8049,-0.6013,-0.1443,0.2202,-0.1801,-6.405,0.6212,-13.2562,-36.76195901183632,0.22731958890638496,4.671381873476845,16.893949346427203
0.0112,0.8022,-0.5991,-0.1443,0.2202,-0.1801,-7.0437,0.5425,-13.5625,-36.75467971623031,0.4782811374369227,4.825590907213709,16.906199722106805
0.0142,0.8026,-0.5971,-0.1461,0.2206,-0.1823,-7.2362,1.12,-13.9475,-36.665584413706995,0.6580510784712238,4.859437078472139,16.918305347001958
0.0177,0.8061,-0.5964,-0.1461,0.2206,-0.1823,-7.0,1.1112,-14.9713,-36.525732805949545,0.6999044422717533,4.914428015159515,16.930478569451708
0.0181,0.8076,-0.5944,-0.147,0.2213,-0.1853,-7.5513,2.1963,-15.3562,-36.380777216890124,0.766842550534686,6.11092273639113,16.942601890041782
0.0167,0.8053,-0.5948,-0.1466,0.2186,-0.1786,-8.1112,2.24,-15.0675,-36.439740999558474,0.7737939955532277,5.819127463871652,16.95208890600259
0.0117,0.8001,-0.5846,-0.1466,0.2186,-0.1786,-8.47,2.555,-14.42,-36.19369968804866,0.7342057268392589,5.967449941903002,16.964134365535013
0.0093,0.7935,-0.5814,-0.1466,0.2174,-0.1821,-8.7412,3.1063,-14.735,-36.22545131060797,0.6821309829030042,6.839247449388659,16.97630157144849
0.0042,0.7901,-0.582,-0.1466,0.2174,-0.1821,-8.6538,2.7913,-14.2275,-36.35557677890583,0.47784034411103365,6.897934622836072,16.988453559064336
0.0004,0.7869,-0.5737,-0.1473,0.2179,-0.1786,-8.2163,2.94,-14.8837,-36.131983809259346,0.39529952421137743,6.440408395755814,17.000646954606296
0.0066,0.786,-0.5748,-0.1466,0.2157,-0.1769,-7.8313,2.6688,-14.6562,-36.170924894973865,0.39314121132793783,6.23536096026276,17.012804250930618
0.014,0.797,-0.577,-0.1466,0.2157,-0.1769,-7.0437,2.5113,-15.855,-35.94953410476832,0.5739145309412786,6.513370247470128,17.025075507530225
0.0135,0.8018,-0.574,-0.1454,0.2171,-0.1744,-6.4225,2.7562,-16.1,-35.66652056821031,0.6788356670620636,6.333409285270902,17.037151403657912
0.014,0.8038,-0.5686,-0.1454,0.2171,-0.1744,-6.6763,2.765,-16.2225,-35.34750053233065,0.7504878173578924,6.655056630694192,17.04934126006089
0.0172,0.8011,-0.5743,-0.1493,0.2163,-0.1776,-7.4637,3.2113,-15.6275,-35.58974691627559,0.8359341073155242,7.041179373992826,17.061534301688948
0.0141,0.7934,-0.5707,-0.1474,0.2151,-0.1763,-7.245,3.4475,-15.2862,-35.7047321677894,0.8344992549869755,6.988082291392968,17.07362470828647
0.0024,0.791,-0.5658,-0.1474,0.2151,-0.1763,-6.2388,3.0275,-15.0762,-35.60189959033597,0.8146228457201995,7.05524740688634,17.082891235888567
0.0008,0.7882,-0.5635,-0.1469,0.2136,-0.1738,-5.915,3.0013,-14.1837,-35.570372148114004,0.4465299550205039,6.806967850281836,17.09508144620544
0.0052,0.7868,-0.5624,-0.1469,0.2136,-0.1738,-5.3987,1.9512,-14.1487,-35.56020431259655,0.37881532344496427,6.776570391158817,17.10672946042995
0.0117,0.7894,-0.5646,-0.1482,0.2142,-0.1729,-5.2762,1.4437,-13.8337,-35.570084391838535,0.5534191108178969,6.671851641317386,17.11892639511089
0.0121,0.7954,-0.5666,-0.149,0.2136,-0.1752,-3.9113,1.2075,-14.3675,-35.50408033068903,0.6198650860076972,6.7063014362078075,17.131221010027797
0.0212,0.8064,-0.5636,-0.149,0.2136,-0.1752,-4.3313,0.91,-15.785,-35.13064914185487,0.8684641586733937,7.047260005203261,17.143435994317556
0.0228,0.8035,-0.5688,-0.1482,0.2144,-0.1737,-3.8413,1.3387,-16.1525,-35.231108722007335,1.1028378861888002,7.0701077336926605,17.155677522149702
0.0184,0.8,-0.5747,-0.1482,0.2144,-0.1808,-3.675,1.8463,-16.1437,-35.50116481376398,1.0861852889878922,7.717066925685771,17.16837878413588
0.0183,0.7954,-0.5741,-0.1478,0.2127,-0.1808,-4.0862,2.1175,-16.6513,-35.70756439206831,1.0756034577255513,8.257344756983077,17.18036690961676
0.016,0.789,-0.584,-0.1484,0.2148,-0.1755,-2.9313,2.205,-16.45,-36.028002431376706,0.9942979585944018,6.726346037119443,17.192377331673242
0.0185,0.7968,-0.5968,-0.1484,0.2148,-0.1755,-2.0388,2.3187,-16.1,-36.17583374102072,1.0293576634638135,5.619459119126457,17.20117598510164
0.0297,0.8086,-0.6074,-0.1481,0.213,-0.1742,-1.6887,2.6163,-15.9162,-36.44495072126724,1.321587524074305,5.036200804098119,17.21347803221041
0.0369,0.8208,-0.6137,-0.1481,0.2148,-0.1731,-1.6187,3.2638,-16.1,-36.57825589603991,1.690749550902493,4.432066700315724,17.225677090374745
0.0425,0.8312,-0.6231,-0.1475,0.2148,-0.1731,-1.61,3.9988,-17.0275,-36.68831112018973,2.119609161057418,4.157673935482563,17.23793383650452
0.0515,0.8446,-0.6239,-0.1494,0.215,-0.1764,-3.9025,7.6125,-16.8,-36.54218572116544,2.5524004934774243,5.712290214953221,17.25015094427767
0.051,0.8476,-0.6326,-0.1494,0.215,-0.1764,-5.6175,9.3275,-17.4737,-36.69113559092762,2.6988451440879215,5.408052641846609,17.262354603322684
0.049,0.8484,-0.6346,-0.1502,0.2138,-0.1759,-7.3938,11.9263,-16.9137,-36.77918637535205,2.6661005262071273,5.3324930755696105,17.274648510411794
0.0453,0.8463,-0.6392,-0.1517,0.2118,-0.1774,-9.0562,13.2212,-16.8875,-37.02684269489174,2.524987979106037,5.655419133763662,17.286889330416138
0.0376,0.8408,-0.6443,-0.1517,0.2118,-0.1774,-10.6925,14.875,-15.6363,-37.4165000308961,2.3544095437254478,4.886667833106477,17.29914253740693
0.0381,0.8411,-0.6482,-0.1514,0.2126,-0.1759,-12.2325,16.4325,-15.015,-37.60136786817719,2.3294933561582054,3.92668152989636,17.31142901230417
0.0432,0.8436,-0.6529,-0.1514,0.2126,-0.1759,-14.07,17.1763,-14.385,-37.727238900474944,2.3251179495500915,3.683500463796348,17.32371584111531
0.0496,0.8521,-0.6575,-0.1526,0.2113,-0.184,-16.6163,18.5412,-13.9912,-37.65933660099527,2.490341554744877,6.611091319480443,17.336012225601706
0.059,0.8646,-0.6623,-0.1556,0.2099,-0.1758,-18.6637,20.1338,-13.9038,-37.46466967840085,2.8235703573580566,4.93422281058488,17.34826932564538
0.0698,0.8885,-0.664,-0.1556,0.2099,-0.1758,-24.4212,23.0475,-14.7613,-36.80167509579528,3.0226786074061507,6.208706476057349,17.360557216198213
0.0584,0.882,-0.6603,-0.1572,0.2064,-0.1738,-27.86,24.1675,-15.8375,-36.819286795944144,3.0275175360803557,6.173853582609448,17.373164691001314
0.051,0.8733,-0.6511,-0.1572,0.2064,-0.1738,-32.5587,25.6375,-15.9512,-36.710435132366314,2.868567157997274,6.303068493496823,17.38543665542872
0.0481,0.8637,-0.6409,-0.1594,0.2048,-0.1741,-36.2337,26.285,-16.4937,-36.58071398466804,2.6896362842314865,6.859343368890545,17.397693755472392
0.0598,0.8526,-0.6249,-0.1624,0.2025,-0.1694,-38.0275,26.46,-16.7912,-36.24827232085155,3.0336859594221797,6.566881876687531,17.40997492166116
0.067,0.8565,-0.6195,-0.1624,0.2025,-0.1694,-41.1512,27.09,-17.1588,-35.88721707949196,3.4325000796564,7.255578501528281,17.422255380022126
0.0647,0.8687,-0.6096,-0.1634,0.2009,-0.1682,-43.0587,28.2012,-17.3425,-35.07862752944288,3.471383294632438,8.55882722543991,17.434534422727502
0.0531,0.876,-0.6042,-0.1651,0.1973,-0.1602,-45.6925,29.015,-17.4387,-34.60592432892163,3.041060672030323,7.4675460371885425,17.4467186165081
0.0464,0.8888,-0.5802,-0.1651,0.1973,-0.1602,-48.5275,29.6187,-17.0888,-33.16720987766432,2.683443714539074,9.620834355965318,17.459054285437222
0.0824,0.8952,-0.5675,-0.167,0.1946,-0.1566,-55.6413,31.5438,-15.995,-32.38672613692188,3.5127500733734407,10.754931475683682,17.471350669923616
0.1039,0.8886,-0.5444,-0.167,0.1946,-0.1566,-59.3075,34.0725,-12.5125,-31.509067356470467,5.086733850004144,12.628525521742478,17.48363502133747
0.1083,0.8606,-0.5314,-0.1708,0.1877,-0.1553,-60.6113,38.1675,-9.7212,-31.69122022263646,5.951111189192186,13.080830246579671,17.49581390640959
0.0956,0.8331,-0.5225,-0.1766,0.1838,-0.1474,-61.1975,41.1338,-7.7088,-32.08819784937207,5.599996764808806,10.151250039367287,17.508035968977325
0.0476,0.8231,-0.5017,-0.1766,0.1838,-0.1474,-60.3575,42.8838,-6.1425,-31.375616603760328,3.1053078410154136,10.375672698072455,17.520284221173537
0.0461,0.8544,-0.4998,-0.1803,0.1794,-0.1406,-59.045,42.7262,-6.5188,-30.34459284151936,2.7122697421141333,10.287656901717114,17.532502744602283
0.0625,0.8913,-0.4924,-0.1803,0.1794,-0.137,-58.5462,42.6212,-6.685,-28.943415697615322,3.4274042245190754,11.256451175852888,17.544677028793725
0.0818,0.9133,-0.4848,-0.1818,0.1746,-0.137,-58.4762,41.5625,-8.1637,-27.97754163543898,4.38529559263311,13.371970023665773,17.55415201168199
0.0902,0.9254,-0.4692,-0.1874,0.171,-0.1306,-59.3512,41.5887,-10.01,-26.90489134651722,4.872859537746886,13.0978904056507,17.566469631002292
0.0933,0.9361,-0.462,-0.1874,0.171,-0.1306,-63.14,42.0175,-13.0288,-26.278336874171963,5.031119509373852,13.847118495220304,17.578729208443253
0.0997,0.9567,-0.4594,-0.1883,0.1654,-0.1314,-66.3338,42.175,-12.6175,-25.6596181478892,5.2705510070075725,15.52416669806838,17.591087173947972
0.1076,0.9701,-0.4474,-0.1928,0.162,-0.1176,-70.2363,42.4375,-11.8387,-24.771721295551714,5.638778441671403,12.812882778006891,17.603488316948297
0.1156,0.9656,-0.42,-0.1928,0.162,-0.1176,-73.64,42.8662,-10.7275,-23.524714844921284,6.148567514523622,14.206742363550656,17.616401573359628
0.1086,0.9367,-0.4015,-0.1955,0.1562,-0.1102,-76.5713,42.9625,-10.7712,-23.205834726086106,6.094980731902081,12.85874268565548,17.627855996681703
0.1158,0.9264,-0.3828,-0.1955,0.1562,-0.1102,-79.2488,42.8838,-11.9175,-22.460701478601578,6.471751276504318,13.701368020996107,17.639415886345507
0.129,0.9226,-0.3683,-0.1974,0.1529,-0.1045,-81.1038,42.4987,-12.81,-21.770535412575523,7.1175725173494895,13.18424939590682,17.651804996273285
0.1406,0.9315,-0.3587,-0.2036,0.1478,-0.0938,-82.8188,42.4287,-14.3062,-21.069294349068116,7.517518488948007,11.017072755689629,17.663947428213874
0.164,0.9503,-0.3213,-0.2036,0.1478,-0.0938,-84.9625,44.8,-16.8087,-18.70912770777392,8.631029381450785,13.403753017215793,17.67629052933486
0.1662,0.9479,-0.2918,-0.203,0.1453,-0.0842,-87.2025,47.2325,-16.3712,-17.12897752932008,9.123650943846934,12.31366764630509,17.688537011961582
0.1704,0.9366,-0.2677,-0.2069,0.1403,-0.073,-89.3638,50.1375,-15.8287,-15.964421791026691,9.458784359854361,10.170591997007191,17.70080366768051
0.1723,0.921,-0.2359,-0.2069,0.1403,-0.073,-90.615,52.8937,-15.6887,-14.384458686941432,9.758333824927783,11.49740134771096,17.713083772127582
0.1444,0.8852,-0.197,-0.2072,0.1367,-0.065,-90.7375,55.6937,-14.91,-12.567165736838838,9.641952882150894,10.556290583567963,17.725378387044486
0.1222,0.8772,-0.1772,-0.2072,0.1367,-0.065,-89.7838,56.98,-14.6475,-11.433380178459142,9.055473099077528,11.16831945119259,17.737669462822407
0.1107,0.8721,-0.1577,-0.2114,0.133,-0.0573,-87.92,57.5575,-14.7875,-10.263569883017276,8.588217675482111,9.683324775780978,17.74995346032236
0.1116,0.8765,-0.1341,-0.2094,0.1296,-0.0455,-86.1175,57.6275,-14.105,-8.716952938236025,7.880618783934482,7.608590551970259,17.76224630566977
0.1327,0.9265,-0.098,-0.2094,0.1296,-0.0455,-85.1988,57.3387,-12.1975,-6.06989379272746,8.048528490860893,9.489581596190972,17.774453857767668
0.1371,0.9607,-0.0864,-0.2146,0.1278,-0.0357,-86.4675,57.3737,-9.0562,-5.149962490667087,8.083720962971853,7.122423840407697,17.78676652229339
0.1325,0.9752,-0.0681,-0.2146,0.1278,-0.0357,-87.8938,58.03,-5.4075,-4.007921262836063,7.752912945304969,7.780255220494763,17.799000264019767
0.139,0.9726,-0.0584,-0.2182,0.1227,-0.0289,-90.0288,58.6775,-2.7213,-3.442653782306192,8.091623975867764,6.208189391976133,17.811241437938012
0.1416,0.9432,-0.017,-0.2198,0.121,-0.0153,-92.015,59.1937,-1.015,-1.059129935861092,8.507046593548644,3.8056672533798475,17.823498891895582
0.1505,0.9396,-0.0018,-0.2198,0.121,-0.0153,-93.6163,59.6925,-1.5662,-0.12004171820185243,9.059228211683868,4.345083586647656,17.83575776150875
0.1373,0.9304,0.0132,-0.2257,0.1174,-0.0025,-94.0713,59.5438,-2.485,0.8027746226485452,8.442628292260181,1.211145942957126,17.848027248538866
0.1216,0.9093,0.0386,-0.2277,0.1157,0.0075,-93.5638,58.59,-3.5175,2.413122029009974,7.6762875678510145,0.6716365010642527,17.86017923615471
0.1068,0.8962,0.0558,-0.2277,0.1157,0.0075,-92.8375,57.0413,-6.1863,3.5502468249614627,6.872934498550889,0.09014230421512248,17.87237900214684
0.0928,0.8739,0.1008,-0.2285,0.1134,0.0186,-92.3125,54.1712,-8.05,6.546432046952413,6.127568552616261,1.4343060372849528,17.884613805614915
0.0825,0.8696,0.1261,-0.2285,0.1134,0.0186,-90.4138,50.8987,-9.905,8.231784347963693,5.486916483839197,0.5811163504714257,17.89405905973571
0.0873,0.8631,0.1496,-0.2289,0.1127,0.0302,-88.2613,46.8563,-14.1575,9.814897363073426,5.586423883519342,2.735125714168692,17.90622838913258
0.092,0.8612,0.1693,-0.2289,0.1127,0.0361,-84.4113,39.165,-15.4175,11.10601685828175,5.680911022190447,3.6116811771709902,17.918404796807412
0.0971,0.8561,0.1882,-0.2301,0.1112,0.0361,-81.9175,35.7612,-17.325,12.38233012335811,6.12233138718109,3.034757968048327,17.93055784616495
0.0892,0.8181,0.246,-0.2276,0.1115,0.0513,-78.4263,32.2438,-18.725,16.679440863763208,5.99586630724801,4.505263450205463,17.94268293632452
0.0676,0.8054,0.2563,-0.2276,0.1115,0.0513,-74.13,29.3825,-19.7663,17.639119588078493,4.824246386667187,3.9887042205777274,17.954865360535628
0.0556,0.7829,0.2786,-0.2262,0.1123,0.0585,-69.0375,25.6725,-21.07,19.55966653737053,3.970907574657533,4.570782211322536,17.96698655764231
0.0477,0.7688,0.3064,-0.2262,0.1132,0.0649,-63.245,21.3675,-21.8225,21.694410430488958,3.3857669049681847,4.799165208008321,17.97915765660867
0.0511,0.7553,0.3135,-0.2254,0.1132,0.0649,-57.7588,16.905,-21.4463,22.52672007211202,3.5497040875381902,4.38852967815328,17.991331232972318
0.0489,0.7413,0.3488,-0.2275,0.1133,0.074,-50.61,11.655,-21.1575,25.144009464819593,3.4348041891407086,4.840444625137671,18.003504455422068
0.0639,0.7451,0.3598,-0.2275,0.1133,0.074,-42.6825,7.4375,-20.5187,25.760105724667568,4.263043654834242,4.621939823620187,18.012848136254018
0.0749,0.7523,0.3712,-0.2253,0.1127,0.0842,-35.4813,4.06,-19.3113,26.247974227538467,4.940895516355479,6.311385421468647,18.024946682871203
0.087,0.7675,0.3725,-0.2253,0.1134,0.0834,-27.9562,0.8663,-18.2,25.902686879221456,5.607415762926486,6.448280912782828,18.03708274436162
0.0995,0.7777,0.3721,-0.2232,0.1134,0.0834,-20.5012,-1.3912,-17.2375,25.586676808374367,6.2717949347866755,7.043085317096413,18.049223760646615
0.1075,0.8045,0.3495,-0.2234,0.1137,0.0842,-8.225,-4.7775,-17.7625,23.78402944891567,6.791558949955469,8.59119237889464,18.061347435150587
0.1118,0.8208,0.3368,-0.2234,0.1137,0.0842,-3.675,-6.7725,-17.1763,22.921239402150544,7.0549343093661525,9.522360861062305,18.073420853880982
0.116,0.8342,0.3274,-0.222,0.1141,0.0814,-0.0963,-8.61,-18.06,21.89985201303387,7.294450529178148,9.543339418638068,18.0855349727097
0.1182,0.8442,0.3093,-0.222,0.1141,0.0814,2.975,-9.3887,-18.4363,20.40692288747031,7.444548286196911,10.329498507526079,18.09479937682841
0.1281,0.8476,0.2987,-0.225,0.1132,0.0842,6.51,-11.1125,-18.8038,19.51451735037691,7.97018350150514,11.496281094573996,18.108790654974296
0.1385,0.8551,0.2871,-0.2231,0.1119,0.0822,9.1962,-11.865,-19.3463,18.636135311257384,8.58449319511369,11.88850093094383,18.118404726024632
0.1479,0.8821,0.2649,-0.2231,0.1119,0.0822,11.095,-12.425,-19.3375,16.849104833452593,9.019959077117528,13.044453814265042,18.13062961990355
0.1551,0.8969,0.2533,-0.224,0.1129,0.0773,11.935,-12.3462,-19.8362,15.841553821772905,9.37375338420658,12.394474530683848,18.142867962510607
0.1562,0.9072,0.2346,-0.224,0.1129,0.0773,13.8075,-12.88,-19.95,14.577589615970963,9.448460323493192,13.072914750901637,18.155113383395634
0.1509,0.9196,0.2251,-0.2246,0.113,0.0848,14.945,-13.09,-20.2562,13.799634146181239,9.119856690530028,15.257245983146392,18.167348894691504
0.146,0.9302,0.2169,-0.2206,0.1151,0.0763,15.4962,-12.7925,-20.4837,13.161391722468307,8.757971627391129,13.747570971969761,18.17979002996235
0.1399,0.9496,0.1901,-0.2206,0.1151,0.0763,15.9775,-13.0462,-20.125,11.416055811038209,8.309395023331904,14.571815177839383,18.19201209253008
0.1461,0.9565,0.1874,-0.2204,0.1143,0.0754,14.945,-12.95,-18.3312,11.103300946937852,8.473866341209176,14.631430619192798,18.204188854118815
0.1516,0.9593,0.1875,-0.2204,0.1143,0.0754,14.5075,-13.0288,-18.5412,11.061797214598807,8.738992846227974,14.702657914225947,18.21347803221041
0.1568,0.9557,0.1843,-0.2227,0.1154,0.0697,12.6875,-12.9062,-18.9875,10.92429471165919,9.067176119456605,13.233277300915194,18.225617278925913
0.1591,0.9531,0.1859,-0.2227,0.1129,0.0701,11.4625,-12.1625,-19.74,11.029201245068844,9.262588298363553,13.291984286507336,18.23781385969296
0.1615,0.9493,0.174,-0.2227,0.1129,0.0701,10.3775,-11.935,-19.9412,10.433725249995092,9.45908508747135,13.678372530427609,18.249988497798302
0.1564,0.9521,0.1768,-0.221,0.113,0.0703,10.2287,-11.5237,-21.42,10.51333160620297,9.213384417473922,13.728697933486462,18.262168444612122
0.1535,0.9509,0.1752,-0.221,0.113,0.0703,9.4062,-10.9112,-22.645,10.445298770661944,9.043220388893577,13.749357880492294,18.274280439957444
0.1457,0.9528,0.1763,-0.219,0.115,0.0726,8.8812,-11.0075,-23.3013,10.47996798428454,8.60473751110566,14.27054182349476,18.286408361428197
0.1449,0.9532,0.1688,-0.2166,0.1158,0.0666,7.63,-10.5437,-23.17,10.082445684378897,8.52323774784841,13.157928524015855,18.298546192488107
0.1454,0.9468,0.1685,-0.2166,0.1158,0.0666,6.755,-10.9987,-24.1937,10.09028718939354,8.59029392238612,13.056591743552186,18.310675529614453
0.144,0.9431,0.1667,-0.2184,0.1167,0.0662,6.7813,-10.92,-24.8762,10.030528299534202,8.554448358174186,12.840113963407834,18.319988419937243
0.1467,0.9419,0.1659,-0.2184,0.1167,0.0662,5.6262,-10.8937,-24.5875,9.993884223818164,8.70466937476402,12.87008329070716,18.33201264463576
0.1548,0.9435,0.1696,-0.2194,0.1159,0.0665,5.4862,-11.1912,-24.7887,10.167980120101095,9.129195224590996,12.88075566269198,18.344135611311938
0.1598,0.9507,0.1654,-0.215,0.1157,0.0654,5.3463,-9.4062,-24.9025,9.90404955990829,9.377460708494187,13.081255197021441,18.356228141392847
0.167,0.9449,0.1681,-0.215,0.1157,0.0654,5.2238,-9.0212,-24.9025,10.065904165290728,9.825274250806915,13.055079841006831,18.36832987323512
0.1634,0.9357,0.1643,-0.213,0.1167,0.0641,4.8475,-7.91,-24.8937,9.97223955001066,9.765349841047701,12.854708444679318,18.380356221417028
0.1561,0.9323,0.1608,-0.213,0.1167,0.0641,4.4975,-6.8425,-25.8475,9.809913905860903,9.403064274823386,12.867819154342543,18.389556567120124
0.1501,0.9338,0.1491,-0.2125,0.1171,0.062,5.1712,-6.7725,-26.18,9.159350469917731,9.051117151593417,12.692021979127851,18.401635648472897
0.1419,0.9479,0.1424,-0.2109,0.1183,0.0556,5.2588,-6.125,-25.3137,8.615739284913674,8.477041752795463,11.311676578960586,18.414154290887495
0.1424,0.9564,0.1366,-0.2109,0.1183,0.0556,5.005,-5.6087,-24.6575,8.187359530044453,8.393530066156515,11.368184867044219,18.425739662351983
0.1499,0.9681,0.1297,-0.2077,0.1178,0.0614,4.4713,-4.7775,-23.8262,7.702660218173633,8.690905920196066,13.310672987193328,18.4378537811807
0.1505,0.9698,0.1302,-0.2077,0.1178,0.0614,3.325,-4.025,-22.4263,7.655018026554986,8.737578461665175,13.579925673983784,18.449920829460925
0.1548,0.9725,0.1315,-0.2088,0.1182,0.0606,2.8087,-2.8875,-22.4875,7.693213046353623,8.937055705232414,13.372514359959709,18.459131792580973
0.1554,0.973,0.1338,-0.2088,0.1182,0.0606,2.4938,-1.5487,-21.6737,7.806075927481057,8.983863705395104,13.279619772870042,18.471204503483573
0.1543,0.9703,0.1303,-0.2079,0.1184,0.0609,1.015,0.3763,-20.4662,7.685251159850518,8.96089444428798,13.374116214824587,18.48320006115632
0.1438,0.9664,0.1274,-0.2075,0.119,0.0608,0.7525,1.6712,-19.425,7.553610795785976,8.498895038128438,13.402667362158823,18.49522251628535
0.1395,0.9548,0.1322,-0.2075,0.119,0.0608,-0.035,2.5288,-19.2325,7.780952948756162,8.286358762764028,13.281609961811704,18.507300181982526
0.1407,0.9501,0.1324,-0.2055,0.1192,0.0586,-0.84,3.3163,-18.9437,7.870438699958461,8.33225356072164,12.862038955032828,18.516520700777832
0.1358,0.9485,0.1335,-0.2055,0.1192,0.0586,-0.315,4.0075,-18.6725,7.963774629975579,8.12694847858317,12.6450571081328,18.528532538489905
0.1342,0.9531,0.1385,-0.2066,0.1186,0.0513,-0.0613,5.1275,-18.6987,8.173056113915026,7.97485899368558,10.689596681207018,18.540631439020988
0.1309,0.958,0.1364,-0.2048,0.1181,0.0561,0.21,5.4688,-18.1737,8.12338581698528,7.770505539088327,11.588637323735417,18.552660972427983
0.1217,0.9592,0.1393,-0.2048,0.1181,0.0561,-0.735,5.3987,-17.8062,8.207803007332307,7.322479949211801,11.60439274674922,18.564752794681098
0.1156,0.9513,0.1388,-0.2053,0.1198,0.0585,-1.3212,5.1363,-17.185,8.253119674746939,7.00789336846257,12.033756248021348,18.57393615251707
0.1113,0.9496,0.1387,-0.2053,0.1198,0.0585,-0.3763,4.8913,-16.555,8.290264944998974,6.77565936805579,12.083372799597308,18.58600497036679
0.1105,0.9475,0.1446,-0.2042,0.1198,0.0617,-0.8312,4.165,-15.4088,8.518062660401752,6.7293318349913225,12.655257231253504,18.59804582901853
0.1168,0.9482,0.1398,-0.2042,0.1198,0.0617,-1.1375,3.4738,-15.1025,8.448698149476195,6.730034547894551,12.963177571045494,18.610139066927243
0.1195,0.9458,0.1368,-0.2047,0.1202,0.0566,-0.525,2.5288,-14.7262,8.309951644649036,6.839425396308778,12.233831063683928,18.622232658749848
0.1186,0.9487,0.1354,-0.207,0.1206,0.0574,-0.7525,2.1175,-14.875,8.19714084807235,6.879839177438707,12.040642613909299,18.634170528457155
0.1249,0.9576,0.1377,-0.207,0.1206,0.0574,-0.8225,1.4962,-15.3825,8.18871447488431,6.983130965253499,11.992084926901478,18.64279859538652
0.1265,0.9589,0.1369,-0.2063,0.1187,0.0566,-1.1375,1.0937,-15.19,8.155009971522311,7.0186871362165375,11.979822330221351,18.65499659180916
0.1247,0.9572,0.1444,-0.2063,0.1187,0.0566,-0.875,0.7,-15.8638,8.401366169637717,7.157373107987659,11.821199883346617,18.66716485946433
0.1265,0.9529,0.1498,-0.2062,0.12,0.0573,-1.7675,0.7962,-16.5462,8.578025255683798,7.342637606051442,11.716940683000091,18.67936037848968
0.1229,0.9482,0.1393,-0.2056,0.119,0.0612,-1.75,0.8575,-16.7213,8.503195409538229,7.320987704859996,12.002907772059228,18.69153749399231
0.1187,0.9459,0.1441,-0.2056,0.119,0.0612,-1.8375,0.0963,-16.5025,8.55063543105684,7.175795782036262,12.37876685424744,18.70388696556347
0.1197,0.9431,0.1424,-0.2046,0.1206,0.0573,-1.0762,-0.2888,-17.0187,8.570002529155952,7.160946167704056,11.961802778477676,18.71325365079882
0.1209,0.9468,0.1416,-0.2046,0.1206,0.0573,-0.7437,-0.5163,-17.5788,8.531341360398836,7.187123129415706,11.818193571137027,18.725608431078452
0.1251,0.9509,0.1356,-0.2068,0.1194,0.059,-1.1987,-0.7875,-17.3862,8.317007716654093,7.3493909227189365,12.213434922523758,18.737435879649453
0.125,0.9558,0.1353,-0.2056,0.1201,0.0589,-0.315,-1.2075,-17.6138,8.145226131523957,7.369952037535797,12.394873893464377,18.749546813253083
0.1301,0.9586,0.1353,-0.2056,0.1201,0.0589,-1.26,-1.4612,-17.15,8.089433981312803,7.5606529656958745,12.49568709821674,18.76166942601536
0.1343,0.9606,0.1369,-0.2069,0.1179,0.0563,-1.2775,-0.805,-16.8962,8.10009034242282,7.765710825280386,12.00756896362297,18.773793454433232
0.1349,0.9598,0.1355,-0.2069,0.1179,0.0563,-1.7937,-0.42,-16.7038,8.079483438217434,7.862440374443573,11.8884157852683,18.785851654865997
0.1366,0.9614,0.1388,-0.2071,0.1202,0.0625,-2.5988,0.3413,-16.7388,8.113541796155134,7.950740318337757,12.574881215984005,18.795172331294552
0.1324,0.9644,0.1372,-0.2071,0.1202,0.0625,-3.5088,0.595,-16.2225,8.104273527461132,7.839634695796641,12.887082821772307,18.807249289163934
0.1257,0.9598,0.1407,-0.2057,0.1208,0.0548,-3.7275,0.3588,-15.0325,8.244181352985027,7.808495754877982,12.081460171965436,18.819453302122845
0.1186,0.9539,0.1435,-0.2058,0.1194,0.0572,-3.9375,0.5688,-14.6125,8.438841770258145,7.544495228989646,11.9084295277932,18.831390817916255
0.116,0.9485,0.1471,-0.2058,0.1194,0.0572,-4.6638,0.2888,-14.0525,8.704790691248892,7.209268855806414,11.685510317279626,18.843372926860862
0.118,0.9502,0.1448,-0.2056,0.119,0.0561,-4.48,-0.42,-14.1138,8.677085328028198,7.104567584796648,11.418686141077231,18.855489169172966
0.1198,0.9489,0.1424,-0.2056,0.119,0.0561,-4.445,-1.0237,-13.6588,8.579391568747893,7.111768642652597,11.371695336586424,18.864850545699838
0.1198,0.9469,0.1463,-0.2065,0.1191,0.0568,-4.165,-1.61,-14.0525,8.712813393122454,7.119563437957036,11.34841286716996,18.87693635141668
0.1229,0.9422,0.1456,-0.2082,0.1182,0.0586,-4.1125,-1.9775,-13.4137,8.759363722457264,7.2615399715369175,11.708596736001049,18.889026404100303
0.1292,0.9395,0.1439,-0.2082,0.1182,0.0586,-4.3225,-3.0275,-13.9562,8.724874283609367,7.51796537842522,11.89165796417404,18.901152909915464
0.1324,0.948,0.1479,-0.2065,0.1191,0.0606,-4.1475,-3.2813,-14.91,8.817966180870824,7.573429200567716,12.391822792836251,18.913428767395754
0.1321,0.949,0.1498,-0.2065,0.1191,0.0606,-4.1038,-3.5175,-17.4562,8.916563073465797,7.752645004031127,12.426503920986784,18.925400258923407
0.1302,0.9454,0.1428,-0.2054,0.12,0.057,-4.025,-3.6138,-17.5438,8.707905234802064,7.753992010676591,11.788039641973524,18.937447134111423
0.1291,0.9465,0.1499,-0.2066,0.1197,0.0575,-4.2263,-3.535,-18.0163,8.900979564395646,7.69340668005749,11.518536494600086,18.94950958151097
0.1302,0.9456,0.1486,-0.2066,0.1197,0.0575,-3.9025,-3.43,-18.7337,8.919578601065302,7.7345522074131345,11.517238777365302,18.959008630544325
0.1238,0.9536,0.1504,-0.2054,0.1193,0.0592,-4.0075,-3.2813,-18.41,8.947017653458172,7.406830461519745,11.91643800281929,18.971091251036082
0.124,0.954,0.1543,-0.2054,0.1193,0.0592,-4.41,-3.8413,-18.1912,9.111037874994567,7.33502977406575,11.871523672475943,18.983201476811914
0.1222,0.9493,0.1568,-0.2067,0.1204,0.0659,-4.5763,-4.1475,-17.4913,9.298183534273381,7.2667521332319165,13.262598433951531,18.995239504152472
0.1288,0.9447,0.1598,-0.2047,0.1189,0.0636,-4.34,-4.4363,-17.0888,9.502523739946474,7.525758101799455,13.033224718089633,19.007409895291033
0.1289,0.9361,0.1582,-0.2047,0.1189,0.0636,-4.5938,-4.2263,-17.0888,9.565338015265631,7.6628498193289385,13.014933177662819,19.01947517400177
0.1208,0.9336,0.1611,-0.2026,0.1194,0.0624,-4.55,-4.2525,-17.0625,9.72192966765021,7.400490816542396,12.637764603024323,19.031589292830482
0.1135,0.9382,0.1549,-0.2026,0.1194,0.0624,-3.8325,-4.1475,-17.3075,9.510149472749683,6.992120285896027,12.739046681903408,19.040972612019058
0.1016,0.9398,0.1563,-0.2043,0.119,0.058,-2.9138,-4.375,-17.1588,9.483517009441632,6.383599530680236,11.468057236368814,19.053207061573232
0.0952,0.9451,0.1548,-0.2062,0.1198,0.0614,-1.9862,-4.6375,-17.2637,9.44408505948274,5.900658747164128,11.996567601802509,19.0651530713002
0.0889,0.9511,0.1516,-0.2062,0.1198,0.0614,-2.205,-5.6438,-16.6338,9.422581258113295,5.521741191981732,12.155915651780315,19.077271791009597
0.0935,0.9523,0.1562,-0.2046,0.1171,0.0625,-1.7587,-6.8338,-14.9362,9.386459196682742,5.523523555563951,12.527943664055913,19.08936325934881
0.1064,0.9449,0.1516,-0.2046,0.1171,0.0625,-1.4525,-7.8313,-13.9562,9.264817536084012,5.96242631502616,12.801846427175198,19.101427476317852
0.1096,0.9379,0.1537,-0.2057,0.1189,0.0653,-0.7875,-8.3212,-13.055,9.289799200300742,6.376362628223593,13.348184833842206,19.113709350334414
0.1135,0.9341,0.1517,-0.2057,0.1189,0.0653,-0.5513,-9.3013,-12.25,9.248531793769347,6.719130237113732,13.491292493030024,19.125548831977962
0.1208,0.9367,0.1521,-0.2079,0.1188,0.0591,-0.105,-9.5637,-11.6725,9.231156252344007,7.133746781537903,11.826361708173863,19.134361995876194
0.1302,0.9385,0.1488,-0.2063,0.1187,0.0638,-0.35,-9.87,-10.4825,9.085443365550326,7.683252070294508,13.228482753048272,19.1464785921022
0.1486,0.9405,0.1491,-0.2063,0.1187,0.0638,-0.0613,-9.7037,-10.1763,9.032379597718922,8.669519880228535,13.531171572348258,19.15868012766382
0.1623,0.9431,0.1511,-0.2096,0.1182,0.0614,0.4987,-9.205,-9.87,9.083760722231709,9.487612857433952,12.808769016199118,19.170834592676954
0.1601,0.9433,0.145,-0.2096,0.1182,0.0614,0.6212,-8.6012,-9.8087,8.827638598256977,9.517272613117175,12.935579633395141,19.183009230782297
0.1626,0.9447,0.1448,-0.2105,0.1154,0.0598,0.7088,-7.9888,-10.5787,8.742798464121098,9.630370521742778,12.595196202169562,19.191712327458127
0.1661,0.9435,0.1447,-0.2098,0.1168,0.0637,0.5163,-8.0325,-10.57,8.725470076281473,9.827788959236202,13.617768472995325,19.204571788956894
0.1672,0.946,0.1439,-0.2098,0.1168,0.0637,0.8663,-7.6563,-10.9812,8.667664103439627,9.895138283951106,13.764369672329464,19.2166657346934
0.1753,0.9439,0.141,-0.213,0.1169,0.0635,0.2013,-7.1138,-11.4712,8.545565842874181,10.297429578149625,13.698611524680873,19.228692790703107
0.1758,0.9396,0.1422,-0.213,0.1169,0.0635,-0.4462,-5.6175,-11.3312,8.584481965576193,10.442475965356472,13.644742117917232,19.24083168350471
0.184,0.9384,0.1408,-0.2144,0.1166,0.0641,-0.175,-4.935,-12.2237,8.549771903491656,10.837017427916663,13.834429979921959,19.25287962043442
0.1833,0.9412,0.1344,-0.2122,0.118,0.0607,-0.0788,-4.5062,-12.1625,8.25953091208011,10.893347603861402,13.321866315904265,19.264978167051606
0.182,0.9404,0.139,-0.2122,0.118,0.0607,-0.4725,-3.1937,-14.21,8.354794934353677,10.867376296833,13.09132763280193,19.274380951504593
0.1749,0.9409,0.1354,-0.2132,0.1155,0.0629,-0.0175,-1.7325,-15.0412,8.2400162752192,10.840579717189314,13.571388010021879,19.286487284227544
0.1664,0.9471,0.1337,-0.2132,0.1155,0.0629,-0.1312,-1.4,-16.4062,8.100598781065592,10.29130261967757,13.680248202910047,19.298619806578976
0.1649,0.9463,0.1352,-0.2138,0.1163,0.0642,0.6125,-1.0412,-16.8612,8.123119924187714,9.9703569730078,13.868593472310867,19.310608639887654
0.1603,0.9483,0.1315,-0.2138,0.1163,0.0642,0.8487,-0.1225,-16.8787,7.950329415404439,9.672991132938636,13.965911769308756,19.32268205861805
0.1602,0.9471,0.131,-0.2132,0.116,0.0642,0.28,0.1488,-16.9575,7.8962654708447175,9.568265583748733,14.035936169385982,19.33468858762165
0.1623,0.9506,0.14,-0.2128,0.1168,0.062,-0.1488,0.175,-17.5088,8.223368552371408,9.581820486886174,13.618561614286017,19.34406199722107
0.1576,0.9473,0.1328,-0.2128,0.1168,0.062,0.1488,0.3063,-17.675,8.051435749423021,9.419125811655606,13.515099064420543,19.35596730684972
0.159,0.9471,0.1362,-0.2127,0.1154,0.0617,-0.525,0.105,-17.7012,8.135249025103809,9.430377090779034,13.377434281382769,19.36801347420994
0.1566,0.9465,0.133,-0.2127,0.1154,0.0617,-0.6212,0.7263,-17.115,8.050373555725132,9.346519517741076,13.36443236093259,19.380068135503723
0.1542,0.9452,0.1305,-0.2143,0.115,0.0641,-1.2163,0.4375,-16.8,7.9534434998824075,9.24182587589156,13.61825176385637,19.3921465090287
0.1525,0.9417,0.1326,-0.2147,0.1166,0.0609,-1.3212,0.8575,-16.5025,7.983348260841943,9.165202167942283,13.453458596893224,19.401460107179286
0.1485,0.9374,0.1277,-0.2147,0.1166,0.0609,-0.8138,0.35,-16.5375,7.849702561170098,9.021281189577996,13.25975610805017,19.41344433960728
0.1487,0.9432,0.1285,-0.2138,0.1164,0.0617,-0.7437,0.2187,-16.4062,7.794460552469626,8.940576920058577,13.279127319838736,19.425518112251577
0.1563,0.9441,0.1274,-0.2138,0.1164,0.0617,-0.77,0.455,-16.0825,7.7290494529984155,9.12675560735152,13.33873015332221,19.43758834575689
0.1566,0.9445,0.1253,-0.2106,0.1155,0.0622,-0.1225,0.385,-16.6163,7.6116974059990685,9.251327871285397,13.578412291118928,19.44964796184525
0.1607,0.9489,0.1274,-0.2106,0.1179,0.0614,0.63,0.7788,-17.15,7.6378178343290495,9.437226138327937,13.57841569166318,19.46159574114171
0.1612,0.9518,0.1272,-0.2119,0.1179,0.0614,0.0788,0.5688,-16.6075,7.619718504051089,9.492580175824331,13.553597244764985,19.470853774810248
0.1602,0.9539,0.1296,-0.2111,0.1146,0.0616,-0.56,1.1812,-16.7825,7.6936350784698515,9.464776445157343,13.555398449255653,19.482937103129803
0.1574,0.9455,0.1308,-0.2111,0.1146,0.0616,-1.085,1.3825,-16.5112,7.792448374777362,9.405857237102085,13.549014016529794,19.494974068728663
0.1512,0.9406,0.1171,-0.2118,0.1167,0.0592,-0.735,1.155,-17.0713,7.371731889921895,9.178807012921972,13.548482839756335,19.506962194209542
0.1499,0.9382,0.1219,-0.2118,0.1167,0.0592,-0.1312,1.4875,-17.5175,7.392983176397998,9.054692652690528,13.399114804050788,19.519039505992822
0.154,0.9409,0.1217,-0.2124,0.1182,0.0603,1.505,1.1812,-17.6837,7.374789091262581,9.173718232978727,13.39501723296406,19.52830851099221
0.1543,0.9498,0.1194,-0.2122,0.1156,0.0596,1.9425,0.9887,-17.4737,7.205380703963003,9.161651477626126,13.372964384167046,19.540328842637848
0.1538,0.9545,0.1205,-0.2122,0.1156,0.0596,1.7325,1.19,-17.6575,7.19723047319747,9.10485775976958,13.367176783718365,19.552328293363477
0.1547,0.9574,0.1152,-0.2115,0.1179,0.0595,1.3125,1.47,-17.9725,6.9346133840039155,9.11170210904203,13.369849139471166,19.56426651698468
0.1552,0.9547,0.1188,-0.2115,0.1179,0.0595,0.9275,1.9162,-18.3663,7.055402382729985,9.151727152176662,13.315866136769865,19.57627516947167
0.1532,0.9523,0.115,-0.211,0.1194,0.0615,0.1488,1.8725,-18.7162,6.935437058449308,9.091063634918989,13.571213354061651,19.585581689344288
0.1494,0.9553,0.1141,-0.211,0.1194,0.0615,-0.1575,2.0388,-19.1537,6.851114800370542,8.879140453504359,13.737103028895264,19.59759211140077
0.1454,0.9593,0.1189,-0.211,0.1182,0.0579,-0.6475,2.1525,-20.0375,6.983534551160357,8.608962933650872,13.228918106135868,19.60960748825183
0.1451,0.9604,0.1169,-0.2103,0.1164,0.058,-1.0587,1.8637,-20.405,6.959694057586642,8.542046123903926,13.097268038265248,19.621660733890018
0.1394,0.9585,0.1133,-0.2103,0.1164,0.058,-1.6887,1.4437,-21.1487,6.879995190576061,8.264354148369529,13.070368700016408,19.633730967395326
0.1345,0.9631,0.1169,-0.2089,0.1183,0.0574,-1.61,1.1638,-20.8162,6.896063621907619,7.94827945238977,13.066493603942838,19.643055536876766
0.1342,0.9716,0.1143,-0.2089,0.1183,0.0574,-2.4675,1.1812,-20.545,6.864482005097241,7.832232111118591,13.05934964092494,19.654333003249636
0.1409,0.9692,0.1238,-0.2057,0.1182,0.0554,-3.8588,0.5075,-19.425,7.1193978972436875,8.135590177301092,12.698117027010124,19.66650587178549
0.1399,0.9586,0.1201,-0.207,0.119,0.0651,-4.5763,0.6913,-19.2062,7.134618179452596,8.219303637458234,13.403625617890034,19.678726872611524
0.14,0.9577,0.1235,-0.207,0.119,0.0651,-4.4713,0.9887,-18.0075,7.281484667168755,8.241713280169687,13.601762871353843,19.690888061988726
0.1425,0.9527,0.1267,-0.2074,0.1188,0.0576,-5.7575,1.05,-18.69,7.509948106318607,8.391875482042975,13.499085138350281,19.703097029742217
0.141,0.9446,0.1338,-0.2074,0.1188,0.0576,-6.3438,1.12,-18.6025,7.953455145162031,8.403734070793186,13.456609459342276,19.711672363500718
0.1371,0.9373,0.1329,-0.2082,0.1184,0.0594,-6.3088,1.2337,-19.4075,8.047049556389998,8.27123600053414,13.396471034703971,19.724033514230523
0.1334,0.935,0.131,-0.2082,0.1184,0.0594,-5.0138,1.0325,-20.2475,7.994667823885199,8.079573892826845,13.31793525948688,19.736116842550075
0.1297,0.9388,0.1377,-0.207,0.1194,0.0644,-4.8213,0.6125,-20.5012,8.246128871771973,7.829933008225538,13.51301918834052,19.74875935482912
0.1315,0.9442,0.1305,-0.2053,0.1206,0.0622,-4.0862,0.3675,-20.3525,8.00269669902797,7.8509325888648265,13.568341181697278,19.760795612600184
0.1263,0.9476,0.135,-0.2053,0.1206,0.0622,-3.1412,0.1663,-19.565,8.051955194682867,7.578047717302657,13.495375116667166,19.772747284949528
0.1322,0.9459,0.1379,-0.2053,0.1206,0.061,-4.0513,0.3675,-17.6487,8.207522679123102,7.790473241756226,13.285878879462697,19.782151485058108
0.1333,0.9438,0.1355,-0.2053,0.1206,0.061,-3.8675,0.6475,-17.2025,8.18443796966296,7.9043095631768345,13.228647919416515,19.794211455060367
0.1341,0.942,0.1347,-0.2041,0.1224,0.0618,-2.835,0.6563,-17.2987,8.16746935124957,7.984786799970187,13.287789177752,19.806256206764992
0.1371,0.9385,0.1402,-0.2055,0.1201,0.0586,-2.6863,0.9538,-16.6075,8.26518623058644,8.126735485956011,13.115368066407004,19.818280077549613
0.1385,0.934,0.131,-0.2055,0.1201,0.0586,-2.2488,0.6475,-16.415,8.261050331931381,8.25567107528729,12.945154562293292,19.83031775097627
0.133,0.9399,0.1333,-0.2058,0.1198,0.0604,-1.0325,1.0237,-16.3013,8.156762594416822,8.103034131247728,12.95137723695089,19.839618608226516
0.1322,0.9363,0.1315,-0.2058,0.1198,0.0604,-1.1287,1.0412,-16.0125,8.070604396428434,8.034821337105635,12.960938909145765,19.851707953082343
0.1338,0.937,0.128,-0.206,0.1207,0.0579,-0.6125,1.1375,-16.2488,7.888869449947543,8.044454274694683,12.95252572235543,19.86378561877952
0.1303,0.9416,0.1258,-0.206,0.1207,0.0584,0.3675,0.805,-15.995,7.686644422955697,7.934149571711486,12.872825079823032,19.875698714513938
0.1346,0.9437,0.1308,-0.2053,0.1202,0.0584,0.4725,1.05,-15.7237,7.836386837104824,7.9751502973904635,12.84386920916631,19.88771126005381
0.1344,0.9506,0.1208,-0.207,0.1206,0.0593,1.015,1.3475,-15.6187,7.381065712528764,7.978157759826561,12.886807740584446,19.896982742450486
0.1338,0.9554,0.1207,-0.207,0.1206,0.0593,0.9363,1.33,-15.6363,7.243331471037478,7.9545755209921065,12.921992005468681,19.9089853784012
0.1384,0.9509,0.1216,-0.2055,0.1192,0.0588,1.0937,0.7962,-15.575,7.277261004019791,8.037775017720325,12.973029842228934,19.920921478539015
0.1362,0.9504,0.116,-0.2055,0.1192,0.0588,0.1138,1.3912,-15.2163,7.053054856815222,8.043586642972528,13.036212083126005,19.93295101194601
0.1377,0.9512,0.1219,-0.2031,0.1177,0.0566,0.5075,0.4025,-15.5925,7.236629451780237,8.085386898328311,12.872037025451466,19.9449370139435
0.1395,0.951,0.1177,-0.2064,0.1194,0.0575,0.2888,0.6125,-16.1262,7.106344888621749,8.185074928964523,12.857497656859396,19.954192570214747
0.1399,0.9538,0.1147,-0.2064,0.1194,0.0575,-0.42,0.4112,-15.645,6.944826397206991,8.220287066567224,12.899719163023667,19.966284392467863
0.1379,0.9524,0.1193,-0.2058,0.1206,0.0589,-0.49,0.8138,-15.5225,7.069522655469486,8.207171612494989,12.969207687294798,19.978276411001627
0.1377,0.9533,0.118,-0.2058,0.1206,0.0589,-0.7613,0.4112,-15.7237,7.061530927589728,8.188338813247594,13.077742783588707,19.990330718381507
0.1362,0.9486,0.1155,-0.2078,0.1196,0.0606,-1.0062,0.0788,-16.2838,6.994986784647437,8.146825310693908,13.38316933241059,20.00239705883394
0.138,0.9501,0.1205,-0.2078,0.1196,0.0606,-1.1462,-0.35,-16.4762,7.118044897042166,8.177288183540215,13.456025421313493,20.014504807212482
0.1352,0.9514,0.1177,-0.2061,0.1187,0.0586,-1.2687,-0.175,-16.4062,7.0852878184673616,8.092641331552041,13.27849866756248,20.023865829825457
0.1345,0.9562,0.1188,-0.2055,0.1185,0.0571,-0.385,0.3413,-16.5287,7.083297756356197,8.006780829550724,13.028425572241806,20.036281483295618
0.132,0.9558,0.1116,-0.2055,0.1185,0.0571,-0.6038,0.105,-16.6513,6.81898112764297,7.8876976836983825,12.994373360029138,20.047940114937077
0.1321,0.9581,0.1164,-0.206,0.1194,0.0567,-1.3562,-0.0525,-15.7937,6.87034517587704,7.849379848155344,12.789124342332558,20.06006343552715
0.135,0.9622,0.1124,-0.206,0.1194,0.0567,-1.505,0.7088,-15.9162,6.780828028961857,7.8869971642148835,12.795570755637009,20.072087306311772
0.1318,0.9615,0.1135,-0.2043,0.1207,0.054,-1.8725,0.6475,-15.0675,6.767183926970148,7.882032629467152,12.534937762484008,20.084141259777756
0.1287,0.9589,0.1127,-0.2057,0.1211,0.059,-2.3187,0.6475,-14.1837,6.763852647453622,7.743234813608864,12.814816007982506,20.093454857928343
0.1328,0.9552,0.1122,-0.2057,0.1211,0.059,-2.0825,0.7962,-13.6675,6.753963329302628,7.813079328347021,12.974202364880096,20.10550881139433
0.1396,0.9609,0.1204,-0.2064,0.1198,0.0566,-2.8788,1.4262,-12.9937,6.901699821785045,8.077614803570516,12.870098709223782,20.11822246036695
0.1423,0.9604,0.1187,-0.2064,0.1198,0.0566,-2.7475,1.54,-12.1625,6.948650743870625,8.292351096647876,12.788693237182617,20.129692809814458
0.1417,0.9523,0.1219,-0.2083,0.1198,0.0558,-2.4588,1.9425,-12.285,7.0051076450316465,8.36877037802868,12.472349788595851,20.141453014744762
0.1343,0.9488,0.1167,-0.2083,0.1198,0.0582,-1.6275,2.0738,-12.4512,7.007794403414604,8.098773043512871,12.665079656995088,20.153642163319937
0.1321,0.9427,0.1199,-0.2087,0.1198,0.0582,-1.6975,1.8637,-12.7225,7.094782781732262,7.968576409524407,12.673637067816385,20.162356585240516
0.1366,0.9432,0.1199,-0.2068,0.1181,0.0575,-0.9887,0.9363,-12.7662,7.178751756511723,8.11370348287038,12.678565278416212,20.17452662246518
0.1313,0.9524,0.1171,-0.2068,0.1181,0.0575,-0.1925,1.0675,-12.8887,7.064596230803515,7.891656897812222,12.68669345287808,20.18668851967018
0.1358,0.9547,0.1154,-0.209,0.1193,0.0558,-0.385,1.225,-12.7925,6.952104542778135,7.993772111098771,12.65659926546263,20.19890385787384
0.1377,0.9555,0.1131,-0.209,0.1193,0.0558,0.245,0.9625,-13.1337,6.8079861802657,8.093798512288123,12.60596655325709,20.211020454099845
0.1383,0.958,0.1055,-0.2089,0.1194,0.0537,0.14,0.4725,-13.6588,6.438219728028662,8.13646748949272,12.373974740730793,20.219724966431265
0.1405,0.9619,0.1101,-0.2112,0.1177,0.0546,-0.28,0.5338,-13.8687,6.499049012742836,8.203110399615527,12.252099287324933,20.231868814027447
0.1417,0.9602,0.1067,-0.2112,0.1177,0.0546,-1.4437,0.6388,-14.385,6.427769552279041,8.262169788026412,12.229202422379185,20.24404380604669
0.148,0.9572,0.1103,-0.2115,0.1181,0.0554,-0.945,0.98,-14.595,6.510543293956172,8.421156062358463,12.240958363251714,20.256236493760852
0.152,0.9518,0.1072,-0.2115,0.1181,0.0554,-1.68,1.4525,-14.6125,6.479407653225088,8.618068735997817,12.28851415994909,20.26840122227704
0.1529,0.946,0.1042,-0.2121,0.1201,0.0542,-2.2138,1.645,-15.5225,6.470194474877873,8.767763124722125,12.235130414748967,20.277147142534574
0.1531,0.9447,0.1071,-0.2121,0.1201,0.0551,-2.3888,2.1088,-17.0362,6.469946970773323,9.018140265312578,12.254826154616042,20.2893033771172
0.1569,0.9475,0.1118,-0.2086,0.1194,0.0551,-1.785,2.3888,-17.4737,6.5539705740949605,9.243634791587246,12.3243140327815,20.301498542228654
0.1561,0.9531,0.1089,-0.208,0.1194,0.0549,-1.5925,3.2813,-18.0163,6.539634195728574,9.242650583371653,12.428340726171204,20.31365583855297
0.1575,0.9446,0.1091,-0.208,0.1194,0.0549,-1.96,3.4913,-19.425,6.550993085220989,9.374367200522979,12.451712748129708,20.325897366385117
0.1574,0.9451,0.1082,-0.209,0.1185,0.0531,-2.6513,3.7013,-19.285,6.545432754589053,9.391157408959879,12.07295182192983,20.337992373863315
0.1593,0.9445,0.1136,-0.209,0.1185,0.0531,-1.9775,4.3663,-19.5212,6.615061299881909,9.484954828722008,11.816225564045823,20.34672095233983
0.1631,0.9423,0.1143,-0.2098,0.1185,0.0564,-2.2488,4.6287,-19.8537,6.619490424210043,9.703715590412694,12.473176092857688,20.35889629827297
0.1681,0.9428,0.1078,-0.2099,0.119,0.055,-2.0125,5.0662,-20.9825,6.600093676286891,9.995730750102013,12.522460835157121,20.37108686250374
0.1649,0.9506,0.1103,-0.2099,0.119,0.055,-1.5312,5.8538,-21.0,6.607895444054132,9.808568671277804,12.442928179755311,20.38320735178263
0.1579,0.9549,0.1105,-0.2056,0.1195,0.0555,-1.1375,5.7312,-21.91,6.604161841844762,9.389741393285954,12.713531045619234,20.39565238010636
0.1501,0.9585,0.1108,-0.2056,0.1195,0.0555,-1.4875,5.8888,-22.4088,6.599707674669887,8.908168174825938,12.692581130289923,20.40770704140014
0.1457,0.9559,0.1111,-0.2053,0.1213,0.0569,-1.5225,6.475,-23.8175,6.612385334696457,8.640114822867274,12.962226314083681,20.41702948739819
0.1354,0.9554,0.1067,-0.2008,0.1223,0.0524,-2.03,6.02,-23.7213,6.5669279662718845,8.081888138759076,12.167397785254385,20.42911352354554
0.1263,0.9575,0.1146,-0.2008,0.1223,0.0524,-2.2313,5.6262,-23.6513,6.575036978897169,7.526608497591481,11.710688043199564,20.441088908126076
0.1243,0.9558,0.108,-0.2034,0.1217,0.0537,-2.5725,5.5037,-23.3013,6.544772370485474,7.381046751358824,12.012491296279986,20.453153125095113
0.1164,0.9504,0.1121,-0.2034,0.1217,0.0537,-2.6338,5.0575,-22.61,6.593987219393394,6.987371480658842,11.86682725426412,20.46523114470619
