AcclX,AcclY,AcclZ,MagX,MagY,MagZ,GyroX,GyroY,GyroZ,Roll,Pitch,Yaw,Time Elapsed(s)
-1.0449,-0.2571,0.0492,0.2539,0.8025,0.0333,-0.1312,-1.2075,-6.2387,0,0,0,0.0
-1.0451,-0.2569,0.0468,0.2539,0.8025,0.0333,-0.1138,-1.3475,-5.7225,0,0,0,0.0
-1.0471,-0.2627,0.0495,0.2549,0.8031,0.0342,-0.1138,-1.3475,-5.7225,0,0,0,0.015000000013969839
-1.0471,-0.2627,0.0455,0.2549,0.8031,0.0342,0.0,-1.5662,-6.2213,0,0,0,0.015000000013969839
-1.0499,-0.262,0.0455,0.2544,0.8032,0.034,-0.035,-1.0588,-5.7575,0,0,0,0.031000000002677552
-1.0471,-0.2585,0.0498,0.2544,0.8032,0.034,-0.035,-1.0588,-5.4862,0,0,0,0.031000000002677552
-1.047,-0.2621,0.0471,0.2544,0.8032,0.034,-0.0437,-1.4262,-5.4862,0,0,0,0.046000000002095476
-1.0479,-0.259,0.0409,0.2537,0.8027,0.0279,-0.4988,-1.8725,-5.9237,0,0,0,0.046000000002095476
-1.0437,-0.2582,0.0495,0.2537,0.8027,0.0279,-0.2275,-1.6187,-5.8625,0,0,0,0.062000000005355105
-1.0437,-0.2582,0.0495,0.2541,0.8016,0.0306,-0.2275,-1.6187,-5.8625,0,0,0,0.062000000005355105
-1.0461,-0.2605,0.0488,0.2541,0.8016,0.0306,-0.5075,-1.19,-5.7575,0,0,0,0.07799999999406282
-1.0466,-0.2614,0.0483,0.2541,0.8016,0.0306,-0.0962,-1.1725,-6.0462,0,0,0,0.07799999999406282
-1.0441,-0.2594,0.0464,0.2538,0.8034,0.0305,0.0525,-0.9538,-5.6788,0,0,0,0.09300000000803266
-1.0447,-0.26,0.0476,0.2538,0.8034,0.0305,0.0525,-0.9538,-5.6788,0,0,0,0.09300000000803266
-1.0447,-0.26,0.0421,0.255,0.8038,0.0327,-0.21,-1.1463,-5.8975,0,0,0,0.10899999999674037
-1.048,-0.2588,0.0421,0.255,0.8038,0.0327,-0.3938,-1.0938,-5.6438,0,0,0,0.10899999999674037
-1.0468,-0.2585,0.0478,0.256,0.8046,0.031,-0.2713,-1.68,-5.4862,0,0,0,0.12400000001071021
-1.044,-0.26,0.0474,0.256,0.8046,0.031,-0.2713,-1.68,-5.4862,0,0,0,0.12400000001071021
-1.0456,-0.2597,0.0459,0.256,0.8046,0.031,-0.455,-1.8463,-5.6087,0,0,0,0.13999999999941792
-1.0451,-0.258,0.0496,0.2529,0.8024,0.0325,-0.4462,-1.68,-5.4513,0,0,0,0.15600000000267755
-1.0451,-0.258,0.0496,0.2529,0.8024,0.0325,0.0962,-1.0938,-5.9938,0,0,0,0.15600000000267755
-1.0458,-0.2594,0.0444,0.2538,0.8025,0.0338,0.0962,-1.0938,-5.9938,0,0,0,0.17100000000209548
-1.0477,-0.2591,0.0489,0.2538,0.8025,0.0338,0.5425,-0.8487,-6.1863,0,0,0,0.17100000000209548
-1.0477,-0.2628,0.0497,0.2538,0.8025,0.0338,0.2713,-1.3125,-6.0725,0,0,0,0.1869999999908032
-1.0492,-0.2607,0.0469,0.2546,0.8026,0.0268,0.0088,-1.75,-5.8362,0,0,0,0.1869999999908032
-1.0492,-0.2607,0.0486,0.2546,0.8026,0.0268,0.0088,-1.75,-5.8362,0,0,0,0.20200000000477303
-1.0471,-0.2586,0.0486,0.2538,0.8029,0.0334,0.07,-1.785,-5.915,0,0,0,0.20200000000477303
-1.0426,-0.2591,0.0493,0.2538,0.8029,0.0334,0.6125,-1.2775,-5.9938,0,0,0,0.21799999999348074
-1.0476,-0.2592,0.0465,0.2538,0.8029,0.0334,0.6125,-1.2775,-5.8713,0,0,0,0.21799999999348074
-1.0458,-0.2585,0.0481,0.2552,0.8026,0.0309,0.4112,-1.05,-5.8713,0,0,0,0.23399999999674037
-1.0465,-0.2602,0.0465,0.2552,0.8026,0.0309,0.2625,-1.575,-5.8538,0,0,0,0.23399999999674037
-1.0465,-0.2602,0.0465,0.2556,0.8034,0.035,0.1488,-1.645,-5.9237,0,0,0,0.2490000000107102
-1.0463,-0.2596,0.0501,0.2556,0.8034,0.035,0.1488,-1.645,-5.9237,0,0,0,0.2490000000107102
-1.0456,-0.2605,0.0499,0.2556,0.8034,0.035,-0.1312,-1.295,-6.02,0,0,0,0.2649999999994179
-1.0454,-0.26,0.0447,0.253,0.8029,0.037,0.0437,-1.5662,-6.0287,0,0,0,0.2649999999994179
-1.0488,-0.2588,0.0495,0.253,0.8029,0.037,-0.5512,-1.5488,-5.9412,0,0,0,0.28000000001338776
-1.0488,-0.2588,0.0489,0.2526,0.8035,0.0272,-0.5512,-1.5488,-5.9412,0,0,0,0.28000000001338776
-1.045,-0.2592,0.0489,0.2526,0.8035,0.0272,-0.56,-2.0038,-6.1512,0,0,0,0.2960000000020955
-1.0461,-0.2592,0.0475,0.253,0.8044,0.0379,-0.0437,-2.0912,-5.9675,0,0,0,0.2960000000020955
-1.0474,-0.2593,0.0459,0.253,0.8044,0.0379,0.0175,-1.6363,-5.7925,0,0,0,0.3120000000053551
-1.0452,-0.2604,0.0494,0.253,0.8044,0.0379,0.0175,-1.6363,-5.7925,0,0,0,0.3120000000053551
-1.0457,-0.2611,0.0473,0.254,0.8042,0.0327,0.5163,-1.1638,-6.0287,0,0,0,0.3269999999902211
-1.0457,-0.2611,0.0473,0.254,0.8042,0.0327,0.0175,-1.1988,-5.7137,0,0,0,0.3269999999902211
-1.0461,-0.2598,0.0452,0.2552,0.802,0.0357,-0.2362,-1.5925,-5.4338,0,0,0,0.34299999999348074
-1.0455,-0.2609,0.0478,0.2552,0.802,0.0357,-0.2362,-1.5925,-5.4338,0,0,0,0.34299999999348074
-1.0473,-0.2595,0.0461,0.2552,0.802,0.0357,-0.2013,-1.645,-5.6875,0,0,0,0.3580000000074506
-1.0454,-0.2601,0.05,0.2544,0.8024,0.0378,0.5163,-1.225,-5.9938,0,0,0,0.3580000000074506
-1.0454,-0.2601,0.042,0.2544,0.8024,0.0378,0.5163,-1.0938,-5.67,0,0,0,0.3739999999961583
-1.0468,-0.2602,0.042,0.2546,0.8037,0.0347,0.4638,-1.0938,-5.67,0,0,0,0.3739999999961583
-1.0455,-0.259,0.0481,0.2546,0.8037,0.0347,-0.1838,-1.6013,-5.985,0,0,0,0.3899999999994179
-1.0445,-0.2602,0.0463,0.2546,0.8037,0.0347,0.2013,-1.9338,-5.67,0,0,0,0.3899999999994179
-1.0479,-0.2591,0.0466,0.2531,0.8027,0.0386,0.2013,-1.9338,-5.67,0,0,0,0.40499999999883585
-1.0444,-0.2603,0.0513,0.2531,0.8027,0.0386,-0.1838,-2.1263,-5.8713,0,0,0,0.40499999999883585
-1.0444,-0.2603,0.0513,0.2538,0.8024,0.036,-0.1488,-1.6712,-5.8012,0,0,0,0.4210000000020955
-1.0436,-0.2596,0.0451,0.2538,0.8024,0.036,0.0525,-1.26,-5.7137,0,0,0,0.4210000000020955
-1.0457,-0.2583,0.0503,0.2538,0.8024,0.036,0.0525,-1.26,-5.7137,0,0,0,0.4360000000015134
-1.0455,-0.2622,0.0464,0.2553,0.803,0.031,-0.3325,-1.0938,-6.0637,0,0,0,0.4360000000015134
-1.0479,-0.259,0.0454,0.2553,0.803,0.031,-0.42,-1.3825,-5.8275,0,0,0,0.4519999999902211
-1.0479,-0.259,0.0478,0.2542,0.8028,0.0375,-0.6388,-1.5925,-5.7663,0,0,0,0.4519999999902211
-1.0459,-0.2586,0.0478,0.2542,0.8028,0.0375,-0.6388,-1.5925,-5.7663,0,0,0,0.46799999999348074
-1.0477,-0.2599,0.0446,0.2542,0.8029,0.0398,0.2275,-1.2075,-5.7925,0,0,0,0.46799999999348074
-1.0436,-0.2599,0.0495,0.2558,0.8029,0.0398,0.5775,-1.6187,-5.8187,0,0,0,0.48299999999289867
-1.0465,-0.2613,0.049,0.2558,0.8029,0.0398,0.2275,-1.1638,-5.8187,0,0,0,0.48299999999289867
-1.0477,-0.2603,0.0476,0.252,0.8029,0.0374,0.2275,-1.1638,-5.8187,0,0,0,0.4989999999961583
-1.0477,-0.2603,0.0476,0.252,0.8029,0.0374,0.2713,-1.5488,-5.9938,0,0,0,0.5139999999955762
-1.0458,-0.2599,0.0497,0.2532,0.802,0.0348,0.1838,-1.0762,-6.1163,0,0,0,0.5139999999955762
-1.0469,-0.2603,0.0439,0.2532,0.802,0.0348,0.385,-0.8925,-5.9675,0,0,0,0.5299999999988358
-1.046,-0.2577,0.0486,0.2532,0.802,0.0348,0.385,-0.8925,-5.9675,0,0,0,0.5299999999988358
-1.0447,-0.2583,0.0503,0.2546,0.8027,0.0364,0.1312,-1.505,-6.0287,0,0,0,0.5460000000020955
-1.0447,-0.2583,0.0457,0.2546,0.8027,0.0364,0.3762,-1.3212,-5.6788,0,0,0,0.5460000000020955
-1.047,-0.2586,0.0457,0.2546,0.8037,0.0337,0.3762,-1.3212,-5.8275,0,0,0,0.5610000000015134
-1.046,-0.26,0.0509,0.2546,0.8037,0.0337,-0.1225,-1.6187,-5.8275,0,0,0,0.5610000000015134
-1.0466,-0.2605,0.0472,0.2546,0.8037,0.0337,-0.3237,-1.19,-5.9237,0,0,0,0.577000000004773
-1.0496,-0.2597,0.0468,0.2534,0.8045,0.0364,-0.1663,-1.6013,-6.0462,0,0,0,0.577000000004773
-1.0457,-0.2586,0.0486,0.2534,0.8045,0.0364,-0.1663,-1.6013,-6.0462,0,0,0,0.592000000004191
-1.0457,-0.2586,0.0486,0.2546,0.803,0.0322,-0.105,-1.645,-6.0637,0,0,0,0.592000000004191
-1.044,-0.2617,0.0464,0.2546,0.803,0.0322,-0.175,-1.4438,-6.2213,0,0,0,0.6079999999928987
-1.049,-0.2599,0.0494,0.2546,0.803,0.0322,-0.6562,-1.5488,-6.2387,0,0,0,0.6079999999928987
-1.0463,-0.2604,0.0519,0.2542,0.8036,0.0335,-0.6562,-1.5488,-6.2387,0,0,0,0.6239999999961583
-1.0451,-0.2608,0.047,0.2542,0.8036,0.0335,0.245,-1.3913,-5.6962,0,0,0,0.6239999999961583
-1.0451,-0.2608,0.0442,0.2548,0.8038,0.0327,0.4025,-1.5225,-5.53,0,0,0,0.6389999999955762
-1.0476,-0.2616,0.0442,0.2548,0.8038,0.0327,0.6037,-1.8988,-5.88,0,0,0,0.6389999999955762
-1.0477,-0.2593,0.0502,0.2548,0.8028,0.0386,0.6037,-1.8988,-5.88,0,0,0,0.6549999999988358
-1.0424,-0.2575,0.0453,0.2534,0.8028,0.0386,0.385,-1.925,-6.0813,0,0,0,0.6549999999988358
-1.0468,-0.2604,0.0486,0.2534,0.8028,0.0386,0.385,-1.0675,-5.7925,0,0,0,0.6699999999982538
-1.0441,-0.2618,0.0504,0.2546,0.8037,0.0326,0.28,-1.2513,-6.0637,0,0,0,0.6699999999982538
-1.0441,-0.2618,0.0504,0.2546,0.8037,0.0326,0.28,-1.2513,-6.0637,0,0,0,0.6860000000015134
-1.0491,-0.2589,0.0461,0.2576,0.8006,0.0337,0.1925,-1.2775,-6.1425,0,0,0,0.6860000000015134
-1.0451,-0.2596,0.0481,0.2576,0.8006,0.0337,-0.455,-1.3475,-5.9062,0,0,0,0.702000000004773
-1.0465,-0.2622,0.0479,0.2576,0.8006,0.0337,-0.455,-1.3563,-5.3725,0,0,0,0.702000000004773
-1.0446,-0.2594,0.0472,0.2511,0.8037,0.0262,-0.2013,-1.3563,-5.3725,0,0,0,0.716999999989639
-1.0446,-0.2594,0.0472,0.2511,0.8037,0.0262,-0.0962,-1.6538,-5.7225,0,0,0,0.716999999989639
-1.0444,-0.2575,0.0526,0.2542,0.8034,0.036,0.2362,-1.47,-5.5563,0,0,0,0.7329999999928987
-1.0451,-0.2608,0.0467,0.2542,0.8034,0.036,0.2362,-1.47,-5.5563,0,0,0,0.7329999999928987
-1.0482,-0.2613,0.045,0.2542,0.8034,0.036,0.3588,-1.2775,-6.0287,0,0,0,0.7479999999923166
-1.0455,-0.2613,0.0492,0.2533,0.8046,0.0289,0.4988,-1.2513,-5.775,0,0,0,0.7479999999923166
-1.0471,-0.259,0.0465,0.2533,0.8046,0.0289,0.035,-1.6538,-5.635,0,0,0,0.7639999999955762
-1.0471,-0.259,0.0465,0.2553,0.8021,0.0345,0.035,-1.6538,-5.635,0,0,0,0.7639999999955762
-1.0443,-0.2587,0.0495,0.2553,0.8021,0.0345,-0.3237,-1.6538,-6.055,0,0,0,0.7799999999988358
-1.0464,-0.2605,0.0478,0.2553,0.8021,0.0345,-0.0525,-1.5313,-5.88,0,0,0,0.7799999999988358
-1.0454,-0.2605,0.0457,0.2542,0.8033,0.0327,0.3063,-0.9975,-5.5125,38.34666852179256,-1.7246075247250283,0.0,10.498000000006869
-1.0475,-0.2596,0.0461,0.2542,0.8033,0.0327,0.3063,-0.9975,-5.5125,68.01913439244588,-3.4115550886056023,-0.014364000002926333,10.514000000010128
-1.0475,-0.2596,0.0461,0.2533,0.8026,0.041,-0.14,-1.4438,-5.9325,81.70622343461957,-25.66658462810282,-0.03371832000686933,10.530000000013388
-1.0438,-0.2608,0.0456,0.2533,0.8026,0.041,0.1488,-1.1113,-5.565,92.12587649844234,-29.195816165573167,-0.045349037991045824,10.544999999998254
-1.0461,-0.2596,0.0467,0.2533,0.8031,0.0394,-0.0437,-0.8925,-5.6525,96.44235852483433,-35.7440658414905,-0.05366613419455954,10.561000000001513
-1.0459,-0.2595,0.0501,0.2547,0.8031,0.0394,-0.0437,-0.8925,-5.6525,100.4784452937942,-41.369027693095305,-0.06034827077463603,10.576000000000931
-1.0457,-0.2594,0.0456,0.2547,0.8031,0.0394,0.175,-1.2687,-5.3812,110.06450197356034,-44.731800763697606,-0.07258272370089437,10.592000000004191
-1.0463,-0.2594,0.0475,0.2526,0.8045,0.0362,0.14,-1.6363,-5.5213,116.67555182584964,-45.699184958537394,-0.0888871713356053,10.60800000000745
-1.0463,-0.2594,0.0475,0.2526,0.8045,0.0362,-0.0962,-1.505,-6.2387,121.98013633194996,-58.617399344551146,-0.10031595420125634,10.623000000006869
-1.0462,-0.2619,0.048,0.2536,0.8023,0.0336,-0.0962,-1.505,-6.2387,126.75238396219656,-65.94466767462579,-0.11195635878554588,10.639000000010128
-1.0476,-0.259,0.0456,0.2536,0.8023,0.0336,-0.5688,-1.3913,-5.9675,142.70161106383452,-69.16818821431774,-0.11954327288804097,10.653999999994994
-1.0455,-0.2583,0.0482,0.2536,0.8023,0.0336,-0.42,-1.7587,-5.5213,150.80573355571647,-69.37720258017593,-0.1329142256043963,10.669999999998254
-1.0441,-0.2606,0.0482,0.2557,0.8027,0.0461,-0.42,-1.7587,-5.46,156.4803112226736,-69.55833908300377,-0.14494808304911613,10.686000000001513
-1.0441,-0.2606,0.0326,0.2557,0.8027,0.0461,-0.2713,-1.925,-5.46,160.12956014677664,-69.7378314348641,-0.15644077474319606,10.701000000000931
-1.0469,-0.2607,0.0455,0.2546,0.8026,0.0338,-0.0175,-1.2775,-5.8888,160.4447050320443,-71.4724845436105,-0.15919269727262422,10.717000000004191
-1.0451,-0.26,0.0482,0.2546,0.8026,0.0338,-0.1925,-1.6712,-5.915,162.00122627105998,-72.76513254110411,-0.1658346275444863,10.732000000003609
-1.0477,-0.2608,0.0486,0.2546,0.8026,0.0338,-0.1925,-1.6712,-5.915,163.28093148809063,-73.66866021275807,-0.17331644479494043,10.748000000006869
-1.0446,-0.2615,0.0461,0.2546,0.8047,0.0362,-0.105,-1.6625,-5.95,164.00179813117873,-74.32132211791692,-0.17992480032032362,10.764000000010128
-1.0466,-0.2598,0.0471,0.2546,0.8047,0.0362,0.3938,-1.085,-5.495,165.57352005821275,-74.3300565347592,-0.17657982028772287,10.779000000009546
-1.0466,-0.2598,0.0471,0.2526,0.8031,0.0352,0.7,-1.575,-6.0813,167.26071110876467,-74.89194085145999,-0.18160183826357112,10.795000000012806
-1.043,-0.2607,0.0516,0.2526,0.8031,0.0352,0.7,-1.575,-6.0813,167.88811798320626,-75.19436671550908,-0.18470415441576157,10.809999999997672
-1.0449,-0.2592,0.0462,0.2526,0.8031,0.0352,0.0962,-2.065,-5.9763,168.03849977607706,-75.41156535941863,-0.19596973898024345,10.826000000000931
-1.0479,-0.2589,0.0495,0.2542,0.8028,0.035,0.2975,-1.505,-6.0375,168.28897374136545,-75.57769655110815,-0.19804476508663427,10.842000000004191
-1.0443,-0.26,0.0483,0.2542,0.8028,0.035,0.0787,-1.0063,-5.67,168.3599225891575,-75.61015498633552,-0.1918253385774437,10.857000000003609
-1.0443,-0.26,0.0483,0.2538,0.8031,0.0366,0.0787,-1.0063,-5.67,168.42663142344236,-75.63764394087268,-0.18713352472265146,10.873000000006869
-1.0463,-0.2611,0.0458,0.2538,0.8031,0.0366,-0.0263,-1.26,-5.3637,168.49126148695933,-75.65384531185973,-0.18543017224972624,10.888000000006286
-1.0482,-0.2588,0.0504,0.2538,0.8031,0.0424,-0.0875,-1.6187,-5.5738,168.53674377434683,-75.67154911454179,-0.19019643502950237,10.904000000009546
-1.046,-0.2607,0.0457,0.2542,0.8028,0.0424,0.0613,-1.54,-5.8362,168.60383254376507,-75.70468376143513,-0.19335279153107,10.920000000012806
-1.0477,-0.2588,0.0468,0.2542,0.8028,0.0424,0.0613,-1.54,-5.8362,168.65439255845783,-75.75720425407282,-0.1948075123569873,10.934999999997672
-1.0472,-0.2618,0.047,0.2555,0.8022,0.0367,-0.2275,-1.295,-5.39,168.8824429987053,-75.75641250470925,-0.19397476112508766,10.951000000000931
-1.0472,-0.2618,0.047,0.2555,0.8022,0.0367,-0.1838,-1.7062,-5.5388,169.03839580050337,-75.75603554737386,-0.19761098501168506,10.96600000000035
-1.0497,-0.2607,0.0481,0.255,0.8034,0.0362,-0.1838,-1.68,-5.67,169.12267288218058,-75.76681003372681,-0.20204188651544513,10.982000000003609
-1.0502,-0.2589,0.0518,0.255,0.8034,0.0362,-0.0437,-1.68,-5.67,169.0983964001945,-75.7853229045275,-0.2060296978468267,10.997999999992317
-1.0461,-0.2594,0.047,0.255,0.8034,0.0362,-0.4375,-1.4787,-5.4425,169.2952479678728,-75.78846102141372,-0.2053891780807355,11.013000000006286
-1.0467,-0.2588,0.047,0.2544,0.8034,0.0438,-0.56,-1.6013,-5.495,169.4455361819388,-75.7890665234816,-0.20790898027735963,11.029000000009546
-1.0467,-0.2588,0.047,0.2544,0.8034,0.0438,-0.56,-1.6013,-5.495,169.54094878911405,-75.78966854526155,-0.2087356322487848,11.044000000008964
-1.0424,-0.2566,0.0499,0.253,0.8024,0.0345,0.245,-1.785,-6.3088,169.43896064499003,-75.84928327288479,-0.2135660690291429,11.060000000012224
-1.0428,-0.2624,0.0479,0.253,0.8024,0.0345,0.2713,-1.6363,-5.9325,169.4829767168169,-75.78870377851538,-0.2157721821095988,11.076000000000931
-1.0479,-0.263,0.0459,0.253,0.8024,0.0345,-0.07,-1.4262,-5.5125,169.5314023807451,-75.78683874508212,-0.21344866389789177,11.09100000000035
-1.0411,-0.2583,0.047,0.2543,0.802,0.0299,-0.07,-1.4262,-5.5125,169.5436376818554,-75.78819462785708,-0.21264107751228659,11.107000000003609
-1.0516,-0.2622,0.0479,0.2543,0.802,0.0299,-0.07,-1.26,-5.5475,169.55175427697748,-75.7875937028347,-0.20838696976039786,11.122000000003027
-1.0516,-0.2622,0.0479,0.255,0.803,0.0346,0.0525,-1.68,-6.02,169.55518762324905,-75.78401854188013,-0.21174027278928662,11.138000000006286
-1.0526,-0.2585,0.0522,0.255,0.803,0.0346,0.2975,-1.47,-5.7137,169.34124404720527,-75.81163714166334,-0.21173424549541828,11.153999999994994
-1.044,-0.2594,0.0492,0.255,0.803,0.0346,0.2975,-1.47,-5.7137,169.32343606326958,-75.81090316271586,-0.21040582096435856,11.169000000008964
-1.0396,-0.2588,0.0436,0.2543,0.8038,0.0388,-0.1838,-1.435,-5.5738,169.50824018053322,-75.81252651120145,-0.21002923885333874,11.184999999997672
-1.0439,-0.2592,0.0489,0.2543,0.8038,0.0388,-0.035,-1.4787,-5.425,169.49907560181876,-75.81293787848698,-0.20898876498659635,11.200000000011642
-1.0439,-0.2592,0.0489,0.2541,0.8018,0.0474,0.5163,-1.3125,-6.2475,169.43805484454109,-75.81570041548649,-0.2069898884745977,11.21600000000035
-1.0435,-0.2575,0.0518,0.2541,0.8018,0.0474,0.5163,-1.3125,-6.2475,169.16691716215527,-75.83981931875466,-0.20519089961379894,11.231999999989057
-1.0451,-0.2577,0.0437,0.2541,0.8018,0.0382,0.3675,-0.7788,-5.9675,169.48181839292587,-75.87818170494242,-0.1951856096622108,11.247000000003027
-1.0432,-0.2657,0.0412,0.2546,0.8038,0.0382,-0.0962,-0.805,-5.32,169.65253165030788,-75.83026359401015,-0.18725904869835133,11.263000000006286
-1.0465,-0.26,0.0475,0.2546,0.8038,0.0382,0.595,-1.6187,-5.7575,169.65038388821475,-75.82932518863791,-0.1903855938276682,11.278000000005704
-1.0614,-0.2569,0.0581,0.2526,0.8042,0.0344,0.595,-1.6187,-5.7575,168.77174280867865,-75.87885684521298,-0.19465631444965012,11.294000000008964
-1.0614,-0.2569,0.0581,0.2526,0.8042,0.0344,0.7962,-1.7413,-6.6325,168.10724401031231,-75.97734110129012,-0.2002654029869882,11.309999999997672
-1.0495,-0.2563,0.0469,0.2558,0.8028,0.0377,-0.5337,-1.015,-5.7225,168.64692891539767,-75.99246026832458,-0.19394136270105083,11.325000000011642
-1.0403,-0.2608,0.0343,0.2558,0.8028,0.0377,-0.5337,-1.015,-4.8212,170.01496207110011,-75.91933173096454,-0.18916322642063027,11.34100000000035
-1.0388,-0.2621,0.0473,0.2558,0.8028,0.0377,-1.3737,-1.0412,-4.8212,169.87265820592907,-75.79941642161413,-0.1843031037780218,11.355999999999767
-1.0447,-0.2533,0.0607,0.2554,0.803,0.0341,0.8487,-2.1525,-5.9062,168.35029008749288,-75.85846590520556,-0.19686879340653435,11.372000000003027
-1.0447,-0.2533,0.0607,0.2554,0.803,0.0341,0.98,-1.5225,-7.1663,167.45344898236425,-75.94717994665434,-0.19910591405040767,11.387999999991735
-1.0499,-0.2571,0.0546,0.2531,0.8038,0.033,0.98,-1.5225,-7.1663,167.72689371507332,-75.94602273805681,-0.1997490726645091,11.403000000005704
-1.0517,-0.2694,0.0379,0.2531,0.8038,0.033,-1.05,-0.3237,-6.0725,169.92671969297936,-75.7804894994044,-0.18443544539476842,11.418999999994412
-1.0472,-0.2655,0.0388,0.2531,0.8038,0.033,-1.0063,-1.47,-5.145,170.81553136312058,-75.74156859253212,-0.1858369008737737,11.434000000008382
-1.0422,-0.2496,0.0519,0.2523,0.803,0.0388,1.1287,-2.415,-5.39,169.4657998871407,-75.78786369580448,-0.20202921079348113,11.450000000011642
-1.0449,-0.2585,0.0564,0.2523,0.803,0.0388,1.1287,-2.415,-5.39,168.53123913846096,-75.78811794563794,-0.21660228968958922,11.46600000000035
-1.0449,-0.2585,0.0564,0.2524,0.804,0.0364,0.2362,-0.9712,-5.81,168.37930090401812,-75.78874030848047,-0.20805326073284106,11.481000000014319
-1.0446,-0.2695,0.041,0.2524,0.804,0.0364,-0.8838,-0.6737,-5.53,169.78546732310838,-75.77249608213951,-0.19694921464388682,11.496999999988475
-1.0452,-0.2601,0.0413,0.2524,0.804,0.0364,0.1312,-2.31,-5.985,169.9094390179467,-75.80070427429317,-0.20843929320854143,11.512000000002445
-1.0417,-0.2493,0.0515,0.2538,0.8021,0.0323,0.1312,-2.31,-5.985,169.74499544732723,-75.95544831444579,-0.22085936386421062,11.527999999991152
-1.0528,-0.2638,0.0513,0.2538,0.8021,0.0323,0.63,-1.8112,-6.1163,169.45954661094675,-75.84938851606215,-0.22485470748310302,11.543999999994412
-1.0528,-0.2638,0.0513,0.2546,0.804,0.0406,0.07,-0.3413,-5.5912,169.43540240009315,-75.83373642684984,-0.20697678673908385,11.559000000008382
-1.0573,-0.2702,0.0403,0.2546,0.804,0.0406,-0.385,-1.61,-5.2937,170.03027567089185,-75.78121263636844,-0.20946310804881293,11.57499999999709
-1.0303,-0.2528,0.0397,0.2546,0.804,0.0406,-0.385,-1.61,-5.2937,170.32887082956975,-75.82542428074832,-0.21025179726417392,11.59000000001106
-1.0551,-0.2637,0.0554,0.2534,0.8032,0.0356,-0.4638,-2.0475,-5.0312,169.6185483629571,-75.77777596444555,-0.21871061751694768,11.605999999999767
-1.0407,-0.2497,0.057,0.2534,0.8032,0.0356,1.5488,-1.9512,-6.2387,168.11897377064315,-75.94747565157694,-0.2249368357709771,11.622000000003027
-1.0407,-0.2636,0.0451,0.2543,0.8036,0.0372,-0.6913,0.1575,-5.7488,169.01821093909942,-75.87348223863648,-0.2003169021939619,11.637000000002445
-1.0486,-0.2636,0.0451,0.2543,0.8036,0.0372,-0.175,0.1575,-5.7488,169.22157509352462,-75.83619150099358,-0.17801721197616638,11.652999999991152
-1.0469,-0.2704,0.0392,0.2547,0.8036,0.0266,-0.98,-1.2775,-5.0138,170.4833429833077,-75.68689365627974,-0.17746174079461158,11.668000000005122
-1.0517,-0.2582,0.0396,0.2547,0.8036,0.0266,0.3237,-2.6688,-5.8625,170.67131815422485,-75.78593483383185,-0.19814628668802725,11.68399999999383
-1.0425,-0.2456,0.0645,0.2547,0.8036,0.0266,0.3237,-2.6688,-5.8625,169.40125303011195,-75.9285678725844,-0.2167623780270539,11.69999999999709
-1.0419,-0.2609,0.0459,0.2531,0.8034,0.0348,0.7175,-1.6187,-5.95,169.6573981198448,-75.86738697900095,-0.2169385902235005,11.714999999996508
-1.0419,-0.2609,0.0459,0.2531,0.8034,0.0348,-0.5337,-0.0088,-4.8387,169.78662875067928,-75.81505577696346,-0.1953714512011763,11.730999999999767
-1.053,-0.2712,0.0411,0.2534,0.804,0.0326,-0.385,-1.6888,-5.3725,170.2426986029607,-75.77161738563258,-0.1986331061022917,11.746000000013737
-1.0355,-0.2524,0.0449,0.2534,0.804,0.0326,-0.385,-1.6888,-5.3725,170.14848836061662,-75.80538269548518,-0.20308851547489917,11.762000000002445
-1.0583,-0.255,0.0506,0.2534,0.804,0.0326,0.21,-2.415,-6.3437,169.92474397711902,-75.98653985343583,-0.21755566393449408,11.778000000005704
-1.044,-0.2606,0.049,0.2546,0.8038,0.0357,0.1488,-1.05,-6.3088,169.85711570984068,-75.87942930267509,-0.2099750975404946,11.793000000005122
-1.044,-0.2657,0.0395,0.2546,0.8038,0.0357,-0.455,-0.7875,-5.1013,170.39660636288417,-75.79317965848543,-0.20031758777844175,11.80899999999383
-1.0481,-0.2657,0.0395,0.2556,0.804,0.035,-0.455,-0.7875,-5.1013,170.76357185803667,-75.74615764836308,-0.1909170790104987,11.8240000000078
-1.0421,-0.2596,0.0506,0.2556,0.804,0.035,0.7788,-1.82,-5.3463,169.98716308332203,-75.7477638955976,-0.19803337109095207,11.839999999996508
-1.0457,-0.2575,0.05,0.2556,0.804,0.035,0.7962,-2.135,-6.265,169.55923284891827,-75.82220240469769,-0.20897403398812026,11.855999999999767
-1.0425,-0.2548,0.0493,0.2559,0.8029,0.0379,-0.14,-1.435,-5.5388,169.4907646966473,-75.83157637048087,-0.20744913058855646,11.870999999999185
-1.0442,-0.2615,0.0458,0.2559,0.8029,0.0379,-0.14,-1.435,-5.5388,169.5679919163259,-75.82702285699214,-0.20736821753391063,11.887000000002445
-1.0442,-0.2615,0.0458,0.2532,0.8036,0.037,-0.3063,-0.7437,-5.0487,169.68907935233946,-75.79893769071677,-0.19667134578012996,11.902000000001863
-1.0507,-0.2622,0.0462,0.2532,0.8036,0.037,0.3938,-1.2513,-6.4488,169.77639329008215,-75.79014375965784,-0.19502293118939995,11.91799999999057
-1.048,-0.2561,0.0515,0.2532,0.8036,0.037,-0.0088,-1.0675,-6.2387,169.74958671552014,-75.88156612104598,-0.19089263807359164,11.93399999999383
-1.0504,-0.2623,0.0461,0.254,0.8034,0.042,-0.0088,-1.0675,-6.2387,169.7561872936735,-75.83502350292501,-0.18621462426567323,11.948999999993248
-1.0467,-0.2629,0.0464,0.254,0.8034,0.042,-0.0525,-0.8838,-5.81,169.77104964743606,-75.80019838247098,-0.1803198818416987,11.964999999996508
-1.0467,-0.2586,0.0508,0.2541,0.8034,0.039,-0.0263,-1.5488,-5.74,169.73584044672222,-75.81371020614365,-0.18319669367700167,11.980000000010477
-1.045,-0.2586,0.0508,0.2541,0.8034,0.039,-0.0263,-1.5488,-6.125,169.70203225737495,-75.82607453876068,-0.18717974429356096,11.995999999999185
-1.0455,-0.2566,0.0471,0.2549,0.8021,0.0391,0.1312,-1.5575,-6.125,169.69130756453052,-75.88937381859321,-0.19088976986877407,12.012000000002445
-1.045,-0.26,0.0508,0.2549,0.8021,0.0391,0.3063,-0.98,-5.6,169.52291467557066,-75.87793917361607,-0.18503079288138327,12.027000000001863
-1.0482,-0.2648,0.0459,0.2549,0.8021,0.0391,0.2713,-0.9712,-5.8275,169.65408640968303,-75.81265316228205,-0.18051299359609413,12.043000000005122
-1.0429,-0.2591,0.0437,0.2543,0.8015,0.0326,0.2713,-0.9712,-5.8275,169.81160940832171,-75.82427030684853,-0.1755728942232564,12.057999999989988
-1.0429,-0.2591,0.0437,0.2543,0.8015,0.0326,-0.0263,-1.6538,-6.3787,169.83607851692312,-75.84043680416872,-0.18183032480578246,12.073999999993248
-1.0502,-0.2595,0.0508,0.254,0.8009,0.0343,-0.0613,-1.3125,-5.7137,169.7712950615118,-75.84539638855337,-0.18254729232905464,12.089999999996508
-1.0502,-0.2608,0.05,0.254,0.8009,0.0343,-0.28,-1.8288,-5.8625,169.62904496009543,-75.83572958161693,-0.18898136309519115,12.104999999995925
-1.0443,-0.2541,0.045,0.254,0.8009,0.0343,-0.28,-1.8288,-5.8625,169.70384704373194,-75.91296270425126,-0.19641794679103713,12.120999999999185
-1.0426,-0.2628,0.0457,0.2556,0.8021,0.0314,-0.6125,-1.3475,-5.565,169.870149086166,-75.89436852933358,-0.1949674021112275,12.135999999998603
-1.0426,-0.2601,0.0464,0.2556,0.8021,0.0314,0.3413,-1.6187,-5.3288,169.8738606066601,-75.87855316848379,-0.1987799419048535,12.152000000001863
-1.0508,-0.2601,0.0464,0.2529,0.8021,0.033,0.385,-1.925,-6.195,169.87693303912485,-75.8818335990804,-0.20662194772001546,12.168000000005122
-1.0468,-0.2555,0.0554,0.2529,0.8021,0.033,0.385,-1.925,-6.195,169.3069717808128,-75.92133167273418,-0.21194725292179428,12.182999999989988
-1.0432,-0.2621,0.0458,0.2529,0.8021,0.033,-0.1225,-1.4,-6.3963,169.40147503395931,-75.81205551768821,-0.210912527633722,12.198999999993248
-1.0504,-0.2623,0.0409,0.2544,0.8029,0.0306,-0.735,-1.3913,-5.635,170.14549352388886,-75.81262517249608,-0.20860382486962095,12.213999999992666
-1.0471,-0.2574,0.0481,0.2544,0.8029,0.0306,0.3938,-1.5488,-5.8975,169.9449377847752,-75.85523653642736,-0.21004616238720253,12.229999999995925
-1.0471,-0.2574,0.0481,0.2543,0.8023,0.0403,0.3938,-1.5488,-5.8975,169.79946628410522,-75.88549425057052,-0.21134426615302593,12.245999999999185
-1.0433,-0.2558,0.0506,0.2543,0.8023,0.0403,0.84,-1.05,-6.1075,169.35254321123585,-75.9167460965451,-0.20438483953717326,12.260999999998603
-1.0466,-0.2637,0.0444,0.2543,0.8023,0.0403,-0.5337,-0.8313,-4.9788,169.73880106172854,-75.83244077887288,-0.1959170755858947,12.277000000001863
-1.0445,-0.2627,0.0456,0.2527,0.8033,0.0352,-0.5337,-1.925,-5.67,169.88543399712938,-75.80909956295835,-0.20231286802629678,12.29200000000128
-1.0444,-0.2567,0.0472,0.2527,0.8033,0.0352,-0.3938,-1.925,-5.67,169.79715228111516,-75.83354232704798,-0.20980158122931442,12.30800000000454
-1.0444,-0.2567,0.0489,0.2549,0.8033,0.0372,0.0613,-1.575,-6.195,169.7714515443454,-75.88280326055433,-0.2115014231110035,12.3240000000078
-1.0475,-0.2569,0.0489,0.2549,0.8033,0.0372,0.21,-0.9187,-5.9763,169.68198886509094,-75.91543072001487,-0.20275373078738992,12.338999999992666
-1.0482,-0.263,0.0486,0.2528,0.8018,0.0375,0.21,-0.9187,-5.9763,169.65726221585112,-75.84033111717537,-0.1957076377113461,12.354999999995925
-1.0469,-0.2643,0.0434,0.2528,0.8018,0.0375,0.3413,-1.1287,-5.5037,169.9075267816662,-75.83760330132881,-0.19137432393962023,12.369999999995343
-1.0441,-0.2569,0.0507,0.2528,0.8018,0.0375,0.3762,-1.4875,-5.6788,169.62326502484513,-75.85087669973342,-0.19365689155002203,12.385999999998603
-1.0456,-0.2586,0.0492,0.2535,0.8034,0.0382,0.315,-1.7237,-5.6262,169.53206431593978,-75.85305637306057,-0.1991124824000766,12.402000000001863
-1.0456,-0.2586,0.0492,0.2535,0.8034,0.0382,0.315,-1.7237,-5.6262,169.46190236857208,-75.85497344408212,-0.20247118415916593,12.41700000000128
-1.047,-0.2618,0.0457,0.2537,0.805,0.0346,0.2537,-1.1375,-5.74,169.5844556341593,-75.83542447075254,-0.1986040657465864,12.43300000000454
-1.0449,-0.2605,0.0495,0.2537,0.805,0.0346,-0.4112,-1.505,-5.495,169.48178654856875,-75.83499550762036,-0.19906115915142877,12.447999999989406
-1.0446,-0.2617,0.0467,0.2537,0.805,0.0346,-0.1575,-1.715,-5.7575,169.54072914735042,-75.81113662580063,-0.20385104324131714,12.463999999992666
-1.0452,-0.2585,0.0489,0.2536,0.8017,0.0323,-0.1575,-1.715,-5.7575,169.50352647077762,-75.82395286320839,-0.20816193892221668,12.479999999995925
-1.0452,-0.2585,0.0498,0.2536,0.8017,0.0323,0.175,-1.2687,-5.6,169.44729853365638,-75.82784957485268,-0.20447319502933037,12.494999999995343
-1.0469,-0.2599,0.0498,0.2554,0.8038,0.0345,0.63,-1.0325,-5.6788,169.33520889575453,-75.82569258759982,-0.19889387552942633,12.510999999998603
-1.0441,-0.2604,0.0467,0.2554,0.8038,0.0345,-0.4025,-1.4175,-5.5738,169.481767362691,-75.82225515770673,-0.1981407379757411,12.525999999998021
-1.0472,-0.2601,0.0454,0.2554,0.8038,0.0345,-0.4025,-1.4175,-5.5738,169.66356740128265,-75.82432924346726,-0.19873866418232547,12.54200000000128
-1.0444,-0.2584,0.0503,0.2542,0.8034,0.0382,0.0437,-1.785,-5.8012,169.6447142501381,-75.83109728056682,-0.2045687977693295,12.55800000000454
-1.0454,-0.2616,0.0493,0.2542,0.8034,0.0382,0.1138,-1.7062,-6.0637,169.6162245754319,-75.78822545467129,-0.20714561799150275,12.573000000003958
-1.0454,-0.2616,0.0493,0.253,0.8037,0.0391,0.1488,-1.645,-5.95,169.5821786602476,-75.76468549241747,-0.21011905619717836,12.589000000007218
-1.0482,-0.2605,0.045,0.253,0.8037,0.0391,0.1488,-1.645,-5.95,169.65492399126117,-75.79004214611088,-0.21131465055505466,12.603999999992084
-1.0476,-0.2597,0.0493,0.253,0.8037,0.0391,0.0088,-1.61,-6.055,169.65238044029277,-75.80749004709479,-0.2133671855042724,12.619999999995343
-1.0468,-0.2589,0.0489,0.2539,0.8017,0.0263,0.0962,-1.6888,-5.5213,169.62627330280074,-75.80950220621875,-0.21634918695879954,12.635999999998603
-1.0462,-0.2596,0.0475,0.2539,0.8017,0.0263,0.0962,-1.6888,-5.7137,169.62663319407108,-75.81549382033275,-0.2175130682620349,12.650999999998021
-1.0462,-0.2596,0.0475,0.2531,0.8025,0.0363,0.07,-1.4,-5.7137,169.6268640950062,-75.82038700700858,-0.21592176143993852,12.66700000000128
-1.0449,-0.2596,0.0475,0.2531,0.8025,0.0363,0.0175,-1.68,-6.1775,169.62687400465273,-75.8223818149091,-0.2170095852950646,12.682000000000698
-1.045,-0.26,0.0457,0.2557,0.8022,0.0388,-0.0525,-1.6013,-5.9237,169.65247703159903,-75.82246869970137,-0.21836734677025582,12.698000000003958
-1.0468,-0.2586,0.0492,0.2557,0.8022,0.0388,-0.0525,-1.6013,-5.9237,169.62557935416294,-75.84126297810388,-0.21958933209792794,12.714000000007218
-1.0447,-0.2613,0.0461,0.2557,0.8022,0.0388,-0.1312,-1.4262,-6.0725,169.67267800180937,-75.80734847658749,-0.21688409886870946,12.728999999992084
-1.0454,-0.2573,0.0488,0.2554,0.8066,0.0379,-0.0088,-1.505,-6.0025,169.66304659746334,-75.85100759094838,-0.2168676889862537,12.744999999995343
-1.0454,-0.2573,0.0488,0.2554,0.8066,0.0379,-0.175,-1.7325,-6.0375,169.5987717717839,-75.88112885166515,-0.21856967008672074,12.759999999994761
-1.0469,-0.2592,0.0474,0.2555,0.8026,0.0318,-0.175,-1.7325,-6.0375,169.60484847005628,-75.87805422819673,-0.22166070308313124,12.775999999998021
-1.0448,-0.2584,0.0524,0.2555,0.8026,0.0318,-0.0175,-1.9512,-6.0813,169.57108429688748,-75.86274397163987,-0.2275919127805423,12.79200000000128
-1.0452,-0.2594,0.0442,0.2555,0.8026,0.0318,-0.5512,-1.7675,-5.915,169.8455061565533,-75.86459090146182,-0.22869397150156218,12.807000000000698
-1.0455,-0.2607,0.0454,0.253,0.8039,0.0358,0.1225,-1.3913,-5.5037,169.87223586879387,-75.8636163983956,-0.22585929435548757,12.823000000003958
-1.0455,-0.2607,0.0483,0.253,0.8039,0.0358,0.1225,-1.3913,-5.5037,169.83651563303724,-75.86227876049705,-0.22205591491920995,12.838000000003376
-1.0456,-0.2607,0.0483,0.2527,0.8041,0.0354,0.525,-0.35,-6.335,169.7241622702173,-75.8205500265663,-0.20489032342831573,12.854000000006636
-1.0458,-0.261,0.0453,0.2527,0.8041,0.0354,0.0787,-1.1812,-6.3787,169.74982908159183,-75.80423601227884,-0.2014105710889494,12.870000000009895
-1.0469,-0.2597,0.0481,0.2527,0.8041,0.0354,0.35,-1.2513,-5.9763,169.68889920563987,-75.81615348397894,-0.19816206396301103,12.884999999994761
-1.0463,-0.2619,0.0469,0.2526,0.8039,0.0239,0.35,-1.2513,-5.9763,169.728639111817,-75.78875965922309,-0.19636457757038084,12.900999999998021
-1.0457,-0.2604,0.0454,0.2526,0.8039,0.0239,-0.0875,-1.225,-5.6438,169.76414320117587,-75.79215874246134,-0.19326561981270102,12.915999999997439
-1.0457,-0.2604,0.0454,0.2543,0.8049,0.0337,-0.0613,-1.89,-5.4862,169.78870683334665,-75.79222492747161,-0.20115505783697554,12.932000000000698
-1.0447,-0.2574,0.0498,0.2543,0.8049,0.0337,2.1788,-1.54,-6.1863,169.28355918098282,-75.84152214051134,-0.20321555205779585,12.948000000003958
-1.043,-0.2599,0.0455,0.2543,0.8049,0.0337,0.1663,-1.54,-6.1863,169.3868290078003,-75.8258844568751,-0.20368399685120953,12.963000000003376
-1.0454,-0.2589,0.0489,0.254,0.8042,0.0364,-0.245,-1.47,-6.055,169.36977160881654,-75.83606636189413,-0.20448359717040107,12.979000000006636
-1.046,-0.2588,0.0485,0.254,0.8042,0.0364,-0.1925,-2.0912,-5.7312,169.3725088705821,-75.84281870789789,-0.21226643745226545,12.994000000006054
-1.046,-0.2588,0.0462,0.2542,0.8044,0.0384,-0.1925,-2.0912,-5.7312,169.459489969609,-75.8524102123818,-0.2211530737131738,13.010000000009313
-1.0442,-0.261,0.0462,0.2542,0.8044,0.0384,-0.3413,-2.0475,-5.7137,169.5915290085722,-75.8349169286433,-0.22852176632104756,13.025999999998021
-1.0469,-0.2606,0.0484,0.2542,0.8034,0.0376,0.07,-1.5838,-5.7225,169.58565636054416,-75.82685267167032,-0.22705088968811313,13.040999999997439
-1.0452,-0.2586,0.0483,0.2558,0.8034,0.0376,-0.9187,-2.0563,-5.355,169.5058945652705,-75.83223927220243,-0.23395652072533432,13.057000000000698
-1.044,-0.2603,0.0464,0.2558,0.8034,0.0376,-0.9187,-2.0563,-5.355,169.69275374622322,-75.82701689032427,-0.23832091865172367,13.072000000000116
-1.0471,-0.2591,0.0468,0.2546,0.8024,0.0362,-0.35,-1.4438,-5.4513,169.71109631040403,-75.8291579352498,-0.23527954679078694,13.088000000003376
-1.0471,-0.2591,0.0468,0.2546,0.8024,0.0362,0.3063,-1.4875,-5.6875,169.72242428544976,-75.83850104245204,-0.2331715921160721,13.104000000006636
-1.0454,-0.2598,0.0489,0.2524,0.8026,0.0336,-0.07,-1.6187,-5.705,169.69245095970754,-75.83317532266939,-0.23170688290361688,13.119000000006054
-1.0436,-0.2601,0.0492,0.2524,0.8026,0.0336,-0.07,-1.6187,-5.705,169.6607649508462,-75.82141798877595,-0.23184547461800392,13.135000000009313
-1.0477,-0.2608,0.0479,0.2524,0.8026,0.0336,-0.6037,-1.5225,-6.0113,169.6347540744116,-75.81312920841054,-0.22921467713546617,13.14999999999418
-1.0738,-0.007,0.0637,0.3914,0.7777,-0.0384,2.8,2.2487,-2.5025,115.65453591953981,-83.88282739838976,-0.17391192941532263,13.165999999997439
-1.0731,-0.0093,0.0634,0.3914,0.7777,-0.0384,3.2375,2.8437,-3.255,102.44454746595221,-85.74793795114336,-0.1155714564654479,13.182000000000698
-1.0737,-0.0077,0.0617,0.3914,0.7771,-0.0342,3.99,2.9838,-3.5875,98.18516692526325,-86.36250477123208,-0.06373301082046624,13.197000000000116
-1.0731,-0.008,0.0491,0.3931,0.7786,-0.0363,4.9788,3.1237,-4.6638,99.0748120152192,-86.80710718279586,-0.01237842972925573,13.213000000003376
-1.0765,-0.0023,0.055,0.3932,0.7777,-0.0372,5.4163,3.395,-6.8688,93.43820250576803,-86.96106584790016,0.03469191324189131,13.228000000002794
-1.0823,0.003,0.0491,0.3932,0.7777,-0.0372,5.3025,2.6688,-7.1663,87.60653178896149,-87.23456365353275,0.06965344192553155,13.244000000006054
-1.0849,0.0024,0.0444,0.3916,0.779,-0.0395,4.6638,2.5725,-7.8663,87.02996955964706,-87.52912054971881,0.09973209774052524,13.260000000009313
-1.0772,0.003,0.0473,0.3914,0.7783,-0.0395,4.025,1.8375,-8.8375,86.50243793458344,-87.49183867129865,0.11456513796551011,13.275000000008731
-1.0731,0.005,0.0438,0.3928,0.7779,-0.0384,3.675,1.435,-8.3387,84.13456228011441,-87.6070861487528,0.12377262417316891,13.29100000001199
-1.0741,0.0039,0.0469,0.3911,0.779,-0.0399,3.57,0.9887,-6.6062,85.0023544357265,-87.5459308418014,0.12474281174238536,13.305999999996857
-1.0729,0.0046,0.0432,0.3911,0.779,-0.0399,3.57,0.9887,-6.6062,84.15915832400616,-87.61731722734463,0.12650581057104734,13.322000000000116
-1.0772,-0.0013,0.0465,0.3926,0.7806,-0.039,2.8788,0.7175,-6.545,89.67518479646469,-87.57106480560833,0.12418722951604752,13.338000000003376
-1.0794,-0.0079,0.0415,0.3926,0.7806,-0.039,1.8725,1.0063,-7.035,96.89227977966276,-87.68500698681142,0.1253535565639156,13.353000000002794
-1.09,-0.0081,0.04,0.3901,0.7774,-0.0402,1.2775,1.33,-8.155,99.43407211897706,-87.80915613159289,0.13197020091142583,13.369000000006054
-1.0899,-0.0118,0.0422,0.389,0.7815,-0.0395,-0.315,0.42,-9.6775,100.96993722443382,-87.7191827315023,0.12444318082006323,13.384000000005472
-1.0916,-0.016,0.0397,0.3898,0.7817,-0.041,-0.5688,0.49,-10.3425,105.01808317381897,-87.74847902830264,0.1190548627394944,13.400000000008731
-1.0934,-0.0204,0.0367,0.3902,0.781,-0.0392,-1.89,0.0175,-9.6425,114.23167964224383,-87.79065603180736,0.10740137646559629,13.41600000001199
-1.1001,-0.0302,0.0325,0.3902,0.781,-0.0392,-1.785,-0.1312,-8.7238,126.23255078338256,-87.71422600022831,0.09489003882082368,13.430999999996857
-1.0969,-0.0334,0.0377,0.3898,0.7815,-0.0462,-2.3625,-0.6475,-8.855,129.9679968511472,-87.44958252666652,0.07607703493684177,13.447000000000116
-1.0998,-0.037,0.037,0.3906,0.7824,-0.0402,-2.7387,-1.12,-8.6888,133.65950516035505,-87.31737552892021,0.05334933144374433,13.461999999999534
-1.0934,-0.0354,0.0371,0.3881,0.7831,-0.0405,-2.6862,-1.435,-8.8025,133.65750086467025,-87.31543898933413,0.02735039829516009,13.478000000002794
-1.0923,-0.0365,0.0411,0.3882,0.783,-0.0364,-2.6513,-1.7325,-8.82,132.1666770248065,-87.1644625437106,-0.0003326415394384965,13.494000000006054
-1.0896,-0.039,0.038,0.3882,0.783,-0.0364,-2.31,-2.31,-8.2775,134.66820008775906,-87.14577530594498,-0.03148437738428451,13.509000000005472
-1.0954,-0.0417,0.039,0.3874,0.7841,-0.0319,-1.9425,-2.4062,-6.8863,136.156163941904,-87.07030020538838,-0.06298521965291504,13.525000000008731
-1.0945,-0.0454,0.0395,0.3878,0.7834,-0.0411,-1.8725,-2.7475,-6.3,137.99901947217242,-86.9729649325737,-0.0937779476861842,13.540000000008149
-1.0919,-0.0453,0.0414,0.3902,0.7823,-0.0406,-2.4762,-3.605,-4.9525,137.6968646187497,-86.90668166546651,-0.13631215292814164,13.556000000011409
-1.0937,-0.0406,0.0439,0.3882,0.7825,-0.0412,-2.7738,-3.85,-4.585,134.0655801805021,-86.8895352078016,-0.1781209376466221,13.572000000014668
-1.0829,-0.0409,0.0442,0.3882,0.7825,-0.0412,-2.4325,-3.7887,-4.06,133.15239159410373,-86.84689653623666,-0.21145629383035555,13.586999999999534
-1.0816,-0.0408,0.0522,0.3875,0.7802,-0.0342,-1.925,-3.7187,-4.4275,129.7600260971837,-86.6655474227259,-0.24385994445822942,13.603000000002794
-1.0819,-0.0404,0.0492,0.3882,0.7818,-0.0387,-1.89,-3.7187,-4.025,129.517845259878,-86.64588784739927,-0.2696764000104584,13.618000000002212
-1.0911,-0.0443,0.0487,0.3902,0.7808,-0.0392,-0.7525,-3.4213,-4.4363,130.72226347714704,-86.5952152083358,-0.2919754800194495,13.634000000005472
-1.09,-0.0459,0.0542,0.3902,0.7814,-0.0409,0.1488,-3.1237,-4.7337,130.66776719931997,-86.45606342616223,-0.30775921202666845,13.650000000008731
-1.0886,-0.0444,0.0513,0.3902,0.7814,-0.0409,0.4812,-2.135,-4.3137,130.733993725877,-86.44398883755703,-0.3058057908228831,13.665000000008149
-1.0817,-0.0418,0.0533,0.3903,0.7829,-0.0398,1.225,-2.3275,-4.2263,129.29464709166595,-86.42883374114665,-0.308741211747423,13.681000000011409
-1.0804,-0.0315,0.0553,0.3891,0.7814,-0.037,1.1375,-2.5638,-2.6163,124.20314252593076,-86.57718127878945,-0.31247839053776016,13.695999999996275
-1.0792,-0.0168,0.0583,0.3922,0.7818,-0.0394,2.1875,-1.9512,-1.8463,111.78947951271199,-86.73807003610489,-0.3093278314897083,13.711999999999534
-1.0785,-0.0167,0.0511,0.3879,0.7802,-0.0416,2.275,-2.275,-4.41,109.23034795838389,-86.9499915676919,-0.3111550483474116,13.728000000002794
-1.0845,-0.0224,0.0511,0.3879,0.7802,-0.0416,1.8112,-1.68,-4.165,112.08252158725168,-87.0097715168429,-0.30271954351179037,13.743000000002212
-1.0846,-0.0276,0.0481,0.3907,0.7812,-0.0302,2.1788,-1.9338,-5.1275,117.3930034547673,-87.0265654328523,-0.30029430916628447,13.759000000005472
-1.0845,-0.0306,0.0489,0.3899,0.7802,-0.0399,1.0588,-1.5225,-6.1512,119.76459197256135,-86.99817116283286,-0.2908186282488584,13.77400000000489
-1.0825,-0.0314,0.045,0.3918,0.7827,-0.0373,1.4262,-1.925,-5.5912,122.773853707569,-87.00742310484054,-0.2894567654296199,13.790000000008149
-1.0815,-0.0286,0.0512,0.3924,0.7818,-0.0398,1.9075,-2.1175,-4.7425,120.4274093062046,-86.9598186886794,-0.29100308889286997,13.806000000011409
-1.0832,-0.0257,0.0485,0.3924,0.7818,-0.0398,1.8112,-2.3975,-3.8238,118.81610877117143,-87.0468836641858,-0.294269030002327,13.821000000010827
-1.0793,-0.0243,0.0495,0.3902,0.7805,-0.0372,0.8225,-2.2662,-3.7362,117.62372881502856,-87.06492958829365,-0.2974754070087426,13.837000000014086
-1.0793,-0.0261,0.0526,0.3894,0.781,-0.0378,0.91,-2.31,-4.0338,117.04132964170175,-86.95880481839333,-0.2989128662764048,13.851999999998952
-1.0765,-0.0216,0.0473,0.3903,0.78,-0.0378,0.5863,-1.3913,-4.1475,116.13357798471053,-87.11680887285074,-0.2890562996528459,13.868000000002212
-1.0748,-0.019,0.0497,0.3918,0.7807,-0.0367,0.945,-0.07,-5.1537,113.62227539821943,-87.12913824322482,-0.2611586696868499,13.88399999999092
-1.0808,-0.0122,0.0515,0.3918,0.7807,-0.0367,0.9712,1.0237,-4.7337,108.59042010146712,-87.15814666055823,-0.2212228527052941,13.89900000000489
-1.0801,-0.0096,0.05,0.3931,0.7801,-0.0322,0.035,0.3063,-4.6375,108.44004962908917,-87.22395275284777,-0.1946898474338661,13.915000000008149
-1.084,-0.0088,0.0498,0.3915,0.7794,-0.035,-0.315,0.4812,-4.7512,106.35047255026899,-87.26853098829142,-0.1687246626907316,13.930000000007567
-1.0856,-0.0103,0.0451,0.3895,0.7803,-0.0382,-0.1312,0.3325,-6.0025,105.90547812937882,-87.36735964233556,-0.14706419642068302,13.946000000010827
-1.085,-0.0214,0.0382,0.3895,0.7803,-0.0382,-0.6913,0.42,-6.3525,111.43320094845735,-87.516401604349,-0.12630977678288322,13.961999999999534
-1.0939,-0.0232,0.0384,0.3905,0.7809,-0.0426,-1.05,0.3762,-6.6413,116.43915959691886,-87.58869121065266,-0.10860009910479199,13.976999999998952
-1.0976,-0.0196,0.0396,0.3914,0.7797,-0.0431,-1.0938,-0.3938,-6.9037,116.38338297043306,-87.65081899258229,-0.10341080919546806,13.993000000002212
-1.0848,-0.0201,0.0362,0.3922,0.7809,-0.0372,-1.3913,-1.6275,-7.1225,117.9367187450065,-87.75211110057353,-0.11504097827506866,14.00800000000163
-1.0867,-0.0264,0.0432,0.3904,0.7796,-0.0374,-1.0675,-2.345,-6.7725,119.75244097023743,-87.51632429119404,-0.13730488045444125,14.02400000000489
-1.0816,-0.0328,0.0345,0.3904,0.7796,-0.0374,-1.155,-1.61,-7.4725,127.19371353456158,-87.49212269356704,-0.1467583923926346,14.039999999993597
-1.0843,-0.0313,0.0387,0.3921,0.7818,-0.0426,-0.455,-1.2513,-7.4113,127.76029573031377,-87.41295191641099,-0.14897510316910356,14.055000000007567
-1.0823,-0.0321,0.035,0.3884,0.7818,-0.0306,-0.5775,-0.5688,-7.525,129.53339825806123,-87.46293130112088,-0.14226831284641245,14.070999999996275
-1.0818,-0.0319,0.0381,0.3901,0.7814,-0.0396,0.07,0.0962,-6.265,129.55446318192037,-87.42234682543844,-0.1267427815605617,14.086000000010245
-1.0829,-0.0318,0.0371,0.3898,0.78,-0.0386,0.5863,0.4112,-5.2675,129.93501529529846,-87.42126775823584,-0.10814722340329921,14.102000000013504
-1.0799,-0.0404,0.0331,0.3898,0.78,-0.0386,-0.0088,0.0787,-3.2462,130.186048956839,-87.2897504727521,-0.09619922106376913,14.118000000002212
-1.0845,-0.0358,0.0395,0.3915,0.7818,-0.0357,0.77,2.0912,1.1725,131.04673677028808,-87.19941077243074,-0.058348098958487735,14.13300000000163
-1.0901,-0.0217,0.0462,0.3923,0.7813,-0.0402,1.19,2.7825,2.8,122.46433987445494,-87.30627056134675,-0.012445289054476031,14.14900000000489
-1.0905,-0.0049,0.0434,0.3901,0.7779,-0.0405,-0.42,1.9425,4.9875,114.57414450275205,-87.67159596343062,0.015022989849953957,14.164000000004307
-1.0912,0.0016,0.0474,0.3901,0.7754,-0.0422,-1.4525,1.6712,5.0225,98.80872212756394,-87.52523450081574,0.037585970869861304,14.180000000007567
-1.089,0.0019,0.0414,0.3901,0.7754,-0.0422,-3.885,0.315,2.695,89.70621878098078,-87.7884153050875,0.03836337377967381,14.195999999996275
-1.0892,-0.0102,0.0376,0.3939,0.775,-0.0456,-4.8825,0.0263,1.0325,102.55438803802683,-87.9298132573379,0.0348820864020371,14.211000000010245
-1.0854,-0.0149,0.035,0.3942,0.7742,-0.0427,-5.1013,0.4025,0.0787,111.34252091805136,-87.98320908443367,0.037189877757742754,14.226999999998952
-1.0837,-0.0208,0.0274,0.3962,0.7724,-0.0437,-3.8588,1.7938,-0.2275,123.94886789260211,-88.1501134924314,0.05768719000452167,14.242000000012922
-1.0853,-0.0157,0.0314,0.3942,0.7725,-0.0432,-2.7213,2.0213,-0.4462,118.54121477545615,-88.14776209213964,0.08102519098352691,14.25800000000163
-1.0912,-0.0059,0.0255,0.3942,0.7725,-0.0432,-1.4,2.345,-0.9363,109.4509863760671,-88.53984367056621,0.10669067186134185,14.273999999990338
-1.0935,-0.0009,0.0235,0.396,0.7726,-0.0522,-0.945,2.1525,-1.4175,100.99758110248672,-88.72298595018354,0.12508035470227075,14.289000000004307
-1.0942,0.004,0.0254,0.3946,0.769,-0.0414,-0.4462,0.8575,-3.5438,94.70036959907878,-88.67731043183811,0.12492031922332886,14.304999999993015
-1.0912,0.0083,0.0248,0.3945,0.7704,-0.0446,0.2713,0.0787,-4.6112,89.96841642363178,-88.65383279363235,0.11349073730198546,14.320000000006985
-1.0907,0.0072,0.0253,0.3942,0.7721,-0.0461,1.0412,-1.1725,-7.9275,81.93946962086545,-88.62874622274792,0.08525766356834719,14.336000000010245
-1.0871,0.0056,0.026,0.3942,0.7721,-0.0461,0.9887,-1.3125,-8.9775,79.91969060080147,-88.60525484206599,0.057831897224851485,14.351999999998952
-1.0804,0.0096,0.0279,0.3953,0.7712,-0.0374,1.1287,-1.6538,-10.1675,75.22674157417475,-88.46552484813921,0.029722407481573353,14.367000000012922
-1.0813,0.0102,0.025,0.3942,0.7725,-0.0398,1.54,-1.5137,-10.8763,70.74418904702573,-88.55329323825697,0.004952886748799837,14.38300000000163
-1.0813,0.0117,0.0307,0.3926,0.7742,-0.0448,1.5838,-1.7062,-10.99,69.76316885500715,-88.30484274686934,-0.01857610192518632,14.398000000001048
-1.0848,0.0129,0.0367,0.3919,0.7738,-0.0422,1.4175,-2.1175,-12.215,70.27121510215551,-87.99265751321325,-0.04721049171114742,14.413999999989755
-1.0769,0.0112,0.0344,0.3919,0.7738,-0.0422,0.56,-2.3625,-12.3725,70.86885171992876,-88.06536784764815,-0.07650944254696346,14.429999999993015
-1.071,0.0121,0.0395,0.3932,0.7739,-0.0354,0.4638,-1.6187,-13.37,71.51917328837746,-87.82191398707205,-0.09071094831261879,14.445000000006985
-1.0721,0.0118,0.042,0.3921,0.7754,-0.0447,0.5863,-1.785,-13.8075,72.53268544436081,-87.68611765070509,-0.10734385346321586,14.460999999995693
-1.0711,0.0154,0.0417,0.3918,0.7765,-0.0446,-0.5775,0.0613,-16.975,71.48998998303928,-87.62849196168823,-0.09578191811612356,14.476000000009662
-1.0727,0.0135,0.0422,0.3874,0.7781,-0.0439,-0.7,0.8225,-18.7512,71.81115750914776,-87.63435872647672,-0.07435972631287033,14.49199999999837
-1.0623,0.012,0.0431,0.3874,0.7781,-0.0439,-0.63,1.3563,-20.6938,72.84268798873421,-87.5912187977606,-0.04495169368598854,14.509999999994761
-1.0518,0.008,0.0431,0.3889,0.7824,-0.0436,-1.7587,4.585,-25.7337,77.09019599778227,-87.61240205378539,0.021440975740256857,14.525000000008731
-1.0519,0.011,0.0484,0.3866,0.7858,-0.0433,-2.4588,5.8012,-28.9538,77.16535403841944,-87.31131431970762,0.10283415810727324,14.540999999997439
-1.0447,0.0018,0.0496,0.3826,0.7895,-0.0474,-2.3625,6.755,-34.755,84.73707612659639,-87.28101543462887,0.18374324238147555,14.556000000011409
-1.0401,-0.0129,0.0405,0.3816,0.7934,-0.049,-4.1038,7.5338,-38.7887,103.18808724461066,-87.64880265120948,0.2738556381654297,14.572000000014668
-1.0409,-0.0429,0.018,0.3816,0.7934,-0.049,-5.9938,10.185,-50.2075,149.5264607131,-87.44540601978811,0.393134074245376,14.588000000003376
-1.0506,-0.0962,0.0035,0.3762,0.8005,-0.0517,-5.88,11.7075,-56.4987,173.79897601334397,-84.81630179301148,0.5118719168147052,14.603000000002794
-1.0621,-0.1155,-0.0027,0.3709,0.8078,-0.0497,-3.4037,14.735,-63.8312,-98.89788395901954,-83.80923366951262,0.672868724983482,14.618999999991502
-1.0904,-0.1218,0.0003,0.3631,0.8159,-0.052,-2.4675,14.21,-65.1875,99.81708132734974,-83.62935459653582,0.7974168526637941,14.634000000005472
-1.1005,-0.1301,0.0024,0.3564,0.8223,-0.057,-1.75,12.8013,-64.015,150.32758523050077,-83.26296712374278,0.9020138872673145,14.64999999999418
-1.1029,-0.1591,-0.0065,0.3564,0.8223,-0.057,-1.785,10.5875,-56.9362,-60.527750248942446,-81.81279786036082,0.9642724985716432,14.665999999997439
-1.0958,-0.1974,-0.0203,0.3525,0.8295,-0.0554,-1.7413,9.1788,-53.1388,-132.91566256792927,-79.778113340337,0.9917590488298825,14.681000000011409
-1.0829,-0.2131,-0.0186,0.348,0.8345,-0.0589,-1.6187,8.5837,-44.8,-159.02893586865343,-78.84957750706424,1.0161884238596577,14.697000000000116
-1.0836,-0.227,-0.0207,0.3452,0.8398,-0.0593,-0.8313,8.75,-41.0112,-166.25391545172104,-78.14063942636896,1.0326945814691082,14.711999999999534
-1.087,-0.2302,-0.0246,0.3411,0.8434,-0.061,-0.6037,8.0063,-32.725,-169.1769333879176,-77.98252284049542,1.0447158433456851,14.728000000002794
-1.0984,-0.2288,-0.0212,0.3411,0.8434,-0.061,-0.1925,7.2362,-28.315,-170.1276350190162,-78.17591638548127,1.0444455389375746,14.743999999991502
-1.107,-0.2228,-0.0217,0.3378,0.8454,-0.0674,-0.525,5.3375,-24.045,-171.63900821075913,-78.54793011565465,1.012057235110925,14.759000000005472
-1.0975,-0.2252,-0.017,0.335,0.846,-0.0618,-1.2775,2.5113,-16.485,-173.91910827142914,-78.38678769068179,0.94701423157431,14.77499999999418
-1.0801,-0.2302,-0.0242,0.3358,0.8482,-0.0633,-1.9863,1.82,-14.3238,-173.97222741706742,-77.95336316414988,0.8768828084397616,14.790000000008149
-1.0777,-0.2295,-0.0259,0.3353,0.849,-0.0622,-2.4762,0.9013,-11.2525,-173.6789156526473,-77.91144297201755,0.8021732475866256,14.805999999996857
-1.0699,-0.23,-0.0307,0.3353,0.849,-0.0622,-2.1613,1.1725,-9.6775,-172.8007056552439,-77.79177766806238,0.7388399228314028,14.822000000000116
-1.0732,-0.2264,-0.025,0.3348,0.8494,-0.0542,-1.2862,0.875,-6.6762,-173.30849390649374,-77.91420514855436,0.6767684305478041,14.836999999999534
-1.0749,-0.2155,-0.0293,0.3336,0.8479,-0.0642,-1.0237,0.7525,-5.6962,-172.77292396085775,-78.02526785196163,0.6199275874952312,14.853000000002794
-1.0735,-0.2073,-0.0253,0.3364,0.8484,-0.0638,-1.435,0.0,-4.1125,-172.93201870977146,-78.58479206410358,0.5579348287457081,14.868000000002212
-1.0732,-0.2051,-0.0226,0.3344,0.846,-0.0646,-1.3825,-0.6037,-4.0425,-173.3866512551515,-78.89930256507783,0.4934480658772727,14.88399999999092
-1.0644,-0.2066,-0.0266,0.3344,0.846,-0.0646,-0.9013,-0.9275,-5.5213,-173.04082197473272,-78.90016476276551,0.43074725928682445,14.89999999999418
-1.0607,-0.209,-0.0223,0.3338,0.8496,-0.0643,-1.05,-1.2337,-6.4662,-173.48894619014504,-78.84650264995872,0.37101758334263085,14.915000000008149
-1.0637,-0.2061,-0.0216,0.3341,0.8485,-0.0656,-1.4088,-1.6625,-6.4662,-173.79917617908245,-78.910394392274,0.30997582502526383,14.930999999996857
-1.0658,-0.204,-0.0203,0.3334,0.8502,-0.0633,-1.4525,-2.345,-7.0613,-174.10728287074124,-79.03367171955706,0.24732074249325411,14.946000000010827
-1.0626,-0.2053,-0.0176,0.3316,0.8465,-0.0644,-1.1812,-2.0125,-6.5538,-174.64807617438998,-79.02958515725219,0.19360866826438186,14.961999999999534
-1.0627,-0.2045,-0.0172,0.3316,0.8465,-0.0644,-1.505,-1.8725,-6.5363,-174.9763538069644,-79.05022634404561,0.14728380143245037,14.978000000002794
-1.0601,-0.2079,-0.016,0.3324,0.8496,-0.066,-0.9013,-1.7938,-6.195,-175.27419220109942,-78.97662656150311,0.10833912131363796,14.99299999998766
-1.058,-0.2106,-0.0182,0.3346,0.8505,-0.0654,-1.1988,-1.1638,-6.405,-175.15717719806807,-78.8449986401594,0.08074648917885996,15.00899999999092
-1.0564,-0.2175,-0.0168,0.3348,0.8493,-0.0653,-0.9975,-0.77,-7.1487,-175.37150875748736,-78.5251157392941,0.06227684025129287,15.02400000000489
-1.0567,-0.2173,-0.0182,0.335,0.8492,-0.0659,0.7262,-0.1138,-8.0413,-175.30537011586512,-78.3921882362697,0.05441043622732014,15.039999999993597
-1.0474,-0.2214,-0.0149,0.335,0.8492,-0.0659,1.8375,0.4725,-8.9425,-175.8506437142715,-78.11773666735003,0.05577339260597428,15.055999999996857
-1.036,-0.221,-0.0127,0.3338,0.8517,-0.0649,1.365,2.415,-11.8825,-176.3449003437042,-77.96304116681439,0.08279855334411172,15.070999999996275
-1.0443,-0.2134,-0.0126,0.3326,0.8514,-0.0658,3.0363,3.7625,-13.3263,-176.55229941924216,-78.37821352642943,0.12869869802073847,15.086999999999534
-1.0485,-0.2045,-0.0058,0.3314,0.8534,-0.0666,3.5087,4.4713,-14.1838,-177.9697020357268,-78.89929319973744,0.17619137827488163,15.102000000013504
-1.0521,-0.1996,-0.0093,0.3295,0.8538,-0.0668,3.3688,5.5825,-15.8463,-177.47873404678165,-79.21580697852626,0.23896024039065822,15.118000000002212
-1.0471,-0.1954,-0.0147,0.3295,0.8566,-0.0634,3.255,6.0725,-17.2463,-176.1177886835343,-79.38591601984815,0.30250821636940706,15.134000000005472
-1.035,-0.1925,-0.0163,0.3283,0.8566,-0.0634,3.64,6.4837,-20.0812,-175.36710094411433,-79.4244323488974,0.35978734464415457,15.148999999990338
-1.0374,-0.1837,-0.0181,0.3262,0.8589,-0.0681,4.0425,7.7787,-22.5925,-174.57057617137477,-79.88382231285271,0.43582189020255924,15.164999999993597
-1.0284,-0.1701,-0.0189,0.3226,0.8595,-0.0677,3.5963,9.1962,-27.5625,-173.85861552501814,-80.52247172926226,0.5163884011774857,15.179999999993015
-1.028,-0.1674,-0.0229,0.321,0.8632,-0.07,3.4913,10.465,-31.0538,-172.57861897284997,-80.66105790472024,0.615445561090438,15.195999999996275
-1.0205,-0.1673,-0.0231,0.321,0.8632,-0.0684,3.0888,11.725,-37.4938,-172.24659646717726,-80.60478779648666,0.7227410050157914,15.211999999999534
-1.0075,-0.1692,-0.0248,0.3147,0.8684,-0.0684,3.0888,12.635,-40.4863,-171.80506311560077,-80.37333546408213,0.8210394045075933,15.226999999998952
-1.001,-0.1705,-0.024,0.3099,0.8718,-0.068,2.835,13.2913,-48.5713,-171.9397753014191,-80.24314778953729,0.9303301840958262,15.243000000002212
-0.9825,-0.1771,-0.0262,0.3037,0.8763,-0.0736,1.96,15.8463,-50.4875,-171.70531177616783,-79.68546804376342,1.0512222156779423,15.25800000000163
-0.9792,-0.1779,-0.0239,0.2976,0.8824,-0.0744,1.6625,17.465,-53.9087,-172.10548611792274,-79.61385279447482,1.1975959939326501,15.273999999990338
-0.9584,-0.182,-0.031,0.2976,0.8824,-0.0744,1.295,20.0287,-61.5037,-171.1107893624957,-79.10547400046255,1.3662496745981427,15.289999999993597
-0.9502,-0.1883,-0.0318,0.292,0.889,-0.077,0.3237,20.7725,-67.235,-170.94657185687325,-78.64384712794173,1.5100534571274464,15.304999999993015
-0.9328,-0.2167,-0.0464,0.2801,0.896,-0.0778,-0.3762,21.5075,-72.625,-170.0936815531489,-76.66507322825412,1.6687561114777978,15.320999999996275
-0.9246,-0.2613,-0.0609,0.2698,0.9047,-0.0791,-2.0387,24.5963,-82.9587,-167.93270103019645,-73.85446148154355,1.8339305503171328,15.335999999995693
-0.9213,-0.3254,-0.0804,0.2573,0.9122,-0.0826,-2.7213,28.0,-90.1862,-166.6060924079706,-70.05259157332411,2.0537374953675624,15.351999999998952
-0.9281,-0.3615,-0.0926,0.2438,0.9207,-0.0848,-2.2925,29.1725,-92.47,-165.92673071315514,-68.11810848161157,2.2684477459163883,15.368000000002212
-0.9512,-0.4719,-0.1233,0.2438,0.9207,-0.0848,-1.75,30.065,-97.5537,-165.56296815823285,-62.90940484769805,2.4474804713089995,15.38300000000163
-1.0316,-0.5823,-0.1566,0.2154,0.9376,-0.089,-0.9187,27.37,-98.0525,-165.2657100616376,-59.72727542213619,2.5968604242583937,15.39900000000489
-1.0419,-0.6016,-0.1544,0.2028,0.9456,-0.091,-0.9538,23.5462,-93.38,-165.43305999512228,-59.205919761668646,2.655048081511841,15.413999999989755
-1.0349,-0.6347,-0.1615,0.2028,0.9456,-0.091,-2.1088,17.0012,-72.7387,-165.6308615737681,-57.695255178098854,2.634360553410533,15.429999999993015
-1.0247,-0.6417,-0.1607,0.1942,0.9484,-0.0792,-2.765,15.3475,-59.325,-165.85869780822858,-57.16476472920773,2.5919284981145045,15.445999999996275
-0.9743,-0.6582,-0.1699,0.1877,0.9534,-0.0909,-2.8087,12.7575,-38.0275,-165.6132155158526,-55.15798334910633,2.504961898296371,15.460999999995693
-0.9601,-0.6822,-0.1866,0.183,0.9554,-0.0938,-2.8,12.1888,-32.8387,-164.94102681286105,-53.67685619261874,2.4299844285024914,15.476999999998952
-0.9604,-0.6806,-0.1856,0.1788,0.9542,-0.0943,-1.8112,9.2925,-27.9475,-164.8152010177932,-53.70016673786276,2.3124347356473742,15.49199999999837
-0.9743,-0.6658,-0.1795,0.1788,0.9542,-0.0943,-1.3737,8.7762,-24.99,-164.87134055448476,-54.66131332498627,2.2075685421083833,15.50800000000163
-0.9701,-0.6564,-0.1783,0.1741,0.9577,-0.0834,-1.4612,7.9012,-15.1462,-164.83074411881313,-54.935416268416766,2.1005889679207246,15.52400000000489
-0.9618,-0.6354,-0.1782,0.1734,0.9571,-0.0914,-1.2775,7.1487,-10.1763,-164.55048559338726,-55.43780472041237,1.9870375211249072,15.539000000004307
-0.9383,-0.6202,-0.1806,0.172,0.9583,-0.0939,-0.7875,6.1163,-2.6425,-164.20057745781077,-55.450569282109726,1.8764084889502561,15.554999999993015
-0.9291,-0.6162,-0.184,0.1754,0.9572,-0.0949,0.245,6.4837,-0.245,-164.04611801783446,-55.33301496589219,1.776297590051834,15.569999999992433
-0.9297,-0.5881,-0.1753,0.1754,0.9572,-0.0949,1.0237,6.5975,0.42,-163.72259085163398,-56.39288241087413,1.6936718310660055,15.585999999995693
-0.9233,-0.5668,-0.1776,0.1758,0.9568,-0.0982,1.26,5.5738,-1.1463,-163.10131473330438,-57.086490977187374,1.6045673679757566,15.601999999998952
-0.9353,-0.5677,-0.1785,0.1774,0.9562,-0.097,1.61,5.425,-1.8288,-162.75967598427894,-57.43696790120943,1.517348131175339,15.61699999999837
-0.9368,-0.5464,-0.1719,0.1721,0.9562,-0.0965,2.2662,2.5463,-2.2313,-162.60492579350492,-58.293552471919064,1.4022800380652751,15.63300000000163
-0.9306,-0.546,-0.1778,0.1776,0.9542,-0.095,2.5113,1.2513,-1.505,-162.1463413454865,-58.31759580071873,1.278944584258092,15.648000000001048
-0.9264,-0.5382,-0.1709,0.1776,0.9542,-0.095,2.5287,0.105,-1.54,-162.31584269951043,-58.571524551904595,1.1525621258325909,15.664000000004307
-0.9232,-0.5348,-0.1667,0.178,0.9556,-0.103,2.3187,-0.5863,-1.9775,-162.5749743604403,-58.711608043151585,1.0288631932476118,15.680000000007567
-0.9243,-0.5274,-0.1662,0.1774,0.955,-0.0955,2.0825,-0.5688,-2.1437,-162.53034241208633,-59.01816048777627,0.918298073930598,15.694999999992433
-0.9243,-0.5207,-0.1606,0.1774,0.9558,-0.0942,1.6625,-0.3413,-2.3625,-162.7346167256683,-59.36754693532862,0.821553546536537,15.710999999995693
-0.9237,-0.5175,-0.1612,0.1786,0.957,-0.0954,1.19,-1.085,-2.5025,-162.71500633882735,-59.5384446328998,0.7247506918834518,15.72599999999511
-0.917,-0.5131,-0.1549,0.1786,0.957,-0.0954,0.2362,-1.5838,-2.5725,-162.80306912666705,-59.6545860497368,0.6294689026904603,15.74199999999837
-0.9115,-0.5151,-0.1589,0.1774,0.954,-0.0935,-0.6562,-1.7587,-2.3012,-162.82427152068547,-59.46105316078078,0.5411967324162549,15.75800000000163
-0.9095,-0.5186,-0.1541,0.179,0.9553,-0.0954,-1.435,-1.155,-2.5287,-163.19513907771233,-59.30623741884021,0.47148455917523446,15.773000000001048
-0.9183,-0.5165,-0.1587,0.1791,0.9535,-0.0918,-2.485,-0.315,-2.6163,-162.99852207723498,-59.47020427548564,0.4198001032567869,15.789000000004307
-0.9186,-0.5186,-0.1562,0.1806,0.9531,-0.0986,-2.24,-0.28,-3.2462,-163.16438490111676,-59.47428952724047,0.3740400929312549,15.804000000003725
-0.9145,-0.5233,-0.1579,0.1806,0.9531,-0.0986,-2.4675,-0.2537,-4.1475,-163.19646803641032,-59.278701050894135,0.33298280363738514,15.820000000006985
-0.9168,-0.5262,-0.1587,0.1809,0.9542,-0.0951,-2.4938,-0.175,-6.3963,-163.21106328381398,-59.17363446210053,0.2971645232731332,15.836000000010245
-0.9174,-0.5242,-0.1631,0.1811,0.9536,-0.0943,-1.6625,0.5512,-4.8738,-162.90148403086695,-59.146722675259255,0.2748892709383122,15.85099999999511
-0.9177,-0.5261,-0.1624,0.1809,0.9526,-0.0966,-1.0063,0.5775,-4.9525,-162.87306671332587,-59.10853554245028,0.2557163438461752,15.86699999999837
-0.9202,-0.5292,-0.1629,0.1827,0.9538,-0.0956,-0.735,0.6562,-5.5388,-162.88050635288545,-59.10169558257791,0.2390034094612139,15.881999999997788
-0.927,-0.5355,-0.1695,0.1827,0.9538,-0.0956,-0.525,0.4988,-6.44,-162.72462644958844,-58.9486098861298,0.22228578851655584,15.898000000001048
-0.9201,-0.5398,-0.171,0.1811,0.9532,-0.0898,0.42,0.9275,-7.7175,-162.63759601079354,-58.56406723633982,0.21341320966762123,15.914000000004307
-0.9263,-0.5407,-0.1757,0.18,0.9535,-0.099,1.0762,1.1812,-8.1462,-162.30856789395398,-58.48835040000051,0.20801808870024033,15.929000000003725
-0.9327,-0.5388,-0.1821,0.1804,0.9528,-0.0952,1.5137,0.9013,-7.9713,-161.71932626649436,-58.58650575038083,0.20019499983286043,15.945000000006985
-0.9356,-0.5361,-0.1792,0.1798,0.9546,-0.0951,1.9512,0.3588,-8.3475,-161.58589156234723,-58.78990955676762,0.18501929984468732,15.959999999991851
-0.9364,-0.5361,-0.181,0.1798,0.9546,-0.0951,1.435,-0.4638,-8.4525,-161.44402260778796,-58.84010456473925,0.15983864985885796,15.97599999999511
-0.9282,-0.5357,-0.1763,0.1786,0.9536,-0.0901,0.84,-1.47,-8.225,-161.59747776127827,-58.75036897783922,0.12268678486865968,15.99199999999837
-0.9304,-0.5355,-0.1793,0.1771,0.9546,-0.0855,-0.6825,-3.5438,-7.77,-161.55250850534577,-58.745748619674465,0.06257680638365021,16.006999999997788
-0.9262,-0.5392,-0.1721,0.1772,0.953,-0.0974,-1.61,-3.885,-7.035,-162.01410252531704,-58.6396258253337,0.00037512573388789747,16.023000000001048
-0.927,-0.5407,-0.1765,0.1789,0.9551,-0.0975,-2.4413,-4.2175,-5.4513,-161.94852663550773,-58.633356430656576,-0.05659863683729149,16.038000000000466
-0.9231,-0.5398,-0.1679,0.1789,0.9551,-0.0975,-2.4237,-4.305,-5.0225,-162.49718906647811,-58.59619566721686,-0.11293077316619177,16.054000000003725
-0.9231,-0.5336,-0.1656,0.1785,0.9543,-0.0922,-3.2025,-4.5325,-4.3137,-162.69657430365626,-58.71474452323465,-0.16690569586286944,16.070000000006985
-0.9201,-0.5351,-0.1624,0.1818,0.9533,-0.0878,-3.2638,-4.5413,-4.5237,-163.01892590533174,-58.71260662477545,-0.21152267627420346,16.085000000006403
-0.9174,-0.5364,-0.1608,0.1785,0.9538,-0.0948,-3.4825,-4.5937,-4.27,-163.24723950987627,-58.65073606750937,-0.2565196886602595,16.101000000009662
-0.9163,-0.539,-0.1642,0.1782,0.9536,-0.0995,-4.0862,-3.5963,-5.1537,-163.09450141763213,-58.59065681633284,-0.2794177697452498,16.11599999999453
-0.9245,-0.5367,-0.1617,0.1782,0.9536,-0.0946,-3.9725,-3.29,-4.9262,-163.20539186928315,-58.655732071486675,-0.29885199278037655,16.131999999997788
-0.9259,-0.5377,-0.1607,0.1787,0.9534,-0.0946,-3.7625,-3.1588,-4.76,-163.32796125070615,-58.70787883700606,-0.3144535135116057,16.148000000001048
-0.9206,-0.5383,-0.1603,0.179,0.9521,-0.1016,-3.1937,-3.2725,-4.4538,-163.39586748324874,-58.659361597137355,-0.3271869121587308,16.163000000000466
-0.9185,-0.5347,-0.1569,0.1786,0.9514,-0.0987,-2.5812,-3.2725,-4.55,-163.57676200095506,-58.70579417030631,-0.34159222095245817,16.179000000003725
-0.9196,-0.5342,-0.1602,0.181,0.9519,-0.0994,-1.6013,-2.9137,-4.4187,-163.4098925813448,-58.73625680804824,-0.346767948855686,16.194000000003143
-0.9192,-0.5292,-0.1563,0.181,0.9519,-0.0994,-1.085,-2.4588,-4.5413,-163.4808857469801,-58.87601403617071,-0.34749787397733073,16.210000000006403
-0.9176,-0.5265,-0.1598,0.1801,0.9522,-0.0995,0.0787,-2.0912,-5.4425,-163.4590935765416,-58.883869535677036,-0.3428613665857325,16.226000000009662
-0.921,-0.5264,-0.1574,0.1794,0.9524,-0.0998,0.1312,-1.4612,-5.6525,-163.4480291758165,-58.92565071175014,-0.3283014299072569,16.24099999999453
-0.9187,-0.5272,-0.1611,0.1794,0.9524,-0.0998,-0.0175,-1.3125,-6.6588,-163.43412288410667,-58.9841579308772,-0.3143712869203817,16.256999999997788
-0.9186,-0.5261,-0.1597,0.1803,0.9526,-0.0997,0.1138,-0.3675,-6.8775,-163.40538466163147,-59.050587350441525,-0.287895408228151,16.271999999997206
-0.9179,-0.5264,-0.1614,0.1814,0.9535,-0.0961,0.2275,0.0175,-7.0175,-163.32629927490746,-59.04613989827587,-0.25885386740528454,16.288000000000466
-0.9221,-0.5333,-0.1658,0.1801,0.9527,-0.0966,0.21,0.6037,-7.4113,-163.22902458054435,-58.883183231010754,-0.22427520066298504,16.304000000003725
-0.9259,-0.5335,-0.1705,0.1787,0.9544,-0.0971,0.525,1.1812,-7.3412,-162.90745841273937,-58.848647373479245,-0.18590148059730532,16.319000000003143
-0.9313,-0.5357,-0.1652,0.1787,0.9544,-0.1002,0.6737,0.9887,-7.1487,-162.88909166094558,-58.91454709777695,-0.1530740525346743,16.335000000006403
-0.9268,-0.5317,-0.1683,0.1819,0.9543,-0.1002,0.98,0.5075,-7.14,-162.66647978095486,-58.94449739005105,-0.13091539728147272,16.35000000000582
-0.9257,-0.5359,-0.17,0.1785,0.9542,-0.1026,0.8575,0.1925,-7.2013,-162.5445291315058,-58.80774793381142,-0.11505185755276073,16.36600000000908
-0.9298,-0.5318,-0.1674,0.1784,0.9546,-0.0971,0.6562,-0.0175,-7.0788,-162.5376976174878,-58.95788538098493,-0.103798671797536,16.38200000001234
-0.9333,-0.5306,-0.1716,0.179,0.9526,-0.1016,0.735,-0.385,-7.2187,-162.34545755641773,-59.074010224305695,-0.09861630461253848,16.396999999997206
-0.9273,-0.5281,-0.1699,0.179,0.9526,-0.1016,0.63,-0.35,-6.7987,-162.2771330432683,-59.09443061901763,-0.09379467415231142,16.413000000000466
-0.9262,-0.525,-0.166,0.1767,0.9522,-0.0897,0.3938,-0.175,-6.4313,-162.32558509917078,-59.17903643656135,-0.0867777067369886,16.427999999999884
-0.9213,-0.5294,-0.1722,0.1762,0.953,-0.097,0.4025,-0.1138,-6.2387,-162.2295549747539,-59.04117456324668,-0.0797386560636236,16.444000000003143
-0.9156,-0.5408,-0.1709,0.1783,0.9539,-0.1004,-0.35,0.1575,-6.0462,-162.29193409625788,-58.74891603959798,-0.06949679045679918,16.460000000006403
-0.9159,-0.5433,-0.1778,0.1794,0.9513,-0.0999,0.0437,0.6388,-5.775,-162.28046351523545,-58.5891052604685,-0.05392331141145392,16.47500000000582
-0.9236,-0.538,-0.1815,0.1794,0.9513,-0.0999,1.0412,1.19,-6.1687,-161.81311289654815,-58.52009729864496,-0.03139498026681747,16.49100000000908
-0.9466,-0.5247,-0.1781,0.1784,0.9554,-0.0994,1.6363,0.7437,-6.7025,-161.46553896557796,-59.14330693912324,-0.018215532250265357,16.505999999993946
-0.9521,-0.5188,-0.1784,0.1786,0.9533,-0.0984,1.5225,-0.77,-6.7112,-161.19974811912894,-59.64123543375465,-0.027481979027497744,16.521999999997206
-0.9354,-0.521,-0.1749,0.1762,0.9544,-0.0975,-0.5075,-4.8125,-7.525,-161.28326677932893,-59.58983147743602,-0.09403378113886623,16.538000000000466
-0.9271,-0.527,-0.1782,0.1782,0.953,-0.0994,-1.4438,-5.9412,-7.84,-161.30359384705832,-59.199763021896544,-0.1648366030218672,16.552999999999884
-0.9092,-0.5373,-0.1769,0.1782,0.953,-0.0994,-3.0187,-5.985,-7.7613,-161.65922775287675,-58.44415105805598,-0.2345369427372385,16.569000000003143
-0.9098,-0.5402,-0.1713,0.1718,0.9533,-0.0934,-3.0625,-4.9262,-8.1112,-162.2228088409304,-58.18158296515685,-0.27758694846093396,16.58400000000256
-0.9127,-0.5387,-0.1696,0.1782,0.9542,-0.0973,-2.6163,-3.9375,-7.6213,-162.441299070088,-58.22904665571393,-0.30652825362639186,16.60000000000582
-0.9253,-0.5325,-0.1646,0.1782,0.954,-0.1009,-2.9313,-3.5438,-7.1575,-162.72643163856833,-58.67175400899875,-0.326906148274149,16.61600000000908
-0.9285,-0.5338,-0.1658,0.1779,0.9567,-0.1004,-3.0975,-4.0862,-6.5887,-162.74051329497874,-58.81856558805125,-0.34937923344459343,16.6310000000085
-0.9134,-0.5392,-0.1617,0.1779,0.9567,-0.1004,-3.8412,-4.1213,-6.125,-163.19003756612048,-58.63826223317535,-0.3737880301122246,16.647000000011758
-0.9069,-0.5443,-0.1573,0.1767,0.9537,-0.1014,-3.8937,-3.22,-6.1163,-163.74021605863473,-58.39438106231536,-0.37987922705714383,16.661999999996624
-0.9057,-0.5502,-0.1618,0.1759,0.9529,-0.1049,-2.94,-2.1437,-7.28,-163.6449517051779,-57.92163118383775,-0.37276058435771836,16.677999999999884
-0.9126,-0.5578,-0.161,0.1758,0.954,-0.1008,-2.7825,-1.435,-7.4025,-163.8328890131953,-57.668788245526,-0.35614852592615637,16.694000000003143
-0.9179,-0.5574,-0.1622,0.1761,0.9548,-0.1006,-1.3475,-1.1287,-7.3238,-163.79969004275472,-57.681836727739835,-0.33577112333294945,16.70900000000256
-0.9195,-0.5538,-0.16,0.1761,0.9548,-0.1053,-0.2537,-0.3588,-7.0,-163.81783077450984,-57.82256602663051,-0.3073607310007071,16.72500000000582
-0.9215,-0.5492,-0.1603,0.1786,0.9515,-0.1053,0.8575,-0.7613,-5.8187,-163.77702317841425,-57.90762836704322,-0.28690220790023757,16.74000000000524
-0.9151,-0.5478,-0.1609,0.1761,0.9536,-0.1062,1.0063,-1.1287,-5.8713,-163.70454168040925,-57.94408588939146,-0.2744652671135251,16.7560000000085
-0.912,-0.5455,-0.1597,0.1756,0.9531,-0.1006,2.1788,-0.9013,-5.8975,-163.68921836595595,-57.97975671185835,-0.2599974604048167,16.772000000011758
-0.9127,-0.5393,-0.1664,0.1751,0.9539,-0.1018,1.8025,-0.3588,-5.8975,-163.15267559990141,-58.063477477721705,-0.23884151436414708,16.787000000011176
-0.9168,-0.5366,-0.1639,0.1753,0.9533,-0.107,2.0038,0.0175,-5.6175,-163.06116239757213,-58.116947212900094,-0.21470536292791023,16.802999999999884
-0.9291,-0.5221,-0.1659,0.1753,0.9533,-0.107,1.2163,-0.1838,-5.6262,-162.68513081683838,-58.280583663877955,-0.1957161266350229,16.8179999999993
-0.927,-0.5194,-0.169,0.1771,0.9556,-0.1006,0.9013,-0.9712,-5.3812,-162.352146151365,-58.39875612519257,-0.1901297939743698,16.83400000000256
-0.9304,-0.5122,-0.1648,0.1778,0.9536,-0.1015,-1.925,-2.625,-5.3725,-162.22829326519653,-58.56180996991017,-0.2089168145846337,16.85000000000582
-0.9113,-0.5194,-0.1726,0.1766,0.9541,-0.1018,-3.6925,-3.5612,-5.4425,-161.74765227610462,-58.581856813420366,-0.23610133312430473,16.86500000000524
-0.9096,-0.5266,-0.1735,0.177,0.9518,-0.1049,-6.1075,-2.1788,-5.32,-161.76204109042635,-58.58964336063836,-0.24386591981826614,16.8810000000085
-0.908,-0.5319,-0.1771,0.177,0.9518,-0.1049,-7.1137,-1.435,-5.4338,-161.6062907241177,-58.5748749116676,-0.23885182783568776,16.896000000007916
-0.9138,-0.5332,-0.1751,0.1771,0.9536,-0.1016,-7.2625,-0.5775,-4.8038,-161.794269529585,-58.521496622130506,-0.22328264505381318,16.912000000011176
-0.9195,-0.5377,-0.178,0.1772,0.9514,-0.1052,-7.2625,-0.4812,-4.9788,-161.69680343219258,-58.46949647529444,-0.20788366054984356,16.928000000014435
-0.9224,-0.5379,-0.1738,0.179,0.9518,-0.1059,-6.5275,-0.1138,-5.5125,-162.04127069293395,-58.47015577992385,-0.18863159449330918,16.9429999999993
-0.9201,-0.5397,-0.1801,0.1762,0.9522,-0.1068,-6.1863,-0.49,-6.0462,-161.61472569741704,-58.39813573396897,-0.17682443504541576,16.95900000000256
-0.9187,-0.5431,-0.1704,0.1762,0.9522,-0.1068,-6.2737,-0.7175,-6.1425,-162.4480191204742,-58.327208178335596,-0.16882824154049833,16.97400000000198
-0.9165,-0.551,-0.1748,0.1767,0.9517,-0.102,-4.375,-1.4963,-7.525,-162.40794650055548,-57.94631623359151,-0.17349213739083816,16.99000000000524
-0.9138,-0.5544,-0.1767,0.1757,0.9506,-0.1066,-4.1737,-0.6737,-7.5338,-162.3383427426203,-57.65487900392022,-0.16584420364490748,17.005999999993946
-0.9191,-0.5511,-0.1802,0.1753,0.9511,-0.1075,-1.6275,0.63,-7.0525,-162.06162529172752,-57.71549606211914,-0.14075478327249583,17.021000000007916
-0.9364,-0.5464,-0.182,0.1741,0.9506,-0.1086,-1.05,0.1663,-6.5012,-161.81199716126523,-58.06342778340326,-0.12428458494475837,17.037000000011176
-0.9403,-0.5439,-0.1796,0.1754,0.9521,-0.1077,-0.5512,-1.54,-7.0175,-161.78103921321446,-58.41934540657226,-0.1326461264494758,17.052000000010594
-0.9315,-0.543,-0.186,0.1739,0.9526,-0.109,-0.805,-3.1762,-6.685,-161.47035798690888,-58.386698021133526,-0.16511879381384612,17.068000000013853
-0.9292,-0.5478,-0.189,0.1779,0.953,-0.1078,-1.0325,-4.9,-6.3175,-161.2116592276304,-58.23444560615815,-0.21916691438266253,17.08400000000256
-0.9215,-0.5499,-0.1893,0.1779,0.953,-0.1078,-0.8138,-5.4163,-6.0462,-161.11765955106083,-58.05879749038496,-0.27037027294155885,17.09900000000198
-0.9176,-0.5434,-0.1843,0.1741,0.9514,-0.1092,0.14,-5.4163,-5.3987,-161.13402284930172,-58.05234047118091,-0.3213279656632926,17.11500000000524
-0.9126,-0.5397,-0.1857,0.1757,0.9523,-0.1009,0.2975,-5.0225,-5.0138,-161.10730510328065,-58.02822208826738,-0.3569989190943322,17.130000000004657
-0.9154,-0.5328,-0.1812,0.1778,0.9526,-0.1086,0.1925,-4.795,-4.5937,-161.12388099183042,-58.21220125967625,-0.39034702719896586,17.146000000007916
-0.9195,-0.5378,-0.1789,0.1752,0.9515,-0.1079,-0.105,-5.0575,-4.725,-161.17497000764237,-58.27212227052388,-0.4241403244276696,17.161999999996624
-0.9163,-0.5389,-0.178,0.1754,0.9509,-0.1022,0.6562,-4.5237,-5.5738,-161.38845871144846,-58.268590601999,-0.4427962420417784,17.177000000010594
-0.9165,-0.5389,-0.1734,0.1754,0.9509,-0.1022,0.9363,-3.8063,-5.9763,-161.76010555772993,-58.277866537202044,-0.453327337798917,17.1929999999993
-0.9124,-0.5379,-0.1714,0.177,0.9517,-0.0955,1.4612,-3.325,-6.4313,-162.0944719453121,-58.265721518332214,-0.4528821040172834,17.20799999999872
-0.917,-0.5302,-0.1704,0.1758,0.9517,-0.1041,1.3737,-3.0013,-6.1863,-162.14558613472124,-58.456009111572826,-0.45081261362435987,17.22400000000198
-0.9233,-0.5251,-0.1681,0.1766,0.9522,-0.1059,0.9187,-2.4675,-6.3787,-162.19448266264698,-58.78570476016848,-0.44126335223684654,17.239999999990687
-0.92,-0.5263,-0.1657,0.1791,0.951,-0.1011,-0.4462,-3.3163,-6.0462,-162.29849177278797,-58.87912747470958,-0.44190706705485727,17.255000000004657
-0.9181,-0.5328,-0.1675,0.1791,0.951,-0.1011,-0.6388,-2.9925,-5.495,-162.3971660593009,-58.87802057710411,-0.4408083603581506,17.271000000007916
-0.9127,-0.5333,-0.1646,0.179,0.9522,-0.1109,-1.6187,-2.66,-5.1887,-162.6764934328705,-58.80311597629177,-0.43263752432094205,17.286000000007334
-0.9145,-0.5339,-0.1645,0.1782,0.9521,-0.1038,-1.5925,-2.2838,-5.7663,-162.79912434546105,-58.75454801478232,-0.4222604918955477,17.302000000010594
-0.9149,-0.534,-0.1661,0.1784,0.9517,-0.1043,-0.9187,-1.47,-6.2562,-162.76176680203528,-58.67204411344933,-0.4012024426910532,17.3179999999993
-0.9199,-0.5307,-0.1623,0.1772,0.9522,-0.1062,-1.4525,-1.4262,-6.7025,-162.90059575487385,-58.7959113448304,-0.3803358984398793,17.33300000001327
-0.9189,-0.5336,-0.1674,0.1772,0.9522,-0.1062,-1.2425,-1.33,-6.3263,-162.72334875644015,-58.74096584242608,-0.36145430858237454,17.34900000000198
-0.9159,-0.5348,-0.1646,0.1754,0.9516,-0.1121,-1.5925,-1.9688,-7.5512,-162.82778909502093,-58.63102074777863,-0.3518876777231057,17.364000000001397
-0.9173,-0.5336,-0.1669,0.1789,0.9518,-0.1075,-1.575,-1.61,-7.6825,-162.70716232165586,-58.635656928176985,-0.33988290995551834,17.380000000004657
-0.915,-0.538,-0.1643,0.1778,0.9518,-0.1078,-0.84,-2.2225,-8.2513,-162.85036920546014,-58.475419210658714,-0.3378986189373791,17.395999999993364
-0.9145,-0.5376,-0.1661,0.1766,0.9518,-0.111,-0.63,-1.5488,-8.5575,-162.84263284766388,-58.41611557149527,-0.325017557063114,17.411000000007334
-0.917,-0.5342,-0.1642,0.1766,0.9518,-0.111,-0.4988,-1.1638,-8.68,-162.86681028633112,-58.58639597505007,-0.3092745213449749,17.426999999996042
-0.9141,-0.533,-0.1712,0.1751,0.9512,-0.1046,-0.8838,-0.77,-7.9363,-162.5478078419111,-58.5361025371841,-0.28874206922015855,17.44200000001001
-0.9168,-0.5444,-0.1695,0.1756,0.952,-0.1063,-1.47,-0.8225,-8.4963,-162.6422977584391,-58.22509310581303,-0.2717118623005556,17.45800000001327
-0.9223,-0.5511,-0.1759,0.1746,0.9518,-0.1058,-0.35,-0.5688,-8.33,-162.55019787512853,-57.9868365934329,-0.2527313960647193,17.47400000000198
-0.9182,-0.5481,-0.1751,0.1754,0.9525,-0.1063,0.0962,-0.6125,-8.155,-162.53016447413677,-57.943095678816675,-0.2357270064579265,17.489000000001397
-0.9184,-0.5436,-0.1708,0.1754,0.9525,-0.1063,0.9013,-0.91,-7.6737,-162.54286488640673,-58.10791412062003,-0.22525830580288547,17.504999999990105
-0.9149,-0.5414,-0.1731,0.1737,0.9534,-0.0967,0.9275,-0.8925,-7.385,-162.41246414958002,-58.134544578254,-0.2147812252338182,17.520000000004075
-0.9068,-0.5463,-0.1707,0.1751,0.9528,-0.107,1.6712,-0.07,-7.7088,-162.55917601111557,-57.863216097289545,-0.19431110270972496,17.535999999992782
-0.9106,-0.5481,-0.1734,0.1738,0.9526,-0.1069,1.0762,0.4988,-7.49,-162.50009759091205,-57.77785506914728,-0.16769727243728916,17.551999999996042
-0.9146,-0.554,-0.1799,0.1722,0.9543,-0.1026,0.8138,1.0762,-7.2625,-162.2824218976232,-57.60551820424472,-0.13639884518002934,17.56700000001001
-0.9201,-0.5557,-0.1799,0.1722,0.9543,-0.1026,0.875,1.0588,-7.1838,-162.1802262239708,-57.596984533774545,-0.10751224067278706,17.58299999999872
-0.9234,-0.5548,-0.1829,0.1731,0.9546,-0.1082,0.8313,0.77,-6.265,-161.98879676698917,-57.63382729561443,-0.08636601659582725,17.59800000001269
-0.9171,-0.5492,-0.1793,0.1737,0.9537,-0.1053,1.6712,-0.0437,-6.2737,-161.94555302999137,-57.70296849147034,-0.0783586949358004,17.614000000001397
-0.9136,-0.5435,-0.1753,0.1739,0.9541,-0.1062,1.96,0.035,-6.3263,-162.0630469760868,-57.83439693193558,-0.0700188254421177,17.630000000004657
-0.9096,-0.5443,-0.1787,0.1727,0.9532,-0.1072,1.82,-0.4988,-6.0375,-161.90947835846737,-57.820964050013224,-0.06975074289764463,17.645000000004075
-0.9106,-0.5422,-0.1784,0.1727,0.9532,-0.1072,1.2862,-0.28,-6.3787,-161.841069826893,-57.86716143672248,-0.06680766860503452,17.660999999992782
-0.9105,-0.5444,-0.1784,0.1715,0.954,-0.1003,0.5163,-1.19,-6.9475,-161.84606046268647,-57.84033669914962,-0.07619190175949277,17.676000000006752
-0.9182,-0.5533,-0.1767,0.1714,0.9534,-0.106,0.14,-1.33,-7.0,-161.89520200188602,-57.74601514593138,-0.08772471157002662,17.69199999999546
-0.9234,-0.5533,-0.1756,0.1714,0.9542,-0.1047,0.2537,-2.3975,-6.615,-161.99092927699417,-57.798132657998316,-0.11347624042005741,17.70799999999872
-0.9218,-0.5537,-0.1796,0.1738,0.9558,-0.1064,0.4288,-2.4675,-5.8888,-162.00202136268567,-57.7782104725566,-0.13543986637675903,17.722999999998137
-0.9157,-0.5487,-0.1728,0.1738,0.9558,-0.1064,0.6125,-2.5287,-5.3288,-162.1955114243913,-57.78977940031392,-0.1583091597465015,17.739000000001397
-0.9185,-0.5469,-0.1714,0.1727,0.9542,-0.1087,0.0175,-3.325,-5.46,-162.19646109062947,-57.79678316248736,-0.1873657437701095,17.754000000000815
-0.9145,-0.548,-0.17,0.1735,0.9557,-0.1038,0.1575,-3.2375,-5.6262,-162.26732666588688,-57.80868634082753,-0.21524916936019567,17.769999999989523
-0.9168,-0.547,-0.1657,0.171,0.9536,-0.1048,0.105,-3.6662,-5.6087,-162.33986687868966,-57.835506737501184,-0.24651753243493152,17.785999999992782
-0.9078,-0.5437,-0.1665,0.171,0.9536,-0.1048,-0.0525,-3.57,-5.425,-162.38001528945904,-57.84169259518159,-0.27006077923632343,17.801000000006752
-0.9043,-0.5401,-0.1641,0.1738,0.9502,-0.1099,-0.1488,-2.87,-5.145,-162.48135514836443,-57.88911865264581,-0.28438270128352316,17.81699999999546
-0.9069,-0.5407,-0.1657,0.173,0.9536,-0.1006,-0.9887,-2.6688,-4.7337,-162.72217616410165,-57.95980702371601,-0.29197323118872526,17.83200000000943
-0.9065,-0.5481,-0.1664,0.1735,0.9541,-0.1046,-0.945,-2.3888,-5.3025,-162.91313059201013,-57.92079868007713,-0.2971746280455752,17.847999999998137
-0.9093,-0.5481,-0.1617,0.175,0.9565,-0.1038,-0.4988,-2.38,-5.8187,-163.13371954462872,-57.903862535064995,-0.3017291652479998,17.864000000001397
-0.9096,-0.5477,-0.1613,0.175,0.9565,-0.1019,-0.56,-2.1175,-6.0025,-163.30035035629078,-57.89692743353927,-0.30014249872209053,17.879000000000815
-0.9098,-0.5454,-0.1668,0.1726,0.9543,-0.1019,0.1575,-1.505,-5.95,-163.2622686125528,-57.903318209775406,-0.2918002488542967,17.895000000004075
-0.9077,-0.543,-0.1634,0.1747,0.956,-0.1056,-0.1225,-1.1113,-6.1863,-163.26107048663457,-57.945667200756944,-0.27762277396828483,17.910000000003492
-0.9077,-0.5417,-0.1616,0.1733,0.956,-0.1034,0.0875,-0.1575,-6.3963,-163.26970959109295,-58.01264572642224,-0.25212849656985564,17.9259999999922
-0.9073,-0.5442,-0.1673,0.1727,0.9538,-0.1064,0.3675,0.2887,-6.3263,-163.17633283444363,-57.95745056553446,-0.22275836691202314,17.94199999999546
-0.9091,-0.5459,-0.1654,0.1727,0.9538,-0.1111,-0.2013,0.245,-6.5712,-163.17056772587998,-57.924550792591845,-0.19717503022094918,17.956999999994878
-0.9172,-0.5476,-0.1691,0.1742,0.9546,-0.1111,-0.21,0.5075,-6.7375,-163.10967426940385,-57.966824843992626,-0.17014952719736545,17.972999999998137
-0.9159,-0.5472,-0.1734,0.1732,0.9544,-0.099,0.3762,0.98,-6.2825,-162.92600813420881,-57.94771400369362,-0.1399045744653075,17.988000000012107
-0.9154,-0.5447,-0.1733,0.1734,0.9554,-0.1047,0.525,0.9625,-6.0287,-162.7318956084605,-57.97237190864769,-0.11205411702855868,18.004000000000815
-0.9197,-0.5443,-0.1765,0.1734,0.9554,-0.1047,0.3938,1.1113,-5.6175,-162.5401283889708,-57.98821619611881,-0.08484598532244263,18.020000000004075
-0.9195,-0.5391,-0.1775,0.173,0.9542,-0.1088,0.2187,0.9538,-5.2587,-162.410846754504,-58.04937371826937,-0.06348508680318969,18.03499999998894
-0.9201,-0.5357,-0.1797,0.1738,0.9557,-0.1068,-0.28,0.1575,-5.1275,-162.19325972136244,-58.154667746326,-0.054868578122408675,18.0509999999922
-0.9193,-0.5355,-0.1821,0.1738,0.9557,-0.1068,-0.3588,-0.175,-5.1363,-161.92812355842284,-58.21797856159355,-0.05174422031007613,18.065999999991618
-0.9155,-0.5448,-0.179,0.1727,0.9535,-0.0961,-0.4112,-0.56,-6.0287,-161.8932632223181,-58.11976430590358,-0.05463379828071137,18.081999999994878
-0.9155,-0.5487,-0.1816,0.1722,0.9542,-0.1133,-0.63,-0.9975,-6.8688,-161.81249903385682,-57.89674153540225,-0.06353441845556657,18.097999999998137
-0.9189,-0.5553,-0.1837,0.1734,0.9569,-0.1067,0.1925,-0.805,-7.4462,-161.79482222946785,-57.64907084070744,-0.0680484766095882,18.112999999997555
-0.9216,-0.5521,-0.1787,0.1719,0.9558,-0.1068,0.7613,-0.3938,-7.385,-161.91011091313763,-57.749700724972584,-0.06691434894978465,18.129000000000815
-0.9218,-0.5422,-0.1836,0.1719,0.9558,-0.1068,1.4438,-1.3212,-6.9738,-161.54700652571742,-57.994582315110826,-0.07805911405411405,18.144000000000233
-0.9164,-0.5338,-0.1817,0.1714,0.9538,-0.107,1.33,-2.2838,-7.2537,-161.35101535353505,-58.25033672381481,-0.10313992265540255,18.160000000003492
-0.9121,-0.5359,-0.1816,0.1691,0.9542,-0.1046,0.175,-3.08,-8.2775,-161.34123629071055,-58.20302353488442,-0.137177930398898,18.176000000006752
-0.9043,-0.5386,-0.1763,0.1703,0.9548,-0.1055,-0.5075,-3.8325,-8.5225,-161.52450681022097,-57.993814246509686,-0.17519888730680727,18.190999999991618
-0.8993,-0.5389,-0.1786,0.171,0.955,-0.107,-1.4612,-3.3075,-9.5288,-161.60766095212767,-57.78711242192549,-0.20530699858582965,18.206999999994878
-0.9054,-0.5457,-0.1675,0.171,0.955,-0.107,-1.6275,-3.185,-9.7475,-162.43358186252073,-57.77307006980301,-0.22777379872557815,18.221999999994296
-0.9048,-0.5549,-0.1743,0.1711,0.9545,-0.1042,-1.995,-0.8138,-9.4587,-162.51929858612758,-57.3679966929403,-0.21671513885540775,18.237999999997555
-0.9121,-0.5588,-0.1748,0.17,0.9566,-0.1127,-2.905,-2.0563,-9.17,-162.60148510712975,-57.31648183122527,-0.22465434497589948,18.254000000000815
-0.9198,-0.5616,-0.1691,0.17,0.9573,-0.1065,-2.8612,-1.89,-8.4613,-163.0773137966059,-57.436269486945,-0.22770391047731942,18.269000000000233
-0.9171,-0.5628,-0.1672,0.169,0.9538,-0.1059,-3.6488,-1.89,-6.3612,-163.37327569397738,-57.406957720897395,-0.2321495194351321,18.285000000003492
-0.9084,-0.565,-0.1642,0.169,0.9538,-0.1059,-3.3512,-2.275,-5.5912,-163.6984970668675,-57.375646928739954,-0.23964706749042708,18.30000000000291
-0.9054,-0.5635,-0.1711,0.1714,0.955,-0.101,-2.3012,-2.0387,-5.1188,-163.28725662768036,-57.26292766187543,-0.24503964072066498,18.315999999991618
-0.9007,-0.5624,-0.17,0.1707,0.9554,-0.1077,-2.0475,-1.6888,-5.5388,-163.2158258757265,-57.24499698117121,-0.24485439665355288,18.331999999994878
-0.9082,-0.5654,-0.1711,0.1676,0.9561,-0.1052,-1.47,-1.2337,-5.7925,-163.1844122457513,-57.1783868315881,-0.2370239069875513,18.346999999994296
-0.9084,-0.5652,-0.1685,0.1686,0.9566,-0.1031,-0.9187,-1.0675,-6.265,-163.28822330134275,-57.10315827808453,-0.23061501629930972,18.36500000000524
-0.9113,-0.5602,-0.1712,0.1686,0.9566,-0.1031,-0.6388,-1.1812,-6.1163,-163.1768656175489,-57.166469751536155,-0.22349971466875995,18.380000000004657
-0.9123,-0.5582,-0.1692,0.1702,0.956,-0.1074,0.1838,-0.5512,-5.2238,-163.1711184852447,-57.21694742744696,-0.20908702319628208,18.395999999993364
-0.9097,-0.5601,-0.1732,0.1705,0.9538,-0.1065,-0.0437,-1.365,-4.9525,-163.1514287226703,-57.21092844259085,-0.2078343208806583,18.411999999996624
-0.909,-0.5641,-0.1755,0.17,0.9548,-0.1058,-0.2975,-1.645,-4.235,-163.04826664787774,-57.08226606860304,-0.20925838879173073,18.426999999996042
-0.9089,-0.5618,-0.1744,0.171,0.9558,-0.1074,-0.1838,-0.9275,-4.41,-162.99944727153965,-57.085629394764126,-0.20168854991527863,18.4429999999993
-0.9389,-0.5721,-0.1837,0.1708,0.9546,-0.1011,-0.2713,-2.0213,-3.5263,-162.82106181235486,-57.28191129413799,-0.20880724492269187,18.45799999999872
-0.9871,-0.601,-0.1945,0.1708,0.9546,-0.1011,-0.035,-3.8238,-0.9887,-162.78505855031545,-57.36463292667754,-0.24298924044164044,18.47400000000198
-0.9751,-0.6057,-0.1934,0.1705,0.953,-0.1133,0.7437,-7.7962,8.2425,-162.57712359335204,-56.925107171822404,-0.33095559642034783,18.49000000000524
-0.9536,-0.6011,-0.1957,0.1757,0.9519,-0.1066,0.665,-8.4875,12.1625,-162.3365337179177,-56.48403181485114,-0.4124412866627083,18.504999999990105
-0.9439,-0.5897,-0.1935,0.1798,0.9517,-0.1047,1.3038,-11.305,15.9338,-162.05336848496046,-56.665702379582875,-0.5339891580296026,18.520999999993364
-0.9258,-0.5668,-0.1855,0.1798,0.9517,-0.1047,1.5575,-11.585,16.1262,-161.94696268918642,-57.18701439624996,-0.6369877422205733,18.535999999992782
-0.9381,-0.5541,-0.1834,0.1794,0.9498,-0.1058,1.5488,-10.9637,15.9775,-161.78906979009818,-58.07000278589227,-0.7311662480306799,18.551999999996042
-0.9675,-0.5605,-0.1854,0.1869,0.9485,-0.1015,2.4762,-13.1337,17.3862,-161.72361538855063,-58.58595991100688,-0.8471749032661418,18.5679999999993
-1.0558,-0.5868,-0.1799,0.1928,0.9448,-0.1022,3.9288,-17.9463,29.1112,-162.70488152120785,-59.79477707099926,-1.0047324629301262,18.58299999999872
-1.0479,-0.6129,-0.1687,0.1979,0.9426,-0.1014,6.0813,-25.8913,49.5337,-164.3408140209315,-58.77602562067899,-1.27709393671307,18.59900000000198
-0.998,-0.6038,-0.1761,0.2096,0.9364,-0.1071,7.0437,-29.8375,59.08,-163.81529338287143,-57.795383306535676,-1.552190793026132,18.614000000001397
-0.9604,-0.5645,-0.1657,0.2205,0.9308,-0.0976,8.7587,-28.8663,66.3688,-163.65910096206812,-58.4996125073991,-1.8126464338082031,18.630000000004657
-0.992,-0.5466,-0.1671,0.2338,0.9226,-0.0942,9.4237,-29.4263,66.6137,-163.0643966388638,-60.02906167308984,-2.0551205105137096,18.646000000007916
-1.029,-0.5427,-0.1421,0.2338,0.9226,-0.0942,12.4513,-34.3088,71.0675,-165.15872877721569,-61.3837527898264,-2.3127772589950326,18.660999999992782
-1.0026,-0.4938,-0.1406,0.2454,0.918,-0.0802,12.95,-33.6963,74.5413,-164.18221643463963,-62.86473228986447,-2.566726253194383,18.676999999996042
-0.9853,-0.4577,-0.1302,0.2582,0.9118,-0.0733,13.51,-33.5213,75.88,-164.12499964359287,-64.20493790110449,-2.7625911778573835,18.69199999999546
-0.951,-0.3827,-0.0942,0.2703,0.9042,-0.0805,14.035,-33.8625,73.7363,-166.03551154666536,-67.4484723957648,-2.9739520601709866,18.70799999999872
-0.9578,-0.3538,-0.0872,0.2813,0.8955,-0.0753,13.3787,-31.6575,71.6363,-166.1461570292246,-69.1490237241565,-3.1324248542467608,18.72400000000198
-1.0017,-0.3359,-0.0716,0.2913,0.8865,-0.0734,11.6025,-30.1963,70.2012,-167.82234040425854,-71.0499183934031,-3.226832418806266,18.739000000001397
-1.0034,-0.3208,-0.0573,0.2913,0.8865,-0.0734,11.2262,-31.1588,71.785,-169.70493294541788,-71.99537076023249,-3.352835897017049,18.755000000004657
-0.991,-0.3013,-0.0575,0.3038,0.8782,-0.066,9.1263,-28.7,71.8375,-169.24597821259897,-72.79119451655507,-3.405002306924433,18.769999999989523
-0.9823,-0.2514,-0.0395,0.3125,0.8694,-0.0677,8.645,-26.915,69.8163,-170.88119702717827,-75.44053895988759,-3.4520780763109493,18.785999999992782
-0.9756,-0.2273,-0.0317,0.3213,0.8613,-0.0641,6.2913,-23.9225,63.0875,-171.89846835478912,-76.74343556335498,-3.451354268750035,18.801999999996042
-0.9724,-0.1769,-0.0174,0.3213,0.8613,-0.0641,5.2413,-21.1488,58.7125,-173.9834654711559,-79.59633201545797,-3.391727641863952,18.81699999999546
-1.003,-0.1473,-0.0016,0.3294,0.8538,-0.0645,4.6988,-19.1887,55.0375,-178.42859523151864,-81.61151718685767,-3.3288721577338505,18.83299999999872
-0.9997,-0.131,-0.0018,0.3362,0.8481,-0.0619,3.9025,-16.9837,46.9525,-179.05232782547725,-82.5165818876226,-3.2252648919515683,18.847999999998137
-0.9996,-0.1067,0.0004,0.3419,0.8419,-0.0586,3.2025,-14.9275,42.5425,94.08979781797106,-83.87876215885818,-3.117694402800204,18.864000000001397
-1.0014,-0.095,0.0064,0.3481,0.8363,-0.0582,3.045,-12.1713,32.4275,155.783874987853,-84.5507949094364,-2.9811916825558904,18.880000000004657
-0.9974,-0.0785,0.0076,0.3481,0.8363,-0.0582,2.485,-10.6663,25.9438,169.08482286340373,-85.45026375882023,-2.8270675642947136,18.895000000004075
-0.9963,-0.0724,0.0101,0.3512,0.8328,-0.0603,1.5925,-5.2325,12.7837,170.90462944055685,-85.78524866719849,-2.619708807880593,18.911000000007334
-1.0031,-0.0693,0.0121,0.3528,0.8318,-0.0578,1.4438,-3.4913,6.0725,170.428845145681,-85.97218841445256,-2.4048704770449802,18.9259999999922
-1.0332,-0.0703,0.0097,0.3499,0.8302,-0.0533,1.2775,-1.4612,-4.165,171.38583385421546,-86.0283559081554,-2.185424709344769,18.94199999999546
-1.0495,-0.0799,0.011,0.3527,0.8309,-0.0538,1.645,-0.7175,-6.6762,171.86639718257888,-85.79884086333018,-1.977214238412397,18.95799999999872
-1.0512,-0.0882,0.0094,0.3527,0.8309,-0.0558,1.1287,-0.5075,-8.3737,172.9465819652309,-85.33697110884269,-1.7863440645708915,18.972999999998137
-1.043,-0.0892,0.0078,0.3506,0.8311,-0.0558,1.5137,-0.21,-9.7738,174.17968441721018,-85.13937106066636,-1.6107336581144185,18.989000000001397
-1.0425,-0.0927,0.0075,0.3523,0.8321,-0.0548,1.8375,-0.2275,-11.3837,174.95115702421177,-84.9364787087663,-1.4527315423028575,19.004000000000815
-1.0422,-0.1022,0.0046,0.3503,0.8326,-0.0541,1.0588,1.9775,-15.925,176.2134152205418,-84.44120454605786,-1.2789823880667706,19.020000000004075
-1.0465,-0.1121,-0.0001,0.3485,0.8368,-0.0556,0.8575,3.1063,-18.8913,13.369628809226619,-83.92440814347546,-1.1063534292509807,19.036000000007334
-1.08,-0.1383,-0.0061,0.3485,0.8368,-0.0556,-0.1663,3.2375,-20.0025,-15.939313773824422,-82.77486035437919,-0.9520118363699793,19.0509999999922
-1.0887,-0.1493,-0.0098,0.3444,0.836,-0.0624,-0.6037,2.6688,-18.6287,-77.21977948541853,-82.21723433865684,-0.818379932725152,19.06699999999546
-1.0843,-0.1549,-0.0134,0.3447,0.8377,-0.0534,-1.47,2.2662,-15.8463,-135.68738507486384,-81.87316251106736,-0.705948239453824,19.081999999994878
-1.0717,-0.1551,-0.0145,0.3431,0.8386,-0.0578,-2.0038,1.4438,-15.1025,-161.74999548417847,-81.7432409032038,-0.614562695504206,19.097999999998137
-1.0727,-0.1541,-0.0145,0.3432,0.8405,-0.0582,-2.2575,1.7237,-14.7437,-170.69058490759926,-81.78491417637777,-0.5282851459487286,19.114000000001397
-1.0726,-0.1703,-0.0196,0.3432,0.8405,-0.0582,-3.3775,2.3712,-15.7937,-172.8099592211106,-80.99625011949469,-0.4434454313550979,19.129000000000815
-1.0784,-0.1785,-0.0173,0.3432,0.8417,-0.0546,-4.3837,1.9863,-16.0737,-174.15783675564697,-80.59601250397921,-0.37049816821376097,19.145000000004075
-1.0758,-0.184,-0.0232,0.3401,0.8397,-0.0494,-5.565,2.4237,-17.1063,-173.017947993833,-80.2488198424363,-0.3007284013936546,19.160000000003492
-1.0725,-0.1814,-0.0171,0.3388,0.844,-0.0583,-5.6613,2.5812,-16.6338,-174.37564248552331,-80.34921833273717,-0.23348628124671675,19.176000000006752
-1.0636,-0.1844,-0.022,0.3375,0.8446,-0.0607,-6.58,2.8175,-16.5725,-173.3516946354859,-80.11679806898752,-0.16956565311377947,19.19200000001001
-1.0587,-0.1871,-0.0192,0.3375,0.8446,-0.0608,-6.2213,4.06,-16.555,-174.0318214058991,-79.94205396123175,-0.09779908785770113,19.206999999994878
-1.0923,-0.214,-0.0303,0.3376,0.8458,-0.0608,-5.7838,3.9288,-14.4987,-172.24863116764854,-78.92076681810876,-0.031444459060405223,19.222999999998137
-1.0951,-0.2208,-0.0304,0.3354,0.8473,-0.0637,-5.355,2.8437,-11.83,-172.174534559521,-78.5537469145625,0.010089936844145577,19.237999999997555
-1.0912,-0.2264,-0.0403,0.3356,0.847,-0.0658,-4.9088,2.8525,-7.0,-170.28966163152558,-78.28051089004761,0.05015694316809931,19.254000000000815
-1.0815,-0.2125,-0.0331,0.3346,0.8478,-0.0634,-3.0975,0.2537,-5.7312,-170.93814636244184,-78.37259201757512,0.04879452885203365,19.270000000004075
-1.0754,-0.2094,-0.0351,0.3346,0.8478,-0.0634,-3.045,-0.3237,-5.04,-170.59618747009114,-78.5148285430665,0.03954512596699986,19.285000000003492
-1.0587,-0.2084,-0.0351,0.334,0.845,-0.0689,-2.6688,-0.8575,-4.375,-170.48212153550617,-78.61828360626411,0.023242613367784257,19.301000000006752
-1.0665,-0.2131,-0.0328,0.3378,0.8468,-0.0595,-2.2225,-0.4988,-4.0862,-171.01268741183335,-78.59056961333452,0.01418455203126714,19.31600000000617
-1.0756,-0.2259,-0.0324,0.3355,0.8475,-0.0668,-1.6538,1.0237,-2.5113,-171.52873537222462,-78.16426494448086,0.027507376817736507,19.331999999994878
-1.0795,-0.2257,-0.0318,0.3356,0.8474,-0.0683,-1.5137,1.3737,-0.5075,-171.80161450953497,-78.09200034920687,0.04453791913999283,19.347999999998137
-1.0796,-0.2103,-0.0294,0.3356,0.8474,-0.0683,-0.84,1.9075,2.905,-171.9122434104931,-78.78951498716552,0.06583537722499427,19.362999999997555
-1.0721,-0.1927,-0.0276,0.337,0.8437,-0.0656,-1.0325,1.6363,4.4187,-171.87992975656945,-79.62438146218105,0.08281455950729522,19.379000000000815
-1.0671,-0.1832,-0.0257,0.3374,0.8436,-0.0654,-1.5838,1.3038,4.83,-171.9626841048575,-80.11712883475636,0.09213440355588269,19.394000000000233
-1.0601,-0.1712,-0.0268,0.3378,0.842,-0.0694,-2.66,2.485,4.5675,-171.33692368282158,-80.66227237190226,0.11870496320758457,19.410000000003492
-1.0635,-0.1685,-0.0256,0.3402,0.8392,-0.0677,-2.0738,2.4413,4.4187,-171.35333123961283,-80.87398386028485,0.1419891868939881,19.426000000006752
-1.0643,-0.1603,-0.0314,0.3402,0.8392,-0.0677,-1.8725,2.6163,2.6075,-169.76075963661043,-81.23043275506733,0.1631103182032187,19.44100000000617
-1.0655,-0.1571,-0.0346,0.34,0.8394,-0.0679,-1.4875,3.0625,0.91,-168.45100121008008,-81.38966211578331,0.1908992863918812,19.45700000000943
-1.0602,-0.1548,-0.0366,0.3412,0.8387,-0.0734,-0.8313,2.3537,-3.99,-167.6472143738719,-81.43619359030595,0.2035843077206343,19.471999999994296
-1.0636,-0.1468,-0.0364,0.3414,0.838,-0.0704,0.2187,2.765,-6.2387,-167.38113605194636,-81.63776642261851,0.22304187695668246,19.487999999997555
-1.0622,-0.1445,-0.0343,0.34,0.8394,-0.0722,-0.4812,2.1525,-9.415,-167.13756123440828,-81.95881463967267,0.2317336892673289,19.504000000000815
-1.0663,-0.1338,-0.0305,0.34,0.8394,-0.0722,-0.5863,1.6975,-9.8263,-167.14550854813243,-82.53380167707977,0.23147657033970673,19.519000000000233
-1.0632,-0.1301,-0.0312,0.3371,0.8386,-0.0666,-0.7088,1.3388,-10.4038,-166.88042663078514,-82.77811475188223,0.22760763330966366,19.535000000003492
-1.0499,-0.1334,-0.0304,0.3382,0.8394,-0.0737,-2.1875,0.6737,-11.0775,-167.07430310847604,-82.60601329371153,0.21394181997834438,19.55000000000291
-1.0497,-0.1351,-0.0371,0.3396,0.8399,-0.0726,-2.6688,1.1375,-11.8912,-165.30403041665517,-82.42590358423988,0.208927637983847,19.56600000000617
-1.0556,-0.1429,-0.0403,0.3366,0.8415,-0.0758,-4.1912,2.2575,-15.6275,-164.45304190819988,-82.03247269097207,0.22054287419208504,19.58200000000943
-1.0664,-0.1715,-0.0432,0.3366,0.8415,-0.0758,-4.7512,2.5375,-17.1063,-165.6173367255631,-80.69832525523512,0.23274483677154723,19.597000000008848
-1.0733,-0.1823,-0.0542,0.3346,0.8427,-0.0739,-5.3288,2.8437,-16.6688,-163.78502476324306,-80.01291765162557,0.25041963306549186,19.612999999997555
-1.0706,-0.1849,-0.0501,0.3329,0.8446,-0.0739,-4.935,2.1437,-15.3125,-164.6621284945264,-79.86974497997696,0.2543176197578197,19.627999999996973
-1.0589,-0.1897,-0.053,0.3319,0.8448,-0.0761,-5.0925,2.205,-14.6562,-164.43476238418384,-79.50292178172741,0.2606378577885065,19.644000000000233
-1.0591,-0.1897,-0.0475,0.3305,0.8446,-0.0786,-5.5825,2.66,-14.6388,-165.71392100856423,-79.53499818987156,0.2728780720174594,19.660000000003492
-1.0693,-0.2059,-0.0596,0.3305,0.8446,-0.0786,-5.81,3.08,-16.0825,-164.12850480722096,-78.73976761540357,0.28717026481409996,19.67500000000291
-1.0727,-0.2203,-0.0641,0.3307,0.8486,-0.0699,-5.53,3.045,-17.2463,-163.8304967175844,-77.99081602429493,0.302301238341623,19.69100000000617
-1.0835,-0.2242,-0.0644,0.3298,0.8486,-0.0806,-4.83,2.8263,-16.555,-163.9491426414225,-77.86192580128103,0.31022616450598006,19.706000000005588
-1.0777,-0.2295,-0.0639,0.3255,0.8486,-0.0795,-4.4012,1.61,-13.72,-164.35029541938172,-77.5704123510109,0.3023875480601053,19.722000000008848
-1.074,-0.2312,-0.0673,0.3276,0.8492,-0.0789,-3.64,2.065,-12.8188,-163.89485480542822,-77.38788843954765,0.30188479326015283,19.738000000012107
-1.0621,-0.2364,-0.067,0.3276,0.8492,-0.0789,-1.9425,2.0738,-12.355,-164.08115387752744,-77.02669405370256,0.29969261390589114,19.752999999996973
-1.0556,-0.241,-0.0705,0.3251,0.8522,-0.0866,-1.3563,3.2462,-13.02,-163.85734909945788,-76.66721834345452,0.31646863252482527,19.769000000000233
-1.064,-0.2441,-0.0835,0.3258,0.8454,-0.0825,-1.0063,3.4913,-14.4288,-162.4719202747332,-76.40044824221171,0.3319543192705138,19.78399999999965
-1.0802,-0.2567,-0.0767,0.3264,0.8534,-0.0842,0.9013,3.2725,-13.9738,-162.89115954064178,-76.10524410111394,0.34588288735306283,19.80000000000291
-1.0852,-0.2591,-0.0811,0.3239,0.8522,-0.0842,1.4438,3.2462,-12.075,-162.73137782094,-75.97395753238067,0.3580398786272798,19.81600000000617
-1.0824,-0.2524,-0.0814,0.3239,0.8522,-0.0842,2.4325,1.6363,-8.085,-162.30264062590476,-76.16098536034148,0.34432594076369466,19.831000000005588
-1.0769,-0.2418,-0.0753,0.3222,0.8526,-0.0734,2.9662,0.245,-6.9825,-162.6014162496134,-76.5235056324329,0.31342134668804394,19.847000000008848
-1.0662,-0.235,-0.0748,0.3233,0.8536,-0.0834,3.1412,-0.8487,-6.125,-162.40626506860866,-76.69947492780372,0.2706217620196842,19.862000000008265
-1.0551,-0.2339,-0.0747,0.3225,0.8557,-0.0831,3.2113,-1.1375,-6.44,-162.3163522266341,-76.79697344711239,0.22717958581437875,19.878000000011525
-1.056,-0.2334,-0.0728,0.3264,0.8533,-0.083,2.4325,-0.9538,-6.0988,-162.57127599678034,-76.8603409394665,0.19072690723014274,19.894000000014785
-1.0651,-0.2283,-0.0675,0.3264,0.8533,-0.083,2.8175,-1.05,-5.67,-163.2771013118478,-76.94303055409222,0.1574792165214301,19.90899999999965
-1.0626,-0.2175,-0.0627,0.3221,0.8554,-0.0888,2.6513,-1.1375,-4.7863,-163.7424718781335,-77.36878964511878,0.12535129486595004,19.92500000000291
-1.0585,-0.2122,-0.061,0.3242,0.8555,-0.0821,1.2163,-1.2075,-2.9488,-163.86222733326576,-77.97782147713689,0.0965149153799876,19.94000000000233
-1.0494,-0.2004,-0.0565,0.3233,0.8556,-0.0827,0.7962,-1.1812,-2.9575,-164.03444541176532,-78.55117291916417,0.0698541438385236,19.956000000005588
-1.0452,-0.1955,-0.0522,0.3252,0.8542,-0.0826,0.14,-0.4375,-3.4825,-164.14721056619763,-78.8795451123165,0.05656872945338777,19.972000000008848
-1.0372,-0.188,-0.0548,0.3252,0.8542,-0.0826,-0.3762,-0.1225,-4.5763,-164.03525098232953,-79.08419817767016,0.049258106508113166,19.987000000008265
-1.0336,-0.1867,-0.053,0.3235,0.8553,-0.0718,-1.3038,1.0762,-7.945,-164.10161351500253,-79.28410732664872,0.05982957586045906,20.003000000011525
-1.0327,-0.1871,-0.0526,0.3243,0.854,-0.0822,-1.8813,2.4237,-10.115,-164.22991582238743,-79.33142538371239,0.08656656824140092,20.01799999999639
-1.039,-0.2008,-0.0634,0.323,0.8558,-0.0826,-2.0213,4.0075,-14.98,-163.05440231092015,-78.61834088797642,0.1356179114290175,20.03399999999965
-1.0478,-0.2088,-0.0664,0.3213,0.8582,-0.0853,-1.9338,4.6813,-15.9163,-162.5947728699793,-78.22672268652057,0.18946684029984914,20.05000000000291
-1.0663,-0.2258,-0.0741,0.3213,0.8582,-0.0853,-1.9512,4.6112,-15.9338,-162.0890737316533,-77.50486688156764,0.2327713562674486,20.06500000000233
-1.0636,-0.2343,-0.0906,0.3158,0.8577,-0.0748,-0.7788,5.04,-14.6475,-160.65969075577138,-76.78924178637006,0.2820702206554894,20.081000000005588
-1.0669,-0.2397,-0.0806,0.3162,0.8577,-0.087,-0.84,4.6813,-13.7463,-161.00766863702552,-76.6786256778484,0.3170607485874881,20.096000000005006
-1.067,-0.2429,-0.0822,0.3162,0.8577,-0.087,-0.8662,4.7162,-13.0375,-161.14631212739965,-76.50889389040148,0.353267953742575,20.112000000008265
-1.069,-0.2427,-0.0893,0.3154,0.8584,-0.0929,-0.8662,4.6463,-12.7575,-160.51524453177444,-76.41365666006546,0.3848478783210969,20.127999999996973
-1.0778,-0.254,-0.0902,0.3157,0.8589,-0.0882,-0.595,2.765,-10.675,-160.49019062385636,-76.03269516751438,0.38369059052375115,20.143000000010943
-1.0745,-0.2583,-0.092,0.3146,0.8581,-0.0962,-0.4375,2.2487,-10.0887,-160.46064548066377,-75.74673356005331,0.37770281147797297,20.159000000014203
-1.0707,-0.2616,-0.0924,0.315,0.8605,-0.087,-0.3413,2.1175,-9.0825,-160.48313204617497,-75.5326475670314,0.36851878030133406,20.17399999999907
-1.0669,-0.2554,-0.096,0.3126,0.8607,-0.0874,0.6037,1.2163,-8.6888,-160.08172694355022,-75.62569502861916,0.34918162227476884,20.19000000000233
-1.0605,-0.2521,-0.0957,0.3126,0.8616,-0.0874,1.1113,1.4438,-8.7325,-159.62726683282986,-75.70826917267308,0.3350541800515276,20.206000000005588
-1.0631,-0.2465,-0.0919,0.3126,0.8616,-0.0874,1.4875,0.735,-8.5575,-159.5833754910618,-76.00435382657616,0.3114712620459898,20.221000000005006
-1.0596,-0.2472,-0.0953,0.3084,0.8629,-0.089,1.6275,0.6037,-8.12,-159.1723701596114,-75.97369076741448,0.2890174158431619,20.237000000008265
-1.0663,-0.2437,-0.0923,0.3138,0.863,-0.0898,1.2163,-0.1663,-7.35,-159.21806127797163,-76.16424600960639,0.2578706242589328,20.252000000007683
-1.0624,-0.2419,-0.0964,0.3123,0.8624,-0.0895,0.9712,-0.84,-6.7987,-158.7557228759451,-76.20037267854542,0.21998756183057525,20.268000000010943
-1.0578,-0.2406,-0.0901,0.3132,0.8624,-0.089,-0.035,-1.4262,-6.2475,-158.78982945737033,-76.2642184874581,0.17745152566201228,20.28399999999965
-1.05,-0.2452,-0.0924,0.3128,0.8617,-0.083,-0.3237,-1.575,-6.2913,-158.93206145836805,-76.14118464407153,0.13844387309663614,20.29899999999907
-1.0517,-0.2452,-0.0886,0.3128,0.8617,-0.083,0.1488,-0.2713,-6.16,-159.07368933526269,-76.11544059897294,0.12069276578617663,20.31500000000233
-1.0523,-0.2459,-0.0973,0.3126,0.8622,-0.0896,0.6125,0.7788,-6.37,-158.8261736219227,-76.01140479335581,0.119137289207151,20.330000000001746
-1.0615,-0.2458,-0.0977,0.3126,0.8604,-0.0898,0.7,0.4725,-6.9212,-158.6217605362693,-76.00937569266914,0.11402756028782206,20.346000000005006
-1.0649,-0.2451,-0.1047,0.311,0.8615,-0.0839,1.3737,-0.0875,-7.5512,-157.61223786056055,-75.96839194807586,0.10136480425992912,20.361999999993714
-1.0654,-0.2434,-0.101,0.311,0.8615,-0.0839,1.2075,-0.665,-7.7263,-157.53148454759972,-76.06412358608013,0.08225082382557526,20.377000000007683
-1.0643,-0.242,-0.1012,0.3116,0.8624,-0.0984,1.295,-1.7938,-8.9775,-157.40501791740448,-76.13458462520587,0.04819502143775532,20.393000000010943
-1.0627,-0.2463,-0.0999,0.3115,0.8628,-0.0885,1.575,-2.6513,-8.6975,-157.72027535965282,-75.99994652326794,0.007582969295368724,20.40800000001036
-1.0654,-0.2506,-0.0986,0.3107,0.863,-0.0878,0.91,-4.0163,-6.8688,-158.09915946296016,-75.89246442174407,-0.05101004764595063,20.42400000001362
-1.0663,-0.2534,-0.1003,0.3086,0.8633,-0.0862,1.2163,-4.5325,-5.2937,-158.26632989516642,-75.85495071068402,-0.1111770428352915,20.44000000000233
-1.0654,-0.2511,-0.0976,0.3086,0.8633,-0.0862,0.7875,-5.1625,-2.9575,-158.48120258467932,-75.82231711613056,-0.16975308854905788,20.455000000001746
-1.0749,-0.2477,-0.0931,0.311,0.8629,-0.0834,0.3063,-6.0725,-1.7938,-158.688590778187,-76.09592137424104,-0.2402217796324369,20.470999999990454
-1.0762,-0.2472,-0.0919,0.3125,0.8611,-0.0878,0.0175,-6.5188,-1.1025,-158.6907523917098,-76.20563195220117,-0.3042034017511531,20.486000000004424
-1.0696,-0.2438,-0.0865,0.3128,0.8623,-0.0862,-1.225,-8.4525,0.1838,-159.6731767710672,-76.37401909449281,-0.3954990616008346,20.502000000007683
-1.064,-0.247,-0.083,0.3152,0.8625,-0.0852,-1.7587,-8.4087,1.2075,-160.79407762253604,-76.25668438592261,-0.47703443535529305,20.51799999999639
-1.0682,-0.2538,-0.0813,0.3152,0.8625,-0.0852,-1.6275,-8.505,4.4887,-161.69168587354253,-76.01551726420563,-0.5441484919266959,20.53300000001036
-1.069,-0.257,-0.0827,0.3152,0.859,-0.0926,-1.5313,-8.9075,5.9763,-161.97751776386875,-75.84139672693318,-0.6180016426434989,20.54899999999907
-1.069,-0.2579,-0.0803,0.3183,0.858,-0.0846,-1.8463,-9.1613,9.59,-162.4510555871851,-75.82083756262595,-0.6798790283743497,20.563999999998487
-1.0718,-0.2553,-0.0782,0.3206,0.8569,-0.0817,-2.0825,-9.8,11.4187,-162.80236487587524,-76.0005280845721,-0.7530111255656646,20.580000000001746
-1.0698,-0.2561,-0.0767,0.3251,0.8518,-0.082,-2.2138,-9.975,12.6175,-163.16482619521867,-75.97098719463715,-0.8213500129077217,20.595999999990454
-1.0741,-0.2481,-0.072,0.3251,0.8518,-0.082,-1.1725,-10.675,15.5575,-163.51887021818195,-76.4534910877603,-0.8833275117511648,20.611000000004424
-1.0666,-0.2476,-0.0697,0.3283,0.8506,-0.0728,-0.9363,-11.1125,17.1938,-163.88897065396168,-76.4418471594433,-0.9550147604631114,20.62699999999313
-1.0632,-0.2392,-0.0647,0.331,0.8457,-0.0806,1.4175,-10.7187,18.0688,-164.45844648768323,-76.86264406882297,-1.004215734551565,20.6420000000071
-1.0722,-0.2355,-0.0666,0.3333,0.8436,-0.0797,1.2513,-10.4825,17.9725,-164.32053014051598,-77.13074180456525,-1.0547421609898742,20.65799999999581
-1.0873,-0.2335,-0.0608,0.3358,0.842,-0.0731,3.6837,-11.9,20.0812,-165.17278648064365,-77.47463279893665,-1.1206279449257974,20.67399999999907
-1.0981,-0.2275,-0.058,0.3358,0.842,-0.0731,4.6725,-12.845,22.6712,-165.60467222482154,-77.91601747388941,-1.1819726505947161,20.68900000001304
-1.0914,-0.2161,-0.0552,0.34,0.8385,-0.0782,5.7575,-14.7262,26.9063,-165.66109870570065,-78.43406862328168,-1.2758326653855814,20.705000000001746
-1.0783,-0.2029,-0.0615,0.3447,0.8332,-0.0758,6.6675,-16.0475,28.7262,-163.46743919220125,-78.86382061740936,-1.3648906488386165,20.720000000001164
-1.1431,-0.2248,-0.0564,0.35,0.829,-0.0709,7.595,-16.8088,32.8125,-165.6304299614257,-78.5467496443105,-1.4704483040040666,20.736000000004424
-1.1342,-0.2158,-0.0517,0.3543,0.8214,-0.069,9.73,-21.4988,46.8037,-166.443655545784,-78.92271085978977,-1.6329861933851666,20.75199999999313
-1.1014,-0.1829,-0.0594,0.3543,0.8214,-0.069,9.9925,-21.9188,53.2262,-162.41196488920482,-80.07637477885308,-1.7655913743222318,20.7670000000071
-1.0954,-0.166,-0.0528,0.361,0.8134,-0.0595,10.9113,-25.7075,62.755,-162.36031479514392,-80.95143657113935,-1.9592202366287417,20.78299999999581
-1.1036,-0.1534,-0.051,0.369,0.8042,-0.0623,10.6575,-25.9788,67.6813,-161.6743405162323,-81.65691899867431,-2.1140120132924953,20.79800000000978
-1.0781,-0.0949,-0.0195,0.3799,0.7928,-0.0578,10.8763,-28.2537,79.275,-167.8224497965251,-84.8275423244377,-2.309464091676102,20.813999999998487
-1.0592,-0.0661,-0.0192,0.3876,0.7794,-0.0524,10.0887,-27.9825,81.4975,-164.16602968068645,-86.26533672579403,-2.481465682590583,20.830000000001746
-1.0249,0.0123,0.0065,0.3876,0.7794,-0.0524,9.0825,-26.9587,77.49,8.780880761159164,-89.18711104165834,-2.597261564317402,20.845000000001164
-1.0209,0.0444,0.0154,0.3943,0.7674,-0.0412,7.2713,-25.27,72.1438,17.875567242411577,-87.3875552862098,-2.7014234076288415,20.860999999989872
-1.031,0.0944,0.0284,0.4005,0.7582,-0.0453,6.3963,-22.8725,66.1062,16.897114942921036,-84.57749242701604,-2.7400598171535298,20.87600000000384
-1.0265,0.1032,0.034,0.4058,0.7488,-0.0427,4.6375,-18.0863,54.4163,17.99691708955547,-83.96783526840233,-2.7264965552543647,20.89199999999255
-1.0253,0.1184,0.0379,0.4109,0.74,-0.0381,3.7538,-15.6275,48.5887,17.802058873512127,-83.10261185817191,-2.6788828997747745,20.90799999999581
-1.0333,0.1485,0.0401,0.4109,0.74,-0.0381,3.1063,-10.6225,38.2287,15.769056010529226,-81.56812264973115,-2.554398359930852,20.92300000000978
-1.0388,0.1475,0.0304,0.4121,0.7354,-0.0449,2.6425,-8.9775,33.9675,12.782430082329055,-81.74648780102595,-2.428234523846528,20.938999999998487
-1.0785,0.1241,0.03,0.4152,0.7293,-0.0404,2.7213,-9.2837,31.045,13.372093164348204,-83.20863034019659,-2.310741021578598,20.954000000012456
-1.0951,0.1308,0.0407,0.4184,0.7234,-0.0384,3.0538,-9.4587,32.4188,16.315506013726665,-82.87862140669198,-2.2158721993246093,20.970000000001164
-1.0871,0.1429,0.0417,0.4206,0.7175,-0.0316,2.2225,-10.85,33.0313,16.282744564685206,-82.21990318869189,-2.1505249794239787,20.986000000004424
-1.0604,0.1621,0.0448,0.4206,0.7175,-0.0316,1.9162,-11.0775,31.115,15.736616496413246,-81.02084628591147,-2.085018731330699,21.00099999998929
-1.0511,0.152,0.0401,0.4222,0.7129,-0.0306,1.7062,-9.6163,27.7025,15.1347318673029,-81.48015853651319,-2.01499157822584,21.01699999999255
-1.061,0.1562,0.0571,0.4278,0.7066,-0.0406,2.135,-9.17,28.28,18.49506866598471,-81.10267473382628,-1.9372874205185489,21.03200000000652
-1.0504,0.1853,0.0562,0.4269,0.7022,-0.0346,2.31,-8.3737,27.2038,17.364695885896694,-79.60105369628619,-1.8641399583815914,21.047999999995227
-1.0455,0.2,0.0661,0.4301,0.6991,-0.034,2.5812,-8.5575,24.6663,18.029604182287375,-78.64078486976497,-1.8009539625685371,21.063999999998487
-1.0524,0.2258,0.0786,0.4301,0.6991,-0.034,1.7325,-7.7525,21.1663,18.764729722256252,-77.25261195918362,-1.7255173163076223,21.078999999997905
-1.0466,0.234,0.0787,0.4296,0.6937,-0.0299,0.8838,-7.0,17.4737,18.68307211422342,-76.74919008848649,-1.6537655846973958,21.095000000001164
-1.0441,0.238,0.0772,0.4296,0.6937,-0.0299,0.385,-5.67,12.845,18.4909473246796,-76.53545655776038,-1.5649340262989442,21.110000000015134
-1.0372,0.2378,0.0785,0.4303,0.6926,-0.0328,-1.7763,-3.4562,0.7788,18.348214136082145,-76.44128983690183,-1.4582099036339242,21.12600000000384
-1.0355,0.2361,0.0741,0.4315,0.6922,-0.03,-2.8087,-1.4088,-4.6463,17.666043913568082,-76.49558297157964,-1.3326756332562142,21.14199999999255
-1.0524,0.2178,0.071,0.4311,0.6914,-0.031,-2.8612,-0.3063,-8.925,17.954883478330643,-77.44377058128256,-1.2035431199304323,21.156999999991967
-1.0566,0.2067,0.0586,0.4318,0.6922,-0.0364,-2.7475,-0.245,-12.74,16.393391620108115,-78.3775484936848,-1.0867168079381078,21.172999999995227
-1.0655,0.192,0.0626,0.4318,0.6922,-0.0364,-2.3012,-0.2187,-11.9788,17.556146868864584,-79.14898630458254,-0.9809975771441826,21.187999999994645
-1.0627,0.1903,0.0576,0.4314,0.6934,-0.0305,-1.1725,-0.2013,-11.9613,17.167367553950648,-79.36878512590383,-0.8857965394303549,21.203999999997905
-1.0661,0.1867,0.0656,0.4311,0.6954,-0.0297,-0.7875,-0.14,-12.7312,18.143535710432232,-79.47040535389446,-0.7992328854877301,21.220000000001164
-1.0677,0.1837,0.0591,0.4307,0.6974,-0.0336,-0.3938,-0.1663,-13.9563,18.053703273829633,-79.72505915790576,-0.7215546469388701,21.235000000000582
-1.069,0.1734,0.0591,0.4307,0.6974,-0.0336,-1.33,0.4988,-16.0912,18.493626690909995,-80.22820480019999,-0.6422164622435197,21.25100000000384
-1.0661,0.161,0.0578,0.4295,0.698,-0.0364,-1.19,0.14,-16.8787,19.179407044499403,-80.83135697316312,-0.5761048160192411,21.26600000000326
-1.0648,0.1559,0.0586,0.4271,0.6994,-0.0308,-0.77,0.7525,-16.3538,19.804359664331677,-81.08667022769289,-0.5076583344249648,21.281999999991967
-1.0644,0.1482,0.0596,0.4298,0.7,-0.0354,-0.2013,1.5313,-15.4525,20.17865505397924,-81.4307317423857,-0.43484178097797593,21.297999999995227
-1.0644,0.1474,0.0587,0.4288,0.7015,-0.0354,-0.07,2.8437,-14.7437,20.299136300669392,-81.51307877794875,-0.35296765288166804,21.312999999994645
-1.0747,0.1518,0.057,0.4288,0.7015,-0.0354,0.28,2.9488,-14.4725,20.358128727477546,-81.42935029957341,-0.27520816758485045,21.328999999997905
-1.0809,0.144,0.0479,0.4259,0.703,-0.0403,1.085,4.27,-13.79,19.345570984394108,-81.94573628052494,-0.19004235082860232,21.343999999997322
-1.0846,0.1421,0.0508,0.4265,0.7038,-0.0412,1.96,4.1737,-11.9175,19.560956055467397,-82.06099118107016,-0.11093683573349786,21.360000000000582
-1.0842,0.1452,0.0395,0.4244,0.7046,-0.036,1.715,3.8238,-10.29,16.826827561205196,-82.09191531604628,-0.04478043214893032,21.37600000000384
-1.0814,0.1459,0.0429,0.4254,0.705,-0.0366,1.8463,3.675,-7.9363,16.541245128605958,-82.02314215843282,0.009310111064037488,21.39100000000326
-1.0921,0.1549,0.0354,0.4254,0.7059,-0.0451,1.9775,3.745,-7.875,14.111279977313224,-81.81088318741061,0.06230709996862032,21.40700000000652
-1.092,0.1557,0.0387,0.4286,0.7059,-0.0451,1.7062,1.995,-8.6713,14.015141242007411,-81.68227400572754,0.08300888994458522,21.421999999991385
-1.0928,0.151,0.0312,0.4242,0.7066,-0.0402,1.05,1.54,-9.345,12.824675684602614,-81.90980412598155,0.09688400095464454,21.437999999994645
-1.0922,0.1293,0.0345,0.4262,0.7067,-0.0377,1.5575,0.6913,-9.0037,14.107780722623671,-82.76984745195675,0.09715032086120814,21.453999999997905
-1.0926,0.124,0.026,0.4265,0.7083,-0.0378,1.9688,0.525,-7.84,12.609159871513619,-83.2018335743837,0.0945227887748123,21.468999999997322
-1.0937,0.1355,0.0279,0.4265,0.7083,-0.0378,2.4325,-0.42,-6.1512,11.919939802702272,-83.03816304009092,0.07902250989609892,21.485000000000582
-1.0865,0.1478,0.0308,0.4274,0.7066,-0.0444,2.24,-1.4612,-4.0687,11.817450502422378,-82.48118825020579,0.05139405890725451,21.5
-1.0867,0.1521,0.0351,0.4266,0.7062,-0.0382,2.5113,-1.855,-4.3313,12.65791415545418,-82.12948338230291,0.019542653011087107,21.51600000000326
-1.0781,0.1596,0.0395,0.4275,0.7065,-0.039,2.4938,-2.9925,-5.2238,13.543662727796464,-81.9615696576336,-0.0255036122988006,21.53200000000652
-1.0781,0.1576,0.0354,0.4275,0.7065,-0.039,2.4938,-2.9925,-5.2238,12.913752954205457,-81.86035469576706,-0.06335200102816092,21.546999999991385
-1.0822,0.1549,0.0357,0.4296,0.709,-0.0368,1.47,-3.9725,-6.3,12.952069910512126,-81.7633795510757,-0.11422080093699882,21.562999999994645
-1.0843,0.1484,0.039,0.4271,0.7087,-0.0421,1.2687,-3.5438,-6.93,13.938029277199698,-81.87092173204627,-0.15064002084144246,21.577999999994063
-1.0825,0.1479,0.0422,0.4271,0.7087,-0.0421,2.5113,-5.7312,-7.0262,15.356618878176134,-81.89670801438704,-0.21810529877411164,21.593999999997322
-1.0748,0.1472,0.0472,0.4247,0.7098,-0.0321,1.9863,-5.5125,-6.545,16.963410700804992,-81.85505544651252,-0.27567476891287235,21.610000000000582
-1.0708,0.1518,0.0551,0.4249,0.7078,-0.0337,2.4413,-5.5825,-6.3088,19.0781307465495,-81.66075201143104,-0.3234710420186606,21.625
-1.0634,0.1539,0.0612,0.4254,0.7078,-0.0343,2.7912,-5.635,-6.5625,20.995203979580563,-81.39502530707772,-0.37226793783332573,21.64100000000326
-1.0627,0.1564,0.0601,0.4254,0.7075,-0.035,2.0563,-4.865,-6.5363,21.01206465354447,-81.21355945440747,-0.40071864404744456,21.656000000002678
-1.0605,0.1538,0.0639,0.4254,0.7075,-0.035,2.4413,-3.2113,-5.7488,22.10936640029255,-81.18497982661073,-0.40688949965212096,21.672000000005937
-1.0596,0.1552,0.0614,0.4254,0.7073,-0.0351,2.2838,-2.0912,-5.6613,21.74519395808418,-81.16494755713114,-0.3963138296930438,21.688000000009197
-1.0646,0.1588,0.0594,0.4248,0.7097,-0.0339,2.065,-1.4,-6.4925,20.91404729443516,-81.05789413430828,-0.3755824467046706,21.702999999994063
-1.0698,0.159,0.0558,0.4255,0.7085,-0.0341,0.8313,-0.1312,-7.8488,20.20587450571565,-81.05145847828226,-0.3399134820345885,21.718999999997322
-1.0714,0.1569,0.0536,0.4245,0.709,-0.0358,0.8138,0.56,-8.225,19.60876908053101,-81.16248239711561,-0.298362133831423,21.73399999999674
-1.0729,0.1504,0.0512,0.4245,0.709,-0.0358,0.7437,1.4787,-7.6038,19.26783762884655,-81.44377379264508,-0.2472326404439427,21.75
-1.0726,0.1463,0.0468,0.4261,0.709,-0.0403,0.5337,1.5575,-6.5012,18.745763699882755,-81.6482419031563,-0.20008137639497922,21.76600000000326
-1.0781,0.1502,0.0497,0.426,0.7075,-0.0327,0.0437,1.3737,-6.3875,18.733635368237564,-81.64980285485177,-0.16152828875620096,21.781000000002678
-1.0784,0.1516,0.0443,0.4256,0.7094,-0.0335,-0.4288,0.56,-5.8888,17.982100688912684,-81.65494894070119,-0.137311459878938,21.797000000005937
-1.0746,0.1477,0.0436,0.4256,0.7094,-0.0335,-0.525,0.4462,-6.3612,17.44345773107575,-81.74323252098266,-0.11755661389712171,21.811999999990803
-1.0834,0.1429,0.0384,0.4272,0.7106,-0.0311,-0.3325,0.7962,-7.7263,16.823757265192047,-82.07460382646556,-0.09433567250507376,21.827999999994063
-1.0846,0.1408,0.0422,0.4263,0.7099,-0.0378,-0.4462,0.3588,-7.7613,16.77973419580978,-82.2187110713292,-0.07973538525351379,21.843999999997322
-1.0872,0.1349,0.0376,0.4244,0.7099,-0.0341,-0.1312,-0.14,-6.93,16.625873538013256,-82.4792946626672,-0.07365184672808907,21.85899999999674
-1.0869,0.1368,0.0383,0.4265,0.7101,-0.0369,-0.2625,-0.1138,-6.2562,16.411786983833956,-82.51151429309408,-0.06792538205561402,21.875
-1.0842,0.1392,0.0384,0.4265,0.7101,-0.0369,0.1575,-0.7175,-5.285,16.288460615891303,-82.49492518773746,-0.07081909384967675,21.889999999999418
-1.0795,0.1415,0.0384,0.4247,0.7104,-0.0459,0.0525,-0.7088,-5.4513,16.248653171723387,-82.48653995085965,-0.07394390446678846,21.906000000002678
-1.0774,0.1468,0.0395,0.4254,0.7102,-0.0363,0.3063,-0.7613,-5.0138,15.980628957673442,-82.31963774495674,-0.07751223402234302,21.922000000005937
-1.0754,0.151,0.0398,0.4237,0.7102,-0.0357,0.21,-0.6388,-5.2413,15.78254062517683,-82.20407009035414,-0.07838481061977406,21.937000000005355
-1.0751,0.1507,0.0412,0.4255,0.7102,-0.0349,0.5863,-0.4812,-5.495,15.60367041679928,-82.20135571172547,-0.07747560955920835,21.953000000008615
-1.0763,0.1487,0.0424,0.4255,0.7102,-0.0349,0.8138,-0.0525,-5.4513,15.74184683793047,-82.18758898742,-0.07043679860257243,21.96799999999348
-1.0685,0.1503,0.0454,0.4239,0.7102,-0.0294,0.6125,0.0525,-5.4775,16.14040338405371,-82.18125405593449,-0.06263711874216117,21.98399999999674
-1.0748,0.1577,0.0448,0.423,0.7096,-0.0367,0.2713,0.3588,-5.565,16.083015527748888,-82.12111172477348,-0.051206686866892455,22.0
-1.0701,0.1573,0.0457,0.4243,0.7097,-0.037,-0.0263,-0.0875,-6.2913,16.087672140256295,-81.75434753461228,-0.047267268180157376,22.014999999999418
-1.0696,0.1549,0.0423,0.4262,0.7096,-0.035,-0.0263,0.4112,-6.7638,16.05529112603502,-81.59071309144547,-0.036619261360935317,22.031000000002678
-1.068,0.1512,0.0443,0.4262,0.7096,-0.035,0.3938,1.7237,-7.385,16.130749293629467,-81.60203143062853,-0.009687385225744779,22.046000000002095
-1.0662,0.147,0.0369,0.4262,0.7108,-0.0314,0.4025,2.0825,-7.42,15.561309462433227,-81.80465199358348,0.02126935330293906,22.062000000005355
-1.0713,0.1505,0.0335,0.4262,0.7108,-0.0314,0.6125,3.4738,-7.1925,14.434790403763806,-81.80810422560462,0.06916513798283613,22.078000000008615
-1.0782,0.1527,0.0298,0.4234,0.7103,-0.0336,0.9887,3.8063,-7.1663,12.761468968838095,-81.79619084261755,0.11363367413270846,22.09299999999348
-1.0837,0.153,0.0282,0.424,0.7094,-0.0389,0.5075,3.2113,-7.6388,11.996622797409106,-81.81952265564126,0.1485130267288585,22.10899999999674
-1.0882,0.1523,0.0238,0.4224,0.71,-0.0398,0.2625,2.3187,-7.42,11.378933522555965,-81.89720489394058,0.16496417405475797,22.12399999999616
-1.0862,0.1496,0.0201,0.4229,0.7106,-0.0375,-0.3762,1.6975,-8.1637,10.330759179547757,-82.03646450615129,0.1729117566542621,22.139999999999418
-1.0853,0.1494,0.0245,0.4229,0.7106,-0.0375,-1.1463,0.84,-7.6038,9.783871627714541,-82.05155129213449,0.16771658099130016,22.156000000002678
-1.0876,0.147,0.0199,0.4226,0.7115,-0.035,-1.2163,0.6125,-7.6737,8.639111327191022,-82.17615200117417,0.15921367289184926,22.171000000002095
-1.0863,0.143,0.024,0.4222,0.7123,-0.0388,-1.8112,-1.0938,-7.84,9.213035253392272,-82.3311363053594,0.1275415855994555,22.187000000005355
-1.0863,0.1407,0.0255,0.4215,0.7118,-0.0406,-1.8375,-1.3125,-7.3412,9.901161367786406,-82.44153175633153,0.09706867704019753,22.202000000004773
-1.0853,0.1386,0.0255,0.4215,0.7106,-0.0391,-2.1962,-1.1375,-6.9563,10.261774426117636,-82.53668081632652,0.07098180933284073,22.218000000008033
-1.0835,0.1439,0.0276,0.4232,0.7106,-0.0391,-1.9688,-0.8925,-6.5363,10.65783311388084,-82.41487531247834,0.05103162839693837,22.234000000011292
-1.0819,0.141,0.0281,0.4234,0.7114,-0.0435,-1.7587,-0.91,-6.4488,11.049853664775766,-82.42245959506336,0.03364346556963927,22.24899999999616
-1.0809,0.1377,0.0269,0.4231,0.7119,-0.0423,-2.5287,-1.0237,-6.0725,11.052577958532753,-82.48943089616826,0.01553783900967215,22.264999999999418
-1.081,0.1354,0.0259,0.4214,0.7127,-0.041,-2.94,-1.4963,-6.5012,10.885539378975531,-82.61172093912438,-0.006215994890511201,22.279999999998836
-1.08,0.1346,0.0278,0.4214,0.7127,-0.041,-2.17,-1.05,-5.635,11.423480148031539,-82.62899878215318,-0.020714395404540432,22.296000000002095
-1.0874,0.1327,0.0279,0.4224,0.7118,-0.0349,-1.7763,-1.05,-5.46,11.712237643388715,-82.63645901260858,-0.03376295586716674,22.312000000005355
-1.0843,0.1348,0.0271,0.4214,0.7112,-0.0466,-0.9187,-1.5662,-5.1013,11.54559121251306,-82.67463638282523,-0.05153036027962959,22.327000000004773
