AcclX,AcclY,AcclZ,MagX,MagY,MagZ,GyroX,GyroY,GyroZ,Roll,Pitch,Yaw,Time(s)
-0.1301,0.9774,0.0536,-0.4,0.1912,-0.0586,-2.59,1.155,-15.925,0,0,0,1.6196080332792318
-0.1232,0.9527,0.0519,-0.4013,0.1926,-0.055,-2.5463,1.0412,-16.0737,0,0,0,1.631696670307261
-0.1314,0.9762,0.047,-0.4013,0.1926,-0.055,-2.275,1.3475,-15.785,0,0,0,1.6438932510743056
-0.1283,0.9772,0.052,-0.3998,0.1929,-0.0587,-2.6338,1.4612,-15.9162,0,0,0,1.6560470082596426
-0.1261,0.9784,0.0508,-0.3998,0.1929,-0.0587,-2.87,1.4612,-16.1963,0,0,0,1.668228724642954
-0.1285,0.9787,0.0476,-0.4008,0.1914,-0.0591,-2.9225,1.2862,-16.3625,0,0,0,1.6803672635306592
-0.1301,0.9784,0.0437,-0.4002,0.1924,-0.0512,-2.205,1.5312,-16.2313,0,0,0,1.6925316381329485
-0.1293,0.9761,0.0491,-0.4002,0.1924,-0.0512,-2.17,1.155,-15.7937,0,0,0,1.7046337238891174
-0.1299,0.9772,0.0482,-0.401,0.191,-0.0594,-2.7738,1.3125,-16.1,0,0,0,1.7141603782065484
-0.1311,0.9803,0.0487,-0.401,0.191,-0.0594,-2.9838,1.4,-15.5575,0,0,0,1.726233089109149
-0.1276,0.9778,0.0479,-0.3994,0.193,-0.0583,-2.415,1.19,-15.5662,0,0,0,1.7384512586239969
-0.129,0.9761,0.0457,-0.4005,0.189,-0.0586,-2.0213,1.19,-16.0475,0,0,0,1.7506011227564513
-0.1293,0.9781,0.0513,-0.4005,0.189,-0.0586,-1.89,1.6625,-16.4762,0,0,0,1.7627435546970391
-0.1294,0.9795,0.0468,-0.4001,0.1916,-0.0591,-2.0913,1.365,-16.1525,0,0,0,1.7749206701996711
-0.1313,0.9765,0.0482,-0.4001,0.1916,-0.0591,-2.8963,1.26,-15.47,0,0,0,1.7870645177958526
-0.1298,0.9777,0.0448,-0.4032,0.1941,-0.0594,-3.2113,1.3037,-15.5925,0,0,0,1.7992830412245988
-0.1313,0.9776,0.0446,-0.3998,0.191,-0.0603,-2.135,1.1112,-15.4787,0,0,0,1.81141131660925
-0.1272,0.9782,0.0516,-0.3998,0.191,-0.0603,-1.7413,1.085,-15.8812,0,0,0,1.8235930329925614
-0.129,0.9781,0.0473,-0.4006,0.1923,-0.0574,-1.8463,1.1025,-16.0562,0,0,0,1.8329788295784248
-0.131,0.9789,0.0489,-0.4006,0.1923,-0.0574,-2.24,1.2687,-15.8375,0,0,0,1.845141434611222
-0.1251,0.9783,0.0548,-0.4009,0.192,-0.0626,-2.0738,1.1287,-15.75,0,0,0,1.8573139492331747
-0.1312,0.9784,0.0483,-0.3987,0.1931,-0.059,-2.3888,1.2425,-16.1175,0,0,0,1.8694762003520735
-0.1298,0.9794,0.0495,-0.3987,0.1931,-0.059,-2.5725,1.1025,-15.1725,0,0,0,1.8815733313136647
-0.1276,0.9775,0.0464,-0.3969,0.1916,-0.0589,-2.1613,1.015,-15.3737,0,0,0,1.8937345206908682
-0.1311,0.9784,0.0474,-0.3969,0.1916,-0.0589,-2.275,1.2075,-15.4962,0,0,0,1.9059381797358812
-0.1276,0.9762,0.049,-0.4002,0.1923,-0.0583,-2.45,1.2075,-16.0125,0,0,0,1.9181145874107164
-0.1304,0.9779,0.0476,-0.4021,0.1929,-0.0605,-2.625,1.61,-15.7587,0,0,0,1.9302064096638314
-0.1274,0.9789,0.0491,-0.4021,0.1929,-0.0605,-2.3363,1.5837,-15.9162,0,0,0,1.942425287006476
-0.1298,0.9776,0.0487,-0.4013,0.1922,-0.0589,-1.9862,1.3562,-15.9337,0,0,0,1.9545659493775716
-0.1305,0.9798,0.0453,-0.4013,0.1922,-0.0589,-2.3625,1.4612,-15.4962,0,0,0,1.9640143887234538
-0.1276,0.9774,0.0465,-0.4006,0.1935,-0.0577,-2.3013,1.505,-15.7937,0,0,0,1.9762729044227205
-0.1257,0.9783,0.0494,-0.4006,0.1929,-0.059,-2.1963,1.05,-15.7675,0,0,0,1.988338537047353
-0.1286,0.9789,0.0494,-0.4006,0.1929,-0.059,-2.1963,0.9538,-15.82,0,0,0,2.0005082203581184
-0.128,0.9778,0.0514,-0.3996,0.1939,-0.0599,-2.4413,1.1987,-13.5625,0,0,0,2.012698076761093
-0.1288,0.9773,0.047,-0.3996,0.1939,-0.0599,-2.1438,1.3737,-16.7825,0,0,0,2.0248153808148937
-0.1301,0.9799,0.0473,-0.4017,0.1923,-0.0574,-2.4588,0.98,-15.6625,0,0,0,2.0369655988612463
-0.1329,0.9796,0.0501,-0.4012,0.192,-0.0594,-2.3625,1.1025,-16.0825,0,0,0,2.0492849877510397
-0.1278,0.9783,0.0481,-0.4012,0.192,-0.0594,-3.115,0.98,-16.1612,0,0,0,2.0612954098075202
-0.1308,0.9798,0.0464,-0.4021,0.1918,-0.0585,-2.2313,1.155,-16.1437,0,0,0,2.073475710535238
-0.1278,0.9774,0.0462,-0.4021,0.1918,-0.0585,-1.9162,1.1287,-15.7937,0,0,0,2.085522939637153
-0.1319,0.9775,0.049,-0.4022,0.1936,-0.0594,-2.4325,0.91,-15.6012,0,0,0,2.0950329600013586
-0.1296,0.9784,0.0463,-0.3989,0.1942,-0.0584,-2.8438,1.3125,-15.995,0,0,0,2.1071807006504226
-0.1275,0.978,0.052,-0.3989,0.1942,-0.0584,-1.8812,1.5225,-15.6363,0,0,0,2.119373388364585
-0.1291,0.98,0.0518,-0.4009,0.1935,-0.0577,-2.52,1.295,-15.6975,0,0,0,2.1315621830258644
-0.1308,0.978,0.0489,-0.4009,0.1935,-0.0577,-2.7562,1.3737,-15.715,0,0,0,2.143652589623386
-0.1285,0.9769,0.0479,-0.4022,0.1929,-0.0554,-2.6513,1.0412,-15.7325,0,0,0,2.1558307668677132
-0.1291,0.9785,0.0481,-0.4007,0.1937,-0.059,-2.5988,0.945,-15.3475,0,0,0,2.168007528456447
-0.129,0.9795,0.0502,-0.4007,0.1937,-0.059,-1.9162,1.0325,-15.9162,0,0,0,2.1801874752702664
-0.1305,0.977,0.0455,-0.3998,0.1909,-0.059,-2.4675,1.1725,-16.0912,0,0,0,2.1923210593633935
-0.1294,0.9808,0.0454,-0.3998,0.1909,-0.059,-2.7738,1.1638,-16.0125,0,0,0,2.204492512243651
-0.1291,0.9764,0.052,-0.4026,0.1937,-0.0577,-2.275,1.1812,-16.3187,0,0,0,2.216599198880499
-0.1284,0.9762,0.0475,-0.4029,0.1923,-0.0586,-2.3712,1.2687,-16.17,0,0,0,2.226148503687429
-0.1297,0.9781,0.045,-0.4029,0.1923,-0.0586,-2.1613,1.3037,-15.7762,0,0,0,2.2382640381717374
-0.129,0.9787,0.053,-0.4032,0.192,-0.059,-2.3625,1.2775,-15.8987,0,0,0,2.25039868400656
-0.1293,0.9791,0.0442,-0.4032,0.192,-0.059,-3.0188,1.2687,-15.9162,0,0,0,2.2625598733837635
-0.1297,0.9802,0.0454,-0.4011,0.1932,-0.0568,-2.8263,1.365,-15.5575,0,0,0,2.2746846096294306
-0.1288,0.9791,0.0508,-0.4006,0.1906,-0.0589,-2.3363,1.2687,-16.1437,0,0,0,2.286881898224272
-0.1315,0.9782,0.0495,-0.4006,0.1906,-0.0589,-2.3888,1.3037,-15.82,0,0,0,2.2991159938645485
-0.1276,0.9784,0.0484,-0.3998,0.193,-0.0606,-2.1175,1.3125,-16.1087,0,0,0,2.3112478083881838
-0.1277,0.9775,0.0489,-0.3998,0.193,-0.0606,-2.0213,0.8575,-15.7587,0,0,0,2.323371482892156
-0.1307,0.9766,0.0489,-0.3999,0.193,-0.0562,-1.5837,1.1112,-16.0125,0,0,0,2.335542935772413
-0.1313,0.9783,0.0466,-0.4011,0.1896,-0.0591,-1.8725,1.4962,-16.03,0,0,0,2.3449124523189497
-0.1296,0.9781,0.047,-0.4011,0.1896,-0.0591,-2.2138,1.3737,-16.135,0,0,0,2.3571023087219247
-0.1296,0.9769,0.0477,-0.4002,0.1921,-0.0571,-2.5638,1.1812,-15.9162,0,0,0,2.3692780085689633
-0.1277,0.9802,0.0501,-0.4002,0.1921,-0.0571,-2.4763,1.2425,-15.7325,0,0,0,2.3814448605685414
-0.1288,0.9778,0.0468,-0.4007,0.193,-0.0633,-2.4675,1.4612,-16.0737,0,0,0,2.393606049945745
-0.1288,0.9781,0.0464,-0.3994,0.1925,-0.0597,-2.6163,1.3912,-15.8725,0,0,0,2.4057077817880153
-0.1284,0.978,0.0467,-0.3994,0.1925,-0.0597,-2.2138,1.2425,-16.5987,0,0,0,2.4179064860384503
-0.1286,0.9786,0.0478,-0.4011,0.1915,-0.0638,-2.7037,0.98,-15.9862,0,0,0,2.4300786467465048
-0.1301,0.9772,0.0515,-0.4011,0.1915,-0.0638,-2.66,1.82,-16.5112,0,0,0,2.442260009215918
-0.1301,0.9782,0.0483,-0.3996,0.1921,-0.0559,-2.3538,1.5312,-16.5025,0,0,0,2.4544006715870132
-0.1285,0.9775,0.0481,-0.4022,0.1923,-0.059,-2.765,1.1025,-16.1963,0,0,0,2.4665657540170995
-0.1258,0.9788,0.0472,-0.4022,0.1923,-0.059,-2.555,1.0325,-16.1437,0,0,0,2.475992958529077
-0.1292,0.9762,0.0482,-0.401,0.1934,-0.0584,-2.8438,1.5137,-16.0037,0,0,0,2.4881789218791694
-0.1288,0.9801,0.048,-0.401,0.1934,-0.0566,-2.8963,1.6362,-15.6712,0,0,0,2.5002969337607666
-0.1291,0.9793,0.05,-0.3999,0.1925,-0.0566,-2.275,1.05,-16.135,0,0,0,2.512476880574586
-0.1304,0.9783,0.0473,-0.3997,0.1939,-0.0589,-2.7738,0.8487,-16.2488,0,0,0,2.524668506547053
-0.1283,0.9792,0.0511,-0.3997,0.1939,-0.0589,-2.6163,1.3387,-16.1262,0,0,0,2.536795720190009
-0.1277,0.9783,0.0489,-0.3988,0.1932,-0.0632,-2.6425,1.4,-16.0212,0,0,0,2.5488684310926097
-0.129,0.9808,0.0544,-0.3988,0.1935,-0.0584,-2.9925,0.7437,-16.3362,0,0,0,2.561098987593902
-0.1253,0.9782,0.0503,-0.4016,0.1935,-0.0584,-2.6075,1.4175,-15.4962,0,0,0,2.573260530885004
-0.1305,0.9788,0.0475,-0.4011,0.1932,-0.059,-1.8725,1.505,-15.9775,0,0,0,2.5854380003015343
-0.128,0.9769,0.0481,-0.4011,0.1932,-0.059,-2.2225,1.365,-15.8025,0,0,0,2.5976296262740015
-0.1285,0.9783,0.0467,-0.4007,0.193,-0.0558,-2.345,1.365,-15.8375,0,0,0,2.6069956036815536
-0.1283,0.9791,0.0487,-0.399,0.1927,-0.0604,-2.1788,1.295,-15.3037,0,0,0,2.6191493608668908
-0.1282,0.9768,0.0478,-0.399,0.1927,-0.0604,-2.3275,1.3825,-16.205,0,0,0,2.6313416946671544
-0.1303,0.9789,0.0479,-0.4001,0.1922,-0.0596,-2.7388,1.225,-16.4062,0,0,0,2.6435290736728403
-0.1265,0.9782,0.0511,-0.4001,0.1922,-0.0596,-2.4763,1.4525,-16.0912,0,0,0,2.6556124019923937
-0.1279,0.9773,0.0467,-0.401,0.1911,-0.057,-2.3363,1.0062,-15.8287,0,0,0,2.667775360939089
-0.1326,0.9789,0.0453,-0.401,0.1926,-0.0565,-2.1613,1.0762,-16.1612,0,0,0,2.680271706778088
-0.1274,0.9786,0.0509,-0.401,0.1926,-0.0565,-2.0125,0.8312,-15.9512,0,0,0,2.691851061706304
-0.1319,0.9785,0.0473,-0.4018,0.192,-0.0586,-2.6863,1.5837,-16.0825,0,0,0,2.70410072955811
-0.1277,0.9778,0.0475,-0.4018,0.192,-0.0586,-2.0038,1.3037,-15.6363,0,0,0,2.7162948329278658
-0.129,0.9768,0.0483,-0.3997,0.1933,-0.0574,-2.5638,1.61,-15.5925,0,0,0,2.728510878959323
-0.1326,0.9791,0.0472,-0.3998,0.193,-0.0564,-2.2488,1.3125,-15.715,0,0,0,2.7372553835612656
-0.1308,0.9784,0.0503,-0.3998,0.193,-0.0564,-2.6163,1.2512,-15.9075,0,0,0,2.749495495737815
-0.1324,0.9761,0.0456,-0.3998,0.1931,-0.0588,-2.3275,1.3825,-16.0737,0,0,0,2.7617179122194435
-0.1296,0.9793,0.0492,-0.3998,0.1931,-0.0588,-2.1,1.2163,-15.89,0,0,0,2.773956608740399
-0.1307,0.9791,0.0473,-0.4011,0.1925,-0.06,-2.31,1.015,-16.17,0,0,0,2.7866599942099683
-0.1291,0.9772,0.0517,-0.3999,0.1922,-0.0618,-2.31,1.0937,-15.8987,0,0,0,2.7989224029621176
-0.1276,0.978,0.0514,-0.3999,0.1922,-0.0618,-2.3712,1.1725,-15.5225,0.3233371638665529,-2.708724742471567,0.05625316254112828,13.3961775883316
-0.1284,0.9798,0.0498,-0.4002,0.1916,-0.059,-3.0888,1.8025,-15.8463,1.5025294158126339,-4.955439409063764,3.5915724051594062,13.401462938490473
-0.1319,0.9783,0.048,-0.4002,0.1916,-0.059,-2.415,1.5487,-15.855,1.6868044438461907,-6.246335753112538,5.1075365297973825,13.406174240306122
-0.1298,0.9773,0.049,-0.4002,0.1928,-0.0578,-1.4612,1.3562,-15.9162,2.208975246898946,-6.890639720276274,5.707237810047737,13.410999856310957
-0.1272,0.9795,0.0492,-0.4004,0.1921,-0.0578,-1.995,1.2075,-15.9862,2.344742571662775,-7.144970639012679,5.802864594077783,13.415604983957083
-0.1299,0.9769,0.0519,-0.4004,0.1921,-0.0578,-2.555,1.0412,-15.6625,2.5071741812090513,-7.31949402502986,6.206176789037881,13.42021435856999
-0.1313,0.9773,0.0467,-0.4005,0.193,-0.059,-2.3712,1.2687,-16.3975,2.5317437762123176,-7.511072061965253,6.451658723831883,13.42492530647174
-0.1288,0.9768,0.047,-0.4005,0.193,-0.059,-2.1613,1.1462,-15.6363,2.5500589152138113,-7.5078038356976755,6.536753907428812,13.43011545379194
-0.1283,0.9765,0.0495,-0.4014,0.1929,-0.0534,-2.975,1.5662,-15.68,2.697845926155071,-7.494189293011478,7.082600490028582,13.434633518619057
-0.1283,0.9797,0.0491,-0.402,0.1923,-0.0583,-2.8438,1.4612,-15.5575,2.7616022165577916,-7.478083623367729,7.52966240869919,13.439166801743804
-0.1282,0.9783,0.0463,-0.402,0.1923,-0.0583,-2.4413,1.3037,-15.8287,2.753282810558231,-7.468422896257109,7.69788327843395,13.443849436533682
-0.1283,0.9772,0.0516,-0.3992,0.1936,-0.0584,-2.1613,1.3475,-15.9337,2.7754056440367614,-7.468953388610049,7.923161982525359,13.448408909286913
-0.1294,0.9775,0.0464,-0.3992,0.1936,-0.0584,-2.5638,1.2075,-15.8463,2.7616436189223372,-7.499025933367599,7.9569587361836005,13.453260714920232
-0.1283,0.9805,0.05,-0.4003,0.1928,-0.0543,-2.4588,1.4437,-15.7762,2.7887803418460617,-7.47469746796501,8.100168854213932,13.457846731215843
-0.1299,0.9776,0.0511,-0.4009,0.1922,-0.0602,-2.1963,0.8838,-15.6538,2.799289432937679,-7.50946476757773,8.403353050542302,13.462370104751436
-0.1302,0.9779,0.0483,-0.4009,0.1922,-0.0602,-2.52,1.1812,-15.3737,2.8053007593134844,-7.528965962872243,8.406075475762837,13.467137678876933
-0.1266,0.9787,0.0499,-0.4018,0.1933,-0.0579,-2.6775,1.3037,-15.5837,2.839233894373214,-7.463733650194136,8.482474225333455,13.470070209439166
-0.1285,0.9772,0.0443,-0.4018,0.1933,-0.0579,-2.3625,1.6362,-15.715,2.8147557394408884,-7.472404471245568,8.627105548325083,13.472643163480615
-0.1291,0.9768,0.0481,-0.3998,0.1932,-0.049,-2.5375,1.3387,-15.3387,2.8157250893428736,-7.485756048002564,8.526303430962336,13.475188158324091
-0.1294,0.9787,0.0478,-0.4001,0.1919,-0.059,-2.1438,0.7788,-16.0737,2.8138304873271016,-7.505416697592403,8.72027515357522,13.477743416670618
-0.1307,0.9787,0.0486,-0.4001,0.1919,-0.059,-2.1175,0.9363,-16.31,2.8172424674643106,-7.558387896479276,8.818156790268622,13.4803092924341
-0.1288,0.9762,0.0462,-0.4022,0.1913,-0.0596,-2.8788,1.0937,-16.3275,2.7757108026269575,-7.529114002866719,8.848045980143251,13.482853225535878
-0.1278,0.9784,0.0411,-0.4022,0.1913,-0.0596,-2.4413,1.4,-15.8375,2.716455236760965,-7.485014205939103,8.888639507587602,13.485499793668197
-0.1271,0.9798,0.0509,-0.4003,0.193,-0.0606,-2.2838,1.5137,-15.89,2.7246806360509987,-7.4347103250616895,9.042934137889912,13.488139283522548
-0.1308,0.9783,0.0476,-0.4013,0.1914,-0.0576,-2.275,1.7237,-15.6625,2.726120494247845,-7.506290017171918,9.022368880687647,13.490774880324015
-0.1313,0.9761,0.049,-0.4013,0.1914,-0.0576,-2.31,1.365,-15.6975,2.734377997706124,-7.568556544517585,9.02216803254364,13.493454362448887
-0.1292,0.9783,0.0508,-0.4006,0.1912,-0.058,-2.2488,1.435,-15.9162,2.7348492935345186,-7.541359613121663,9.045803799526407,13.496002542517447
-0.1288,0.9776,0.0451,-0.4006,0.1912,-0.058,-2.3013,1.3912,-15.7937,2.7303543544208946,-7.521343590361671,9.036632529992813,13.49860310184297
-0.1273,0.9787,0.0464,-0.3994,0.1921,-0.0502,-2.5113,1.3912,-15.7587,2.7270467979997153,-7.468204963589378,8.858109837603068,13.500251278867871
-0.1285,0.9783,0.0481,-0.4004,0.192,-0.0589,-2.8087,1.3387,-15.785,2.7584693158758213,-7.47086989720719,8.90496754685106,13.501674012739485
-0.1288,0.9775,0.0528,-0.4004,0.192,-0.0589,-2.485,0.6737,-16.135,2.8217342382663766,-7.48424753704091,9.043439330473248,13.50308294396906
-0.1301,0.9764,0.0519,-0.3994,0.1922,-0.0597,-2.8612,1.05,-16.2225,2.905475296065769,-7.537382433129204,9.086311270698575,13.504495768251516
-0.131,0.9789,0.0491,-0.3994,0.1922,-0.0597,-2.0738,1.1462,-16.31,2.900359632335162,-7.580864002371943,9.094312589450801,13.50590505339499
-0.1297,0.9784,0.047,-0.4006,0.193,-0.0604,-2.1788,1.0325,-16.1963,2.890279074110982,-7.559672256647928,9.128506680756544,13.507310799399479
-0.1275,0.9775,0.047,-0.4002,0.192,-0.0578,-2.31,1.1812,-15.8725,2.882591245214592,-7.493980927341316,9.12822873797317,13.508737426323975
-0.129,0.98,0.0481,-0.4002,0.192,-0.0578,-2.6513,1.3475,-15.4612,2.8618075784082504,-7.492620088057339,9.117302935965231,13.510152728003721
-0.1277,0.978,0.0528,-0.4,0.193,-0.0594,-2.205,0.6825,-16.0912,2.8718093194031193,-7.458404008783594,9.21092267883141,13.51155812009431
-0.1301,0.9767,0.0461,-0.4,0.193,-0.0594,-2.3625,0.84,-16.1087,2.8547793760011393,-7.523189418116652,9.213351191235727,13.512974129601854
-0.1291,0.9787,0.0514,-0.4009,0.1943,-0.0618,-2.3538,0.8838,-15.68,2.868933997272562,-7.515188854313226,9.315257236741733,13.514385538228717
-0.1304,0.9787,0.0488,-0.4002,0.1914,-0.0597,-2.0125,0.8312,-15.855,2.8661606194167146,-7.5459994468222895,9.315759605302926,13.516187667799427
-0.1291,0.9794,0.0485,-0.4002,0.1914,-0.0597,-2.7125,1.2337,-15.575,2.8563107810143142,-7.528305950248097,9.315599076312925,13.517689324470386
-0.1279,0.9798,0.0491,-0.4002,0.1927,-0.0583,-2.835,1.365,-15.7325,2.860924445216034,-7.4841823009049815,9.289670183614744,13.519113827911491
-0.1285,0.9778,0.0448,-0.4002,0.1927,-0.0583,-2.135,1.365,-15.715,2.8362659376064867,-7.481935301117135,9.25034068836264,13.520528775677338
-0.1308,0.9779,0.0474,-0.4019,0.1922,-0.0594,-2.345,1.3387,-15.6275,2.83099273781717,-7.533591509479219,9.244468053086267,13.521949386065561
-0.1297,0.9772,0.0528,-0.401,0.1926,-0.0599,-2.6688,0.945,-15.6975,2.908169094703228,-7.540439058274584,9.280931370970137,13.52335088510327
-0.1324,0.9787,0.0478,-0.401,0.1926,-0.0599,-2.4675,1.2512,-15.8112,2.888211534731913,-7.612151494903199,9.282182183526453,13.524768664180304
-0.1278,0.9784,0.0498,-0.4013,0.1918,-0.0592,-2.5638,1.5575,-15.6363,2.8943135629018855,-7.538869665743051,9.27677069451567,13.526292263512964
-0.1266,0.9775,0.0478,-0.4013,0.1918,-0.0592,-1.9075,1.0412,-15.9687,2.8700957871281307,-7.453982637835888,9.269384234475837,13.527737647874075
-0.1293,0.978,0.0492,-0.3986,0.1938,-0.0619,-2.8525,1.19,-16.03,2.8737926554394866,-7.489286574535397,9.27396338184083,13.529174184387726
-0.1299,0.9792,0.0509,-0.4007,0.1921,-0.0602,-2.5113,1.1725,-16.0562,2.894838978609216,-7.519427760411229,9.274870094990563,13.53060788959019
-0.13,0.9755,0.0467,-0.4007,0.1921,-0.0602,-2.6775,0.98,-15.6712,2.8487739471500415,-7.545779001483234,9.283180356393187,13.531907815339054
-0.1334,0.9826,0.0484,-0.4009,0.1918,-0.0582,-2.2838,1.4262,-16.2575,2.847852467974673,-7.645748227983123,9.243456063688473,13.53314934529468
-0.1249,0.978,0.0508,-0.4009,0.1918,-0.0582,-2.1525,1.1025,-15.8987,2.8590899152686906,-7.461707674110741,9.238506180637284,13.534384858714033
-0.131,0.9781,0.0465,-0.4003,0.194,-0.0556,-1.6187,1.1638,-15.7587,2.805941883671206,-7.5325376088432066,9.231086043398248,13.535606569491348
-0.1299,0.9783,0.0472,-0.4019,0.193,-0.0589,-2.0475,1.2425,-15.8025,2.798552994180284,-7.542833238099429,9.225707482270158,13.536817308937813
-0.1317,0.9797,0.0456,-0.4019,0.193,-0.0589,-2.3275,1.3475,-15.8812,2.7890301583585444,-7.593662647297,9.206700099590336,13.538033003178855
-0.1288,0.9789,0.0465,-0.4003,0.193,-0.061,-2.1875,1.5487,-16.0475,2.7849001044025554,-7.537990989123527,9.26924964642212,13.539250820903288
-0.1277,0.9789,0.0519,-0.4003,0.193,-0.061,-2.4413,1.82,-15.9162,2.824908225198299,-7.480980840312235,9.39098079287458,13.54045979078026
-0.1277,0.975,0.0481,-0.4014,0.1934,-0.0581,-2.6163,1.6275,-15.7237,2.82474596178252,-7.468688412373939,9.29483077041862,13.541691411146731
-0.1297,0.9757,0.045,-0.4011,0.192,-0.0589,-2.415,1.3125,-15.715,2.7987788635896553,-7.510061921899742,9.271938113964145,13.54291701497693
-0.1262,0.9796,0.0432,-0.4011,0.192,-0.0589,-2.4938,0.7613,-15.6538,2.745270476767749,-7.437137605480309,9.210139910398471,13.544124215284409
-0.1326,0.9809,0.0479,-0.401,0.1916,-0.0602,-2.0388,1.0937,-15.33,2.754088635796477,-7.506936377307664,9.219922491821034,13.54534451040613
-0.1269,0.9734,0.0528,-0.401,0.1916,-0.0608,-2.5463,1.3475,-15.8638,2.834098576572711,-7.463872597465935,9.26968925018384,13.546576838600398
-0.131,0.9739,0.0443,-0.4014,0.192,-0.0608,-2.5113,0.84,-15.9425,2.7866319379618743,-7.558225143431251,9.28378293894823,13.54779465632483
-0.1311,0.978,0.0463,-0.3999,0.1934,-0.0598,-1.5837,1.435,-15.575,2.7561458331100583,-7.584534305032217,9.282631278476572,13.549004687943498
-0.1287,0.9782,0.0472,-0.3999,0.1934,-0.0598,-2.1263,0.8575,-15.5225,2.756847830609781,-7.5488131684451565,9.288892601595077,13.550223567409626
-0.1272,0.977,0.0476,-0.401,0.1918,-0.0569,-2.1,1.3037,-15.6363,2.7610969944013872,-7.49188360565402,9.246796258319014,13.551443862531348
-0.131,0.98,0.0503,-0.401,0.193,-0.0572,-2.5813,1.085,-15.9687,2.8050953718723597,-7.548466023066672,9.226696960058403,13.55265530980561
-0.1286,0.9784,0.0479,-0.4016,0.193,-0.0572,-2.8788,1.3212,-15.6275,2.8042173263331764,-7.520410255529492,9.191528637128739,13.553873127530043
-0.1296,0.9765,0.05,-0.4019,0.1935,-0.0593,-1.9337,1.4525,-16.0387,2.834781167781233,-7.535990211915969,9.208669315677412,13.555091653082272
-0.129,0.9787,0.0476,-0.4019,0.1935,-0.0593,-2.59,1.19,-16.1963,2.822030079459129,-7.515988218273564,9.208673144711696,13.556302746442634
-0.1318,0.9794,0.0453,-0.401,0.191,-0.062,-2.0913,0.9187,-16.1788,2.79812078898981,-7.5933956144817625,9.270423600204472,13.557509946750114
-0.1278,0.9789,0.0464,-0.4036,0.1926,-0.0648,-2.3363,1.1112,-15.5487,2.7914777576865997,-7.532042944764067,9.307776614629605,13.558745460169469
-0.1258,0.9769,0.0496,-0.4036,0.1926,-0.0648,-2.3538,0.7962,-15.8812,2.802227274895996,-7.433798276738198,9.486358332723851,13.55995903092712
-0.1286,0.9792,0.0534,-0.4007,0.193,-0.0586,-2.3625,1.1112,-15.75,2.834310551885998,-7.450336539527343,9.474026018432355,13.561163046009515
-0.1294,0.9783,0.0515,-0.4007,0.193,-0.0586,-2.3363,1.4,-15.5225,2.848419394356741,-7.477395006049828,9.431557021522785,13.562450584771934
-0.1319,0.9767,0.0426,-0.4012,0.193,-0.058,-2.4413,1.2075,-15.5837,2.792253330361262,-7.5576358116624665,9.416904688284674,13.563691052985865
-0.1292,0.9776,0.047,-0.4008,0.1912,-0.0563,-2.695,1.1462,-15.575,2.780021380036668,-7.543137683623243,9.39805854292922,13.564936829908273
-0.1261,0.9798,0.0491,-0.4008,0.1912,-0.0563,-2.6338,1.1287,-16.17,2.8046139929974117,-7.42292082225364,9.373192242602256,13.566179067691696
-0.1277,0.9784,0.0481,-0.4026,0.1915,-0.0586,-2.17,0.9275,-15.9075,2.805353162035279,-7.425062698690897,9.320699825506065,13.567400778469011
-0.1308,0.9772,0.0432,-0.4026,0.1915,-0.0586,-2.8612,1.155,-15.575,2.7014678140292347,-7.498832079432527,9.31288943491098,13.56860833269039
-0.131,0.9776,0.0498,-0.4022,0.1926,-0.0586,-2.625,1.4787,-16.275,2.7599389276604005,-7.569353314491864,9.277309814472986,13.569817302567362
-0.1317,0.978,0.0504,-0.3999,0.1945,-0.0606,-2.1963,1.4875,-15.4,2.7697619055557587,-7.597391592970775,9.328139184811802,13.5711009482769
-0.1303,0.9764,0.0479,-0.3999,0.1945,-0.0606,-2.5638,0.9975,-15.4263,2.7790090764180646,-7.595696835843971,9.344221815695551,13.572320889484724
-0.1266,0.9787,0.0454,-0.3998,0.1924,-0.0592,-1.9425,1.2687,-15.8725,2.750008311699609,-7.4837909525411375,9.331172234954105,13.573530213275594
-0.1299,0.9795,0.0486,-0.3998,0.1924,-0.0592,-2.38,1.1725,-15.82,2.7603660681379814,-7.512412445905318,9.330752438194017,13.57475157013901
-0.1286,0.9775,0.0511,-0.4011,0.1918,-0.0573,-2.205,1.3562,-15.995,2.770527819630594,-7.498233822582797,9.287965288369605,13.57597009569124
-0.1302,0.9773,0.0492,-0.4022,0.1918,-0.061,-2.66,0.9713,-15.9425,2.802896576781574,-7.538512826230441,9.317313334693035,13.577260819678745
-0.1311,0.9804,0.0507,-0.4022,0.1918,-0.061,-2.8175,1.05,-15.8638,2.8598449605073317,-7.570973611699786,9.337165516255135,13.578541987990993
-0.1251,0.9761,0.0457,-0.4002,0.1915,-0.059,-2.2488,1.1112,-15.9425,2.8594901659925287,-7.433606038614408,9.326200928640695,13.579781748377128
-0.1282,0.978,0.047,-0.4002,0.1915,-0.059,-2.2488,1.015,-16.2488,2.8592761709413828,-7.448223045786808,9.306474438733826,13.580997088704272
-0.1294,0.9786,0.0502,-0.401,0.1933,-0.0571,-2.275,0.4812,-16.135,2.8611037807541138,-7.488661730720819,9.181673363785537,13.582221984706672
-0.1325,0.9796,0.0443,-0.4018,0.1938,-0.0592,-2.45,1.295,-15.6012,2.8159504635102666,-7.570297554502621,9.173435527528211,13.583445111139582
-0.131,0.9788,0.0458,-0.4018,0.1938,-0.0592,-2.7037,1.3212,-15.785,2.773268155066576,-7.590566526794668,9.170076993949111,13.584654434930453
-0.1307,0.9775,0.0472,-0.4004,0.1942,-0.0586,-2.3712,1.0412,-15.4612,2.7723217463710625,-7.596140211491873,9.166027159664498,13.585863050893527
-0.1302,0.9791,0.053,-0.4004,0.1942,-0.0586,-2.31,1.1375,-15.47,2.7905557189663726,-7.5850359248474115,9.17077682220286,13.58708086861796
-0.1304,0.9789,0.0562,-0.4031,0.1923,-0.0598,-2.1525,1.4525,-15.9075,2.834876116536972,-7.5803238971016915,9.233051095066946,13.588298332428494
-0.1316,0.9745,0.0465,-0.4019,0.1922,-0.0614,-2.5375,1.1725,-15.9862,2.8119296365490474,-7.632251105340949,9.234304387178621,13.589507302305465
-0.1322,0.9811,0.0499,-0.4019,0.1922,-0.0614,-2.6863,1.1987,-15.7675,2.8421767015943966,-7.646733941433175,9.240169196579034,13.590724766116
-0.1283,0.977,0.04,-0.4012,0.1924,-0.0589,-2.7388,1.295,-15.8375,2.678948079917576,-7.565934599012602,9.212397947230569,13.591953555171283
-0.1251,0.9773,0.0484,-0.4012,0.1924,-0.0589,-2.4763,1.0587,-16.0825,2.707703282075004,-7.416978124255838,9.21110034865012,13.59319083816013
-0.1239,0.9808,0.0467,-0.4001,0.1914,-0.0521,-2.555,0.8312,-15.8812,2.7119789104537326,-7.308236326534899,8.969053395608693,13.594412902851342
-0.1344,0.9843,0.0524,-0.4001,0.192,-0.0598,-3.0363,1.0062,-16.2575,2.8595039323138978,-7.566908145832362,9.033825595670876,13.59564310756222
-0.1282,0.9779,0.0486,-0.4001,0.192,-0.0598,-2.555,1.05,-16.135,2.8561590120672826,-7.508678156558213,9.068296906377803,13.596853493094786
-0.1283,0.9662,0.0462,-0.3994,0.1923,-0.0577,-2.275,1.365,-16.0912,2.8533552961293362,-7.533612591119811,9.061031202283317,13.598060339488368
-0.1269,0.9867,0.0429,-0.3994,0.1923,-0.0577,-2.4938,1.365,-15.7325,2.782229831591044,-7.440478720927755,9.03947036858059,13.599282050265684
-0.1244,0.9868,0.0445,-0.4006,0.193,-0.0547,-2.4063,1.435,-15.9337,2.755284103946195,-7.310090845834675,8.939717452641908,13.600522164565715
-0.1282,0.9811,0.0436,-0.3996,0.1925,-0.0579,-2.3712,1.4787,-16.2838,2.7326349206675835,-7.382887073747176,8.945701274702222,13.60173962837625
-0.1297,0.9756,0.0564,-0.3996,0.1925,-0.0579,-2.31,1.4262,-16.0212,2.7648361423767267,-7.474695658856194,9.015462204322194,13.602966293948143
-0.1347,0.9768,0.0508,-0.4011,0.1926,-0.059,-2.625,1.225,-15.9075,2.8226312076475195,-7.654097166222018,9.02594852780622,13.604190128208849
-0.1289,0.9756,0.0499,-0.4011,0.1926,-0.059,-2.5638,1.3475,-15.4088,2.847753873632261,-7.610794126160827,9.057705540028287,13.605400867655314
-0.1253,0.9798,0.0427,-0.402,0.1922,-0.0604,-1.8637,1.3125,-15.6012,2.7494221703612505,-7.480395125654065,9.078265711204626,13.606605944479403
-0.1276,0.9822,0.0418,-0.4007,0.1946,-0.0596,-2.1525,1.1987,-16.1875,2.7214548733996695,-7.433329222154777,9.079270322306042,13.607834733534688
-0.1365,0.9692,0.053,-0.4007,0.1946,-0.0596,-2.0038,1.3475,-16.1087,2.802385155842159,-7.740364597144407,9.126495250195417,13.609370365939894
-0.1466,0.9507,0.0628,-0.4,0.1917,-0.0598,-1.8987,1.1287,-15.2163,3.056767245196045,-7.9534071053374085,9.152735249215338,13.614093700828088
-0.1573,0.9743,0.0788,-0.4,0.1917,-0.0598,-1.155,1.2425,-15.155,3.876163843698654,-8.157265859159113,9.20544417261658,13.61532956816134
-0.2136,0.9991,0.1042,-0.4011,0.1913,-0.0678,-0.35,0.84,-12.9675,5.237745765336957,-10.713694570492924,9.77596672170896,13.616562604183404
-0.2318,0.8461,0.0524,-0.402,0.1927,-0.0598,1.9075,-4.6988,-14.8925,3.872250561098056,-10.954300898850459,9.363820252054332,13.617782191477328
-0.1679,0.9335,0.1243,-0.402,0.1927,-0.0598,6.0725,-6.7725,-12.6612,7.186412589426127,-10.366104898609036,10.993102188581624,13.619007795307526
-0.1903,0.9019,0.1236,-0.4034,0.1948,-0.061,8.6363,-7.805,-8.4787,7.751527005241732,-11.614408242514545,11.318508667727816,13.620215703442804
-0.2973,0.9696,0.1409,-0.4034,0.1948,-0.061,11.6812,-11.0513,-6.0725,8.233609460091689,-16.34643223848813,11.36736066884097,13.62144378467029
-0.3166,0.8755,0.1693,-0.4032,0.1954,-0.0654,14.8137,-17.5788,-1.2775,10.79443117741172,-19.328958068739695,12.885393292296564,13.622675051122863
-0.2029,0.8472,0.0474,-0.4076,0.1943,-0.0669,25.2525,-24.7187,0.6913,3.468663221897177,-13.801528112088464,10.100860432546163,13.623916934992387
-0.1717,0.8415,0.07,-0.4076,0.1943,-0.0669,35.8312,-24.6225,13.51,4.722270674088121,-11.572059160981713,10.704824753840345,13.625240926886343
-0.1421,0.8955,0.0569,-0.4118,0.1966,-0.0715,40.74,-23.2838,19.7313,3.6603821782636823,-9.070920383769396,10.858976942709912,13.62697015019398
-0.0653,0.9454,0.0191,-0.4118,0.1966,-0.0715,45.2638,-21.1837,21.0438,1.2089867455881353,-4.088837301488787,10.117909548845896,13.628220527997067
-0.0074,1.1478,0.0413,-0.4173,0.1992,-0.0717,51.3625,-21.07,26.5037,2.045125011767987,-0.4567703087896747,10.64072631312807,13.629455333588623
0.0727,1.1239,0.0076,-0.4226,0.2034,-0.0858,51.73,-11.7862,16.31,0.4175880529355257,3.5720736236095116,11.942144117247661,13.630686600041196
0.311,0.6085,-0.2253,-0.4226,0.2034,-0.0858,47.2062,-3.7975,13.2125,-19.906367792637177,24.85247127569589,3.6400850924497012,13.63191291169919
0.2586,0.7274,-0.3234,-0.4259,0.2036,-0.0877,50.9863,7.9187,-1.8987,-23.89487716529696,18.484548695658127,0.08830065622152097,13.633126482456841
0.116,1.2119,-0.2666,-0.4259,0.2036,-0.0877,52.7275,21.6562,-12.0312,-12.611834086755316,8.696438089424033,5.653684132493011,13.634356333253821
0.3867,0.8951,-0.3109,-0.4268,0.2064,-0.0937,59.2638,27.2038,-33.495,-19.049279841167692,21.50964171277236,3.9057712295332587,13.635591492759275
-0.0354,1.0881,-0.0825,-0.4276,0.2091,-0.1055,53.69,28.2712,-21.7175,-4.594281915114967,1.149541116772466,11.353099629141854,13.636845409701346
-0.0774,0.9453,-0.1373,-0.4276,0.2091,-0.1055,41.335,29.1637,-6.5713,-8.181819497699983,-4.015833265594002,9.567029606778956,13.63807879963731
-0.1038,1.018,-0.1215,-0.4282,0.2101,-0.111,39.4188,24.4913,-11.7075,-6.838391368653078,-5.364939676951935,10.724355370005114,13.639323160904123
-0.0747,0.9032,-0.1332,-0.4307,0.2138,-0.1102,38.3775,26.8362,-10.465,-8.35200592971888,-4.802939514191156,9.891473311622642,13.640758635676079
-0.0593,0.9593,-0.1482,-0.4307,0.2138,-0.1102,39.2088,31.535,-13.72,-8.771935195557674,-4.082566860633643,9.755184602258414,13.642020338723913
-0.1068,1.0023,-0.1213,-0.433,0.216,-0.1186,37.5812,40.2238,-16.4325,-6.946304983087696,-5.251240366712954,11.372528490594007,13.6432710704409
-0.1234,1.0338,-0.117,-0.433,0.216,-0.1186,34.23,39.4712,-17.0275,-6.470013861894715,-6.272874386762476,11.568630197543476,13.64451613953551
-0.1125,1.0333,-0.1151,-0.4342,0.2193,-0.1251,28.805,36.4612,-15.26,-6.359570879237628,-6.249757730674854,12.337448172175312,13.645753068610457
-0.1022,1.0439,-0.1442,-0.4406,0.2202,-0.1242,23.3625,30.485,-13.9562,-7.808267834680844,-5.895994509783856,11.419194739016344,13.646993536824388
-0.0916,1.0233,-0.1473,-0.4406,0.2202,-0.1242,18.4625,25.2875,-10.815,-8.173597907293214,-5.2254827550602405,11.270980687945132,13.64823612852171
-0.0989,1.0193,-0.1471,-0.4382,0.2214,-0.1245,15.5137,21.035,-8.6975,-8.209885954110627,-5.449582387013883,11.288823661624253,13.649457131471227
-0.1021,1.0199,-0.1489,-0.4382,0.2232,-0.1299,12.7137,16.5725,-6.2825,-8.30016525107497,-5.635661456608762,11.79792777033804,13.650682027473628
-0.0906,1.0076,-0.1513,-0.4406,0.2232,-0.1299,9.9137,12.8712,-4.2875,-8.52147062845445,-5.128899151524661,11.710831755606128,13.651888166039413
-0.0769,1.0158,-0.1523,-0.4431,0.2234,-0.1294,8.0062,9.1087,-2.6163,-8.52642145368957,-4.345136731564005,11.661664016584185,13.653076608910277
-0.0765,1.0081,-0.1444,-0.4431,0.2234,-0.1294,3.395,3.7538,2.0825,-8.207987140753605,-4.298641448783862,11.792267865896024,13.6542523108808
-0.1018,1.1089,-0.1055,-0.4453,0.2255,-0.1322,2.3712,-0.2538,5.7312,-5.928013019843457,-5.179175790878513,12.702180333184929,13.655477914710998
-0.1743,1.2662,-0.1053,-0.4453,0.2255,-0.1268,1.9337,-8.995,23.1875,-4.980370755930938,-7.743962849380042,12.810197609410913,13.656724045547303
-0.0477,0.97,-0.1707,-0.4522,0.2246,-0.1268,-5.5213,-11.095,35.4113,-8.809791778849574,-2.86952166634894,10.680876761896293,13.65798327119785
0.0573,1.0023,-0.273,-0.4587,0.2262,-0.1306,-8.19,-11.5675,21.7087,-14.310145275255165,2.9971386157328954,8.68135346804579,13.659217722875509
0.0533,0.9604,-0.2215,-0.4587,0.2262,-0.1306,-10.7012,-6.0813,21.6212,-13.127196583773896,3.0928150133960672,9.624797741358435,13.660455359778252
0.0251,0.969,-0.2205,-0.462,0.2258,-0.1242,-12.145,-2.835,22.3738,-12.847834047444572,1.4897820567300828,9.011008745234287,13.66170290627015
0.0035,1.0056,-0.1933,-0.472,0.228,-0.1263,-12.2325,-1.9512,20.265,-11.059989716066568,0.2315642050024355,9.57389906949523,13.662931341411536
-0.0183,0.9984,-0.1515,-0.472,0.228,-0.1263,-14.6562,-1.8112,22.8987,-8.809786456332095,-1.0055070921164961,10.474938205878715,13.664176056592249
-0.0289,1.0358,-0.133,-0.4707,0.2266,-0.1269,-15.5312,-3.675,26.1625,-7.42146177335644,-1.5714292865779096,11.317528439180233,13.66542324917025
0.0079,0.962,-0.1495,-0.4707,0.2266,-0.1269,-18.3487,-1.4525,30.765,-8.750834248128816,0.42133234545561676,11.043896096569744,13.666646375603158
0.0382,0.9756,-0.1737,-0.4775,0.23,-0.1246,-22.68,0.14,28.6125,-10.032654515609657,2.1675243695801627,10.506523952514092,13.667845081977077
0.0623,0.9268,-0.1709,-0.4842,0.2272,-0.1236,-21.5862,1.9862,29.3825,-10.427442105222081,3.746477014492276,10.174701064810288,13.66906042230422
0.0719,0.978,-0.1566,-0.4842,0.2272,-0.1236,-17.8587,0.805,28.6562,-9.17723245953873,4.142879158656121,10.259575915256741,13.670281425253739
0.0618,0.9564,-0.1608,-0.4905,0.2302,-0.1215,-13.7987,-1.7587,33.4425,-9.514684932973825,3.65618313495779,9.900325245112654,13.671605417147696
0.0401,1.0207,-0.1153,-0.4905,0.2302,-0.1215,-8.8725,-4.2175,39.3662,-6.847674966467235,2.26128698850599,10.969421568585185,13.672837037514165
0.0489,1.0106,-0.1221,-0.4971,0.2355,-0.123,-4.3488,-8.0412,45.675,-6.875691852315859,2.742311770364789,10.962830071156743,13.674064410913855
0.086,0.9113,-0.16,-0.5031,0.2351,-0.1219,-2.5988,-11.1475,49.525,-7.6714803382613,5.271101179684714,9.554936236177902,13.675367167973906
0.1369,0.9482,-0.1979,-0.5031,0.2351,-0.1219,0.315,-11.6287,51.5112,-10.63429739727836,8.003411728726403,8.82139826101764,13.676603743134955
0.1608,0.9171,-0.2216,-0.5138,0.2402,-0.1233,4.025,-11.0513,53.97,-13.178649022596371,9.648152757478186,7.887668393744965,13.67783005479295
0.1675,0.9007,-0.2303,-0.5138,0.2402,-0.1233,8.3037,-10.9637,55.4487,-14.241925381856733,10.205500762857255,7.476064513746764,13.679044687292297
0.1765,0.8915,-0.2249,-0.5255,0.2438,-0.1346,13.2212,-17.675,58.8263,-14.163721480744975,10.8578416362146,8.601121443695908,13.680261797188933
0.1616,0.8701,-0.2353,-0.5337,0.2475,-0.1294,15.89,-20.0287,56.14,-15.081854146181623,10.173947885925788,7.2651648745397654,13.681495187124895
0.209,0.8481,-0.2637,-0.5337,0.2475,-0.1294,19.1887,-23.5462,52.7625,-17.174448476657933,13.197299902750878,6.2986381730946555,13.682722560524585
0.1631,0.8308,-0.2602,-0.5389,0.2545,-0.1339,21.6125,-29.1812,50.085,-17.38146889014006,10.650160039724534,6.183888141893042,13.683988156625304
0.1654,0.8397,-0.3124,-0.5389,0.2545,-0.1339,23.5987,-37.7912,50.3737,-20.294406656774274,10.462632254485923,4.440257471585268,13.685222608302961
0.0836,0.8125,-0.2201,-0.5434,0.2606,-0.1426,28.6825,-43.6625,49.4813,-15.318088682373311,5.744836262306809,7.655625864828681,13.686469800880962
0.2675,0.9385,-0.3161,-0.5476,0.2672,-0.1491,35.7262,-51.4412,42.0262,-18.529682274832894,14.954295152635943,7.102376152280973,13.687700713419636
0.3124,1.0155,-0.3888,-0.5476,0.2672,-0.1491,50.5312,-56.0962,25.6637,-20.90511857392485,16.00325435777081,5.663425112897489,13.688938704236278
0.256,0.9199,-0.147,-0.5485,0.2715,-0.1546,39.5325,-50.7762,29.0937,-9.355518990718718,15.379990133687706,13.522901894747205,13.690177402880717
-0.0099,0.9604,0.1639,-0.1189,0.1513,0.0793,-2.7913,2.3888,-16.8962,-2.6749340685143403,4.831946468209225,6.8172442297841815,13.691706664835753
-0.0099,0.9604,0.1639,-0.1189,0.1513,0.0793,-2.7913,2.3888,-16.8962,1.6616522347879747,1.254209996010185,16.019035772489822,13.693802542942143
-0.0112,0.9637,0.1633,-0.1189,0.1513,0.0793,-2.3013,2.905,-16.765,2.0442298504144416,0.021769614406897123,20.858033654405247,13.695011512819116
-0.0064,0.9661,0.1659,-0.1186,0.153,0.08,-2.6163,3.1325,-16.73,4.105244723914659,-0.23179226391679192,22.849348824947214,13.69620668005405
-0.014,0.9636,0.1632,-0.1183,0.1523,0.0826,-3.08,3.0538,-16.3362,6.601861631721296,-0.5741125358967485,24.189555380361952,13.697408217739156
-0.0125,0.9573,0.1716,-0.1183,0.1523,0.0826,-2.73,3.0538,-16.6075,7.755414247974846,-0.6753572959688598,24.278977035589673,13.698614002391043
-0.0127,0.9543,0.1666,-0.1176,0.1527,0.0822,-2.2488,3.1763,-16.5375,7.759664078544033,-0.72185006475873,24.46388043963587,13.699808815712078
-0.016,0.9542,0.1612,-0.1176,0.1527,0.0822,-1.505,2.8263,-16.8875,8.541079747671738,-0.8705548881132424,24.680175631656013,13.701012122966677
-0.0148,0.9569,0.1638,-0.1167,0.1512,0.0872,-1.0412,2.7738,-16.8437,9.182957507390125,-0.8724169497260279,26.038647415500364,13.702325143529782
-0.0154,0.9583,0.166,-0.1178,0.1513,0.0806,-0.4462,2.5025,-16.87,9.597650096469957,-0.8952723977144724,24.878054746611227,13.703555702154556
-0.0148,0.9611,0.1575,-0.1178,0.1513,0.0806,-0.2362,2.4413,-16.5725,9.40315349088422,-0.8800119736137472,24.726170717915576,13.704759363323053
-0.0195,0.9645,0.1582,-0.1186,0.1534,0.0806,-0.0088,2.0475,-16.66,9.342102415037676,-1.0460069527533484,24.47122850767075,13.705955238385785
-0.0228,0.9676,0.1577,-0.1186,0.1534,0.0806,-0.3413,2.4237,-16.765,9.286060001854532,-1.2306485484589582,24.29285508273595,13.707148636051228
-0.0246,0.9683,0.1529,-0.1154,0.1547,0.0902,-0.6388,1.8987,-16.9312,9.092999909601755,-1.3681640868534264,26.06327354208007,13.708340264147177
-0.0223,0.9696,0.1497,-0.1184,0.1541,0.0811,-0.6475,1.5225,-17.36,8.898261281520522,-1.3214626251021326,25.76095004010456,13.709530122673636
-0.0213,0.9712,0.1552,-0.1184,0.1541,0.0811,-0.91,1.2075,-17.3162,9.001920131343539,-1.2646440664635894,25.727363027497493,13.710744401259085
-0.0168,0.9739,0.1494,-0.1168,0.154,0.0792,-1.0325,0.4987,-17.0713,8.847860352508041,-1.0689878789414762,25.300649719580758,13.711940630235715
-0.0123,0.9719,0.1493,-0.1168,0.154,0.0792,-1.5312,0.49,-17.3337,8.799927276470044,-0.8207286746197628,25.09408475645808,13.713133673987258
-0.0068,0.9724,0.1512,-0.1174,0.1538,0.0833,-1.6275,0.77,-17.5,8.814636036920033,-0.5155054348267648,25.454573192542323,13.714326717738802
-0.0038,0.9738,0.1485,-0.1164,0.1522,0.0823,-2.4325,0.6825,-17.2987,8.792478271269585,-0.3089104203627182,25.80984243528726,13.715522592801532
0.0006,0.9781,0.143,-0.1164,0.1522,0.0823,-3.5525,1.4612,-17.3512,8.524037485006927,-0.06621082035175768,26.085870833886514,13.716699002599851
-0.0001,0.9942,0.1466,-0.1146,0.1522,0.0808,-4.3838,2.3275,-17.36,8.431500303805844,-0.02343543047188271,26.432826017394376,13.717905495079535
-0.0024,0.9938,0.1398,-0.1146,0.1522,0.0808,-4.69,3.4475,-17.4825,8.130698095529938,-0.10488331299912758,26.887373333001168,13.719107032764642
-0.0004,0.9798,0.1426,-0.1167,0.1542,0.0819,-6.265,4.2,-16.8175,8.250770464433769,-0.05163102936979888,26.779087572793298,13.72030573913856
0.0011,0.9741,0.143,-0.1167,0.1546,0.0799,-7.7962,5.2937,-16.975,8.336103960315745,0.025810719473602414,26.07844962145717,13.72148816547315
0.0019,0.9609,0.157,-0.1163,0.1546,0.0799,-7.9888,5.7225,-16.9925,9.139468892448955,0.08356229370753104,25.14266797461566,13.72266705266876
-0.0021,0.9563,0.1534,-0.1143,0.153,0.0805,-7.7788,6.0637,-17.6925,9.117203285304674,-0.06873879454938751,25.62929880994259,13.723862573817591
-0.0142,0.9498,0.1632,-0.1143,0.153,0.0805,-7.1925,6.9475,-18.7162,9.64323184826303,-0.6815447773278518,24.74987427300498,13.725076144575244
-0.0186,0.9509,0.1638,-0.1163,0.155,0.0821,-6.2125,7.7088,-18.4975,9.747429368362987,-1.0113978252209228,24.581633393287415,13.72627343529357
-0.022,0.9511,0.1628,-0.1163,0.155,0.0821,-5.5125,7.56,-18.55,9.721230523201285,-1.2420548704964147,24.529480713309805,13.729660391301364
-0.0204,0.9539,0.1685,-0.1142,0.155,0.0793,-5.145,7.7788,-17.9288,9.941475471231,-1.2154031591832217,23.621398711772823,13.738179452750018
-0.0206,0.9554,0.1695,-0.1146,0.1547,0.082,-4.62,7.21,-17.4125,10.025042635758226,-1.2159799209164863,24.336808765704834,13.750407177940122
-0.0256,0.9519,0.171,-0.1146,0.1547,0.082,-4.795,7.5687,-17.0713,10.139174046523413,-1.420117974704809,24.179402711319337,13.762682681506513
-0.0261,0.9493,0.1732,-0.1142,0.1551,0.0812,-3.675,7.3063,-16.905,10.257098045730672,-1.5056316511972339,23.748801529947965,13.775716622557198
-0.0289,0.9568,0.1674,-0.1142,0.1551,0.0812,-3.9113,6.9125,-16.7562,10.049151412174783,-1.6334995156211334,24.03927793781338,13.787757481208942
-0.0281,0.9648,0.1694,-0.116,0.1545,0.0817,-3.9638,6.475,-16.5987,9.991920055260127,-1.6395144077096793,24.00696238110558,13.799825237316965
-0.0279,0.972,0.1717,-0.1144,0.1541,0.0827,-3.7188,5.6613,-16.6338,10.007273041976115,-1.626698431906673,24.53357855660874,13.811933693523304
-0.0457,0.9643,0.1708,-0.1144,0.1541,0.0827,-4.0862,5.5213,-16.7388,10.031205029011314,-2.2973248777313557,24.172684398011576,13.824043919299138
-0.0403,0.9552,0.1725,-0.1141,0.1523,0.0807,-3.4913,5.6087,-16.8962,10.145003969657314,-2.3502866627517105,23.56458075728829,13.833440687215852
-0.0459,0.9512,0.172,-0.1141,0.1523,0.0807,-2.3538,5.0838,-17.22,10.154783014518285,-2.606060360443326,23.31393277357175,13.845507381582179
-0.0463,0.9531,0.1696,-0.117,0.1551,0.0868,-2.5113,3.5,-17.2725,10.141377772897474,-2.6984528808301484,24.505279960823465,13.857601681232584
-0.0459,0.9603,0.172,-0.1135,0.1536,0.0799,-1.2075,2.94,-17.3075,10.14813491127279,-2.69512433769452,23.58240290585109,13.8697154461474
-0.0389,0.9692,0.1743,-0.1135,0.1536,0.0799,-1.715,1.7587,-16.7388,10.164498764990402,-2.4172905089139407,23.448834427949773,13.881834873684591
-0.0334,0.972,0.1656,-0.1125,0.1554,0.0806,-1.6712,1.2163,-17.3687,9.98256802813606,-2.079597430479701,23.480554950572234,13.893916078520753
-0.0316,0.9729,0.1699,-0.1125,0.1554,0.0806,-1.925,1.1638,-17.955,9.963707859689093,-1.8942484791828147,23.489313027928702,13.90602771995218
-0.0315,0.9675,0.1718,-0.1139,0.1533,0.0842,-2.94,0.8925,-17.5088,10.00671555245106,-1.8524176224770743,23.872518994590788,13.915399713896004
-0.0337,0.9643,0.1672,-0.113,0.1537,0.0801,-2.8788,0.9187,-17.675,9.941137748253428,-1.940013880536414,23.88658434568315,13.92754710063117
-0.0336,0.9607,0.1695,-0.113,0.1537,0.0801,-2.905,1.2425,-18.2087,9.966765407331224,-1.9649762260857062,23.877890927157896,13.939683869949384
-0.0271,0.9597,0.1735,-0.1118,0.1562,0.0813,-3.2462,0.8487,-18.1737,10.106845308067808,-1.6800334351439372,23.946576596345544,13.95187337243846
-0.0295,0.9633,0.1675,-0.1118,0.1562,0.0813,-2.8438,1.0412,-17.7712,10.016462198948057,-1.7155700965506466,24.01850903740699,13.963816550854242
-0.0281,0.9643,0.1686,-0.1115,0.157,0.0798,-3.0538,1.2862,-17.465,9.972366263167585,-1.6645040737638084,24.00844394796257,13.976118244049115
-0.0309,0.9626,0.1696,-0.113,0.1574,0.0779,-2.9925,1.2775,-17.78,9.980880480666501,-1.7725669855466957,23.887949540604343,13.988068500742866
-0.0301,0.9578,0.1679,-0.113,0.1574,0.0779,-2.8438,1.7062,-17.2987,9.966699723411288,-1.7728553399856468,23.495441049366228,14.000070074951886
-0.0282,0.9526,0.1722,-0.1127,0.1566,0.0804,-2.3888,2.0913,-16.8175,10.000647270781267,-1.7049412251972704,23.52618294827067,14.009531963025907
-0.0262,0.9536,0.1698,-0.1127,0.1566,0.0804,-2.1175,2.3538,-16.5112,10.011907076457375,-1.610103660314048,23.675689028961006,14.021625908762413
-0.0273,0.9575,0.1656,-0.1115,0.1567,0.0826,-2.2225,2.4588,-16.835,10.006415813559979,-1.6095668273845418,24.534532305822523,14.033738258021636
-0.0257,0.9606,0.1678,-0.1115,0.1567,0.0621,-1.61,3.0013,-17.0538,9.968212652113841,-1.5418428224431604,19.31819394138628,14.045853792505945
-0.0245,0.9619,0.1675,-0.111,0.1567,0.0801,-1.715,3.3513,-17.6925,9.936783723057625,-1.4653001512736368,22.736524193897857,14.057905976402438
-0.024,0.9622,0.1667,-0.1098,0.1558,0.0791,-1.8288,2.8612,-16.4062,9.904757237796737,-1.431225994685912,23.69850495633527,14.070010539555895
-0.0296,0.9623,0.1699,-0.1098,0.1558,0.0791,-1.5312,3.2987,-16.1175,9.949941997647135,-1.5949956048348972,23.815391361257493,14.082156510635468
-0.0343,0.9596,0.168,-0.1104,0.1557,0.08,-1.4262,3.045,-16.6163,9.941065568636697,-1.8585155581895199,23.991660323900852,14.091508685400981
-0.037,0.9589,0.1667,-0.1104,0.1557,0.08,-1.4787,3.185,-17.0012,9.906627962953884,-2.072750855044507,24.053571633577242,14.103583165873074
-0.0352,0.9609,0.1671,-0.1126,0.1544,0.0789,-1.715,2.835,-16.7213,9.892123518587573,-2.069039382170357,23.646132457273264,14.11573019869434
-0.0346,0.9652,0.1699,-0.1093,0.155,0.0793,-2.2838,2.835,-16.52,9.895036308312816,-2.040270904136046,23.861942568731877,14.12780538699423
-0.0359,0.9684,0.1673,-0.1093,0.155,0.0793,-2.66,2.2662,-16.9312,9.867910798805331,-2.074728848599284,24.025085925113864,14.139929415412102
-0.0361,0.9703,0.1713,-0.1089,0.1564,0.0786,-2.5725,1.8725,-17.325,9.902988690391958,-2.091311301789771,23.848255201701225,14.152095205669983
-0.0352,0.9671,0.166,-0.1089,0.1564,0.0786,-2.1263,1.8725,-16.905,9.884917391828447,-2.066936963372456,23.89021478489365,14.164130047785454
-0.0362,0.9661,0.1636,-0.1105,0.1562,0.0833,-2.6775,2.1788,-16.5812,9.803088408897157,-2.097236785870687,24.78008517652796,14.176183647337542
-0.0362,0.9645,0.1741,-0.1089,0.1564,0.0798,-2.8,2.0388,-16.4412,9.955201831718707,-2.1080467042107567,24.329524268728516,14.185667124159366
-0.037,0.9592,0.1668,-0.1089,0.1564,0.0798,-2.1,1.9337,-16.1788,9.943356618750297,-2.1457555813204183,24.283691660660086,14.19787042929048
-0.035,0.9603,0.1695,-0.1073,0.1566,0.0794,-2.135,1.3737,-16.415,9.95027437717283,-2.092134970023553,24.27490137518254,14.209816085103553
-0.0333,0.9621,0.1645,-0.1073,0.1566,0.0794,-2.275,1.4612,-15.89,9.944418675524325,-2.025121131368667,24.3609953922776,14.221890919489542
-0.0302,0.9624,0.1727,-0.1102,0.156,0.0861,-2.7213,1.2775,-16.0912,10.017650764085474,-1.888557800191082,24.542376440383972,14.234037244483014
-0.0331,0.9643,0.1648,-0.1102,0.155,0.0791,-1.9162,1.0937,-15.6538,9.937568965285006,-1.9089562435004739,24.51040068614786,14.246152425053424
-0.0364,0.9655,0.1668,-0.1102,0.155,0.0791,-2.5113,1.015,-15.155,9.909484594997801,-1.9464568779136318,24.426075052440417,14.258217703764158
-0.0361,0.9575,0.1695,-0.1105,0.1546,0.0792,-2.3187,1.155,-15.9687,9.91770236208904,-2.0372193201362205,24.408212586448094,14.267604562091716
-0.0364,0.9615,0.1646,-0.1105,0.1546,0.0792,-2.3275,0.7088,-15.82,9.903213070671974,-2.0836914795872463,24.2859648366173,14.279813529845205
-0.0372,0.9633,0.1687,-0.1089,0.156,0.0769,-1.6275,0.8225,-15.47,9.914771134683868,-2.116170894437036,23.94311628223105,14.291833507576943
-0.0348,0.9637,0.1682,-0.1099,0.1571,0.081,-1.4262,0.6913,-16.0212,9.908289234590764,-2.0753563415599205,24.125096267220172,14.30392249851887
-0.0336,0.9635,0.1644,-0.1099,0.1571,0.081,-1.4525,0.4288,-16.205,9.808283856664321,-2.016025418748597,24.41365864061519,14.315984592004519
-0.0306,0.9679,0.162,-0.1103,0.1554,0.0783,-1.47,0.3588,-16.2838,9.673851435922279,-1.8844574878352354,24.261270218528676,14.328122423064427
-0.0322,0.9675,0.1651,-0.1103,0.1554,0.0783,-1.5312,0.5075,-16.0387,9.678104361470746,-1.8816373668519601,24.07872594334981,14.340245389740602
-0.0322,0.9669,0.1665,-0.109,0.1554,0.081,-2.135,0.8925,-15.575,9.687692151854847,-1.8809026554459536,24.292714307050876,14.35229898929269
-0.026,0.9645,0.1653,-0.1104,0.1564,0.082,-1.96,0.7788,-15.8375,9.696120453261315,-1.7119258789208613,24.594897166158393,14.361674876289397
-0.0282,0.9628,0.1606,-0.1104,0.1564,0.082,-2.2662,1.47,-15.785,9.692687923986568,-1.6859139641071765,24.817809162315246,14.373765990714714
-0.0244,0.9619,0.1703,-0.1091,0.1567,0.0795,-2.6775,1.4437,-15.54,9.796541019871425,-1.5910567878538178,24.693641442408445,14.385899220893945
-0.0283,0.9613,0.1643,-0.1091,0.1567,0.0795,-3.0888,1.4962,-15.82,9.75204880923929,-1.6241839145741368,24.651610352798997,14.398015109292151
-0.0307,0.9558,0.1663,-0.1099,0.1562,0.0778,-1.6712,1.505,-16.345,9.79536710380492,-1.7339260294958714,24.348641705189813,14.410085696711361
-0.0318,0.9594,0.1671,-0.1099,0.1562,0.0778,-1.8725,2.0475,-16.2225,9.818642647153323,-1.8103316017338427,23.897704856624458,14.422219988632285
-0.0316,0.9583,0.1697,-0.1098,0.1563,0.0762,-2.0563,1.9862,-15.7675,9.855022862626127,-1.8325829069834063,23.287203566633025,14.434332691805407
-0.0352,0.959,0.1696,-0.1093,0.1567,0.0789,-1.4,1.75,-16.0912,9.935048577419606,-1.9592249635326746,23.40592176795912,14.443707163146522
-0.0324,0.9616,0.1691,-0.1093,0.1567,0.0789,-1.4875,1.575,-15.8638,9.951756265863139,-1.9312204663725534,23.50952686158214,14.455825528942016
-0.0337,0.9626,0.1677,-0.1112,0.1572,0.0793,-1.1638,1.1725,-16.1612,9.915755726047125,-1.9554058853057787,23.510178351857334,14.468029895814826
-0.0359,0.9636,0.1628,-0.1112,0.1572,0.0793,-1.7675,1.3825,-15.6887,9.809471991993043,-2.018571387759982,23.577915174782284,14.479956086363485
-0.0325,0.9645,0.1662,-0.1126,0.1579,0.0788,-1.295,0.9275,-15.6187,9.793620575924002,-1.971736520664696,23.518892197386446,14.491681961645643
-0.0364,0.9653,0.1623,-0.1095,0.1574,0.0774,-1.1375,0.9275,-16.59,9.66218138997879,-2.069880617347294,23.509766684247133,14.503911102491342
-0.0337,0.9679,0.1657,-0.1095,0.1574,0.0774,-1.5575,0.945,-16.7213,9.683642438963089,-2.0031542781377594,23.47923625554133,14.516103082377708
-0.0342,0.9686,0.1631,-0.1097,0.1574,0.0783,-1.8812,0.7175,-16.5637,9.649796951683479,-1.9975913604611677,23.598878718633586,14.524717346665033
-0.0384,0.9655,0.1592,-0.1097,0.1574,0.0783,-2.03,0.5163,-16.6513,9.597960281378445,-2.1549060148989896,23.744124344480202,14.536981524986675
-0.0372,0.9629,0.1624,-0.1094,0.1537,0.0763,-1.8637,0.3938,-16.8437,9.591065117480287,-2.1724103137218105,23.53086987430454,14.54994185194649
-0.035,0.9645,0.1627,-0.1091,0.1563,0.0786,-1.8112,0.5862,-16.0737,9.586157546087406,-2.10722604805306,23.751836581151505,14.562044291616559
-0.0343,0.9694,0.1588,-0.1091,0.1563,0.0786,-2.485,0.4462,-16.0912,9.532450596957387,-2.0499243636771642,24.06013324940113,14.57408798157949
-0.0316,0.9732,0.1624,-0.1104,0.1553,0.0788,-2.1875,0.1575,-15.5925,9.528958621245845,-1.965455842801738,24.16883275162451,14.58613379502581
-0.029,0.9684,0.1595,-0.1104,0.1553,0.0788,-2.4938,0.1575,-15.1725,9.494540389148932,-1.9154029035125923,24.33377273573044,14.598299231369795
-0.0323,0.9607,0.1666,-0.1083,0.1567,0.0767,-2.8087,0.2275,-15.3912,9.617581721320692,-1.909854735747994,23.787105461078756,14.61042219804597
-0.0318,0.9534,0.1693,-0.11,0.156,0.0784,-1.9162,-0.0963,-15.7762,9.730837282494523,-1.8967596286052644,23.562085519799112,14.61967102995315
-0.0344,0.9473,0.1649,-0.11,0.156,0.0784,-1.12,-0.0175,-16.275,9.807205111641894,-1.9835353035482453,23.548261581731047,14.631883182931723
-0.035,0.9625,0.1598,-0.1062,0.1551,0.0782,-1.2687,0.4025,-16.4062,9.618623610467065,-2.025612422172967,24.08679060505301,14.64400791917739
-0.0356,0.9725,0.159,-0.1062,0.1551,0.0782,-0.105,-0.4112,-16.275,9.391384340252015,-2.050369637747398,24.61393475327236,14.656179372057649
-0.0284,0.9767,0.1571,-0.1098,0.1562,0.0766,-0.1488,-0.1488,-16.2663,9.219434502650184,-1.8195257384684962,24.223450098154114,14.668304462217215
-0.0322,0.9744,0.1543,-0.1099,0.1557,0.0791,-0.8312,0.42,-15.6275,9.089688172789637,-1.8397167736717197,24.563080673830292,14.680443355018818
-0.0335,0.9711,0.1555,-0.1099,0.1557,0.0791,-1.6712,0.1312,-15.5312,9.092521577751198,-1.8806799477178373,24.709377211438678,14.692582955648218
-0.0324,0.9698,0.1523,-0.1092,0.1558,0.0771,-1.575,0.6125,-16.2663,9.024961765323212,-1.8861670742704961,24.598340218177928,14.704728572813892
-0.0335,0.9713,0.1516,-0.1092,0.1558,0.0771,-2.6688,0.2713,-16.7737,8.979611286656725,-1.9285274561764496,24.520333908663257,14.716817917669719
-0.032,0.9728,0.1537,-0.1106,0.155,0.0779,-2.275,0.455,-16.9575,8.979582009027727,-1.883425674143328,24.500369329726986,14.726086922669106
-0.0313,0.9705,0.1554,-0.1094,0.1555,0.0742,-2.7388,0.9013,-16.5812,9.018151450353967,-1.8465738785928465,24.177964479627835,14.738185115372392
-0.0317,0.9675,0.1522,-0.1094,0.1555,0.0742,-3.5,0.98,-16.4937,8.974792982714808,-1.8509824040226013,24.014667847076062,14.750376033517062
-0.0295,0.9664,0.1568,-0.1087,0.1572,0.0777,-3.8325,0.7875,-16.0825,9.122584983432205,-1.7844951552614203,24.116394302554315,14.762459715750513
-0.0295,0.966,0.156,-0.1087,0.1572,0.0777,-3.7275,0.7175,-16.0825,9.152963669709711,-1.7538366672442558,24.2147966683152,14.774549768434136
-0.0285,0.969,0.1578,-0.1094,0.1567,0.0791,-3.78,1.3475,-16.0737,9.21122737485978,-1.7056219867754097,24.306176424669236,14.786690076891334
-0.0271,0.9652,0.1564,-0.1094,0.1574,0.0759,-4.1388,1.4525,-15.7937,9.206599338944256,-1.6515333043081735,24.148898930693935,14.798827907951242
-0.0261,0.9627,0.161,-0.1074,0.1574,0.0759,-4.0775,1.8112,-16.3013,9.39243574782361,-1.5826306893021043,23.94171771447128,14.80805444328282
-0.0259,0.9632,0.1611,-0.109,0.1592,0.0784,-3.5963,1.9337,-15.8375,9.45133882797965,-1.552766105934867,24.06540642459698,14.820198290879002
-0.0229,0.9644,0.1646,-0.109,0.1592,0.0784,-3.9113,2.3275,-16.2575,9.59760450680721,-1.4326175621888986,24.077729838200323,14.832269232212111
-0.0262,0.9648,0.1602,-0.1088,0.1575,0.077,-4.6725,3.01,-15.6275,9.477319385838557,-1.4738535381223483,23.954951366641676,14.844421573741855
-0.032,0.9637,0.1665,-0.1088,0.1575,0.077,-4.1737,3.2113,-15.7062,9.691126445092555,-1.6464529487653357,23.476082347571772,14.856570730046512
-0.0335,0.9595,0.1715,-0.1078,0.1534,0.0806,-3.8063,3.1063,-16.66,9.960681838687945,-1.8497167240672119,24.333792197341907,14.86870396022574
-0.0339,0.9548,0.1667,-0.1085,0.1562,0.0795,-3.71,2.8263,-16.065,9.926773518878521,-1.9306728531704327,24.272971880031108,14.880776317214442
-0.0343,0.9625,0.1632,-0.1085,0.1562,0.0795,-3.7013,2.8788,-16.1262,9.747232183105874,-1.9748004679665347,24.46192942762784,14.890038243935862
-0.0319,0.9632,0.1751,-0.1121,0.1566,0.0777,-3.6225,2.7562,-16.0562,10.068828242403738,-1.917768426889572,23.200708131392393,14.90216545757882
-0.0312,0.9629,0.1672,-0.1121,0.1566,0.0777,-3.675,2.3275,-15.75,9.940701961621649,-1.8780429734080004,23.07874833030384,14.914302226897032
-0.0323,0.9618,0.1708,-0.1097,0.1578,0.0778,-2.8525,2.6863,-16.1963,9.989207098446814,-1.8868059606363963,23.056909557220653,14.926372460402344
-0.0312,0.9604,0.1679,-0.1083,0.1574,0.0794,-3.0188,2.24,-16.3013,9.957582120612956,-1.8558081178372139,23.653190646687733,14.938536481090734
-0.0332,0.9555,0.1743,-0.1083,0.1574,0.0794,-3.15,2.0388,-16.1612,10.137738758155104,-1.911679022050864,23.639007278243838,14.95065272340284
-0.0334,0.9566,0.1688,-0.1098,0.1562,0.0779,-2.4588,1.8637,-16.3887,10.115276970408958,-1.945685313783344,23.473072450420112,14.962803649276989
-0.0386,0.9607,0.1677,-0.1098,0.1562,0.0779,-2.6775,1.82,-16.2488,10.051426524735913,-2.1271310283433973,23.369683580205525,14.97480274608872
-0.0364,0.9599,0.1677,-0.1076,0.1582,0.0838,-2.4675,1.1112,-16.275,10.026215423067432,-2.1340588404631426,23.529560942480305,14.984089800696928
-0.0339,0.9585,0.1661,-0.1095,0.1559,0.0794,-2.6863,1.6362,-16.6775,9.967063239056987,-2.0464892541454094,23.716292889448997,14.996322834595508
-0.0336,0.959,0.1708,-0.1095,0.1559,0.0794,-2.5813,1.295,-16.66,9.999742325844998,-2.001713182466592,23.725996231739746,15.00788272425931
-0.0376,0.9592,0.1718,-0.1082,0.157,0.0799,-1.4612,1.225,-17.7275,10.067996291501512,-2.1546555115296107,23.73702645362328,15.02008284416534
-0.0345,0.9601,0.1715,-0.1082,0.157,0.0799,-1.715,0.665,-18.0338,10.088849259486206,-2.057432950777045,23.861761458162345,15.032618120533165
-0.0381,0.9588,0.1653,-0.1097,0.1566,0.081,-0.8487,0.84,-17.6138,9.90963015531941,-2.1920350929294905,24.05038025753669,15.044748519401207
-0.0415,0.9642,0.1666,-0.1088,0.1573,0.0819,-0.8138,0.735,-18.13,9.846814487477472,-2.3720305937899515,24.328938356129726,15.056915017486887
-0.0408,0.9654,0.1679,-0.1088,0.1573,0.0819,-0.8225,0.2362,-17.8762,9.85813291115082,-2.381148266937731,24.608521682937994,15.066162079824572
-0.0431,0.9697,0.1596,-0.1088,0.157,0.0796,-1.5312,0.105,-17.5875,9.643969007324367,-2.475462763320872,24.586051730600058,15.078315483096011
-0.0411,0.9704,0.1633,-0.1088,0.157,0.0796,-1.26,-0.1312,-17.4037,9.598346694564222,-2.4159026519900366,24.46910870493803,15.090581430987143
-0.0385,0.9713,0.1609,-0.1097,0.1574,0.0788,-1.8987,-0.2362,-17.36,9.548226999375327,-2.291124025941971,24.263490303819196,15.102589375646335
-0.0379,0.9726,0.1561,-0.1088,0.1576,0.0809,-1.5487,-0.6125,-17.255,9.370796119971667,-2.2299168337102864,25.045936016490693,15.114782771188294
-0.0354,0.9735,0.1662,-0.1088,0.1576,0.0809,-2.1788,-0.4462,-16.7213,9.392120883890987,-2.116720634947544,24.94119833654285,15.12699704765026
-0.0354,0.9697,0.1591,-0.1063,0.1574,0.0795,-2.695,-0.4725,-16.6425,9.369193517541666,-2.0830363654912603,25.135932763007894,15.139133463054575
-0.0352,0.9677,0.1623,-0.1063,0.1574,0.0795,-2.8,-0.2362,-16.7038,9.422968407987831,-2.064880134775671,25.060789184228224,15.15131411769619
-0.0356,0.965,0.1631,-0.1068,0.1573,0.0795,-3.6837,0.2538,-16.975,9.523239007460251,-2.077169705426794,24.941593253123813,15.16344522439203
-0.0384,0.9674,0.1597,-0.1071,0.1577,0.079,-3.6575,0.1138,-16.485,9.435974259472431,-2.1775053935011885,24.81794777314947,15.175521828347513
-0.0358,0.9641,0.1638,-0.1071,0.1577,0.079,-3.325,0.3763,-16.7737,9.542902172218337,-2.125215089728609,24.654231779695085,15.184801096849954
-0.0352,0.964,0.1642,-0.1079,0.1571,0.0792,-3.7013,0.0875,-17.0362,9.61607996912756,-2.0821540482779355,24.52990444654488,15.19690636783121
-0.0366,0.9611,0.1682,-0.1079,0.1571,0.0792,-4.0163,0.4812,-17.08,9.814367831337151,-2.127132844208233,24.332062388016098,15.209033935388064
-0.0362,0.9549,0.1695,-0.108,0.159,0.0877,-4.0775,0.9187,-17.15,9.976641330949276,-2.134361412208745,24.906901693324482,15.221213882201882
-0.0371,0.9523,0.1705,-0.106,0.1582,0.0775,-3.535,1.1112,-17.535,10.074498963362858,-2.1789117357418983,24.80561821338447,15.233323754063816
-0.0364,0.9518,0.1728,-0.106,0.1582,0.0775,-3.01,1.1112,-17.5175,10.167507410317556,-2.161642750434824,24.70087332246652,15.245417699800322
-0.0537,0.9501,0.1676,-0.1054,0.1569,0.0804,-2.7562,0.7962,-17.0713,10.112678345050933,-2.8579311359097272,24.610316763405713,15.257545267357177
-0.0531,0.9511,0.1718,-0.1054,0.1569,0.0804,-1.8463,0.7263,-17.1238,10.149086233018595,-3.054419717936181,24.453177074751377,15.266771802688755
-0.055,0.9529,0.1724,-0.1065,0.1577,0.0794,-1.8987,0.2187,-16.73,10.176692502093111,-3.180151478884207,23.914752718719505,15.27893688511884
-0.0518,0.9573,0.1675,-0.1065,0.1577,0.0821,-1.0762,-0.4987,-16.8962,10.040553017559553,-3.0948208000501394,24.567344324014094,15.291059851795016
-0.0459,0.9653,0.1701,-0.1076,0.1563,0.0821,-0.77,-0.8312,-16.5987,10.012620872634836,-2.837187342128293,24.840351315065575,15.303245107317311
-0.0448,0.9743,0.1646,-0.106,0.1564,0.0802,-0.8575,-1.5925,-17.78,9.76606689298706,-2.6589177687262433,24.990862930709813,15.315438856773168
-0.0519,0.9709,0.1668,-0.106,0.1564,0.0802,-1.645,-1.9337,-18.2175,9.759332427573527,-2.9321870454474377,24.712950406230586,15.327610663567325
-0.0478,0.9687,0.1622,-0.1065,0.1578,0.0805,-2.24,-2.3538,-18.375,9.756624318616593,-2.819186926613388,24.905668852466473,15.339756280732999
-0.047,0.9664,0.1609,-0.1065,0.1594,0.08,-2.205,-1.8288,-18.7862,9.743319249718551,-2.761591902963693,24.7673055079872,15.351944721480379
-0.0453,0.9736,0.1627,-0.1062,0.1594,0.08,-2.7037,-2.0913,-19.425,9.663458328363793,-2.6520415785402567,24.793347102166205,15.364145549214205
-0.0384,0.974,0.1688,-0.1069,0.1587,0.0815,-3.0625,-1.8987,-18.3225,9.738989690326607,-2.322305864975586,25.04637419263297,15.37632195688904
-0.035,0.9657,0.1631,-0.1069,0.1587,0.0815,-2.5288,-2.0738,-18.1562,9.705793685312349,-2.112199343198607,25.418554599250694,15.38563520112573
-0.0386,0.9584,0.166,-0.1046,0.1589,0.0823,-3.2288,-1.1375,-17.9025,9.76544858820831,-2.2320141558780517,25.736711972743546,15.397758875629702
-0.0359,0.9564,0.1664,-0.1041,0.1583,0.0846,-3.08,-1.2337,-17.7275,9.812776553117724,-2.148087011935858,26.629315718910853,15.40994554680759
-0.0393,0.96,0.159,-0.1041,0.1583,0.0846,-2.5638,-1.3737,-18.0425,9.715383949446839,-2.272546171528249,27.21948543536141,15.42211452229056
-0.0307,0.9726,0.1637,-0.1062,0.1579,0.0829,-1.7675,-0.4288,-17.9112,9.662803838945582,-1.9064269742214266,26.773383337371264,15.434587155898365
-0.0291,0.979,0.1596,-0.1062,0.1579,0.0829,-1.8987,-0.0788,-16.9662,9.557680779825635,-1.7552869334012682,26.853443985669145,15.44644079409785
-0.0288,0.9794,0.1612,-0.1053,0.1606,0.0798,-2.9225,1.0762,-17.6837,9.47284435054216,-1.6869655754678181,26.7312407160599,15.458584287780132
-0.03,0.9739,0.1629,-0.1035,0.1599,0.0809,-3.4738,1.715,-16.8787,9.485423963424779,-1.7220488540089307,26.538493276842516,15.470695929211558
-0.0379,0.9679,0.1595,-0.1035,0.1599,0.0809,-3.8238,1.9775,-16.7737,9.407313839975869,-2.0389807832691984,26.329741337195824,15.482731125240926
-0.0436,0.9614,0.1635,-0.1038,0.1583,0.0819,-3.4913,2.8875,-16.7475,9.542589028482656,-2.373833541021161,26.102221035786616,15.491521638649663
-0.0448,0.9639,0.162,-0.1038,0.1583,0.0819,-3.3075,3.15,-16.6775,9.541454982941527,-2.532549064510392,26.080455562557706,15.503681058457374
-0.0435,0.9627,0.1606,-0.1047,0.1588,0.0778,-3.2025,3.1325,-16.3275,9.507102908063935,-2.54379967452741,24.89591957454195,15.515877993138318
-0.0411,0.9646,0.1664,-0.1047,0.1588,0.0778,-3.5788,3.605,-15.8463,9.667100229399287,-2.4778000995357243,24.23961416102024,15.528090146116892
-0.0399,0.9636,0.1688,-0.1035,0.1584,0.0817,-3.92,3.71,-15.4962,9.835292119372369,-2.4274388960485282,25.297507258306613,15.540296990386992
-0.0392,0.962,0.1663,-0.1054,0.1595,0.0828,-3.5613,3.4913,-14.9187,9.819661750277744,-2.423798348132752,25.702353220732313,15.552480122425896
-0.0448,0.9575,0.1748,-0.1054,0.1595,0.0828,-3.4738,3.4388,-14.6387,10.109185458149419,-2.47376559634658,25.22385392220984,15.56467670319294
-0.0494,0.9504,0.1717,-0.1048,0.1594,0.0894,-3.3775,3.4825,-14.6387,10.178829471436766,-2.581090150961226,26.965690508946334,15.576870098734899
-0.0622,0.9473,0.174,-0.1048,0.1594,0.0894,-3.9463,3.1937,-14.2012,10.323024600256426,-3.057308758462262,27.032344457119297,15.585655657349058
-0.068,0.9523,0.1785,-0.1065,0.1591,0.0801,-3.3163,2.6163,-13.895,10.474357854901998,-3.5483274241309624,24.468529875627315,15.597818970209651
-0.0685,0.9588,0.177,-0.105,0.1574,0.0817,-0.455,-0.035,-12.6175,10.464734516214968,-3.877528713249954,24.17608536108311,15.610101198140113
-0.0755,0.9541,0.1796,-0.105,0.1574,0.0817,-1.7062,-1.575,-11.7075,10.533799480689305,-4.312502274971584,23.659183703180112,15.62275114261102
-0.0849,0.9459,0.1842,-0.1066,0.158,0.0816,-1.5137,-3.7625,-11.9525,10.739931485217932,-4.854026160661775,22.596056261698163,15.634921179835684
-0.1003,0.9412,0.1812,-0.1066,0.158,0.0816,-0.4462,-6.1863,-12.2762,10.841167849124314,-5.668934591392721,22.15910392123153,15.647040253458977
-0.1102,0.9511,0.1805,-0.1074,0.1582,0.0857,0.4638,-8.9425,-11.5325,10.771484710156141,-6.307337840667536,23.334803114115402,15.658979538821878
-0.1112,0.9658,0.181,-0.1064,0.158,0.0854,0.9187,-12.5037,-11.3225,10.652257744361084,-6.424292173510196,23.668793956874705,15.671230268415378
-0.097,0.9809,0.1697,-0.1064,0.158,0.0854,0.945,-15.6187,-10.8325,10.014749485306261,-5.733305484719619,24.97417807192078,15.683401367381737
-0.085,0.9783,0.1699,-0.1106,0.156,0.085,-0.3763,-18.8213,-11.4275,9.90875724948743,-5.078751748335336,24.629303262569664,15.695657405683717
-0.0913,0.9774,0.1627,-0.1106,0.156,0.085,-1.015,-22.0237,-11.27,9.65569414289216,-5.224832197448954,24.874394385144296,15.704679024868113
-0.11,0.9808,0.1573,-0.1133,0.1545,0.0836,-1.68,-25.2612,-11.375,9.45793479171412,-6.079797668008064,23.967364845780192,15.716952051037216
-0.1318,0.9948,0.1549,-0.1127,0.1564,0.0894,-2.3187,-29.1987,-12.4775,9.419299365577547,-7.061060627993373,25.637781921632676,15.729169512724267
-0.1222,1.006,0.1476,-0.1127,0.1564,0.0894,-6.16,-39.4012,-14.5075,8.565318357415112,-6.9974998591940505,26.4731903656797,15.741441831065572
-0.1072,1.0028,0.1492,-0.1138,0.1542,0.093,-7.7175,-44.4588,-15.435,8.478468657633377,-6.682532762565411,27.910071615893376,15.753654337958045
-0.0872,0.9955,0.1505,-0.1115,0.1546,0.0983,-9.3013,-48.37,-16.415,8.582182733108995,-5.652291477402421,30.493813269317165,15.765909314518327
-0.0644,0.9841,0.1571,-0.1115,0.1546,0.0983,-10.815,-51.3625,-16.8875,9.019054946287575,-4.362459275776218,30.762275683912254,15.778185879826413
-0.0572,0.9772,0.1538,-0.1151,0.1563,0.105,-12.0575,-54.3638,-17.5088,8.951237682813229,-3.6050736895585422,32.44984481992212,15.790488280849083
-0.0686,0.9809,0.1528,-0.1151,0.1563,0.105,-13.3175,-57.0763,-18.6112,8.862157010529936,-3.8783824077225346,32.19630958964897,15.802737948700889
-0.0723,0.9853,0.1557,-0.1161,0.1574,0.1107,-14.1312,-59.2112,-18.4013,8.970660196768959,-4.085525514802223,33.43772864813043,15.815024069684231
-0.0643,0.9916,0.1568,-0.1168,0.1566,0.1179,-15.435,-62.0288,-18.69,8.984622540036177,-3.7534631250789023,35.74811982877815,15.827314437634355
-0.0428,0.9739,0.1615,-0.1168,0.1566,0.1179,-16.2313,-65.1438,-19.005,9.386801728601133,-2.733826154655045,36.12794705300599,15.839974999522216
-0.0473,0.9698,0.1589,-0.1194,0.1578,0.1245,-17.4125,-69.5013,-18.235,9.310183318079599,-2.750509736111399,37.29848798500041,15.852249441346911
-0.0722,0.9697,0.1585,-0.1194,0.1578,0.1245,-17.6225,-72.2138,-18.5325,9.284711825696164,-3.8858581871425026,36.4461004545702,15.864446376027855
-0.0888,0.9694,0.1679,-0.1206,0.1586,0.1262,-18.9,-75.7488,-18.6812,9.795465272485496,-4.888837266658756,35.56882557365429,15.876736743977979
-0.0853,0.9774,0.169,-0.1249,0.1582,0.1413,-19.6262,-79.8525,-18.4713,9.809102536763623,-4.909319386202579,38.718742273479,15.889054717212177
-0.0557,0.9787,0.167,-0.1249,0.1582,0.1413,-20.4662,-83.44,-17.9988,9.689918528998831,-3.6302547239901806,39.88413157311585,15.90135641040705
-0.0568,0.9767,0.1661,-0.1271,0.1598,0.1543,-21.28,-86.45,-16.9225,9.65344015501847,-3.3986017039175773,42.34255682988767,15.913538126790362
-0.0772,0.9758,0.1585,-0.1326,0.159,0.1567,-23.1,-89.2413,-15.2687,9.245586833045481,-3.6576338444874774,41.43993046666515,15.925828848654383
-0.0919,0.9709,0.1576,-0.1326,0.159,0.1567,-23.9312,-93.3363,-14.3587,9.22116636194409,-4.280572946814297,40.94164740072182,15.938112492240437
-0.0975,0.9728,0.1538,-0.1374,0.1602,0.1708,-24.6837,-98.7788,-13.5537,8.994235267727058,-5.080169282582543,42.82186503299073,15.950423033282771
-0.0805,0.9824,0.149,-0.1374,0.1602,0.1708,-27.5538,-110.8363,-13.3262,8.63835126537227,-4.80278116554731,43.6479463253086,15.962702075988146
-0.0517,0.9853,0.1474,-0.1445,0.161,0.1783,-29.1375,-115.0013,-12.7925,8.512963793665872,-3.551262529417258,44.72755270409409,15.975236644528174
-0.0262,0.9838,0.1454,-0.1508,0.1622,0.1954,-31.675,-118.5363,-13.9038,8.410606254327371,-2.5081368591284408,47.41711654471818,15.987351825098584
0.0063,0.9651,0.144,-0.1508,0.1622,0.1954,-32.76,-121.8788,-15.4175,8.483939879028995,-1.5885491622187933,48.53467601104042,16.001872204522595
0.0094,0.9634,0.1427,-0.1594,0.1634,0.2082,-34.4225,-124.9588,-16.835,8.42722318729386,-0.18878513494925842,49.117843502423376,16.011381517059004
0.0089,0.9609,0.1439,-0.1691,0.1644,0.2214,-35.0525,-127.7675,-18.6812,8.51440327652773,0.37405156686797914,49.31333575893493,16.023613489215887
0.008,0.9572,0.151,-0.1691,0.1644,0.2214,-36.89,-130.6287,-19.915,8.952001597090648,0.45641862313919385,49.06469801386139,16.035903149338214
0.0533,0.9367,0.1612,-0.1775,0.1682,0.2358,-38.7013,-133.4462,-20.8687,9.742887976336307,2.811822872958687,50.88122499685283,16.048192455546644
0.0998,0.9231,0.1662,-0.1775,0.1682,0.2358,-39.2962,-138.005,-22.3738,10.19431306171996,5.686481874096342,52.60101218376373,16.06044212339845
0.1353,0.9184,0.1645,-0.1895,0.1706,0.2474,-39.1037,-137.8562,-23.3187,10.155939385236609,7.977461251420232,53.625183815854534,16.072727182640097
0.1433,0.9232,0.1674,-0.199,0.1725,0.2611,-39.0687,-136.4037,-23.5812,10.2743214194177,8.610392080856254,54.036242742740924,16.085044094132602
0.1094,0.927,0.189,-0.199,0.1725,0.2611,-39.3575,-134.89,-23.5287,11.490934825812825,6.806404252113604,52.12391527862859,16.09732702989086
0.1124,0.9112,0.1993,-0.2117,0.1765,0.2741,-39.9875,-134.4525,-22.4962,12.315730487401828,6.8637060827682905,51.57302835252198,16.110146853033005
0.1349,0.8949,0.197,-0.2117,0.1765,0.287,-39.76,-134.9512,-21.7612,12.412294334271035,8.181419611245875,54.09349912996158,16.122374224309212
0.1749,0.8753,0.1977,-0.2223,0.1781,0.287,-38.2287,-134.435,-22.0675,12.719044178742955,10.678379997898674,54.31478422957805,16.13467060879561
0.1947,0.8828,0.1986,-0.234,0.18,0.2967,-37.0475,-133.3237,-22.4263,12.679662007447899,11.970447825581763,54.524133276750625,16.146945050620303
0.1711,0.8954,0.2034,-0.234,0.18,0.2967,-34.0375,-129.0625,-22.225,12.794566446129071,10.726415036767362,53.322909190187154,16.159270456046368
0.1487,0.9019,0.2065,-0.2481,0.1858,0.3066,-33.95,-128.2312,-21.8663,12.893108140172902,9.331816199514199,51.43079476947637,16.17147906988596
0.1456,0.9031,0.2064,-0.2634,0.1864,0.3162,-33.775,-128.555,-20.9387,12.874222500142787,8.989282031932998,50.35701277959654,16.183769437836084
0.2019,0.8838,0.197,-0.2634,0.1864,0.3162,-33.0925,-128.8612,-20.825,12.575553190424454,12.049160136841346,52.910362430522106,16.196052019680444
0.2277,0.8865,0.2009,-0.2738,0.1905,0.3253,-31.6662,-128.3625,-21.8925,12.762430574906235,13.809728067662391,53.578831510419704,16.20832575367734
0.2369,0.8971,0.2059,-0.2738,0.1905,0.3253,-31.4387,-126.1575,-23.6163,12.921061615859015,14.36904373789441,53.81460980460452,16.22055737192033
0.2403,0.901,0.2051,-0.2885,0.1914,0.3294,-30.9662,-123.5938,-24.3162,12.827318584162104,14.556904340628515,52.51204343972269,16.23284172333418
0.2574,0.8976,0.2014,-0.3037,0.1936,0.3375,-30.5725,-121.0913,-25.2875,12.652527008102203,15.537220912068632,52.31502401716237,16.24517031398533
0.3118,0.8974,0.1967,-0.3037,0.1936,0.3375,-28.8575,-113.1025,-27.545,12.373561360493518,18.510704824410485,54.74312643845411,16.25742175140663
0.3249,0.9049,0.198,-0.3128,0.1969,0.3433,-26.9062,-106.7588,-28.035,12.343515970754346,19.27013530694056,54.75629124627094,16.269664340980466
0.3259,0.9127,0.1967,-0.325,0.2001,0.3489,-26.4512,-99.575,-26.3288,12.169249349645519,19.244233971474312,53.88557957301788,16.281886757462097
0.3264,0.9098,0.2053,-0.325,0.2001,0.3489,-25.0338,-92.8725,-25.7337,12.693052834803263,19.284329708267695,53.79370937015724,16.29413253226102
0.372,0.8972,0.2038,-0.334,0.205,0.353,-23.6163,-85.9075,-25.2875,12.792965112831885,21.773858413826453,55.47689308780831,16.306347162636882
0.4066,0.8869,0.2126,-0.334,0.205,0.353,-21.7175,-77.5075,-25.1825,13.446521757906165,23.82764047851073,57.185450511677686,16.31852321639782
0.4279,0.8733,0.2243,-0.3428,0.2057,0.3543,-19.6087,-68.1538,-26.3987,14.352407316490433,25.26262766565229,57.43137585107222,16.3308457905127
0.4084,0.8551,0.2447,-0.347,0.2065,0.3587,-18.2962,-57.0325,-26.1275,15.874430044446814,24.712553666379726,56.42502603310238,16.34302325992923
0.3362,0.8381,0.267,-0.347,0.2065,0.3587,-15.8725,-47.355,-24.0888,17.547869936915845,21.291969351748993,52.47134398658856,16.35522267200746
0.3081,0.8438,0.2664,-0.352,0.2074,0.3607,-13.1512,-39.3225,-21.4025,17.523870337441238,19.478683879009544,50.59355726767893,16.364719597557425
0.2987,0.8545,0.2609,-0.352,0.2074,0.3607,-5.7312,-27.0462,-16.7388,17.100399946272365,18.841734906960045,50.146937788935865,16.376852119908857
0.3013,0.8674,0.2564,-0.3564,0.2078,0.357,-3.535,-22.4,-16.2313,16.744558576467675,18.606672969490702,49.405281981574866,16.389029943239287
0.3012,0.8849,0.2535,-0.3598,0.2086,0.3615,-0.8925,-17.885,-17.2112,16.307415620079418,18.268370212615267,49.399094439826015,16.40123607968159
0.2682,0.8978,0.2637,-0.3598,0.2086,0.3615,-1.0675,-13.6062,-17.815,16.34050110704301,16.58176511440041,47.752471311408414,16.413372141172005
0.2542,0.8955,0.2523,-0.3593,0.2092,0.362,-0.315,-10.395,-18.5325,15.941090295855961,15.56531214140687,47.4853821361388,16.42545511557766
0.2429,0.8983,0.2504,-0.3593,0.2092,0.362,0.77,-7.21,-18.5587,15.666609512508899,14.80890277570052,47.088022124081554,16.437528534308058
0.2383,0.9032,0.2485,-0.3617,0.2056,0.3574,1.4088,-5.4513,-17.4387,15.44412359729508,14.426213579965282,46.30406764971884,16.449595582588284
0.2431,0.9052,0.2376,-0.3601,0.2051,0.3603,1.7762,-3.6312,-16.8612,14.853966369715772,14.51495539753383,46.94533920179333,16.461607774214258
0.2445,0.8958,0.2354,-0.3601,0.2051,0.3603,2.205,-1.9337,-16.2575,14.747341351309062,14.669495084766766,47.157366572767955,16.47097092031062
0.2306,0.8886,0.238,-0.3599,0.2029,0.3606,2.03,-0.42,-15.8375,14.947295163273068,14.388480704954246,46.877033106288124,16.48296683189727
0.2122,0.8864,0.2388,-0.3599,0.2029,0.3606,2.3538,1.225,-15.715,15.054481817051757,13.79250789703921,46.83733450827258,16.49492770600797
0.1945,0.8899,0.2347,-0.3616,0.2054,0.3654,2.5113,1.61,-15.9162,14.823186602966073,12.877827856217973,46.50093141577578,16.506993338632604
0.1967,0.9024,0.2275,-0.3608,0.2057,0.3608,3.4213,1.0587,-15.96,14.25066386642795,12.403312391988658,46.403028589060305,16.51892236049245
0.2117,0.9195,0.2331,-0.3608,0.2057,0.3608,3.6837,0.28,-15.7587,14.228890659377477,12.48277020316474,46.19024892129471,16.52758227967267
0.22,0.9295,0.2223,-0.3633,0.2037,0.3586,3.2725,-0.3675,-14.6475,13.569624195914207,12.593803466478699,46.084017046369176,16.539828408385493
0.2179,0.9206,0.2294,-0.3633,0.2037,0.3586,2.4938,-0.525,-14.2187,13.918724117836401,12.737617503768748,45.908206704354505,16.551965177703707
0.2169,0.9054,0.2306,-0.3608,0.2022,0.3584,1.0937,-0.7437,-14.63,14.203841600277151,12.817749400266463,45.97267256871636,16.56413096796159
0.2201,0.9004,0.2306,-0.3608,0.2022,0.3584,0.7788,-0.9538,-15.5312,14.325130277737385,13.003680670037166,46.08476847730724,16.576288972113705
0.2262,0.9024,0.2292,-0.3644,0.2018,0.3574,0.5338,-1.7062,-16.24,14.270711632263092,13.371112159476189,45.976599265261484,16.58505117241057
0.2372,0.9074,0.22,-0.3644,0.2024,0.3564,0.3675,-1.2775,-15.12,13.805947743855954,13.500744363182264,46.30272769880024,16.597223333118624
0.2445,0.9116,0.2237,-0.3644,0.2024,0.3564,0.14,-0.5425,-14.6387,13.792958600562152,13.760410109280688,46.49272833264364,16.609407172985325
0.2283,0.899,0.2292,-0.3636,0.2027,0.3563,-0.3938,-0.3325,-14.3675,14.124383837277932,13.783953880918444,46.19326637064288,16.62161295551373
0.2191,0.8921,0.2297,-0.3636,0.2027,0.3563,-0.4462,-0.3325,-14.4287,14.32683129136398,13.645479476384725,45.87480467378595,16.63377874577161
0.22,0.895,0.2323,-0.3642,0.2037,0.3587,-0.1663,-0.6913,-15.3737,14.477801994443704,13.567201881995059,45.82954617350676,16.64599266831968
0.2284,0.9075,0.2297,-0.3625,0.2015,0.3602,1.2862,-0.63,-16.1087,14.26433892987264,13.644711441403045,46.23084681750167,16.65478388955621
0.2394,0.9201,0.2216,-0.3625,0.2015,0.3602,0.2625,-0.9538,-16.4237,13.747183940742136,13.973050504090157,46.74412125521083,16.666945078933416
0.2434,0.9218,0.2266,-0.3635,0.2,0.3555,0.1312,-0.49,-16.5725,13.791987951762888,14.225958285958091,46.56022423322883,16.679118655297064
0.2222,0.9082,0.2293,-0.3635,0.2,0.3555,-0.2975,0.2975,-16.1963,14.041845212702233,13.736719534144065,46.14549194061301,16.69124799242341
0.2,0.893,0.2328,-0.3664,0.2017,0.3553,-2.3013,0.7,-15.7062,14.06923722979309,13.086121044547378,45.623055086271236,16.703551101273877
0.1923,0.8867,0.232,-0.3664,0.2017,0.3553,-1.4787,-0.175,-15.61,14.32768537447853,12.593452909867214,44.85435082028488,16.715667697499878
0.2073,0.8962,0.2264,-0.3642,0.2001,0.3562,-0.2975,-1.715,-16.0037,14.228392287121178,12.617496991299163,45.14389754660566,16.727766598030964
0.2258,0.9119,0.2197,-0.3643,0.2019,0.3542,-0.0088,-1.855,-15.5225,13.75639212110653,12.952329095531896,45.6409439598258,16.73661019852446
0.2403,0.9283,0.2142,-0.3643,0.2019,0.3542,-0.63,-1.7325,-14.7525,13.284447542091097,13.149220825683868,46.19030827445665,16.74880571754981
0.2347,0.9216,0.2182,-0.3654,0.2022,0.3552,-1.54,-0.98,-14.7525,13.299299023312203,13.274970650648596,46.13758412002534,16.761013269647705
0.2283,0.9106,0.2112,-0.3654,0.2022,0.3552,-1.9862,-0.8225,-14.4987,13.248816540462725,13.414387716355169,46.10073410122793,16.773199586911698
0.2313,0.9073,0.215,-0.365,0.2011,0.3515,-2.6075,-0.875,-14.8575,13.270502956937056,13.457301214463058,45.890407104757784,16.785367854566868
0.2486,0.9107,0.2104,-0.3674,0.1999,0.3551,-2.4763,-0.3588,-15.3825,13.222355980842675,13.892557914746229,46.3314614550099,16.797555233572552
0.2572,0.9145,0.2082,-0.3674,0.1999,0.3551,-3.395,0.6737,-15.4088,13.010665896925474,14.347660625446675,46.541051370500014,16.809699081168734
0.2374,0.9049,0.2128,-0.3659,0.2011,0.3558,-3.2813,2.1263,-16.3013,13.123737862093892,14.335288070301004,46.47526670642619,16.81852286248392
0.215,0.8949,0.2185,-0.3659,0.2011,0.3558,-4.9,2.3712,-15.645,13.557304000652321,13.84323678055603,45.94751130157682,16.8311798852328
0.1996,0.8789,0.2227,-0.3636,0.2006,0.3558,-4.1213,2.0213,-16.4937,13.98824465531533,12.976234027617712,45.56419579323672,16.843168718541477
0.2051,0.8759,0.2225,-0.3658,0.2002,0.3598,-2.87,0.21,-18.0775,14.089513311050023,12.832633556328252,45.53623686210965,16.855251339033234
0.2234,0.8893,0.2237,-0.3658,0.2002,0.3598,-2.1525,-0.2975,-19.39,14.092204849042675,13.53380757438542,45.878793187800476,16.867367935259235
0.2412,0.9069,0.2144,-0.3646,0.201,0.3551,-1.4875,-0.7962,-19.6087,13.74974258792021,14.338551897455801,46.32927965878071,16.879483469743544
0.2366,0.9115,0.2129,-0.3646,0.201,0.3551,-1.47,-0.455,-19.5475,13.485443277368299,14.2127929775081,46.37530421879236,16.888847323667708
0.2316,0.9059,0.2171,-0.3645,0.1998,0.3568,-1.6275,0.84,-18.83,13.482137669197591,14.01311172181121,46.363557372571,16.900885704922164
0.2282,0.8965,0.2196,-0.3645,0.2007,0.3507,-1.75,2.1613,-18.2087,13.576102481280854,13.916680705056308,45.97395106742876,16.912917715726447
0.221,0.8945,0.214,-0.3645,0.2007,0.3507,-0.7175,2.1263,-17.5088,13.502527393250697,13.62503833643842,45.721129547765955,16.92496317525887
0.2263,0.9033,0.2147,-0.3638,0.201,0.3544,-0.7962,3.1412,-16.17,13.424110405398844,13.665132653017073,45.92831063608848,16.93698881561298
0.2364,0.9262,0.2122,-0.3638,0.201,0.3544,-0.035,4.06,-15.5575,13.0658918281786,13.780965011070334,46.24830804055202,16.94899251330539
0.2218,0.9343,0.211,-0.3628,0.2016,0.3542,-1.1375,4.4625,-14.1837,12.88686210616659,13.459081770616244,46.00335282849473,16.958385388169223
0.2081,0.934,0.2246,-0.3628,0.2016,0.3542,-2.9575,4.3488,-12.9587,13.149550174348713,12.63657487642752,45.36584387653201,16.970424477251473
0.2017,0.9218,0.2281,-0.3669,0.1993,0.3579,-4.0338,3.6663,-12.4687,13.629504722679926,12.177029480576795,45.017275592974556,16.982479846373053
0.2065,0.9029,0.2248,-0.367,0.199,0.3546,-4.13,2.1263,-12.6262,13.85890992335979,12.411839946795645,44.92127000279125,16.994489560601735
0.2239,0.8922,0.2247,-0.367,0.199,0.3546,-3.36,1.4088,-13.4837,14.00459086497548,13.163760358281069,45.02350121604166,17.006553069742978
0.2582,0.9092,0.222,-0.3653,0.2008,0.3543,-2.4325,1.26,-14.8137,13.961053904617637,13.431193450211145,45.16203305651548,17.015888964469166
0.2496,0.9262,0.2169,-0.3653,0.2008,0.3543,-2.3625,2.275,-15.3387,13.882581988806969,13.788345050308358,45.89864501910914,17.027899386525647
0.2281,0.9282,0.2235,-0.3632,0.2006,0.353,-3.29,2.9575,-16.9925,13.707206674724821,13.552395277882553,45.79331824420064,17.040289558195123
0.2089,0.917,0.2266,-0.3634,0.2012,0.3555,-4.9,2.6863,-17.5525,13.832867679347016,12.770698978696448,45.46900881725008,17.051526324469677
0.2122,0.8979,0.2302,-0.3634,0.2012,0.3555,-5.2325,1.2337,-18.0075,14.242253577760517,12.863835820253414,45.461619253898235,17.063740247017744
0.2289,0.8942,0.2212,-0.3634,0.2021,0.3552,-4.795,0.2362,-19.5737,13.992573694693327,13.760994072693842,45.786890276857825,17.07592727210953
0.24,0.9016,0.2267,-0.3634,0.2021,0.3552,-3.64,-0.28,-20.895,14.063160573039783,14.372480080385003,46.1439376985688,17.08454330596635
0.232,0.9019,0.2275,-0.3626,0.2036,0.3542,-4.3663,0.6825,-20.6063,14.127053806334516,14.060251379410486,46.112637246474875,17.097412677054272
0.2079,0.8955,0.2281,-0.3626,0.2036,0.3542,-4.6638,1.0937,-21.385,14.242527341782678,12.864842100295839,46.038985497906566,17.109481140990095
0.1927,0.8839,0.2311,-0.3625,0.2017,0.3559,-4.3838,-0.2538,-23.0387,14.521488317876281,12.015315906266956,45.28184447507509,17.12160410766627
0.1913,0.8838,0.2311,-0.3617,0.2022,0.3564,-2.5725,-1.26,-23.135,14.553708010442966,11.847897328526507,44.9584795563222,17.133760342248895
0.217,0.9092,0.2213,-0.3617,0.2022,0.3564,-1.4262,-1.8463,-22.435,14.15877644775508,12.913793941148201,45.68924860570187,17.14582526704573
0.2278,0.9216,0.2205,-0.3614,0.2027,0.3556,-1.7675,-1.1987,-22.2687,13.929641003446969,13.444571781180793,46.08011862686626,17.157974069436488
0.2236,0.9281,0.2185,-0.3614,0.2027,0.3556,-2.4588,-0.5425,-21.7875,13.812220618517477,13.229447583296391,46.10484339117512,17.16720839087383
0.2086,0.9139,0.2217,-0.3594,0.2024,0.3547,-3.325,0.5163,-20.9913,13.720847283487934,12.609391766634717,45.92979208061044,17.17930587574932
0.1922,0.899,0.2275,-0.3588,0.2006,0.3553,-3.6837,-0.035,-20.5187,14.003690217252995,11.84630404921844,45.476216391912914,17.19142424154482
0.1862,0.8938,0.2245,-0.3588,0.2006,0.3553,-2.6425,-0.1925,-20.4312,14.030678347009834,11.488052406104387,45.18452174675022,17.203512878572848
0.2117,0.9079,0.2272,-0.3609,0.2018,0.3554,-1.7675,-1.2337,-19.8975,14.036845593142017,12.53441513564533,45.46894834068043,17.21564787832157
0.2228,0.9143,0.2184,-0.3609,0.2018,0.3554,-1.5925,-1.1287,-20.0287,13.797761587709275,13.202453767533994,45.95581569042001,17.227791372003853
0.2241,0.9236,0.2173,-0.3582,0.2032,0.3568,-1.1725,0.4638,-19.8362,13.508107704136927,13.274357808697374,46.2274225406082,17.239881778601372
0.2137,0.9254,0.2117,-0.359,0.2014,0.361,-1.8463,1.225,-18.55,13.328826888773223,12.81422290323399,46.24786972704555,17.249015588491567
0.2018,0.9263,0.2238,-0.359,0.2014,0.361,-1.8025,1.855,-17.395,13.407416250632702,12.20532011015799,46.151659119805,17.261095731586035
0.1951,0.9132,0.2241,-0.3567,0.2018,0.3559,-2.0913,2.1525,-16.8175,13.459759019863668,11.890342062880626,45.83923287143613,17.273221883487295
0.2112,0.9127,0.2263,-0.3567,0.2018,0.3559,-2.135,1.68,-16.24,13.508078726304927,12.323410108169794,45.90468141189218,17.285284330886842
0.2164,0.9168,0.2205,-0.3619,0.2022,0.3555,-2.31,2.0738,-15.3037,13.508934444691096,12.48132740176827,45.85435703005951,17.29737969227894
0.2102,0.9203,0.2194,-0.3619,0.2022,0.3555,-2.3013,2.9225,-14.9537,13.504131211306438,12.481584615455196,45.69125287952467,17.306520934361004
0.1937,0.9174,0.2286,-0.359,0.2022,0.3574,-2.9313,3.1588,-14.7962,13.701751769179987,12.362564789799958,45.42032180464334,17.31860992530293
0.171,0.9103,0.2332,-0.3571,0.2024,0.3544,-2.3363,2.03,-15.4,13.754315709134435,11.724650282920827,44.89862396170517,17.330718027595374
0.1707,0.9048,0.2352,-0.3571,0.2024,0.3544,-2.695,0.2888,-14.7,14.005627658062307,11.45107929730394,44.58149362387586,17.342772688889156
0.1901,0.9004,0.2345,-0.3586,0.2017,0.3553,-2.1525,-1.435,-14.0875,14.058621419770741,11.495600114893517,44.78903415774928,17.354858140692098
0.2094,0.8988,0.2298,-0.3586,0.2017,0.3553,-1.085,-2.0563,-14.2712,14.211058589353774,11.989561277573051,45.466959787486616,17.36700800482455
0.2229,0.9005,0.229,-0.3579,0.2015,0.3569,-0.84,-1.8375,-13.6675,14.244414208815481,12.832029378390326,46.178613873405666,17.379141235003782
0.2277,0.9065,0.2293,-0.3599,0.2022,0.3546,-0.49,-1.4,-13.09,14.213065574889713,13.38723762397895,46.14939673924179,17.38838581994418
0.2207,0.9146,0.2334,-0.3599,0.2022,0.3546,-0.8575,-0.91,-12.11,14.272968546291363,13.219322645824032,45.887737709632574,17.400597619008856
0.2134,0.9102,0.2302,-0.361,0.1997,0.355,-1.4875,-0.4025,-11.4275,14.238411255965152,12.89712164396655,45.666795156990325,17.412597069734485
0.2209,0.9051,0.2267,-0.361,0.1997,0.355,-1.6887,-0.9975,-11.4275,14.17477572839436,13.226012838233178,45.81979931585424,17.42474445646965
0.2391,0.9022,0.2228,-0.3627,0.2013,0.363,-1.9775,-1.015,-12.285,14.109738922823817,14.10032887908785,46.821399084410075,17.436882995357355
0.2516,0.9024,0.2239,-0.3623,0.2014,0.3543,-2.0125,-0.4725,-13.7287,14.076038886152928,14.672611894762667,46.87232171646619,17.44903922993998
0.237,0.904,0.2207,-0.3623,0.2014,0.3543,-2.0825,0.6563,-15.0587,14.02470415870912,14.634340680424243,46.717898349955526,17.46107053291647
0.173,0.8949,0.2318,-0.3616,0.2002,0.3556,-1.75,1.61,-15.7937,14.190572100494679,12.785668988297415,45.92993602584297,17.47025813771922
0.1645,0.8915,0.2262,-0.3616,0.2002,0.3556,-0.6563,-1.6625,-16.4762,14.219222123104814,11.186632511344762,44.4712715962478,17.48238499744828
0.1797,0.8976,0.2289,-0.3638,0.203,0.3551,0.07,-3.955,-16.4587,14.280057685358502,11.061434612263639,44.18719160565584,17.494436473516977
0.2139,0.9031,0.2237,-0.3623,0.1986,0.3583,0.9887,-4.6988,-16.5462,13.999027018774417,12.221585764800867,45.66471138604253,17.50651060007517
0.2391,0.9074,0.2224,-0.3623,0.1986,0.3583,1.4088,-4.1388,-17.6225,13.820316498550639,13.774637652387225,46.652810817365,17.51860136058659
0.2493,0.9176,0.2177,-0.3658,0.1982,0.3543,1.295,-3.255,-17.57,13.450828109475252,14.522249747648068,46.549186564880614,17.530633017476976
0.2363,0.9285,0.2143,-0.3658,0.1982,0.3543,-0.21,-2.3275,-16.5287,13.145857513632423,14.157723408948074,46.19479677421879,17.539921133826876
0.225,0.922,0.2128,-0.3637,0.2004,0.357,-0.7175,-0.8487,-16.1963,13.055417042328237,13.72346362036558,46.21627274802868,17.55240084571265
0.2156,0.9081,0.2177,-0.3637,0.2004,0.357,-1.015,-0.42,-16.415,13.290746470441015,13.293538720780097,45.98158815449089,17.564146186259222
0.2092,0.8974,0.2107,-0.3654,0.1997,0.3553,-1.4088,-0.6212,-16.415,13.255260689175964,12.99201878252867,45.65425425561818,17.576014688842438
0.2056,0.8959,0.2099,-0.363,0.1984,0.3524,-0.735,-0.84,-16.24,13.213511889630794,12.768354140590601,45.426233189206506,17.5881847260671
0.2076,0.9223,0.2071,-0.363,0.1984,0.3524,-0.2538,-0.9625,-16.6425,12.841820890669291,12.528333096432826,45.39132140896842,17.600375290297873
0.2042,0.9383,0.2035,-0.3661,0.1975,0.3522,-0.1138,-0.4725,-15.3562,12.429724639594793,12.37718135203798,45.14339057916039,17.61258708936255
0.1991,0.9444,0.2053,-0.3661,0.1975,0.3522,-1.1375,-0.56,-13.2212,12.342695380362587,11.910768558213315,44.91294262941249,17.621618618136104
0.1978,0.9277,0.2139,-0.3647,0.1993,0.3593,-2.0038,-0.7263,-10.7975,12.469673586549202,11.7707712259484,45.22945923201946,17.634729004588845
0.1965,0.9057,0.2087,-0.3679,0.1981,0.3523,-3.15,-0.7613,-8.8638,12.709466267517524,11.914068464862005,44.77501840533039,17.646263058538064
0.2126,0.8952,0.209,-0.3679,0.1981,0.3523,-1.6712,-1.1812,-9.7388,12.867917532443297,12.843422560422669,45.0081868038617,17.65823419615182
0.2371,0.905,0.2084,-0.3693,0.1995,0.3534,-1.4,-1.2425,-10.5175,12.913830460374541,14.049791275768143,45.65592188883991,17.670344421927656
0.2361,0.9044,0.2072,-0.3693,0.1995,0.3534,-0.6825,-0.5425,-9.87,12.907765030796472,14.239391921260259,45.82083422347249,17.682427750247207
0.2405,0.9083,0.209,-0.3702,0.2007,0.351,-0.77,0.3325,-9.6862,12.937879461376069,14.432196159040785,45.76368117925293,17.69166207168455
0.2391,0.9081,0.2013,-0.3702,0.1989,0.3527,-0.665,0.8487,-9.7388,12.66856947583308,14.418744208886116,45.81649229901197,17.70368841986646
0.2411,0.9055,0.2042,-0.3702,0.1989,0.3527,-0.7962,1.2862,-10.5,12.69207529215197,14.534246111719039,45.834106242555904,17.715671236638865
0.2588,0.9077,0.2011,-0.3697,0.1968,0.3526,0.4812,1.9337,-12.2412,12.545642632418964,15.279927123111923,46.21163218144407,17.727681304781445
0.268,0.9153,0.2025,-0.3697,0.1968,0.3526,-0.0875,3.1763,-13.7637,12.497407091295814,15.645693951627564,46.71634334941883,17.73976038613422
0.2577,0.918,0.2061,-0.3704,0.1965,0.3546,-0.455,4.4275,-15.19,12.59776342562304,15.581773250686172,46.65838551436759,17.751764791654427
0.2346,0.9161,0.2064,-0.3704,0.1965,0.3546,-1.0937,5.9325,-16.0475,12.650942363549328,14.767381194581782,45.98116078197966,17.761079805460607
0.2098,0.9136,0.2101,-0.3699,0.1981,0.3465,-1.6187,5.4338,-16.1875,12.767187965443235,13.5760171109046,44.519517069355615,17.773136944151677
0.2009,0.9085,0.213,-0.3696,0.199,0.3512,-1.68,4.305,-16.0912,12.922576534335356,12.8153934652594,44.36527520053592,17.785251770808188
0.2198,0.907,0.2112,-0.3696,0.199,0.3512,-2.4413,3.2025,-16.1875,12.952259073213998,13.072592605055306,44.79136966984858,17.797266085917553
0.2243,0.9102,0.2098,-0.3686,0.1985,0.3511,-2.1,1.7325,-17.0362,12.955881335008565,13.363582008651957,44.95925154220464,17.809333842025573
0.2248,0.9152,0.2092,-0.3686,0.1985,0.3511,-1.2337,1.1287,-17.815,12.915441812535956,13.439595466124386,44.97421698106621,17.818581612191057
0.2182,0.9186,0.2131,-0.3677,0.1962,0.3521,-2.2313,0.665,-17.6662,12.918216865238477,13.139001576120949,45.03001628435258,17.83066281702722
0.21,0.9109,0.2132,-0.3686,0.1973,0.3463,-2.6425,0.5338,-18.0075,12.989981784790738,12.771762641975418,44.71262025460975,17.842688457381332
0.2045,0.9054,0.2161,-0.3686,0.1973,0.3463,-2.8087,-0.0088,-17.2637,13.145464319848978,12.50569407776524,44.31505050826905,17.854816024938188
0.2273,0.9073,0.2095,-0.3686,0.1977,0.3515,-2.7213,-1.47,-16.0475,13.099559142069564,13.140418976467416,45.1184842878712,17.86688802801299
0.2418,0.9105,0.2105,-0.3686,0.1977,0.3515,-2.8,-0.6737,-15.925,13.070501436661388,13.815658649896044,45.62299386272644,17.879013826000353
0.2516,0.9148,0.2122,-0.3694,0.1978,0.3534,-2.205,0.5862,-14.49,13.070022177361587,14.187167014738938,45.8742239266603,17.891005844534117
0.2474,0.919,0.2053,-0.3694,0.1983,0.3505,-2.9313,1.47,-13.5362,12.876783382287398,14.499427692935026,45.900415196861324,17.900376422822347
0.2366,0.9214,0.2129,-0.3688,0.1983,0.3505,-3.535,2.3538,-12.0662,12.951966798845826,14.163221694317633,45.683834634602945,17.912449841552746
0.2239,0.9076,0.2174,-0.3725,0.1974,0.3515,-3.605,2.8263,-10.8062,13.250197801201942,13.621539413978738,45.108902315777634,17.924446814881087
0.2217,0.8817,0.2207,-0.3725,0.1974,0.3515,-3.7888,2.24,-10.4125,13.736726428603594,13.692334326069808,44.890709150945,17.93650961619453
0.2375,0.8835,0.2174,-0.3704,0.197,0.3534,-2.625,1.7325,-11.9175,13.760477807149307,14.396995457964044,45.18617012866152,17.948592944514086
0.25,0.8957,0.2126,-0.3704,0.197,0.3534,-1.8288,1.225,-13.3262,13.63938454063616,14.889502643403423,45.23259950472343,17.958092701375236
0.2503,0.909,0.2145,-0.3733,0.199,0.3563,-1.12,1.435,-14.9362,13.44728511809401,14.890816202315479,45.41928578902042,17.969908116873693
0.2453,0.9158,0.2088,-0.371,0.1979,0.3522,-1.1638,1.5837,-16.17,13.132935092580343,14.750676114972688,45.54969057199495,17.981942958989166
0.2347,0.9139,0.2074,-0.371,0.1979,0.3522,-1.7762,1.8375,-16.7388,13.021311973043511,14.307573764466932,45.546207098886775,17.99401850120295
0.2339,0.9004,0.2065,-0.3726,0.1999,0.35,-2.1875,1.3475,-17.4387,13.015102541921447,14.237001129156399,45.49925033105336,18.006055112887914
0.2419,0.9032,0.2016,-0.3726,0.1999,0.35,-1.8463,0.42,-17.9638,12.890524399540846,14.546377453070432,45.54283114652733,18.01814445774374
0.2421,0.909,0.1972,-0.37,0.199,0.3485,-2.135,0.0175,-18.5675,12.823038501393277,14.580052797014602,45.66494065128088,18.028020071165006
0.2408,0.9155,0.1956,-0.3699,0.1963,0.3538,-2.1525,0.63,-19.46,12.754767707081715,14.453080627516313,45.870368395916366,18.03995157042214
0.2356,0.9129,0.203,-0.3699,0.1963,0.3538,-2.5463,1.0237,-20.3875,12.705043551403914,14.188631969046762,45.877854113001916,18.051540834939512
0.2194,0.9075,0.2094,-0.3702,0.198,0.351,-2.8175,0.665,-21.1575,12.809288368126143,13.385073753813911,45.56352542570124,18.063306702492188
0.204,0.8955,0.2125,-0.3702,0.198,0.351,-3.2638,-0.0875,-20.8162,13.081010175138495,12.62680717509109,44.90609715928671,18.075473200577868
0.2119,0.9035,0.2095,-0.3678,0.1986,0.3521,-3.0363,-1.085,-20.755,13.069484220633193,12.833863338594183,44.99686031196333,18.08763651343846
0.2266,0.9167,0.2128,-0.3678,0.1986,0.3521,-2.7913,-1.2425,-20.965,13.069314388077348,13.438027641229642,45.30180048378099,18.09648966960722
0.2426,0.9186,0.2074,-0.3682,0.1986,0.3546,-2.7738,-1.4525,-20.965,12.950326688876816,14.302390960680908,46.024862759318985,18.108685896460365
0.2434,0.9216,0.2063,-0.3661,0.1985,0.3522,-3.2375,-0.1837,-21.0,12.785097191251564,14.430952676247177,46.18547645056944,18.121073236818653
0.2247,0.9135,0.2084,-0.3661,0.1985,0.3522,-3.36,1.2075,-20.4575,12.819837145074164,13.630945302243898,46.17005146822805,18.133173553005328
0.2063,0.9076,0.2084,-0.3678,0.1978,0.3519,-3.1675,2.0475,-19.2675,12.873432847607232,12.705638442620213,45.55243469679816,18.145298643164896
0.1981,0.9011,0.212,-0.3678,0.1978,0.3519,-3.3075,1.7413,-18.9175,13.061309505779322,12.205162977372837,45.17273482891868,18.15742373332446
0.1984,0.9034,0.2092,-0.367,0.1981,0.3464,-2.6775,1.5225,-19.11,13.054382630980646,12.101454626465577,44.89743398968735,18.169525465166732
0.2053,0.9124,0.2104,-0.3669,0.199,0.3503,-1.6625,0.98,-18.2262,13.028848460261083,12.3047746027262,44.86079717965514,18.178498244233147
0.2086,0.9278,0.2134,-0.3669,0.199,0.3503,-1.9775,0.5862,-18.0775,13.01259419612723,12.345769303534585,44.79465474480714,18.190625103962205
0.1976,0.9307,0.2177,-0.3648,0.1982,0.351,-2.3187,0.4375,-17.2462,13.022309150306565,11.882123965940554,44.66383253091257,18.20274630106889
0.195,0.9206,0.225,-0.3648,0.1982,0.351,-3.9113,-0.245,-15.89,13.466611491973488,11.758377607344817,44.42013293866876,18.215071352581056
0.2,0.9044,0.2233,-0.3634,0.1991,0.3511,-4.27,-0.7875,-15.0762,13.735838185157832,11.79915425030481,44.5519804390232,18.227135923463994
0.2047,0.8937,0.2235,-0.3661,0.1979,0.349,-3.7888,-1.12,-15.33,13.920623604743774,12.000589653174165,44.40160060077044,18.239242610100842
0.2026,0.8897,0.2243,-0.3661,0.1979,0.349,-2.5813,-1.9687,-14.8312,13.977561892051012,12.047740048942842,44.28722643215321,18.24862805277281
0.2137,0.8959,0.2242,-0.3678,0.1961,0.3522,-2.1088,-2.6163,-15.0237,13.98654149704884,12.116809558046304,44.68903415962659,18.26074571074051
0.2203,0.9037,0.2159,-0.3678,0.1961,0.3522,-0.7962,-2.6425,-15.05,13.660581436002833,12.229950275093513,45.08880763132381,18.272875047866854
0.2383,0.9115,0.2184,-0.3696,0.197,0.3538,0.0438,-2.2662,-15.5487,13.530865868971595,12.993577294885714,45.58343736597491,18.284855741155866
0.2522,0.9146,0.21,-0.3696,0.197,0.3538,-0.3413,-1.6975,-15.3737,13.137479518532091,13.605589061724464,46.177559148626926,18.297063293253764
0.2592,0.9171,0.2101,-0.368,0.198,0.3497,-0.525,-1.1287,-15.75,12.98923033174877,14.405355767934045,46.31288233218553,18.30910804495839
0.2557,0.9166,0.214,-0.3679,0.1968,0.3514,-0.9713,0.35,-15.6275,13.07471734741197,14.726136200661164,46.32559878815189,18.321170846271833
0.2317,0.8965,0.2138,-0.3679,0.1968,0.3514,-1.0762,1.6187,-16.6425,13.257719095202575,14.33971566144922,46.096911985174145,18.330416846867823
0.2249,0.8865,0.215,-0.3674,0.1972,0.3506,-0.0963,1.82,-17.0012,13.513721193728772,14.010318315847456,45.78992188209157,18.342525656988062
0.2259,0.8871,0.2097,-0.3674,0.1972,0.3506,-0.0875,1.8025,-17.7187,13.367498092481757,13.9429458495105,45.66578859219275,18.35456545389811
0.2247,0.8959,0.2029,-0.3674,0.1976,0.3507,0.5163,2.0038,-19.2763,12.921897155077735,13.782519262616715,45.61506452562906,18.366575168126797
0.2151,0.9126,0.1956,-0.3678,0.197,0.3499,0.84,1.8025,-20.1688,12.298896789228825,13.107427523057622,45.45828002161597,18.37857568059412
0.2145,0.9205,0.1935,-0.3678,0.197,0.3499,0.7788,1.3825,-19.4162,11.977492278705627,12.8939264986646,45.41550053934169,18.387785228058576
0.2144,0.9437,0.1863,-0.367,0.195,0.3494,0.9187,2.1263,-19.5125,11.361704182961326,12.624285958713045,45.3579422442785,18.399787510095393
0.219,0.9374,0.1898,-0.367,0.195,0.3494,0.1312,1.9512,-19.4162,11.421227495085137,12.847260407337588,45.37358076249614,18.411775281662376
0.2203,0.9275,0.1851,-0.3666,0.1958,0.3521,-1.3387,2.5988,-19.1625,11.356804228646233,13.061184426155638,45.66134030774576,18.423869935226676
0.2252,0.9207,0.1878,-0.3666,0.1958,0.3521,-2.4325,3.0713,-17.8412,11.383247767141961,13.370493751743025,45.88154568435052,18.435860892018745
0.243,0.9129,0.1937,-0.3654,0.1958,0.3512,-2.5638,4.6025,-17.255,11.525369623554475,14.224745984958295,46.39690339816012,18.445461868254842
0.2604,0.9101,0.1928,-0.3651,0.1952,0.349,-2.2225,6.545,-17.0362,11.537351095248237,15.180028395778661,46.90882054886726,18.45723410625769
0.2805,0.9093,0.1874,-0.3651,0.1952,0.349,-1.4612,9.3537,-16.66,11.58493070571734,16.209689754454764,47.73844530598973,18.46933831549725
0.2894,0.9127,0.1977,-0.3621,0.1968,0.3496,-0.7,12.6262,-18.3663,11.972260573487896,16.989725605255213,48.28142123848625,18.481405363777476
0.2918,0.9132,0.1959,-0.3621,0.1968,0.3496,0.1312,16.1437,-18.5412,12.067589882761194,17.271762381511913,48.438756845939096,18.493410123211582
0.2928,0.9078,0.1956,-0.3609,0.1959,0.355,0.7,19.88,-18.9088,12.136158394477288,17.45412563825597,49.14225296089015,18.505473986266722
0.3027,0.8991,0.2027,-0.3587,0.1969,0.347,0.7437,23.9837,-19.4425,12.562439357994943,18.04918241747222,48.96042554995201,18.51479430878138
0.3179,0.8901,0.2042,-0.3587,0.1969,0.347,1.6538,28.385,-20.3525,12.84772261381787,19.014750739373127,49.60052164016559,18.526881530153815
0.3407,0.861,0.2037,-0.353,0.195,0.3477,3.045,33.9938,-21.1487,13.23707961443877,20.77625086515019,51.55647322603281,18.53882895553638
0.3373,0.8536,0.2101,-0.353,0.195,0.3477,5.46,40.1275,-22.225,13.759790362184095,20.96568842281402,51.444390467361046,18.550898127299995
0.3176,0.8624,0.2078,-0.347,0.1961,0.346,7.56,46.4275,-22.1637,13.567123361278862,19.852982156060115,51.01886566006574,18.562988887811414
0.2918,0.8702,0.2069,-0.3386,0.1926,0.3433,10.1763,52.85,-21.1575,13.388750447643197,18.315525669815216,50.44441955674078,18.574986568967553
0.2821,0.8811,0.2057,-0.3386,0.1926,0.3433,12.2675,58.1875,-20.02,13.156783397070264,17.48115470635771,49.9603111512246,18.58371019264949
0.2772,0.9038,0.1912,-0.3312,0.1922,0.3391,13.9825,63.07,-18.8213,12.015200904037274,16.862364083622346,50.225190512852556,18.596096117352186
0.2822,0.909,0.1907,-0.3312,0.1922,0.3391,15.7937,67.8213,-17.8062,11.857071754524215,16.890771399493506,50.38995238020201,18.608086012402556
0.2883,0.9119,0.1881,-0.3226,0.1911,0.3368,16.905,72.3363,-16.1963,11.665104947252448,17.064866684037916,51.36457731430312,18.620284716652993
0.294,0.9066,0.1893,-0.3226,0.1911,0.3368,18.83,83.23,-13.335,11.788189887137078,17.40238833977629,51.632919040742074,18.63289926973406
0.3067,0.9024,0.1987,-0.3133,0.1882,0.331,19.5737,89.3813,-12.32,12.390248309233282,18.097533455995908,52.48566939499925,18.64497375020615
0.3084,0.8873,0.1951,-0.3047,0.1871,0.3266,21.105,96.5388,-11.8825,12.40045268905035,18.58981251552976,53.365775455342934,18.657091762087752
0.2973,0.8514,0.185,-0.3047,0.1871,0.3266,24.3162,103.81,-11.97,12.2643103520316,18.777876214443747,53.47645168180855,18.669199510466296
0.2871,0.8321,0.1741,-0.2901,0.1826,0.3192,28.7525,111.1775,-11.935,11.831460984627444,18.68992563858245,54.41385659306941,18.678801902357986
0.2715,0.8212,0.1588,-0.2901,0.1826,0.3192,34.2912,117.4775,-12.53,10.968142353546755,18.190144949562832,54.08906933086496,18.690886646333134
0.2599,0.8233,0.1502,-0.2786,0.1804,0.3163,38.885,123.2875,-13.5537,10.35406611181771,17.64408904926863,54.803554169641124,18.703001472989644
0.2477,0.8377,0.1303,-0.2657,0.1755,0.2993,43.8288,128.1875,-13.4312,8.873354737948707,16.826317768278003,54.25227935665531,18.715174695439394
0.2161,0.8907,0.0935,-0.2657,0.1755,0.2993,48.8162,132.7725,-12.1187,6.047925655394159,14.417221269464022,53.07205850526749,18.727340839611173
0.2211,0.9154,0.0858,-0.2527,0.1708,0.2881,52.2462,136.4738,-10.0537,5.367153606429217,13.673647853442587,53.606909614358734,18.739519724683298
0.2302,0.9354,0.0618,-0.2527,0.1708,0.2881,54.1538,140.315,-8.575,3.8075736241452134,13.780014218054548,54.057146356564466,18.751582525996742
0.2378,0.9523,0.0531,-0.2398,0.1642,0.271,54.8362,144.3663,-7.6388,3.2020990497177793,13.973331807245637,54.08311233059443,18.76367399433596
0.2498,0.9661,0.0462,-0.2278,0.1613,0.2571,54.2762,149.6687,-5.705,2.7459334022427764,14.431747417771927,54.5700191666547,18.775790590561964
0.2436,0.9832,0.0293,-0.2278,0.1613,0.2571,52.22,158.9787,-5.67,1.7256766918162745,13.960386296695015,54.40445949335368,18.785180988028507
0.2351,0.9739,0.0259,-0.2166,0.1573,0.243,50.2425,164.1675,-5.6963,1.5271528683369513,13.60534155497268,54.20519875825912,18.797224677991437
0.2254,0.9651,0.0192,-0.2166,0.1573,0.243,48.6413,168.0525,-6.545,1.1471760644043623,13.192469042744621,54.028560113095004,18.809367463845923
0.2039,0.96,0.014,-0.2022,0.1534,0.2261,47.81,171.5175,-7.525,0.8416081624177864,12.132717531963102,53.56764329053141,18.821456454787853
0.1785,0.9542,0.0091,-0.1938,0.1514,0.2105,47.7137,173.7225,-10.0012,0.5521933616862152,10.853792887989863,52.18459747416056,18.833629677237603
0.141,0.9396,-0.0012,-0.1938,0.1514,0.2105,46.8475,174.2475,-12.5562,-0.060691823512973926,9.218188207372439,51.234531378303444,18.8458138710182
0.1195,0.9376,-0.0106,-0.1828,0.1483,0.1929,46.7687,175.245,-14.0787,-0.6359914490664937,8.308927012636458,50.075328348309064,18.858039472724915
0.0936,0.9415,-0.0141,-0.1828,0.1483,0.1929,46.48,175.5162,-16.8262,-0.8535390205401101,6.591302974793567,49.353168542301624,18.870286309265534
0.0659,0.9487,-0.0184,-0.1701,0.1469,0.1794,46.2875,174.2212,-19.1625,-1.1059106975645427,4.474983099113746,48.76083527550875,18.88252500578649
0.0368,0.9669,-0.0279,-0.1625,0.1445,0.1562,46.9787,171.1763,-20.3875,-1.641928899599796,2.535296568010015,45.60351033665436,18.89469362735556
0.0175,1.0243,-0.0199,-0.1625,0.1445,0.1562,44.8437,168.1575,-22.3038,-1.123994542729855,1.164908483694111,44.8101996247278,18.906934093446008
0.0257,1.0414,-0.0212,-0.1547,0.1444,0.137,38.08,159.6788,-25.5587,-1.1651995399485298,1.3919833304614182,42.79926363300718,18.91915367861645
0.0361,1.0318,-0.0074,-0.1459,0.1434,0.1247,32.7075,156.4062,-28.3062,-0.43189109284498084,1.9611533888880563,41.763748383270794,18.93132477758281
0.0409,0.9954,-0.0021,-0.1459,0.1434,0.1247,29.4787,153.475,-32.4538,-0.1303795594846352,2.3317293510808716,41.780913236207255,18.940898856362626
-0.0267,0.9284,-0.0051,-0.1378,0.1468,0.1098,28.3062,150.3162,-35.8925,-0.3088988157963069,-1.4659773372046696,37.95156740649052,18.953094375387977
-0.0616,0.9426,-0.0091,-0.1378,0.1468,0.1098,28.8575,146.1337,-39.83,-0.5455184351279175,-3.651038140463177,37.113069482932985,18.96538969813268
-0.0895,0.9752,-0.0188,-0.1334,0.1483,0.0949,29.2075,141.1287,-42.4375,-1.0871978058473402,-5.186853005405398,33.78396167539787,18.977861623912688
-0.1145,1.0055,-0.0172,-0.1248,0.149,0.08,27.93,135.0037,-43.1113,-0.9834391985198511,-6.450680974411001,30.422100508066034,18.98996264792716
-0.1271,1.0424,-0.0064,-0.1248,0.149,0.08,24.71,128.5637,-42.3937,-0.374364339163089,-6.934027856789401,29.705560352587604,19.00221337752066
-0.1217,1.0324,-0.0052,-0.1185,0.151,0.0685,21.4112,122.2813,-42.245,-0.2920635543619533,-6.7304131747153315,27.1253172832191,19.014497375020614
-0.1106,1.0178,0.0046,-0.1185,0.151,0.0685,13.2562,111.8513,-41.6937,0.22556888742200445,-6.220747714355339,26.82035872016762,19.02672262281343
-0.1031,0.9979,0.0088,-0.1134,0.1529,0.0605,11.3837,108.3163,-41.755,0.48613965817569,-5.910059230165823,24.7251668887127,19.038114757289385
-0.1053,0.9783,0.0101,-0.1072,0.1567,0.0498,9.9488,104.895,-42.4987,0.5835201375800206,-6.134932129645195,21.35871156795128,19.05037822778323
-0.1535,0.9921,0.0169,-0.1072,0.1567,0.0498,9.8087,101.115,-42.385,0.9458680381304655,-8.700434041181191,19.936186509591174,19.062619401701475
-0.1833,1.0106,0.0139,-0.1034,0.157,0.0387,8.8025,96.6613,-40.7487,0.8011050630595292,-10.22052949764049,15.759352316286577,19.074852435600057
-0.2108,1.0285,0.0207,-0.1034,0.157,0.0387,6.6588,91.875,-38.1237,1.1174912078954933,-11.524315726887009,14.970837148702698,19.087065650320326
-0.2242,1.0371,0.0289,-0.1014,0.161,0.0286,4.8213,85.8813,-35.28,1.5368962664602965,-12.16249218741807,10.306876811706362,19.099306116410773
-0.2377,1.0331,0.0307,-0.0994,0.161,0.0234,2.3975,80.2113,-33.565,1.6728701777957384,-12.911585599093783,7.987964397755911,19.111657357551422
-0.2665,1.0153,0.0444,-0.0994,0.161,0.0234,0.2975,73.7538,-31.3687,2.2697667663929826,-14.59169463989453,6.809088900751747,19.12087999983012
-0.2747,1.0097,0.0503,-0.0975,0.1641,0.0174,-1.3737,66.2725,-30.0562,2.5417890878138008,-15.16374073440703,3.8842902289536303,19.133075872769368
-0.2777,1.0057,0.0531,-0.0975,0.1641,0.0174,-3.0538,58.4238,-29.1637,2.755821140850979,-15.39920460550811,3.626899404455142,19.14526006654997
-0.2709,1.0057,0.0574,-0.0956,0.1662,0.014,-3.5263,51.2225,-26.8275,3.042129488346954,-15.079194356668493,1.9371027320998593,19.15738161757055
-0.26,1.0085,0.0576,-0.0942,0.1659,0.0098,-3.8413,35.6388,-25.1037,3.181342859513704,-14.491843437574422,0.19069668820903474,19.169574305284712
-0.241,1.0161,0.0553,-0.0942,0.1659,0.0098,-4.3575,29.0587,-23.4937,3.136476371977711,-13.446273097338066,0.3342894447964628,19.18176734691277
-0.2386,1.0185,0.06,-0.0921,0.1669,0.0129,-5.7225,22.33,-21.9013,3.318870151221741,-13.19832927819264,1.3259564298939994,19.19390305448929
-0.2301,1.0161,0.0644,-0.0921,0.1669,0.0129,-7.28,16.1437,-20.3175,3.5755037027512673,-12.807691453071252,1.0649752358179643,19.206081585647517
-0.2205,1.0068,0.0624,-0.095,0.1662,0.0067,-7.805,10.4387,-20.0375,3.550986673791837,-12.40878612175841,1.3441344010560485,19.21828559860643
-0.2094,0.9994,0.0618,-0.0943,0.1661,0.0092,-8.4175,5.2937,-20.16,3.540241766491218,-11.907921407290594,0.6527695158749679,19.23042732271922
-0.187,0.993,0.0658,-0.0943,0.1661,0.0092,-9.1525,0.56,-20.2388,3.759349613123566,-10.8433446002048,0.7231082381336809,19.239704821652168
-0.1754,0.995,0.0689,-0.0911,0.167,0.0134,-9.0738,-3.8413,-21.8487,3.935392221458538,-10.08408949980195,0.6167636884888867,19.251835928348005
-0.1665,0.9984,0.0708,-0.0911,0.167,0.0134,-9.0037,-6.6413,-22.75,4.040662970455671,-9.517267689044248,0.7423718574075716,19.263995702069614
-0.1575,1.0003,0.0697,-0.0902,0.1678,0.0121,-9.8525,-9.7475,-22.6625,3.992245091768835,-8.994400414795724,0.24761646110288965,19.276160076671907
-0.1468,0.9993,0.0716,-0.0885,0.1698,0.0164,-10.9025,-11.5237,-22.47,4.087265147336617,-8.41331911407742,2.0146495571365115,19.288435580238296
-0.1301,0.9956,0.0692,-0.0885,0.1698,0.0164,-13.09,-14.035,-20.65,3.985394289530391,-7.5743547252752474,2.36880983578618,19.300722762963332
-0.12,0.9923,0.0788,-0.0884,0.1685,0.021,-14.0525,-15.365,-20.405,4.4970586721709855,-6.98240476190188,3.926155312702075,19.312959336000898
-0.1176,0.9806,0.0822,-0.0886,0.1684,0.0231,-13.5712,-15.1812,-19.5037,4.767772816262786,-6.845091073698066,4.686927216931656,19.325286510996456
-0.1109,0.9733,0.0793,-0.0886,0.1684,0.0231,-13.9737,-14.6912,-18.8563,4.66654279056948,-6.553657330041166,4.966998558610952,19.337538302331655
-0.1011,0.9748,0.0864,-0.0875,0.1684,0.0254,-14.7437,-14.98,-18.1475,5.035555525910577,-6.054294963216558,5.658430360958745,19.349916087014684
-0.0973,0.9698,0.0845,-0.0875,0.1684,0.0254,-14.4987,-14.455,-17.9725,4.9839007430141145,-5.793917190509063,5.85589243459644,19.36206595114714
-0.0897,0.97,0.0911,-0.0879,0.1699,0.0186,-14.6475,-13.9038,-17.6487,5.336867211302609,-5.404520403077503,1.734171738316612,19.37436127389184
-0.0828,0.9706,0.0974,-0.0867,0.1674,0.0308,-14.3413,-13.3087,-17.185,5.700397019991724,-5.0225039858864,7.477325271450308,19.386653057497558
-0.0771,0.9681,0.105,-0.0867,0.1674,0.0308,-13.8425,-11.7075,-17.5438,6.151205414660425,-4.664812030826505,7.198461596741876,19.398936701083613
-0.0784,0.9664,0.1048,-0.0862,0.1686,0.0335,-13.5887,-9.9575,-17.3687,6.186102831839297,-4.626797606300371,8.511087406906912,19.41113469750625
-0.0819,0.9657,0.1036,-0.0862,0.1686,0.0335,-13.615,-8.3387,-17.4212,6.128337691303868,-4.764422930467471,8.671671657041271,19.423378702735683
-0.0802,0.9621,0.1107,-0.0875,0.1677,0.037,-13.02,-6.9825,-17.71,6.526648677632518,-4.742108649566265,9.721191519250704,19.43561244446206
-0.0784,0.9614,0.1154,-0.0858,0.1688,0.0362,-12.7925,-6.2737,-17.4825,6.817100774751341,-4.660960655895903,9.126155758279689,19.447849017499625
-0.0795,0.9608,0.1171,-0.0858,0.1688,0.0362,-13.0113,-5.4688,-17.3425,6.937602740088747,-4.685319892277202,8.88923000596965,19.46007037223956
-0.078,0.9575,0.1199,-0.0839,0.1689,0.0402,-12.4862,-4.1038,-16.5025,7.119741227072308,-4.646312952032117,10.637375342492069,19.47226270603982
-0.0791,0.9532,0.1272,-0.0834,0.1692,0.0423,-11.655,-3.2375,-16.0562,7.554692258761354,-4.67571705817748,11.223793406674341,19.48449892516349
-0.0849,0.9509,0.1282,-0.0834,0.1692,0.0423,-11.1475,-2.275,-16.415,7.665809221081214,-4.902182566191335,11.135495486759458,19.496752839982076
-0.0864,0.9465,0.133,-0.0823,0.1704,0.0419,-10.0537,-1.4262,-16.1612,7.960884009346918,-5.046388262863642,10.543773938330965,19.508975256463707
-0.0849,0.9473,0.133,-0.0823,0.1704,0.0419,-7.3325,-0.7613,-16.9662,7.9869107037367195,-5.063423425118396,10.420070840726137,19.51819117437833
-0.0888,0.9517,0.1282,-0.0849,0.1685,0.0463,-6.3,-1.1375,-17.0187,7.734305190630521,-5.211630335902535,12.29448712845957,19.5303824464369
-0.0944,0.9543,0.1323,-0.0853,0.1695,0.041,-4.935,-0.3763,-17.115,7.849872758773019,-5.474757653072495,10.692936826827328,19.542567701959197
-0.0914,0.9525,0.1327,-0.0853,0.1695,0.041,-4.795,0.315,-16.6163,7.908295849749197,-5.446204379885057,10.206821142049874,19.555703216298724
-0.0903,0.9567,0.1319,-0.085,0.1694,0.044,-4.0513,0.5513,-16.8,7.870731291706798,-5.378385321525764,10.69273624100644,19.56798615205698
-0.0917,0.9637,0.1282,-0.085,0.1694,0.044,-3.78,0.8838,-17.3337,7.693442102309783,-5.385425360583697,10.9682217122722,19.57895217419925
-0.095,0.9598,0.1268,-0.0838,0.1692,0.0449,-3.045,1.26,-16.835,7.6192404697850415,-5.5284767909858115,11.088146913180857,19.590903138720797
-0.0981,0.9602,0.1267,-0.0882,0.1706,0.0429,-1.715,1.0325,-16.4587,7.583519533808046,-5.68202588558689,11.059164250104839,19.603103966454622
-0.0943,0.9584,0.1312,-0.0882,0.1706,0.0429,-1.2862,1.5225,-15.575,7.687374687973598,-5.638014816878085,10.90939991069375,19.615334876869813
-0.0918,0.9655,0.1255,-0.0858,0.1682,0.0427,-0.9625,1.855,-15.33,7.528983941501892,-5.5684396849956,11.146225258575454,19.624728459561442
-0.09,0.9666,0.12,-0.0858,0.1682,0.0427,-0.5338,1.68,-15.3125,7.243267428532993,-5.49116000870652,11.45404692348731,19.63683585402609
-0.0936,0.9667,0.1251,-0.0857,0.1673,0.0423,-0.5163,1.6013,-15.0587,7.325955921351198,-5.49053856340189,11.434065966124834,19.648936170212764
-0.0942,0.9679,0.1257,-0.0857,0.1673,0.0421,-0.0875,1.995,-14.9187,7.376263744283183,-5.491169835634563,11.341930389613234,19.661047103816394
-0.094,0.9682,0.1202,-0.085,0.1684,0.0421,-0.0263,1.8288,-15.7237,7.16976904966953,-5.496482610279852,11.501979892281424,19.67312476951357
-0.0908,0.9736,0.1182,-0.0818,0.1698,0.0429,0.07,1.3387,-16.135,6.996697824557047,-5.3841390584346405,11.679725347106158,19.685181554290743
-0.0939,0.9709,0.1156,-0.0818,0.1698,0.0429,0.4112,0.8138,-16.3275,6.846403801585401,-5.442983045298982,12.016431225479845,19.694499045494215
-0.0949,0.9702,0.1167,-0.0852,0.17,0.0406,0.6388,0.49,-16.7038,6.8556433214945,-5.509177626920933,11.659927639803936,19.706540965887655
-0.092,0.9714,0.1186,-0.0852,0.17,0.0406,0.4812,-0.1312,-16.0387,6.932692714073237,-5.436894348981611,11.301218756975558,19.71867879694756
-0.0864,0.9709,0.1078,-0.0836,0.1687,0.0441,0.245,-0.3413,-15.855,6.506444960945104,-5.254985913950342,13.147056171267456,19.73071186949354
-0.0855,0.9698,0.1082,-0.0818,0.1686,0.0405,-0.3938,-0.4025,-16.7388,6.415241683267265,-5.096115730889594,12.806491774560516,19.74290278763821
-0.0789,0.9705,0.1064,-0.0818,0.1686,0.0405,0.3675,0.175,-16.485,6.300437199874968,-4.80782571615636,12.864001984146253,19.755129805000518
-0.0807,0.9708,0.1089,-0.0852,0.1684,0.0418,-0.455,0.7525,-16.7125,6.364662745296125,-4.75332289559637,12.887272761706315,19.76707546081359
-0.0814,0.9687,0.1086,-0.0852,0.1684,0.0418,-0.6913,0.8925,-16.9487,6.38416085927864,-4.766791730252538,12.896695046397781,19.775723700835165
-0.0876,0.9713,0.1008,-0.0827,0.169,0.0386,-1.2862,0.7875,-17.675,6.15864916659451,-5.0296873426726405,12.671925328671648,19.787939039038825
-0.0877,0.98,0.1006,-0.0831,0.1686,0.0407,-0.6125,0.9363,-18.3575,5.973854938050504,-5.074136951733893,12.80522836380667,19.80011757019705
-0.0918,0.9896,0.099,-0.0831,0.1686,0.0407,-1.0587,1.2862,-18.795,5.831936727248947,-5.232517391320607,12.875939150067891,19.812313443136297
-0.0963,0.9997,0.0974,-0.0829,0.1694,0.0415,-1.7762,0.9887,-18.3575,5.745935224452552,-5.421161528442525,13.07206655682374,19.8244749864274
-0.0935,0.9977,0.1019,-0.0829,0.1694,0.0415,-2.6775,1.12,-16.9225,5.771579927223531,-5.358204359387072,13.107971675883423,19.836731378643275
-0.0916,0.9933,0.0993,-0.0838,0.1682,0.0478,-4.4713,1.9512,-15.9337,5.728348762041855,-5.3009193912615995,14.921921026257575,19.84887239492827
-0.0891,0.9836,0.0991,-0.0847,0.1682,0.0399,-5.3113,2.4938,-15.5487,5.747131771266476,-5.24432336849887,13.771497654060251,19.861055526967174
-0.088,0.9803,0.1086,-0.0847,0.1682,0.0399,-5.4425,2.5638,-15.505,6.184542253364101,-5.192181797715124,12.731068243267902,19.8698934648383
-0.0852,0.9789,0.1103,-0.0846,0.1684,0.0417,-5.6,3.115,-16.2488,6.372661134820907,-5.051392101235809,12.800322462262864,19.88205925509618
-0.0888,0.9837,0.1122,-0.0846,0.1684,0.0417,-5.4862,3.1675,-16.765,6.475273178972553,-5.098960426527669,12.695262401164412,19.894264329796787
-0.0939,0.9736,0.1175,-0.0823,0.1706,0.0419,-6.3963,3.5438,-16.6775,6.802571308355119,-5.333733091953671,12.288858257705186,19.90645489402756
-0.0978,0.9712,0.1171,-0.0838,0.1696,0.0442,-6.5538,3.7538,-16.6513,6.861428574777068,-5.570332859378445,12.933608481621011,19.91864864348342
-0.0959,0.9692,0.1217,-0.0838,0.1696,0.0442,-6.5275,3.6488,-16.275,7.101008433420684,-5.59132141064204,12.80748104312987,19.930822573760963
-0.0929,0.972,0.1206,-0.084,0.1681,0.042,-6.0113,3.2725,-17.2987,7.078705703156592,-5.4698873176028755,12.17000747497434,19.94301844670021
-0.0953,0.9678,0.1257,-0.084,0.1681,0.042,-6.5188,3.4563,-17.465,7.33923331390009,-5.546746253270986,11.546724664753391,19.95184824455167
-0.0983,0.9626,0.1277,-0.0837,0.1682,0.0429,-6.1687,3.8675,-17.255,7.5125775643283905,-5.709812087950718,11.485910763403282,19.964045179232613
-0.1014,0.954,0.1225,-0.0837,0.1695,0.0436,-5.5125,3.5788,-17.1675,7.3629852421937665,-5.922348520379966,11.884674485383634,19.976235743463384
-0.105,0.9517,0.129,-0.0833,0.1695,0.0436,-5.1625,3.2288,-17.6487,7.628151833971824,-6.153666296370531,11.534158705745321,19.988404365032455
-0.106,0.9573,0.1259,-0.0813,0.1706,0.0447,-4.1125,2.9313,-17.3337,7.539769977779785,-6.232116076520319,12.122749381616355,20.000611209302555
-0.1052,0.9664,0.1257,-0.0813,0.1706,0.0447,-2.1875,2.135,-17.08,7.532098684732815,-6.183790436572681,12.371465522965142,20.012806728327902
-0.1013,0.9715,0.1331,-0.0804,0.1691,0.0442,-2.0125,1.4437,-17.0012,7.583885513361368,-5.991679841741783,12.299253584686706,20.024997292558677
-0.0992,0.9746,0.1261,-0.0804,0.1691,0.0442,-1.96,1.4262,-17.0187,7.536228807799593,-5.838235727293048,12.399395783757413,20.037108226162303
-0.1023,0.975,0.1299,-0.0806,0.1711,0.0425,-1.54,1.4875,-17.605,7.558099536823105,-5.91046369276852,12.125316232316344,20.046000312859885
-0.1001,0.9725,0.129,-0.082,0.1703,0.0428,-2.5375,1.4088,-17.9375,7.5576425439352475,-5.8472575019967445,11.991056174215638,20.05824537983101
-0.1056,0.9737,0.1281,-0.082,0.1703,0.0428,-3.0275,1.6275,-18.1037,7.530166594325243,-6.0674250404820915,11.811550722715534,20.070141841612205
-0.1049,0.9719,0.1287,-0.081,0.1708,0.0429,-3.5875,1.7413,-18.76,7.537667649612749,-6.099050542629215,11.68611852332029,20.082388324238924
-0.1125,0.9628,0.1255,-0.081,0.1708,0.0429,-4.1038,1.785,-18.4188,7.465513105308738,-6.495087016893104,11.61528567683332,20.09458242760868
-0.1144,0.9622,0.1247,-0.0794,0.1703,0.0418,-3.8675,1.5225,-18.4188,7.4153411748800915,-6.673257516407105,11.49642013099739,20.10714318577719
-0.1132,0.9632,0.1271,-0.0803,0.1724,0.0449,-3.3163,0.9975,-18.7425,7.467829989687202,-6.651563013552124,11.628572589840815,20.119252349811326
-0.1149,0.9751,0.1284,-0.0803,0.1724,0.0449,-3.1675,0.1575,-19.04,7.4839246319370725,-6.661081739556784,12.007947218937685,20.128626113324643
-0.1121,0.9745,0.1315,-0.0792,0.1706,0.0442,-3.9113,0.14,-18.3312,7.609502047073852,-6.539565590893328,12.018068508348376,20.140683605929613
-0.1107,0.9706,0.1285,-0.0792,0.1706,0.0442,-3.7362,0.875,-18.0338,7.568958044233511,-6.472556046950214,12.081459433797805,20.152835593545458
-0.1094,0.9686,0.1297,-0.0801,0.1707,0.0434,-4.2,1.0325,-17.815,7.607187789336205,-6.409506871892882,12.021969340501462,20.164926707970775
-0.1076,0.9686,0.1343,-0.0805,0.171,0.0446,-4.0775,0.84,-17.0012,7.792498703916712,-6.321950725057398,11.961039615879256,20.17705002856085
-0.1025,0.9675,0.1324,-0.0805,0.171,0.0446,-3.4125,0.7437,-16.6163,7.79243708043457,-6.115717165514689,11.988460892089014,20.18910079680175
-0.1036,0.966,0.136,-0.0782,0.1707,0.0446,-3.1412,0.8575,-16.8787,7.896710370371962,-6.080352802966321,11.977982939892492,20.20122517913352
-0.1004,0.9684,0.1285,-0.0782,0.1707,0.0446,-3.64,1.0587,-17.045,7.700114288644482,-5.936558539311688,12.066935973363146,20.213273823891026
-0.1028,0.9744,0.1315,-0.0773,0.1731,0.041,-2.975,1.8375,-16.975,7.694146772025115,-5.9581225467803005,11.402832154725914,20.222955138582062
-0.0956,0.9742,0.1282,-0.0793,0.1716,0.0469,-3.255,2.9575,-16.205,7.595250971302903,-5.734713429579295,13.128841940171027,20.234881329130722
-0.0993,0.9739,0.1269,-0.0793,0.1716,0.0469,-3.3775,3.1412,-16.2663,7.504450818136777,-5.756687710635415,13.795964882192415,20.246899891206866
-0.0989,0.9686,0.1282,-0.0778,0.1723,0.0446,-3.85,4.4975,-15.8112,7.52608693212718,-5.767480989489712,13.021203402574711,20.2590320596444
-0.1002,0.9656,0.1259,-0.0778,0.1723,0.0446,-2.9575,5.1275,-15.6275,7.485726840803002,-5.810977115376632,12.962391253504904,20.27113874628125
-0.104,0.9656,0.1231,-0.0777,0.1716,0.0353,-2.38,5.2238,-15.6887,7.460490789944833,-5.933270969421807,8.912688363291316,20.283259943387932
-0.106,0.965,0.1262,-0.0765,0.1707,0.0454,-2.52,5.1363,-16.485,7.458413638788807,-6.104552843013631,12.606857440215766,20.295319205562393
-0.1014,0.9634,0.1279,-0.0765,0.1707,0.0454,-2.1613,5.3113,-17.0625,7.466946812750894,-6.004039467458051,13.283768280023219,20.30471101868453
-0.1074,0.9723,0.1246,-0.078,0.1725,0.0438,-2.1,5.7137,-18.0862,7.445417983946604,-6.192536444637638,12.670804553684707,20.31689945943191
-0.1112,0.9755,0.1282,-0.078,0.1725,0.0438,-2.485,6.0113,-18.27,7.453288743352621,-6.389095099738494,12.234597782313031,20.328930408494497
-0.1205,0.9728,0.1213,-0.0791,0.1727,0.0395,-2.03,5.7838,-18.1037,7.39077297859759,-6.858689915363585,10.48660756605166,20.34097869933811
-0.1288,0.9708,0.125,-0.0791,0.1736,0.0472,-2.52,5.4338,-17.5438,7.379371923101455,-7.319020601111424,13.027629812541223,20.353114053000727
-0.128,0.9697,0.1234,-0.0766,0.1736,0.0472,-2.3187,4.4187,-16.4762,7.371286833862664,-7.404281177580533,13.855107316614696,20.365241266643686
-0.1285,0.9675,0.1294,-0.0786,0.1715,0.041,-2.59,3.7888,-16.065,7.433756904993556,-7.4545434793095495,11.117616159678821,20.377358924611382
-0.1312,0.9622,0.1293,-0.0786,0.1715,0.041,-2.7475,2.94,-15.75,7.506693839466935,-7.562141608224467,10.375608591434373,20.38941464764686
