AcclX,AcclY,AcclZ,MagX,MagY,MagZ,GyroX,GyroY,GyroZ,Roll,Pitch,Yaw,Time(s)
-0.0795,0.9881,-0.0751,-0.2226,0.2246,-0.051,-3.1937,1.0762,-12.8537,0,0,0,1.6205606954030167
-0.0729,0.9647,-0.0737,-0.2208,0.2262,-0.0479,-2.5988,1.1025,-12.6787,0,0,0,1.632775053998776
-0.0775,0.9884,-0.0755,-0.2208,0.2243,-0.047,-2.1525,0.8575,-12.6787,0,0,0,1.6449359712365161
-0.077,0.988,-0.0778,-0.2208,0.2243,-0.047,-2.6688,1.0412,-12.95,0,0,0,1.6572239444181562
-0.0777,0.9913,-0.0689,-0.2222,0.2244,-0.0524,-2.2925,1.2687,-13.3612,0,0,0,1.669401495720975
-0.0823,0.9878,-0.0769,-0.2222,0.2244,-0.0524,-3.08,1.3212,-13.0725,0,0,0,1.6817248605304427
-0.0817,0.9872,-0.0719,-0.2198,0.2244,-0.052,-3.2462,1.365,-12.8537,0,0,0,1.6938542792194164
-0.0777,0.99,-0.0733,-0.2198,0.2244,-0.052,-2.7475,1.5312,-12.7837,0,0,0,1.7060537733314882
-0.0723,0.9886,-0.0761,-0.2186,0.221,-0.0458,-2.3538,0.945,-12.6787,0,0,0,1.7182918443178918
-0.0755,0.9899,-0.0743,-0.2207,0.2236,-0.0518,-2.4063,1.1462,-12.9762,0,0,0,1.7304212630068656
-0.0784,0.9872,-0.0734,-0.2207,0.2236,-0.0518,-2.5725,1.715,-12.9762,0,0,0,1.7400230116364133
-0.0765,0.9866,-0.0708,-0.2215,0.2258,-0.0523,-2.6863,1.2337,-12.74,0,0,0,1.7521676487253528
-0.0793,0.9874,-0.0736,-0.2215,0.2258,-0.0523,-3.2025,1.1812,-12.9325,0,0,0,1.7644811038790285
-0.0773,0.9887,-0.0784,-0.2211,0.2245,-0.0562,-2.415,1.2425,-13.0025,0,0,0,1.7765811475169055
-0.077,0.9892,-0.0744,-0.2217,0.225,-0.0512,-2.555,1.0062,-13.3962,0,0,0,1.7889232698891215
-0.0783,0.9884,-0.0758,-0.2217,0.225,-0.0512,-2.7037,0.6475,-12.915,0,0,0,1.8010735696385134
-0.0742,0.9894,-0.0708,-0.2191,0.2253,-0.0549,-3.115,0.6212,-13.2125,0,0,0,1.81328438907149
-0.0753,0.9895,-0.0771,-0.2191,0.2253,-0.0534,-2.6163,1.4787,-13.2125,0,0,0,1.8254909615091273
-0.0753,0.9897,-0.0734,-0.2204,0.2244,-0.0534,-2.135,1.6013,-13.6588,0,0,0,1.8377219541699654
-0.0753,0.9895,-0.0776,-0.2206,0.225,-0.0509,-2.5288,1.2163,-13.405,0,0,0,1.8499157856215849
-0.0805,0.9889,-0.0739,-0.2206,0.225,-0.0509,-2.73,1.4875,-12.6437,0,0,0,1.8621396999568576
-0.0772,0.987,-0.0702,-0.2235,0.2246,-0.055,-2.0738,1.575,-12.7575,0,0,0,1.8743728161153652
-0.0764,0.9893,-0.0739,-0.221,0.2246,-0.0544,-3.08,1.1112,-13.1162,0,0,0,1.8865999156971425
-0.0772,0.9884,-0.0722,-0.221,0.2246,-0.0544,-2.87,0.7263,-12.985,0,0,0,1.8987470302000298
-0.0768,0.9892,-0.0709,-0.2208,0.2266,-0.0507,-2.2662,1.1725,-13.0462,0,0,0,1.9110226163119304
-0.0793,0.9891,-0.0788,-0.2208,0.2266,-0.0507,-2.7475,1.4525,-12.81,0,0,0,1.9232571481355514
-0.0797,0.9884,-0.072,-0.2184,0.2262,-0.0481,-1.8288,1.7325,-12.6087,0,0,0,1.9354800007219892
-0.0801,0.9881,-0.0753,-0.2202,0.2246,-0.0509,-2.4588,2.0213,-12.95,0,0,0,1.9477435536804284
-0.078,0.9903,-0.076,-0.2202,0.2246,-0.0509,-2.8525,1.3912,-13.3,0,0,0,1.959800065616078
-0.0784,0.9884,-0.075,-0.2194,0.2246,-0.0509,-2.4675,1.3562,-13.02,0,0,0,1.9693706696131377
-0.0764,0.9905,-0.0695,-0.2194,0.2246,-0.0509,-2.975,1.5837,-13.2475,0,0,0,1.981602016190254
-0.077,0.9891,-0.0723,-0.2218,0.2231,-0.0535,-2.7738,1.1112,-12.5212,0,0,0,1.993851058581284
-0.0769,0.9897,-0.0736,-0.2202,0.2261,-0.0514,-2.5725,1.33,-12.9762,0,0,0,2.0061397395954805
-0.0804,0.9871,-0.0737,-0.2202,0.2261,-0.0514,-2.6075,0.7613,-13.5537,0,0,0,2.0182500468054276
-0.0773,0.9885,-0.0712,-0.2163,0.2254,-0.051,-2.45,1.0675,-13.5625,0,0,0,2.030491303038336
-0.0783,0.9889,-0.0748,-0.2163,0.2254,-0.051,-2.5988,1.6887,-13.2825,0,0,0,2.0427389297642526
-0.0757,0.9889,-0.0757,-0.2178,0.2253,-0.0512,-2.3013,1.4437,-12.8362,0,0,0,2.0548718876160095
-0.0783,0.9901,-0.0772,-0.22,0.2246,-0.0508,-2.6163,1.2337,-12.9325,0,0,0,2.067150305058136
-0.0769,0.9884,-0.073,-0.22,0.2246,-0.0508,-2.5375,1.0675,-12.775,0,0,0,2.0793260867795635
-0.0752,0.9886,-0.0771,-0.2198,0.2238,-0.0525,-2.17,1.0412,-13.3875,0,0,0,2.091545754119497
-0.078,0.9885,-0.0716,-0.221,0.225,-0.0504,-2.5988,1.0762,-13.4488,0,0,0,2.1037746232826655
-0.0794,0.9884,-0.0746,-0.221,0.225,-0.0504,-2.66,1.0325,-12.9762,0,0,0,2.1159560676645452
-0.0804,0.9889,-0.0769,-0.2214,0.2245,-0.0502,-2.6775,1.3125,-13.4225,0,0,0,2.1282199745392627
-0.0761,0.9894,-0.0717,-0.2214,0.2245,-0.0502,-2.3275,1.5837,-13.4575,0,0,0,2.1404346870513002
-0.0777,0.9883,-0.0752,-0.2196,0.226,-0.053,-2.1175,1.435,-12.9325,0,0,0,2.152716997572488
-0.0784,0.99,-0.0744,-0.2214,0.2239,-0.051,-2.8525,1.505,-12.9937,0,0,0,2.164829428280105
-0.0769,0.9877,-0.0728,-0.2214,0.2239,-0.051,-3.115,1.19,-12.9675,0,0,0,2.177056527861882
-0.0763,0.9892,-0.0727,-0.2214,0.2234,-0.051,-2.9313,1.3475,-13.2475,0,0,0,2.1892776108669283
-0.079,0.9873,-0.0728,-0.2214,0.2234,-0.051,-3.0975,1.4875,-13.4225,0,0,0,2.2014452525139556
-0.0794,0.9865,-0.0744,-0.2192,0.2254,-0.0494,-2.6338,1.0412,-13.2475,0,0,0,2.210955690743709
-0.0793,0.9896,-0.0719,-0.2202,0.2242,-0.0511,-2.345,1.3037,-12.7312,0,0,0,2.2231859755719907
-0.077,0.9873,-0.0716,-0.2202,0.2242,-0.0511,-3.185,1.47,-12.6787,0,0,0,2.2354233387258375
-0.0784,0.9881,-0.0741,-0.2205,0.2241,-0.0516,-2.6338,1.6887,-12.9675,0,0,0,2.247679459442433
-0.0788,0.9892,-0.0751,-0.2205,0.2241,-0.0516,-2.6163,1.2425,-13.4488,0,0,0,2.260047417702963
-0.0752,0.989,-0.0711,-0.2206,0.225,-0.0466,-3.0713,1.295,-13.79,0,0,0,2.272095081731656
-0.0778,0.9887,-0.0747,-0.2204,0.2246,-0.0517,-2.9138,1.4088,-13.2825,0,0,0,2.2844779044758727
-0.0819,0.9884,-0.0721,-0.2204,0.2246,-0.0517,-2.695,1.3037,-12.7312,0,0,0,2.29655954446728
-0.0799,0.9891,-0.069,-0.2193,0.2243,-0.0508,-2.6075,1.295,-12.8975,0,0,0,2.308754083751456
-0.0742,0.9883,-0.0687,-0.2186,0.2245,-0.0478,-2.1175,1.1025,-13.0812,0,0,0,2.320913585324083
-0.0775,0.9869,-0.0736,-0.2186,0.2245,-0.0478,-2.1263,1.5225,-13.3787,0,0,0,2.333211822077793
-0.0766,0.989,-0.0737,-0.2204,0.2243,-0.0512,-2.3538,1.3912,-13.3962,0,0,0,2.34539999086896
-0.0779,0.9905,-0.0712,-0.2204,0.2243,-0.0512,-3.0888,1.1638,-12.8975,0,0,0,2.357611164218215
-0.0762,0.9866,-0.0702,-0.2196,0.2249,-0.0531,-3.57,0.9538,-13.0812,0,0,0,2.3697961477628775
-0.0764,0.9888,-0.0723,-0.2208,0.2247,-0.0507,-2.8175,1.2512,-12.9237,0,0,0,2.3820239551772113
-0.0778,0.9888,-0.0762,-0.2208,0.2247,-0.0507,-2.1088,1.155,-13.1075,0,0,0,2.39425282434038
-0.0758,0.99,-0.0718,-0.2199,0.2242,-0.0525,-2.6688,1.2337,-12.8013,0,0,0,2.406490895326783
-0.0769,0.9875,-0.0703,-0.2199,0.2242,-0.0525,-2.73,1.12,-13.0462,0,0,0,2.41865039689941
-0.0788,0.9874,-0.0722,-0.221,0.2245,-0.0541,-3.2375,1.3562,-13.4575,0,0,0,2.430834672611516
-0.0784,0.9885,-0.0708,-0.2217,0.2247,-0.0504,-3.325,1.2337,-13.0987,0,0,0,2.4403755476412012
-0.0815,0.9892,-0.0759,-0.2217,0.2247,-0.0504,-2.4325,1.54,-12.7225,0,0,0,2.452681570553033
-0.0788,0.9889,-0.0725,-0.2191,0.2254,-0.0502,-2.9575,1.4962,-12.67,0,0,0,2.4648906204046184
-0.0792,0.9892,-0.0741,-0.2191,0.2254,-0.0502,-2.3013,1.33,-12.7662,0,0,0,2.4770373809912276
-0.0788,0.9875,-0.0748,-0.2194,0.2279,-0.0569,-2.6425,1.5837,-13.3962,0,0,0,2.4892885468799273
-0.075,0.988,-0.0709,-0.2214,0.2246,-0.0532,-2.5025,1.7237,-13.3875,0,0,0,2.5015174160430957
-0.0766,0.9893,-0.0737,-0.2214,0.2246,-0.0532,-2.3888,1.4787,-12.7312,0,0,0,2.5137459312899857
-0.0786,0.9888,-0.072,-0.2203,0.2248,-0.0529,-2.66,1.4875,-13.2212,0,0,0,2.525900478034717
-0.0783,0.9889,-0.0775,-0.2215,0.2259,-0.051,-2.5288,1.4787,-12.5212,0,0,0,2.5381509360908603
-0.0773,0.9888,-0.0749,-0.2215,0.2259,-0.051,-2.6863,1.5225,-13.02,0,0,0,2.5503433518773666
-0.0781,0.9868,-0.0696,-0.2189,0.2242,-0.0508,-3.3075,1.54,-13.0288,0,0,0,2.5625853159428313
-0.0794,0.9892,-0.0711,-0.2189,0.2242,-0.0508,-3.535,1.2337,-12.8625,0,0,0,2.5748619638035666
-0.0752,0.9884,-0.0734,-0.2204,0.2247,-0.0494,-2.6338,1.4437,-12.53,0,0,0,2.5869839502506964
-0.0777,0.9879,-0.078,-0.2214,0.2241,-0.0536,-2.485,1.225,-13.1425,0,0,0,2.599214235078978
-0.0783,0.9898,-0.0778,-0.2214,0.2241,-0.0536,-3.2638,1.3212,-13.0025,0,0,0,2.6114445199072596
-0.0782,0.9891,-0.0739,-0.2203,0.2243,-0.0502,-2.625,1.505,-13.2562,0,0,0,2.623776732623684
-0.0782,0.9878,-0.0708,-0.2203,0.2243,-0.0502,-2.45,1.1112,-13.1775,0,0,0,2.63586261961043
-0.0775,0.9878,-0.0755,-0.2217,0.2246,-0.0471,-1.9075,1.8637,-12.8013,0,0,0,2.6481123698340165
-0.0783,0.9878,-0.0733,-0.2192,0.2252,-0.0502,-1.82,1.3475,-12.95,0,0,0,2.6605397860292963
-0.0798,0.9881,-0.0756,-0.2192,0.2252,-0.0502,-2.8,1.0937,-12.915,0,0,0,2.672461809779202
-0.0742,0.9878,-0.0749,-0.221,0.2247,-0.0505,-2.7738,0.9363,-12.9937,0,0,0,2.681924823227667
-0.0747,0.9897,-0.0714,-0.221,0.2247,-0.0505,-2.2488,1.12,-13.195,0,0,0,2.6934009124669487
-0.0755,0.9902,-0.0747,-0.2202,0.2254,-0.0537,-2.2838,1.0062,-12.7662,0,0,0,2.705714367620624
-0.075,0.9893,-0.0776,-0.2199,0.2241,-0.0519,-2.9925,0.9887,-12.5738,0,0,0,2.718132935908947
-0.078,0.9888,-0.0764,-0.2199,0.2241,-0.0519,-3.2375,0.805,-13.65,0,0,0,2.7302099749887367
-0.08,0.9881,-0.0732,-0.2196,0.2238,-0.0444,-3.0888,1.4175,-13.4225,0,0,0,2.742464680040219
-0.078,0.9876,-0.0765,-0.2196,0.2238,-0.0491,-2.8263,1.8288,-13.1862,0,0,0,2.755273617983477
-0.0764,0.9898,-0.0754,-0.2219,0.2232,-0.0491,-2.6338,1.1375,-13.6062,0,0,0,2.767628835257989
-0.0794,0.989,-0.0777,-0.2184,0.2238,-0.0516,-2.7125,1.19,-13.5362,0,0,0,2.7797356033051535
-0.0761,0.9894,-0.0738,-0.2184,0.2238,-0.0516,-2.8963,1.4875,-13.0812,0,0,0,2.79193615916606
-0.0753,0.9884,-0.0689,-0.221,0.2239,-0.0486,-3.36,1.4962,-12.6087,0,0,0,2.8041547647571585
-0.0743,0.9858,-0.0744,-0.2218,0.2248,-0.0531,-2.6688,1.365,-13.0987,0,0,0,2.8164126550551454
-0.0779,0.9884,-0.0746,-0.2218,0.2248,-0.0531,-2.3363,1.19,-12.8625,94.04693193868569,-4.295356824680922,-169.817941107782,18.60713311180534
-0.0789,0.9893,-0.0716,-0.2227,0.224,-0.0509,-2.3625,1.2337,-12.8537,94.13926596173452,-4.536860583613074,-170.37363199686993,18.612097495440675
-0.0742,0.9877,-0.0737,-0.2227,0.224,-0.0509,-2.5813,1.5575,-13.2912,94.2670106239706,-4.295681307510964,-170.56298715239478,18.616713979374467
-0.0767,0.9889,-0.0778,-0.2215,0.2252,-0.0514,-2.4763,1.4787,-12.3462,94.4977199809617,-4.415805780803869,-170.61758564478643,18.62164863404243
-0.0788,0.9887,-0.0739,-0.2202,0.2258,-0.0501,-2.6163,1.3737,-12.5475,94.27523997333168,-4.5385385020915034,-170.65720288386822,18.626398190496854
-0.0763,0.9886,-0.0692,-0.2202,0.2258,-0.0501,-2.6775,1.3825,-12.0137,94.00483268939611,-4.4086513561128875,-170.3873578979552,18.63107944110957
-0.0789,0.9888,-0.075,-0.2189,0.2238,-0.0513,-3.01,1.435,-12.7137,94.3365997070211,-4.542894245242816,-170.298606515297,18.635874652763892
-0.0762,0.9886,-0.071,-0.2189,0.2238,-0.0513,-2.2488,1.2337,-13.02,94.1085103243028,-4.402773123621169,-170.0779533379767,18.641185520435656
-0.0793,0.9886,-0.0738,-0.2202,0.2246,-0.0511,-2.2662,1.155,-13.0025,94.26881072341062,-4.565936826989673,-170.34872093127103,18.64587384937394
-0.0788,0.9897,-0.0739,-0.2216,0.2221,-0.051,-2.4063,1.505,-12.7575,94.27029501222368,-4.540880698068845,-170.40733716306963,18.65055049907504
-0.0778,0.988,-0.0683,-0.2216,0.2221,-0.051,-2.94,1.1638,-13.0375,93.95544345577947,-4.493949954842365,-170.07797691606694,18.655340755901467
-0.077,0.9883,-0.0783,-0.2211,0.2248,-0.0498,-2.8175,1.1812,-12.9062,94.52826543880698,-4.443473189250251,-171.06186438307978,18.66017242093245
-0.077,0.9902,-0.0777,-0.2211,0.2248,-0.0498,-2.345,0.9538,-12.9762,94.48686704951365,-4.433379122064318,-171.0169030716002,18.66495170635425
-0.0789,0.9887,-0.072,-0.2204,0.224,-0.0513,-2.8788,1.0237,-13.405,94.16601262597348,-4.545498101277392,-170.18454378790696,18.67010366561707
-0.0626,0.9882,-0.0733,-0.2226,0.2235,-0.051,-2.6425,0.9975,-13.3437,94.2419434838643,-3.6555261999567463,-170.62235707926797,18.674822077439007
-0.0788,0.987,-0.0748,-0.2226,0.2235,-0.051,-2.4413,1.1812,-12.8712,94.33362551923813,-4.512158915037464,-170.5431391006838,18.679449532777426
-0.0771,0.9903,-0.073,-0.2202,0.225,-0.0522,-2.6075,1.4262,-12.8537,94.21627145888066,-4.443023134762382,-170.02178027614698,18.684560437751966
-0.0791,0.9895,-0.072,-0.2202,0.2253,-0.0502,-2.8875,1.3212,-12.7837,94.16189276650236,-4.553343689792034,-170.4935968996237,18.689446605889803
-0.0805,0.9881,-0.0719,-0.2202,0.2253,-0.0502,-3.2375,1.435,-12.6087,94.16184478018482,-4.641238668028946,-170.47681895815018,18.69409140312586
-0.0766,0.9875,-0.0737,-0.222,0.2236,-0.0515,-2.555,1.1287,-13.2562,94.2679337887791,-4.4328704835591815,-170.33520711367763,18.699089054891353
-0.0783,0.9898,-0.0748,-0.222,0.2236,-0.0515,-2.4588,1.365,-13.23,94.32152120697681,-4.506822072636906,-170.3756241702977,18.703814898955134
-0.0775,0.9891,-0.0762,-0.2207,0.2245,-0.0534,-2.1613,0.9187,-13.0462,94.40511063759286,-4.4687564123001025,-169.90942222998433,18.709053567706132
-0.0782,0.9892,-0.0712,-0.2205,0.2246,-0.0506,-2.6425,1.05,-12.6875,94.11772264274067,-4.5066921733237635,-170.34661758316685,18.71311369525048
-0.0786,0.9885,-0.0772,-0.2205,0.2246,-0.0506,-2.8263,1.0237,-12.3287,94.46463396125506,-4.531399236977606,-170.7240079483782,18.715223036268988
-0.0783,0.9892,-0.0723,-0.2208,0.2244,-0.0507,-2.3712,1.4175,-12.8887,94.18109099965133,-4.514597240550129,-170.3985823103701,18.717350073101407
-0.0784,0.9875,-0.0777,-0.2208,0.2244,-0.0507,-2.7738,1.4088,-12.7662,94.49805696540979,-4.524918328633608,-170.74425240418358,18.71944065655717
-0.0777,0.9897,-0.0753,-0.2219,0.2246,-0.0542,-2.4063,1.54,-12.8013,94.35131056733448,-4.478309291132454,-169.69092711301923,18.721545750580333
-0.0758,0.9882,-0.0753,-0.2206,0.2247,-0.0506,-2.695,1.4875,-12.9587,94.35745150490999,-4.37834095833564,-170.64203904785697,18.723634564454702
-0.0741,0.9882,-0.0738,-0.2206,0.2247,-0.0506,-2.9225,1.8637,-12.7312,94.27123866869982,-4.2810598268734985,-170.56724008822485,18.725703559017486
-0.0786,0.9869,-0.0715,-0.2209,0.2244,-0.0532,-2.5113,1.4875,-12.6,94.14415085094733,-4.530102072010375,-169.6722407309429,18.727728667961763
-0.0787,0.9894,-0.0775,-0.2209,0.2244,-0.0532,-2.555,1.3912,-12.88,94.47789410013712,-4.533904140149443,-170.037807407619,18.729962233593945
-0.0763,0.9897,-0.075,-0.22,0.2254,-0.0534,-3.2288,1.4175,-12.7225,94.33403521190837,-4.402043128268319,-169.8269212871851,18.732032643821842
-0.0747,0.988,-0.0722,-0.2206,0.2255,-0.0518,-2.3013,1.295,-13.0812,94.18001089375008,-4.3162759630622665,-170.1446469979325,18.73405846059868
-0.0783,0.9895,-0.0722,-0.2206,0.2255,-0.0518,-2.5463,1.12,-12.8537,94.17327569245025,-4.503857579765209,-170.09705065152173,18.736094187031306
-0.0797,0.9877,-0.0723,-0.2194,0.2243,-0.0465,-2.4938,1.3037,-12.7225,94.18656683502026,-4.596774892949896,-171.48787726452213,18.73811788031047
-0.0819,0.9903,-0.073,-0.2195,0.2249,-0.0524,-2.5288,1.0237,-12.3462,94.2158512370796,-4.709814021029988,-169.8738989423658,18.740134849180347
-0.0782,0.9883,-0.0713,-0.2195,0.2249,-0.0524,-2.835,1.3387,-12.9587,94.12665833013986,-4.521234615764395,-169.81717982717151,18.742152171966506
-0.0777,0.9904,-0.0711,-0.2214,0.2254,-0.0518,-3.0975,1.3562,-13.3,94.10623112191159,-4.476461366972809,-170.0679894098759,18.743963869394985
-0.0769,0.991,-0.0735,-0.2214,0.2254,-0.0518,-2.6688,1.4612,-12.7487,94.24133165091585,-4.427358422138855,-170.2259423309088,18.745237614080487
-0.0795,0.9887,-0.0736,-0.2198,0.2258,-0.0592,-2.905,1.3125,-13.58,94.2572676701136,-4.577577598838504,-168.10976066115126,18.746485876793958
-0.0803,0.9889,-0.0733,-0.2201,0.2281,-0.0507,-2.7213,1.2775,-13.0812,94.23922095238815,-4.627355498034034,-170.46728613631652,18.74773166209348
-0.0749,0.987,-0.0731,-0.2201,0.2281,-0.0507,-3.255,0.805,-12.705,94.23576324113014,-4.340849038168357,-170.52567704966756,18.748981694388338
-0.0779,0.9874,-0.0747,-0.2207,0.2267,-0.051,-2.8788,1.3387,-13.1425,94.3261104007613,-4.491164026951963,-170.5134015632009,18.750292600283064
-0.0792,0.9905,-0.0743,-0.2207,0.2267,-0.051,-2.7213,1.4262,-12.9325,94.2899759389826,-4.5558487144690885,-170.46099106116745,18.75154758740582
-0.0747,0.9894,-0.0678,-0.221,0.2243,-0.0561,-2.6425,1.2512,-12.6612,93.92120080018253,-4.318579366450815,-168.6972896311699,18.752810006770417
-0.0755,0.9875,-0.0717,-0.219,0.2268,-0.0515,-2.765,1.1725,-12.8187,94.15215909434878,-4.3587929555159945,-170.13188102552033,18.754066409558288
-0.0777,0.988,-0.0744,-0.219,0.2268,-0.0515,-2.415,1.2337,-12.95,94.30601245258055,-4.478515600261917,-170.27815584643383,18.75532847500661
-0.0771,0.9888,-0.0738,-0.2208,0.2249,-0.0511,-2.6338,1.1638,-12.5562,94.26851679859084,-4.447627554746037,-170.40632550346558,18.75661956158975
-0.0759,0.9878,-0.0735,-0.2208,0.2249,-0.0511,-2.2662,1.365,-12.8275,94.25544705979891,-4.384690065547251,-170.40499896342223,18.757894014107812
-0.0773,0.9894,-0.0752,-0.219,0.2254,-0.0554,-2.59,1.7325,-12.8537,94.34618675459325,-4.451384275100476,-169.2284342740905,18.759167404877036
-0.0747,0.9887,-0.0727,-0.2199,0.2244,-0.0518,-2.1963,1.0412,-12.6612,94.20584349127938,-4.315350973999058,-170.1216008719107,18.76041460584167
-0.078,0.9904,-0.075,-0.2199,0.2244,-0.0518,-2.45,0.875,-13.0462,94.33021465215445,-4.482676268362701,-170.22214678341595,18.76167525562488
-0.0761,0.9905,-0.0729,-0.2194,0.223,-0.0575,-2.4938,1.435,-12.9675,94.20967893537455,-4.386102307280467,-168.50348564444963,18.762928119249967
-0.0792,0.9874,-0.072,-0.2214,0.2235,-0.0566,-3.045,1.505,-13.6763,94.17066871185493,-4.565420342129307,-168.77753409259174,18.76417744371227
-0.0804,0.988,-0.076,-0.2214,0.2235,-0.0566,-3.395,1.6538,-12.985,94.39805223876226,-4.635337483305846,-169.00854934509198,18.76542818383969
-0.0774,0.9888,-0.0681,-0.2192,0.2246,-0.0508,-3.0625,1.1375,-12.4687,93.94112805128849,-4.472752092734332,-170.04394894550597,18.76667396913921
-0.0771,0.988,-0.0761,-0.2192,0.2246,-0.0508,-2.5288,1.4525,-12.7837,94.40314659808699,-4.4500518026835465,-170.55844084462467,18.767914091778277
-0.0764,0.9901,-0.0759,-0.2182,0.2251,-0.0512,-2.4237,1.61,-13.1337,94.38371485349013,-4.4018362066607475,-170.39716784418655,18.769180404221938
-0.0786,0.9896,-0.0739,-0.2226,0.2248,-0.0502,-2.485,1.2163,-12.635,94.27105194402546,-4.523080927247214,-170.71932712977633,18.770439638340033
-0.0763,0.9874,-0.0719,-0.2226,0.2248,-0.0502,-2.8,1.5487,-12.6175,94.16508857172396,-4.412253782096899,-170.6280113707562,18.77169250196512
-0.0819,0.9857,-0.0737,-0.2245,0.225,-0.0506,-2.7738,1.54,-12.74,94.27568607488895,-4.721994091676275,-170.66452612903961,18.77294678125532
-0.0827,0.9886,-0.0728,-0.2245,0.225,-0.0506,-2.5463,1.3562,-12.95,94.21181308117285,-4.766923654941455,-170.58869074263262,18.77420353795947
-0.0794,0.9895,-0.0714,-0.22,0.225,-0.0563,-2.6863,0.735,-13.0987,94.12741792161151,-4.584148385932299,-168.7609887403514,18.775453570254328
-0.0745,0.9902,-0.0726,-0.2197,0.2246,-0.0511,-2.6163,1.2775,-13.3612,94.19315028956416,-4.304178604525613,-170.2977317126725,18.776692631144563
-0.0784,0.9895,-0.0755,-0.2197,0.2246,-0.0511,-2.6075,1.5487,-12.9762,94.36279402259548,-4.5075673178660995,-170.44000213379368,18.7779430173557
-0.0768,0.9881,-0.0708,-0.2206,0.2258,-0.0512,-2.8087,1.2687,-12.8013,94.09914711812303,-4.4363550265608955,-170.20105101530962,18.77918349391105
-0.0766,0.9869,-0.0785,-0.2206,0.2258,-0.0512,-2.5813,1.0675,-12.4775,94.54656361147096,-4.4248266890747106,-170.69617919350253,18.780429633126847
-0.0773,0.9872,-0.0739,-0.2199,0.2259,-0.0508,-3.5263,1.4437,-12.565,94.28183395159945,-4.463027728496478,-170.47470458448117,18.78168285066821
-0.0791,0.9876,-0.0763,-0.2205,0.2255,-0.0515,-2.2925,1.33,-12.9412,94.4173934778787,-4.561118463254619,-170.43289680225138,18.782937129958412
-0.0771,0.9882,-0.0715,-0.2205,0.2255,-0.0515,-2.3625,1.5662,-12.8362,94.13915127854793,-4.45463456607236,-170.1495311291997,18.78425723767637
-0.077,0.9882,-0.0744,-0.2227,0.2258,-0.0505,-2.5813,1.5487,-12.4425,94.30510925802176,-4.443454370676165,-170.71300751476298,18.78557699147805
-0.0756,0.9891,-0.0742,-0.2227,0.225,-0.0492,-2.8525,1.6362,-12.7575,94.29020412849104,-4.362417588740557,-171.05291010345806,18.78685781448912
-0.0778,0.9906,-0.0755,-0.2194,0.225,-0.0492,-3.15,1.4,-12.7137,94.35825838414073,-4.472620973443512,-170.9623681765636,18.78818181528614
-0.0784,0.9868,-0.0757,-0.2193,0.2248,-0.0514,-2.7562,0.98,-12.5387,94.38663566641354,-4.526805313987876,-170.36568453309405,18.789449189478635
-0.0773,0.9893,-0.0763,-0.2193,0.2248,-0.0514,-2.87,0.91,-12.8975,94.41015268949351,-4.457760321738894,-170.40608289511465,18.790811767149986
-0.0769,0.9894,-0.076,-0.219,0.2247,-0.0518,-2.8963,1.6625,-13.0725,94.39255603822846,-4.432505105571556,-170.2648276090567,18.792079141342484
-0.0781,0.9891,-0.0733,-0.22,0.2256,-0.0472,-2.66,1.2862,-12.7225,94.2387559943967,-4.499350095048101,-171.41547849371761,18.79336668876284
-0.0767,0.9881,-0.0719,-0.22,0.2256,-0.0472,-2.7388,1.61,-12.985,94.16206450981124,-4.430208678284641,-171.34540144554586,18.794630169876275
-0.0785,0.9881,-0.0737,-0.2196,0.2238,-0.0502,-2.66,1.12,-13.4575,94.2653594901749,-4.525432922947555,-170.56166641629366,18.795878432589745
-0.078,0.9878,-0.0705,-0.2196,0.2238,-0.0502,-2.4063,1.3737,-13.23,94.08284187279715,-4.50446691544435,-170.365633046633,18.79712775705205
-0.0806,0.9894,-0.0741,-0.2197,0.2248,-0.0561,-2.8,1.3125,-13.4312,94.2825341824272,-4.638077552784135,-168.95063172246975,18.79838380592364
-0.0783,0.9884,-0.0731,-0.2194,0.2248,-0.0511,-2.7913,1.26,-13.1425,94.2299262975379,-4.5225186403517545,-170.28153346384713,18.799643040041733
-0.0783,0.9864,-0.079,-0.2194,0.2248,-0.0511,-2.2662,0.7788,-13.3262,94.57800370811121,-4.524099446820214,-170.6659881162926,18.80090192024355
-0.0775,0.9882,-0.0768,-0.2197,0.2255,-0.0521,-2.73,0.9625,-13.4137,94.44431023248798,-4.4731676113535315,-170.2780059238133,18.802151952538413
-0.0781,0.9895,-0.0731,-0.2197,0.2255,-0.0521,-3.185,1.2862,-12.6087,94.22571785158705,-4.499493218130158,-170.0306099367685,18.80340870924256
-0.08,0.9886,-0.0733,-0.2205,0.226,-0.0486,-2.3712,1.2163,-12.7575,94.24040886750225,-4.608775695505237,-171.03736915226742,18.804656971956028
-0.0762,0.989,-0.0716,-0.2213,0.2239,-0.0517,-2.2488,0.9538,-12.7487,94.14106610105347,-4.403704266330003,-170.1213496341914,18.80590877383228
-0.0786,0.9903,-0.0715,-0.2213,0.2239,-0.0517,-2.4938,1.4088,-13.44,94.12964189704131,-4.520849239077225,-170.0817606157569,18.807168715782932
-0.0767,0.9902,-0.0792,-0.2222,0.226,-0.0524,-3.0888,1.3737,-13.2388,94.57173263451627,-4.419892100372404,-170.4731257342106,18.808431135147533
-0.0767,0.9895,-0.0746,-0.2222,0.2055,-0.0513,-2.7125,1.7937,-13.0987,94.31220885500464,-4.419864158599237,-170.14114352938128,18.809704525916757
-0.0775,0.989,-0.0736,-0.2209,0.2242,-0.0513,-2.0475,1.3212,-13.3262,94.2561870172319,-4.466196417191848,-170.32633389146625,18.810972254025533
-0.0764,0.9894,-0.0705,-0.2203,0.2262,-0.0511,-2.87,1.2075,-13.3262,94.07625572794993,-4.407138779581344,-170.20156733405105,18.812233611641297
-0.0771,0.9905,-0.0732,-0.2203,0.2262,-0.0511,-2.8525,1.3737,-13.0288,94.22616341613654,-4.437431615553738,-170.36044588357737,18.81348682918266
-0.0767,0.9881,-0.078,-0.219,0.2254,-0.0488,-2.9225,1.5925,-13.2212,94.5127115706024,-4.4254637438674145,-171.24432184690923,18.814758804286775
-0.0773,0.9894,-0.0778,-0.2185,0.2252,-0.055,-2.4938,1.6887,-12.7837,94.49616434797804,-4.452374940341293,-169.47481350658325,18.816011667911862
-0.0797,0.9883,-0.0733,-0.2185,0.2252,-0.055,-2.8,1.3212,-13.02,94.24246091099918,-4.591518115332279,-169.16085834449044,18.817256745378828
-0.0808,0.9852,-0.0744,-0.2194,0.2245,-0.0512,-2.2838,1.3387,-12.81,94.31842858853325,-4.67157633302653,-170.31475729295332,18.81854783196197
-0.0814,0.9884,-0.076,-0.2194,0.2245,-0.0512,-3.0713,1.3737,-12.9675,94.3967075727639,-4.69318712366713,-170.39818697389512,18.819815913987018
-0.0767,0.9905,-0.0722,-0.2211,0.2247,-0.0558,-2.9663,1.1725,-13.0375,94.16970918285257,-4.428442527312579,-169.03318336434526,18.821063468867933
-0.0777,0.9878,-0.074,-0.22,0.2246,-0.0503,-3.0713,1.2862,-12.9325,94.28392283192032,-4.482578065578523,-170.59335641584957,18.822384992251003
-0.0798,0.9895,-0.0805,-0.22,0.2246,-0.0503,-3.1937,0.9363,-13.0812,94.64995977616154,-4.590690538346547,-170.9767942430256,18.8236523664435
-0.0779,0.9891,-0.0721,-0.2218,0.2258,-0.0506,-2.7562,1.1287,-13.02,94.17055055774144,-4.4957359881170715,-170.48753398959974,18.824896736077907
-0.0781,0.9881,-0.0708,-0.2218,0.2258,-0.0506,-2.7213,1.5662,-12.9325,94.09859738805912,-4.507246201924161,-170.40658542849124,18.826159509358785
-0.0761,0.9889,-0.075,-0.2202,0.2235,-0.0547,-2.765,1.435,-13.23,94.33643273913205,-4.393249112330187,-169.4546919676365,18.827422990472222
-0.0766,0.9894,-0.0773,-0.2222,0.2245,-0.0503,-2.2313,1.12,-13.3612,94.4669652501233,-4.412751762366905,-170.90362249867158,18.82868116284148
-0.0777,0.9891,-0.0719,-0.2222,0.2245,-0.0503,-2.5288,1.225,-13.4663,94.15853540428573,-4.476975300176164,-170.55617608727394,18.829926240308446
-0.0788,0.988,-0.0711,-0.2204,0.2244,-0.0516,-3.0013,1.2163,-13.6325,94.11623413010194,-4.545223818703279,-170.0551395238108,18.831179103933533
-0.0774,0.9877,-0.0702,-0.2204,0.2244,-0.0516,-2.4237,1.3475,-13.5187,94.0655612248756,-4.472897286813006,-170.01572651504605,18.832418518740045
-0.0796,0.9892,-0.0708,-0.2214,0.2246,-0.0486,-2.7037,1.4875,-12.6612,94.09376830974233,-4.583746964409157,-170.89706145283316,18.8336735058628
-0.063,0.988,-0.0759,-0.2196,0.2241,-0.0502,-2.345,0.9187,-12.46,94.3920859705044,-3.6790985386514143,-170.87440124263793,18.834923184241383
-0.0783,0.9887,-0.075,-0.2196,0.2241,-0.0502,-2.2488,1.5487,-12.0925,94.33814306291926,-4.4776723988541205,-170.64864885855175,18.836185603605983
-0.0791,0.9891,-0.0801,-0.2207,0.2248,-0.0492,-2.905,1.8112,-12.5125,94.62902969221551,-4.5538325865937175,-171.2990700923117,18.837511373984395
-0.079,0.9891,-0.0703,-0.221,0.225,-0.0522,-2.9488,1.33,-12.8187,94.06705676978649,-4.55505456763192,-169.8728977027899,18.83884422268837
-0.0762,0.9868,-0.0744,-0.221,0.225,-0.0522,-2.6163,0.8575,-13.0288,94.3109712260033,-4.409737640211242,-170.1715123665964,18.84011336646226
-0.0794,0.9895,-0.0758,-0.2194,0.2242,-0.0512,-3.5875,1.5312,-12.9412,94.38035098793148,-4.567006945303858,-170.39882989993376,18.84137083099896
-0.0772,0.9884,-0.0692,-0.2194,0.2242,-0.0512,-3.0275,1.855,-12.7662,94.00593945914541,-4.460299977698634,-170.01143146035974,18.842630065117056
-0.079,0.9873,-0.0732,-0.2222,0.2244,-0.0518,-2.5725,1.435,-12.7575,94.23957303388023,-4.557820340070706,-170.21769001865695,18.843881866993307
-0.0786,0.9898,-0.0768,-0.2204,0.2234,-0.0502,-2.8612,1.33,-12.74,94.4362081728035,-4.528158239729825,-170.77779081923268,18.845132607120725
-0.0762,0.9895,-0.0754,-0.2204,0.2234,-0.0502,-2.9925,0.8663,-12.705,94.35774838781798,-4.396869267124955,-170.7178017022906,18.846376622838854
-0.0752,0.9881,-0.0769,-0.2202,0.2276,-0.0498,-2.695,1.4525,-12.9675,94.44987453036224,-4.341653428167639,-171.0055340560342,18.8476415196174
-0.0785,0.9895,-0.0742,-0.2202,0.2276,-0.0498,-2.9138,1.5137,-13.16,94.28889532377575,-4.515166163347344,-170.79064670523482,18.848884473586697
-0.0797,0.9879,-0.0723,-0.2176,0.2238,-0.0466,-2.9838,1.5837,-13.335,94.1860553887179,-4.596347458098482,-171.3752761684459,18.850179807165176
-0.0761,0.9883,-0.0729,-0.2198,0.2259,-0.0512,-2.8438,1.1987,-12.9587,94.2185767225326,-4.400310284046439,-170.30623419853237,18.85143762561816
-0.0816,0.9872,-0.0729,-0.2198,0.2259,-0.0512,-2.6863,1.3387,-13.1075,94.22334003912668,-4.698574207150478,-170.24523506342132,18.852702522396708
-0.0755,0.9881,-0.071,-0.2242,0.2235,-0.0546,-2.835,1.3912,-13.0987,94.11025317293513,-4.373399792058269,-169.44603527889313,18.85413269807721
-0.0772,0.9886,-0.075,-0.2242,0.2235,-0.0546,-3.4038,1.12,-12.6875,94.3377722344469,-4.448958572475166,-169.66814671106985,18.855401487934817
-0.0806,0.9891,-0.0736,-0.2206,0.2237,-0.0525,-2.4588,1.5575,-12.8712,94.2558327380109,-4.637017088344242,-169.93716372631422,18.85666567688081
-0.0769,0.9886,-0.0728,-0.2202,0.2269,-0.0518,-2.9225,1.5837,-12.9675,94.21175649331109,-4.4449652674889455,-170.1586962686668,18.857925618831462
-0.0809,0.9891,-0.0753,-0.2202,0.2269,-0.0518,-3.1325,1.295,-13.2912,94.35311370239384,-4.6528249127642685,-170.2694760883432,18.859213874084375
-0.0795,0.9898,-0.0784,-0.219,0.2249,-0.0529,-2.9488,1.155,-13.1775,94.52832162940963,-4.581124969026441,-170.0840021249347,18.860498236258227
-0.0769,0.9894,-0.0705,-0.22,0.2253,-0.053,-2.8525,1.1462,-12.9762,94.07703390951963,-4.439639351488866,-169.64499332884998,18.86175605471121
-0.078,0.9889,-0.0706,-0.22,0.2253,-0.053,-2.485,1.2163,-12.9325,94.08353939494094,-4.49589428634174,-169.63916925852007,18.86301033400141
-0.0761,0.9888,-0.0784,-0.2227,0.2226,-0.0518,-2.3625,1.5487,-12.9062,94.53210067864565,-4.392080181227535,-170.55955731154626,18.864296819672933
-0.0775,0.9905,-0.0705,-0.2227,0.2226,-0.0518,-2.5988,1.3212,-12.5738,94.07254557586381,-4.45951990696028,-170.05114200686202,18.86557976618167
-0.08,0.9911,-0.0709,-0.2201,0.2247,-0.0483,-2.4063,1.0412,-13.265,94.09172431962635,-4.5968100431487455,-170.91925465257333,18.866839708132325
-0.0625,0.9964,-0.0689,-0.2206,0.2234,-0.0508,-2.065,1.1725,-15.1637,93.95603374270783,-3.6255042365676804,-170.28688885689846,18.86811734589689
-0.0653,0.9911,-0.096,-0.2206,0.2234,-0.0508,-2.555,0.42,-14.7875,95.52802410465378,-3.7466524073505774,-171.94991538091762,18.86938365834055
-0.0853,0.9847,-0.0859,-0.2186,0.2254,-0.0514,-3.535,0.4812,-14.9012,94.9871129404339,-4.881531798691598,-170.93272898335874,18.870640768960975
-0.0998,0.9755,-0.0564,-0.2186,0.2254,-0.0514,-4.2613,1.1987,-14.7175,93.31377629512814,-5.78978406806786,-168.84950769950376,18.87189575608373
-0.087,0.9711,-0.058,-0.2196,0.2252,-0.0543,-3.5088,1.12,-12.985,93.41769358205842,-5.140246597646076,-168.38697013697558,18.873149681457654
-0.0797,0.9878,-0.0689,-0.2186,0.2238,-0.0521,-2.0213,1.5925,-12.1625,93.98834079498245,-4.625943452409496,-169.6682039793669,18.874390158013
-0.0811,0.9834,-0.0811,-0.2186,0.2238,-0.0521,-2.2313,1.8375,-12.4337,94.71238347545912,-4.6952773487890145,-170.44695309357016,18.875637358977635
-0.0449,0.9943,-0.0239,-0.2215,0.226,-0.0514,-2.6425,1.645,-12.5738,91.38648653717314,-2.679876941002806,-167.71698969615883,18.876891638267836
-0.0271,1.0043,-0.0588,-0.2215,0.226,-0.0514,-2.5375,1.3825,-12.3638,93.34513001309203,-1.5936535583755642,-169.96058596725751,18.878128575660398
-0.0461,0.9977,-0.0737,-0.2192,0.2253,-0.0518,-2.5813,0.6475,-14.5862,94.22224671589935,-2.593335458941316,-170.45173160027574,18.879385332364546
-0.0622,0.9913,-0.0676,-0.2198,0.2255,-0.0507,-3.6663,-0.8575,-16.7737,93.90206787571964,-3.542050070729357,-170.2506590385969,18.880661554463998
-0.0598,1.0089,-0.0532,-0.2198,0.2255,-0.0507,-4.2088,-5.0138,-16.9925,93.0209874877276,-3.3927571103384775,-169.34361349949964,18.88191547983792
-0.0483,0.9411,-0.0467,-0.2185,0.2248,-0.049,-4.6025,-6.6763,-15.3475,92.84136344319279,-2.949420369969638,-169.63171855892193,18.883177899202522
-0.0852,1.0429,-0.0667,-0.2175,0.2258,-0.0513,-3.4213,-6.6325,-18.6112,93.65709735559423,-4.604791075665203,-169.4865230334028,18.884482788520515
-0.0759,0.9693,-0.1028,-0.2175,0.2258,-0.0513,-3.185,-6.7288,-18.34,96.04706560461841,-4.457460753284872,-172.21444547203433,18.885760426285078
-0.0985,0.9675,-0.1077,-0.2165,0.2269,-0.0503,-3.5088,-5.6613,-17.8762,96.35101779825473,-5.732999795501805,-172.6190871951292,18.887044080626374
-0.14,0.9756,-0.0913,-0.2165,0.2269,-0.0503,-3.9725,-4.7075,-16.7825,95.34924679858015,-8.047242189708626,-170.95210294657377,18.88832171839094
-0.1801,0.97,-0.0824,-0.2163,0.2253,-0.0452,-4.8825,-4.34,-14.2975,94.85695079549873,-10.395073786132315,-171.37262607591532,18.889593339578777
-0.2086,0.9792,-0.1116,-0.215,0.2262,-0.0488,-4.7688,-6.2562,-10.3075,96.49724840101011,-11.899207030491953,-171.99543909976043,18.89085894418988
-0.097,0.9631,-0.119,-0.215,0.2262,-0.0488,-1.6362,-8.715,-6.405,97.04217081584683,-5.89823917563683,-173.81548298067813,18.892151800354412
-0.0438,0.9745,-0.0994,-0.2166,0.2259,-0.048,0.525,-5.5213,-8.1025,95.82753567107784,-2.6738800685666355,-173.13203148347117,18.89340006306788
-0.024,1.01,-0.0457,-0.2166,0.2259,-0.048,0.3413,-2.6863,-9.485,92.59989748068158,-1.4093586027001104,-169.86785954803779,18.894651864944134
-0.0304,1.0246,-0.0113,-0.218,0.2242,-0.0526,0.1488,-0.6212,-11.445,90.63745196535315,-1.6875185902473826,-166.65373982260203,18.895907913815723
-0.0402,1.0242,-0.0819,-0.219,0.2249,-0.0494,-1.8725,-1.4,-13.1162,94.56070042469796,-2.218664789987539,-171.51123679619383,18.89718767507796
-0.0964,0.9822,-0.0934,-0.219,0.2249,-0.0494,-3.5,-2.1875,-13.9475,95.4295769417773,-5.451322016999225,-171.8909422328362,18.89846460500997
-0.1217,0.9722,-0.1071,-0.2174,0.2246,-0.0452,-3.5088,-1.54,-14.4462,96.28404350293744,-7.028053047666954,-173.81091687642268,18.89976170816984
-0.1273,0.9762,-0.1135,-0.2166,0.2254,-0.0474,-2.87,-2.4763,-13.4925,96.63084661927616,-7.367099740502642,-173.52019125228426,18.90103863810185
-0.1003,0.9955,-0.0731,-0.2166,0.2254,-0.0474,-2.3975,-4.5675,-11.8912,94.2066597435745,-5.795314408535372,-170.93051011922364,18.90230282704784
-0.0134,0.9936,-0.034,-0.2183,0.224,-0.0459,-3.4738,-4.3313,-11.9875,91.9662761939558,-0.950462606727678,-169.93374508754596,18.903570909072894
-0.021,0.987,-0.0314,-0.2183,0.224,-0.0459,-0.9275,-0.175,-16.0387,91.82257892740215,-1.2071117571752858,-169.71005097321313,18.904851378167685
-0.0693,1.0002,-0.0376,-0.2144,0.225,-0.0502,-0.7,1.3912,-15.9337,92.15193801385125,-3.8380665708230874,-168.11805626009559,18.90610034871371
-0.0783,0.9689,-0.0523,-0.2163,0.2256,-0.0475,-0.1925,0.5338,-16.0387,93.08709378999414,-4.580271939331101,-169.8617230823494,18.9073401174365
-0.0965,1.0037,-0.0789,-0.2163,0.2256,-0.0475,1.5662,-3.0275,-16.6075,94.49075416915464,-5.441702905220166,-171.28021285224042,18.908590857563915
-0.0752,0.9983,-0.0806,-0.2154,0.2261,-0.0474,2.6775,-5.8888,-17.8937,94.61553939304669,-4.3325217168811205,-171.63762290280565,18.9098405359425
-0.0618,0.997,-0.0787,-0.2154,0.2261,-0.0474,2.6075,-7.9625,-20.1863,94.5136749037308,-3.561062730986238,-171.65566210010857,18.911097292646648
-0.0442,1.0188,-0.0878,-0.2142,0.2267,-0.0421,2.8525,-9.87,-22.7325,94.92441101716813,-2.5072304099499405,-173.7128701816916,18.912363605090306
-0.0175,1.0202,-0.1016,-0.2116,0.227,-0.0487,2.4675,-7.9713,-26.3375,95.68508925181413,-1.02595304898324,-172.8726297081876,18.91364336635254
-0.0722,1.0038,-0.1214,-0.2116,0.227,-0.0487,0.595,0.6737,-36.855,96.8924564181553,-3.9523791470212513,-173.81293682801896,18.91486933234048
-0.1221,0.9852,-0.1107,-0.2087,0.2287,-0.0442,-1.5662,2.7562,-39.3312,96.41240526044858,-6.8756523024368885,-174.12679816975978,18.91621987685837
0.2098,0.9489,-0.06,-0.2545,0.123,-0.0748,-3.0625,-0.4112,-11.0513,93.62605460461333,11.64699877862389,-166.3823179796299,18.918104127123897
0.2098,0.9489,-0.06,-0.2545,0.123,-0.0748,-3.0625,-0.4112,-11.0513,93.61808185318185,12.410517182928196,-166.3764407624516,18.92024885977023
0.2127,0.9525,-0.0614,-0.2574,0.1234,-0.0718,-2.8438,0.0088,-11.4712,93.68809339423393,12.556395951302457,-167.13700006702638,18.92149889206509
0.2186,0.949,-0.0645,-0.2574,0.1234,-0.0718,-3.395,1.0587,-11.7775,93.88762816937373,12.925878148592627,-167.24667147578398,18.922732644211152
0.2197,0.9459,-0.0582,-0.2594,0.1209,-0.0709,-3.7713,2.0038,-11.8387,93.52194783698523,13.046372806848956,-167.29410445376828,18.923959318031645
0.2175,0.9478,-0.0589,-0.2594,0.122,-0.0643,-3.64,4.2088,-12.7487,93.55591335648919,12.907783098615834,-168.60601032972033,18.92519377801026
0.2162,0.9501,-0.0583,-0.2576,0.122,-0.0643,-3.8763,4.2962,-12.6612,93.51150646263748,12.80206792046322,-168.51291947740543,18.926437793728393
0.2084,0.9439,-0.0562,-0.2584,0.1219,-0.0707,-4.0687,5.3113,-13.2125,93.4076786633056,12.449169884024448,-167.23158774915714,18.92766411363261
0.1884,0.9438,-0.0561,-0.2584,0.1219,-0.0707,-3.2987,5.6613,-13.6937,93.40170783885675,11.334397078101247,-167.16511507929113,18.928900697108894
0.1864,0.9494,-0.0532,-0.2567,0.1225,-0.0707,-2.9925,5.2238,-13.8687,93.20779366847552,11.10396050908381,-167.0058023505578,18.93013905016657
0.1793,0.9541,-0.0578,-0.2587,0.1244,-0.0699,-2.5025,4.6988,-13.9825,93.46603891015452,10.649241999177509,-167.37553293234845,18.93168247905612
0.1771,0.9563,-0.0547,-0.2587,0.1244,-0.0699,-2.485,4.6638,-13.055,93.27427916018111,10.484237558643422,-167.28028476621964,18.93851483280818
0.1732,0.956,-0.0541,-0.2593,0.1234,-0.071,-1.7413,3.9725,-12.565,93.2390120771064,10.264561305450163,-167.04351634434914,18.939768404265823
0.1715,0.9572,-0.058,-0.2593,0.1234,-0.071,-3.36,3.6225,-12.9325,93.46685200450254,10.145783500170877,-167.1378028165416,18.94101312781651
0.169,0.9517,-0.0569,-0.2579,0.1224,-0.0682,-2.8438,3.43,-12.8887,93.42164235276746,10.056461825155145,-167.58066843460307,18.942282271590397
0.1655,0.9517,-0.0534,-0.2586,0.1219,-0.073,-3.0188,2.6688,-13.4137,93.2121067087714,9.85961065633316,-166.55557286191802,18.94356627984797
0.1652,0.9496,-0.0536,-0.2586,0.1219,-0.073,-2.6775,0.5425,-13.6325,93.23056894719996,9.853749208799863,-166.56343415091496,18.944815250393997
0.167,0.9574,-0.0562,-0.2587,0.1214,-0.0693,-3.4125,-0.2975,-14.2712,93.35907515260526,9.876926541208693,-167.34118257052958,18.94607554626093
0.1699,0.9629,-0.0571,-0.2587,0.1214,-0.0693,-3.5438,-0.6388,-14.035,93.39356817998814,9.984833613764307,-167.36359333417445,18.947348583113875
0.1763,0.9618,-0.0612,-0.2571,0.1232,-0.067,-3.2813,-0.9887,-13.4663,93.64015359458513,10.351247773969806,-167.91620444599485,18.948598969325015
0.1767,0.9618,-0.0622,-0.258,0.1218,-0.0654,-3.5875,-1.0412,-12.4425,93.70001684534878,10.387438135935747,-168.26928573994076,18.949852540782658
0.1818,0.959,-0.0603,-0.258,0.1218,-0.0654,-3.8325,-1.19,-11.2,93.59820009766231,10.7006274905591,-168.24210322261152,18.951103634826353
0.1914,0.9563,-0.0586,-0.2574,0.1218,-0.0702,-4.4975,-0.6125,-10.045,93.50684030454715,11.272958221940524,-167.26560894483742,18.95234835837704
0.1957,0.9497,-0.0511,-0.2574,0.1218,-0.0702,-4.9263,-0.315,-9.345,93.08114154302808,11.6126517039069,-167.0955263748499,18.953662449518266
0.1995,0.9503,-0.0511,-0.2582,0.1221,-0.0642,-4.7863,-0.2275,-9.7388,93.07798166043588,11.830097286873483,-168.32053390413267,18.954921329720083
0.2009,0.9525,-0.0485,-0.2582,0.1219,-0.0709,-4.2438,0.56,-9.5113,92.91537366976242,11.892414087721551,-166.9396781968085,18.956138093884785
0.2036,0.9532,-0.0475,-0.2582,0.1219,-0.0709,-4.375,1.1287,-10.115,92.85299139659179,12.035874749949603,-166.91952484763996,18.95742670305398
0.1989,0.9487,-0.0492,-0.2587,0.1229,-0.0696,-3.5175,1.7937,-10.5087,92.9683932227044,11.834962272755655,-167.25218049582617,18.958678151013952
0.1964,0.9456,-0.0462,-0.2587,0.1229,-0.0696,-4.0775,1.96,-10.78,92.79761687034218,11.725108236138604,-167.1711574291716,18.959909071829788
0.197,0.9443,-0.0451,-0.2589,0.1233,-0.0674,-2.8175,1.6712,-10.9637,92.73456349863172,11.768925857135162,-167.59046530162263,18.961142823975845
0.1929,0.9495,-0.0528,-0.2602,0.1229,-0.0694,-3.0538,0.9625,-10.8325,93.18155534024689,11.479855920627903,-167.43041792395803,18.962394979768376
0.197,0.9464,-0.0539,-0.2602,0.1229,-0.0694,-3.29,0.8925,-11.235,93.25940240180583,11.728785047276288,-167.47885595526887,18.969577002803373
0.2011,0.9489,-0.0577,-0.262,0.1212,-0.0694,-3.01,0.9887,-11.1825,93.4790839682459,11.934776715726747,-167.62659997075463,18.9818423253432
0.2028,0.948,-0.058,-0.262,0.1212,-0.0694,-2.4675,1.155,-10.6925,93.50101115532838,12.047854572798329,-167.64142848862667,18.994133837687624
0.2061,0.9473,-0.0528,-0.261,0.1216,-0.07,-3.01,1.015,-10.8675,93.19110369075656,12.246758888829358,-167.3677055243635,19.006335809213645
0.2087,0.9457,-0.0552,-0.2611,0.1218,-0.0705,-3.1675,1.645,-11.2175,93.34010582572571,12.416262080211391,-167.35324249286245,19.01862484414412
0.2097,0.942,-0.057,-0.2611,0.1218,-0.0705,-2.66,1.7325,-11.865,93.46236960956993,12.522823353547226,-167.41151908399868,19.02797778963004
0.2167,0.9429,-0.0547,-0.2592,0.1223,-0.0696,-2.7037,2.0563,-11.76,93.3205574998579,12.903807552925011,-167.4728770895163,19.040342562644067
0.2147,0.9426,-0.0556,-0.2592,0.1223,-0.0696,-3.2025,3.08,-12.4512,93.37556710415095,12.81457116041471,-167.49177457406506,19.051997025687598
0.212,0.944,-0.0487,-0.2611,0.1208,-0.0711,-3.43,3.4125,-12.4862,92.95442271786197,12.649497509419332,-167.06146509277718,19.06431508175289
0.212,0.9457,-0.0514,-0.2628,0.1205,-0.0694,-3.0538,4.6287,-12.81,93.11058951284971,12.61890593230697,-167.51997590608934,19.07642149588378
0.1931,0.9448,-0.0534,-0.2628,0.1205,-0.0694,-2.065,4.4275,-12.6437,93.23455521404888,11.589125177498087,-167.51965206989328,19.088650718963223
0.2046,0.9448,-0.0486,-0.2618,0.1213,-0.0682,-2.52,4.865,-12.0575,92.94549664843589,12.170941081537062,-167.63362165528426,19.10087180196827
0.2083,0.9486,-0.0508,-0.2618,0.1213,-0.0682,-1.9075,5.3375,-11.6375,93.06506802373634,12.3570303536649,-167.69376891440112,19.113099963298882
0.2162,0.9523,-0.051,-0.2615,0.1214,-0.0679,-1.925,5.9763,-11.6287,93.06552002605645,12.75000866571259,-167.7606335349319,19.125300165243512
0.2181,0.9534,-0.0605,-0.2643,0.1196,-0.0694,-2.3363,6.4663,-10.9375,93.62934100968259,12.853933253668206,-167.79597948585084,19.137519478667166
0.2112,0.9449,-0.0504,-0.2643,0.1196,-0.0694,-1.96,7.63,-12.1538,93.05484834224758,12.598858443394608,-167.53889858465118,19.14968181157002
0.2052,0.9445,-0.0484,-0.2641,0.1218,-0.0694,-1.9337,7.7962,-12.67,92.93384762300447,12.264130308971989,-167.50530668749155,19.158618551512692
0.2034,0.9487,-0.053,-0.2641,0.1218,-0.0694,-1.4088,8.0587,-12.7575,93.19680675793703,12.094151268782584,-167.6108098210491,19.170839988434018
0.2009,0.9503,-0.0525,-0.2642,0.1217,-0.0724,-2.3625,8.1462,-13.0375,93.16223072508554,11.930443649231597,-167.01731843443238,19.18304939220188
0.195,0.9512,-0.047,-0.2643,0.1218,-0.0701,-2.5375,7.8575,-13.965,92.8297093734279,11.594060738139406,-167.30056008245342,19.19525313330929
0.1951,0.9512,-0.0492,-0.2643,0.1218,-0.0701,-2.87,7.6737,-13.3787,92.96056085390991,11.577193091667489,-167.35769422359914,19.207558094472287
0.1877,0.9521,-0.0496,-0.2642,0.1205,-0.0705,-2.1088,7.35,-13.8512,92.9820872943194,11.164368586832225,-167.23874159283068,19.219744847598342
0.1878,0.9521,-0.0501,-0.2642,0.1205,-0.0705,-2.2138,6.2825,-14.0087,93.01206996930922,11.14442339819207,-167.25171956094164,19.231895501264013
0.187,0.9555,-0.0539,-0.2641,0.1226,-0.0679,-2.52,5.74,-14.5862,93.22802912283623,11.061070383249724,-167.87431609132867,19.244121539096955
0.1888,0.9542,-0.0457,-0.2662,0.1194,-0.0712,-3.4038,5.4513,-14.2537,92.74339357043199,11.173167294046964,-167.07227865804637,19.256350762176403
0.182,0.9504,-0.0523,-0.2662,0.1194,-0.0712,-3.6837,4.9,-14.6912,93.14861412751627,10.843194997210711,-167.22381934595728,19.268571845181448
0.1828,0.9498,-0.0438,-0.2651,0.1211,-0.0721,-3.2113,4.06,-13.8075,92.641777699411,10.88074174477781,-166.82318211665546,19.2774551437661
0.1797,0.9498,-0.0432,-0.2651,0.1211,-0.0721,-2.9838,3.2113,-14.0612,92.6043114971023,10.711409454831447,-166.79733846651328,19.289659238789792
0.1803,0.9486,-0.0406,-0.2649,0.119,-0.0734,-3.4738,2.4413,-15.0762,92.45119868851737,10.75029524408064,-166.44317125970355,19.301875366966943
0.1852,0.9494,-0.0411,-0.2668,0.1236,-0.0703,-2.9488,1.7675,-14.6387,92.47873618998851,11.015451001253851,-167.21966639544675,19.31410423613011
0.1826,0.9503,-0.0457,-0.2668,0.1236,-0.0703,-3.0625,0.35,-14.7087,92.75245186920863,10.870970878282389,-167.3293029761311,19.326326026967713
0.1893,0.9502,-0.049,-0.2626,0.1211,-0.071,-2.835,0.0,-14.42,92.95144842204579,11.236455697155685,-167.07826266630732,19.338516673172826
0.1936,0.9468,-0.0386,-0.2626,0.1211,-0.071,-3.4125,0.1488,-13.9825,92.33636017801349,11.533992536998388,-166.82991241537687,19.35074695800111
0.1951,0.9486,-0.0439,-0.2617,0.1216,-0.0688,-2.8875,0.0963,-14.0087,92.64878907623353,11.606758354332676,-167.361287241972,19.362977950661946
0.1956,0.9527,-0.0468,-0.2646,0.1221,-0.0712,-3.0188,-0.245,-13.8775,92.8118431906078,11.589394249735594,-167.1029236793325,19.375266277759867
0.1986,0.9512,-0.0473,-0.2646,0.1221,-0.0712,-3.3513,-0.385,-13.5537,92.8466828433849,11.771325216045753,-167.12758451051107,19.38746931103472
0.1979,0.9507,-0.0453,-0.2609,0.1201,-0.0714,-3.325,-0.1225,-13.6937,92.72836877478501,11.747005545807555,-166.8388379570499,19.399722954337367
0.1987,0.9542,-0.0453,-0.2609,0.1201,-0.0714,-3.0975,-0.3938,-14.315,92.71806721119013,11.75001863583777,-166.83457531744202,19.411947222588918
0.1991,0.955,-0.0431,-0.2627,0.1228,-0.0689,-3.5,0.245,-13.9038,92.58444001280189,11.76416765485147,-167.38529490128704,19.424181046579985
0.1961,0.9479,-0.0443,-0.2634,0.1226,-0.0709,-3.1412,0.4987,-13.1162,92.67550348904706,11.679753157070296,-167.06354012963024,19.433023998708915
0.1857,0.9464,-0.0459,-0.2634,0.1226,-0.0709,-3.1588,0.4725,-13.7025,92.7763558875052,11.113957487799786,-167.07458541116273,19.44527764201156
0.185,0.9475,-0.0466,-0.2638,0.1219,-0.0666,-3.045,-0.2625,-12.9675,92.81554313202803,11.038307207356288,-167.92006869835012,19.457550042876957
0.1888,0.9486,-0.0462,-0.2623,0.121,-0.0706,-1.8288,-1.015,-12.915,92.78837099956172,11.23525155389432,-167.07005715111794,19.469791653026142
0.1934,0.9502,-0.052,-0.2623,0.121,-0.0706,-1.4875,-0.385,-12.915,93.13142538942212,11.477454162016306,-167.23042585988574,19.482059099063644
0.1978,0.9556,-0.0523,-0.2616,0.1207,-0.0718,-2.9838,-0.4638,-13.1775,93.13266981350526,11.669299358902132,-166.9738012912807,19.49427062632918
0.1993,0.9545,-0.0474,-0.2616,0.1207,-0.0718,-2.8263,-0.5163,-13.02,92.84377321662238,11.775289385348824,-166.85477272091876,19.506581604068906
0.1968,0.9504,-0.0501,-0.2618,0.1218,-0.0694,-2.5375,-0.1575,-12.9762,93.017037308441,11.687000570523896,-167.41617178888498,19.518771188525186
0.1961,0.9481,-0.0501,-0.2618,0.1211,-0.0728,-3.465,0.4025,-13.4488,93.02481807158398,11.670856625825488,-166.75167358014292,19.531018107418546
0.1921,0.9493,-0.0497,-0.2618,0.1211,-0.0728,-3.045,0.2187,-13.6675,92.99702778190169,11.43505603317643,-166.72558390927074,19.543189996060914
0.1935,0.951,-0.0486,-0.2621,0.1236,-0.0702,-2.6775,-0.035,-14.105,92.92570872308524,11.484236270336003,-167.2578353655744,19.55569527383741
0.1933,0.9508,-0.057,-0.2621,0.1236,-0.0702,-2.6425,-0.0525,-13.825,93.42930485551895,11.472232798673563,-167.47909952502206,19.567923081251745
0.1988,0.9526,-0.0533,-0.2623,0.1215,-0.0635,-3.1588,0.4812,-13.9475,93.2031310080094,11.757341275706121,-168.65746176892085,19.58011195787547
0.2023,0.9536,-0.0496,-0.2614,0.1219,-0.0706,-4.41,0.9363,-13.8425,92.97811467119006,11.95273212940137,-167.16848890377722,19.592285262182948
0.2033,0.9558,-0.054,-0.2614,0.1219,-0.0706,-4.2525,1.47,-13.615,93.23287855696255,11.987737505694934,-167.27987590607034,19.601709344840803
0.2027,0.954,-0.0538,-0.2642,0.121,-0.0697,-3.885,1.9775,-13.3525,93.22774159896518,11.977475155536009,-167.54946137421567,19.613850796683238
0.2018,0.9518,-0.0495,-0.2642,0.121,-0.0697,-3.6225,2.3187,-13.2125,92.97780206520974,11.955906495199049,-167.44151000073754,19.625653904563645
0.2014,0.9493,-0.0495,-0.2626,0.1224,-0.0643,-4.1213,2.7388,-12.8887,92.98488934050903,11.96197358906121,-168.44538641845202,19.63786967882452
0.2029,0.954,-0.049,-0.2606,0.1227,-0.0706,-4.2788,3.1238,-12.6612,92.94040927765325,11.990176431670939,-167.1345264106379,19.650039090052935
0.2039,0.9564,-0.0497,-0.2606,0.1227,-0.0706,-3.8763,3.2638,-12.8975,92.97464132791967,12.017853007787217,-167.1500493923495,19.662244954658018
0.2073,0.9496,-0.0434,-0.2645,0.1229,-0.0695,-3.8325,3.43,-13.0987,92.61782024132873,12.288238643255607,-167.38967854941902,19.674406225812035
0.2043,0.9465,-0.0467,-0.2645,0.1229,-0.0695,-5.0313,3.9113,-13.3875,92.8240691490663,12.17208065394682,-167.47259942379557,19.686608197338053
0.1975,0.9448,-0.0378,-0.2614,0.1215,-0.0743,-5.7488,4.8562,-13.8512,92.29263125912952,11.81756100801454,-166.14574214308956,19.69866931018532
0.1927,0.9421,-0.0355,-0.2634,0.1194,-0.069,-2.4588,4.2088,-14.4725,92.15837026357723,11.565540880073598,-167.14572385181174,19.710878713953186
0.1877,0.94,-0.0433,-0.2634,0.1194,-0.069,-3.7362,3.605,-14.6912,92.63602535806974,11.294765328882635,-167.3342955841262,19.723176596790616
0.188,0.9468,-0.0407,-0.2641,0.117,-0.0704,-2.5463,3.08,-14.8312,92.46195150412723,11.224243671784086,-166.9778709245168,19.73178136326427
0.1904,0.9478,-0.0423,-0.2641,0.117,-0.0704,-1.9162,2.415,-14.2887,92.5551294353665,11.341985844898858,-167.02288039471742,19.744027220408796
0.193,0.949,-0.0421,-0.2608,0.1227,-0.0672,-2.7213,2.415,-14.035,92.5401607065058,11.477932317080151,-167.59817953117266,19.75625431999057
0.1922,0.9507,-0.0457,-0.2612,0.1232,-0.0693,-3.0363,2.2838,-14.4025,92.75147435885593,11.419274188785002,-167.30649268983458,19.76906113443616
0.1926,0.945,-0.0384,-0.2612,0.1232,-0.0693,-2.4588,2.415,-14.4637,92.32814195869507,11.506155398272812,-167.12596739747698,19.781237270073866
0.1913,0.9456,-0.0426,-0.2618,0.1215,-0.069,-2.2138,1.6187,-14.49,92.57875695099573,11.429226332845285,-167.28538616417288,19.793701847478363
0.1897,0.9495,-0.0411,-0.2618,0.1215,-0.069,-1.96,1.7937,-14.9275,92.4788402590582,11.294431372883064,-167.23467940142245,19.805565828958635
0.191,0.9473,-0.0375,-0.2605,0.1232,-0.0685,-2.4938,1.3475,-15.5837,92.26754343787044,11.386496168032009,-167.2176186790942,19.817767092652097
0.1864,0.9526,-0.0445,-0.2584,0.1216,-0.0699,-2.9225,0.805,-16.2838,92.67342108724172,11.073880772338594,-166.98504563895895,19.829967294596724
0.1842,0.9545,-0.041,-0.2584,0.1216,-0.0699,-2.6513,0.9363,-15.7675,92.46020648203618,10.91990897340657,-166.88270043379111,19.842154755555335
0.1826,0.9534,-0.041,-0.2591,0.122,-0.0704,-2.555,0.7525,-15.7587,92.4624233217597,10.836288655903084,-166.81984226968098,19.85422046931422
0.1797,0.9537,-0.0482,-0.2591,0.122,-0.0704,-1.995,0.6475,-15.2775,92.89203803148254,10.665207522753947,-166.9974924656552,19.86351041770261
0.1806,0.9518,-0.0459,-0.2574,0.1222,-0.0712,-1.8112,0.735,-14.7175,92.7612904727818,10.728846963559244,-166.71497763599885,19.875801576130755
0.1839,0.9526,-0.0466,-0.2582,0.1222,-0.0706,-2.4237,0.7437,-13.7812,92.80049298363848,10.905825489158023,-166.8965080826039,19.88796390903361
0.1891,0.9528,-0.0478,-0.2582,0.1222,-0.0706,-1.3737,0.6388,-13.3875,92.87179897873483,11.1985655603713,-166.94539121313272,19.900070323164492
0.1931,0.9557,-0.0485,-0.2594,0.1227,-0.0727,-1.9425,0.8138,-13.7375,92.90506698785185,11.399460774651045,-166.62689704899347,19.912280080848635
0.192,0.9556,-0.0459,-0.2594,0.1227,-0.0727,-2.3625,1.0587,-13.9475,92.75039750903409,11.35017592573251,-166.55515795404875,19.924453031239835
0.1903,0.9545,-0.0423,-0.2594,0.123,-0.0718,-2.6163,1.3562,-13.8337,92.53809061799411,11.268332469159901,-166.6367788983342,19.936818866002696
0.1864,0.9539,-0.0478,-0.2594,0.1222,-0.0701,-2.4237,1.5837,-13.9387,92.86775200848962,11.053340798215622,-167.08446812808126,19.94884741855236
0.1806,0.9572,-0.049,-0.2594,0.1222,-0.0701,-1.8987,1.6975,-14.1312,92.93028988756772,10.688301897699324,-167.0901722542775,19.96096586583671
0.1769,0.9589,-0.0471,-0.2573,0.1226,-0.0691,-1.9775,1.2862,-14.3937,92.81237617155433,10.45121650961837,-167.13444049684637,19.973155804209267
0.1786,0.96,-0.0517,-0.2573,0.1226,-0.0691,-1.9162,1.2337,-13.4488,93.0818678080182,10.520787942202178,-167.259344689888,19.985295132554032
0.1784,0.9628,-0.055,-0.2588,0.123,-0.0644,-2.3625,1.2512,-12.7837,93.26893535161341,10.48250875391774,-168.33577703819452,19.99472912486768
0.1769,0.9605,-0.0534,-0.2552,0.1217,-0.0698,-3.08,1.3037,-13.2388,93.18239113539025,10.422547049610008,-167.04961751898023,20.00679625429168
0.1788,0.9565,-0.0562,-0.2552,0.1217,-0.0698,-2.45,1.0587,-13.125,93.36208329986471,10.563882270713739,-167.13800381333425,20.01896708118521
0.1799,0.9577,-0.0523,-0.2591,0.123,-0.0725,-1.925,0.9013,-12.9587,93.12649168725412,10.620740002127746,-166.70779763352158,20.0311418011578
0.1875,0.9596,-0.0522,-0.2591,0.123,-0.0725,-2.5988,0.8487,-12.9412,93.11372442311405,11.021799639637038,-166.72748426276198,20.043320060293176
0.1873,0.9592,-0.0485,-0.2591,0.1226,-0.0718,-3.675,1.4262,-12.9062,92.8952077897536,11.034591907592702,-166.7590850002174,20.055462573884448
0.1837,0.9576,-0.054,-0.2589,0.1218,-0.0698,-3.8325,1.3825,-12.9675,93.22659372770646,10.851071390012708,-167.2592247103251,20.06767834814532
0.1823,0.9534,-0.0483,-0.2589,0.1218,-0.0698,-3.4213,1.225,-13.0288,92.90110518268628,10.81310526284004,-167.11444083262617,20.079843866294677
0.1812,0.9536,-0.0479,-0.2567,0.1226,-0.0714,-3.325,1.6013,-12.985,92.87566357758199,10.748694688841683,-166.70273656698663,20.09203486641607
0.1805,0.9539,-0.0535,-0.2567,0.1226,-0.0714,-3.045,1.575,-12.5825,93.20914496979873,10.70082929228784,-166.8477961200289,20.104220911709568
0.1841,0.9536,-0.0497,-0.2593,0.1221,-0.0686,-3.2725,1.4787,-12.5037,92.98410474503845,10.90305357890995,-167.41352428155616,20.11356996411643
0.1884,0.9561,-0.0465,-0.257,0.1217,-0.07,-3.955,1.8375,-12.5562,92.78496374803665,11.124000289120728,-166.9574034004767,20.12565266585667
0.1909,0.9603,-0.0423,-0.257,0.1217,-0.07,-4.2788,2.1,-12.74,92.52293074225074,11.227752930522788,-166.84787062853596,20.137841188564117
0.1959,0.965,-0.0376,-0.2593,0.1218,-0.071,-4.5938,2.7037,-12.7575,92.23216664274253,11.4556164467657,-166.64529272512146,20.150077489969128
0.1914,0.9586,-0.0362,-0.2593,0.1218,-0.071,-4.2962,2.6075,-13.195,92.16285567813793,11.291797625960944,-166.60494997820498,20.16216833178377
0.1821,0.9468,-0.032,-0.257,0.1226,-0.071,-5.4338,2.9838,-12.81,91.93640342246559,10.90050720149577,-166.3891833587724,20.174345883086588
0.1765,0.9407,-0.0225,-0.2582,0.1222,-0.0702,-4.795,1.9425,-12.7487,91.37178805929544,10.636310465719264,-166.33353489124843,20.186632794519394
0.1667,0.9364,-0.0268,-0.2582,0.1222,-0.0702,-4.27,1.7587,-12.4337,91.63860358136222,10.114852444977773,-166.4168317458206,20.19870381702245
0.1654,0.9337,-0.0277,-0.255,0.1214,-0.0695,-2.8263,0.6038,-12.6612,91.69911716716582,10.044277264270194,-166.41629157667572,20.2105762924934
0.1658,0.9304,-0.0212,-0.2581,0.1231,-0.0706,-1.89,-0.2187,-12.6175,91.30643300182939,10.099257525534588,-166.20142188821592,20.222892225061024
0.1683,0.933,-0.0329,-0.2581,0.1231,-0.0706,-0.7088,-1.54,-12.9325,92.01753413592417,10.214445529116823,-166.52118721572018,20.235185860903115
0.1796,0.9545,-0.0423,-0.2579,0.1222,-0.0702,0.3763,-2.9838,-14.0,92.53600890548967,10.629961058777218,-166.82964751609822,20.24738712459658
0.1814,0.9636,-0.0476,-0.2579,0.1222,-0.0702,0.2625,-4.62,-14.105,92.82717569832259,10.647952311818415,-166.9575810634457,20.256105852111837
0.1884,0.9643,-0.0473,-0.2574,0.1234,-0.0697,0.5425,-4.7163,-14.4637,92.80822555192302,11.028158025314237,-167.06978807162574,20.268295436568117
0.1838,0.9617,-0.0569,-0.2575,0.123,-0.0726,-0.245,-4.7163,-13.5537,93.3843781079339,10.809376925843996,-166.74199482031864,20.280571730512573
0.1854,0.962,-0.0614,-0.2575,0.123,-0.0726,-0.42,-4.7425,-13.2475,93.65121043423737,10.884167230545646,-166.86535905770847,20.29283209822451
0.1858,0.9542,-0.0592,-0.2562,0.1242,-0.0702,-1.5925,-4.3838,-13.3612,93.55045368923969,10.993985746277632,-167.2638624445556,20.30580419157205
0.1845,0.9543,-0.0562,-0.2562,0.1242,-0.0702,-2.2662,-4.1388,-13.3175,93.37084638715393,10.926337751540219,-167.1786034717397,20.317970063637688
0.1898,0.9531,-0.0574,-0.2563,0.1234,-0.067,-1.5662,-4.1125,-13.7725,93.4462332892585,11.231362653406112,-167.84946745517587,20.330180175238105
0.1923,0.9523,-0.0663,-0.2555,0.1226,-0.0701,-1.6887,-3.8588,-13.615,93.98102985731921,11.383786194561424,-167.43677866992599,20.342399488661762
0.1952,0.9579,-0.0725,-0.2555,0.1226,-0.0701,-2.24,-3.9288,-13.5187,94.32726779533066,11.482324300267898,-167.59726695822138,20.354684630513177
0.202,0.9606,-0.0686,-0.256,0.1224,-0.0688,-2.8875,-3.08,-13.3875,94.08546255009945,11.83260812483142,-167.7801279684,20.36687598455085
0.2065,0.9648,-0.0705,-0.256,0.1224,-0.0688,-2.9925,-1.855,-13.7725,94.17902879820834,12.041333237089859,-167.83338594179523,20.37918554662546
0.2099,0.9639,-0.0718,-0.2547,0.1231,-0.071,-3.9813,-0.77,-13.3787,94.25980855785551,12.243532377943867,-167.4100539609921,20.391299392998192
0.2087,0.9596,-0.0728,-0.2542,0.1234,-0.0694,-4.2,0.2888,-13.6675,94.33820486012893,12.23620646911053,-167.7449608804507,20.40350348802188
0.2175,0.9607,-0.0639,-0.2542,0.1234,-0.0694,-4.7775,1.645,-13.6237,93.80689846797426,12.707150410484823,-167.53026437329643,20.41566015826428
0.212,0.9552,-0.0647,-0.2558,0.1234,-0.069,-5.1712,2.8525,-13.3525,93.87478645851189,12.49639463178086,-167.69491936414525,20.427777897716073
0.2045,0.9489,-0.0559,-0.2558,0.1234,-0.069,-4.4975,4.2875,-13.5537,93.37286232808947,12.159672497490472,-167.45098277794648,20.437203396039042
0.1961,0.9435,-0.0505,-0.2557,0.1226,-0.0684,-5.46,4.7775,-13.3262,93.06467273069588,11.747840706185832,-167.38831225624304,20.449433326951045
0.1893,0.9401,-0.0564,-0.2556,0.1211,-0.0689,-4.9263,5.2937,-13.4925,93.43220566253044,11.385654569978788,-167.39905953438208,20.46161972616082
0.1848,0.9508,-0.0579,-0.2556,0.1211,-0.0689,-4.34,5.7488,-13.6237,93.48463447045461,11.00163932452997,-167.40000387469988,20.473699950487113
0.1906,0.9553,-0.0533,-0.2562,0.1218,-0.069,-4.4187,5.8362,-12.7925,93.1942857047027,11.251633792543009,-167.30806417771325,20.485844587576054
0.1948,0.9598,-0.0577,-0.2562,0.1218,-0.069,-3.885,5.6262,-11.235,93.43958665983847,11.44168984416147,-167.42768504762674,20.49799205599522
0.1926,0.9626,-0.063,-0.2557,0.1228,-0.0641,-4.1825,6.44,-12.985,93.74366385314599,11.299634860298482,-168.52322965903537,20.510169253381758
0.191,0.9649,-0.0598,-0.2576,0.1224,-0.0686,-4.8562,6.5975,-13.1512,93.54695662050224,11.183106902486253,-167.61104365993882,20.522322030545098
0.1853,0.959,-0.0631,-0.2576,0.1224,-0.0686,-4.9437,6.685,-13.5362,93.76387865407527,10.928749518118344,-167.69241222957666,20.534501705345587
0.1842,0.9603,-0.0615,-0.2585,0.1226,-0.0699,-5.7225,6.9212,-13.6062,93.66464689139687,10.842074345312707,-167.4314695555861,20.546653774676372
0.1851,0.9636,-0.0575,-0.2585,0.1226,-0.0699,-5.6525,6.9563,-13.405,93.41562792289452,10.854017550469871,-167.32181527160685,20.558820354574564
0.1885,0.9606,-0.062,-0.2549,0.122,-0.0665,-6.4225,7.2275,-13.405,93.69211771931104,11.066110255900682,-167.96251720916382,20.56826248696261
0.1889,0.9603,-0.0637,-0.2569,0.1231,-0.0667,-7.4725,7.4725,-12.8275,93.79476793107199,11.102375750526111,-168.07656840903624,20.580368901093497
0.196,0.9617,-0.0598,-0.2569,0.1231,-0.0667,-7.6912,7.4025,-13.0812,93.55884547876995,11.473785735650138,-167.99201221233798,20.59257795094508
0.2008,0.9635,-0.0615,-0.2572,0.1222,-0.0678,-8.0762,7.6825,-13.44,93.65195170542029,11.732053026433485,-167.82469013203513,20.604728604610752
0.2049,0.9631,-0.0626,-0.2572,0.1222,-0.0678,-8.3475,7.9538,-13.2212,93.71871059273523,11.970090323328266,-167.86654768835714,20.616880673941534
0.2022,0.9621,-0.0559,-0.2578,0.1198,-0.0671,-9.24,8.9075,-13.3175,93.32641084451532,11.85750587101578,-167.79905897485764,20.62900407605378
0.2051,0.9604,-0.0556,-0.2561,0.1219,-0.0651,-10.15,10.2987,-14.105,93.31333851377241,12.022142461106672,-168.16901549974392,20.641334165272532
0.1969,0.9537,-0.057,-0.2561,0.1219,-0.0651,-10.15,11.2788,-14.5687,93.42002833530297,11.67511293264858,-168.19687665089785,20.65361399837977
0.1958,0.9539,-0.056,-0.2573,0.12,-0.0642,-10.9987,11.9875,-14.6912,93.35994707063408,11.588171757831653,-168.35525646629074,20.665890646240506
0.1962,0.9557,-0.0493,-0.2565,0.1203,-0.0613,-11.5325,12.4862,-14.5162,92.95419156623609,11.586494678801845,-168.7269671318627,20.678102881338596
0.1941,0.9607,-0.049,-0.2565,0.1203,-0.0613,-11.1387,12.8013,-14.4112,92.9199117412197,11.424018144815582,-168.70410436024906,20.69037775961794
0.1918,0.9627,-0.0484,-0.2579,0.1191,-0.0626,-11.445,13.685,-15.3912,92.87825981259743,11.270483608123733,-168.45414346753827,20.702643436074048
0.1982,0.9618,-0.0409,-0.2579,0.1191,-0.0626,-12.0925,14.4287,-15.4612,92.43630545904892,11.595254961308811,-168.2819418109996,20.714926454427793
0.1945,0.963,-0.042,-0.2564,0.1201,-0.0612,-12.7225,15.4088,-15.1988,92.4971192502612,11.430212217735697,-168.53205014263935,20.726913598772903
0.1918,0.9701,-0.0387,-0.259,0.1184,-0.0615,-12.88,16.1788,-15.1812,92.28510344004184,11.208396141351606,-168.44555690436817,20.739155916754644
0.1901,0.9692,-0.038,-0.259,0.1184,-0.0615,-14.5862,17.4737,-15.05,92.24539745405835,11.107624176939483,-168.42464905891254,20.751425132373537
0.188,0.9675,-0.0354,-0.2604,0.1186,-0.0593,-15.54,18.1212,-15.2687,92.09591381804776,11.009905115247163,-168.84850396693358,20.763705673313332
0.1793,0.9677,-0.0306,-0.2604,0.1186,-0.0609,-16.2663,18.3663,-14.8225,91.81201430283767,10.586359023804501,-168.38857825512866,20.776000724820538
0.1845,0.9661,-0.0227,-0.2594,0.1172,-0.0609,-17.5,18.4275,-14.7613,91.34739535538304,10.767853461711336,-168.14991429182743,20.788254368123187
0.177,0.9602,-0.0165,-0.2611,0.1177,-0.0572,-17.535,19.1362,-14.98,90.98555252354343,10.511902275326866,-168.78612352050644,20.800551543128062
0.1737,0.9579,-0.0128,-0.2611,0.1177,-0.0572,-17.22,19.005,-14.735,90.76622896876812,10.325580200846998,-168.6874849794544,20.812837392812032
0.1738,0.9582,-0.0133,-0.2617,0.1174,-0.0528,-18.1037,18.4975,-15.0062,90.79513865475107,10.288250252293297,-169.59198431705533,20.825123242496
0.1772,0.9596,-0.0043,-0.2596,0.116,-0.0526,-18.1825,18.095,-15.19,90.25835281253225,10.432043092534697,-169.32921021417914,20.837393873780005
0.1812,0.965,-0.001,-0.2596,0.116,-0.0526,-18.69,17.9638,-15.645,90.05996984465308,10.600265855752793,-169.25535729187143,20.850147954700134
0.1804,0.9639,0.0005,-0.2594,0.1155,-0.0512,-19.1012,18.0075,-16.2313,89.97054817307763,10.600568799734042,-169.48651597009308,20.86191602486899
0.1785,0.9659,0.0031,-0.2594,0.1155,-0.0512,-19.8362,18.7775,-15.9512,89.81657732420169,10.49589430012325,-169.41791345623906,20.87443758279429
0.1781,0.9676,0.011,-0.2626,0.1155,-0.0561,-20.2388,18.62,-16.31,89.35007855058838,10.441533635135631,-168.3755479428282,20.88658823645996
0.1743,0.9674,0.0122,-0.2601,0.115,-0.0462,-20.8337,18.55,-16.2663,89.27769307927205,10.255983488593197,-170.2132216909311,20.89881462820918
0.169,0.9637,0.0176,-0.2601,0.115,-0.0462,-21.3675,18.8475,-16.2838,88.95470486934317,10.00714851800001,-170.07203365273764,20.911035711214225
0.172,0.9654,0.0226,-0.2612,0.1138,-0.0454,-21.5338,18.9088,-15.89,88.65984505346773,10.080696017974434,-170.15591884436412,20.923219279093775
0.1745,0.9635,0.0297,-0.2612,0.1138,-0.0336,-23.3975,19.4162,-15.1025,88.23570250854351,10.220183038285544,-172.37448521394091,20.932789883090837
0.1753,0.9586,0.029,-0.2595,0.1142,-0.0336,-23.7475,19.1537,-15.1637,88.26709494198259,10.329102825641682,-172.34624691905816,20.944959294319254
0.1792,0.9652,0.0354,-0.2583,0.1131,-0.0401,-24.255,18.9,-15.6012,87.90066177717148,10.474180418672928,-170.84411611082967,20.957195949640546
0.1833,0.9702,0.0423,-0.2583,0.1131,-0.0401,-25.4538,20.5713,-15.7762,87.5047417092084,10.623358958007152,-170.69093551406345,20.969464103510603
0.1801,0.971,0.045,-0.2611,0.1116,-0.0315,-27.2737,20.125,-15.8112,87.34707059010849,10.53073947564949,-172.45904988660763,20.981673507278465
0.1817,0.9715,0.0525,-0.2594,0.1113,-0.0303,-28.3412,20.6238,-15.6975,86.90809479514151,10.56373888207188,-172.4907794224227,20.99385176641384
0.1732,0.9632,0.0509,-0.2594,0.1113,-0.0303,-29.3913,21.2712,-16.5287,86.97482916976206,10.328852408239188,-172.5063009421863,21.006154957995445
0.1621,0.9547,0.0633,-0.2606,0.1099,-0.0279,-29.6275,20.9913,-16.8,86.20901750407337,9.86532010814844,-172.72278686985464,21.01829640983788
0.1635,0.9517,0.0706,-0.2606,0.1099,-0.0279,-30.2138,20.965,-17.2812,85.7587970858866,9.771658619276346,-172.55188440822175,21.03051076843364
0.1591,0.9468,0.0755,-0.2609,0.1098,-0.0181,-30.8437,21.1312,-16.8262,85.44173947965035,9.605802093080436,-174.44164727110882,21.042683010992285
0.1552,0.945,0.0859,-0.259,0.1089,-0.0206,-30.9225,21.0438,-16.87,84.80809404775172,9.401933763070236,-173.6476191325495,21.05490869490895
0.1532,0.9451,0.0924,-0.259,0.1089,-0.0206,-30.8087,20.9037,-17.5525,84.41730328965293,9.24517409526722,-173.4927428185952,21.067161276462762
0.1553,0.9412,0.0981,-0.2578,0.108,-0.018,-30.7038,20.8687,-16.7475,84.05076644881922,9.294827889628701,-173.88195289882574,21.079358293160887
0.1507,0.9436,0.0977,-0.2578,0.108,-0.018,-31.2462,20.825,-16.7912,84.08856184102926,9.11523792046391,-173.89010867673508,21.09155955685435
0.1505,0.9443,0.1135,-0.2594,0.1069,-0.0173,-32.305,20.755,-17.675,83.14916364349389,9.031728579457846,-173.73096356101877,21.10382310981279
0.1417,0.9364,0.1186,-0.2584,0.1071,-0.0102,-32.0425,20.1863,-17.99,82.78276829642687,8.67264948063384,-175.02911165877617,21.11600420027839
0.124,0.9254,0.143,-0.2584,0.1071,-0.0102,-31.2812,19.2588,-17.7275,81.22056862595402,7.789497760723341,-174.40537197473034,21.12823908601829
0.1137,0.9267,0.1637,-0.2575,0.1071,-0.0049,-30.835,18.4538,-17.0713,79.98599414025652,7.056123145224557,-175.00116775490997,21.14047361784191
0.1091,0.9269,0.1691,-0.2575,0.1071,-0.0049,-29.8113,16.7912,-16.135,79.66189469890524,6.668952922167009,-174.87021972470131,21.152578970223963
0.1094,0.9304,0.1699,-0.2592,0.1076,-0.0034,-28.84,15.1025,-15.9687,79.65129693083571,6.6062367329346765,-175.19195592928392,21.162466329290076
0.1244,0.9202,0.1804,-0.2566,0.106,0.001,-28.5338,13.7812,-14.2012,78.91045162209939,7.462456320159035,-175.85797918219365,21.17431898544944
0.1146,0.9167,0.1843,-0.2566,0.106,0.001,-27.5363,12.5913,-13.9125,78.63324037375426,7.029593939842265,-175.7406557859771,21.18652909704986
0.1279,0.921,0.1845,-0.2568,0.1034,0.0016,-26.6175,9.6337,-14.2275,78.6720040437466,7.70305631125927,-176.00217692594055,21.198515887478692
0.1381,0.9246,0.1842,-0.2568,0.1048,0.0113,-25.1387,8.6975,-13.825,78.73278876823785,8.291987086329895,-178.00072085891213,21.210226977126744
0.1477,0.9284,0.1893,-0.2583,0.1048,0.0113,-24.4387,7.945,-14.07,78.4761998287713,8.824432460937283,-177.91808469490869,21.222450183629462
0.1495,0.9273,0.1956,-0.2564,0.1042,0.0119,-23.7213,7.8838,-15.3387,78.09010097173397,8.955734390518241,-177.9044900089019,21.234647554243864
0.1406,0.9218,0.2045,-0.2564,0.1042,0.0119,-23.7038,8.015,-16.0562,77.49341586593042,8.500234370330979,-177.66879050998864,21.24685023360244
0.1374,0.9256,0.2038,-0.2546,0.1049,0.0158,-23.2925,7.8488,-15.575,77.58239148131467,8.264516020849396,-178.47137008449872,21.25567867516396
0.1365,0.9287,0.2027,-0.2546,0.1049,0.0158,-23.135,7.1925,-15.8638,77.68727482006256,8.177324287811507,-178.51299540372165,21.267783319713455
0.1361,0.9303,0.2078,-0.2574,0.1025,0.0226,-22.715,6.0288,-16.0125,77.4094495018656,8.128578057931529,-179.93767688342376,21.279992015648762
0.1373,0.9337,0.213,-0.2543,0.1019,0.0192,-23.2663,5.7663,-16.0125,77.15011747427926,8.15702060467731,-179.15238530799962,21.29218372360271
0.1446,0.9401,0.2026,-0.2543,0.1019,0.0192,-23.485,6.1075,-16.3187,77.83615716219983,8.528804690878887,-179.42051281811618,21.304345702589288
0.1521,0.9417,0.2034,-0.255,0.1019,0.023,-23.9312,6.5975,-16.2488,77.81185950545311,8.945897709356197,179.51948781703882,21.316585189240804
0.1569,0.9435,0.203,-0.255,0.1019,0.023,-24.7187,6.7813,-16.5812,77.85741924821058,9.217203192287121,179.7753873845297,21.328766633622685
0.1577,0.9412,0.2084,-0.2555,0.1035,0.0254,-26.3463,7.7525,-16.8875,77.51607953888933,9.286149494833042,179.4845259164776,21.340977099139383
0.1571,0.9384,0.2091,-0.2514,0.102,0.0308,-28.0875,8.5575,-17.4125,77.43846574230324,9.280779447779073,178.29956020545615,21.350480812959848
0.148,0.9279,0.2242,-0.2514,0.102,0.0308,-30.1963,10.99,-17.7975,76.41965868422864,8.84927589066447,178.7051102265711,21.362624388299952
0.1426,0.9243,0.2291,-0.2519,0.1029,0.0338,-29.9862,11.585,-17.3337,76.08009562007788,8.543743290295982,178.26088647474728,21.374828483323643
0.138,0.9229,0.2298,-0.2519,0.1029,0.0338,-29.6012,12.6875,-17.325,76.01801025295853,8.281691417107819,178.28339401318894,21.38705558290542
0.1391,0.9201,0.2469,-0.2514,0.1038,0.0372,-31.43,13.4925,-17.0362,74.98232444984997,8.304790480565808,178.0465683401836,21.399115634003852
0.144,0.9179,0.2455,-0.2488,0.1002,0.0418,-31.395,14.245,-17.1325,75.02610689952533,8.585171037985097,176.83646868347606,21.41127053466486
0.1365,0.9105,0.2524,-0.2488,0.1002,0.0418,-31.64,14.6125,-17.7887,74.50769763566615,8.26008406217515,177.043175878893,21.42327006607971
0.1322,0.9035,0.2672,-0.2504,0.1026,0.046,-31.36,15.6363,-18.1212,73.5280672267645,8.02040355504431,176.73845522836356,21.43545575745693
0.1283,0.8993,0.2784,-0.2504,0.1026,0.046,-31.3862,16.6775,-18.3487,72.80109925153009,7.79697122675258,177.0413961468646,21.447655959401555
0.1219,0.8943,0.2876,-0.2487,0.1021,0.0466,-31.0625,16.9225,-18.4888,72.17456359392614,7.451788800400685,177.1253412945936,21.459825724546253
0.1168,0.8915,0.2976,-0.2472,0.1035,0.0549,-30.2225,17.0538,-19.005,71.54195868146073,7.1381649494967405,175.7480566154358,21.468951455781525
0.1082,0.8926,0.3065,-0.2472,0.1035,0.0549,-30.59,16.5812,-19.04,71.05014257057417,6.622569416170293,175.95230763731035,21.481128653168064
0.1055,0.8943,0.3124,-0.2454,0.1024,0.059,-29.1025,16.5375,-18.9787,70.74543699109229,6.391455915707045,175.1186083645695,21.49331682195923
0.1053,0.8931,0.3123,-0.2454,0.1024,0.059,-28.0788,16.4675,-18.62,70.72630305230818,6.356167814477482,175.12605246848113,21.505552415531685
0.1097,0.8907,0.3171,-0.2433,0.1023,0.0662,-28.035,16.5812,-18.585,70.40464818005823,6.582242461096184,173.73106322504037,21.517719703262436
0.1124,0.8869,0.3234,-0.2434,0.1019,0.0659,-28.3587,16.5812,-18.4363,69.96742966582238,6.761369851841651,173.97084222646347,21.529893715402473
0.1007,0.881,0.335,-0.2434,0.1019,0.0659,-28.2625,15.9512,-19.4687,69.18313370314485,6.182240110020956,174.30770267601525,21.542103827002894
0.0961,0.8785,0.3376,-0.2399,0.1038,0.0674,-27.37,15.47,-19.6963,68.97929006221052,5.87230966196329,174.1575660130482,21.55430862985914
0.0921,0.8782,0.3317,-0.2399,0.1038,0.0674,-26.565,14.9012,-20.9387,69.30721967868864,5.633351413377541,173.99093184856326,21.5664447729574
0.0897,0.8854,0.3381,-0.2398,0.1047,0.0774,-26.6437,14.1837,-22.54,69.10071368905857,5.4300813674029715,172.05878498699542,21.578698416260046
0.0876,0.8885,0.336,-0.2384,0.1042,0.0754,-27.1425,13.125,-23.2225,69.28454732380686,5.283907496577529,172.2929974521867,21.5908982642884
0.0868,0.8937,0.336,-0.2384,0.1042,0.0754,-28.1225,12.53,-24.3687,69.39514992729178,5.202456804909582,172.2349048114132,21.59992560679831
0.0863,0.8938,0.3387,-0.2332,0.1046,0.0822,-28.4638,11.97,-24.7012,69.24656558988342,5.162819390240018,170.72448801500872,21.61212687049177
0.0826,0.8902,0.3436,-0.2332,0.1046,0.0822,-29.6012,11.3225,-25.165,68.8954657599273,4.964601777380183,170.88831249565746,21.624352200492158
0.0888,0.8819,0.3433,-0.2309,0.1062,0.0832,-31.64,10.0537,-24.3687,68.73088664012445,5.331833750088798,170.84165352490422,21.636560542511184
0.0954,0.8747,0.3513,-0.2275,0.1069,0.087,-32.9,10.255,-24.08,68.12036627288323,5.746232504536669,170.31512876614235,21.648760744455814
0.1084,0.8522,0.3506,-0.2275,0.1069,0.087,-32.9263,10.6487,-23.415,67.63896203117743,6.636157305825879,170.63935091550275,21.661396617338998
0.0997,0.8423,0.3573,-0.2254,0.1078,0.0922,-33.8712,11.4187,-23.7912,67.01551672125947,6.252429114669064,169.84050082526883,21.673136728121868
0.0828,0.8355,0.3655,-0.2254,0.1078,0.0922,-33.9588,11.515,-25.4888,66.37443960716014,5.274232429206102,170.11236142973414,21.685316402922357
0.0676,0.8578,0.3757,-0.2235,0.1085,0.0961,-35.0,11.725,-28.7787,66.34758518131069,4.223282304358136,169.18186058969147,21.697508818708865
0.0533,0.8843,0.3795,-0.2221,0.1096,0.1025,-35.6825,11.3837,-30.975,66.7719208912918,3.254769581723567,167.4832313809952,21.709638237397836
0.0091,0.9145,0.3973,-0.2221,0.1096,0.1025,-37.8525,11.2875,-31.6138,66.51850992340272,0.7403962937513504,167.3005368625951,21.72179243022629
-0.0095,0.9066,0.4019,-0.2168,0.1116,0.1107,-39.935,11.1125,-30.38,66.09343137314117,-0.44762508312405486,165.43365216785756,21.73043081874638
-0.0179,0.889,0.4056,-0.2168,0.1116,0.1148,-41.6413,10.4475,-27.2038,65.4774780747438,-1.0045446798249875,164.8082180014487,21.743200118066472
-0.0132,0.8712,0.4108,-0.213,0.1122,0.1148,-43.7762,9.7388,-24.2637,64.7568926569999,-0.8007029789613809,165.1349331648476,21.75542084715524
0.0027,0.8524,0.4232,-0.2114,0.1135,0.1194,-45.22,8.33,-20.195,63.60027241884215,0.10048180170292301,165.07311473974053,21.767526553453568
0.0431,0.8421,0.4299,-0.2114,0.1135,0.1194,-44.975,7.9363,-20.1775,62.95735642302763,2.4523061535966337,165.92040358656402,21.77972038490519
0.0465,0.8356,0.4348,-0.21,0.1167,0.1294,-45.5875,8.4962,-21.3937,62.51148338232199,2.801786735527959,164.37371674922713,21.791895812710337
0.0406,0.8376,0.4437,-0.21,0.1167,0.1294,-45.78,8.4,-24.2987,62.08996624078277,2.47526248441204,164.60006224729707,21.804093891157297
0.0346,0.844,0.4612,-0.2095,0.1166,0.1329,-46.1475,8.9687,-26.6,61.34822894950873,2.088189725044468,164.25497662083382,21.8162831216973
0.0294,0.8493,0.466,-0.2045,0.1193,0.1391,-47.39,9.6162,-26.81,61.247320918752614,1.7628939285602403,162.88163675334002,21.82835980686081
0.0203,0.8449,0.4782,-0.2045,0.1193,0.1391,-47.7837,11.13,-25.8738,60.4933093999305,1.2422901713444607,163.33191273000102,21.83793218043926
0.0169,0.8264,0.4794,-0.203,0.1234,0.1476,-48.7988,12.6262,-24.955,59.883715200552004,1.0338058256723166,162.31182695037134,21.850086727183992
0.0058,0.8057,0.4971,-0.203,0.1234,0.1476,-49.63,13.7375,-23.2925,58.33142608788523,0.4185468419475505,163.4066071664805,21.862273834226322
0.0027,0.7862,0.5146,-0.201,0.1251,0.1536,-48.8862,14.42,-21.8575,56.79867945245902,0.19156603184482202,163.41993184237566,21.874403252915297
0.0061,0.7695,0.5216,-0.1972,0.126,0.1578,-47.3812,14.6562,-20.5975,55.87194877472928,0.35589883078703244,163.19915903967149,21.886530548106602
0.0012,0.7673,0.5248,-0.1972,0.126,0.1578,-45.605,14.4375,-19.8887,55.63035073305401,0.10392005712808193,163.33208118801923,21.898664567707193
-0.009,0.7801,0.5355,-0.1958,0.1282,0.1684,-44.2313,14.9187,-19.425,55.53264897662031,-0.47229370829895356,161.12728304929692,21.911242752237015
-0.0178,0.792,0.5408,-0.1958,0.1282,0.1684,-42.2887,15.295,-18.8913,55.67317904623916,-0.9942192905386857,160.82595736086938,21.92308089782897
-0.032,0.7996,0.5555,-0.1941,0.1292,0.1711,-41.7025,15.2687,-17.0538,55.21291277118705,-1.7789319299498167,160.37116972183966,21.935343742954853
-0.0587,0.7862,0.5603,-0.1918,0.1313,0.1744,-42.21,14.8312,-14.945,54.52594435748818,-3.2908426574442036,159.79176052671647,21.947556331969224
-0.0479,0.7762,0.5625,-0.1918,0.1313,0.1744,-41.3437,13.405,-13.7462,54.07120989658334,-2.9018424520999266,160.49309680023526,21.95978130805333
-0.0365,0.7719,0.5721,-0.1922,0.1338,0.1827,-40.8625,12.8187,-12.5913,53.45767881483395,-2.2414291710247,159.94707685736114,21.972043445346657
-0.0214,0.7709,0.5684,-0.1899,0.1361,0.1815,-39.4012,11.5762,-11.2962,53.59745759414526,-1.3582960522211156,160.5534581147716,21.98420790174718
-0.0159,0.7691,0.5682,-0.1899,0.1361,0.1815,-38.675,11.725,-11.0337,53.543716931983376,-0.9860822234112577,160.73213983100362,21.99642438384061
-0.0051,0.7657,0.5816,-0.1909,0.1373,0.1888,-38.5788,11.9787,-10.3687,52.78334612315712,-0.3613672232812872,160.46840458875187,22.008592379403915
-0.0012,0.7578,0.5869,-0.1909,0.1373,0.1888,-39.27,12.4862,-9.8087,52.24470374038478,-0.09722325892936719,161.11733443006463,22.01808335223836
-0.0073,0.7496,0.5989,-0.191,0.1398,0.1993,-39.305,13.545,-9.94,51.37933497111838,-0.40304697165914105,160.11481782961852,22.03027753760626
-0.0132,0.7438,0.6065,-0.191,0.1379,0.199,-38.3512,15.1375,-9.625,50.80776884914038,-0.743798455814881,160.34167071329563,22.04242359036031
-0.0184,0.7352,0.6187,-0.191,0.1379,0.199,-38.0975,14.945,-9.4762,49.92088604749091,-1.0573459180495022,161.2044776748225,22.05461989922588
-0.034,0.728,0.6241,-0.1894,0.1438,0.2027,-36.4437,14.2625,-10.2112,49.395834950839564,-1.9291665057157215,161.5497955807691,22.066857616296005
-0.0359,0.7315,0.631,-0.1894,0.1438,0.2027,-34.8862,13.8863,-8.5925,49.21913911298329,-2.1082433598968224,161.7205632194351,22.078919790892108
-0.03,0.7288,0.6278,-0.1901,0.1446,0.2138,-34.5363,13.7375,-7.9187,49.257741327811694,-1.818184271306632,159.64658427914446,22.091091679534472
-0.0256,0.7332,0.6246,-0.1885,0.1484,0.2116,-33.25,13.5012,-7.77,49.5719278715306,-1.5510685041481491,160.36838302839843,22.10331063904185
-0.0206,0.7343,0.6204,-0.1885,0.1484,0.2116,-32.865,13.4837,-7.4725,49.805259306011685,-1.2588310164197978,160.2171383166385,22.115485359014443
-0.0159,0.7325,0.6235,-0.1907,0.1472,0.2142,-32.7163,13.5625,-7.1225,49.59640775603373,-0.9772906763393888,160.05182801556575,22.127633535266163
-0.0237,0.7287,0.6274,-0.1907,0.1472,0.2142,-31.78,13.2388,-6.9738,49.27304345884141,-1.3709188099126455,160.23431192121248,22.1396642113135
-0.0207,0.7288,0.6268,-0.1898,0.1492,0.2242,-30.9575,12.7137,-6.8688,49.30292961429461,-1.2459558048330723,158.46188926673724,22.149186682696715
-0.0167,0.7346,0.628,-0.189,0.1489,0.2224,-30.5287,11.9087,-6.2737,49.472768407274664,-1.0114004709646902,158.60555303718087,22.16189121533788
-0.0165,0.7326,0.6159,-0.189,0.1489,0.2224,-29.61,10.7362,-6.4225,49.9446225255137,-0.9894704021475145,158.03883204756343,22.173527274734944
-0.0128,0.7315,0.6156,-0.1907,0.149,0.2254,-29.1112,9.7912,-6.6413,49.91751264794684,-0.782867065814762,157.76948027245675,22.18555193420555
-0.0076,0.7269,0.6231,-0.1907,0.149,0.2254,-30.4412,9.8875,-7.2888,49.39837476299221,-0.47830667455910625,158.5373620722375,22.19767321282012
-0.006,0.7219,0.6175,-0.1901,0.1528,0.2248,-32.0775,9.9575,-9.2312,49.45674538810442,-0.3702560537521956,159.2194500634265,22.209762992885928
0.0009,0.716,0.6148,-0.1893,0.1545,0.2314,-33.5213,10.71,-10.9287,49.34899728762726,0.022300499973934577,158.43709112596102,22.22194691468176
-0.0056,0.7095,0.6309,-0.1893,0.1545,0.2314,-35.1575,10.815,-13.3787,48.35906520879175,-0.3103010744379353,159.479015416541,22.23388981949208
-0.0244,0.6994,0.6415,-0.1882,0.1565,0.2368,-35.8312,10.5962,-15.2862,47.47529248134753,-1.3850384484490632,159.21483840066577,22.246158327278415
-0.0328,0.6959,0.6471,-0.1882,0.1565,0.2368,-37.345,11.13,-15.8025,47.082266832651705,-1.9303300012370672,159.47823131942144,22.25841692540896
-0.0361,0.688,0.6537,-0.1887,0.1587,0.2437,-38.4825,11.2962,-14.6037,46.46639095072166,-2.1586396073159224,159.2529674682109,22.27065782772559
-0.0395,0.6762,0.6614,-0.1873,0.1625,0.2467,-39.025,11.69,-12.425,45.63658382784337,-2.372141770550671,160.28648860662898,22.28292527376309
-0.0312,0.6401,0.6783,-0.1873,0.1625,0.2467,-39.5412,11.9263,-7.9187,43.34768302804726,-1.9542818889581015,163.92410789709245,22.292594974318067
-0.0268,0.6189,0.6828,-0.1872,0.164,0.251,-40.5825,13.4663,-5.1975,42.19333829481941,-1.693564366726463,165.2316895677654,22.304703158030343
-0.0212,0.6043,0.6824,-0.1872,0.164,0.251,-39.6987,13.7637,-3.4825,41.52865890318701,-1.3681708806391775,166.39351144925934,22.316573156087344
-0.0102,0.5923,0.693,-0.187,0.1658,0.2562,-38.1763,14.315,-3.2288,40.52337999150145,-0.7173135176759835,167.58368557872498,22.32868700246007
-0.002,0.5948,0.694,-0.1862,0.1688,0.2595,-38.0625,14.385,-2.1788,40.59833584598501,-0.18792214203609675,167.625808127824,22.34081606723277
-0.0041,0.6204,0.7106,-0.1862,0.1688,0.2595,-37.38,14.5862,-3.4475,41.121408352563286,-0.24242940053934958,166.75634838117472,22.353031133661084
-0.0168,0.6276,0.7215,-0.1867,0.1706,0.2656,-38.29,14.2012,-6.195,41.01885006768048,-0.9272881245725365,165.87495988358083,22.365270974228878
-0.0293,0.6291,0.7358,-0.1867,0.1706,0.2656,-39.3138,12.25,-9.905,40.531598201796605,-1.6640806425378043,166.37696106634328,22.37747683883396
-0.0348,0.6302,0.7451,-0.1834,0.1755,0.2622,-40.5037,10.5437,-13.8162,40.22527614438007,-2.0138964894011093,168.399538737139,22.389655097969335
-0.0436,0.6217,0.7503,-0.1847,0.1769,0.2741,-41.1338,8.7412,-17.4125,39.64707257401994,-2.5257292251922796,167.18855960171925,22.401888214127844
-0.0629,0.598,0.7704,-0.1847,0.1769,0.2741,-42.455,7.5862,-19.9675,37.825228871862976,-3.6186305337479654,170.16195781632968,22.41408452299341
-0.0737,0.5782,0.7799,-0.1813,0.1816,0.2806,-44.0037,6.5887,-20.825,36.55651633157632,-4.299277402514109,172.22489318787325,22.423091338359182
-0.0743,0.5623,0.7803,-0.1813,0.1816,0.2806,-42.4113,3.605,-21.105,35.779798542124624,-4.411570324005884,173.84486381582744,22.43576684986553
-0.0642,0.556,0.7893,-0.1797,0.1851,0.2882,-41.7112,3.0013,-19.985,35.16368346587745,-3.833476901868996,174.6564756511912,22.447888128480102
-0.0565,0.552,0.7982,-0.1778,0.1886,0.2912,-40.9675,2.5025,-19.6525,34.66762602126455,-3.3554235225438545,176.1765719060453,22.460048337885286
-0.0617,0.5445,0.806,-0.1778,0.1886,0.2912,-39.6463,2.0825,-18.795,34.043322012756235,-3.6169659333542414,177.52028570519374,22.472226243104384
-0.0659,0.5408,0.8153,-0.1776,0.1934,0.2955,-39.025,1.89,-17.9375,33.55842997404275,-3.8427335039205763,179.18695476603062,22.48437831243517
-0.0625,0.5366,0.8179,-0.1776,0.1934,0.2955,-37.5988,1.785,-17.2987,33.268618793367665,-3.6642487386019966,179.85433350371449,22.49651764077993
-0.0644,0.5264,0.8222,-0.1766,0.1966,0.3021,-36.5575,2.31,-16.8262,32.630758928162464,-3.7689573562500414,-178.71860334985544,22.508680681515344
-0.0682,0.5161,0.8294,-0.1757,0.1993,0.3041,-35.1837,2.765,-15.715,31.894557532530065,-3.9829813907281193,-176.73779067590402,22.52088159129253
-0.069,0.5035,0.8321,-0.1757,0.1993,0.3041,-33.74,3.4038,-15.4175,31.18019315946289,-4.054414162811005,-175.0019336087939,22.53302764404658
-0.0722,0.4986,0.8284,-0.1764,0.2033,0.3085,-31.955,3.3688,-15.0587,31.04345410180595,-4.259997338235878,-174.19311556542047,22.54254693018329
-0.0752,0.4974,0.8231,-0.1764,0.2238,0.311,-30.1613,3.4563,-14.7875,31.144289104761537,-4.460706958291653,-168.13939752682182,22.554599902956156
-0.0896,0.4961,0.8149,-0.1758,0.2052,0.311,-27.1688,3.185,-13.9475,31.33190622612961,-5.321541448295306,-174.47395133724635,22.5667640054404
-0.1102,0.4925,0.808,-0.1758,0.2065,0.3135,-24.3162,2.6688,-13.5362,31.36345201210624,-6.58023691913785,-174.27304029363475,22.578936601915323
-0.1398,0.4943,0.7956,-0.1758,0.2065,0.3135,-21.8838,1.0587,-13.0113,31.85087937643577,-8.40528247498162,-175.19426233741342,22.591113445385588
-0.1344,0.5068,0.7874,-0.1738,0.2094,0.3187,-20.86,-0.2538,-12.705,32.76408167680996,-8.17764355482311,-178.25160800565428,22.603272593041936
-0.121,0.5131,0.792,-0.1746,0.212,0.3178,-20.5187,-2.24,-13.6763,32.93680516985831,-7.340049340848889,-177.6429770104826,22.615513849274844
-0.0931,0.5123,0.7907,-0.1746,0.212,0.3178,-20.44,-3.6925,-15.2775,32.93947321283533,-5.705018176573902,-177.8488046051642,22.62790304251207
-0.0478,0.5032,0.7849,-0.1742,0.213,0.3215,-20.2388,-3.99,-16.38,32.6647928986695,-3.0343923794573273,-177.8473976007527,22.639979373759303
-0.0683,0.4932,0.7856,-0.1742,0.213,0.3215,-20.0287,-2.5813,-17.3862,32.12225540977265,-4.166681547789594,-176.28165012631675,22.652152324150503
-0.0842,0.4912,0.7874,-0.174,0.2149,0.3217,-20.9037,-0.2975,-16.94,31.957454565216104,-5.141994846051756,-175.01859635871463,22.664378008067168
-0.0981,0.4989,0.7811,-0.1742,0.2149,0.3258,-20.6937,0.9887,-15.82,32.56512979219178,-6.002571912361491,-177.51262265886072,22.676555559369987
-0.0953,0.5139,0.7695,-0.1742,0.2149,0.3258,-21.28,1.995,-11.4712,33.73289998949754,-5.885817039925001,178.7710849275045,22.688731341091415
-0.0658,0.5375,0.7667,-0.1731,0.219,0.3278,-23.1963,2.2925,-11.935,35.028678946561946,-4.106335495844802,176.51072617474784,22.700754584896906
-0.0457,0.5322,0.7643,-0.1731,0.219,0.3278,-25.0425,3.3863,-11.8125,34.85094321090768,-2.8725947776825502,177.16827636879574,22.709686723927963
-0.0304,0.5263,0.7719,-0.1733,0.2207,0.3353,-27.8775,4.795,-13.2912,34.28884394732983,-1.9166685248232866,177.66120006463194,22.7220366324583
-0.0289,0.514,0.7778,-0.1721,0.2225,0.3331,-30.0737,6.5188,-13.51,33.460829580586235,-1.7836795058754116,-179.0174114456788,22.734126058607828
-0.0271,0.5042,0.8048,-0.1721,0.2225,0.3331,-31.6225,8.6538,-12.8887,32.07111950382704,-1.6443354711619487,-175.833090443225,22.74630537949204
-0.036,0.4693,0.8095,-0.1714,0.2266,0.3366,-32.9875,11.1737,-12.81,30.10876983084413,-2.1592045817906436,-170.08977281902125,22.75854840530634
-0.0447,0.4559,0.8193,-0.1714,0.2266,0.3366,-33.88,13.79,-12.6,29.09696297440035,-2.6728008589103247,-167.26757366674812,22.771227102059193
-0.0554,0.4381,0.8272,-0.1691,0.2305,0.3378,-35.5513,15.5225,-12.4687,27.91025476076193,-3.3012976435807704,-162.5245482969142,22.78342305700848
-0.0647,0.4246,0.8385,-0.1692,0.2343,0.3434,-35.6562,16.4412,-12.1712,26.860086506435152,-3.8520106941060344,-159.01564068752896,22.795308273465444
-0.0715,0.4064,0.8476,-0.1692,0.2343,0.3434,-34.7287,16.24,-12.5825,25.62030105812493,-4.284367704724058,-155.46098455872348,22.80754457487046
-0.0678,0.4022,0.8512,-0.1653,0.2379,0.345,-33.4337,16.8175,-12.6175,25.292205983279107,-4.1426786009310534,-153.39464939608536,22.81979927992194
-0.0656,0.4005,0.851,-0.1653,0.2379,0.345,-31.9988,17.2725,-11.83,25.203023914755455,-4.013039027056546,-153.34110686577978,22.832075573866398
-0.0656,0.3988,0.8516,-0.165,0.2399,0.3416,-31.2287,17.3512,-12.39,25.093797630171306,-3.994009098474262,-151.97516044546308,22.84429347162494
-0.0684,0.3969,0.8536,-0.1606,0.2428,0.35,-31.1325,17.85,-12.4337,24.937590615697818,-4.12886625638626,-150.7753741971601,22.856515262462544
-0.0742,0.3978,0.8425,-0.1606,0.2428,0.35,-31.2637,17.7012,-13.09,25.274045805268326,-4.484360010191209,-151.04577519424936,22.86879580340234
-0.0805,0.4017,0.8495,-0.1588,0.2485,0.349,-30.6338,16.8962,-13.2475,25.307788157171384,-4.837122825433493,-148.31172689031555,22.881049092788707
-0.1029,0.3938,0.8649,-0.1588,0.2504,0.3546,-30.7912,16.6775,-14.3762,24.482950846919426,-5.992556203657296,-144.13686629859157,22.89325106431473
-0.1318,0.3741,0.8699,-0.157,0.2504,0.3546,-30.695,15.435,-14.7613,23.27386336781,-7.694341694043453,-137.15502800044555,22.90552594259407
-0.1359,0.3587,0.8807,-0.1546,0.253,0.3569,-29.9687,12.5913,-13.9912,22.164010600684524,-8.094113744773354,-132.94852086238066,22.914452772880953
-0.1112,0.3628,0.8815,-0.1546,0.253,0.3569,-28.875,9.0475,-13.2125,22.370015486584467,-6.751070121201725,-136.70617838402265,22.926725881578907
-0.0906,0.373,0.8747,-0.1538,0.2562,0.3582,-28.3675,5.88,-11.6462,23.092711078626262,-5.515375396618737,-139.72620156364871,22.938908033793343
-0.0869,0.3869,0.8698,-0.153,0.2604,0.3635,-28.2975,5.1013,-11.2962,23.977473864242338,-5.231745922473532,-141.2933793473325,22.951131594212338
-0.0999,0.3945,0.8805,-0.153,0.2604,0.3635,-29.7675,4.6725,-10.9112,24.13384461956419,-5.875943855687393,-140.25915097370802,22.96331905517095
-0.1248,0.375,0.8919,-0.155,0.2627,0.3646,-28.9538,3.185,-10.43,22.808462897186924,-7.278581023148487,-134.0963625684335,22.97553482943182
-0.1272,0.3611,0.8978,-0.155,0.2627,0.3646,-29.5487,1.015,-9.4937,21.913038102830672,-7.47918545155549,-131.96307939748084,22.987727599134605
-0.1183,0.3538,0.9066,-0.1533,0.2643,0.361,-29.715,-1.4787,-9.3625,21.32002244309561,-6.952467340864066,-131.01697439450805,22.999953636967547
-0.0991,0.3524,0.9076,-0.1542,0.2669,0.3699,-29.225,-3.4825,-8.8375,21.220344117400316,-5.853610930980599,-133.40742814618312,23.012205156772524
-0.0867,0.3494,0.9104,-0.1542,0.2669,0.3699,-29.1287,-4.8738,-9.4062,20.9968633998765,-5.107704165669999,-134.47865465030802,23.024369613173047
-0.1055,0.3278,0.9423,-0.1551,0.2703,0.3755,-28.8838,-6.2213,-9.6337,19.18697555497531,-6.0053970926350715,-129.207958490864,23.033251850008867
-0.1214,0.31,0.9397,-0.1551,0.2703,0.3755,-27.6063,-8.4263,-9.1612,18.260197273657127,-6.963825484098612,-125.78110182223311,23.04551469513475
-0.1135,0.296,0.9349,-0.1571,0.2732,0.3804,-24.9725,-11.0513,-10.1587,17.570492837561158,-6.6124481548627125,-125.75996391560628,23.057760198362995
-0.0714,0.2962,0.9289,-0.161,0.2761,0.3808,-21.4988,-17.6312,-14.21,17.68566593635866,-4.246854444091052,-130.96174005098695,23.070013487749364
-0.0235,0.3077,0.9005,-0.161,0.2761,0.3808,-16.7213,-16.7825,-17.0713,18.86173683528894,-1.4843236881725557,-137.32395870730122,23.08229862960078
0.0109,0.3294,0.8929,-0.163,0.2775,0.3838,-16.5462,-14.595,-19.4337,20.245406440495817,0.6004962953675596,-142.83222193090728,23.09456607563828
0.0109,0.3315,0.8887,-0.163,0.2775,0.3838,-15.5312,-11.6112,-21.56,20.455732738918115,0.6567614136173008,-143.19790498065777,23.106820426773485
0.0012,0.3335,0.8772,-0.1636,0.2808,0.3861,-15.6012,-8.5837,-24.3687,20.815081074157515,0.09125510976387399,-142.65981750595284,23.119013196476267
-0.0115,0.3354,0.8697,-0.1621,0.2828,0.386,-15.715,-6.0288,-26.46,21.088330685884895,-0.6801268697037884,-141.3732642570269,23.131251267462673
-0.0364,0.3384,0.8597,-0.1621,0.2828,0.386,-14.84,-3.6837,-28.6475,21.484695856477053,-2.198930077007615,-139.7355552170588,23.143581356681427
-0.0536,0.3466,0.8442,-0.1614,0.2864,0.3879,-15.1637,-1.82,-29.6275,22.31891681648622,-3.3160886396722424,-138.66411729858368,23.155787221286506
-0.0698,0.3523,0.8502,-0.1614,0.2864,0.3879,-14.7,-0.63,-28.7175,22.507242112240927,-4.295558717523357,-137.24126843601715,23.16798459190091
-0.0822,0.3525,0.8596,-0.1588,0.2878,0.3926,-15.4875,0.4288,-27.72,22.297903946134568,-5.023643712912272,-134.8112783193972,23.18020850623618
-0.0892,0.3429,0.8544,-0.1602,0.2922,0.3904,-17.0975,1.6538,-23.31,21.86856633090674,-5.511060874314543,-132.19643844315453,23.19244339197608
-0.0816,0.3276,0.8588,-0.1602,0.2922,0.3904,-17.7187,2.1175,-20.6413,20.88293009348672,-5.093366906015545,-131.42160355924045,23.20466624456252
-0.0759,0.3226,0.8564,-0.1582,0.2945,0.3874,-18.1125,2.9663,-18.7687,20.641770468950433,-4.757992203663342,-130.58840182338403,23.21686609259087
-0.078,0.3159,0.8629,-0.1582,0.2945,0.3874,-17.9725,4.8475,-16.87,20.10882577411877,-4.846896707011097,-129.5282392909231,23.225855919975285
-0.0868,0.3057,0.8755,-0.1566,0.2958,0.4003,-18.1562,5.7838,-14.6125,19.250341693932068,-5.3196805037533235,-127.15246879400493,23.237750692171762
-0.0921,0.2955,0.8837,-0.156,0.2964,0.3952,-18.1825,6.7987,-12.4425,18.49166979666181,-5.625779783138415,-125.01631687231409,23.24991196332578
-0.0819,0.2913,0.8914,-0.156,0.2964,0.3952,-17.465,6.4837,-11.4712,18.098017371621353,-5.027696308740991,-125.81278457519942,23.26215675872147
-0.0738,0.2917,0.8952,-0.1543,0.3006,0.3996,-16.5812,6.44,-10.4912,18.048294566590023,-4.51322590229336,-125.80413251379898,23.275042850413392
-0.0772,0.2857,0.8968,-0.1543,0.3006,0.3996,-16.2313,6.7638,-9.4587,17.671813821887426,-4.678736413972846,-124.90305321455209,23.287143601883827
-0.0844,0.278,0.9036,-0.1554,0.3009,0.3996,-16.1963,7.2888,-9.5725,17.10264390283169,-5.0760011633474225,-123.58836959525217,23.299462719697953
-0.0907,0.2739,0.9108,-0.154,0.3022,0.399,-15.4437,7.5163,-9.485,16.738410860622174,-5.424733822818792,-121.93850541578901,23.311450571875618
-0.0953,0.2725,0.9195,-0.154,0.3022,0.399,-14.3937,6.7025,-9.4937,16.50822644434395,-5.660336448516051,-121.22698020269398,23.323433115309108
-0.0814,0.2761,0.92,-0.1546,0.3037,0.3999,-12.8013,3.8588,-11.3312,16.704378588196214,-4.884757653399354,-123.01697537879201,23.332506820851474
-0.0688,0.281,0.918,-0.1546,0.3037,0.3999,-12.3987,3.2725,-14.3675,17.018434976396627,-4.137188990038743,-124.80653061191688,23.344699944470538
-0.0692,0.2765,0.9262,-0.1526,0.3057,0.4001,-12.5387,2.9838,-16.66,16.623194418425964,-4.096946792594064,-123.60336652440371,23.35693199888021
-0.0763,0.2636,0.9317,-0.1513,0.3074,0.3996,-11.7337,2.6775,-20.2912,15.799887658981696,-4.486305804624649,-121.38058186006364,23.36911096584814
-0.1169,0.2403,0.9448,-0.1513,0.3074,0.3996,-10.9987,2.3363,-22.4088,14.274494454218825,-6.728502540474563,-115.4992097294444,23.381276837913777
-0.123,0.2377,0.9567,-0.1501,0.3086,0.4027,-9.9837,2.0213,-23.17,13.954011653457018,-7.094651720196117,-114.2914619502993,23.393436693402684
-0.1243,0.2409,0.9591,-0.1501,0.3086,0.4027,-8.1462,1.295,-23.4587,14.09905678496492,-7.161208916014148,-114.29906586145239,23.405567881673047
-0.112,0.2502,0.9473,-0.1493,0.3108,0.4023,-6.44,1.4437,-23.1262,14.793044479944868,-6.54978927761066,-115.69147464563439,23.41778577943159
-0.1087,0.2647,0.9434,-0.1503,0.3127,0.4025,-5.04,1.1287,-22.4962,15.670571543258928,-6.3400207589006,-116.84230560573164,23.42987732907879
-0.1108,0.2729,0.9241,-0.1503,0.3127,0.4025,-4.7163,1.4,-21.5075,16.450378961101983,-6.549903581095498,-117.09274728591443,23.43896412952345
-0.1089,0.2709,0.92,-0.1483,0.3114,0.4044,-4.6025,1.925,-19.8887,16.407532413258068,-6.481419432552612,-116.91591614616156,23.451089301217085
-0.1042,0.2728,0.9097,-0.1483,0.3114,0.4044,-4.2613,2.0125,-18.6375,16.692068608722654,-6.271315169780927,-117.65031574670253,23.463368072575488
-0.0988,0.2755,0.9049,-0.1494,0.3131,0.4002,-3.9725,2.38,-17.4913,16.932364547454135,-5.97727462788504,-118.50024431853971,23.475434848083207
-0.0874,0.2776,0.8953,-0.1456,0.3132,0.4018,-4.4888,2.0475,-15.7762,17.225918261033932,-5.356781122100017,-119.21042721990887,23.48775573547873
-0.0634,0.2925,0.8866,-0.1456,0.3132,0.4018,-5.5388,2.8175,-14.9362,18.25536893830635,-3.954914087445107,-123.31541235476746,23.499844807711977
-0.0679,0.2902,0.8816,-0.1466,0.3132,0.4014,-6.5275,3.4563,-14.8837,18.220314267017496,-4.172917874884988,-122.89550466466942,23.51195617667076
-0.0827,0.2846,0.8791,-0.1466,0.3132,0.4014,-8.0237,4.2875,-14.4812,17.939668385681223,-5.066226952385303,-120.66703835470338,23.524015519936636
-0.0934,0.2786,0.8876,-0.1454,0.3154,0.3958,-9.52,4.3137,-14.5338,17.427533882987365,-5.699033603099133,-118.13233571644125,23.533753526333317
-0.095,0.2699,0.8866,-0.1448,0.3139,0.4034,-9.3537,3.5963,-15.4175,16.932816037032236,-5.845151033608484,-117.5508064945729,23.545529736576576
-0.1023,0.2563,0.8898,-0.1448,0.3139,0.4034,-9.8175,3.4563,-15.3212,16.071157668049256,-6.281832033619216,-115.79578297833112,23.5577593135723
-0.0915,0.2424,0.8891,-0.1446,0.3174,0.4038,-10.22,3.36,-14.5862,15.252609186103104,-5.700112361698628,-115.90739771943564,23.569999154140095
-0.0827,0.2389,0.8901,-0.1446,0.3174,0.4038,-10.4737,3.9463,-14.3238,15.024594409485008,-5.156463913094208,-116.7622987001716,23.5819912533131
-0.0888,0.237,0.8852,-0.1454,0.3193,0.4054,-10.0625,3.9988,-14.0262,14.988713296630777,-5.515803873995204,-115.92988930153302,23.594149339220614
-0.099,0.2333,0.8877,-0.1422,0.3192,0.4047,-10.6662,4.1737,-13.6062,14.72590541212077,-6.123648066739886,-113.78174575237698,23.60628229707237
-0.0994,0.2335,0.8968,-0.1422,0.3192,0.4047,-10.255,4.5938,-14.0,14.594467634509655,-6.122343867711058,-113.7480190545313,23.618487099928615
-0.0866,0.2404,0.9005,-0.1419,0.3196,0.4062,-10.5525,4.97,-14.385,14.946225100140312,-5.351500542623753,-115.50924147723032,23.63065509549192
-0.0872,0.2454,0.9032,-0.1419,0.3196,0.4062,-11.3312,6.0813,-14.3325,15.199609157279646,-5.324382435132226,-115.69433547449137,23.64002290546153
-0.1002,0.2527,0.903,-0.141,0.3202,0.4032,-12.0925,6.9212,-13.6325,15.632732918969618,-6.053589945233238,-114.20842025934726,23.652218506494542
-0.1136,0.25,0.9153,-0.1394,0.3222,0.4061,-12.5387,7.4637,-13.895,15.277879823352574,-6.780111728039895,-111.8573201239026,23.664437819918195
-0.1307,0.2288,0.9336,-0.1394,0.3222,0.4061,-12.8975,7.245,-12.495,13.774676342979978,-7.685132026343371,-109.04572776929409,23.676578917844353
-0.1402,0.2154,0.9434,-0.1398,0.3251,0.407,-13.1337,6.44,-10.605,12.864168890776197,-8.211723409269563,-107.43632684294666,23.68861738004981
-0.1288,0.2109,0.9415,-0.1398,0.3251,0.407,-12.4162,5.8013,-10.1587,12.626768697716361,-7.637417973859179,-108.55245989357022,23.700822182906055
-0.1132,0.2089,0.9534,-0.1386,0.3254,0.4042,-10.9462,4.5237,-10.0275,12.359584954328625,-6.668562958713539,-109.99044195145265,23.7130238005158
-0.1075,0.2114,0.9504,-0.1369,0.3258,0.4081,-10.115,4.3838,-9.7912,12.53976926072771,-6.31951663660821,-110.2397883027361,23.72509022210724
-0.1104,0.2162,0.9515,-0.1369,0.3258,0.4081,-9.3187,4.4012,-9.7388,12.800640824035549,-6.4482080043279035,-110.1009005062948,23.737172569931204
-0.1292,0.2106,0.9582,-0.1398,0.3242,0.4087,-7.6125,4.7863,-9.5025,12.396956646134662,-7.446976888360834,-108.68243785247168,23.746425003194094
-0.134,0.2008,0.9595,-0.1398,0.3242,0.4087,-7.1575,4.5938,-8.505,11.821695252297667,-7.766299447747943,-107.87522914991169,23.757878795707846
-0.1316,0.1965,0.9495,-0.1411,0.3262,0.4087,-6.6763,3.815,-7.5075,11.692736151174728,-7.7309990767515195,-108.04892040147595,23.770066964499012
-0.1198,0.197,0.9512,-0.14,0.3246,0.4085,-4.9175,2.5988,-7.49,11.700897680186852,-7.063680841132974,-109.2183745589585,23.78230008065752
-0.1058,0.1998,0.9511,-0.14,0.3246,0.4085,-2.3187,0.8663,-9.1875,11.863295147681633,-6.2499667911440095,-110.78208483761523,23.794399062546564
-0.0963,0.2068,0.9479,-0.1426,0.3246,0.4083,-1.1987,0.0438,-11.2525,12.305913199441143,-5.69293919671262,-112.57336075266493,23.80660740456559
-0.0983,0.2075,0.9452,-0.1426,0.3246,0.4083,0.3413,0.3413,-12.1887,12.381529396554507,-5.795657626151223,-112.38722741502968,23.815310559764605
-0.099,0.2112,0.9418,-0.1383,0.3246,0.4089,1.4875,0.0438,-13.09,12.638825101804155,-5.853821604744725,-111.5224652920462,23.827486341486033
-0.1092,0.2184,0.9278,-0.1383,0.3246,0.4089,2.7037,-0.2538,-13.93,13.24431785030946,-6.507388471462371,-110.62001472309625,23.839722642891044
-0.1182,0.223,0.9245,-0.1406,0.3247,0.4086,3.1412,-0.5163,-13.5625,13.560455397047631,-7.061160409017619,-110.2600311740078,23.85191151951477
-0.1141,0.2255,0.9172,-0.1418,0.3223,0.4073,3.6138,-0.875,-12.9325,13.811903143368655,-6.89511842828991,-111.29922195683379,23.86409614914315
-0.0956,0.2329,0.8964,-0.1418,0.3223,0.4073,3.9025,-1.5925,-12.5913,14.562285930613859,-5.932676114134407,-113.76224280676671,23.876563557877876
-0.0809,0.2416,0.8966,-0.141,0.323,0.4077,4.2788,-1.8812,-12.4162,15.079409355475297,-5.016221426828641,-115.69000751321973,23.888671033757596
-0.0693,0.2506,0.8866,-0.141,0.323,0.4077,4.48,-0.6825,-13.055,15.781124063517655,-4.330644188355765,-117.61340216290942,23.898024687076074
-0.0667,0.2582,0.8821,-0.1414,0.3219,0.4109,3.8325,0.3325,-13.09,16.313812721944984,-4.158332145620304,-118.69903679860064,23.910164369337117
-0.0755,0.263,0.882,-0.1411,0.3191,0.4046,3.3863,2.1875,-13.8687,16.603025958155342,-4.665041646465999,-118.08333506121224,23.922086039170747
-0.1225,0.2718,0.8843,-0.1411,0.3191,0.4046,2.975,3.1325,-14.0612,17.084069202652426,-7.403970046162482,-112.42561948283405,23.934228198845737
-0.1279,0.2761,0.8876,-0.1427,0.3203,0.4054,2.2662,3.2288,-12.915,17.278463930264383,-7.813452877160267,-112.18993632976523,23.94610810655853
-0.1233,0.2731,0.8947,-0.1427,0.3203,0.4054,1.2425,4.1737,-11.2525,16.97524899866321,-7.524235987893439,-112.68643160325149,23.958138782605864
-0.0983,0.2741,0.8973,-0.1431,0.3179,0.4094,0.315,3.9813,-11.2437,16.98641139255978,-6.05881936833472,-116.47043018597984,23.967180281766908
-0.0949,0.2725,0.8987,-0.1415,0.3197,0.4046,-0.3763,4.1038,-11.9875,16.868466142717015,-5.784969943378096,-116.1397501719061,23.979341199004647
-0.1038,0.2694,0.8966,-0.1415,0.3197,0.4046,-0.525,4.1213,-12.6087,16.724275158000385,-6.299301625291704,-114.8315827073571,23.9915198120563
-0.1351,0.2751,0.8975,-0.1412,0.3191,0.4046,-1.4262,3.22,-11.8125,17.04034767339626,-8.098134663076086,-110.93211089541768,24.00364781508016
-0.1311,0.2791,0.8913,-0.1412,0.3191,0.4046,-2.94,2.0388,-10.9987,17.386334498504617,-7.995208311791863,-111.6548092961685,24.01581474889463
-0.1173,0.277,0.8915,-0.1412,0.3184,0.4016,-4.0338,0.7875,-11.0162,17.261022010857708,-7.197850853359294,-113.52758392997345,24.02798628362072
-0.0956,0.2674,0.8985,-0.1421,0.3182,0.3984,-5.0662,0.8575,-10.5087,16.575359054439726,-5.882654802223793,-116.02138374652148,24.040152155686357
-0.0793,0.2607,0.9018,-0.1421,0.3182,0.3984,-5.8625,1.4525,-10.8587,16.12527504677405,-4.875723563216743,-117.5931786962059,24.049207811498526
-0.0724,0.2395,0.9212,-0.1438,0.3212,0.4049,-6.8688,2.8175,-12.0312,14.578006120996704,-4.374803249591699,-117.22870196079029,24.061310332550352
-0.0894,0.2235,0.9212,-0.1438,0.3212,0.4049,-6.9738,3.9988,-12.7662,13.640218792551167,-5.336672669726439,-114.58123431384058,24.073481159443883
-0.1099,0.2128,0.9244,-0.1409,0.3226,0.409,-5.9237,4.5763,-14.385,12.965782475125698,-6.542689470165794,-111.07132147087407,24.08565587941648
-0.1213,0.2159,0.9206,-0.1409,0.3226,0.409,-5.0662,3.7275,-15.4175,13.197868291735944,-7.271919249082568,-109.86117612748751,24.097816796654218
-0.1122,0.2333,0.9146,-0.1398,0.32,0.4044,-3.7013,2.3712,-15.6363,14.306892696146027,-6.801904293354446,-111.60851633633528,24.109985853966357
-0.0977,0.2542,0.9,-0.1396,0.3198,0.4046,-2.1525,1.8463,-16.4062,15.76785664980646,-6.0020560721681075,-114.31063015503774,24.12210677866465
-0.0773,0.2801,0.8935,-0.1396,0.3198,0.4046,-2.3625,1.925,-17.2812,17.400816316100865,-4.777717945488612,-118.38134503448744,24.131190747779087
-0.075,0.2713,0.8968,-0.139,0.321,0.4006,-5.635,4.9263,-17.4125,16.83326032536158,-4.587276350142892,-117.73238023066057,24.14332724479363
-0.0819,0.2546,0.9043,-0.139,0.321,0.4006,-7.1925,7.175,-17.4825,15.727444036194528,-4.958641565194662,-115.92692395169077,24.155454893901208
-0.1061,0.2356,0.911,-0.1379,0.3214,0.4015,-7.6737,8.7762,-16.4062,14.50352271394822,-6.335419441588029,-111.85316151449656,24.16765226451561
-0.1352,0.2138,0.9281,-0.1375,0.3228,0.4053,-5.5125,8.4525,-15.7937,12.976933873980569,-7.966217230106323,-107.49094261676434,24.179786638032482
-0.1392,0.2026,0.9289,-0.1375,0.3228,0.4053,-3.325,7.035,-14.6562,12.305874887376063,-8.308027613882816,-106.70277931315334,24.19195781884229
-0.1143,0.2192,0.9241,-0.1361,0.3241,0.404,-0.8663,5.7663,-14.5775,13.341198342089836,-6.942401657750154,-109.62737251786312,24.204124398740483
-0.0977,0.2409,0.9155,-0.1361,0.3241,0.404,0.9187,6.1425,-15.2775,14.738366615891366,-5.951627973491957,-112.39610491885522,24.213106793883053
-0.09,0.2594,0.914,-0.1336,0.3228,0.4017,1.6625,7.3413,-16.0562,15.841214119055595,-5.44405162548146,-113.71765295854094,24.225165075400096
-0.1041,0.2656,0.9043,-0.1324,0.3234,0.4018,0.7613,8.0762,-16.9662,16.36643637893665,-6.248390625979621,-111.91437042061368,24.237028349047808
-0.1154,0.2625,0.9071,-0.1324,0.3234,0.4018,0.1925,8.89,-17.6487,16.140227352334676,-6.919203062810652,-110.32674674164753,24.24921510217386
-0.1418,0.2385,0.9099,-0.1329,0.3217,0.4011,0.0875,9.5375,-17.6662,14.691876003454379,-8.457172923846239,-106.34380422161557,24.26138840648134
-0.1473,0.2438,0.908,-0.1329,0.3217,0.4011,-0.0875,9.0475,-17.92,15.028600483751829,-8.874226383830207,-105.78472777647718,24.273769459644164
-0.155,0.2607,0.8932,-0.131,0.3227,0.4034,0.3763,8.19,-18.1475,16.267521893474775,-9.420389368608918,-104.45965336962045,24.282252125001815
-0.1619,0.2815,0.8893,-0.1283,0.3224,0.4014,0.8575,6.7375,-18.2262,17.561049201147505,-9.821569243905532,-103.3898550373724,24.294511430964914
-0.1649,0.2924,0.885,-0.1283,0.3224,0.4014,0.4288,5.3987,-17.8062,18.281275374042078,-10.021559386399018,-103.21590923913908,24.306662084630585
-0.1592,0.2919,0.8791,-0.1278,0.3227,0.4008,-1.0762,1.5487,-17.3775,18.368196112848292,-9.76409493974609,-103.82863153694007,24.3188283106125
-0.1362,0.2802,0.8804,-0.1278,0.3227,0.4008,-2.9138,1.6013,-18.305,17.656463530373674,-8.447886360798913,-106.88783671815766,24.331024265561787
-0.1301,0.2782,0.8899,-0.1257,0.3256,0.3966,-4.41,1.3737,-19.1537,17.361107497049307,-7.966007831054084,-106.97897878101487,24.34325419647379
-0.1332,0.2779,0.8886,-0.1257,0.3256,0.3966,-6.37,2.3712,-18.7687,17.366490900824687,-8.133620430473687,-106.52126111714239,24.355499699702037
-0.1562,0.2795,0.8927,-0.1266,0.3247,0.403,-7.9363,2.7213,-18.4713,17.3850288704976,-9.416157399364018,-103.52110719267942,24.364143396966302
-0.1853,0.2749,0.9009,-0.127,0.3253,0.4003,-8.1812,1.8812,-17.6662,16.970215982424694,-11.051577329977638,-99.46412159118036,24.377093193588312
-0.2045,0.2707,0.9069,-0.127,0.3253,0.4003,-8.9425,-0.63,-15.2075,16.620824339581738,-12.146023721942406,-96.78972691897665,24.389263666565565
-0.1881,0.2715,0.906,-0.1274,0.3266,0.4028,-9.1437,-2.2838,-12.845,16.681659369544914,-11.282470460127442,-99.04507856069682,24.401485811319446
-0.1544,0.2685,0.9096,-0.1274,0.3266,0.4028,-9.7212,-3.57,-9.8262,16.44648187506124,-9.320900997084669,-103.76453463587819,24.413530997934192
-0.1256,0.2507,0.9149,-0.1265,0.3292,0.4054,-11.0075,-3.6138,-7.945,15.327270375891208,-7.606972707697098,-106.58692205886831,24.42566360186967
-0.118,0.2264,0.9188,-0.1282,0.3284,0.4039,-11.3662,-2.7913,-7.4288,13.846751712888121,-7.126737131425464,-107.24044900926026,24.438018465227902
-0.1685,0.2104,0.9322,-0.1282,0.3284,0.4039,-11.7862,-0.9887,-6.7288,12.722006503757688,-9.883941688802125,-101.07668784610064,24.450017288810194
-0.177,0.2186,0.9302,-0.128,0.3288,0.4061,-9.7825,-1.0675,-6.5975,13.223259643057526,-10.469765782103822,-100.02452298675372,24.462156263238683
-0.1631,0.2298,0.9301,-0.128,0.3288,0.4061,-8.2337,-2.3888,-3.3775,13.87624252873438,-9.692136633844315,-101.90987487574436,24.471482311087453
-0.1319,0.2364,0.9306,-0.1318,0.3282,0.4018,-8.7325,-2.1088,-1.4262,14.25224088405925,-7.894004715233841,-106.89331816446104,24.48375471195285
-0.1049,0.2363,0.9385,-0.1342,0.3274,0.4065,-9.275,-1.2862,-1.575,14.132796078809031,-6.254150079028692,-110.66506134962954,24.495707880335242
-0.0979,0.1987,0.9454,-0.1342,0.3274,0.4065,-8.5575,-0.5862,-2.5288,11.875994058221663,-5.805731474735779,-110.09302670576115,24.507792705573156
-0.096,0.186,0.9497,-0.1366,0.3275,0.4074,-7.6737,-0.0875,-4.1388,11.083496422263623,-5.671072921575024,-110.36815574350948,24.519871160318058
-0.0911,0.1828,0.9505,-0.1366,0.3275,0.4074,-6.3263,-0.3237,-6.125,10.88676764645022,-5.388984360816902,-110.75364152966682,24.53196023255131
-0.0799,0.1877,0.949,-0.134,0.3274,0.4068,-3.5963,-0.56,-9.3537,11.187106736174483,-4.748906588585888,-111.50838326954184,24.54411902629138
-0.0781,0.1967,0.9389,-0.1357,0.3271,0.4057,-2.4063,-0.35,-11.13,11.830521935372785,-4.658370703194219,-112.38276896553104,24.556252338059412
-0.078,0.2195,0.9196,-0.1357,0.3271,0.4057,-0.9538,0.2187,-13.3087,13.42024804688064,-4.713873342571774,-113.31932336332858,24.565693408698625
-0.1114,0.2276,0.9228,-0.1361,0.3267,0.4063,0.2187,0.805,-15.0325,13.853714562078537,-6.599440035472614,-110.02758283939852,24.577702849769263
-0.1266,0.2306,0.9192,-0.1361,0.3267,0.4063,0.0263,1.61,-15.0062,14.082515553642596,-7.563627783901257,-108.32294485096331,24.58972963273754
-0.1325,0.2344,0.9085,-0.1357,0.327,0.407,-0.1837,0.9538,-14.6562,14.466150414396969,-8.017437570182684,-107.51567356899884,24.60185551226373
-0.1175,0.2362,0.9074,-0.1343,0.327,0.4056,-0.9363,-0.105,-14.42,14.590185137400677,-7.179294067393756,-109.10051104909623,24.614033417482826
-0.1016,0.242,0.9013,-0.1343,0.327,0.4056,-1.7062,-0.2975,-14.6825,15.02824500402072,-6.253325091435138,-111.25433181619356,24.62615505001368
-0.1049,0.238,0.8902,-0.1354,0.3265,0.4062,-2.0913,1.1725,-15.3562,14.9684370554262,-6.483968975412575,-110.95287512337934,24.6382462457446
-0.1304,0.2296,0.8963,-0.1354,0.3265,0.4062,-2.0913,1.2337,-14.9537,14.369880004262527,-7.954200686270637,-107.4808012446103,24.64764696992809
-0.1412,0.2261,0.8965,-0.1336,0.3283,0.4088,-2.275,0.42,-14.3762,14.155593648321842,-8.651969785728118,-105.39163400347927,24.659921140374877
-0.1363,0.2277,0.8919,-0.1351,0.3262,0.4065,-2.1175,0.5425,-12.635,14.32109150062353,-8.432461733813497,-106.5714380084509,24.672039941575502
-0.1183,0.2391,0.8924,-0.1351,0.3262,0.4065,-2.5288,0.3063,-12.0312,14.99699357956143,-7.345110919659598,-109.27664922702395,24.683887288990693
-0.0869,0.2586,0.8912,-0.1354,0.3266,0.4066,-2.9663,0.7437,-12.04,16.177785260550714,-5.4362828097552995,-114.1661267820057,24.695662437485115
-0.0834,0.2543,0.8853,-0.1354,0.3266,0.4066,-2.975,1.1462,-12.1275,16.02699965619756,-5.185245937887531,-114.40084379598099,24.707888829234335
-0.0843,0.2435,0.891,-0.1356,0.3271,0.4026,-3.745,2.4763,-12.6437,15.287168173051208,-5.213330745536943,-113.6973377406725,24.720072397113885
-0.09,0.2319,0.9029,-0.1347,0.3266,0.4034,-4.4975,3.9988,-13.9825,14.406982157947844,-5.499371757589435,-112.33307745135157,24.73221915770049
-0.1077,0.2235,0.9046,-0.1347,0.3266,0.4034,-4.7075,4.9263,-14.3238,13.879682163048267,-6.535335277244728,-109.92458295339026,24.741013977215577
-0.124,0.2254,0.9104,-0.1345,0.3286,0.4074,-3.9813,5.5213,-13.895,13.90578254698621,-7.477153053817831,-107.84402263101668,24.75333061761576
-0.1253,0.2375,0.913,-0.1345,0.3286,0.4074,-3.2288,5.2762,-13.4225,14.579336062732397,-7.560950978293002,-108.12489786341256,24.76534395176546
-0.1191,0.2461,0.9179,-0.1388,0.3284,0.4118,-3.955,5.1275,-14.1575,15.007470964883774,-7.165730511076189,-110.25013318426534,24.777413204687125
-0.1138,0.2491,0.9226,-0.1388,0.3284,0.4118,-3.675,5.2413,-14.035,15.109167018750805,-6.811108961062991,-111.04571893562141,24.789655876585147
-0.1103,0.246,0.9288,-0.1329,0.3274,0.4054,-4.0862,5.8362,-15.0587,14.835406176885275,-6.563291434635035,-110.08749474458463,24.80211337566408
-0.1154,0.2428,0.9395,-0.1319,0.3282,0.4046,-3.9288,6.2562,-15.0412,14.49120240345281,-6.769563198325917,-109.11049276497273,24.814293404380848
-0.1536,0.2381,0.9345,-0.1319,0.3282,0.4046,-4.095,6.6413,-13.825,14.294746947064043,-8.91737714786536,-104.36203368089822,24.82335543068603
-0.1601,0.2358,0.9362,-0.1306,0.3283,0.4098,-3.5438,6.2562,-12.1538,14.137451640423427,-9.387419070988427,-103.0806657608555,24.835447334249505
-0.1555,0.2334,0.9299,-0.1306,0.3283,0.4098,-2.3888,5.0662,-9.8437,14.090008065932723,-9.221963913824405,-103.49705234539807,24.84758489301288
-0.1419,0.2319,0.9239,-0.1299,0.329,0.3995,-1.9862,4.97,-8.0937,14.090219774184177,-8.512559759625317,-105.03408371641875,24.859935509375774
-0.126,0.2309,0.9198,-0.1318,0.3285,0.404,-0.4987,4.5325,-7.805,14.091921057781121,-7.617103526677073,-107.27685181493416,24.871960876678934
-0.1177,0.2237,0.9145,-0.1318,0.3285,0.404,-0.1837,5.04,-8.4,13.74644762303964,-7.152153523700234,-107.98278639970745,24.884005355461124
-0.1216,0.2174,0.9087,-0.1308,0.3266,0.405,-0.2888,5.0313,-8.9512,13.455536944210673,-7.401098580951066,-107.17978474679151,24.893339897300574
-0.1258,0.2211,0.9082,-0.1308,0.3266,0.405,-0.1575,5.2762,-9.7475,13.681770477226772,-7.650875147539715,-106.78970640892922,24.90543604785939
-0.1238,0.2333,0.9046,-0.1303,0.3253,0.4059,0.8487,5.25,-11.8037,14.45946669902371,-7.554325355086762,-107.37949433269046,24.9174476124277
-0.1331,0.2468,0.8971,-0.1308,0.3242,0.4019,0.0613,4.5675,-13.2562,15.379423951922462,-8.110626425966425,-106.8615631296305,24.929420954037955
-0.1364,0.2582,0.8911,-0.1308,0.3242,0.4019,-0.7875,4.48,-14.2625,16.15695260223485,-8.350738832942348,-106.77108231197296,24.941539401322302
-0.1341,0.2656,0.8901,-0.1304,0.326,0.4038,-1.295,3.5,-15.085,16.613454804792738,-8.22154722505494,-107.0655923552646,24.953650770281083
-0.1307,0.2613,0.8862,-0.1304,0.326,0.4038,-1.9075,2.2313,-15.5837,16.428914151045955,-8.059629815791741,-107.33337000191676,24.965725685863205
-0.1274,0.2499,0.8937,-0.1295,0.3267,0.4049,-6.195,2.9663,-14.735,15.624598323654801,-7.828724533555113,-107.11162508026833,24.97503226831667
-0.1294,0.2427,0.8919,-0.1295,0.3279,0.4101,-6.2825,3.6138,-14.3325,15.223660667354821,-7.96227655837264,-106.40626488891432,24.987137266782444
-0.1342,0.2361,0.8997,-0.1297,0.3279,0.4101,-5.775,3.7362,-13.6675,14.705557288031514,-8.197438507655612,-105.68862756774243,24.999275179462096
-0.1403,0.2309,0.9078,-0.1306,0.3274,0.4042,-6.3525,3.325,-12.2937,14.271897680449298,-8.502818142580914,-105.21057164079421,25.011387256253435
-0.1402,0.2306,0.9068,-0.1306,0.3274,0.4042,-5.8275,3.36,-11.62,14.267943765866427,-8.520900016345285,-105.20208972389908,25.023548527407453
-0.1349,0.2317,0.9073,-0.1292,0.3273,0.4062,-5.46,3.7275,-11.2087,14.325454950471892,-8.213678205588273,-105.53449342376994,25.035617072496564
-0.1216,0.2345,0.9107,-0.1292,0.3273,0.4062,-5.6175,3.2375,-10.185,14.439326186089877,-7.408833297778405,-107.31032940219876,25.04777303490641
-0.1164,0.2366,0.904,-0.1282,0.3273,0.4036,-5.7925,3.325,-10.4825,14.666133866438948,-7.115517837645666,-107.76553082149793,25.0570254681693
-0.1175,0.2311,0.9061,-0.128,0.3283,0.403,-5.845,4.48,-10.4737,14.30922631489771,-7.1595195051899205,-107.33367681647417,25.069173998337302
-0.1203,0.215,0.9181,-0.128,0.3283,0.403,-6.3175,5.0838,-10.3425,13.183241979085357,-7.264599628492138,-106.58677226754148,25.081287490793752
-0.1189,0.208,0.9187,-0.1282,0.3285,0.4057,-6.3612,5.4425,-9.9312,12.758315434045297,-7.198061912336322,-106.54242880104145,25.09372552447738
-0.1226,0.2061,0.919,-0.1282,0.3285,0.4057,-5.1538,5.6788,-10.4825,12.640661259200675,-7.404602753450089,-106.06716466081448,25.105433428878932
-0.1247,0.2065,0.9215,-0.1292,0.3294,0.4013,-4.6287,5.8013,-11.0513,12.630838394936616,-7.515749910061941,-106.08818654355862,25.117606025353854
-0.1267,0.2115,0.9298,-0.1286,0.3269,0.4046,-4.2175,6.1425,-11.7075,12.814390785993282,-7.565666394239762,-106.06840259813984,25.129830293605405
-0.1233,0.2205,0.9271,-0.1286,0.3269,0.4046,-4.3137,5.9412,-12.705,13.376951687446795,-7.383122431757724,-106.69873592108176,25.139028223761443
-0.1306,0.2206,0.9264,-0.1263,0.329,0.404,-4.3137,5.7838,-13.9038,13.394120576181693,-7.785329644726031,-105.16499764947694,25.151101015845892
-0.1387,0.2223,0.9224,-0.1263,0.329,0.404,-4.0775,5.4862,-14.1925,13.549542888596948,-8.287831509032744,-104.20799228142951,25.163199643818658
-0.1408,0.2235,0.9266,-0.125,0.3286,0.4043,-3.6312,6.0462,-15.2337,13.560931574151112,-8.396340756800521,-103.74942948407546,25.175306057949545
-0.149,0.2191,0.9268,-0.1238,0.3288,0.4026,-4.2088,5.88,-15.925,13.301552618837908,-8.864571039339198,-102.41758960278011,25.18747228393146
-0.151,0.2183,0.9301,-0.1238,0.3288,0.4026,-3.2288,5.5913,-16.975,13.208849955466942,-8.975079122330076,-102.21097831021459,25.199544014267072
-0.1731,0.2219,0.9245,-0.1241,0.3294,0.4027,-3.5263,5.5213,-16.765,13.496079940885172,-10.245248972756947,-99.57836549399678,25.21179341057438
-0.176,0.2323,0.9255,-0.1241,0.3294,0.4027,-3.605,4.3488,-15.6187,14.088424661584096,-10.440001497939443,-99.39702972696435,25.223773830510204
-0.1704,0.2372,0.9252,-0.125,0.3297,0.4056,-3.0975,2.8175,-14.805,14.378773389673118,-10.130939917690272,-100.28336295032868,25.23314765705654
-0.1582,0.233,0.9262,-0.1228,0.3318,0.4029,-3.0538,1.155,-15.26,14.12137317940118,-9.437300112091274,-101.1546666247609,25.24509764019243
-0.1496,0.2207,0.9333,-0.1228,0.3318,0.4029,-2.94,0.5075,-15.3912,13.30682670131018,-8.89055333822145,-102.04888737058265,25.25736756364388
-0.1428,0.1978,0.934,-0.1224,0.3303,0.4037,-3.325,0.2362,-15.8025,11.961139422059683,-8.52311068423586,-102.36586219639126,25.269582983988474
-0.1427,0.199,0.9287,-0.1224,0.3303,0.4037,-2.3625,-0.2975,-16.3712,12.0939553865886,-8.543613484609157,-102.33064836532871,25.28129548930164
-0.144,0.2049,0.9245,-0.1242,0.3307,0.4037,-2.1875,-0.42,-17.3162,12.495500298954719,-8.642458422151847,-102.63042207787163,25.29351657230669
-0.1448,0.2108,0.9224,-0.1226,0.3321,0.4032,-0.945,-1.26,-18.165,12.871904000103925,-8.698501840500379,-102.1907792665168,25.30574685713497
-0.1399,0.2148,0.9195,-0.1226,0.3321,0.4032,-0.0088,-1.3825,-19.3113,13.148009624742299,-8.438314288973602,-102.80563142366164,25.31796935580513
-0.1316,0.2231,0.909,-0.1216,0.3315,0.4026,-0.7263,-1.645,-20.1075,13.787961825589544,-8.020474097184989,-103.67217196152748,25.330192916224124
-0.1246,0.2236,0.9093,-0.1216,0.3315,0.4026,-1.5575,-1.05,-19.3375,13.815045363852752,-7.5972154441063084,-104.53262715252657,25.338930755218406
-0.1241,0.2252,0.9002,-0.1227,0.3332,0.4082,-0.9887,-0.175,-19.6087,14.044573939961692,-7.616522682021449,-104.60313627239981,25.351897185905496
-0.1194,0.2314,0.9002,-0.1211,0.3324,0.4022,-1.05,1.0062,-18.7775,14.414940310867346,-7.333152285798517,-105.12122073464661,25.364090663440837
-0.1251,0.2356,0.9001,-0.1211,0.3324,0.4022,-1.2512,2.38,-18.0513,14.667304382632024,-7.642654037028867,-104.5324658583034,25.376135142223028
-0.1336,0.2381,0.9064,-0.119,0.3327,0.4014,-0.77,3.43,-17.6925,14.718211687821674,-8.090344767922812,-103.08584775038369,25.388269869656174
-0.1418,0.2422,0.9068,-0.119,0.3327,0.4014,-0.245,4.4975,-17.6925,14.953554212201428,-8.565282679003246,-102.15224002317213,25.40030302311746
-0.1524,0.2439,0.9018,-0.12,0.3323,0.4021,-0.6737,5.2325,-17.7187,15.133575441466203,-9.22768016834194,-101.00719324174244,25.412421824318084
-0.1668,0.2421,0.9069,-0.12,0.3327,0.4014,-0.6913,5.355,-17.2725,14.947282695826727,-10.030411839276866,-99.19850762975015,25.424471257928168
-0.1748,0.2427,0.9081,-0.1186,0.3327,0.4014,-0.2975,5.1538,-16.9575,14.963176084636105,-10.507582134787073,-97.8435876649898,25.433904542409255
-0.1811,0.2452,0.9024,-0.1197,0.3317,0.4008,-0.5513,3.885,-15.3912,15.200703689322532,-10.937817868872164,-97.27392921174751,25.446035730679622
-0.18,0.2482,0.9043,-0.1197,0.3317,0.4008,-1.1375,1.7237,-14.3762,15.347407240361893,-10.869033348654883,-97.49944444068514,25.458093658280387
-0.1695,0.2492,0.9054,-0.118,0.3318,0.3999,-2.24,0.8575,-12.915,15.388781137542226,-10.259334175068052,-98.51152978614613,25.47020007241127
-0.1629,0.2512,0.8962,-0.118,0.3318,0.3999,-2.8525,0.4112,-13.2212,15.6571266744962,-9.941635430531946,-99.2376845913878,25.48231604228167
-0.1577,0.2515,0.8956,-0.1172,0.3328,0.4034,-3.5525,0.8925,-13.9737,15.685580462543744,-9.635567881966814,-99.5609990840369,25.49442953473812
-0.1531,0.2523,0.8945,-0.1175,0.3329,0.4004,-4.1475,0.8487,-13.6237,15.75128879263719,-9.366543153627754,-100.33573749760257,25.506481445762155
-0.1482,0.2415,0.9,-0.1175,0.3329,0.4004,-4.6025,0.4462,-13.37,15.022633521312704,-9.050761971034769,-100.85307321575038,25.515888186522375
-0.1516,0.2358,0.9043,-0.1196,0.3327,0.403,-4.375,0.8925,-13.8162,14.615855362065755,-9.207095966149428,-100.83933666950504,25.528011942550894
-0.1634,0.2288,0.9113,-0.1196,0.3327,0.403,-4.9088,1.2075,-13.615,14.095425129028147,-9.83638360085902,-99.3531705712085,25.54011446360272
-0.1815,0.2308,0.9076,-0.1178,0.3339,0.3988,-4.1213,0.5513,-13.8337,14.267233796865625,-10.919892831921352,-96.6978595898688,25.552462602551667
-0.1917,0.2358,0.9062,-0.1185,0.3332,0.4032,-4.4187,0.1312,-12.2675,14.584435759681975,-11.542616950166668,-95.43117275211277,25.56427385050647
-0.1816,0.2358,0.9129,-0.1185,0.3332,0.4032,-5.4513,-0.8225,-11.305,14.483114133319232,-10.927929170652067,-96.88103437717199,25.57697236657091
-0.1631,0.2295,0.911,-0.1197,0.3338,0.4028,-5.7575,-2.5288,-10.2987,14.140775510504938,-9.889845850065095,-99.36834814662501,25.58864098626557
