AcclX,AcclY,AcclZ,MagX,MagY,MagZ,GyroX,GyroY,GyroZ,Roll,Pitch,Yaw,Time(s)
-0.1414,0.9771,0.0303,-0.7134,0.0551,0.0103,-2.5725,0.8312,-14.56,0,0,0,1.619920036439091
-0.1424,0.9794,0.0199,-0.7143,0.0567,0.0118,-2.2138,1.3387,-14.7788,0,0,0,1.6319481925028765
-0.1422,0.9775,0.0314,-0.7143,0.0567,0.0118,-2.345,1.0325,-14.7087,0,0,0,1.6440623499179094
-0.1441,0.9778,0.0332,-0.7134,0.054,0.0116,-3.1937,1.1638,-14.3675,0,0,0,1.6562133144956164
-0.143,0.9788,0.0327,-0.7134,0.054,0.0116,-2.94,1.1812,-14.77,0,0,0,1.6683433980868063
-0.1437,0.9785,0.0293,-0.7153,0.0561,0.0111,-2.66,1.4525,-15.295,0,0,0,1.6805000253049245
-0.1419,0.9787,0.0326,-0.7153,0.0561,0.0111,-2.8263,1.54,-15.1988,0,0,0,1.6897810929391477
-0.1426,0.9775,0.0351,-0.714,0.0571,0.0072,-2.9138,1.4262,-15.0937,0,0,0,1.701986206515788
-0.1429,0.9781,0.0305,-0.7125,0.056,0.0104,-2.73,1.4962,-15.05,0,0,0,1.7140628489380958
-0.1406,0.9786,0.0309,-0.7125,0.056,0.0104,-2.8087,1.295,-14.8487,0,0,0,1.7261016224526524
-0.1415,0.9794,0.0293,-0.7143,0.0558,0.011,-2.5288,0.875,-14.7175,0,0,0,1.7382012693516313
-0.1409,0.9786,0.0321,-0.7143,0.0558,0.011,-2.8087,1.085,-15.505,0,0,0,1.7503196737469728
-0.1426,0.9769,0.0282,-0.7154,0.0568,0.0158,-2.2575,1.47,-15.575,0,0,0,1.7624324155019029
-0.1442,0.979,0.0339,-0.7135,0.0566,0.0122,-2.3712,1.26,-15.1812,0,0,0,1.7744906543428738
-0.1436,0.9783,0.0304,-0.7135,0.0566,0.0122,-2.5375,1.1987,-14.56,0,0,0,1.7841235135126527
-0.1415,0.9783,0.0321,-0.7146,0.0544,0.0112,-2.7475,1.0325,-14.7525,0,0,0,1.7959874530045086
-0.1423,0.9786,0.0321,-0.7146,0.0544,0.0112,-2.7738,1.3825,-14.7437,0,0,0,1.8081210757459556
-0.1421,0.9787,0.0309,-0.7153,0.0559,0.0083,-3.1412,0.91,-14.6737,0,0,0,1.8202033808086746
-0.1423,0.9792,0.0292,-0.7144,0.0562,0.0105,-3.0275,1.2337,-15.0062,0,0,0,1.8323193077988362
-0.1429,0.9783,0.0351,-0.7144,0.0562,0.0105,-3.0013,1.3037,-14.875,0,0,0,1.8443991354563753
-0.1402,0.9772,0.0303,-0.7153,0.057,0.0109,-2.3187,1.295,-14.6737,0,0,0,1.8565200172568967
-0.1424,0.9798,0.0301,-0.7153,0.057,0.0109,-2.5988,1.365,-14.735,0,0,0,1.865886378412316
-0.1413,0.9785,0.0328,-0.715,0.0566,0.0119,-2.1438,1.4262,-15.1725,0,0,0,1.8780461908656656
-0.1439,0.9787,0.0317,-0.715,0.0566,0.0119,-2.345,1.225,-15.4437,0,0,0,1.8900796556548367
-0.1448,0.9778,0.0343,-0.715,0.0564,0.0102,-2.66,1.05,-15.3125,0,0,0,1.9021771790636612
-0.145,0.9767,0.0301,-0.7138,0.0546,0.0114,-2.38,1.5137,-15.1812,0,0,0,1.9143058469947483
-0.1413,0.9768,0.0287,-0.7138,0.0546,0.0114,-2.9838,1.3562,-15.0587,0,0,0,1.926430267945527
-0.1423,0.9785,0.0326,-0.714,0.0562,0.0128,-3.3775,1.1987,-15.0325,0,0,0,1.938493107681832
-0.1422,0.9799,0.0325,-0.714,0.0562,0.0128,-3.71,1.05,-14.7525,0,0,0,1.9478201842693974
-0.1393,0.9774,0.0283,-0.7146,0.0578,0.0111,-3.3688,0.8225,-14.7437,0,0,0,1.9599778732325928
-0.1429,0.9772,0.0311,-0.7129,0.0569,0.0114,-3.3075,1.2687,-14.8137,0,0,0,1.9721079568237827
-0.1445,0.9794,0.0354,-0.7129,0.0569,0.0114,-3.115,1.26,-14.245,0,0,0,1.98419946367717
-0.1415,0.9788,0.0324,-0.7142,0.0562,0.0126,-2.7913,1.2862,-14.9362,0,0,0,1.996266196478758
-0.1419,0.9781,0.0254,-0.7142,0.0562,0.0126,-2.415,1.33,-14.6212,0,0,0,2.0083874321943047
-0.143,0.9781,0.0361,-0.7119,0.0549,0.0128,-2.0825,1.0237,-14.7613,0,0,0,2.020527071491189
-0.1382,0.978,0.0316,-0.7169,0.0556,0.0109,-2.6688,1.4962,-15.0587,0,0,0,2.0326369819259136
-0.1438,0.9797,0.0334,-0.7169,0.0556,0.0109,-2.7125,1.3387,-15.1287,0,0,0,2.041940700121782
-0.1434,0.9769,0.0302,-0.7143,0.057,0.0109,-2.8087,1.3212,-14.7175,0,0,0,2.054065828902612
-0.1439,0.9779,0.0308,-0.7143,0.057,0.0109,-2.5025,1.05,-14.77,0,0,0,2.066196974238879
-0.1421,0.9777,0.0292,-0.7131,0.0555,0.0081,-2.6688,0.8925,-15.0237,0,0,0,2.0782969750528837
-0.1417,0.9803,0.0318,-0.7155,0.0524,0.0142,-2.5113,0.9625,-14.5687,0,0,0,2.090416441193302
-0.1421,0.9793,0.0345,-0.7155,0.0524,0.0142,-2.8438,1.26,-14.7087,0,0,0,2.102474680034273
-0.1434,0.9784,0.0329,-0.714,0.0554,0.0123,-2.7738,0.6563,-14.98,0,0,0,2.1146221054617227
-0.1407,0.9776,0.0361,-0.714,0.0554,0.0123,-2.625,1.0237,-15.3475,0,0,0,2.123969709120779
-0.1429,0.9772,0.0313,-0.7131,0.0559,0.0142,-2.3538,1.6013,-15.5225,0,0,0,2.1360803273855553
-0.1438,0.9779,0.0304,-0.7129,0.0563,0.0116,-2.6775,1.7413,-15.2075,0,0,0,2.148194838715614
-0.142,0.9783,0.0337,-0.7129,0.0563,0.0116,-2.6688,0.6737,-15.47,0,0,0,2.1602647567524333
-0.1433,0.9767,0.0359,-0.715,0.0574,0.0107,-2.4325,1.0937,-14.8575,0,0,0,2.1723718358669517
-0.1419,0.9799,0.0302,-0.715,0.0574,0.0107,-2.3538,1.3737,-14.91,0,0,0,2.18454332751615
-0.1399,0.9789,0.0345,-0.7145,0.0547,0.011,-3.3163,1.3825,-15.1462,0,0,0,2.19665854667626
-0.1427,0.9775,0.0304,-0.7131,0.0566,0.009,-2.8612,1.785,-14.5862,0,0,0,2.2086134423297232
-0.1419,0.9772,0.0326,-0.7131,0.0566,0.009,-3.045,1.61,-14.91,0,0,0,2.2180523560654133
-0.1421,0.9758,0.0261,-0.7129,0.0549,0.0117,-2.2225,1.4437,-15.0762,0,0,0,2.230222078139483
-0.1415,0.9801,0.0289,-0.7129,0.0549,0.0117,-2.5288,1.2425,-14.9012,0,0,0,2.2423295111690273
-0.1433,0.9792,0.0332,-0.714,0.0568,0.0061,-2.3625,0.91,-15.0325,0,0,0,2.2543491732721956
-0.143,0.9761,0.0312,-0.714,0.0568,0.0061,-1.6362,1.0587,-15.0675,0,0,0,2.2664757177131283
-0.1423,0.9789,0.0288,-0.7138,0.0556,0.0123,-1.9425,1.05,-15.1025,0,0,0,2.2786065091343697
-0.1439,0.9789,0.0322,-0.7133,0.0552,0.0121,-2.4063,1.2163,-14.9275,0,0,0,2.2907249135297114
-0.142,0.979,0.0293,-0.7133,0.0552,0.0121,-2.7388,1.365,-14.7875,0,0,0,2.3001050773711333
-0.1425,0.9785,0.0321,-0.7158,0.0578,0.0126,-2.3888,1.3825,-14.9713,0,0,0,2.3121431430556387
-0.1403,0.9778,0.0337,-0.7158,0.0578,0.0126,-2.7125,1.3475,-14.8575,0,0,0,2.3242693335815456
-0.14,0.9773,0.0323,-0.7117,0.0548,0.0152,-2.7738,1.1725,-15.0412,0,0,0,2.336403310238018
-0.1441,0.9782,0.028,-0.7162,0.0557,0.0122,-2.975,1.1812,-14.8312,0,0,0,2.3484990640717145
-0.1413,0.9786,0.0339,-0.7162,0.0557,0.0122,-2.8875,1.575,-14.77,0,0,0,2.3605785378142277
-0.1419,0.9791,0.0314,-0.713,0.0563,0.0106,-2.275,1.3212,-14.7525,0,0,0,2.3727054361701865
-0.1424,0.9788,0.0321,-0.713,0.0563,0.0106,-2.3625,1.0237,-15.1637,0,0,0,2.3847562427956173
-0.1413,0.9782,0.0352,-0.7145,0.0569,0.0108,-2.0388,1.19,-15.3125,0,0,0,2.394173213799713
-0.1429,0.9791,0.0256,-0.7158,0.0563,0.0118,-2.485,1.2775,-14.7525,0,0,0,2.406256580607509
-0.1443,0.9775,0.0314,-0.7158,0.0563,0.0118,-3.1763,1.3475,-15.1812,0,0,0,2.418347733545871
-0.1418,0.9763,0.0314,-0.7126,0.055,0.0123,-2.695,1.4262,-15.365,0,0,0,2.4305291348157887
-0.1435,0.9782,0.0323,-0.7126,0.055,0.0123,-2.695,1.1812,-14.875,0,0,0,2.4426153329437907
-0.1394,0.9775,0.0322,-0.7137,0.0558,0.0106,-3.22,1.05,-15.0675,0,0,0,2.454760988796112
-0.1445,0.9781,0.0273,-0.7101,0.0567,0.0124,-3.4475,1.3737,-15.0937,0,0,0,2.4667742804288175
-0.1421,0.9772,0.031,-0.7101,0.0567,0.0124,-3.57,1.5137,-14.7788,0,0,0,2.476160814740702
-0.141,0.9756,0.0323,-0.7172,0.0562,0.0106,-2.6688,1.1287,-15.0587,0,0,0,2.488319565448975
-0.1439,0.9803,0.0321,-0.7172,0.0562,0.0106,-2.38,1.2862,-14.8312,0,0,0,2.5005490991623893
-0.1419,0.9794,0.0357,-0.7144,0.0554,0.0117,-2.3712,1.47,-14.875,0,0,0,2.512444891006559
-0.1429,0.9789,0.0306,-0.713,0.0554,0.0138,-2.275,1.3562,-15.19,0,0,0,2.5245760363428262
-0.1435,0.9781,0.0308,-0.713,0.0554,0.0138,-3.0713,0.8575,-15.505,0,0,0,2.5367450505868443
-0.1426,0.9772,0.0334,-0.7137,0.0542,0.01,-2.4763,1.26,-15.4962,0,0,0,2.548939900627739
-0.1393,0.9786,0.029,-0.7137,0.0542,0.01,-2.59,1.3737,-15.19,0,0,0,2.5581742514785684
-0.1438,0.9781,0.0278,-0.7135,0.0562,0.0118,-2.835,1.3475,-14.9012,0,0,0,2.570284869743344
-0.1425,0.9797,0.0314,-0.7154,0.057,0.011,-2.9663,1.19,-14.7262,0,0,0,2.582384516642323
-0.1405,0.9779,0.0364,-0.7154,0.057,0.011,-3.3425,1.1812,-14.8225,0,0,0,2.5944859331164305
-0.1435,0.9785,0.0271,-0.7134,0.0554,0.0112,-3.2113,0.9887,-14.3675,0,0,0,2.606594781806078
-0.1434,0.9791,0.0323,-0.7134,0.0554,0.0112,-2.8087,1.26,-14.7087,0,0,0,2.618657267627357
-0.1435,0.9787,0.0275,-0.714,0.0573,0.0134,-2.1175,1.3387,-14.5338,0,0,0,2.6307760259377244
-0.1419,0.9778,0.027,-0.714,0.0573,0.0134,-2.4237,1.4875,-14.77,0,0,0,2.6428887676926545
-0.1416,0.9779,0.0343,-0.7137,0.0554,0.0146,-2.31,1.4612,-15.0587,0,0,0,2.652279195069822
-0.1416,0.9787,0.0306,-0.7142,0.0577,0.0116,-2.8525,1.26,-15.0237,0,0,0,2.664489617371848
-0.1429,0.9793,0.034,-0.7142,0.0577,0.0116,-2.6425,1.505,-15.0937,0,0,0,2.6769608750478224
-0.1421,0.9775,0.0315,-0.7158,0.0552,0.0083,-3.1238,0.9538,-14.6125,0,0,0,2.6881668865068833
-0.1436,0.9771,0.0297,-0.7158,0.0552,0.0083,-3.0275,1.3037,-14.5425,0,0,0,2.7003649217830095
-0.1418,0.978,0.0341,-0.7168,0.0577,0.0095,-2.905,0.91,-15.1112,0,0,0,2.7125583561638016
-0.1383,0.9789,0.0323,-0.7159,0.0578,0.0112,-3.0975,1.3475,-14.6912,0,0,0,2.724729493897974
-0.1418,0.9774,0.0324,-0.7159,0.0578,0.0112,-3.2462,0.9713,-14.6212,0,0,0,2.733541978038157
-0.1407,0.9765,0.0326,-0.7132,0.0561,0.0111,-2.7913,1.225,-14.7788,0,0,0,2.745736828079052
-0.1426,0.9791,0.0312,-0.7132,0.0561,0.0111,-3.1063,1.2687,-14.84,0,0,0,2.7579376946753835
-0.1431,0.9791,0.0348,-0.7136,0.0554,0.0118,-2.835,1.3825,-15.0762,0,0,0,2.770112725474839
-0.1427,0.977,0.0307,-0.7123,0.0558,0.0114,-2.9838,1.4088,-14.9975,0,0,0,2.7823843750763126
-0.142,0.9775,0.0311,-0.7123,0.0558,0.0114,-2.4325,1.0062,-14.735,1.8171538830125864,-7.787964503093792,0.772498399278548,22.849590007138467
-0.1415,0.9784,0.0369,-0.7146,0.0564,0.0118,-2.5725,1.575,-14.9975,2.1588976883744113,-8.19771567368877,0.7741199542530444,22.855030034998656
-0.1423,0.9787,0.0312,-0.7146,0.0564,0.0118,-2.5638,1.1375,-14.7788,1.8268557187084593,-8.264431391574677,0.8006522471604838,22.859550591622053
-0.1427,0.9797,0.0316,-0.7142,0.0557,0.0084,-2.8263,1.1725,-14.8312,1.8473636690865574,-8.281920961447394,0.5291906405895089,22.863957541522193
-0.1437,0.9781,0.0326,-0.7143,0.0557,0.0134,-3.3075,1.3737,-14.7962,1.9087830312628076,-8.349203686048469,0.9243321470776494,22.868452262348715
-0.1442,0.9778,0.0289,-0.7143,0.0557,0.0134,-2.9313,0.91,-14.9975,1.6935599174654354,-8.383483364117303,0.9415747352966851,22.873151546060093
-0.1439,0.9767,0.0336,-0.7135,0.0554,0.0104,-3.3338,1.4175,-14.6912,1.9695035682915811,-8.376786752820696,0.6813567809038094,22.87609116426364
-0.1392,0.9783,0.029,-0.7135,0.0554,0.0104,-3.7888,1.6275,-14.7788,1.6987061801997232,-8.1113790458946,0.7021912012540418,22.87809290764906
-0.1413,0.9798,0.0322,-0.7171,0.0563,0.009,-2.9925,1.8288,-14.7,1.8817632479497082,-8.196416487927573,0.5704379399902336,22.880065983917394
-0.139,0.9799,0.035,-0.7134,0.0566,0.0127,-2.4675,1.1638,-15.26,2.0451543195886557,-8.075928400011954,0.855688449570347,22.88201817919921
-0.1408,0.9776,0.0285,-0.7134,0.0566,0.0127,-2.31,1.0325,-15.4175,1.6709318239675577,-8.185621850747383,0.8859568254050781,22.88396754316082
-0.1446,0.978,0.0316,-0.7132,0.0547,0.0109,-1.855,0.8663,-15.12,1.8501242415787356,-8.393551434492851,0.7329658868429819,22.885929294148333
-0.1418,0.9782,0.0312,-0.7132,0.0547,0.0109,-3.2025,0.9625,-15.2775,1.8269136508704324,-8.25256221360482,0.7345541212680669,22.88786414759389
-0.1443,0.9795,0.0321,-0.7148,0.055,0.0145,-2.835,1.1987,-14.9187,1.8768736979659073,-8.368945864607744,1.0163048318389574,22.88983934735238
-0.1408,0.9789,0.0337,-0.7148,0.056,0.0116,-2.94,1.0062,-14.735,1.9714403809829608,-8.19103035727165,0.7741293258656003,22.89127482669666
-0.1417,0.9783,0.0311,-0.7135,0.056,0.0116,-3.1588,1.05,-15.015,1.821236650239786,-8.234809881538572,0.7873102509874121,22.892507866646234
-0.1429,0.9785,0.0298,-0.7172,0.0552,0.0114,-3.2025,1.0587,-15.085,1.7446085247800383,-8.300904179281618,0.7754862642320584,22.89372250301447
-0.1408,0.9778,0.0334,-0.7172,0.0552,0.0114,-2.4588,1.0325,-15.3037,1.9557686105989212,-8.19576881477325,0.7589809873101002,22.89492439844178
-0.1408,0.9757,0.0296,-0.7145,0.0582,0.0118,-2.4413,1.5487,-15.0237,1.738276115419715,-8.207042285523148,0.803038674063174,22.89615319141105
-0.1426,0.9784,0.0287,-0.7145,0.0582,0.0118,-2.6863,1.0325,-15.4175,1.6803740896351789,-8.28415605569986,0.8078359848579523,22.897371720844568
-0.1423,0.9801,0.0334,-0.7162,0.0571,0.0103,-3.0625,0.9625,-15.1725,1.9510114116835984,-8.257874449585858,0.6672388546591793,22.898567245801416
-0.1421,0.9798,0.0336,-0.7142,0.0568,0.0108,-2.2662,0.875,-15.4175,1.9640212252042129,-8.247870219547295,0.7088690507442578,22.899782589999706
-0.1435,0.9775,0.0307,-0.7142,0.0568,0.0108,-2.8875,1.4962,-15.0762,1.7993440957141007,-8.341611595977946,0.7221686875826302,22.901022354334767
-0.1412,0.9776,0.0296,-0.7165,0.0559,0.0114,-3.36,1.0062,-14.9975,1.7344692695359736,-8.22224117051752,0.7750924620840377,22.90222991240249
-0.1401,0.9794,0.0352,-0.7165,0.0559,0.0114,-2.765,1.2862,-14.77,2.057430246552413,-8.140614276988037,0.749659369610119,22.90345835145673
-0.1451,0.9808,0.032,-0.7142,0.0562,0.0127,-2.9138,1.3125,-15.0412,1.8692273850534395,-8.395148390807186,0.8704056451838519,22.904693868811485
-0.1438,0.9781,0.0339,-0.7138,0.0574,0.0106,-2.7913,1.505,-14.875,1.9846944159018818,-8.36089298350416,0.6900489645694062,22.905986012570352
-0.1417,0.9788,0.0303,-0.7138,0.0574,0.0106,-3.08,1.365,-14.9012,1.773696147007529,-8.240990333622419,0.7069359368199236,22.907293374675326
-0.1408,0.9791,0.0323,-0.7142,0.0558,0.0107,-3.0625,1.5225,-14.9012,1.8891452303484482,-8.182621008647198,0.7095772360490993,22.908523583304696
-0.1413,0.9784,0.0318,-0.7142,0.0558,0.0107,-2.8,1.505,-15.6187,1.8616525617101938,-8.211705949468044,0.711795555783561,22.90973114137242
-0.144,0.9798,0.0328,-0.715,0.0556,0.0086,-2.8,1.3825,-15.3825,1.917172706918814,-8.34775768939831,0.5394005641570848,22.910930913309574
-0.1413,0.9775,0.033,-0.7141,0.0577,0.0114,-2.3538,0.8925,-15.3562,1.933501503668247,-8.22788663271511,0.7567440500855419,22.912140240952425
-0.1424,0.9773,0.0318,-0.7141,0.0577,0.0114,-2.1525,1.3037,-15.435,1.8638654823247454,-8.282390608229715,0.7626138650416221,22.91334779902015
-0.1418,0.9791,0.0351,-0.7142,0.0553,0.0122,-2.7913,1.7062,-15.0325,2.0525964629709073,-8.238256437188967,0.8183661047129792,22.914561727558336
-0.1412,0.9765,0.0299,-0.7142,0.0553,0.0122,-3.22,1.2337,-14.8837,1.7546691132599699,-8.224854794323582,0.8416931919509081,22.915760437750414
-0.1449,0.9785,0.0314,-0.7162,0.0563,0.0127,-2.7388,1.2775,-14.8575,1.837751561236948,-8.407784538528837,0.8702239076357434,22.916972950628498
-0.1421,0.9783,0.0355,-0.7148,0.0562,0.009,-2.73,1.33,-14.455,2.077525601134424,-8.267842012461013,0.5572191684267612,22.91817838520607
-0.1407,0.9776,0.0281,-0.7148,0.0562,0.009,-2.7562,1.3475,-14.5075,1.6476670404355895,-8.191400697961855,0.5910124990484885,22.91946769764473
-0.144,0.9789,0.0313,-0.7151,0.0562,0.0116,-2.5025,1.365,-14.6212,1.8308705370928195,-8.354090502975499,0.784186900146751,22.920685165333172
-0.144,0.9787,0.0305,-0.7151,0.0562,0.0116,-2.9225,1.2163,-15.0762,1.785105645139648,-8.365399315265588,0.7879826795008478,22.922051985162465
-0.1447,0.9794,0.032,-0.7126,0.0574,0.0122,-3.115,1.1462,-15.015,1.871118974467943,-8.3978728061748,0.8286829789810664,22.92327936247163
-0.1421,0.9798,0.0343,-0.7159,0.055,0.0092,-2.4325,1.3212,-15.0937,2.0045649846312843,-8.255865819816533,0.5815713315741029,22.924477718748683
-0.1394,0.9769,0.0297,-0.7159,0.055,0.0092,-2.5025,1.2075,-15.0762,1.7421299833204873,-8.125397762602312,0.6016372576519061,22.925686338561484
-0.1421,0.9791,0.0373,-0.7138,0.0556,0.0108,-2.6688,1.4787,-15.1112,2.180454997312067,-8.244509186196424,0.6956515321125155,22.926894604459257
-0.1412,0.9772,0.0283,-0.7138,0.0556,0.0108,-2.4938,1.4175,-15.4612,1.66031217901429,-8.22013780550142,0.7365968048815885,22.92810145469693
-0.1446,0.9792,0.03,-0.7139,0.0557,0.013,-2.275,1.3562,-15.0237,1.7545696904048493,-8.386059848032119,0.9050948208613089,22.929311844084857
-0.1438,0.9789,0.0317,-0.7139,0.0566,0.0098,-2.905,0.84,-15.2512,1.854494179314672,-8.354535455992957,0.638618593344023,22.930522941302836
-0.143,0.9782,0.0326,-0.7134,0.0566,0.0098,-3.0363,1.3475,-14.7962,1.9086088801464682,-8.314889051994411,0.6345540550655063,22.931722713239996
-0.1446,0.9787,0.0324,-0.7146,0.0563,0.0117,-2.4413,0.9363,-14.6475,1.8961276445138628,-8.395087850316425,0.7873964615230103,22.93292106951705
-0.1398,0.9785,0.0321,-0.7146,0.0563,0.0117,-2.8963,1.295,-14.8312,1.8789808366370766,-8.142251384640833,0.7886124027711297,22.934136767630363
-0.1394,0.978,0.0312,-0.7139,0.0561,0.0152,-2.6425,1.2512,-14.8662,1.8273673593439193,-8.109978800067214,1.0741470367482073,22.93535494314886
-0.138,0.9798,0.0303,-0.7139,0.0561,0.0152,-2.5025,1.3387,-15.3825,1.7714474386919008,-8.018958595464312,1.0786520753530207,22.936582674373046
-0.1412,0.9782,0.0363,-0.7154,0.054,0.0101,-2.8438,1.575,-15.6975,2.1242124126504454,-8.196947996940052,0.6478381557935357,22.93781500649257
-0.1456,0.9783,0.0328,-0.7144,0.0548,0.0099,-2.38,1.0237,-15.3562,1.9208434833692085,-8.44537042231982,0.6459480826960273,22.939080960539535
-0.1427,0.9778,0.0336,-0.7144,0.0548,0.0099,-2.2925,0.9887,-15.75,1.9679388830560929,-8.306711021566917,0.6421372217801258,22.940292765587568
-0.1442,0.9787,0.0301,-0.7134,0.0566,0.0093,-3.1412,1.0762,-15.4787,1.7621650698341085,-8.373573363653852,0.6062558984105659,22.941499261910213
-0.141,0.9769,0.0364,-0.7134,0.0566,0.0093,-3.1675,1.1987,-14.9187,2.132843121560672,-8.217027204306122,0.5764789006512787,22.94270894346809
-0.142,0.977,0.0308,-0.716,0.0574,0.0127,-2.87,0.9713,-14.6475,1.8065808729467914,-8.262801799961775,0.869726173229734,22.9439094232353
-0.1423,0.9784,0.0282,-0.713,0.0588,0.0114,-3.15,0.945,-14.7262,1.6513947426547129,-8.271262992730083,0.7784045925850805,22.945103178617018
-0.1413,0.9773,0.031,-0.713,0.0588,0.0114,-3.2725,0.9887,-14.7962,1.8163473145901528,-8.225622111505507,0.764579442071141,22.946311444514794
-0.1446,0.9803,0.031,-0.7136,0.0538,0.0114,-2.4588,1.085,-15.0587,1.811273632129935,-8.377544572017982,0.777984590599962,22.94750803121672
-0.141,0.9801,0.0304,-0.7136,0.0538,0.0114,-2.835,1.3125,-14.7962,1.7766855929919108,-8.194048860344042,0.7804296044296137,22.948705679663725
-0.1421,0.9787,0.0288,-0.7135,0.0564,0.0102,-2.5288,0.7788,-15.225,1.685801926027592,-8.254071241873856,0.6848311947997422,22.94991217598637
-0.1444,0.9792,0.0295,-0.714,0.0562,0.011,-2.7125,1.5837,-15.575,1.7254945541692148,-8.377282754901358,0.7457854781245618,22.951117964478964
-0.1419,0.9773,0.0294,-0.714,0.0562,0.011,-2.8,1.155,-15.5312,1.723109236357056,-8.264609621975199,0.745914361033536,22.95231455118089
-0.139,0.9786,0.034,-0.715,0.0554,0.01,-2.9663,1.0237,-15.12,1.9891017872811423,-8.090008384886106,0.6460851993565483,22.953624036776016
-0.1422,0.9789,0.0332,-0.715,0.0554,0.01,-2.6775,1.7413,-15.0062,1.9426090459793544,-8.250375317672303,0.6498373195497502,22.95487194115667
-0.143,0.9792,0.0303,-0.7131,0.057,0.0142,-2.7738,1.4525,-14.8487,1.7728548790376277,-8.301490511437917,0.9972664417164345,22.95608799318501
-0.1449,0.9783,0.0323,-0.712,0.0558,0.0154,-2.8788,1.3387,-14.6125,1.8906826422448881,-8.413582519079322,1.0893553531972362,22.95728104073668
-0.1434,0.9783,0.0321,-0.712,0.0558,0.0154,-2.7125,1.085,-14.5775,1.8793481855985283,-8.339196241950212,1.0902307033260266,22.958509833705946
-0.1429,0.9784,0.0345,-0.7144,0.0531,0.0113,-2.7475,1.295,-14.8837,2.0191109628995587,-8.3065020537733,0.7555723934078314,22.959742519740495
-0.1416,0.9787,0.0309,-0.7144,0.0531,0.0113,-2.8438,1.3387,-15.015,1.80896571969933,-8.23303924774914,0.7710599399086213,22.960941229932576
-0.1413,0.978,0.0319,-0.7126,0.0574,0.0072,-2.7738,0.945,-14.8575,1.8680203401749569,-8.21773862327677,0.42781573203265777,22.962151973235528
-0.1398,0.9784,0.0323,-0.7143,0.0558,0.0134,-3.0188,0.7175,-15.1988,1.8907590894914201,-8.132467189938342,0.925165352232498,22.96336377828356
-0.1428,0.9789,0.0332,-0.7143,0.0558,0.0134,-2.3187,1.4962,-14.91,1.9423313062415777,-8.28537034983158,0.9216144996626715,22.964568858946105
-0.1419,0.9778,0.0356,-0.7151,0.0561,0.013,-2.5988,1.6275,-14.49,2.08471545640434,-8.253817652873595,0.8764542817376606,22.965773939608646
-0.1395,0.9772,0.0275,-0.7151,0.0561,0.013,-3.08,1.4175,-14.6475,1.6133084927106678,-8.128967289248086,0.9136127813359354,22.966979374186216
-0.1405,0.9786,0.03,-0.7146,0.055,0.0071,-2.6688,1.5925,-15.3212,1.7555087932037003,-8.164253978535768,0.4338312411049723,22.96836105844659
-0.1405,0.9786,0.0335,-0.7146,0.0561,0.0097,-2.975,1.5487,-14.9012,1.9600365073200368,-8.165467930270985,0.6225716299097203,22.969748051432347
-0.1415,0.9776,0.0323,-0.7132,0.0561,0.0097,-2.8,1.3387,-15.1375,1.8925610538843676,-8.227634766608427,0.629339848404577,22.971046919576704
-0.1431,0.9787,0.0369,-0.7139,0.057,0.011,-2.6163,0.8225,-15.1988,2.158451044175569,-8.307873866249812,0.7089694090782875,22.972243152363603
-0.1418,0.978,0.0298,-0.7139,0.057,0.011,-2.6775,0.7788,-15.1637,1.7464498172061118,-8.249536539203374,0.742159264030302,22.97344221647071
-0.1415,0.9789,0.0278,-0.7122,0.0568,0.011,-2.8,1.1638,-14.9625,1.6270568671518173,-8.223464267602372,0.7539194547363428,22.9746327866172
-0.141,0.9806,0.031,-0.7122,0.0568,0.011,-2.9138,1.2512,-15.1375,1.8101862205670627,-8.181035630160066,0.7391652560542559,22.975816278463174
-0.1411,0.9778,0.0321,-0.7126,0.0571,0.0062,-2.415,1.2337,-14.6212,1.880078458712809,-8.205435914193869,0.3474284239501056,22.977004371204483
-0.143,0.9776,0.0309,-0.7142,0.0562,0.0126,-2.2662,0.9625,-14.8137,1.8106000328538576,-8.311486780183454,0.866649543282958,22.978187863050458
-0.1427,0.9778,0.0303,-0.7142,0.0562,0.0126,-2.3975,1.0062,-14.9275,1.7750105205558773,-8.299897812679175,0.8697860416037033,22.97937560187674
-0.1441,0.9778,0.0325,-0.7141,0.0548,0.0102,-2.94,1.505,-15.54,1.9033255882546374,-8.374210210421955,0.6716011499686787,22.980559093722714
-0.1415,0.9792,0.0323,-0.7141,0.0548,0.0102,-3.0363,1.4875,-15.0762,1.889319645723672,-8.227429972431729,0.672451017239546,22.981747186464023
-0.1424,0.977,0.0282,-0.7138,0.0554,0.0116,-2.8175,1.3562,-14.7175,1.6539859693464403,-8.285583155070903,0.8016434455260365,22.98293457137528
-0.143,0.9767,0.0301,-0.7124,0.0574,0.0105,-2.9138,1.0325,-15.05,1.7648716997213687,-8.323374520070068,0.7010728902377957,22.98413505114249
-0.1403,0.9782,0.0312,-0.7124,0.0574,0.0105,-2.8,1.3912,-15.2775,1.8266725937162058,-8.16767813275777,0.6958914282830456,22.985329160439235
-0.1427,0.9781,0.0251,-0.7151,0.0577,0.0109,-2.8788,1.225,-14.8575,1.4710099595038477,-8.290359295389854,0.7534442828598032,22.986515483605416
-0.1427,0.9771,0.0342,-0.7151,0.0577,0.0109,-2.5463,1.4525,-15.0762,2.003114609670897,-8.303172349831959,0.7102002433789,22.987704284176775
-0.1441,0.978,0.0326,-0.7134,0.0578,0.007,-2.6425,1.225,-14.77,1.909417916420645,-8.372860079530676,0.406950399817947,22.988898393473523
-0.1449,0.9785,0.0272,-0.7133,0.0574,0.0122,-2.415,0.805,-15.1025,1.5931734371661164,-8.417476394513388,0.850200652644892,22.990104181966117
-0.1419,0.9793,0.0314,-0.7133,0.0574,0.0122,-3.4213,0.665,-15.75,1.8357976126637272,-8.250508656730533,0.8305927011997359,22.991297937347838
-0.1427,0.9778,0.0345,-0.7158,0.054,0.0112,-3.4563,0.945,-15.2425,2.020221516442106,-8.295316579171706,0.7431780620633877,22.992486030089147
-0.1418,0.977,0.0345,-0.7158,0.054,0.0112,-3.2113,1.3387,-15.5662,2.0223923959748373,-8.255535848641497,0.7429539677291203,22.99366881410507
-0.1433,0.9793,0.029,-0.7123,0.0561,0.0133,-2.6338,1.0587,-15.4088,1.6971251806887935,-8.317572304151822,0.9346856708603933,22.994851598120995
-0.1441,0.9803,0.0322,-0.7154,0.0571,0.0129,-2.485,1.4612,-14.945,1.8808028722847407,-8.355535552904556,0.8814923923155913,22.996038629117226
-0.1435,0.9786,0.0305,-0.7154,0.0571,0.0129,-2.6775,1.015,-14.5775,1.7854284173733241,-8.33928323670426,0.8891519116402381,22.997220705303096
-0.1419,0.979,0.0329,-0.7143,0.0567,0.0121,-2.975,0.8838,-14.665,1.9243475936662708,-8.24814424593254,0.8163444465847589,22.998407382384304
-0.1401,0.9772,0.0336,-0.7143,0.0567,0.0121,-2.7125,1.1462,-14.9713,1.96915265874057,-8.159510059738698,0.8126628872839095,22.999603615171203
-0.1397,0.9786,0.032,-0.7149,0.0576,0.013,-2.7562,0.77,-15.2687,1.8731638196852123,-8.122311302002485,0.8890608002311744,23.00079347748764
-0.1418,0.9801,0.0306,-0.7138,0.0541,0.0099,-2.7562,1.1638,-14.7,1.7885079922266214,-8.222289456200347,0.6584838191053408,23.001983339804077
-0.1406,0.9791,0.0333,-0.7138,0.0541,0.0099,-2.975,1.4088,-15.3125,1.9474751079884203,-8.1704517458458,0.6461307203778233,23.003165062074924
-0.1426,0.9762,0.0344,-0.7148,0.0557,0.0113,-2.6338,1.1025,-15.1988,2.0179927747088686,-8.297917196546996,0.7472333521050968,23.00436660358721
-0.1426,0.9785,0.0331,-0.7148,0.0557,0.0113,-2.1438,1.0325,-15.7412,1.9376493223675728,-8.287491488895867,0.7536102587988334,23.00555965113888
-0.1429,0.9769,0.0306,-0.7161,0.0563,0.0114,-2.2662,1.0325,-15.6275,1.7945270938705775,-8.316368406982347,0.7698793196599762,23.00674774388019
-0.1424,0.9785,0.0328,-0.7161,0.0563,0.0134,-2.8875,0.945,-15.4088,1.919521072526229,-8.277814212151132,0.919543238271077,23.007932651386266
-0.1404,0.9767,0.0328,-0.7141,0.0563,0.0134,-3.1675,1.2075,-14.8925,1.9234000347401214,-8.181569844839498,0.9218039735574901,23.009119328467474
-0.1439,0.9759,0.0294,-0.7138,0.0553,0.0108,-3.0625,0.9887,-15.3475,1.7261325084957502,-8.372673813504777,0.7324404393535935,23.010307067293756
-0.1455,0.9844,0.0323,-0.7138,0.0553,0.0108,-2.8612,0.84,-14.6037,1.878874097560493,-8.401575661349062,0.7203668459231503,23.01149055913973
-0.1437,0.9692,0.0289,-0.7122,0.0551,0.0077,-2.6863,1.225,-14.665,1.7084457420229173,-8.428273028844034,0.4869261494889141,23.012675112730783
-0.143,0.9872,0.0306,-0.7122,0.0551,0.0077,-3.0538,1.1287,-15.3912,1.7752255441393225,-8.249261538976432,0.48142814070748574,23.013858604576757
-0.1388,0.9692,0.0303,-0.7146,0.0562,0.0084,-3.0013,0.98,-15.1287,1.7906052224828473,-8.151943892476952,0.5317355131353765,23.015049174723245
-0.1416,0.9869,0.0281,-0.714,0.0555,0.0106,-2.6513,1.225,-15.47,1.6313929980186785,-8.161214934497863,0.7226454159339639,23.016288585143283
-0.1395,0.9786,0.0381,-0.714,0.0555,0.0106,-2.2925,1.61,-14.6562,2.227891777509047,-8.11005622616331,0.6759975117839551,23.0175304729685
-0.145,0.9821,0.0295,-0.7149,0.0573,0.0114,-2.3538,1.5137,-15.4525,1.7219470301974196,-8.378092121656653,0.7744348780580187,23.018755018957457
-0.1437,0.9736,0.0346,-0.7149,0.0573,0.0114,-2.4588,1.54,-15.4787,2.0344478182340855,-8.390067213361037,0.7491535932020377,23.01997673362621
-0.1433,0.9833,0.0317,-0.7148,0.0564,0.0112,-2.4675,1.435,-15.7412,1.847014469911431,-8.29334869647676,0.7508239788664465,23.021180752543675
-0.1441,0.9745,0.0264,-0.7137,0.0562,0.0122,-2.9575,1.19,-14.4637,1.552644675144502,-8.40171160001091,0.8560300760282752,23.022380524480834
-0.1414,0.9797,0.0285,-0.7137,0.0562,0.0122,-3.465,1.3212,-15.5487,1.6659732541202643,-8.220579192530185,0.8468517944787901,23.023687178755754
-0.1438,0.9796,0.0317,-0.7117,0.0543,0.0107,-3.2288,1.47,-15.3387,1.852922472473519,-8.339332688170408,0.7192255086209242,23.02501577576227
-0.1432,0.976,0.032,-0.7117,0.0543,0.0107,-3.185,1.2337,-14.9975,1.8778068305440336,-8.34235083990036,0.7172638388766629,23.02636313026515
-0.1446,0.982,0.0331,-0.717,0.0581,0.0194,-2.52,1.365,-15.2163,1.9303730669578594,-8.370217485349361,1.3904888934154047,23.027618112946318
-0.1382,0.9788,0.0306,-0.7146,0.0574,0.0103,-2.275,1.4088,-14.7,1.7910359953393242,-8.05257411603633,0.6810723383668439,23.02883982761507
-0.1466,0.9767,0.0341,-0.7146,0.0574,0.0103,-2.4063,1.6187,-15.05,1.9989942488031172,-8.502678285787418,0.6641271468509571,23.03016028457599
-0.1394,0.9787,0.0331,-0.7124,0.0533,0.011,-2.6775,1.3737,-14.9012,1.9372014829974584,-8.125228393247118,0.7387319589566801,23.031544446241547
-0.1418,0.9784,0.0245,-0.7124,0.0533,0.011,-2.5725,1.6538,-15.54,1.4358573901425056,-8.23687420723856,0.7766836167181909,23.032858532732007
-0.1433,0.9787,0.0329,-0.715,0.0564,0.0161,-2.5813,1.2512,-15.645,1.9239483944672762,-8.320205573118601,1.1360734217107766,23.03418182101314
-0.1451,0.9763,0.0376,-0.7152,0.0552,0.0111,-2.5113,1.5137,-15.1112,2.204732865637891,-8.439876139782488,0.7182307156838272,23.03551820415022
-0.1429,0.9798,0.0257,-0.7152,0.0552,0.0111,-2.9575,1.3825,-14.9625,1.5045006098218927,-8.303528874192633,0.7723343271688405,23.03681494880442
-0.1431,0.978,0.0309,-0.717,0.0556,0.0105,-3.0275,0.9975,-14.7962,1.808800266463877,-8.319337259648137,0.6978205137845109,23.03802215295712
-0.1407,0.9789,0.032,-0.717,0.0556,0.0105,-2.7738,0.8925,-15.1725,1.8721386521438679,-8.183173941126167,0.6927750783326841,23.039220155319146
-0.141,0.9791,0.0312,-0.7144,0.0562,0.0142,-2.5025,1.0325,-15.0237,1.8253023125276033,-8.190280001518103,0.9933372387963236,23.04044010041277
-0.1436,0.9818,0.0275,-0.7149,0.0571,0.0125,-1.9337,1.6538,-14.7262,1.6050454005256902,-8.31037562650411,0.8723441656094377,23.04163633319967
-0.1413,0.9754,0.0338,-0.7149,0.0571,0.0125,-2.2225,1.3125,-15.1375,1.9835737623000844,-8.242088250052106,0.8416741760312786,23.04283008858139
-0.1463,0.9778,0.0312,-0.7138,0.0568,0.0116,-3.2813,1.1812,-15.365,1.8280361086399877,-8.490061054476746,0.7845671385638974,23.044025259623215
-0.1421,0.979,0.0326,-0.7138,0.0568,0.0116,-3.01,1.4962,-15.0412,1.9069798542138652,-8.268092361568984,0.777937442884314,23.045219015004935
-0.1413,0.9795,0.0254,-0.7125,0.0544,0.0157,-3.0275,1.1287,-15.5137,1.4866305399985376,-8.209567060063476,1.1474440589927577,23.04643471311825
-0.1447,0.9764,0.0308,-0.713,0.058,0.0116,-3.4388,1.3037,-15.47,1.8058581225835593,-8.413009579070158,0.7840064067680022,23.047631299820175
-0.1416,0.9786,0.028,-0.713,0.058,0.0116,-3.5175,1.3562,-15.1637,1.6393899265453662,-8.240732610092895,0.7972953100123388,23.04882293171174
-0.1433,0.9801,0.0325,-0.7131,0.0548,0.0117,-3.7538,1.1112,-14.6737,1.898488897210826,-8.309537148473366,0.7930414659842426,23.05001774883854
-0.1419,0.979,0.0299,-0.7131,0.0548,0.0117,-3.4825,1.505,-15.1462,1.7497701388764753,-8.247342274101696,0.8045486716549191,23.051211858135286
-0.1449,0.9769,0.0285,-0.716,0.057,0.0142,-2.94,1.5837,-15.05,1.6712909133392313,-8.422395354457633,1.0016382283784073,23.052421893608187
-0.1434,0.9772,0.0292,-0.716,0.057,0.0142,-2.555,1.5225,-15.3562,1.7114489543502482,-8.349248262062272,0.998425959345364,23.053678645864483
-0.1424,0.9776,0.0326,-0.7132,0.0562,0.0187,-3.5263,1.085,-15.085,1.9093708070584405,-8.286850718878567,1.3490893546192448,23.05487770997159
-0.1399,0.9791,0.0302,-0.7149,0.0548,0.0117,-2.4675,0.9013,-14.9975,1.7671111997357116,-8.13697887364758,0.8014759873745879,23.05606828011808
-0.1431,0.9784,0.0359,-0.7149,0.0548,0.0117,-2.3712,0.5425,-15.05,2.1004423155270127,-8.305552709050044,0.7754885755008523,23.05725955809462
-0.1421,0.9754,0.0304,-0.7136,0.0551,0.0126,-3.0013,1.0412,-15.4437,1.7860343228612163,-8.285981985865998,0.8725624896261186,23.058454375221416
-0.1431,0.9801,0.0315,-0.7136,0.0551,0.0126,-2.2313,1.33,-15.75,1.8406738591720604,-8.301608238844054,0.8683223690710633,23.05964636102801
-0.1418,0.9778,0.03,-0.7142,0.0557,0.0125,-2.135,1.2862,-15.575,1.757582556080128,-8.250792271759959,0.864436409749591,23.060832330279165
-0.1443,0.9791,0.0297,-0.7143,0.0556,0.0103,-3.3775,1.54,-15.0412,1.7375331851832778,-8.372468119544484,0.6901698498549104,23.06205439886294
-0.1413,0.9787,0.0325,-0.7143,0.0556,0.0103,-3.535,1.19,-14.7087,1.9014744506695906,-8.220216960102867,0.6770655112367931,23.063245322924455
-0.1408,0.9769,0.0294,-0.7155,0.0559,0.0117,-3.4475,0.9187,-14.7525,1.7243107174377894,-8.199139241898061,0.8009063514497153,23.06444120179633
-0.1444,0.9786,0.0323,-0.7155,0.0559,0.0117,-2.9663,1.015,-14.3675,1.889967624026795,-8.378456013793196,0.7880859627493184,23.065637788498258
-0.1377,0.9799,0.0302,-0.7154,0.0574,0.012,-2.8875,0.98,-14.9975,1.7656194483081238,-8.017257071347714,0.8176932634861753,23.06682552732454
-0.1413,0.9795,0.0248,-0.7142,0.055,0.0115,-2.555,1.3387,-15.2075,1.4512547952998176,-8.195078728114417,0.8098948927413949,23.068015035725953
-0.1419,0.9779,0.0328,-0.7142,0.055,0.0115,-3.115,1.4,-15.33,1.919723402105808,-8.248481778494225,0.773524334592664,23.069251968740808
-0.1444,0.9761,0.033,-0.7142,0.0572,0.0109,-2.9225,1.4,-15.3562,1.9362719438495242,-8.400832052311316,0.7181504751567647,23.070457757233402
-0.1448,0.9797,0.0346,-0.7142,0.0572,0.0109,-2.2313,1.085,-15.295,2.0224267497120807,-8.402220145146838,0.7111604091905388,23.071657175255535
-0.1445,0.9765,0.0337,-0.7138,0.0561,0.0162,-1.9075,0.9538,-15.505,1.9766800484342766,-8.411878090826304,1.142856747565448,23.072855885447616
-0.1428,0.9784,0.0293,-0.7149,0.0563,0.0097,-2.3538,1.3037,-15.1988,1.7160534438632808,-8.306677587391597,0.6416966761374271,23.074070167900825
-0.1406,0.9795,0.0303,-0.7149,0.0563,0.0097,-2.7738,1.155,-15.0412,1.771673563871569,-8.172938575940869,0.6367979350468602,23.075268170262856
-0.1426,0.9762,0.0333,-0.7133,0.0561,0.0118,-2.8963,1.575,-14.875,1.9531934917804077,-8.298147078732839,0.7927506483544441,23.076472189180322
-0.1438,0.977,0.0307,-0.7133,0.0561,0.0118,-2.31,1.1112,-14.6037,1.8002301806517067,-8.364825947461526,0.8050780961699178,23.07771797007082
-0.1408,0.9799,0.0357,-0.7137,0.056,0.0099,-3.0975,0.735,-14.7262,2.0856837243643445,-8.18232198135159,0.6299868584570113,23.078969059686706
-0.1412,0.9793,0.0302,-0.7138,0.0542,0.0139,-2.7213,1.365,-15.3475,1.7672501963823608,-8.199700844648216,0.9801009641621591,23.080177679499506
-0.1397,0.9798,0.0337,-0.7138,0.0542,0.0139,-2.4763,1.1725,-15.3825,1.969326560121854,-8.115015116937089,0.9646750428566508,23.081381344501946
-0.1424,0.9751,0.0265,-0.711,0.055,0.0122,-2.7913,1.155,-15.4962,1.5578932852332916,-8.294499090013444,0.8617228332588537,23.082592441719928
-0.1409,0.9795,0.0317,-0.711,0.055,0.0122,-2.5638,1.1812,-15.7587,1.8528067230881626,-8.188093381982418,0.8384527337352227,23.083781950121338
-0.1352,0.978,0.0345,-0.7138,0.0566,0.0125,-2.3187,1.085,-15.4088,2.019859480174154,-7.884470389128171,0.8412262819604721,23.084982429888548
-0.1407,0.9808,0.035,-0.7138,0.058,0.0095,-2.52,1.4525,-15.3125,2.0436740912497013,-8.142393840493925,0.5953063038415766,23.08619246536145
-0.1462,0.9772,0.0239,-0.7124,0.058,0.0095,-2.7037,1.2425,-15.4088,1.4028559278498913,-8.485320152356667,0.6489991556623421,23.087389052063376
-0.1444,0.9716,0.0314,-0.7136,0.0552,0.0113,-2.9663,1.4088,-14.8662,1.8497633504356,-8.451244066627773,0.7630909540444257,23.088576083059607
-0.1393,0.9807,0.0295,-0.7136,0.0552,0.0113,-3.22,1.4525,-14.035,1.7233281180955469,-8.102476438293378,0.7727897902288553,23.089787534192613
-0.1342,0.9851,0.0306,-0.715,0.0562,0.013,-3.4038,0.5775,-14.9012,1.7790391208396445,-7.773436382178351,0.8998757269197121,23.09098270523444
0.1088,0.9631,0.1008,-0.2042,0.1285,-0.0034,-1.9862,-1.2512,-12.3287,5.963105848225055,5.690923670809191,5.071029251593269,23.092688929573388
0.1088,0.9631,0.1008,-0.2042,0.1285,-0.0034,-1.9862,-1.2512,-12.3287,5.974905749256898,6.374060824936499,5.075025096931125,23.094833300714164
0.1118,0.9621,0.0953,-0.2042,0.1285,-0.0034,-2.6075,-1.2163,-12.1975,5.657829940408178,6.58498874864926,4.874654649009467,23.09607695811451
0.1152,0.9606,0.0936,-0.203,0.1267,-0.0044,-2.1175,-0.4987,-13.1425,5.565541738659545,6.794917889760454,5.10178606007207,23.097302211933517
0.111,0.9618,0.0923,-0.203,0.1267,-0.0044,-0.7,0.21,-15.4175,5.481890063228493,6.566689167117481,5.028620233017224,23.09850835434114
0.1086,0.9592,0.0927,-0.2024,0.1282,-0.0014,-2.695,0.6825,-15.1812,5.519987039705209,6.437481735191873,4.201815848780647,23.099697862742552
0.1038,0.9614,0.0865,-0.2041,0.1272,-0.005,-2.6425,0.49,-15.8638,5.142297661318345,6.154301215489628,4.941018076227543,23.100892679869347
0.1031,0.9679,0.0899,-0.2041,0.1272,-0.005,-2.4325,0.6212,-16.205,5.306029361215309,6.059918988446104,5.044919884579025,23.102105546662457
0.1047,0.972,0.0875,-0.2053,0.1272,-0.0044,-2.625,0.7263,-15.435,5.144391974877432,6.119818640776791,4.733617489486088,23.103302841194434
0.1046,0.9708,0.0911,-0.2053,0.1272,-0.0044,-2.8875,0.315,-14.6562,5.3603319051177065,6.122808373855985,4.875828341249345,23.104497658321232
0.1083,0.9623,0.0949,-0.2043,0.1285,-0.0064,-3.2725,0.1663,-13.2212,5.631408248273832,6.375837683478647,5.738135457871035,23.1057016772387
0.1057,0.9546,0.0911,-0.2043,0.1285,-0.0064,-3.6575,0.9013,-12.3025,5.451888462721928,6.294987083319995,5.610633066591938,23.106901449175854
0.1125,0.9531,0.091,-0.2037,0.1282,-0.004,-3.115,1.2862,-12.8275,5.453942995144791,6.67793272647465,4.929521325903358,23.10809980545291
0.111,0.9528,0.0954,-0.2049,0.1285,-0.0033,-3.3688,1.0587,-12.2762,5.716990829294892,6.615945800419795,4.868543588117939,23.10939584227706
0.1049,0.9579,0.0925,-0.2049,0.1285,-0.0033,-3.5263,1.2512,-12.145,5.5162583104580145,6.243830835468751,4.70788372208711,23.110702142636956
0.1063,0.9575,0.0924,-0.2057,0.1271,0.0019,-3.29,1.26,-12.2237,5.512061395970856,6.302273500776835,3.1005134133881365,23.111912885939912
0.1063,0.956,0.0867,-0.2057,0.1271,0.0019,-2.5638,0.7875,-11.725,5.18293232837023,6.318123437390766,2.8812842230761087,23.113096377785887
0.1086,0.9556,0.0907,-0.206,0.1268,-0.0085,-2.8963,0.56,-11.445,5.421264102119498,6.447209610140303,6.120032255107809,23.11441506517168
0.1155,0.9579,0.0954,-0.2061,0.1278,-0.0022,-2.6163,0.5163,-11.585,5.686743570423157,6.819803529623889,4.483014099645735,23.11563961116064
0.1128,0.9473,0.084,-0.2061,0.1278,-0.0022,-3.1412,0.3938,-11.9525,5.069091651991355,6.767318303806395,4.064841604691954,23.116833720457386
0.1161,0.9475,0.093,-0.2061,0.1274,-0.0032,-3.4388,0.42,-12.775,5.604278660726801,6.94243951947954,4.720131815101348,23.118036323714747
0.1096,0.9501,0.092,-0.2061,0.1274,-0.0032,-3.0363,0.3675,-12.5738,5.531024291198476,6.571668509362782,4.6451715238548905,23.11925060616796
0.105,0.9521,0.0861,-0.207,0.1267,-0.0021,-3.2813,-0.0788,-13.0288,5.168327711317098,6.2843061276443235,4.023038674657994,23.120465596451222
0.1028,0.9581,0.0925,-0.207,0.1264,-0.0038,-3.8063,-0.4288,-13.8512,5.513562401670624,6.105999379535221,4.729759469753753,23.12168518762982
0.1021,0.9637,0.0914,-0.207,0.1264,-0.0038,-3.8063,-0.6913,-13.4312,5.418156875071338,6.025315545566425,4.663135266879994,23.122911503193905
0.1035,0.9621,0.0883,-0.2084,0.1264,-0.0034,-4.3925,-1.7587,-13.6937,5.244319597012513,6.110185615846658,4.406880735300353,23.129980955832465
0.1016,0.9609,0.087,-0.2084,0.1264,-0.0034,-5.1013,-2.7125,-13.9912,5.173662547162059,6.015961909934993,4.35554347605047,23.14216908148787
0.0952,0.959,0.0867,-0.2081,0.1274,-0.0045,-5.2238,-3.78,-14.175,5.165899339019388,5.662926976653328,4.685126300473457,23.15445276420022
0.0773,0.9731,0.0838,-0.2074,0.126,-0.0023,-6.2125,-4.0425,-12.7137,4.922666977887777,4.575744906642598,3.808252520504424,23.166770776670063
0.0687,0.9939,0.0782,-0.2074,0.126,-0.0023,-6.7463,-6.0462,-11.6112,4.499972731916179,3.9678096393927933,3.514107843246078,23.17960479724739
0.0905,0.9989,0.0847,-0.2095,0.1275,0.0002,-7.0437,-7.7875,-10.5,4.845711072341801,5.113069736877982,3.0689397749513363,23.19174054347899
0.1085,1.0036,0.0826,-0.2095,0.1275,0.0002,-10.36,-9.9925,-9.6337,4.705456591681585,6.113258629925489,3.0165544233390444,23.203838066887815
0.1257,1.007,0.0849,-0.2093,0.1263,0.0018,-12.145,-9.6862,-10.1937,4.818870290296124,7.055599177127263,2.6275597315164965,23.21604141088933
0.1401,1.0009,0.0863,-0.2106,0.1234,0.0021,-14.0525,-8.82,-9.2137,4.927673081597499,7.906684935850889,2.5430119354775327,23.228145304768613
0.1475,0.9554,0.0941,-0.2106,0.1234,0.0021,-15.0675,-7.2013,-9.905,5.623035838743338,8.702473802770461,3.022456445674831,23.23738673391996
0.1468,0.9511,0.1045,-0.2114,0.1242,0.0061,-14.875,-5.7925,-11.1037,6.268202630134035,8.72172159518448,2.259766136970131,23.249586184856188
0.1344,0.9426,0.1089,-0.2114,0.1242,0.0061,-15.61,-4.4012,-11.6812,6.589305768105922,8.09073658002655,2.44491075752508,23.26170954406189
0.1266,0.9364,0.1145,-0.2126,0.1257,0.0103,-15.1375,-3.3425,-12.1975,6.970219135457059,7.6638968763800035,1.487051216172833,23.27388174354114
0.1198,0.9376,0.1141,-0.2107,0.1235,0.011,-14.0087,-3.4038,-12.88,6.9385105003832885,7.248551787842589,1.1847588790069001,23.286232316193345
0.1179,0.9283,0.1281,-0.2107,0.1235,0.011,-13.3787,-2.835,-12.215,7.854187946393889,7.174583772205014,1.7705350598824028,23.298211278068557
0.1213,0.9217,0.1248,-0.2113,0.1235,0.011,-12.1187,-2.6425,-11.7425,7.711481283253352,7.4181526532012585,1.678527335417623,23.310420638625505
0.1253,0.9226,0.1312,-0.2113,0.1235,0.011,-10.3162,-2.485,-11.9875,8.092479229263757,7.64655497368197,1.9287608860089795,23.322610533856043
0.1381,0.9252,0.1365,-0.214,0.1234,0.0114,-8.96,-2.1875,-10.9812,8.391763653010997,8.363474851730409,1.991502265002958,23.334740263532204
0.143,0.9242,0.134,-0.2162,0.1219,0.0134,-6.7463,-0.3588,-10.4212,8.250246459636319,8.687721664654033,1.2422036156807212,23.346849820051904
0.1452,0.9209,0.134,-0.2162,0.1219,0.0134,-5.74,-0.0263,-11.1912,8.278912653838066,8.858512693462558,1.2628122356578377,23.356082401327605
0.1442,0.9227,0.1368,-0.2138,0.1225,0.0138,-4.2525,0.5688,-11.8912,8.432832063040472,8.79178021285191,1.2842268150961345,23.368153027194477
0.1355,0.9331,0.1236,-0.2138,0.1225,0.0138,-3.2987,1.7062,-12.1187,7.5480800120760385,8.227683943301914,0.7105918645320103,23.380235332257193
0.1285,0.9452,0.1291,-0.2159,0.1233,0.0143,-3.0188,2.2488,-11.3662,7.776959654460471,7.705843965160413,0.7306643584719137,23.392342765286738
0.1209,0.9528,0.1299,-0.2158,0.1232,0.0125,-2.66,2.205,-10.71,7.763593803760512,7.199190759897497,1.2271735023171924,23.40438543186658
0.1195,0.9505,0.1258,-0.2158,0.1232,0.0125,-2.1175,2.2488,-10.2112,7.539990642908402,7.1103457640197725,1.0871226526179678,23.413547937967188
0.1182,0.9439,0.118,-0.2174,0.1218,0.0134,-2.1525,0.6563,-9.7562,7.126932189606405,7.084676532837545,0.5179731007216786,23.425589188886924
0.1275,0.9405,0.1216,-0.2174,0.1218,0.0134,-1.96,0.245,-10.5875,7.366392458018134,7.625891737393381,0.6698247978587796,23.437675387014927
0.1341,0.9443,0.118,-0.218,0.1206,0.015,-1.5487,-0.2625,-11.8562,7.123462215720862,7.999863545981552,0.020502764788169318,23.449815380226838
0.134,0.95,0.1149,-0.218,0.1206,0.015,-0.9538,-0.5163,-12.1012,6.8969159210534245,7.972915491555359,0.11814684375390597,23.461909364485404
0.1275,0.959,0.1134,-0.2198,0.1209,0.0113,-0.35,-1.0325,-13.195,6.74423549251331,7.544492438225277,0.8431843628738113,23.474034139351208
0.1146,0.9688,0.1095,-0.2186,0.1217,0.0136,-0.5775,-1.6712,-13.7462,6.449400455196119,6.745672068463214,0.04413623940638787,23.486204923170355
0.0872,0.9903,0.1027,-0.2186,0.1217,0.0136,-2.0475,-2.5375,-13.0987,5.922239080289349,5.088327941162749,0.26921030913789873,23.495414499969385
0.0877,0.993,0.1013,-0.2184,0.1221,0.0146,-3.8675,-3.745,-12.9762,5.825103179547893,5.024261742846661,0.5907310357708919,23.507520163423802
0.0907,0.9861,0.1,-0.2184,0.1221,0.0146,-5.9325,-8.0675,-12.5562,5.790644590508124,5.220826572275023,0.6128323359519151,23.519612732022267
0.0941,0.9793,0.105,-0.219,0.1214,0.0162,-7.63,-9.3187,-13.4837,6.1188983279921185,5.44903322194791,0.8786185260768977,23.53178210018131
0.087,0.9787,0.1001,-0.2208,0.1204,0.0154,-9.2575,-11.9437,-14.5862,5.84062502714631,5.066645033239922,0.8404701175764144,23.544020481770367
0.0544,0.983,0.1027,-0.2208,0.1204,0.0154,-10.5612,-14.9275,-15.47,5.96404332166052,3.207845707703173,0.751947843440595,23.556230550157366
0.0376,0.9916,0.1032,-0.2197,0.121,0.0171,-11.6725,-19.11,-16.6075,5.941688259203099,2.187770887798462,1.1944871092662546,23.568382930395178
0.0381,0.9944,0.1041,-0.2197,0.121,0.0171,-13.335,-23.5987,-17.9725,5.976210577936495,2.182406260062304,1.175376255067753,23.58067546098317
0.0487,0.9898,0.1139,-0.2182,0.121,0.0231,-14.8662,-28.3412,-19.1712,6.562645663724214,2.785188786933903,2.4619839484546358,23.592860401403343
0.0664,0.9813,0.1124,-0.2168,0.1232,0.0253,-17.0713,-33.25,-20.195,6.534375894495163,3.8254522692663944,3.059977889821885,23.605126388364404
0.0805,0.9721,0.1169,-0.2168,0.1232,0.0253,-17.9725,-37.03,-21.6125,6.856229289433716,4.68441171145971,2.8957153842159706,23.617310267039503
0.088,0.9698,0.1166,-0.2158,0.1235,0.0281,-18.6812,-41.4225,-23.065,6.855820325649755,5.140225749779042,3.696320634852569,23.629530598962248
0.0958,0.9636,0.1155,-0.2158,0.103,0.0375,-20.0112,-44.975,-24.185,6.835097723074958,5.629692947980385,6.968484174987302,23.64179198502798
0.1116,0.9576,0.1199,-0.2125,0.1226,0.0375,-20.6063,-49.3675,-26.5825,7.135900469372729,6.582044539397636,6.379495543742911,23.65116330099376
0.1435,0.9443,0.124,-0.2122,0.1224,0.0402,-21.14,-50.9162,-26.7575,7.4799177647225115,8.539725719768866,7.139400717682813,23.66331143425126
0.1531,0.9406,0.1268,-0.2122,0.1224,0.0402,-20.4137,-51.3187,-27.4837,7.677031266121707,9.154468697291662,7.072076760536412,23.675548046265188
0.1623,0.9395,0.1298,-0.2072,0.1238,0.0468,-21.0088,-51.9663,-27.6763,7.865544281755729,9.702836409616385,9.156843227442227,23.68781969586666
0.1673,0.935,0.1238,-0.2058,0.1227,0.0552,-20.7637,-51.5025,-28.0,7.54341843876819,10.053548668595313,12.09829624689519,23.700020562462992
0.1758,0.9297,0.1288,-0.2058,0.1227,0.0552,-20.2213,-50.9337,-28.0263,7.886488619501064,10.60082201733257,11.968124321153992,23.712197716752602
0.186,0.921,0.1296,-0.2048,0.1266,0.0558,-19.3463,-49.0262,-27.8512,8.009510116072068,11.298564105713451,12.14976197149792,23.724426542635964
0.1918,0.9176,0.1351,-0.2048,0.1266,0.0558,-19.2938,-47.005,-27.65,8.374507631694378,11.677861179032377,11.960854334573636,23.73669146785195
0.1975,0.9119,0.1358,-0.2025,0.1264,0.0614,-18.3312,-44.3362,-26.3725,8.469946155056519,12.084490155833658,13.917675187935716,23.748909322369517
0.202,0.9149,0.138,-0.2042,0.1266,0.063,-17.57,-41.195,-24.1238,8.577296298541278,12.311676251888802,14.261279341691624,23.761139917828007
0.2109,0.915,0.1424,-0.2042,0.1266,0.063,-15.2775,-34.5363,-22.715,8.845103455040784,12.820492368579718,14.192252471329116,23.7733209651829
0.2147,0.9123,0.1405,-0.1993,0.1276,0.0675,-14.0963,-31.3425,-21.9538,8.755391531020313,13.088516061895808,16.157091240068226,23.78555509979165
0.2072,0.9116,0.1432,-0.1993,0.1276,0.0675,-12.3638,-27.685,-21.525,8.92693576003943,12.664639448131432,15.902901828535354,23.797819317177584
0.2022,0.9112,0.1474,-0.1988,0.1276,0.0754,-11.165,-24.2462,-21.245,9.188077838528239,12.363132897168201,18.172428759646564,23.810032570799816
0.2018,0.9149,0.1421,-0.1989,0.1282,0.0736,-9.415,-21.07,-21.0,8.829533711382732,12.29743932235834,17.82894009755165,23.822184243207573
0.2015,0.9218,0.1477,-0.1989,0.1282,0.0736,-7.84,-17.5525,-20.7462,9.102340170873948,12.183186967231864,17.589797730299402,23.83437307669303
0.2024,0.9202,0.1473,-0.1969,0.1278,0.073,-6.79,-14.4287,-20.1863,9.094427859349176,12.251466436887355,17.637495327949836,23.846501744624117
0.1997,0.9202,0.1479,-0.1969,0.1278,0.073,-5.5125,-11.165,-19.5475,9.130723119967557,12.099115349018618,17.560736229470574,23.855901373791955
0.1968,0.9211,0.1484,-0.1978,0.1277,0.0784,-4.1388,-8.155,-19.565,9.152311303532118,11.918274271153756,19.090328093273154,23.868032165213197
0.193,0.9251,0.1479,-0.1977,0.1278,0.0739,-2.7475,-5.1188,-18.3225,9.083466814835564,11.6524204867639,17.66291564253792,23.88005713604175
0.183,0.9302,0.1529,-0.1977,0.1278,0.0739,-2.3013,-2.1088,-17.0275,9.333714987413208,11.01840772460781,17.281935004318928,23.892204207554173
0.1781,0.93,0.1509,-0.1982,0.1278,0.0743,-0.9713,2.7913,-17.1588,9.21671043004442,10.72452751283011,17.36180426955146,23.904302084878022
0.1699,0.9324,0.1461,-0.1982,0.1278,0.0743,-0.245,4.9963,-17.0538,8.90627507894239,10.24373843879308,17.442690219913715,23.91636810984956
0.1596,0.935,0.1472,-0.1966,0.1283,0.0758,0.84,7.07,-16.3362,8.94670794812883,9.630153466643172,17.823225689157717,23.925317559104695
0.1493,0.9396,0.1474,-0.1958,0.1264,0.0742,1.33,8.1988,-15.7412,8.915713968280334,8.990433701486333,17.3166811835411,23.937159201949928
0.1404,0.9474,0.1423,-0.1958,0.1264,0.0742,2.3013,8.2163,-14.9537,8.543044381254001,8.401171693128116,17.421365721407092,23.94922239560126
0.1299,0.9575,0.1404,-0.1995,0.1275,0.071,2.9225,8.4,-14.7175,8.342498359445836,7.720303881834651,16.077285529148536,23.9613779610743
0.1333,0.9596,0.1401,-0.1995,0.1275,0.071,2.5725,8.6625,-14.3325,8.306502153507436,7.815690923351488,16.144628412421387,23.973479377548408
0.1373,0.9664,0.141,-0.1961,0.1277,0.0681,2.3538,8.26,-13.9387,8.301030433227288,7.984176045884763,15.607917857242093,23.982235943114528
0.1376,0.97,0.1401,-0.1961,0.1277,0.0681,2.24,8.0762,-14.1312,8.218796178204487,7.9912643578373155,15.66357768258141,23.99437168934613
0.1366,0.9747,0.1471,-0.1974,0.1251,0.066,1.7937,8.4787,-14.7087,8.581197653153527,7.899786030223351,14.73237205962598,24.006514513878244
0.1322,0.9858,0.1446,-0.199,0.1299,0.0688,2.4325,7.7088,-14.98,8.345460414039945,7.589897094202525,15.369792397022767,24.018659461900516
0.1093,1.0088,0.1461,-0.199,0.1299,0.0688,2.0825,6.5275,-15.9687,8.240889116382025,6.243492912156106,15.119051503250931,24.027422397937098
0.129,1.0275,0.1496,-0.1955,0.1303,0.0674,1.7937,5.6788,-16.9575,8.28371566254484,7.016385990304624,15.156843229490832,24.039507534320023
0.1353,1.0547,0.1514,-0.1955,0.1303,0.0674,0.8225,4.2962,-17.9288,8.169207404421956,7.221202046347859,15.275665771648814,24.051656375407575
0.143,1.082,0.1568,-0.1924,0.1306,0.0672,1.0587,2.5113,-19.11,8.245505547011621,7.4373195068903435,15.457843162909978,24.063796368619485
0.1528,1.0947,0.1635,-0.1945,0.1303,0.0678,0.7175,1.4787,-20.8512,8.49397760451367,7.835127469182261,15.390627417022111,24.075899200753696
0.1459,1.0825,0.1638,-0.1945,0.1303,0.0678,-0.2713,0.6825,-24.0625,8.604205396610004,7.60446666189849,15.245576669916439,24.084674169901152
0.1252,1.0562,0.157,-0.1934,0.1281,0.0654,-0.4288,0.1837,-27.1688,8.455303506841199,6.737572453272789,14.58692682083361,24.096847785040506
0.0772,1.0485,0.1613,-0.1934,0.1281,0.0654,-1.015,-0.5513,-28.9625,8.744934747273412,4.297716951458626,13.864877537842023,24.109068824793304
0.0633,1.0473,0.1631,-0.1895,0.1313,0.068,-0.595,-2.0475,-28.5775,8.851485033280552,3.460631391942255,14.566768122481243,24.12125942785389
0.0634,1.0432,0.1568,-0.1895,0.1313,0.068,0.0788,-5.5563,-22.1287,8.548804546936335,3.4401955943594316,14.7906481124857,24.1333994210658
0.0751,1.0366,0.1655,-0.1885,0.1342,0.0599,2.2225,-7.21,-20.2038,9.069634268027645,4.066703325057446,12.057753877302629,24.145571266630025
0.0895,1.0339,0.1569,-0.1881,0.1322,0.0644,2.6425,-8.9162,-18.2262,8.6303353555325,4.861629499904892,14.027143462295736,24.154330309601324
0.0995,1.0665,0.1601,-0.1881,0.1322,0.0644,2.8263,-9.6512,-16.94,8.537591896525532,5.256728694996936,14.177347293583374,24.166514188276423
0.1366,1.0748,0.1615,-0.1878,0.1307,0.0639,2.555,-9.7475,-16.1437,8.54534128967687,7.09591283814868,14.517184929554668,24.178677539880027
0.1482,1.0527,0.151,-0.1878,0.1307,0.0639,2.4588,-8.7762,-16.6513,8.163930305444833,7.902586551188165,14.99192271037222,24.19082319573235
0.1444,1.0212,0.1438,-0.1904,0.1314,0.0654,1.7413,-7.2888,-18.1912,8.015802936978364,7.968134151118097,15.342719138846192,24.203022292753552
0.129,0.9848,0.134,-0.1868,0.1314,0.0606,1.0062,-5.8187,-20.0637,7.749296615921351,7.418955905132096,14.188819331442637,24.215174672991363
0.1157,0.9528,0.1299,-0.1868,0.1314,0.0606,1.015,-5.1975,-21.8225,7.763516054031649,6.884360064938629,14.055927630672791,24.22393159247251
0.1005,0.944,0.1135,-0.1838,0.1325,0.0624,1.015,-5.425,-21.6737,6.858474401546857,6.069407163853068,15.340512337302037,24.236087865775602
0.1038,0.9437,0.1155,-0.1838,0.1325,0.0624,1.5312,-5.215,-21.4725,6.977428231127535,6.223939541736723,15.295657306396581,24.248256526104594
0.1071,0.9554,0.108,-0.1857,0.1337,0.0662,0.8575,-5.3725,-20.23,6.450908931672373,6.350446294040902,16.715303498927323,24.26042837166882
0.1043,0.9433,0.1047,-0.1857,0.1337,0.0662,0.9975,-5.2762,-19.18,6.333853388302886,6.274655568066348,16.78119778152136,24.272604110298325
0.1044,0.9418,0.1034,-0.1849,0.1345,0.0616,0.2975,-5.4513,-20.16,6.2655884341973636,6.287464080423548,15.453455888675775,24.284726053843922
0.1013,0.9338,0.1038,-0.1835,0.1351,0.0608,-0.0788,-6.3088,-22.085,6.3426686559050385,6.1591115564955325,15.212885766756814,24.29354136930431
0.0798,0.8895,0.0927,-0.1835,0.1351,0.0608,-1.6275,-6.5012,-25.0163,5.95075814730586,5.141475239375039,15.264854765560566,24.305739050665412
0.0573,0.8659,0.0942,-0.1809,0.1347,0.0612,-2.9488,-7.2013,-29.05,6.207978544804353,3.817513571224729,15.117851428399437,24.317922221510457
0.0378,0.8633,0.0893,-0.1809,0.1347,0.0612,-3.5875,-9.1,-31.465,5.906544633385756,2.5418639466698663,15.068942691839716,24.330131935982433
0.0243,0.885,0.0908,-0.1775,0.1367,0.0651,-3.9288,-10.4387,-28.4988,5.858122574831212,1.5984204259389052,16.317869246161123,24.34234235828446
0.0099,0.8741,0.0903,-0.1741,0.1386,0.0633,-4.34,-12.1012,-24.395,5.8979766520979,0.6766491942310986,15.775898746599118,24.35457047633777
0.0506,0.9149,0.088,-0.1741,0.1386,0.0633,-4.5413,-14.9187,-19.9412,5.4952617368780174,3.076959817999794,16.6869678851557,24.366773112509232
0.0784,0.9093,0.0882,-0.1757,0.1387,0.0638,-5.5213,-16.8437,-16.6513,5.540098413583372,4.85317609208276,17.115849327222545,24.379016094993624
0.0997,0.9097,0.0864,-0.1757,0.1387,0.0638,-5.775,-17.78,-15.995,5.425797234620631,6.188758483636562,17.583892689255315,24.391173076126766
0.1106,0.8854,0.0874,-0.1749,0.1366,0.0624,-6.2737,-17.255,-15.3737,5.636938410519062,7.061022113512867,17.32654445527293,24.4000605902524
0.0995,0.8596,0.0913,-0.1782,0.1346,0.0658,-5.9938,-17.5788,-16.6075,6.061565676139728,6.579816363174433,17.6532686599086,24.412324099808284
0.0899,0.8519,0.0881,-0.1782,0.1346,0.0658,-4.4012,-18.2962,-18.1125,5.904751948523227,6.008319836999537,17.613942228847826,24.42510644879186
0.0958,0.8672,0.0855,-0.1738,0.1373,0.068,-3.0013,-18.725,-18.6287,5.631549806031362,6.2666184267727125,19.03394002255061,24.437324303309424
0.1053,0.8751,0.0812,-0.1738,0.1373,0.068,-3.3688,-18.9787,-17.535,5.302196253614731,6.817181074841462,19.47970065144003,24.449342903667514
0.1124,0.8902,0.0867,-0.1736,0.1398,0.07,-3.5088,-19.425,-15.1812,5.561974130561337,7.153640427798647,20.015819652716566,24.461525720597535
0.1256,0.8961,0.0902,-0.177,0.138,0.0692,-3.3338,-19.1975,-11.6725,5.7474147645356,7.918301806264534,19.502847720550935,24.473712784507864
0.1407,0.9231,0.0949,-0.177,0.138,0.0692,-3.815,-18.2087,-12.1975,5.869368546435739,8.602453698559914,19.638134231445743,24.485697762938514
0.133,0.9334,0.0975,-0.1794,0.1372,0.0718,-3.9988,-16.5987,-13.7812,5.963042484373948,8.08146935465338,19.953907682108103,24.497872085907918
0.1145,0.9206,0.0978,-0.1794,0.1372,0.0718,-4.13,-15.435,-15.1812,6.0637895639114205,7.080924134934962,19.537006007525093,24.510068351608915
0.0861,0.9143,0.0963,-0.1769,0.1374,0.0752,-4.7425,-14.5338,-15.3475,6.012739734344363,5.40273567935565,20.369656541316626,24.52232195154408
0.0553,0.8919,0.0935,-0.1759,0.1387,0.0742,-5.3638,-13.9825,-13.79,5.98467375255438,3.5864196776755266,19.603847126014323,24.531647966386565
0.0193,0.8687,0.0913,-0.1759,0.1387,0.0742,-5.0662,-14.6912,-10.92,5.999693001085542,1.33577315737262,18.956462711819643,24.54378371261817
0.0191,0.8835,0.097,-0.1787,0.1353,0.0752,-4.1038,-16.3537,-6.9125,6.264690260596063,1.2340722180811683,18.86091337640079,24.55592087450987
0.0504,0.8995,0.0953,-0.1787,0.1353,0.0752,-3.57,-18.4363,-3.3863,6.048411924747067,3.1361902059615954,19.544407912675304,24.56805272767619
0.0842,0.9268,0.1031,-0.1788,0.137,0.0826,-3.6312,-20.1425,-1.4,6.346807543121605,5.107017620635072,22.081388258723287,24.58020263050882
0.0939,0.9268,0.1023,-0.183,0.1361,0.0778,-4.3575,-20.3525,-0.9975,6.29893476854085,5.733987264902089,20.41393460155398,24.592351825511397
0.0564,0.9025,0.0997,-0.183,0.1361,0.0778,-4.9175,-20.2737,-2.8612,6.303941664847371,3.610646496972235,19.753159829384234,24.604444394109862
0.0337,0.923,0.091,-0.1873,0.1349,0.0785,-7.42,-22.6187,-7.385,5.632611031403299,2.1181785547074674,19.619717185715125,24.61652846874771
0.0214,0.9623,0.0929,-0.1873,0.1349,0.0785,-7.77,-25.8475,-8.0937,5.514559400139722,1.287249721849002,19.49318139666889,24.62598790955489
0.0258,0.9854,0.0981,-0.1856,0.135,0.0758,-9.1962,-30.6075,-9.2137,5.684770251945049,1.4882349610723324,18.842557295520766,24.637947760018715
0.0483,1.0286,0.091,-0.1891,0.1334,0.0859,-12.3812,-34.5975,-9.9663,5.05760863614404,2.655595071789085,22.03655942413415,24.650037851211998
0.0698,1.0777,0.1077,-0.1891,0.1334,0.0859,-16.2838,-38.7187,-10.9375,5.705000326997017,3.6693696216674283,21.900441535707227,24.662301006852857
0.0467,1.0421,0.1065,-0.1885,0.1338,0.0918,-20.545,-42.8138,-12.8537,5.834838342077106,2.5708476890141863,23.127077003400387,24.674523462265757
-0.0003,1.008,0.1096,-0.1885,0.1338,0.0918,-23.5637,-48.23,-16.1963,6.204289109830195,0.02185194961616966,22.16327771648832,24.68686129397704
-0.0302,0.9819,0.1143,-0.1912,0.1358,0.1005,-25.8125,-56.0788,-19.0225,6.638428134692934,-1.7260954280676464,23.272515507799277,24.699143914944308
-0.0422,0.9664,0.1133,-0.1902,0.1344,0.1042,-28.0438,-65.1875,-21.7525,6.686641121903188,-2.4743182661962266,24.103897455914748,24.71138371219347
0.0128,0.9412,0.1146,-0.1902,0.1344,0.1042,-29.435,-74.2963,-22.2337,6.941349998950193,0.7384290657873863,24.856049707564708,24.723587410110007
0.0584,0.9343,0.1195,-0.1922,0.1358,0.1118,-30.8612,-81.6638,-20.2825,7.2876752749493185,3.5198279390019347,27.15244964704631,24.735823314293885
0.1049,0.9314,0.122,-0.1922,0.1374,0.1245,-32.3225,-89.5738,-19.6262,7.4618990982862,6.34554711360298,31.236446082311996,24.74808080729433
0.1439,0.9242,0.1232,-0.1953,0.1374,0.1245,-31.6837,-90.9038,-20.2562,7.592615453494024,8.751429867510645,31.80326106172792,24.760265747714506
0.2003,0.894,0.1341,-0.1973,0.1382,0.1338,-30.9137,-90.9125,-22.155,8.527884821252853,12.459002591548298,35.15422476141371,24.772500590153303
0.2165,0.8802,0.1304,-0.1973,0.1382,0.1338,-28.6562,-90.2038,-23.8612,8.427276771448035,13.663794647531123,35.91911886865128,24.784741803062566
0.2278,0.8741,0.136,-0.1998,0.1422,0.1413,-25.7425,-88.0513,-27.2475,8.842404813011074,14.433350788021817,37.57751445895956,24.79701168308891
0.2366,0.8738,0.1369,-0.2003,0.1406,0.1429,-23.3887,-85.1638,-29.9862,8.9040749721757,14.971177016034598,38.174928673612904,24.809177512097698
0.243,0.885,0.1363,-0.2003,0.1406,0.1429,-20.6063,-82.18,-32.2525,8.75584791570964,15.180962414103528,38.39523238464871,24.82138085609921
0.2502,0.8995,0.1383,-0.1996,0.1421,0.1532,-17.5788,-77.6388,-34.0638,8.740941134152868,15.370210185238276,41.053727104935064,24.8335852618458
0.2567,0.8947,0.1383,-0.1996,0.1421,0.1532,-14.735,-73.045,-34.3875,8.786926429198965,15.825353689147285,41.355816664165445,24.8429541004064
0.261,0.8925,0.1403,-0.2018,0.144,0.1726,-8.435,-62.44,-34.895,8.933300904593073,16.109879702492652,45.22879104976673,24.855171954923964
0.255,0.8989,0.1335,-0.2005,0.1449,0.1632,-4.4012,-56.7438,-34.6675,8.448906620923264,15.680037699378563,43.46938487058346,24.867303454175257
0.2394,0.9278,0.1135,-0.2005,0.1449,0.1632,-2.24,-51.7912,-34.2912,6.978637588570336,14.384519295589358,43.226089466303215,24.879492995490768
0.1945,0.9558,0.1044,-0.1994,0.1462,0.1654,0.4812,-47.0312,-33.6875,6.235670729950366,11.481129785797815,42.33339806043075,24.89171368132854
0.1833,0.9738,0.0971,-0.1994,0.1462,0.1654,1.47,-43.4612,-32.8825,5.695793425373983,10.622830948853915,42.08417800898997,24.90413397524081
0.1921,1.0122,0.0922,-0.1985,0.147,0.1698,1.3737,-39.6287,-32.4362,5.206008395720327,10.701400520082208,43.3502363386571,24.915866612258128
0.2016,1.048,0.0951,-0.1994,0.1466,0.1678,-0.7263,-35.665,-30.0825,5.185121766847909,10.84261504709587,42.91133691624637,24.928019346410963
0.2023,1.0775,0.1059,-0.1994,0.1466,0.1678,-4.6112,-30.345,-27.7287,5.611961194176324,10.588933249030594,42.568625747237,24.940209595556524
0.1577,1.1197,0.1066,-0.195,0.1491,0.1715,-9.38,-25.3487,-25.2437,5.4389000894384205,8.040786731452151,42.60884087134743,24.952327292121815
0.1344,1.1141,0.1091,-0.195,0.1491,0.1715,-14.1662,-21.9275,-24.7887,5.592497117682062,6.875808326162149,41.917855789179505,24.961727983034727
0.1266,1.1089,0.1121,-0.1968,0.1498,0.1708,-18.4275,-19.355,-26.4075,5.771954651097598,6.490811018548954,41.21986265502014,24.973245085801388
0.1201,1.0929,0.1298,-0.1947,0.1521,0.1794,-24.1063,-18.0338,-27.6675,6.770085689414886,6.234922888385873,42.493761177929144,24.985491253521012
0.1112,1.0113,0.1555,-0.1947,0.1521,0.1794,-31.8587,-15.7325,-30.1087,8.735407914617285,6.203520585417835,41.487649186663326,24.997784491939054
0.1002,0.9603,0.1682,-0.1928,0.1563,0.1846,-33.1975,-14.3587,-30.0737,9.931075335067616,5.878347321217159,41.86802809659328,25.010101796578844
0.0808,0.9171,0.1782,-0.1928,0.1563,0.1846,-32.1912,-13.755,-29.6012,10.992732791532573,4.97203383163093,40.730995115322955,25.02230655624046
0.07,0.88,0.1857,-0.1919,0.1558,0.1934,-29.2337,-13.7987,-26.495,11.913070293366182,4.46660806493243,41.68171863574868,25.03457006579634
0.0547,0.8424,0.182,-0.1918,0.1564,0.1925,-25.8213,-14.7525,-21.8312,12.190495151341578,3.656783449450842,40.88961265460663,25.046832159692123
0.0466,0.8005,0.1825,-0.1918,0.1564,0.1925,-21.42,-16.835,-16.8437,12.840983620312393,3.2600372053055513,40.28325793416078,25.059108056273903
0.0601,0.7983,0.1782,-0.1944,0.1582,0.1974,-15.785,-19.0137,-11.4625,12.584267385076453,4.177200250944684,41.40282575948475,25.071802988246127
0.0806,0.8119,0.1726,-0.1944,0.1599,0.201,-10.92,-21.0438,-5.81,12.003395484474174,5.511566042690636,43.13697369167138,25.083990406071482
0.0986,0.8277,0.172,-0.1967,0.1599,0.201,-7.0875,-22.61,-0.2713,11.74001642190945,6.624774210277957,43.59831425484472,25.0962227711051
0.1149,0.8549,0.1487,-0.2018,0.1567,0.1989,-2.94,-23.4762,3.5175,9.872517030904767,7.520964780815145,43.96690082656823,25.108169526712974
0.1473,0.8738,0.1427,-0.2018,0.1567,0.1989,2.0125,-24.6487,6.265,9.276744395600785,9.401136129849963,45.441438097140946,25.117415556759653
0.1697,0.891,0.1409,-0.2073,0.155,0.2031,2.94,-24.5788,6.5538,8.986973187643997,10.624991161112936,46.132214242691795,25.12937823854368
0.1903,0.8946,0.1252,-0.2073,0.155,0.2031,5.0138,-22.82,5.9325,7.969667776764837,11.865612510323686,47.36496960798944,25.141327471556732
0.2061,0.8871,0.1195,-0.2135,0.1529,0.2074,5.1188,-20.7812,6.3963,7.672872897713215,12.93833436190237,47.803702237097085,25.153428534115815
0.2118,0.88,0.1137,-0.2174,0.1509,0.199,5.5563,-18.3225,6.4837,7.362947045675941,13.4119229619325,46.188598149560484,25.16536927316825
0.2125,0.8784,0.1106,-0.2174,0.1509,0.199,6.8075,-15.855,5.25,7.176903122489357,13.494448279037165,46.302212495852906,25.174622735430468
0.1922,0.9082,0.0959,-0.2231,0.1506,0.1992,7.4725,-13.6237,4.8825,6.030880765301029,11.935044673699043,44.862772609734066,25.186617623481837
0.1917,0.932,0.0927,-0.2231,0.1506,0.1992,7.9363,-11.2525,4.9788,5.681119965447659,11.579727119279717,44.805496465602694,25.198597647102126
0.196,0.9529,0.0859,-0.227,0.1497,0.199,8.1637,-10.0712,5.1188,5.152508348498487,11.57736123069955,44.368797480569334,25.210668272968995
0.2023,0.9646,0.0885,-0.227,0.1497,0.199,7.5338,-8.925,5.0662,5.24184410986937,11.78849444180417,44.45819641961415,25.220280605067284
0.2095,0.9665,0.0857,-0.2335,0.1478,0.1998,6.1338,-7.4113,5.1363,5.067672231183008,12.168659026675979,43.87100167125551,25.23170958299254
0.2036,0.9589,0.0866,-0.2345,0.145,0.1955,5.4862,-6.7813,5.3113,5.160229881847303,11.949254324351726,42.84003223951293,25.243673326521648
0.1919,0.9504,0.0837,-0.2345,0.145,0.1955,5.5475,-6.4313,5.8713,5.033301555957901,11.39570115087652,42.58854806793336,25.255633530900496
0.1809,0.9401,0.0788,-0.2392,0.1436,0.1964,5.3463,-6.8513,6.5012,4.792050162008624,10.87629141979005,41.883262534912696,25.264807008366905
0.1947,0.9449,0.0717,-0.2392,0.1436,0.1964,5.7925,-7.8663,6.1775,4.340597154194524,11.582681975567036,42.409940021242086,25.276728282092925
0.2133,0.9645,0.0722,-0.246,0.1418,0.1984,6.0288,-8.7587,5.4513,4.281195068414416,12.405215127322814,42.19117869993537,25.288679284681105
0.2302,0.9711,0.0745,-0.246,0.1418,0.1984,5.2588,-8.3737,4.2263,4.38668205662405,13.264890087276704,42.59112874999607,25.30062073156359
0.2469,0.9765,0.0726,-0.2462,0.1418,0.196,3.71,-7.8925,2.2838,4.252329618765184,14.11824056917191,42.674872528168066,25.30988905825689
0.2575,0.9852,0.0803,-0.248,0.1414,0.1942,2.0563,-6.1075,0.21,4.658530512452217,14.581618835575767,42.244484505405914,25.32176326128449
0.2717,0.9916,0.0835,-0.248,0.1414,0.1942,0.98,-3.9725,-2.7825,4.812936656990967,15.240786121279735,42.557202990663725,25.333731959623957
0.2776,0.987,0.088,-0.2522,0.1394,0.194,-0.7437,-2.2838,-5.4775,5.094173654294931,15.63022655845307,42.01619182882507,25.34580470898098
0.2679,0.9703,0.0861,-0.2522,0.1394,0.194,-1.9512,0.6388,-6.7375,5.07095051425767,15.391486723452202,41.876682011232695,25.355056401668072
0.2488,0.9374,0.0831,-0.2548,0.1389,0.1938,-1.7237,2.94,-7.9363,5.066010579495725,14.846471303033578,41.18697570010146,25.367075709856213
0.2362,0.9034,0.079,-0.2548,0.1389,0.1938,-1.8025,5.5563,-8.435,4.997847587246647,14.618224151476515,41.10017410575895,25.37899486009208
0.2395,0.9106,0.0812,-0.2565,0.1382,0.199,-0.735,7.735,-8.33,5.09542492685182,14.674329879520144,41.69005365408585,25.39116033518584
0.2516,0.9467,0.0736,-0.2565,0.1388,0.1925,-1.1025,9.8087,-7.0,4.447274943109328,14.821195037220479,40.96305037054222,25.403017904207235
0.271,0.9683,0.0755,-0.2565,0.1388,0.1925,-1.1462,12.74,-5.7663,4.458397586933154,15.455913844722533,41.34433623703086,25.412325161553362
0.2768,0.9719,0.0816,-0.2552,0.1398,0.1918,-2.2662,16.6688,-4.4625,4.798293140264107,15.627221653638312,41.46090754236646,25.424414544916594
0.2341,0.9537,0.0887,-0.2552,0.1398,0.1918,-4.1388,25.13,-3.9638,5.312113978935653,13.952693855288281,40.205175105315035,25.436398461602167
0.1867,0.9243,0.0889,-0.2574,0.1371,0.189,-4.025,27.2912,-2.45,5.493344539533931,11.607029837082054,38.26532467717643,25.448442897757133
0.1255,0.8973,0.0818,-0.2576,0.1359,0.1916,-1.7675,27.2825,-1.0237,5.209623710411744,8.269262452234548,37.32539002159261,25.460372311528747
0.0718,0.8619,0.0647,-0.2576,0.1359,0.1916,2.1088,24.675,0.735,4.295509982390942,5.177162407643175,36.517205608401696,25.46918054868862
0.0365,0.8355,0.0542,-0.262,0.1354,0.1888,5.1625,19.495,4.6725,3.7132669918441445,3.3790939990996574,35.12897800028256,25.481297183508833
0.0891,0.8971,0.0625,-0.262,0.1354,0.1888,9.6425,13.615,6.9475,3.9845534550343937,5.187792179226748,36.01805326232548,25.493333479618208
0.142,0.9526,0.0869,-0.265,0.1352,0.1845,12.6612,9.695,8.68,5.208999318111479,8.07230078662817,35.553894533005966,25.50540516723016
0.1713,0.9839,0.1106,-0.265,0.1352,0.1845,13.1337,7.5075,8.68,6.410424561388455,9.656559054535705,35.634178183263764,25.514262598578604
0.171,0.9809,0.1261,-0.2697,0.1334,0.1836,12.5037,6.055,7.4988,7.3230243042755205,9.7974778452782,34.61070372966306,25.52632402265481
0.1578,0.9684,0.1414,-0.2715,0.131,0.181,11.7775,3.8937,6.2038,8.304610953788112,9.20330816743341,33.3656432640486,25.538354656123772
0.164,0.9523,0.149,-0.2715,0.131,0.181,11.2962,-0.4288,4.865,8.89099031739454,9.63212382665394,33.31687516838795,25.55046031957819
0.195,0.9444,0.1562,-0.2733,0.1296,0.1787,11.1475,-3.0975,4.6287,9.390111471762056,11.427010808147102,33.27196233350733,25.559326952717306
0.2708,0.9186,0.1677,-0.2733,0.1296,0.1787,10.85,-4.235,4.6025,10.343405587400818,15.963231488977334,34.972233303428,25.571443941452543
0.3014,0.9171,0.1867,-0.2808,0.1265,0.1771,10.605,-3.64,5.3638,11.50366408302403,17.765185680918062,34.172478786008995,25.58350253420854
0.3193,0.9132,0.1968,-0.2808,0.1265,0.1771,10.1587,-1.855,8.0587,12.159789258214937,18.81614185984968,34.43454714532953,25.59562518558419
0.3346,0.897,0.1979,-0.2831,0.1266,0.1702,9.4762,0.0263,11.7862,12.440762963124607,19.94969714633117,33.3453365001509,25.607707136731882
0.3444,0.8762,0.1983,-0.289,0.1249,0.1757,8.75,2.1875,15.3912,12.751398067330275,20.912082722845945,34.10276255154963,25.61654191751869
0.3446,0.8247,0.1868,-0.289,0.1249,0.1757,9.1525,5.3288,17.2375,12.762489337882174,22.07618038246677,34.77934155336917,25.62859590937935
0.3318,0.7886,0.1648,-0.2939,0.1233,0.1725,11.3575,8.1375,16.0912,11.806287009595698,22.354398154047473,34.07358716314256,25.640681399677298
0.3126,0.7991,0.1346,-0.2939,0.1233,0.1725,14.0,9.9663,12.2062,9.567182626193526,21.24279298255637,34.20370440360562,25.652792017942076
0.3131,0.8524,0.1216,-0.2984,0.1216,0.1689,17.115,10.9637,7.9538,8.122685486903725,20.151094557132666,32.98817739637588,25.661662544146473
0.3224,0.9003,0.1258,-0.2984,0.1216,0.1689,18.375,11.8912,4.6725,7.954953376696982,19.6223897621804,32.83132103543753,25.673769623260995
0.3251,0.917,0.1152,-0.302,0.1198,0.1702,18.1037,12.2762,3.2987,7.162508587115889,19.419098214832175,32.85055963930044,25.685877056290536
0.3009,0.8892,0.0991,-0.3056,0.1186,0.1601,17.5,12.8013,4.2088,6.361433105653235,18.735244813308928,30.642624035891625,25.69794838998746
0.274,0.8459,0.076,-0.3056,0.1186,0.1601,18.3487,12.3375,3.22,5.137236595232037,18.02016430895706,30.751261762868044,25.706824578832272
0.2712,0.8536,0.0583,-0.3062,0.1172,0.1591,20.3175,10.675,-0.6825,3.9104386091212375,17.64291513285167,30.759645783194586,25.71895643199859
0.2847,0.8675,0.0567,-0.3062,0.1172,0.1591,21.21,8.3125,-5.495,3.739998705176378,18.08458851099102,31.01343386348233,25.73106669634834
0.315,0.9123,0.0634,-0.3089,0.1156,0.1534,21.7262,7.4812,-3.7013,3.974738455647746,18.922324028794208,30.01421587151602,25.743128828254594
0.3454,0.9553,0.0725,-0.3089,0.1156,0.1534,21.2537,8.2075,0.9013,4.339027371111698,19.73739641234449,30.222091581955073,25.75521042548726
0.3794,0.9715,0.0772,-0.3106,0.1148,0.1588,19.1975,10.255,3.395,4.542903148982225,21.08414657028899,31.51211480625215,25.76408272126679
0.4072,0.9751,0.0676,-0.3137,0.1123,0.1486,16.4237,12.4775,3.92,3.9673021383672857,22.36031414074921,30.079954339652524,25.776274032157428
0.4112,0.9748,0.0711,-0.3137,0.1123,0.1486,14.5775,14.56,2.1263,4.171103972149633,22.699927030899,30.10511985889073,25.78831315958701
0.34,0.9078,0.0597,-0.3151,0.1122,0.1466,11.5675,15.8375,-0.2013,3.7636562685924853,21.334400315904116,28.81020116202504,25.80040855950568
0.3089,0.8697,0.0513,-0.3151,0.1122,0.1466,9.9663,15.2775,-4.0075,3.3767875565282965,20.092226343672472,28.56536266344827,25.8125046672544
0.2907,0.8718,0.045,-0.3196,0.1122,0.1458,9.6512,12.5738,-7.1575,2.9559857328900025,18.702511002121987,27.777763349867943,25.821384041334444
0.2934,0.9008,0.0417,-0.3196,0.1122,0.1458,9.3275,9.555,-9.6512,2.6512896273425697,18.099250793641993,27.733000342607376,25.83346316116193
0.3137,0.9263,0.0348,-0.3186,0.1115,0.1414,9.2137,6.7375,-12.11,2.152889387789449,18.645882541057112,27.413733054657882,25.84555219061014
0.3449,0.9312,0.0339,-0.3194,0.1105,0.141,7.5775,5.2238,-13.3962,2.0850981382304106,20.185538957769833,27.81804527960818,25.857638034823115
0.3509,0.9378,0.0315,-0.3194,0.1105,0.141,6.3438,4.1213,-14.0525,1.9242435153582995,20.481714862749495,27.929414943302152,25.866543952530083
0.3344,0.9414,0.0286,-0.3166,0.1106,0.1393,5.0313,3.8937,-13.615,1.7406360363569409,19.61164173184341,27.59663333225155,25.87863227414824
0.3325,0.9482,0.0214,-0.3166,0.1106,0.1393,3.675,3.2462,-13.1775,1.294136323527138,19.33860913100704,27.641736116724175,25.890740415007837
0.335,0.9629,0.0149,-0.3185,0.1093,0.1402,1.995,2.7213,-12.1712,0.8876659890179472,19.191046616137264,27.663325977648032,25.90280573214932
0.3475,0.9843,0.0154,-0.3185,0.1089,0.1419,-0.5513,2.1963,-10.4825,0.8963313969432766,19.427515956795645,28.025492560336843,25.914962713282467
0.3594,0.9926,0.0102,-0.3204,0.1089,0.1419,-3.3688,2.03,-9.1437,0.5896239821837602,19.874347523238484,28.095530001834888,25.923825807271324
0.3654,0.9789,0.0062,-0.3198,0.1088,0.1411,-6.4138,3.605,-9.8875,0.3635335089978434,20.42898966309303,28.25566262202758,25.9359473969019
0.3532,0.9421,0.0052,-0.3198,0.1088,0.1411,-9.3537,5.0662,-12.2587,0.3163818420020486,20.5419752947736,28.295420096229552,25.948003512252715
0.3371,0.934,0.0173,-0.3174,0.1105,0.1422,-12.4862,6.475,-16.6775,1.05897435727054,19.900804720681624,28.308019510163913,25.96009608085118
0.3236,0.9311,0.0267,-0.3174,0.1105,0.1422,-16.0212,7.14,-20.5975,1.6408362630684648,19.22306818704032,27.921834204791473,25.97245302397385
0.3161,0.9202,0.0348,-0.3176,0.111,0.1426,-17.85,7.665,-23.52,2.1642222400332884,18.97135219940386,27.771598139885878,25.98448224178271
0.3087,0.9049,0.0453,-0.3162,0.111,0.1443,-19.4075,6.6413,-23.275,2.8637979227079886,18.82804631378137,27.944237076789797,25.993206247166466
0.2968,0.8545,0.0518,-0.3162,0.111,0.1443,-18.5412,5.7488,-22.2862,3.467248537384301,19.098403023209425,27.8772839694197,26.005359335234328
0.2694,0.8428,0.0533,-0.3156,0.1122,0.1488,-16.59,5.1538,-20.1425,3.618210902178876,17.798891878602788,28.19666936966561,26.017578605411998
0.268,0.8428,0.0522,-0.3156,0.1122,0.1488,-14.525,4.48,-17.1588,3.544383611694538,17.622000367256955,28.19013477224335,26.029876444725375
0.275,0.8444,0.0592,-0.3145,0.1127,0.1452,-12.3725,3.01,-13.6412,4.009031133543312,17.973490295847128,27.66772993582819,26.042031302368365
0.2991,0.8445,0.0714,-0.3153,0.1132,0.1503,-11.0075,2.5375,-10.9812,4.830313524276447,19.34666853543817,28.75203089567903,26.05453016541634
0.3156,0.8527,0.0775,-0.3153,0.1132,0.1503,-9.0562,2.6513,-7.9012,5.192172939423229,20.17771878369221,28.94231970685738,26.066510542951658
0.327,0.851,0.0889,-0.3173,0.1128,0.1516,-8.26,2.9225,-4.9088,5.961575959486475,20.86807059503531,29.01464028800497,26.075808598507116
0.3406,0.8508,0.0878,-0.3173,0.1128,0.1516,-6.65,2.87,-3.5263,5.8920947657414695,21.658942048609145,29.355924751650534,26.087884179184346
0.3445,0.8497,0.0889,-0.3182,0.1126,0.1554,-5.425,2.3363,-2.065,5.972619700238072,21.942336909760225,30.021943651166627,26.099794835459594
0.3476,0.8467,0.0892,-0.3182,0.1126,0.1554,-3.885,2.0825,-0.6038,6.013820293070452,22.192712512640007,30.1141296694522,26.11176848860942
0.3479,0.8311,0.0864,-0.3225,0.1126,0.1499,-1.8288,1.8812,-0.42,5.935291933106866,22.579937061571144,28.927851852356728,26.12103681530272
0.3531,0.8281,0.0876,-0.3258,0.1125,0.1518,0.8312,1.4437,-0.49,6.038248941157567,22.955067246400667,29.091634217272823,26.132984986570694
0.3682,0.8499,0.0828,-0.3258,0.1125,0.1518,2.2925,0.4288,-1.3737,5.5657001287886825,23.304510141335868,29.37631927052062,26.144911922937126
0.4097,0.884,0.0855,-0.3252,0.1117,0.151,3.78,0.49,-1.5925,5.52454758048534,24.68305323640023,29.904138707018934,26.156827887937762
0.4281,0.8993,0.0798,-0.3252,0.1117,0.151,5.3025,1.68,-1.3475,5.072152134797513,25.328192572761026,30.30464540655371,26.16605657614818
0.435,0.9076,0.0827,-0.3302,0.1114,0.1505,5.3113,3.5263,-0.8925,5.206010853150696,25.502999148075634,29.77289581670637,26.17791945389496
0.4252,0.8857,0.0723,-0.3302,0.1114,0.1505,4.4363,5.6175,-0.9363,4.668221055146764,25.564981526325766,29.945049177137612,26.189906201900737
0.4039,0.8441,0.0713,-0.3326,0.1115,0.1438,4.1563,7.8925,-2.5638,4.827793088176296,25.498725819472085,28.445391611782096,26.20184057048271
0.3809,0.8137,0.0698,-0.3326,0.1097,0.1451,3.955,10.0187,-3.2987,4.9026787318861835,25.06275044407081,28.404594503732724,26.21105474817707
0.3613,0.7962,0.0671,-0.3326,0.1097,0.1451,5.32,10.5875,-4.1563,4.8174725379098495,24.42433096072143,28.15059414538975,26.223071225045008
0.3472,0.7909,0.0581,-0.3367,0.1078,0.1457,7.8488,8.8812,-5.4163,4.2031268424415,23.72589693244733,27.762856985950165,26.23500559362698
0.3581,0.8151,0.0523,-0.3367,0.1078,0.1457,13.79,7.5775,-5.845,3.6727243059927956,23.678892711904822,27.914023005621107,26.24719584277254
0.3771,0.8431,0.0429,-0.3361,0.1086,0.1389,14.0787,7.0262,-4.9088,2.914955748138943,24.03607647699708,27.148731618302623,26.258875392536
0.3933,0.8762,0.0346,-0.3361,0.1086,0.1389,13.9125,7.105,-4.935,2.2631251492540976,24.146545088014584,27.352607801855406,26.268222642280033
0.3995,0.8898,0.031,-0.3374,0.1083,0.1356,12.0487,7.7,-4.5325,1.9960636872724054,24.164205693445325,26.732091494602457,26.280274156735516
0.3986,0.9007,0.0283,-0.3398,0.1072,0.1368,10.7537,8.3387,-5.4775,1.800176454087142,23.891026743018394,26.65612693408472,26.29230832935474
0.3935,0.9192,0.0183,-0.3398,0.1072,0.1368,10.36,8.4962,-8.6275,1.1423267573793239,23.24341865139424,26.576406591028743,26.30436161338535
0.3834,0.928,0.0176,-0.3402,0.1042,0.135,7.665,7.3587,-11.9612,1.0866670698212926,22.516169539952898,25.918850307318273,26.313460060866305
0.3863,0.9282,0.0225,-0.3402,0.1042,0.135,5.6175,6.7463,-14.595,1.3877707762715745,22.583900483385726,25.892862814620663,26.325468043773625
0.3809,0.9148,0.0228,-0.3412,0.107,0.1321,2.87,6.5275,-16.1437,1.427603544460995,22.598027717822468,25.38980287567661,26.33748947545192
0.3608,0.8802,0.0231,-0.3412,0.1056,0.1359,2.3275,5.9763,-17.9463,1.503116403696377,22.307445593448428,25.877471195128905,26.349454280726107
0.347,0.8553,0.0192,-0.3403,0.1056,0.1359,3.1412,4.9263,-17.9375,1.286578442422712,22.09462472539037,25.933056604997557,26.361488099430304
0.3384,0.846,0.0219,-0.3399,0.1066,0.1342,4.0075,3.4563,-16.8,1.4823131062442336,21.814778747917327,25.55934327298907,26.370699799719485
0.3548,0.8766,0.0349,-0.3399,0.1066,0.1342,4.2788,2.4413,-15.3737,2.277697498395992,22.006858870074158,25.424526897143444,26.38269079470557
0.3685,0.8873,0.0387,-0.3395,0.1054,0.1316,4.9437,2.5288,-12.9325,2.496791400234956,22.500974155015967,25.08697779783054,26.3946906375673
0.3897,0.8947,0.0405,-0.3395,0.1054,0.1316,4.7163,2.065,-8.9687,2.591551094538932,23.45295076535387,25.39192224682338,26.406654381096406
0.4045,0.883,0.0432,-0.3402,0.102,0.125,3.2462,3.4913,-5.915,2.8003305684226554,24.510735871387407,24.385820793608577,26.41578609658978
0.4146,0.8671,0.0451,-0.3433,0.104,0.1314,2.7913,4.5062,-4.2788,2.976918416597619,25.451821191328012,25.642358567560976,26.42774700879868
0.4236,0.8575,0.0436,-0.3433,0.104,0.1314,2.45,6.195,-3.745,2.910909240957691,26.193862548674275,25.936184317733684,26.439684208700857
0.4275,0.8553,0.0422,-0.3439,0.1037,0.1291,2.3538,8.1725,-3.4388,2.8248898587933335,26.496567585413228,25.58923256971474,26.451615745962624
0.4218,0.8374,0.0456,-0.3439,0.1037,0.1291,2.9575,10.2025,-3.4475,3.116108794423157,26.675728195727842,25.577139856424445,26.460877348270433
0.4265,0.8372,0.0387,-0.3443,0.106,0.1284,4.1213,10.71,-3.29,2.6479443641252067,26.93308045112913,25.717543659641706,26.47294337324197
0.4236,0.8363,0.0312,-0.3443,0.106,0.1284,4.8475,11.83,-3.465,2.1379684123894585,26.859920189086257,25.804982404017817,26.484857214752452
0.4204,0.8409,0.0285,-0.3484,0.1056,0.1255,5.3463,12.005,-4.2875,1.9416841810167043,26.597325863279465,24.893648732841378,26.496883247326082
0.4185,0.8416,0.0258,-0.3486,0.1027,0.1244,6.2825,12.0487,-5.9588,1.7564153973586045,26.455194223327766,24.59454239499324,26.50872418234127
0.4107,0.8395,0.0167,-0.3486,0.1027,0.1244,6.86,11.6025,-7.6825,1.141319928947597,26.121333291823195,24.62050503447839,26.517535250821346
0.4033,0.8511,0.0109,-0.3494,0.1026,0.1222,7.0262,11.2175,-9.7562,0.734865349369126,25.45864481548447,24.027152531364873,26.52964940823638
0.4024,0.8887,0.0023,-0.3494,0.1026,0.1222,5.635,9.5375,-10.9287,0.14990347726415174,24.483833966860885,23.847707321061087,26.541772767442083
0.4069,0.8984,-0.0041,-0.3514,0.1043,0.1238,3.9813,9.7388,-11.6112,-0.2603361697092335,24.379799388254256,24.139644982647514,26.55389400315763
0.4124,0.9051,-0.0048,-0.3514,0.1043,0.1238,1.3912,10.0275,-12.705,-0.3037312259031402,24.48187888894622,24.19185791465594,26.56615361964823
0.4165,0.9065,-0.001,-0.3516,0.1017,0.1267,-0.2013,9.0738,-13.4925,-0.06388040053766464,24.65607430617157,24.59129726853454,26.574950885442306
0.4166,0.9026,0.0045,-0.3522,0.1026,0.1206,-2.38,8.9075,-14.945,0.2846644641356815,24.763152295959458,23.473991945330585,26.587119899686325
0.4205,0.9006,0.0149,-0.3522,0.1026,0.1206,-3.8937,9.2137,-17.15,0.9459646140317335,24.997015057744843,23.38745442769902,26.599279004309622
0.4201,0.8868,0.019,-0.3489,0.1022,0.1212,-5.7838,9.66,-18.34,1.2265920378382966,25.30370615197138,23.74458533550567,26.611432092377484
0.4128,0.8757,0.0246,-0.3489,0.1022,0.1212,-7.07,10.1412,-19.67,1.6080245973698408,25.239045211591804,23.60931403867021,26.62361455539248
0.4039,0.8669,0.0275,-0.3483,0.1028,0.1238,-7.9275,10.85,-21.4112,1.8163412935803043,25.00570570549026,23.990936271616913,26.63580728194322
0.396,0.8571,0.0314,-0.3479,0.1008,0.1234,-8.26,11.13,-22.2775,2.0972930974721513,24.813736015562075,23.760612116781996,26.647958600435953
0.3892,0.8476,0.0354,-0.3479,0.1008,0.1234,-7.3063,10.15,-23.0475,2.390724829670042,24.665008844843342,23.639516180356196,26.65683514319579
0.3919,0.8401,0.0452,-0.3483,0.1036,0.1234,-5.7925,10.0537,-23.9575,3.077758019284708,24.939850552693684,23.604640863245415,26.669030701066735
0.3932,0.8388,0.0412,-0.3483,0.1036,0.1234,-3.7013,9.4237,-25.2437,2.812735193877905,25.072505092318767,23.715726009715215,26.68114485848177
0.3872,0.8417,0.0404,-0.3422,0.105,0.121,-2.45,9.7737,-25.4888,2.748162379097655,24.723798141405975,23.630513400486365,26.693332630222148
0.385,0.8538,0.0356,-0.3422,0.1037,0.1226,-2.3187,9.9488,-25.4188,2.388636549646857,24.30847966509071,23.846975459385234,26.705493504420573
0.386,0.8652,0.0411,-0.3395,0.1037,0.1226,-1.7325,10.43,-24.0713,2.71877067409563,24.055517492542545,23.874147682234454,26.71778001845313
0.3914,0.8707,0.0451,-0.3392,0.1026,0.1207,-3.0188,11.41,-21.805,2.9644259850106836,24.159197835648396,23.506977507185947,26.72647040190944
0.3908,0.8842,0.0461,-0.3392,0.1026,0.1207,-4.4275,12.3812,-20.2475,2.984500621327064,23.87230404846223,23.38382883769461,26.738683301616646
0.3853,0.88,0.0531,-0.337,0.1025,0.1214,-4.445,13.8687,-19.67,3.4517618014848845,23.665226626995974,23.468361563364812,26.750886999533186
0.3744,0.8672,0.0583,-0.337,0.1025,0.1214,-5.1887,14.2625,-18.1475,3.844963154788938,23.390501851682988,23.25813186637894,26.763154756069376
0.3743,0.8559,0.0605,-0.3362,0.1033,0.121,-4.5588,14.0787,-17.3512,4.042711132460738,23.527646529845526,23.28445299870941,26.775278469190102
0.3736,0.8533,0.0653,-0.3338,0.1047,0.1238,-4.5675,14.105,-16.52,4.375164826408323,23.570923070947106,23.91222365628075,26.7874113841015
0.3764,0.8433,0.0777,-0.3338,0.1047,0.1238,-4.69,13.965,-15.9425,5.2617302725693165,23.875893164498304,23.771997701575962,26.799792393445916
0.3806,0.8384,0.0834,-0.3344,0.1052,0.123,-3.5263,13.5887,-15.085,5.679632887271617,24.220967993430072,23.573661060707895,26.81184815488171
0.3878,0.838,0.0833,-0.3344,0.1052,0.123,-2.1438,13.4925,-15.0675,5.6767517433266805,24.6243180374323,23.721152749022917,26.82138156392926
0.4011,0.8398,0.087,-0.3351,0.1048,0.1263,-0.9538,13.72,-14.8137,5.913852075272941,25.245015922897885,24.465594659723983,26.83299953247825
0.4099,0.8369,0.0958,-0.3345,0.1028,0.1213,0.56,14.6825,-15.2075,6.528502138118857,25.761700406420076,23.518877787313077,26.84515615969637
0.3996,0.8181,0.0885,-0.3345,0.1028,0.1213,1.4612,14.7525,-15.295,6.175093964562383,25.86409533945739,23.614646074146684,26.85720944372698
0.3878,0.8265,0.0882,-0.3354,0.1042,0.1219,4.1038,14.91,-14.9187,6.091502289746202,25.25199148113864,23.390551139393505,26.869394384147153
0.3861,0.8308,0.0877,-0.3354,0.1042,0.1219,5.11,14.9713,-14.5513,6.0260595820104355,24.93298808625153,23.33830907965067,26.881435988981917
0.3875,0.8309,0.087,-0.335,0.1042,0.123,6.3175,15.2425,-13.5187,5.977550524210456,24.898616090479255,23.621416211828386,26.89054788523385
0.3935,0.8307,0.0783,-0.3352,0.1058,0.113,9.7475,15.75,-12.9587,5.38628659000437,25.11954868702727,22.01313306219623,26.902591613558766
0.3941,0.8274,0.0784,-0.3352,0.1058,0.113,10.4212,15.6625,-12.4425,5.412808104952426,25.28023998213438,22.0437733536921,26.914768060018325
0.4182,0.8418,0.0717,-0.3364,0.1038,0.1142,11.5937,16.0912,-13.685,4.869875041710414,25.889671636876923,22.671629023290762,26.926932119451983
0.419,0.8462,0.0617,-0.3364,0.1038,0.1142,12.9937,17.0975,-15.3125,4.1721891895467325,25.99376103555383,22.87190190086473,26.939072466578917
0.4162,0.8563,0.0583,-0.3368,0.1026,0.1155,13.9125,17.675,-18.0687,3.89564161519846,25.971685601071368,23.007368220656197,26.95123298686232
0.4141,0.8664,0.0564,-0.3368,0.0821,0.1151,14.1487,18.6637,-19.1887,3.7249871376703787,25.713115202993876,22.416920792422815,26.96335563823797
0.4003,0.8696,0.0501,-0.3344,0.1022,0.1151,15.4175,19.5212,-19.7225,3.2984690223628212,25.018545406750185,22.870601759353974,26.972594589984134
0.3888,0.8696,0.0423,-0.3322,0.1007,0.1061,16.485,20.0025,-21.7875,2.78622344162342,24.33355010347121,21.23023021590427,26.98458381539509
0.3792,0.8745,0.0352,-0.3322,0.1007,0.1061,17.2812,20.2737,-23.5812,2.3062881043400174,23.66354566266381,21.18226593015825,26.996709652005972
0.3838,0.8888,0.0296,-0.3278,0.1031,0.1091,17.1413,20.5275,-25.7687,1.908502566001825,23.422536847353506,22.206042822474984,27.008883267145325
0.3846,0.9079,0.0244,-0.3278,0.1031,0.1091,16.03,21.4025,-27.16,1.5404557736887845,23.04622462221534,22.195206047077527,27.021064668415242
0.3836,0.9237,0.028,-0.3263,0.1019,0.1019,15.015,22.785,-28.14,1.7357410042291481,22.62264770645674,20.718422912680854,27.03323049742403
0.3884,0.9293,0.0307,-0.3228,0.1014,0.0951,13.7462,23.6338,-28.6212,1.8916911105582845,22.66454017789755,19.596499545064756,27.045347840074292
0.389,0.9282,0.0293,-0.3228,0.1014,0.0951,12.2325,24.815,-29.75,1.8082521482570317,22.72034962490232,19.637667335609805,27.054403817752164
0.3832,0.9228,0.0346,-0.3209,0.101,0.0946,8.4787,28.0613,-31.0625,2.1463467147459623,22.552622967097893,19.494214983841765,27.06650275682109
0.37,0.9168,0.0326,-0.3209,0.101,0.0946,7.4988,29.2687,-31.92,2.03679363975451,22.01118645994804,19.377578598764902,27.078632840412283
0.3715,0.9167,0.0315,-0.3138,0.1023,0.0884,6.7987,30.8525,-32.4362,1.9682345737171534,22.046261215689274,18.652255165882313,27.090962532077974
0.3756,0.9107,0.0336,-0.3131,0.1029,0.0904,5.635,32.4625,-32.1912,2.112552462863809,22.37694765356216,19.163828894683864,27.102848414301423
0.3914,0.9153,0.0324,-0.3131,0.1029,0.0904,3.8588,34.895,-31.92,2.0275591674591342,23.098161375245873,19.397217878809574,27.11499513189882
0.4062,0.9179,0.0292,-0.3097,0.1033,0.0895,3.36,37.4238,-32.3225,1.8226351407647765,23.823848349978224,19.726113852966296,27.124366093949575
0.4117,0.9129,0.0257,-0.3097,0.1033,0.0895,2.1875,40.6525,-31.6312,1.6131528692702815,24.24766428690606,19.918839890114867,27.136496885370814
0.3811,0.9007,0.0255,-0.3058,0.1042,0.0845,1.2687,43.4962,-29.75,1.6216617422933204,22.974624140264744,18.750956428184768,27.148455320174534
0.3431,0.8767,0.0245,-0.3043,0.1026,0.0875,1.9862,44.59,-27.2562,1.6008126667006415,21.422697577003344,19.040312154861798,27.16044312992539
0.3356,0.8701,0.0202,-0.3043,0.1026,0.0875,2.45,45.08,-23.1175,1.330678532770556,21.098327398428278,19.06046155912874,27.17253286720365
0.3458,0.8718,0.0242,-0.3013,0.1046,0.0829,3.5875,45.7713,-18.6987,1.5893256138372052,21.610143713956216,18.37802165681108,27.18451182907886
0.4158,0.884,0.0279,-0.3013,0.1046,0.0829,4.0513,46.7687,-16.5112,1.8071113632471727,25.061765154517268,19.30788025441824,27.193720344132814
0.4327,0.8779,0.0379,-0.301,0.1047,0.082,4.235,49.6738,-15.0762,2.4701500541911012,26.181883269534552,19.201779774128315,27.205815744051485
0.4204,0.8764,0.0477,-0.301,0.1047,0.082,4.6988,52.6837,-13.5187,3.1135891643015015,25.60976392749236,18.755379855302973,27.217905481329744
0.3938,0.8571,0.0597,-0.3002,0.1071,0.0718,4.5588,56.8138,-12.2062,3.9820039013696746,24.64857803586608,15.836388935943997,27.23000689780385
0.3591,0.8391,0.0673,-0.2998,0.1038,0.075,6.1163,60.5675,-12.1625,4.58392675131626,23.137594804103504,15.93288032531132,27.242103713382622
0.3256,0.8237,0.0715,-0.2998,0.1038,0.075,7.665,61.4425,-11.3662,4.960000602866237,21.531467338359626,15.400139392858545,27.25122835057548
0.2774,0.8173,0.0734,-0.2987,0.1036,0.0693,8.9775,61.075,-12.3812,5.131376415413092,18.74176982450469,13.551586945637684,27.263312071298305
0.2772,0.8258,0.0734,-0.2987,0.1036,0.0693,14.6562,57.295,-12.5212,5.079442188722436,18.493907264256524,13.53664794208209,27.275511168319508
0.2929,0.8479,0.0678,-0.2998,0.1046,0.0671,16.8175,55.3175,-14.3413,4.573132272532024,18.98772294998366,13.295168355415674,27.287843337390377
0.2994,0.8773,0.0589,-0.299,0.1045,0.069,17.7712,53.48,-15.4875,3.8429049444174246,18.809069297270543,14.005115016217477,27.29974656145009
0.2997,0.8983,0.0581,-0.299,0.1045,0.069,17.4913,52.22,-16.345,3.7009866702370418,18.425419220057822,13.987775994534397,27.31183594481332
0.2896,0.9112,0.0449,-0.2988,0.1046,0.0598,18.1562,51.17,-16.9137,2.823355096056105,17.634841458094236,12.207987583643954,27.323951517888457
0.2891,0.909,0.0459,-0.2988,0.1046,0.0598,17.0713,49.6388,-17.7362,2.8905178050668194,17.62217333219272,12.181031270294575,27.333198609680213
0.2916,0.9031,0.0456,-0.2969,0.1022,0.0558,16.3187,48.3263,-19.1712,2.8905663316038717,17.865437517140574,11.420220091834187,27.34539239797603
0.2962,0.9033,0.0443,-0.2977,0.1052,0.0525,16.0562,47.1975,-21.2625,2.8078954757108368,18.125655490425515,10.735427498164906,27.357388347772474
0.2927,0.9062,0.0429,-0.2977,0.1052,0.0525,15.7325,45.9463,-23.4325,2.710651640765007,17.889836667097804,10.738361573936725,27.36953294187972
0.317,0.9276,0.0456,-0.2964,0.1031,0.0462,15.3475,44.6338,-26.6788,2.814065705964027,18.812362771231996,9.462432255981694,27.3816711655165
0.312,0.9354,0.0458,-0.2964,0.1031,0.0462,13.965,44.0037,-30.7562,2.8031647252037772,18.4394420901101,9.412606573832347,27.393816467453796
0.3034,0.9374,0.0441,-0.2904,0.1062,0.047,13.755,43.5838,-34.23,2.6937911898611677,17.93549709588365,9.795902412891214,27.405925316143442
0.2931,0.9382,0.0487,-0.2904,0.1062,0.0414,12.635,43.5925,-36.5838,2.9706852244367377,17.349644798563514,8.323479145488434,27.41799877333052
0.2773,0.9424,0.0464,-0.2871,0.1082,0.0414,11.6988,43.4875,-37.8525,2.8191509654432845,16.4136381761373,8.385846648589572,27.427286919265256
0.2689,0.9382,0.0447,-0.2838,0.1073,0.0361,8.26,43.085,-38.15,2.7280122450164175,15.992221634115765,7.26376508307271,27.439384088759056
0.2694,0.9224,0.0591,-0.2838,0.1073,0.0361,7.2975,42.7962,-38.7187,3.6634652938496286,16.23986239093232,6.8764055932723585,27.451462146841468
0.2761,0.9243,0.073,-0.2754,0.1076,0.0312,6.5012,42.7788,-39.9875,4.51342425285949,16.569727322981315,5.55741475056214,27.463509060401616
0.2827,0.9271,0.0744,-0.2754,0.1076,0.0312,6.51,42.6825,-41.7025,4.58796178896364,16.893911464333137,5.54760101174284,27.475564821837406
0.2798,0.9193,0.0781,-0.275,0.1085,0.0316,6.0025,43.1637,-43.3213,4.8552176890642675,16.871812907921882,5.514270713268798,27.48754201413749
0.2748,0.9049,0.0811,-0.2683,0.1092,0.0272,6.51,44.31,-45.99,5.120613166951754,16.830409111019986,4.416022299920589,27.496154182373118
0.2597,0.8921,0.0772,-0.2683,0.1092,0.0272,6.8688,44.9663,-47.3375,4.9463859571097055,16.196622070806885,4.459901147083872,27.50834301585858
0.2222,0.8881,0.0789,-0.2642,0.1119,0.025,7.5163,44.7212,-48.3,5.076546752246014,14.071866206681547,3.7501402806961703,27.520540697219676
0.2084,0.8943,0.079,-0.2642,0.1119,0.025,8.4,43.82,-46.7075,5.048324899266003,13.10515323372496,3.7187214515711413,27.532782971874017
0.2004,0.9238,0.0772,-0.2574,0.1146,0.0261,10.2112,42.9362,-45.0013,4.777726600982361,12.23254667678261,4.148481628198843,27.54523794945881
0.1956,0.9462,0.0698,-0.2545,0.1141,0.019,9.6512,41.755,-41.1512,4.220522276406772,11.672042488523733,2.674806466943363,27.55462483768572
0.1984,0.952,0.0683,-0.2545,0.1141,0.019,7.6388,40.2762,-38.5962,4.103901202578934,11.739822815534303,2.7356490002269775,27.566456924825264
0.2006,0.9625,0.0692,-0.2533,0.1146,0.0145,6.9212,38.6312,-36.4175,4.1122445353054315,11.743180025577855,1.5939207432049907,27.578062152433326
0.2077,0.959,0.0728,-0.2533,0.1146,0.0145,4.3663,37.2925,-35.3325,4.340500379891365,12.165084962329411,1.4841943188724949,27.59024603110842
0.1992,0.9456,0.0763,-0.246,0.1178,0.0151,2.6425,36.5138,-34.4837,4.612414760686236,11.873826349015516,1.4763928661776573,27.60243309501875
0.1908,0.9365,0.0762,-0.246,0.1178,0.0151,0.8575,36.3037,-32.6725,4.651616139138418,11.498664545513114,1.447930641091268,27.614782959840905
0.1831,0.9252,0.0867,-0.2422,0.1182,0.0121,0.1837,35.4025,-28.2275,5.351555490539356,11.165337639091588,0.272797106328322,27.624106497278216
0.1888,0.9111,0.091,-0.2424,0.118,0.0102,0.315,33.88,-26.1712,5.702757206725319,11.623008234837284,0.42299632755826216,27.636150933433182
0.1857,0.885,0.0939,-0.2424,0.118,0.0102,1.0062,34.055,-24.4825,6.0555305822507055,11.776913908845714,0.6201306696724725,27.648205633123897
0.1871,0.8821,0.0949,-0.2417,0.1182,0.0071,2.8438,33.4775,-25.2525,6.140264609650494,11.900898581597739,1.5076177960584956,27.660332531479856
0.1925,0.8868,0.0952,-0.2417,0.1182,0.0071,4.725,32.3138,-27.0375,6.127401747156043,12.161894611223788,1.5064742443915358,27.67229238194368
0.1955,0.9004,0.0973,-0.2406,0.1194,0.0086,6.895,32.5237,-28.3762,6.167514474299956,12.180241872839428,1.1675558814834772,27.684348497294497
0.2006,0.9057,0.0924,-0.2386,0.1204,-0.0001,7.9625,34.0812,-29.8113,5.82613112798416,12.412178239087414,3.4004356212225852,27.6937077801494
0.1936,0.912,0.0925,-0.2386,0.1204,-0.0001,9.6075,35.7088,-29.365,5.791539384273242,11.950742793293724,3.358911682469736,27.705962795744668
0.192,0.9312,0.0883,-0.2362,0.119,-0.0018,11.6287,36.5225,-28.6125,5.417829564609668,11.617182595157333,3.590276066848165,27.71797714912245
0.2004,0.9332,0.0781,-0.2362,0.119,-0.0018,12.9412,37.9137,-27.23,4.785681055187326,12.05741023130654,3.2530157245786544,27.73017376873847
0.2108,0.94,0.0783,-0.235,0.1222,-0.0091,13.23,39.97,-25.2875,4.761688985972114,12.574563946707578,5.406459613832807,27.74231163846023
0.2201,0.9475,0.0747,-0.2328,0.1237,-0.0111,14.2012,41.8425,-24.185,4.508505367803248,13.02026865756038,5.958052032643098,27.75451745986692
0.2241,0.9554,0.0684,-0.2328,0.1237,-0.0111,13.7987,43.1287,-23.8787,4.096109248605023,13.162663799939814,5.719321540079424,27.766592332714097
0.233,0.9482,0.0648,-0.2355,0.1249,-0.0133,13.6412,45.325,-24.4037,3.9100195983370156,13.753577609670492,6.238559192856146,27.778794614970533
0.2354,0.9532,0.0617,-0.2355,0.1249,-0.0133,13.4837,48.0288,-31.22,3.7041088002638562,13.841339125636232,6.119650988468139,27.790946641293317
0.233,0.9473,0.0573,-0.2329,0.1254,-0.0183,11.2087,52.08,-36.6275,3.4621323058393405,13.795379208646562,7.4861376149841625,27.8031220260078
0.2266,0.9432,0.0523,-0.228,0.1277,-0.0264,10.465,54.6,-39.7863,3.17455979904529,13.497125948440095,9.859670046270601,27.81267454646674
0.2208,0.944,0.051,-0.228,0.1277,-0.0264,9.1437,57.925,-40.7313,3.0926470326351363,13.154676039684398,9.757960558719926,27.824664125792726
0.186,0.9471,0.062,-0.2272,0.1278,-0.0251,7.2188,60.3225,-40.88,3.7436147388028402,11.134835799611928,9.538126654451187,27.83675421698601
0.1804,0.9498,0.0556,-0.2272,0.1278,-0.0251,5.95,62.6063,-42.7788,3.3512789372464846,10.745039463825837,9.24954509860561,27.8488361681337
0.1705,0.9381,0.0633,-0.2212,0.131,-0.0282,5.1625,64.12,-46.5412,3.8588778911621957,10.288006215974066,10.747988066044144,27.86098217790105
0.1466,0.9217,0.0647,-0.2174,0.1325,-0.0322,5.005,65.4238,-49.7875,4.014936650755191,9.041582482485481,12.023845136896407,27.87308501003526
0.1066,0.908,0.056,-0.2174,0.1325,-0.0322,5.81,65.8263,-51.6075,3.5305307289627916,6.731109358752887,11.349590120391236,27.885164129862748
0.045,0.9165,0.0654,-0.2153,0.1338,-0.0382,7.0175,65.2575,-49.9625,4.080102594293394,2.8843162059598226,12.857250596997899,27.89721635214828
0.036,0.9357,0.0703,-0.2153,0.1338,-0.0382,8.1112,64.1988,-47.2675,4.296018654920379,2.211511978672238,12.897192752924667,27.906687826066335
0.042,0.956,0.0777,-0.2122,0.136,-0.0442,9.135,62.9125,-44.8087,4.645608365096697,2.500936435280236,14.950508615353435,27.918807292206754
0.0465,0.9714,0.0791,-0.2122,0.137,-0.0448,9.2225,62.37,-44.1175,4.65523292590257,2.726551886425874,15.17497497761695,27.93081987600941
0.0242,0.9667,0.0867,-0.2094,0.137,-0.0448,8.26,61.3025,-44.7388,5.123662221051009,1.4572413187184643,15.427676094160207,27.942926247293876
-0.0066,0.9592,0.0922,-0.206,0.141,-0.0504,8.3212,57.8025,-46.2438,5.489498112714938,-0.3476838782603496,17.09931007386948,27.955107648563793
-0.0473,0.9467,0.0913,-0.206,0.141,-0.0504,9.2662,55.7638,-46.4012,5.5085322646576,-2.7835149519931957,16.6895114307767,27.967269938422323
-0.0557,0.95,0.0839,-0.2027,0.143,-0.0575,9.9137,53.76,-46.2875,5.048286725644162,-3.3275341167067642,18.368917368367292,27.97940603856895
-0.0669,0.9509,0.0931,-0.2027,0.1635,-0.0598,10.7975,51.6075,-47.2762,5.590370293819119,-3.9860083325974,19.490111594132234,27.991668840294782
-0.0864,0.9536,0.0887,-0.1986,0.1464,-0.0598,12.3725,49.3237,-48.1425,5.314878810495457,-5.1193932387920045,19.159934694033524,28.00374300531191
-0.118,0.9482,0.0766,-0.1955,0.1471,-0.0636,13.9387,46.165,-48.8862,4.620468668206934,-7.0052820813078585,19.5878874584058,28.01600509920769
-0.124,0.9655,0.0664,-0.1955,0.1471,-0.0636,14.8137,42.9538,-49.4287,3.9360361897790153,-7.290247097098236,19.131044504006997,28.024764496094015
-0.1119,0.9942,0.0634,-0.1906,0.1482,-0.0662,15.4612,39.5062,-49.3675,3.649575483993865,-6.447106680864284,20.176522963616428,28.03737094930981
-0.1126,1.0197,0.0472,-0.1878,0.1532,-0.0695,15.435,36.4263,-47.8013,2.6529088330608963,-6.3022857061910935,20.641986204597735,28.04962490316
-0.1242,1.0213,0.0405,-0.1878,0.1532,-0.0695,15.015,34.7025,-44.2837,2.2719218906866163,-6.893971766411104,20.262323834212797,28.061856206448542
-0.1473,1.0167,0.0384,-0.1854,0.1558,-0.0763,12.4162,30.7125,-32.6113,2.163285912656255,-8.143605281433578,21.79389688732992,28.074103435913244
-0.1425,1.0071,0.0323,-0.1854,0.1558,-0.0763,12.1975,27.9387,-28.0963,1.8378618470055776,-8.057734103755722,21.61835918883426,28.086304302509575
-0.1252,1.006,0.0329,-0.1865,0.1566,-0.0724,12.1887,25.655,-24.6575,1.8730252001368457,-7.195601137530915,20.788089274367643,28.098531712732836
-0.1097,1.0115,0.0353,-0.185,0.154,-0.0823,11.2262,23.8087,-22.9775,1.9983932762763088,-6.3233193150438645,23.635747734079303,28.110817518935338
-0.0961,1.009,0.0268,-0.185,0.154,-0.0823,10.5787,21.9888,-21.4025,1.5227716737790091,-5.598650344268301,23.506747177796818,28.123318151558447
-0.0906,1.0051,0.0239,-0.1872,0.1563,-0.0849,10.5875,20.4837,-19.1362,1.3626015216673766,-5.260923885400526,23.8606239766767,28.13546380741077
-0.0833,1.01,0.0184,-0.1872,0.1563,-0.0849,9.835,19.3638,-16.9925,1.0445592276606794,-4.902266171456606,23.761244977212026,28.147656180046482
-0.0733,1.0021,0.0254,-0.1872,0.159,-0.0871,9.0037,18.06,-14.315,1.4508377705661895,-4.631788219881004,24.692248420687395,28.15984253612676
-0.0633,0.9977,0.0114,-0.1886,0.1586,-0.0902,8.0675,16.7737,-13.0812,0.6568326563539979,-4.224672066396855,24.90129785563711,28.172018274756265
-0.0437,0.9978,0.0094,-0.1886,0.1586,-0.0902,7.77,15.6363,-11.5325,0.5400731987619007,-3.116058649695891,25.146724007831864,28.184158267968176
-0.021,1.0044,0.01,-0.1898,0.1577,-0.0918,7.4637,14.5425,-8.47,0.5703455901056698,-1.6875944884064542,25.8112047465193,28.196220045959404
-0.0065,1.0033,0.0031,-0.1898,0.1577,-0.0918,5.8013,14.2625,-8.6275,0.17811752984724114,-0.684926400933291,25.81042802798838,28.205609411591496
0.0081,1.0044,0.0026,-0.1917,0.1574,-0.0918,4.5237,14.9537,-8.9075,0.14839863389489724,0.13478276974726322,25.83690267498483,28.21775046654848
0.0134,1.0022,0.0053,-0.195,0.1588,-0.0954,3.0013,16.1437,-8.8025,0.30256825060357645,0.4933129655056978,26.518301971667803,28.2297956105335
0.0188,0.9965,0.0076,-0.195,0.1588,-0.0954,1.3037,17.3425,-9.66,0.4365933207578189,0.554329122391593,26.71190037310655,28.241767140193172
0.0168,0.9907,0.0123,-0.1962,0.1594,-0.097,0.63,18.6025,-10.3687,0.7105480291079912,0.7768995169090128,27.089792003131343,28.253891915058976
0.0157,0.9846,0.0178,-0.1962,0.1594,-0.097,-0.2187,19.1712,-10.8325,1.0347911706874642,0.8630744349585728,27.278548671442135,28.266068361518535
0.0123,0.9761,0.0203,-0.1975,0.159,-0.0975,-0.84,19.4337,-12.5825,1.190971135759268,0.7692820617210683,27.271323500488364,28.27825153236358
-0.0009,0.9636,0.0157,-0.1993,0.1592,-0.0985,-0.7613,20.1338,-13.8775,0.9341652046468274,0.17035681525340404,26.87630890263944,28.287743887268153
-0.0101,0.9776,0.013,-0.1993,0.1592,-0.0985,-0.8312,19.8013,-14.49,0.762351393307677,-0.36385887787922694,26.598994542827654,28.29987927958473
0.0019,0.9819,0.0185,-0.2022,0.1608,-0.1006,-0.6038,19.53,-15.0937,1.078492741105933,-0.043698499356879646,27.166546793467703,28.3120613886847
0.0051,0.9846,0.0148,-0.2022,0.1608,-0.1006,-0.8312,19.8362,-15.5312,0.8617866741974181,0.19595484632037496,27.090570384504634,28.32423181858882
0.0073,0.9772,0.0224,-0.2022,0.1586,-0.0995,-1.1462,20.7812,-15.6975,1.3118704420817182,0.37424195479929506,27.153598844402325,28.336400478917813
-0.003,0.9659,0.0205,-0.2015,0.1597,-0.1018,-0.9887,22.5925,-15.7062,1.2161176143499182,-0.08790065070755927,27.503646474483748,28.34857586363229
-0.0162,0.9553,0.0149,-0.2015,0.1597,-0.1018,-0.0175,23.4062,-15.4175,0.8944855613469179,-0.8442477544414367,27.05773657735698,28.36081743045658
-0.006,0.9644,0.012,-0.2029,0.1586,-0.1038,0.56,24.4212,-15.785,0.7134013357038796,-0.4176943918650589,27.418962939787704,28.37299210734101
-0.0032,0.9632,0.0118,-0.2029,0.1586,-0.1038,0.9363,26.0487,-16.0212,0.701917985317766,-0.21404351772838565,27.46461725775134,28.38519474351247
-0.0145,0.9572,0.0084,-0.203,0.1616,-0.1025,1.715,26.5125,-16.73,0.5033474521150145,-0.8028091749505555,26.834586541909758,28.39728200338555
-0.0212,0.9615,0.0066,-0.2074,0.1613,-0.1065,3.6663,26.4775,-18.5762,0.39359330522423086,-1.2171347846483094,27.032510262293133,28.40945915767516
-0.0256,0.9672,-0.0002,-0.2074,0.1613,-0.1065,4.7425,26.2938,-20.3,-0.01072563168657659,-1.4857566686781098,26.709951708273266,28.421697539264215
-0.0224,0.9812,-0.0113,-0.2065,0.1605,-0.111,5.5388,26.18,-20.8775,-0.6580257414474808,-1.3260176492652358,27.446582411685554,28.433933089533067
-0.0237,0.9835,-0.0178,-0.2065,0.1605,-0.111,6.9563,26.5212,-20.1163,-1.0358196491882532,-1.3748140289028772,27.193776607824727,28.44604158430769
-0.0313,0.9784,-0.0181,-0.2078,0.1607,-0.1151,6.79,27.1163,-19.9762,-1.0597615325341376,-1.789113935609768,27.769982069613345,28.455586672551092
-0.0402,0.9739,-0.0205,-0.2092,0.1623,-0.1146,6.3088,27.5713,-21.7175,-1.2054604617308666,-2.3114974319834505,27.252129252762877,28.46781443668938
-0.0439,0.9826,-0.0239,-0.2092,0.1623,-0.1146,6.3612,28.3937,-23.3013,-1.3928256718702263,-2.5367687702362263,27.080145663052367,28.480062020069106
-0.0473,0.9778,-0.0172,-0.2061,0.1651,-0.1142,6.79,28.9975,-24.8237,-1.0088177474147633,-2.750510512423774,27.481413655805795,28.49218502535978
-0.0552,0.9782,-0.0207,-0.2078,0.1651,-0.1222,7.6038,28.8575,-25.7862,-1.2117145300499983,-3.190468437821903,28.68355595754538,28.504493482123927
-0.068,0.9765,-0.0298,-0.2078,0.1651,-0.1222,8.75,27.93,-25.1387,-1.7464937076846523,-3.9126327748082352,28.13365173722107,28.516162768351645
-0.0837,0.971,-0.0329,-0.2095,0.1654,-0.1226,9.4762,27.2825,-23.9925,-1.940057075169763,-4.83046748005703,27.641646238192717,28.528331428680637
-0.0963,0.9661,-0.0316,-0.2095,0.1654,-0.1226,10.2025,25.9612,-21.9013,-1.8735916746958805,-5.598983167040802,27.47364323331922,28.540873115446725
-0.0983,0.969,-0.0239,-0.2092,0.1664,-0.1225,9.8612,24.22,-20.4575,-1.4141484357899174,-5.766080229697592,27.722963007651906,28.552868711328145
-0.0849,0.9717,-0.021,-0.2102,0.1669,-0.1282,10.4475,22.4612,-18.7687,-1.2385410077897918,-5.121155956009055,29.059243706163702,28.56516265757624
-0.0763,0.9959,-0.0173,-0.2102,0.1669,-0.1282,10.4387,21.1662,-18.97,-0.9958606541513952,-4.537784895064978,29.38190602303324,28.577465451699975
-0.0615,0.9966,-0.0195,-0.2109,0.1668,-0.1294,9.45,18.4888,-20.65,-1.1205946180671869,-4.026632105243308,29.719057630408255,28.589688261027902
-0.0476,1.0142,-0.0265,-0.2109,0.1668,-0.1294,8.8025,17.6662,-21.3587,-1.4957095899885207,-3.7960141115014543,29.756938918787146,28.601974775060455
-0.035,1.0374,-0.0292,-0.2106,0.1696,-0.1368,7.0525,18.585,-20.9125,-1.611974673420489,-2.8082893124275765,31.385208466579773,28.614202539198743
-0.0387,1.0465,-0.035,-0.2121,0.1698,-0.1341,3.7975,20.2825,-20.5362,-1.9146904547411125,-2.297531011391112,30.443816705778783,28.62645649304893
-0.0652,1.031,-0.0334,-0.2121,0.1698,-0.1341,0.4725,22.1812,-19.4687,-1.8556556224228382,-3.3861473763354035,29.996581738639687,28.63871469387943
-0.0811,1.0144,-0.0289,-0.2127,0.1693,-0.1363,-1.47,22.085,-18.5587,-1.6325309906289442,-4.358903783022153,30.19912963902381,28.650987759141003
-0.092,1.0057,-0.0188,-0.2127,0.1693,-0.1362,-2.4588,21.1487,-18.935,-1.0725168433344625,-5.041036054967596,30.317187014326635,28.66327427317356
-0.0964,0.9955,-0.0218,-0.212,0.1686,-0.1362,-2.5638,20.1338,-18.7775,-1.2539795652592778,-5.396757394959823,30.208096793492555,28.675559371546008
-0.1084,1.0045,-0.0213,-0.2139,0.1704,-0.1368,-2.5725,17.6925,-17.9375,-1.2148616788545867,-5.5411274597401325,29.933959534761996,28.68785933434954
-0.1072,1.0165,-0.021,-0.2139,0.1704,-0.1368,-2.975,13.5625,-15.9425,-1.1836009430343915,-5.921298210586762,29.991055481856506,28.70008745240285
-0.1033,1.0136,-0.015,-0.2125,0.1722,-0.1376,-4.5938,10.92,-15.0412,-0.8487972110094679,-5.832150785259528,30.51934755790373,28.712399802232284
-0.1083,1.0075,-0.0164,-0.2135,0.1712,-0.1374,-4.4888,9.1262,-15.4787,-0.9323355574833075,-6.102168897702949,30.248606344890177,28.724660126552934
-0.1115,0.9816,-0.0057,-0.2135,0.1712,-0.1374,-4.8738,6.44,-15.4263,-0.3344089914615545,-6.4488794946856745,30.501959138919283,28.736929298749228
-0.1008,0.9744,-0.0089,-0.2165,0.1686,-0.1386,-5.0575,4.3225,-15.7675,-0.5227777171489065,-5.944308137366666,30.483176930086383,28.749188915239827
-0.0875,0.9837,-0.0167,-0.2165,0.1686,-0.1386,-4.2613,2.135,-15.9775,-0.971324223548489,-5.135151921938876,30.45796438419395,28.761420572443395
-0.0722,0.995,-0.0193,-0.2138,0.1673,-0.1368,-4.7337,0.245,-15.5487,-1.1108283897907112,-4.203608504494923,30.62788327901006,28.77364196611122
-0.0517,0.9861,-0.0168,-0.215,0.1694,-0.137,-5.2063,0.7875,-14.4637,-0.9764265852784917,-3.068833355567296,30.940578847161692,28.783253590379456
-0.0415,0.9674,-0.0115,-0.215,0.1694,-0.137,-5.7312,1.4262,-13.6325,-0.6819152694080493,-2.4921908321844453,31.284439395327333,28.795484893668
-0.0332,0.9501,-0.0066,-0.213,0.1698,-0.133,-6.1512,5.8888,-13.3525,-0.39881678683742966,-2.040320135299285,31.063554590688742,28.807708410825978
-0.0272,0.9389,-0.007,-0.213,0.1698,-0.133,-3.8675,9.065,-13.4925,-0.4270822970573323,-1.6999095451799815,31.15989481366273,28.819881672050304
-0.0248,0.9368,-0.0154,-0.2143,0.1697,-0.1331,-3.185,11.1912,-13.3612,-0.9403405902021127,-1.5415119979534193,30.776694727810757,28.832876370049302
-0.0236,0.9574,-0.0256,-0.2165,0.1682,-0.1369,-1.365,13.7462,-12.8275,-1.530006996741592,-1.4391346831450351,30.955113119462567,28.84444726789987
-0.0341,0.9682,-0.0317,-0.2165,0.1682,-0.1369,-0.1138,16.0562,-12.1625,-1.874292348235061,-1.775885231880605,30.556993339557998,28.856913570765485
-0.0371,0.9778,-0.0306,-0.221,0.1693,-0.1339,-0.0613,18.1212,-11.2962,-1.7927012105259195,-1.9337107961555173,29.476851067736707,28.86898313488728
-0.0485,0.9795,-0.0329,-0.2196,0.167,-0.1365,0.0875,19.7575,-11.2262,-1.9233923470307104,-2.560479060634404,29.866029289028827,28.88121302251572
-0.0631,0.9856,-0.0286,-0.2196,0.167,-0.1365,0.7875,20.9212,-11.6112,-1.6628654046775322,-3.4149048342376878,29.7698468198978,28.893443971889237
-0.0821,0.9989,-0.0287,-0.2218,0.1698,-0.1405,0.175,21.3237,-11.13,-1.6457949188562564,-4.433221983186708,29.94955517607686,28.905736856392252
-0.0843,1.0049,-0.032,-0.2218,0.1698,-0.1405,-0.8838,18.6812,-11.7862,-1.8234076767301104,-4.631052155958575,29.819776602495516,28.917939492563715
-0.0849,1.0112,-0.0265,-0.2222,0.1696,-0.1424,-3.3775,17.8587,-12.39,-1.502089856838672,-4.67867368330617,30.308970416579395,28.930229545746524
-0.0824,1.02,-0.0296,-0.2256,0.1691,-0.1414,-4.235,16.905,-12.5125,-1.6617800246692689,-4.656572514303224,29.741005646518797,28.94255569826196
-0.089,1.0242,-0.0327,-0.2256,0.1691,-0.1414,-6.1075,15.6625,-12.9762,-1.8282054392919223,-4.853943533622781,29.550294903580482,28.954761165753624
-0.0978,1.0252,-0.0251,-0.2258,0.1662,-0.1418,-7.0262,14.665,-13.3175,-1.4037118768780759,-5.291159027803381,29.75227925210351,28.96697017239555
-0.1061,1.0249,-0.0117,-0.2258,0.1662,-0.1418,-9.1962,12.2762,-12.9237,-0.6562038522485769,-5.80986166729062,30.04333250656535,28.979255624683024
-0.1094,1.018,-0.0168,-0.2271,0.1674,-0.1416,-11.165,9.7475,-12.3287,-0.9446259371513785,-6.09586626924419,29.643928456576692,28.990998879151114
-0.1171,1.0106,-0.0119,-0.2276,0.1668,-0.1398,-11.9263,6.6238,-11.8475,-0.6754204957174328,-6.5656719725256005,29.31320759699153,29.003263096537047
-0.1163,1.0012,-0.0099,-0.2276,0.1668,-0.1398,-12.5212,3.2462,-10.6487,-0.5668463919711709,-6.621563975483311,29.368226545380036,29.015924406581828
-0.1078,0.9928,-0.0037,-0.2316,0.1669,-0.1376,-14.3675,-3.3075,-6.8775,-0.2145632964619388,-6.216465293846514,28.882287832463852,29.027877178745136
-0.1009,0.9825,-0.003,-0.2309,0.1664,-0.1369,-14.2275,-6.1512,-5.25,-0.1750641181394235,-5.877874181101768,28.933210322870206,29.040103173308292
-0.0846,0.9543,0.0002,-0.2309,0.1664,-0.1369,-13.86,-8.5137,-4.3313,0.011462058283563673,-5.096201796517863,29.23236771029405,29.052367744609253
-0.0606,0.9484,0.0,-0.2306,0.1628,-0.1354,-13.6412,-10.3512,-5.2238,3.3423910494721144e-05,-3.7060514188990656,29.37792464615006,29.06463585506047
-0.0462,0.9446,-0.0009,-0.2306,0.1628,-0.1354,-12.6087,-11.935,-6.2038,-0.05443169180432614,-2.8298887232891476,29.578175053913593,29.077386705606756
-0.0271,0.9429,0.002,-0.233,0.1618,-0.1338,-11.6375,-12.3638,-7.805,0.12102066122352143,-1.684688762544613,29.453824480372106,29.08997758656142
-0.009,0.9465,-0.0053,-0.2341,0.1618,-0.1321,-10.4475,-12.1363,-9.3625,-0.31955223279208245,-0.5820425859433865,29.107519331817198,29.102008220030385
0.0115,0.9664,-0.0002,-0.2341,0.1618,-0.1321,-9.1962,-10.7362,-10.885,-0.012743341238551718,0.6384885596776648,29.633688125231323,29.114139719281678
0.0099,0.9622,-0.0045,-0.2307,0.1606,-0.1355,-8.785,-6.6062,-14.2887,-0.2672241117803967,0.5914396244171245,30.469537356198646,29.126294223009644
0.0027,0.9703,0.0001,-0.231,0.1609,-0.1333,-8.54,-4.6638,-16.0387,0.005120171591350371,0.17811698936712944,30.038978835665713,29.138720179562327
-0.0035,0.9681,-0.0015,-0.231,0.1609,-0.1333,-8.3475,-3.6312,-16.9487,-0.0885058982162161,-0.18970120360068418,29.878830876306306,29.151025451091243
-0.0256,0.9681,0.0054,-0.231,0.1605,-0.1293,-7.595,-3.0538,-18.2962,0.31841947998823905,-1.4531330441858084,28.972914202676513,29.163254630889632
-0.0346,0.9723,0.0026,-0.231,0.1605,-0.1293,-7.7088,-3.2375,-17.8675,0.15368622122419442,-2.0110850062994095,28.74145290243471,29.176134660420303
-0.0406,0.9711,0.0016,-0.2303,0.1597,-0.1242,-6.9738,-3.57,-18.2525,0.09457094409977458,-2.376654729954874,27.731110217195667,29.187696002565175
-0.0497,0.9815,0.0085,-0.2299,0.1606,-0.1274,-6.51,-3.99,-18.1825,0.49503404742050683,-2.875434527883356,28.451274043954708,29.19998003919255
-0.0459,1.007,0.0036,-0.2299,0.1606,-0.1274,-5.8362,-5.2588,-18.0425,0.20565753346692037,-2.620973332791093,28.37255750477022,29.212128526365074
-0.031,1.0272,0.01,-0.2279,0.1621,-0.1262,-6.5887,-5.6963,-17.9025,0.5567623136505614,-1.7654771018812547,28.775587896528727,29.224252239485804
-0.02,1.0358,0.0152,-0.2279,0.1621,-0.1262,-8.1025,-5.1188,-17.0187,0.8399201120060565,-1.134021902126162,29.103478348359186,29.233770076272226
-0.0257,1.0241,0.016,-0.2266,0.1606,-0.1248,-11.235,-3.2638,-13.23,0.8949265672531957,-1.4234073039380806,28.90897580288054,29.246070392990784
-0.0393,1.0031,0.0203,-0.2258,0.1596,-0.1247,-11.4275,-2.975,-11.235,1.1585854608181028,-2.204912591728393,28.891993656762757,29.258364339238877
-0.0667,0.9612,0.0308,-0.2258,0.1596,-0.1247,-10.9112,-4.0687,-11.3225,1.8333588883495542,-3.889256999248507,28.799054143413088,29.27064943761133
-0.0648,0.9599,0.0319,-0.2292,0.1578,-0.1221,-9.7212,-4.7775,-11.5325,1.9031869471369973,-3.8611481952406415,28.034629816852366,29.28283543977658
-0.057,0.9626,0.0357,-0.2292,0.1582,-0.1226,-7.8838,-5.4688,-12.0137,2.1233251846365344,-3.4063068923909867,28.35561795379166,29.295107797208104
-0.0504,0.9672,0.0329,-0.2277,0.1582,-0.1226,-6.6588,-6.9388,-12.9062,1.9487062289458623,-2.9979547221127123,28.518043987574423,29.30729415328838
-0.0575,0.9603,0.0301,-0.2275,0.1589,-0.121,-5.9237,-7.245,-12.9762,1.795749867540876,-3.408325227178307,28.046862523608628,29.31953678185775
-0.0551,0.9634,0.029,-0.2275,0.1589,-0.121,-5.5738,-7.9888,-12.8275,1.7243849467274162,-3.2770472212338593,28.047307311723344,29.331711458742177
-0.0534,0.9618,0.0296,-0.2255,0.1577,-0.1267,-4.795,-8.6712,-12.9587,1.7626481884547185,-3.1800614476103233,29.36633514645433,29.34391409491364
-0.0573,0.9541,0.0259,-0.2262,0.1586,-0.1205,-2.485,-10.5175,-14.2975,1.5555559551339877,-3.426779980482459,27.95444882439748,29.356192468900602
-0.0622,0.9528,0.029,-0.2262,0.1586,-0.1205,-1.715,-11.7337,-15.6012,1.742821754022574,-3.7231649458088416,27.979210898156197,29.368522514481317
-0.0483,0.9798,0.0165,-0.2262,0.1562,-0.12,-1.96,-13.1775,-15.75,0.9669736287320057,-2.8502490955484934,27.703082938212553,29.380796287572945
-0.0317,1.0174,0.0061,-0.2262,0.1562,-0.12,-2.31,-13.37,-14.98,0.34528263349171684,-1.8180850228332,27.640150303537272,29.393102266931912
-0.0175,1.0404,0.0045,-0.2254,0.1577,-0.1162,-4.2962,-12.7137,-13.2212,0.24809424348111886,-0.9910516524662889,27.14043710194652,29.405327907580045
-0.0186,1.0354,-0.0007,-0.2249,0.157,-0.1184,-7.7,-11.5937,-10.4387,-0.03791362626738589,-1.0278866738487449,27.453934236605914,29.417666093206353
-0.0378,0.9845,0.0122,-0.2249,0.157,-0.1184,-9.4762,-10.535,-8.7237,0.7078226658158739,-2.1582502410112365,27.547023302741728,29.429809979483544
-0.0392,0.9714,0.0172,-0.2253,0.1576,-0.1188,-10.5087,-10.2287,-7.7175,1.013510277670694,-2.305198165479609,27.717701633928975,29.44208906130056
-0.0293,0.9625,0.0221,-0.225,0.1587,-0.1154,-10.1675,-10.8413,-7.6125,1.314468182681228,-1.7623570546477199,27.395820401372116,29.454380884058498
-0.019,0.9689,0.0219,-0.225,0.1587,-0.1154,-9.6337,-11.095,-7.35,1.2948898604852563,-1.1447613286707852,27.55114084951951,29.466618557817505
-0.0016,0.9761,0.0296,-0.2269,0.1565,-0.1143,-9.205,-11.0775,-6.3787,1.7356759675097218,-0.12945462570251562,27.64742099371069,29.478848091530917
0.0092,0.9707,0.029,-0.2269,0.1565,-0.1143,-8.6712,-10.8587,-6.7638,1.711292634917098,0.5198440359589375,27.812070575057312,29.4909848995076
0.0197,0.9761,0.0247,-0.2274,0.1547,-0.1142,-8.4612,-9.66,-7.0525,1.4502999022449894,1.1332186927845673,27.76421462576001,29.50318647393398
0.023,0.9762,0.0244,-0.2266,0.153,-0.1125,-7.9275,-8.3037,-7.6213,1.4318559582762234,1.3411876693469356,27.54066484492413,29.5151820698154
0.0226,0.9604,0.0248,-0.2266,0.153,-0.1125,-8.1637,-6.5887,-8.5312,1.4790599072030763,1.3473233755070468,27.56485290143607,29.524540290925227
0.0214,0.9509,0.0257,-0.2308,0.1534,-0.1109,-6.9913,-5.2325,-9.8175,1.5479600394113258,1.291225442054858,26.831819083321342,29.535934939092993
0.0245,0.9663,0.0299,-0.2308,0.1534,-0.1109,-5.3812,-4.8038,-11.515,1.7716858413892485,1.44479862290258,26.992975689482847,29.548154563185687
0.0319,0.9773,0.0271,-0.2282,0.1538,-0.1108,-4.6638,-3.4475,-12.6437,1.5888948331936041,1.8494511497012598,27.26665304879245,29.56038161949392
0.0354,0.9862,0.0245,-0.2278,0.1529,-0.1117,-4.3488,-1.1112,-13.4925,1.4235673774203352,2.0446257869690827,27.450295304155645,29.572621062828055
0.0269,0.9874,0.0376,-0.2278,0.1529,-0.1117,-4.6375,1.015,-14.7613,2.1786069477839534,1.5872251273228422,27.70106425627868,29.584845287816083
-0.0029,0.974,0.038,-0.2288,0.1536,-0.1111,-3.8937,3.15,-14.875,2.234068121763444,-0.055644457565619095,27.03983373685079,29.597569948650467
-0.0203,0.9622,0.041,-0.2288,0.1536,-0.1111,-3.6925,4.095,-15.4437,2.4393529575712254,-1.1273268016221643,26.87988890226292,29.609609429995075
-0.037,0.9622,0.0434,-0.229,0.152,-0.1138,-3.6663,3.605,-14.9888,2.582168024310175,-2.127695272858534,27.20668355006195,29.62173243528575
-0.0442,0.9592,0.0443,-0.2286,0.153,-0.1069,-3.22,2.5025,-13.6675,2.644111816884037,-2.603694832338226,25.833387434163097,29.633925515751518
-0.054,0.9684,0.0415,-0.2286,0.153,-0.1069,-2.66,1.4962,-12.6962,2.454400501609849,-3.1542169350643103,25.608739374941866,29.643281259456167
-0.0539,0.9828,0.0495,-0.2281,0.1527,-0.1097,-2.7562,-0.2975,-11.5937,2.882127642604494,-3.1361940228615635,26.436734538515076,29.655570958723953
-0.0545,0.981,0.0418,-0.2281,0.1527,-0.1097,-3.4125,-1.96,-11.5937,2.441125623210175,-3.174957134562378,26.200455339955717,29.667750944333765
-0.0609,0.9792,0.0464,-0.2293,0.155,-0.1116,-2.9488,-3.5175,-11.7163,2.712198006974784,-3.537582226189265,26.51590229409605,29.680864203866378
-0.0742,0.99,0.0499,-0.2313,0.1521,-0.1107,-3.0363,-5.8013,-11.585,2.8850066503395624,-4.250223120617883,26.075151710125137,29.692228061426906
-0.0882,1.0027,0.0397,-0.2313,0.1521,-0.1107,-4.0163,-9.1087,-11.97,2.2690851698885854,-4.994992654667778,25.60875257972505,29.704735064520477
-0.1081,1.0217,0.0332,-0.231,0.1524,-0.1101,-4.5062,-13.125,-9.1875,1.8623221816836817,-6.003516732873462,25.111033647006913,29.716613514528387
-0.1047,1.0258,0.0299,-0.231,0.1524,-0.1101,-8.4875,-21.245,-8.7937,1.6701373451982484,-5.8298389465381595,25.05280093817492,29.728885518044887
-0.083,1.0242,0.0301,-0.2278,0.1498,-0.1077,-10.4912,-25.41,-7.875,1.6833309392647493,-4.658395805911426,25.129370397875654,29.7410531166288
-0.0722,1.0197,0.0317,-0.2286,0.1524,-0.1035,-13.0288,-29.4525,-8.6275,1.7803301862027836,-4.060864888838524,24.394847403291248,29.753368651693464
-0.1188,1.0065,0.0411,-0.2286,0.1524,-0.1035,-13.58,-32.8387,-9.8262,2.336722773318853,-6.674124256616302,24.162900245486618,29.76564030129494
-0.1444,1.0034,0.0327,-0.2267,0.1512,-0.1033,-14.1138,-37.8087,-11.515,1.8679357204907847,-8.1581133135967,23.785410790608402,29.778014940168894
-0.1601,0.9962,0.0282,-0.2267,0.1493,-0.1028,-14.0175,-45.22,-12.9325,1.6221906977013159,-9.111176363027866,23.415800908149702,29.790335430043918
-0.1597,1.004,0.019,-0.2258,0.1493,-0.1028,-14.385,-52.4038,-15.3737,1.0857256233121722,-9.037429192703,23.222147072071618,29.802633977187345
-0.1111,1.0189,0.0198,-0.2198,0.1482,-0.0942,-14.49,-60.2875,-17.2637,1.1131922805436254,-6.25749020269839,22.497208919438062,29.815000122100685
-0.0833,1.0147,0.0188,-0.2198,0.1482,-0.0942,-16.31,-72.52,-19.7225,1.0615864542215945,-4.709474392682403,22.759370568133086,29.8273301676814
-0.07,1.0225,0.0187,-0.2168,0.1495,-0.0914,-17.99,-77.7613,-20.475,1.0477784550086495,-3.923935815540698,22.57477396020609,29.83974232154808
