AcclX,AcclY,AcclZ,MagX,MagY,MagZ,GyroX,GyroY,GyroZ,Roll,Pitch,Yaw,Time(s)
-0.1545,0.9746,0.0616,-0.6932,0.0382,-0.0287,-3.045,1.1112,-14.9888,0,0,0,1.6205772566418348
-0.1524,0.95,0.0519,-0.6932,0.0382,-0.0287,-2.9313,1.0062,-15.3125,0,0,0,1.6327349456050302
-0.1539,0.9746,0.0576,-0.6926,0.0385,-0.0243,-2.345,1.12,-15.0762,0,0,0,1.6453881156042198
-0.1568,0.974,0.0628,-0.6926,0.0385,-0.0243,-2.24,0.9538,-15.1637,0,0,0,1.657030504289981
-0.1523,0.9743,0.0592,-0.6938,0.0387,-0.0281,-2.9663,0.91,-15.05,0,0,0,1.6692218151806189
-0.1551,0.9743,0.0626,-0.6938,0.0387,-0.0281,-2.6775,0.9187,-14.8225,0,0,0,1.6813911833396626
-0.1533,0.9735,0.0609,-0.6945,0.0385,-0.0282,-2.8788,0.84,-15.05,0,0,0,1.6935892186157888
-0.1521,0.9747,0.0572,-0.6945,0.0385,-0.0282,-2.2662,0.7263,-14.9362,0,0,0,1.7056159590194715
-0.1551,0.9737,0.0606,-0.6941,0.0381,-0.0217,-2.5375,0.9713,-14.98,0,0,0,1.7151146843945064
-0.1504,0.976,0.0608,-0.6962,0.0385,-0.0277,-2.94,1.3562,-14.8312,0,0,0,1.7273006865597584
-0.153,0.9751,0.0575,-0.6962,0.0385,-0.0277,-2.9488,1.3387,-15.2687,0,0,0,1.7395864927622608
-0.1554,0.9723,0.062,-0.6946,0.037,-0.0278,-2.45,1.085,-15.0412,0,0,0,1.7516592421192858
-0.1565,0.975,0.0569,-0.6946,0.037,-0.0278,-3.5263,1.1812,-15.0675,0,0,0,1.763757119443136
-0.1547,0.9755,0.0593,-0.6951,0.0384,-0.0229,-2.6425,1.0937,-15.3387,0,0,0,1.7759353354778225
-0.1539,0.9751,0.0636,-0.694,0.037,-0.0294,-2.94,1.085,-15.085,0,0,0,1.7881524821653372
-0.155,0.9746,0.0617,-0.694,0.037,-0.0294,-2.345,1.5225,-15.2425,0,0,0,1.8003027389129926
-0.1543,0.9758,0.0638,-0.6937,0.0382,-0.0279,-3.3513,1.435,-15.1462,0,0,0,1.81239424576638
-0.154,0.9727,0.0589,-0.6937,0.0382,-0.0279,-3.08,0.9713,-15.12,0,0,0,1.8245993593430205
-0.1515,0.9762,0.0615,-0.6927,0.0384,-0.0286,-2.5725,1.2337,-14.7788,0,0,0,1.8366926357715365
-0.154,0.9748,0.0616,-0.6934,0.0375,-0.0265,-2.24,1.1287,-15.015,0,0,0,1.8461711879901062
-0.1548,0.9762,0.059,-0.6934,0.0375,-0.0265,-2.9575,1.4,-15.155,0,0,0,1.8582874688952933
-0.1566,0.9742,0.0666,-0.6955,0.0374,-0.0285,-3.1763,1.68,-15.1812,0,0,0,1.8707318290293138
-0.1537,0.9747,0.0581,-0.6955,0.0374,-0.0285,-2.9313,1.3912,-14.7962,0,0,0,1.8826545184154375
-0.1559,0.9733,0.06,-0.6937,0.0382,-0.0289,-2.9925,1.4525,-14.6037,0,0,0,1.8948107917185302
-0.1537,0.9756,0.064,-0.6962,0.039,-0.0282,-2.975,0.7613,-14.5687,0,0,0,1.9069801598775737
-0.1512,0.9754,0.0601,-0.6962,0.039,-0.0282,-3.0625,0.8575,-14.8225,0,0,0,1.9191212148345607
-0.1547,0.9759,0.0587,-0.6954,0.0368,-0.0288,-2.7913,1.2425,-15.4175,0,0,0,1.9313015543594014
-0.1505,0.9753,0.0595,-0.6954,0.0368,-0.0288,-2.87,1.4962,-15.1462,0,0,0,1.9434691529433168
-0.1518,0.9739,0.0642,-0.6948,0.0381,-0.0341,-2.7125,1.1725,-15.7237,0,0,0,1.9556264879914864
-0.1557,0.9741,0.0575,-0.6946,0.0387,-0.0278,-3.3075,0.9363,-15.155,0,0,0,1.965033903289888
-0.154,0.9756,0.0596,-0.6946,0.0387,-0.0278,-3.4213,1.26,-15.1025,0,0,0,1.9771940696582633
-0.1558,0.9742,0.0585,-0.6966,0.0391,-0.0307,-3.1675,1.1287,-14.875,0,0,0,1.9894094467706493
-0.1554,0.9745,0.0606,-0.6966,0.0391,-0.0307,-3.255,1.33,-14.9275,0,0,0,2.001561473093433
-0.1553,0.9742,0.0599,-0.6943,0.0385,-0.0274,-2.555,1.12,-15.6012,0,0,0,2.0136313911302524
-0.1507,0.9739,0.0599,-0.6933,0.0386,-0.028,-2.6513,1.2512,-15.54,0,0,0,2.0258269490011984
-0.1538,0.9773,0.061,-0.6933,0.0386,-0.028,-2.3712,1.0325,-15.0062,0,0,0,2.038029939087685
-0.1537,0.973,0.0586,-0.6943,0.0398,-0.0264,-2.31,1.4787,-14.7962,0,0,0,2.0501663931493375
-0.1583,0.9746,0.0573,-0.6943,0.0398,-0.0264,-2.8263,1.295,-14.7262,0,0,0,2.062375045876235
-0.1561,0.9743,0.0656,-0.6942,0.0375,-0.0285,-2.5025,1.2775,-15.155,0,0,0,2.0744962815917822
-0.1555,0.9756,0.0604,-0.6922,0.0409,-0.0275,-3.115,1.0762,-14.9975,0,0,0,2.0866759132865718
-0.1543,0.9747,0.0602,-0.6922,0.0409,-0.0275,-2.7213,0.7613,-15.0325,0,0,0,2.0960858059901533
-0.1509,0.9755,0.0587,-0.6941,0.0377,-0.0291,-3.08,0.875,-15.19,0,0,0,2.1082618985346855
-0.154,0.9753,0.0606,-0.6941,0.0377,-0.0291,-3.1412,0.9713,-14.9012,0,0,0,2.1203647306688955
-0.1535,0.974,0.0577,-0.6946,0.0386,-0.0257,-3.0275,0.91,-15.0937,0,0,0,2.132554625899431
-0.1548,0.9749,0.0648,-0.6934,0.036,-0.0281,-2.8788,1.19,-15.1988,0,0,0,2.1447285949538086
-0.1559,0.9737,0.0588,-0.6934,0.036,-0.0281,-2.5725,1.1638,-15.0937,0,0,0,2.156878851701464
-0.154,0.9749,0.062,-0.6926,0.0407,-0.0314,-2.7475,0.8312,-15.0062,0,0,0,2.1690043343973198
-0.151,0.9751,0.0569,-0.6926,0.0407,-0.0247,-3.0975,1.1725,-14.7175,0,0,0,2.1812129871242174
-0.153,0.9746,0.0599,-0.6937,0.0386,-0.0247,-3.0538,1.1638,-14.9275,0,0,0,2.1939510967295774
-0.1513,0.9759,0.0597,-0.6925,0.0377,-0.0274,-3.0888,1.435,-14.7175,0,0,0,2.2055400442464563
-0.1573,0.9759,0.0559,-0.6925,0.0377,-0.0274,-3.1063,1.295,-15.1462,0,0,0,2.2177217994314
-0.1522,0.9748,0.0617,-0.692,0.0379,-0.0315,-2.905,1.1287,-15.3212,0,0,0,2.2270743579008165
-0.1539,0.9751,0.0597,-0.692,0.0398,-0.0238,-3.4738,1.3825,-14.8575,0,0,0,2.23924868087022
-0.1538,0.9746,0.0625,-0.6937,0.0398,-0.0238,-3.2113,1.155,-15.26,0,0,0,2.251443884826141
-0.153,0.9741,0.0637,-0.6947,0.0362,-0.0265,-2.59,1.0325,-14.9362,0,0,0,2.263634487886727
-0.1538,0.9751,0.0573,-0.6947,0.0362,-0.0265,-3.0275,0.9887,-15.1375,0,0,0,2.275699097198161
-0.1503,0.9751,0.0597,-0.6924,0.0398,-0.0299,-3.2288,0.9187,-14.6825,0,0,0,2.287935355297064
-0.1518,0.9747,0.0581,-0.6939,0.0385,-0.0297,-3.7013,1.1025,-14.6912,0,0,0,2.3001096782664674
-0.1541,0.9778,0.056,-0.6939,0.0385,-0.0297,-3.4913,1.5662,-14.9713,0,0,0,2.3122716142099713
-0.1535,0.9736,0.0634,-0.6959,0.0387,-0.029,-2.4763,1.1375,-14.98,0,0,0,2.324387541200133
-0.1533,0.9753,0.0605,-0.6959,0.0387,-0.029,-2.5988,1.2337,-15.19,0,0,0,2.336563633744665
-0.1558,0.9773,0.0612,-0.6938,0.0378,-0.0303,-2.6425,0.42,-14.8312,0,0,0,2.3486600954084125
-0.1513,0.9745,0.0583,-0.6936,0.0394,-0.0291,-2.135,0.875,-15.4175,0,0,0,2.358143602437342
-0.1534,0.9748,0.0611,-0.6936,0.0394,-0.0291,-2.7562,0.9713,-15.26,0,0,0,2.37031509408654
-0.1541,0.9745,0.0592,-0.6958,0.0386,-0.0273,-3.185,1.505,-15.1637,0,0,0,2.382595237648631
-0.154,0.9762,0.06,-0.6958,0.0386,-0.0273,-2.9225,1.1987,-15.1025,0,0,0,2.3947076254885356
-0.1553,0.9762,0.058,-0.6942,0.0382,-0.0302,-2.9838,1.2425,-15.6887,0,0,0,2.4067740043750976
-0.1515,0.9756,0.063,-0.6918,0.0394,-0.0263,-3.0538,1.3387,-15.2425,0,0,0,2.418954343899938
-0.1514,0.9748,0.0585,-0.6918,0.0394,-0.0263,-3.2288,1.1112,-15.4787,0,0,0,2.4310971684320535
-0.1575,0.9755,0.0609,-0.6939,0.0398,-0.0279,-2.8438,1.365,-14.7087,0,0,0,2.4432644131009433
-0.1544,0.9724,0.0587,-0.6939,0.0398,-0.0279,-2.9138,1.3737,-14.9187,0,0,0,2.455438382155321
-0.1545,0.9739,0.0557,-0.6936,0.0386,-0.0264,-2.2313,1.5312,-15.0062,0,0,0,2.4676144746998534
-0.1524,0.9765,0.0631,-0.6933,0.0381,-0.0283,-2.73,1.26,-14.805,0,0,0,2.477027906553692
-0.1508,0.9749,0.0613,-0.6933,0.0381,-0.0283,-2.4237,1.225,-14.8925,0,0,0,2.4894227185841133
-0.1551,0.9747,0.0637,-0.6932,0.0373,-0.0272,-2.8263,1.155,-14.9275,0,0,0,2.501333020944337
-0.154,0.9734,0.0567,-0.6932,0.0373,-0.0272,-2.8087,0.6563,-14.5075,0,0,0,2.5135583076774433
-0.1569,0.9734,0.0612,-0.6922,0.0382,-0.0258,-2.4938,1.4525,-14.77,0,0,0,2.5256837903732987
-0.1539,0.9746,0.0615,-0.6936,0.0394,-0.0323,-3.045,1.4612,-14.7262,0,0,0,2.5377968860432545
-0.1546,0.9754,0.063,-0.6936,0.0394,-0.0323,-2.9575,0.98,-15.6363,0,0,0,2.5499973987245608
-0.1526,0.9749,0.0611,-0.6942,0.0379,-0.0266,-2.485,0.7875,-15.6187,0,0,0,2.562152964197602
-0.1545,0.9734,0.0572,-0.6942,0.0379,-0.0266,-2.765,1.2862,-15.26,0,0,0,2.574323394101723
-0.1529,0.9734,0.0641,-0.6958,0.038,-0.0322,-2.6075,0.9538,-14.8662,0,0,0,2.5864237488307533
-0.1541,0.9744,0.0658,-0.6942,0.0363,-0.0265,-3.0275,1.1025,-14.7962,0,0,0,2.5986677930602218
-0.1526,0.9741,0.0594,-0.6942,0.0363,-0.0265,-3.4825,1.365,-15.0937,0,0,0,2.6080603439275434
-0.1516,0.9732,0.063,-0.695,0.0411,-0.0266,-2.7213,1.1812,-15.1375,0,0,0,2.620226526851356
-0.1538,0.9756,0.0586,-0.695,0.0411,-0.0266,-2.7125,1.1812,-15.1462,0,0,0,2.6324022654808625
-0.1554,0.9735,0.0579,-0.6946,0.0405,-0.0349,-2.5638,0.6737,-14.77,0,0,0,2.644497311484507
-0.1538,0.9744,0.0617,-0.6928,0.0381,-0.0277,-2.6513,1.085,-14.5862,0,0,0,2.6566620787482167
-0.1532,0.9751,0.0565,-0.6928,0.0381,-0.0277,-2.4588,1.435,-14.805,0,0,0,2.6688141050710006
-0.1559,0.9754,0.0636,-0.693,0.0381,-0.0286,-2.1,0.8925,-15.5137,0,0,0,2.68101603341241
-0.1533,0.9749,0.0582,-0.693,0.0381,-0.0286,-2.765,0.9538,-15.1112,0,0,0,2.69284493531672
-0.1545,0.9745,0.0626,-0.695,0.0379,-0.0302,-3.0888,1.1112,-15.015,0,0,0,2.7050493410633094
-0.1577,0.9745,0.0617,-0.6928,0.038,-0.028,-2.8,1.3212,-15.4525,0,0,0,2.7172937392078036
-0.1537,0.9753,0.0593,-0.6928,0.038,-0.028,-3.0013,1.3825,-15.12,0,0,0,2.729536721692195
-0.1538,0.9752,0.0581,-0.6938,0.0399,-0.0282,-2.9663,1.3912,-14.8662,0,0,0,2.7391228640785803
-0.1502,0.9743,0.0621,-0.6938,0.0399,-0.0282,-3.4038,1.0412,-15.0762,0,0,0,2.751220033572379
-0.1504,0.9742,0.0583,-0.6949,0.0394,-0.0311,-2.8963,1.3037,-15.3825,0,0,0,2.7633837390910116
-0.1554,0.9759,0.0564,-0.6949,0.0381,-0.0279,-3.0275,1.4787,-14.98,0,0,0,2.7755923918179093
-0.1541,0.9742,0.0623,-0.6949,0.0381,-0.0279,-2.975,1.1462,-14.84,0,0,0,2.7877426485655645
-0.1537,0.9739,0.0617,-0.6947,0.0384,-0.0279,-3.1325,1.05,-14.8837,0,0,0,2.800280088351347
-0.1544,0.9741,0.0655,-0.6947,0.0384,-0.0279,-3.2462,1.1025,-15.225,3.836384706228758,-7.992139669472461,2.5153442183278316,23.756025845706496
-0.1546,0.9744,0.06,-0.6943,0.0381,-0.0278,-2.8875,1.33,-15.1637,3.524467691917551,-8.88444739458723,2.491774345836016,23.761143456978264
-0.1529,0.9744,0.0564,-0.6926,0.0371,-0.0278,-2.4063,1.3737,-15.1287,3.313260873809863,-8.901151134106588,2.4819931449949046,23.765992092830494
-0.1527,0.9748,0.0595,-0.6926,0.0371,-0.0278,-3.22,1.4962,-14.9888,3.4924061465848624,-8.888298836227438,2.4911848984080627,23.76857142553787
-0.1514,0.9748,0.0578,-0.694,0.0378,-0.028,-3.1412,0.875,-15.3562,3.393605047372736,-8.821183446625028,2.5003267450645907,23.771145095604833
-0.1503,0.974,0.0578,-0.694,0.0378,-0.028,-3.1588,0.875,-15.3387,3.396108950864936,-8.763995636346992,2.500230278116692,23.773691868129845
-0.1525,0.9752,0.0611,-0.6937,0.0382,-0.029,-2.94,1.2687,-14.5162,3.5845983613405523,-8.858678976909664,2.596106700392044,23.776241825890086
-0.156,0.9762,0.0579,-0.6943,0.0375,-0.0275,-2.6513,0.8575,-15.0062,3.3948463646459874,-9.041541108021221,2.4579391852487715,23.77897157248339
-0.1545,0.9733,0.0611,-0.6943,0.0375,-0.0275,-2.7037,1.2687,-15.2075,3.591556535368055,-9.006767369587873,2.467826982653579,23.781526838969015
-0.1567,0.975,0.059,-0.6958,0.0392,-0.0286,-3.3163,0.9625,-14.665,3.4632571263257255,-9.102303798938586,2.554502412679611,23.78423818198098
-0.1565,0.975,0.0613,-0.6958,0.0392,-0.0286,-2.9488,1.05,-15.0325,3.5971876400730873,-9.101370443148136,2.561783686155853,23.78695695720849
-0.1507,0.9745,0.0638,-0.6946,0.0376,-0.0309,-2.66,1.225,-14.8837,3.745374492388399,-8.809215704955815,2.754545656852867,23.78954407604643
-0.1545,0.9753,0.0598,-0.6933,0.039,-0.0276,-3.1937,1.05,-15.0412,3.509312580422262,-8.965645483162254,2.4821656359622373,23.792087663336208
-0.1545,0.9731,0.0598,-0.6933,0.039,-0.0276,-3.0013,1.6275,-15.05,3.5165604765750853,-9.000281330117614,2.482501244755105,23.79476290701555
-0.1546,0.9743,0.0594,-0.6957,0.0369,-0.027,-3.2462,1.3825,-14.9975,3.4889003269159544,-9.000007617161907,2.4136931320127117,23.79706052336246
-0.1554,0.975,0.0567,-0.6957,0.0369,-0.027,-2.5638,1.295,-15.2775,3.3286584565837396,-9.036251639515795,2.405637878885454,23.798341695755532
-0.1499,0.976,0.0651,-0.695,0.0388,-0.0276,-2.6075,1.2425,-15.3475,3.8146973388819387,-8.748934595421716,2.4902796903436184,23.79958110617557
-0.1555,0.9745,0.0575,-0.6932,0.0379,-0.0266,-2.8963,1.0937,-15.1812,3.377992411012586,-9.017348780458837,2.388064799846701,23.800794680798727
-0.1531,0.9754,0.0621,-0.6932,0.0379,-0.0266,-2.7213,1.3562,-14.7613,3.6421664359933463,-8.915755746222725,2.401340677233162,23.80200719367681
-0.1534,0.9728,0.0592,-0.6943,0.0347,-0.0274,-2.8263,1.155,-15.0412,3.4828897271226866,-8.94161442116429,2.4410631668154434,23.803218998724844
-0.155,0.9738,0.0586,-0.6943,0.0347,-0.0274,-3.5788,1.0325,-14.7087,3.44382081530443,-9.018383796251124,2.4396214352819685,23.804437528158363
-0.154,0.9746,0.0648,-0.6924,0.0385,-0.0246,-3.185,0.8838,-15.05,3.802948651660123,-8.966137289426692,2.250324279166427,23.80565464193178
-0.1555,0.9747,0.0578,-0.6945,0.0402,-0.0277,-2.3712,1.1462,-14.7,3.394795014559993,-9.039549534751469,2.4851031865050737,23.806859722594325
-0.1562,0.9758,0.0615,-0.6945,0.0402,-0.0277,-2.275,1.33,-14.6562,3.6057338150278513,-9.072473475044356,2.4972292570207593,23.808069758067226
-0.1525,0.9742,0.0629,-0.6933,0.0386,-0.0259,-2.975,1.4,-14.9975,3.6939790518063527,-8.900800619883201,2.349182416363714,23.809285810095567
-0.1565,0.9773,0.063,-0.6933,0.0386,-0.0259,-3.325,1.3125,-14.49,3.688387909131968,-9.059066692733014,2.349624983693317,23.810504339529086
-0.1548,0.9739,0.0594,-0.6943,0.0382,-0.0271,-3.01,1.4088,-14.8487,3.490793665205185,-9.020093767005612,2.4326509498503794,23.811714728917014
-0.1573,0.9773,0.0589,-0.6924,0.0398,-0.0282,-2.5638,1.1462,-15.2862,3.449049032210691,-9.11534429160744,2.535733487545147,23.81304084851835
-0.1557,0.9747,0.058,-0.6924,0.0398,-0.0282,-2.3975,1.1025,-15.2512,3.4055164294724642,-9.066190436645867,2.533084516963123,23.814335823597425
-0.1555,0.975,0.0594,-0.6922,0.0377,-0.0251,-2.6775,1.1638,-14.9713,3.4861062878332527,-9.047479631704384,2.272140672005424,23.815576649677563
-0.1535,0.9748,0.06,-0.6922,0.0377,-0.0251,-2.5813,1.0587,-15.2687,3.522075956773489,-8.944853117175887,2.273377954432194,23.8168532211753
-0.1518,0.9745,0.063,-0.6954,0.0386,-0.0303,-2.3712,0.9887,-15.365,3.6984601617401482,-8.84770209806275,2.704432572318365,23.818101479470982
-0.1527,0.9756,0.0566,-0.6936,0.0384,-0.0288,-2.1613,1.3125,-15.3037,3.321353330430904,-8.87723819410999,2.566995302446874,23.81932107064958
-0.1533,0.9744,0.0639,-0.6936,0.0384,-0.0288,-2.3013,1.1025,-14.9975,3.7508465663531454,-8.917102500692852,2.5900049799617237,23.820533937442686
-0.1535,0.9742,0.0619,-0.6929,0.0356,-0.0255,-2.6075,0.9975,-15.0412,3.6359604821083917,-8.934354045308739,2.3004115436087473,23.821742557255487
-0.1564,0.9744,0.0556,-0.6929,0.0356,-0.0274,-2.6513,1.3037,-14.8487,3.2668061016693906,-9.084930308033224,2.439964204150984,23.822948699663108
-0.1533,0.9736,0.0607,-0.6928,0.0346,-0.0274,-2.5638,1.5137,-14.7525,3.5667233109229133,-8.948925583083803,2.4498802727102205,23.824294638505883
-0.1541,0.9739,0.0615,-0.6926,0.0378,-0.0275,-2.905,1.2337,-15.19,3.6131987538939714,-8.970982797509913,2.4761899140853076,23.825640223433634
-0.1549,0.9755,0.0587,-0.6926,0.0378,-0.0275,-2.9138,1.2163,-15.2075,3.444041112667913,-9.00266384990881,2.4674609693406975,23.826990055341692
-0.1523,0.9742,0.0596,-0.6943,0.0377,-0.0308,-2.975,1.2337,-14.8312,3.5007460915047597,-8.884017310609437,2.735687634847127,23.828358998661137
-0.1562,0.9759,0.0606,-0.6943,0.0391,-0.0309,-3.2813,1.2163,-15.6625,3.5531631782830417,-9.05473994305114,2.754175627360519,23.8295863759703
-0.1535,0.9734,0.0592,-0.6945,0.0391,-0.0309,-2.2488,1.1987,-15.1462,3.4805117124864795,-8.957438872760356,2.7488158140781236,23.830798888848385
-0.1535,0.9732,0.0595,-0.6946,0.0396,-0.0272,-2.7037,1.3737,-15.2075,3.4985745789968434,-8.948031370720816,2.446557347004196,23.8320036155959
-0.1568,0.9743,0.0587,-0.6946,0.0396,-0.0272,-1.8637,1.3037,-14.7788,3.447948228463585,-9.106113975732887,2.444358630809412,23.83321400498383
-0.1542,0.9717,0.0586,-0.6918,0.0371,-0.0248,-2.6775,0.98,-14.8225,3.451129744870124,-9.012519958752181,2.243797441691274,23.83442014739145
-0.1551,0.9749,0.0595,-0.693,0.0373,-0.0242,-3.0275,0.5163,-14.805,3.4924254198695843,-9.022000918345485,2.1933144276436622,23.83563230635451
-0.1558,0.9733,0.0641,-0.693,0.0373,-0.0242,-2.6338,0.8487,-15.015,3.7672186013722824,-9.069364166766379,2.2077750254433273,23.836837387017052
-0.1582,0.9763,0.0572,-0.6935,0.0379,-0.0276,-2.5288,1.2425,-14.84,3.3541698313100157,-9.175318304414114,2.4688957176920208,23.838042467679593
-0.1545,0.9744,0.0616,-0.6935,0.0379,-0.0276,-2.6075,1.3125,-15.1637,3.6166173197261164,-9.01286651770541,2.482042613051071,23.83925144140742
-0.1534,0.9747,0.0578,-0.6931,0.0386,-0.0297,-2.9663,1.2512,-14.6825,3.394289491610252,-8.938008296939254,2.648054648035367,23.8404763413114
-0.1564,0.9755,0.0626,-0.6934,0.0386,-0.0304,-3.0363,1.4875,-14.6037,3.671007036685932,-9.072621032281655,2.720471251844522,23.841680360228867
-0.1524,0.9744,0.0628,-0.6934,0.0386,-0.0304,-3.0188,1.33,-14.8487,3.687562870469208,-8.894031033495759,2.7202778623216965,23.842883671316283
-0.1549,0.9766,0.0655,-0.6933,0.0357,-0.0269,-2.5288,1.295,-14.56,3.836641916184686,-8.981647173581717,2.425595634815789,23.8441255591415
-0.1532,0.975,0.0559,-0.6933,0.0357,-0.0269,-2.8175,1.4437,-15.1112,3.282877008694949,-8.922989610113701,2.3976176102469338,23.845456633553198
-0.1588,0.9745,0.0612,-0.693,0.0372,-0.0294,-2.73,1.015,-15.0237,3.592692601466464,-9.202952594268716,2.629339779440475,23.846701706613644
-0.1557,0.9727,0.0607,-0.6959,0.0375,-0.0275,-2.73,1.33,-15.3825,3.5708930703242907,-9.091141571545776,2.461566021805944,23.84792731434768
-0.1516,0.973,0.0583,-0.6959,0.0375,-0.0275,-3.36,1.1638,-14.91,3.4293233033251926,-8.868221238281507,2.4530438884141743,23.84914973684648
-0.156,0.9753,0.0642,-0.6946,0.0395,-0.0291,-2.835,1.2425,-15.0587,3.7651962722581986,-9.045744078103063,2.6177317633792203,23.850368974110054
-0.1531,0.9749,0.0601,-0.6946,0.0395,-0.0291,-2.5463,1.1725,-14.8312,3.5283145382627272,-8.923628347105735,2.60410271691326,23.851594227929063
-0.1541,0.9737,0.0569,-0.6933,0.039,-0.0333,-2.4938,0.8225,-14.84,3.3448839048886105,-8.972258188743721,2.944066554696993,23.85281700434289
-0.1532,0.9755,0.0639,-0.6937,0.0367,-0.0302,-2.8438,1.1725,-15.3037,3.7467015559226984,-8.913822980167918,2.696996945199417,23.85403234854118
-0.1534,0.9756,0.0603,-0.6937,0.0367,-0.0302,-3.045,1.1112,-15.015,3.5374165153206256,-8.918501345064652,2.68625296556039,23.855247692739468
-0.1526,0.975,0.0637,-0.6958,0.0375,-0.0277,-3.0538,1.015,-15.1287,3.737465511001181,-8.881314016873814,2.486144893033492,23.856480378774016
-0.1535,0.9736,0.0568,-0.6958,0.0375,-0.0277,-2.94,1.0675,-14.9362,3.339946746392887,-8.937684040433613,2.4656797377878332,23.857696430802356
-0.1544,0.9742,0.0593,-0.6937,0.038,-0.0306,-3.3775,1.155,-15.4437,3.482931614662561,-8.98371280554038,2.722523162904947,23.858906820190285
-0.1534,0.975,0.065,-0.6962,0.0394,-0.0231,-3.2288,0.9887,-14.5862,3.8131725836455574,-8.928527821077639,2.1198065151181016,23.86019188564864
-0.1512,0.9747,0.0568,-0.6962,0.0394,-0.0231,-2.4763,0.8575,-14.63,3.336401884513002,-8.81653327962718,2.0927636093755093,23.861449345734986
-0.1543,0.9742,0.0607,-0.6953,0.0385,-0.0282,-2.8087,1.2075,-14.8575,3.5647265943312156,-8.964334543577126,2.524857331854,23.86268344742964
-0.1565,0.9737,0.0593,-0.6953,0.0385,-0.0282,-2.7213,1.435,-14.91,3.4853233556623886,-9.0970596163249,2.5214890584968352,23.863910116908748
-0.1568,0.9726,0.0601,-0.6939,0.0398,-0.0285,-2.5638,1.295,-14.9275,3.5358518336886258,-9.136147821557385,2.560004538180092,23.865143864688374
-0.1538,0.9734,0.0604,-0.694,0.0371,-0.0266,-2.0913,1.1638,-14.9275,3.550641674581868,-8.981154203277107,2.390466787168816,23.866358501056613
-0.1546,0.9723,0.0601,-0.694,0.0371,-0.0266,-2.7913,1.4612,-15.155,3.537114793401536,-9.013507866298829,2.389903186481279,23.867603928032086
-0.1516,0.9744,0.0606,-0.6937,0.0378,-0.0289,-2.6425,1.2425,-15.4175,3.5587034638972517,-8.847578154914675,2.584358558747223,23.868834136661455
-0.1534,0.9731,0.057,-0.6937,0.0378,-0.0289,-2.3712,1.225,-15.4,3.3528700831266742,-8.932590252339441,2.5742424003944655,23.870050188689795
-0.153,0.9762,0.0617,-0.6946,0.0359,-0.0231,-2.3888,1.1375,-15.5225,3.6158100718160453,-8.894784339440452,2.096999863019355,23.871257038927467
-0.1536,0.975,0.0605,-0.6937,0.0392,-0.0278,-3.0538,1.5662,-15.4787,3.5509013064854726,-8.931015355107002,2.499790987539929,23.872478045766165
-0.1556,0.9736,0.0601,-0.6937,0.0392,-0.0278,-2.4675,1.12,-15.5487,3.532417356822322,-9.04855332102426,2.4996374461357136,23.873697636944765
-0.155,0.9722,0.0597,-0.6951,0.0379,-0.0281,-2.3975,1.365,-15.1112,3.514006456707217,-9.04257433342451,2.5124485791390216,23.87505242366318
-0.1559,0.9745,0.058,-0.6951,0.0379,-0.0281,-2.7037,1.26,-14.91,3.40638862116047,-9.069876109292355,2.50695468207609,23.876293957573374
-0.1549,0.9742,0.061,-0.6948,0.0381,-0.0334,-3.1588,1.085,-14.9975,3.5824441539426153,-9.022983579678206,2.9549029023366544,23.877541154123975
-0.1515,0.9745,0.0584,-0.6947,0.0388,-0.0278,-3.4125,1.33,-14.7175,3.4299463025800296,-8.844052935980816,2.4879665360152208,23.878756498322264
-0.1532,0.9745,0.0567,-0.6947,0.0388,-0.0278,-2.6775,1.33,-15.2775,3.3301973822402706,-8.910877920767373,2.482735192002641,23.879982459971323
-0.1514,0.9739,0.0625,-0.6931,0.0383,-0.0278,-3.4825,1.2075,-15.4437,3.670987700889879,-8.828818961644526,2.5039770165775344,23.881206652045257
-0.1511,0.9738,0.058,-0.6931,0.0383,-0.0278,-3.4563,0.8487,-14.8662,3.4092531933112555,-8.807229853872496,2.4899631283090606,23.882419164923338
-0.1617,0.9764,0.0581,-0.6935,0.039,-0.0337,-2.9313,1.015,-14.875,3.4053406541545006,-9.3234527669177,2.9817324014366657,23.88363096997137
-0.1596,0.9739,0.0634,-0.6931,0.0388,-0.0282,-2.7738,1.5312,-14.9975,3.7237783468899077,-9.291617087702132,2.544742333920923,23.88484808374479
-0.1427,0.9733,0.0625,-0.6931,0.0388,-0.0282,-2.7738,1.155,-14.8225,3.674311789806579,-8.431781872212195,2.537446343986221,23.88607369147882
-0.1537,0.9749,0.062,-0.6935,0.0392,-0.0283,-2.0738,1.4875,-14.6562,3.6389932990835616,-8.882640962935865,2.5469008528580193,23.887289389592137
-0.1493,0.9787,0.0573,-0.6935,0.0392,-0.0283,-2.7213,1.1638,-14.7262,3.3514585407353783,-8.683885577050825,2.5300119936783037,23.88855038882874
-0.1523,0.9721,0.0605,-0.6929,0.0362,-0.0344,-3.0888,1.155,-14.595,3.560717968830019,-8.864646858372579,3.0352434386080196,23.889808202830118
-0.1532,0.9767,0.0642,-0.6942,0.0358,-0.0284,-3.0975,1.05,-14.9713,3.7601853181330855,-8.892184389241374,2.5428189192375776,23.891087605648057
-0.1593,0.9738,0.0637,-0.6942,0.0358,-0.0284,-3.0188,1.12,-14.9275,3.7426528916955415,-9.229015175975867,2.543432175027906,23.892391428602775
-0.1595,0.9746,0.0611,-0.6926,0.0381,-0.0272,-2.2225,1.1462,-14.9362,3.587736380521077,-9.271271404398,2.4528480174010516,23.89362836161763
-0.1559,0.9721,0.0639,-0.6926,0.0381,-0.0272,-2.7913,1.26,-14.7,3.760397722704335,-9.112106284052485,2.461090656803562,23.894858570247
-0.1543,0.9758,0.0534,-0.6949,0.0393,-0.033,-2.5288,1.295,-14.77,3.1340566569366453,-8.988186223550105,2.902265223251182,23.89607709968052
-0.1529,0.9747,0.0581,-0.6933,0.0385,-0.029,-2.5288,1.2512,-14.21,3.4105014533128926,-8.909676193569721,2.5901122439393904,23.89731049354512
-0.1491,0.9768,0.0507,-0.6933,0.0385,-0.029,-2.0125,1.0325,-14.735,2.9724169132562155,-8.693850721496469,2.565323846935143,23.898552381370337
-0.1501,0.9745,0.0569,-0.6946,0.0384,-0.0281,-2.94,1.225,-14.4812,3.3406392391027184,-8.736300716332577,2.5060247868534526,23.899784005659807
-0.1516,0.9768,0.0576,-0.6946,0.0384,-0.0281,-2.6163,1.0762,-15.6275,3.374620287651881,-8.799110146451312,2.5080303508687516,23.90109242950986
-0.1561,0.9714,0.0634,-0.6937,0.0382,-0.0306,-3.29,1.6712,-15.0062,3.7332260439121563,-9.073361695970851,2.7372408953134784,23.902337502570308
-0.1596,0.9746,0.0632,-0.6926,0.0376,-0.0277,-2.7037,1.6013,-14.875,3.7103336309988144,-9.25669866703394,2.4984825588061153,23.903625753263892
-0.1571,0.9745,0.0584,-0.6926,0.0376,-0.0277,-2.9488,1.47,-14.4025,3.430293965246549,-9.15504467470748,2.4830343967027986,23.904863040193774
-0.1493,0.9758,0.059,-0.6947,0.039,-0.0285,-2.8788,1.4,-14.7788,3.4599933224541113,-8.737316669276492,2.5472797693089078,23.906139257776484
-0.1472,0.9742,0.062,-0.6947,0.039,-0.0285,-2.835,0.9625,-15.1462,3.6410107372040086,-8.592879111721166,2.556619174937791,23.907417244934326
-0.1485,0.9733,0.057,-0.6946,0.0376,-0.0233,-2.8612,1.4262,-14.8837,3.3524094529103245,-8.652575012376547,2.1068487806557523,23.908666564975082
-0.1504,0.9782,0.0606,-0.6931,0.0368,-0.0279,-2.3275,1.0587,-14.6825,3.544449616096082,-8.716500384599199,2.497996180692637,23.909902790159887
-0.1563,0.973,0.0626,-0.6931,0.0368,-0.0279,-3.3775,1.0325,-14.9713,3.680798210272745,-9.064430956414087,2.506943016311384,23.91115317194572
-0.1618,0.9709,0.0667,-0.6942,0.0358,-0.0264,-3.2813,1.1638,-15.4525,3.929317124256345,-9.397719999971779,2.3882212249866477,23.91237842576473
-0.1571,0.973,0.0619,-0.6942,0.0358,-0.0264,-3.1588,0.9975,-14.805,3.6409067405947817,-9.180307295896819,2.3724824592870015,23.913602971753686
-0.1565,0.9745,0.0632,-0.6933,0.04,-0.0286,-2.7738,0.9187,-15.3912,3.7104610552513253,-9.112917330475227,2.5807615049807815,23.914827163827617
-0.1555,0.9769,0.0612,-0.6946,0.0379,-0.0286,-2.5988,0.8925,-14.5687,3.5850744971631134,-9.036194101501696,2.5591758658737187,23.916049232411396
-0.1499,0.9728,0.058,-0.6946,0.0379,-0.0286,-2.1263,0.9975,-14.9275,3.412503298171358,-8.776497295681844,2.548824488402618,23.917275194060455
-0.1498,0.9732,0.0578,-0.6939,0.0386,-0.0282,-2.59,1.5662,-14.9713,3.3989379559565878,-8.740222331730497,2.520659394779155,23.918501863539568
-0.1535,0.9737,0.0575,-0.6939,0.0386,-0.0282,-2.7562,0.77,-14.7962,3.3796210600835446,-8.921709142689043,2.520533864749513,23.91972180863319
-0.1523,0.976,0.0635,-0.6946,0.0381,-0.0259,-2.8788,0.7875,-14.595,3.7215680814619936,-8.858367696220494,2.3438168719051995,23.920952371177584
-0.1485,0.9728,0.0597,-0.693,0.0377,-0.0289,-2.8788,1.3562,-14.8225,3.512365387178374,-8.685486781069642,2.5832645506982024,23.922210539093985
-0.1491,0.9801,0.0607,-0.693,0.0377,-0.0289,-3.2025,1.5137,-15.0062,3.5438558505605795,-8.6396532991618,2.584965657050983,23.923428360697454
-0.1502,0.973,0.0622,-0.6922,0.0378,-0.0227,-3.64,1.1375,-15.05,3.657402511460375,-8.744642790324678,2.0818189946950127,23.92464193532061
-0.1591,0.9774,0.0572,-0.6922,0.0378,-0.0227,-3.2638,0.8838,-15.3825,3.3501180707781706,-9.177487105206968,2.066982896709761,23.925866835224596
-0.1545,0.9728,0.0681,-0.6922,0.0388,-0.0286,-3.15,1.0412,-15.7587,4.002625053857001,-9.021886352052165,2.594130313219476,23.927092796873655
-0.1583,0.9725,0.0566,-0.6935,0.0382,-0.0304,-2.8438,0.84,-15.0412,3.332714650842702,-9.207582735897585,2.7009107747884102,23.928315927202508
-0.1478,0.9719,0.0625,-0.6935,0.0382,-0.0304,-2.8087,1.3912,-14.7262,3.6785111832427244,-8.695460789543544,2.7164072895706837,23.92955250630234
-0.1524,0.9771,0.0576,-0.6932,0.037,-0.0308,-2.4763,1.1987,-15.1725,3.3745080863412067,-8.83269026141391,2.730453832264534,23.930783776676787
-0.1513,0.9772,0.0549,-0.6932,0.037,-0.0273,-3.3338,1.0587,-14.9713,3.2159828944197115,-8.792555527156773,2.4327572121327936,23.932001244365228
-0.1515,0.9704,0.066,-0.6952,0.0359,-0.0273,-2.5113,1.2075,-15.155,3.8890414171057737,-8.846521207348577,2.454825736598425,23.9332204816288
-0.1577,0.9737,0.0654,-0.6948,0.0389,-0.028,-2.415,1.2075,-15.0587,3.8427105747344785,-9.142110576351007,2.528019903020557,23.934441842382526
-0.1547,0.9737,0.062,-0.6948,0.0389,-0.028,-2.45,1.2163,-14.6212,3.6439116440816823,-9.024512726123785,2.516595605573383,23.935660371816045
-0.1566,0.9744,0.0562,-0.6926,0.0394,-0.0267,-3.1937,1.575,-15.4787,3.301898366639617,-9.104681907413799,2.401027404331917,23.936872530779105
-0.154,0.9752,0.0617,-0.6944,0.0398,-0.027,-3.0013,1.4787,-15.2425,3.6193586510140743,-8.973362680674235,2.4381693766790233,23.938195111230183
-0.1501,0.9749,0.057,-0.6944,0.0398,-0.027,-2.6688,1.1812,-14.8662,3.346876914216239,-8.764362990874748,2.4221470896118262,23.9394508017414
-0.1519,0.9761,0.0589,-0.6948,0.0394,-0.0274,-2.975,1.33,-14.175,3.452875596278303,-8.822169983754481,2.4582446067280808,23.940681364285798
-0.153,0.9751,0.0572,-0.6948,0.0394,-0.0274,-2.8875,1.1638,-14.77,3.3574210113512932,-8.893408749642006,2.4533402112656955,23.941893169333827
-0.1562,0.9745,0.061,-0.6936,0.0394,-0.03,-2.6425,1.155,-15.3737,3.581214482906087,-9.067080469059293,2.6853817243733302,23.943103558721756
-0.1532,0.9749,0.0621,-0.6938,0.0376,-0.0262,-2.66,1.2862,-15.2862,3.6445776441627324,-8.930317863948309,2.3651726069635215,23.94431430202471
-0.1524,0.9722,0.0605,-0.6938,0.0376,-0.0262,-3.045,1.3562,-15.295,3.561151910508528,-8.89648472355564,2.360505872189033,23.945541325418848
-0.1514,0.9752,0.0601,-0.6934,0.0386,-0.0284,-2.6338,1.0937,-14.7175,3.526680111529582,-8.818035868590359,2.545999806446869,23.94675560787206
-0.1543,0.9744,0.0604,-0.6934,0.0386,-0.0284,-2.2138,1.1987,-14.8837,3.546991956778939,-8.963065922417872,2.5480039490321733,23.947959980704553
-0.1549,0.9783,0.0584,-0.6958,0.0393,-0.031,-2.3187,1.2337,-14.8312,3.4165951548664775,-8.979481810791281,2.749417799494906,23.949163291791965
-0.1535,0.9737,0.0592,-0.695,0.0413,-0.0292,-2.7125,1.1987,-14.9625,3.479073633706979,-8.946620415740178,2.6164260840911973,23.950366248964354
-0.1545,0.9758,0.0586,-0.695,0.0413,-0.0292,-2.8875,1.3125,-15.085,3.4367880906891943,-8.977221560382826,2.614080972566599,23.951567436561614
-0.1539,0.974,0.0605,-0.6947,0.0381,-0.0273,-2.73,1.2163,-15.0675,3.554040311907107,-8.963687557789116,2.4506318363263073,23.952810032216885
-0.1553,0.9759,0.0589,-0.6947,0.0381,-0.0273,-2.3363,0.7088,-15.0762,3.4541432343676477,-9.019214677662992,2.4455121123413814,23.954064307068002
-0.1538,0.9731,0.0594,-0.6937,0.0392,-0.0334,-2.7825,0.7788,-15.3475,3.49301036935306,-8.970774737769064,2.9593260973108597,23.955303009657985
-0.1532,0.9738,0.0615,-0.6934,0.0394,-0.0273,-2.9138,1.0587,-15.2163,3.6133671443770914,-8.928357264547042,2.4644302103006988,23.956519415601353
-0.151,0.9752,0.063,-0.6934,0.0394,-0.0273,-3.325,1.0762,-14.7,3.696067188187585,-8.799716286029115,2.468002173112963,23.957748208570617
-0.1524,0.9748,0.0637,-0.6933,0.0381,-0.0279,-3.3338,1.7237,-14.9275,3.7386601556449772,-8.859064127526567,2.5142986687866085,23.958980186775115
-0.154,0.9736,0.0593,-0.6933,0.0381,-0.0279,-3.1588,1.5837,-14.84,3.486153537914694,-8.958783793822446,2.5014605827898775,23.960190576163043
-0.1548,0.973,0.0621,-0.6934,0.0393,-0.0286,-3.0975,1.0237,-14.9713,3.6513971393810873,-9.014788517176841,2.5735599612044484,23.96141689172713
-0.1523,0.9756,0.0625,-0.6941,0.0402,-0.0291,-2.9225,1.3387,-14.7175,3.6654999969223927,-8.873082678534347,2.6164938506731747,23.962644976866343
-0.1538,0.9762,0.0594,-0.6941,0.0402,-0.0291,-2.5288,1.4612,-15.05,3.482549981856484,-8.929699004315653,2.606704597886513,23.963868107195196
-0.1519,0.9728,0.0603,-0.693,0.0374,-0.0278,-2.3888,1.1987,-15.0325,3.54682392557029,-8.866179636689301,2.4938638616814774,23.965089467948925
-0.1549,0.9761,0.0594,-0.693,0.0374,-0.0278,-3.2288,0.84,-14.6825,3.482582465695611,-8.986369687255447,2.491093534408878,23.966315075682957
-0.1527,0.9752,0.0628,-0.6946,0.0364,-0.0269,-2.7388,0.84,-15.0412,3.68404163405708,-8.892507864973325,2.416293075090404,23.967540683416992
-0.1532,0.975,0.0595,-0.6951,0.0373,-0.0266,-2.625,1.4088,-15.12,3.4927027547664546,-8.911055940575435,2.3843130870265568,23.968782925157235
-0.1566,0.9767,0.0577,-0.6951,0.0373,-0.0266,-2.1875,1.2163,-15.0237,3.38120734243363,-9.073003604997027,2.379339521575731,23.969997207610447
-0.1523,0.972,0.0594,-0.6934,0.0366,-0.0293,-2.8875,1.0587,-14.56,3.496744374885361,-8.909085389044572,2.6102144120655018,23.971239095435664
-0.1532,0.9748,0.0565,-0.6934,0.0366,-0.0293,-3.3513,0.8663,-15.0412,3.3176762725565108,-8.91601186066294,2.601405372339211,23.972461517934466
-0.153,0.9748,0.0588,-0.6939,0.0378,-0.0268,-3.395,1.0937,-14.8575,3.4515367558131356,-8.9054854049798,2.4051372878069306,23.973670845577317
-0.1519,0.976,0.0569,-0.6946,0.0384,-0.0284,-2.8612,1.0587,-14.665,3.3368334191972884,-8.839661631629923,2.530783892810721,23.97488442020048
-0.1534,0.9739,0.0596,-0.6946,0.0384,-0.0284,-2.345,1.2775,-15.05,3.5015277640636704,-8.924001014965663,2.5401237673957096,23.976112505339692
-0.1543,0.9755,0.0613,-0.693,0.0378,-0.0281,-2.87,1.225,-15.5487,3.595457782424725,-8.96564106777721,2.5235090885038414,23.97733209651829
-0.1529,0.9754,0.0584,-0.693,0.0378,-0.0281,-2.6688,1.2337,-14.945,3.4268325723487543,-8.901423180308175,2.5142800273569366,23.978565490382888
-0.1494,0.9751,0.0635,-0.6937,0.0378,-0.023,-2.8525,1.61,-15.2163,3.725113455138046,-8.717180798655065,2.105436887215264,23.979790744201896
-0.1534,0.9755,0.0569,-0.6931,0.0373,-0.0293,-2.6075,1.645,-15.3825,3.3392789965613887,-8.897716364563427,2.606239908779142,23.981019891086188
-0.1538,0.9756,0.061,-0.6931,0.0373,-0.0293,-2.2575,1.015,-14.9625,3.577148715453839,-8.93676735763333,2.619021663441547,23.9822341735394
-0.1577,0.9755,0.0587,-0.6954,0.0405,-0.0291,-3.01,1.365,-14.7788,3.4439430682739753,-9.140515601640415,2.602129490247761,23.98347110655426
-0.1533,0.9745,0.0594,-0.6954,0.0405,-0.0291,-2.3712,0.8312,-14.4987,3.4879904371679653,-8.947016374404406,2.603479951649155,23.984698837778446
-0.1518,0.9716,0.0567,-0.6938,0.0376,-0.029,-2.0125,1.0762,-15.0675,3.3402441752263825,-8.87413763869633,2.5802802436473993,23.985913120231658
-0.1536,0.9748,0.0617,-0.6938,0.0362,-0.0277,-2.9925,1.54,-14.7262,3.620940621788973,-8.929619134634793,2.4813540336846676,23.987133419240305
-0.1533,0.9743,0.0594,-0.6938,0.0362,-0.0277,-2.9225,1.015,-14.6562,3.4891844229299127,-8.925966521491032,2.4745935483976838,23.988361150464495
-0.157,0.976,0.0611,-0.6963,0.0378,-0.0274,-2.7825,1.2512,-14.5862,3.5819288862339724,-9.098872844815482,2.453998169251834,23.9895726015975
-0.1535,0.9747,0.0583,-0.6963,0.0378,-0.0274,-2.31,1.0325,-14.595,3.423402142090863,-8.952085660966038,2.444833220194938,23.99079183886107
-0.153,0.9751,0.0561,-0.6954,0.0381,-0.0276,-2.6075,0.8925,-14.8925,3.293098528051655,-8.908233599622957,2.458748853396492,23.9920146152749
-0.1524,0.9748,0.0601,-0.695,0.0384,-0.029,-2.6425,1.225,-15.3037,3.5273904463578263,-8.87349742951532,2.5891601693690047,23.993255795270066
-0.153,0.9751,0.0605,-0.695,0.0384,-0.029,-2.8263,1.6013,-15.1812,3.5502983282907343,-8.897390012128458,2.5905754970012,23.99449732918026
-0.1523,0.9758,0.0662,-0.693,0.0378,-0.029,-2.9488,1.435,-15.2337,3.8801995394423585,-8.856299507887352,2.6122480288257792,23.99573780134537
0.0944,0.8927,0.2694,-0.2087,0.1284,0.0765,-8.3562,6.5188,-18.8125,16.757141488465457,1.736035870675849,10.595930494511897,23.99794375370062
0.0895,0.8938,0.2737,-0.2078,0.1289,0.0757,-6.37,6.4488,-17.1588,17.024930931242885,4.457140635864833,10.175901033326276,23.99914600304296
0.0902,0.8964,0.275,-0.2078,0.1289,0.0757,-6.0375,5.4775,-15.9162,17.055023941160695,5.2722251139641845,10.158043852828989,24.00050043584635
0.091,0.898,0.2756,-0.208,0.1287,0.0777,-4.9788,5.3113,-14.875,17.061453914596182,5.4792454425638715,10.71635925835482,24.001717195704746
0.0931,0.8975,0.2709,-0.2078,0.129,0.0771,-3.7625,3.9025,-14.5075,16.796557534583744,5.64049864904877,10.75310950288245,24.003010047293664
0.1133,0.9083,0.2669,-0.2078,0.129,0.0771,-3.0975,3.3425,-14.98,16.37634321033682,6.6503604099098785,11.250307332169266,24.004226099322004
0.1246,0.9187,0.2586,-0.2088,0.1286,0.076,-2.4413,3.4213,-15.715,15.722880499154627,7.320781115011877,11.497355182682545,24.00542445559906
0.1236,0.9253,0.2546,-0.2088,0.1286,0.076,-2.9488,3.9638,-16.03,15.385375720012908,7.33590637856053,11.725174204428,24.006615025745546
0.125,0.9216,0.2607,-0.2088,0.1288,0.0762,-3.3163,4.4625,-16.5112,15.793903687829799,7.418180942232849,11.485443201682752,24.00779285495111
0.1224,0.9132,0.2542,-0.2061,0.1304,0.0794,-4.06,5.2588,-16.7038,15.555823517975115,7.370015351944051,12.610697329696274,24.008972453731804
0.1057,0.9051,0.2553,-0.2061,0.1304,0.0794,-4.0425,5.7488,-16.4587,15.751539881075496,6.631024646771661,12.28373404130834,24.010147097702134
0.0698,0.8995,0.2572,-0.207,0.1304,0.077,-3.745,5.845,-17.0187,15.956612143549247,4.817607477258884,11.051003564923324,24.01132315733257
0.0685,0.908,0.2632,-0.207,0.1304,0.077,-3.535,4.6813,-16.5287,16.164605320455184,4.267688600762707,10.881770161630678,24.012500986538132
0.0663,0.9187,0.2621,-0.2074,0.1283,0.0758,-3.7975,3.675,-16.5112,15.923812325590196,4.015942948062075,10.835980106922188,24.01367952357375
0.0649,0.9207,0.263,-0.2074,0.1283,0.0734,-3.5875,2.6775,-17.2375,15.942058290232442,3.896064590689978,10.15879448316993,24.014856291034235
0.0586,0.9242,0.2622,-0.2049,0.127,0.0734,-3.9463,2.2838,-17.7537,15.83917688081316,3.5422711370255895,10.400805454844685,24.016045091605594
0.0607,0.924,0.2644,-0.2074,0.1306,0.077,-4.13,1.4175,-17.78,15.96797194399433,3.6056649578001885,10.90572756033624,24.01724663311788
0.0595,0.9289,0.258,-0.2074,0.1306,0.077,-4.165,0.5775,-17.8762,15.523737153942758,3.5394328706550104,11.210529391709215,24.018432602369035
0.0578,0.9329,0.2641,-0.2056,0.1301,0.078,-4.97,0.1663,-17.5525,15.805816432803592,3.424440707828531,11.396157907659305,24.019619987280294
0.056,0.9229,0.2674,-0.2056,0.1301,0.078,-5.7838,-0.3325,-16.0387,16.15738960448661,3.343992791507081,11.13332043145808,24.02081161917186
0.0519,0.9301,0.2637,-0.203,0.131,0.0775,-5.5825,-0.8225,-15.4088,15.829883161379104,3.0976761344485233,11.27166423735285,24.022000065828195
0.0495,0.935,0.2661,-0.2063,0.1298,0.0792,-5.2413,-1.7675,-13.545,15.886141838342192,2.9302864885035818,11.567138097000663,24.02319665253012
0.0497,0.9506,0.2638,-0.2063,0.1298,0.0792,-5.5037,-1.54,-12.1363,15.510841981859363,2.888017306437046,11.827601806361752,24.024388638336713
0.0621,0.9421,0.265,-0.2069,0.1299,0.0791,-6.1338,-2.31,-11.6988,15.710026605793134,3.5711098764880784,11.736482383969859,24.027591923234414
0.0676,0.9453,0.2655,-0.2069,0.1299,0.0791,-6.3,-3.185,-11.4888,15.688159502973907,3.9108953024773068,11.802240784106267,24.039800575961312
0.0718,0.9387,0.2668,-0.2062,0.1297,0.0778,-6.2913,-3.3425,-11.9175,15.86587210284971,4.185901758542475,11.420618135690603,24.052041788870575
0.0712,0.9336,0.2713,-0.2073,0.1292,0.0821,-5.985,-3.4738,-13.0025,16.20270187350823,4.18835136071383,12.312740768126318,24.064335381203644
0.0714,0.9215,0.2668,-0.2073,0.1292,0.0821,-5.8275,-3.2813,-13.58,16.14735948962633,4.2513582858557895,12.365205136143828,24.076535186054898
0.0742,0.9225,0.2691,-0.2074,0.129,0.0831,-5.9675,-3.5263,-13.8775,16.26203551233159,4.403353989178764,12.588743192123914,24.08594330918335
0.0828,0.9237,0.2663,-0.2074,0.129,0.0831,-4.8038,-4.1737,-14.2537,16.0826086287326,4.8865247436502965,12.808879876158482,24.09823017713093
0.0861,0.9345,0.2677,-0.2066,0.1306,0.0855,-3.8063,-3.955,-13.6325,15.985333309133397,5.049186420342721,13.493835669914647,24.110142956896333
0.0896,0.9426,0.2692,-0.2099,0.1306,0.0792,-3.6925,-3.7713,-13.9912,15.939099622496544,5.209969281972228,11.639431994370872,24.122318341610814
0.091,0.9393,0.2653,-0.2099,0.1306,0.0792,-4.4363,-3.5175,-13.8337,15.77249100156109,5.317938061855083,11.775616283734083,24.134422235490103
0.0984,0.9321,0.2685,-0.21,0.1292,0.0805,-4.1912,-2.1963,-13.6937,16.068722256109407,5.753977301851152,12.091222866024651,24.14657320006781
0.0985,0.9283,0.2629,-0.21,0.1292,0.0805,-4.3838,-1.1025,-13.8512,15.813133303813725,5.822584098330013,12.281876517071266,24.15871319327972
0.0989,0.928,0.2647,-0.2083,0.1297,0.086,-4.5062,0.0438,-14.2537,15.919821292427846,5.848694966724886,13.782808797773324,24.167908259562694
0.1086,0.929,0.2669,-0.2083,0.1264,0.0807,-4.9963,0.2888,-15.5662,16.028961963880473,6.353526999981808,12.594644342350625,24.179916950300065
0.0977,0.9283,0.2652,-0.2101,0.1264,0.0807,-5.6,1.505,-15.7325,15.94399915695144,5.845127272592221,12.427280211990606,24.192013058048786
0.0826,0.9302,0.2625,-0.2123,0.131,0.0825,-5.3025,2.625,-14.5775,15.759434272528383,5.012502623950753,12.42551980125182,24.20410421098715
0.0785,0.9344,0.2683,-0.2123,0.131,0.0825,-6.6413,3.4388,-13.0987,16.019966413338096,4.675633678995539,12.193920536436,24.216200672650896
0.0813,0.9322,0.2706,-0.2085,0.1282,0.0852,-7.3238,4.235,-11.445,16.186551692418853,4.768689902308029,13.262102368918983,24.22821325645355
0.081,0.9362,0.2754,-0.2085,0.1282,0.0852,-7.5775,4.585,-10.7537,16.391623999957098,4.749146323542238,13.10968811106555,24.237424956742736
0.0822,0.9292,0.277,-0.2095,0.129,0.087,-8.82,4.0425,-9.6775,16.5990535215986,4.829896832710623,13.338407601992541,24.2501411236165
0.0861,0.9166,0.2786,-0.2093,0.1289,0.0855,-8.89,4.34,-9.065,16.90576559131388,5.082886234780884,12.79250155281805,24.261510643817438
0.0895,0.9099,0.2835,-0.2093,0.1289,0.0855,-8.3562,4.13,-9.5375,17.304503538148882,5.317955864925282,12.546918758829841,24.27353349115584
0.0967,0.9093,0.2929,-0.2076,0.1286,0.087,-7.7088,3.745,-10.2725,17.853058502845244,5.707725002979378,12.761771870608158,24.285523778311873
0.0958,0.9088,0.2919,-0.2076,0.1286,0.087,-7.7788,3.3513,-10.9987,17.8067714447674,5.727765428114613,12.787844578208311,24.29478644236476
0.0941,0.904,0.2901,-0.2122,0.1286,0.0895,-7.6125,3.6575,-11.0862,17.79184474289171,5.670757294315298,13.161467914977088,24.306939176517595
0.0885,0.9031,0.2902,-0.2122,0.1286,0.0909,-6.755,3.4913,-11.41,17.81410396357177,5.381363810013398,13.451828232466445,24.319026436390676
0.088,0.9057,0.2863,-0.2098,0.127,0.0909,-5.9412,2.6075,-11.9525,17.542965063420713,5.304730640495282,13.923173927066097,24.330980624214085
0.0936,0.9118,0.2942,-0.2124,0.1278,0.0878,-5.7575,2.6863,-12.4862,17.88180349322333,5.542866561337524,12.681671903665112,24.343072131067473
0.0991,0.9193,0.2893,-0.2124,0.1278,0.0878,-5.7663,2.6338,-12.7925,17.469712182708953,5.827244759811669,13.030135648028992,24.35224490070383
0.1002,0.9231,0.2969,-0.2125,0.1294,0.0906,-6.195,2.3975,-13.4312,17.828548472058458,5.890303758479944,13.390734511753914,24.364348086753065
0.0939,0.9204,0.2947,-0.2125,0.1294,0.0906,-6.3438,2.45,-14.3238,17.75458749588264,5.593870630614069,13.376448457356629,24.376414819554654
0.0726,0.9128,0.2957,-0.2123,0.1267,0.0914,-6.16,2.1088,-15.05,17.949107288371472,4.484792051507525,13.439113219618337,24.38846102528475
0.0606,0.906,0.2935,-0.2138,0.127,0.0897,-6.3,0.7613,-15.33,17.949804130089312,3.7309247037866258,12.763183439773492,24.400548639072856
0.0601,0.9032,0.2955,-0.2138,0.127,0.0897,-6.755,-0.1488,-15.0062,18.116088159960608,3.6296166851812575,12.643993300949301,24.412701019310663
0.069,0.9296,0.2951,-0.2134,0.1286,0.0901,-6.4313,-2.2838,-15.8987,17.613341385463585,4.013144773449376,13.07045572688551,24.424782616543332
0.0696,0.9271,0.2889,-0.2134,0.1286,0.0901,-6.1687,-4.0163,-17.1937,17.308754067610035,4.093471378870203,13.292389713488072,24.43408173384387
0.0619,0.9265,0.2862,-0.2123,0.1298,0.0859,-7.8313,-4.9,-18.8213,17.166546432544536,3.681809321698356,12.20436585589073,24.446169347631972
0.0605,0.9135,0.2915,-0.2125,0.1284,0.0882,-8.3562,-6.3787,-19.11,17.696536934322154,3.614585049872273,12.515253899577605,24.458288105942337
0.0703,0.9018,0.2963,-0.2125,0.1284,0.0882,-8.3912,-7.9363,-18.3487,18.18735786385985,4.201236398924274,12.277003792870527,24.470420666938708
0.0906,0.8963,0.3024,-0.2092,0.1286,0.0941,-8.6363,-8.96,-16.695,18.642465981661267,5.404494252745027,13.926703296549316,24.48256136798067
0.0978,0.8993,0.3007,-0.2092,0.1286,0.0941,-7.5425,-9.555,-15.5312,18.488874466920304,5.863988823273957,14.1290569472548,24.49465747572939
0.0998,0.8994,0.2994,-0.211,0.129,0.0949,-7.49,-9.0913,-14.735,18.412224046210998,6.002511707039542,14.265670928759207,24.506807732477046
0.1034,0.8996,0.293,-0.212,0.1298,0.0931,-6.7987,-8.82,-15.6012,18.041468629345733,6.2246902988173005,13.973785592816146,24.516276728989922
0.108,0.8969,0.2989,-0.212,0.1298,0.0931,-5.88,-8.365,-16.6688,18.430046438068665,6.501300382134744,13.74538697567331,24.52824436558431
0.1107,0.894,0.3,-0.2114,0.1282,0.0962,-4.8125,-8.6625,-16.17,18.549903042935398,6.685105216968878,14.696314825022704,24.54023075967506
0.1222,0.8977,0.3033,-0.2114,0.1282,0.0962,-4.2613,-8.4087,-16.1525,18.667906999487162,7.312750345784745,14.758547671791538,24.55240048174913
0.1193,0.9001,0.2994,-0.2127,0.1298,0.0958,-3.78,-7.6213,-15.5575,18.399392585739655,7.176352763141828,14.586024542536745,24.564540121046015
0.1212,0.8991,0.2963,-0.2127,0.1298,0.0958,-3.0363,-6.7987,-15.4875,18.240162258343883,7.2887448655496705,14.73265554190873,24.576715859675524
0.1235,0.9004,0.2973,-0.2098,0.1294,0.1017,-2.1875,-5.5913,-15.5137,18.27244206499398,7.412327092080932,16.581589283203144,24.588834264070865
0.1194,0.9024,0.2972,-0.2119,0.1292,0.0966,-0.63,-4.1825,-15.8638,18.2291045500712,7.1804195109233175,15.031979437873925,24.59800455630204
0.1133,0.9059,0.2944,-0.2119,0.1292,0.0966,0.245,-3.5963,-16.52,18.003770358649582,6.8121299605908,15.108627061798076,24.610099248390657
0.1053,0.9063,0.2885,-0.2103,0.1291,0.099,0.8487,-2.8263,-17.92,17.658623842076675,6.355782286252296,16.018311638061945,24.622198187459585
0.1035,0.9111,0.2894,-0.2103,0.1291,0.099,1.0237,-2.38,-18.3312,17.621925915903734,6.193353429921963,16.011599556431964,24.634271644646663
0.1067,0.9176,0.283,-0.2109,0.1304,0.0954,1.9775,-1.435,-17.8237,17.141749370095166,6.327806506334913,15.301391269442824,24.646316434716656
0.1073,0.9243,0.2813,-0.2111,0.1274,0.0955,1.995,-1.6625,-17.2637,16.92759658396973,6.336417118395458,15.682961334467329,24.658392369308913
0.11,0.9329,0.2741,-0.2111,0.1274,0.0955,1.3737,-1.2075,-17.6925,16.37506928191039,6.444020249460442,16.101858190286464,24.667594867807427
0.1003,0.9308,0.2707,-0.2095,0.1286,0.0952,0.7962,-0.5862,-17.4562,16.216185941095368,5.957408770034886,16.0480762160812,24.67965876928881
0.0936,0.9324,0.2729,-0.2095,0.1286,0.0952,-0.7175,-0.0263,-17.3075,16.313725805229936,5.5478275703561435,15.884447523602615,24.691778589344256
0.095,0.9213,0.2696,-0.2114,0.1304,0.0991,-1.6538,-0.14,-17.185,16.3110653270459,5.6417440892272515,16.670853356829085,24.703880005818363
0.09,0.9207,0.2688,-0.2064,0.1286,0.0962,-2.52,0.385,-17.1937,16.275355771843795,5.38944676510681,16.388883626066256,24.71597328224688
0.0931,0.9205,0.2707,-0.2064,0.1286,0.0962,-3.3163,0.8138,-17.0625,16.387212690807463,5.525788050202754,16.351730993799308,24.728125308569663
0.1082,0.9223,0.2729,-0.2094,0.1294,0.0949,-4.1825,0.9975,-16.4762,16.482734359490134,6.320793831312458,15.850058539662232,24.737260563213294
0.1097,0.9255,0.2719,-0.2094,0.1294,0.0949,-5.3812,1.5487,-16.9925,16.372413112714668,6.468572778358896,15.946387726040296,24.749416482601358
0.1031,0.9223,0.2785,-0.2065,0.1298,0.0966,-5.8187,2.835,-17.2987,16.80116659151447,6.157520856031557,16.201462890077458,24.761385180940824
0.1005,0.9116,0.2845,-0.2065,0.1298,0.0966,-6.0725,3.08,-17.6662,17.331090451397493,6.028905911980542,15.787158871579146,24.773457576382825
0.1021,0.9071,0.2827,-0.2097,0.1303,0.0981,-5.5037,3.4125,-18.6725,17.30983534503178,6.117862776667337,15.946689027065633,24.785557931111853
0.0958,0.9223,0.2901,-0.2071,0.131,0.0951,-5.4513,3.6837,-19.2062,17.46002070938294,5.729822422448983,15.069335780239456,24.797651207540373
0.0884,0.9254,0.2843,-0.2071,0.131,0.0951,-5.2063,3.0538,-19.4075,17.078973070872337,5.289776522883449,15.251145597105776,24.806759210727023
0.0772,0.9331,0.2831,-0.2101,0.1305,0.0974,-5.67,2.7475,-22.0762,16.878206726608777,4.629991215695422,15.657274792252387,24.81885071758041
0.0609,0.9229,0.2774,-0.2101,0.1305,0.0974,-4.8738,0.9975,-23.1612,16.729833480512845,3.726922276895596,15.563660880212005,24.830955673204773
0.0515,0.918,0.2694,-0.2026,0.1358,0.101,-3.9988,-1.47,-25.2087,16.356090817568678,3.136888908798361,16.845027224036105,24.843083987220837
0.0428,0.9356,0.2734,-0.2017,0.1326,0.0977,-4.7163,-3.57,-26.6612,16.28954278850474,2.55964908057717,16.20417351251977,24.85518965067525
0.057,0.9274,0.2675,-0.2017,0.1326,0.0977,-7.0,-5.1625,-24.6487,16.090269613979366,3.32606008279296,16.548856228427923,24.86718383089657
0.1001,0.9704,0.2891,-0.2012,0.1321,0.0998,-8.5137,-6.23,-23.24,16.588380814684122,5.50415082027716,17.389323629256367,24.87934435117997
0.0975,0.9722,0.2926,-0.2012,0.1321,0.0998,-12.5738,-6.6588,-22.6187,16.74960262985211,5.486570899921492,17.226153313608197,24.888199305123237
0.0847,0.9544,0.2966,-0.2009,0.1333,0.0964,-14.6125,-7.0437,-22.925,17.262292366820244,4.881557451869221,15.681001631431167,24.900467415574454
0.0741,0.9327,0.2994,-0.1988,0.1341,0.1086,-15.4,-7.4375,-22.6625,17.7953076453726,4.357514225792339,18.53922983749753,24.912660849955248
0.0672,0.913,0.3087,-0.1988,0.1341,0.1086,-15.5662,-7.7875,-24.01,18.678725315768737,4.009119063438716,17.763462241844746,24.92487658098266
0.0487,0.8821,0.3118,-0.1974,0.1359,0.1065,-15.6012,-8.96,-25.795,19.464987659508083,3.033628619304886,16.290374552742385,24.93713938270849
0.0448,0.8822,0.3121,-0.1974,0.1359,0.1065,-13.8687,-10.2987,-28.595,19.482439609530143,2.7552387593656142,16.218465687325608,24.94936502335662
0.0256,0.8879,0.3108,-0.1976,0.1371,0.1064,-12.67,-11.0687,-30.0037,19.292590670670048,1.6152274389241825,15.938016614321649,24.961612606736345
0.0215,0.8727,0.3096,-0.1927,0.1357,0.1109,-11.27,-12.285,-28.3762,19.532035829022124,1.3427940882391427,17.392106474393675,24.973860897946125
0.055,0.8721,0.3163,-0.1927,0.1357,0.1109,-9.765,-13.685,-26.53,19.933970649267465,3.306876387954312,17.62013184741614,24.98606707326784
0.0636,0.8821,0.3158,-0.1926,0.1369,0.1113,-8.1287,-13.825,-26.2237,19.698491584036134,3.8593121157111034,17.96238568463342,24.998276079909765
0.0615,0.8902,0.3097,-0.1926,0.1369,0.1113,-7.0875,-14.0787,-26.5825,19.184172630383625,3.7384432786374093,18.341799186477086,25.010500304897793
0.0668,0.8797,0.3085,-0.1906,0.1387,0.1131,-5.74,-13.8425,-24.0713,19.324755985052697,4.083589366028774,18.858278789484473,25.02269196970346
0.0788,0.8871,0.3045,-0.1885,0.1393,0.1148,-4.55,-12.5825,-24.4913,18.945990979016337,4.7708965162585395,20.039798277507387,25.03157700642391
0.1113,0.9103,0.3076,-0.1885,0.1393,0.1148,-4.5062,-11.9962,-23.2925,18.67140781033453,6.5243274392500945,20.92175546054746,25.043790613961168
0.0991,0.9105,0.3082,-0.1878,0.1422,0.1146,-4.4363,-9.8087,-23.24,18.700639887205575,5.918118484576354,20.406696589295166,25.05601200762899
0.0773,0.8985,0.3179,-0.1878,0.1422,0.1146,-4.445,-7.8138,-21.4375,19.482243249553527,4.708222987005209,19.280779221601136,25.06815730956629
0.0701,0.8846,0.3128,-0.1865,0.1396,0.1145,-3.7888,-6.9738,-19.3025,19.473930334260828,4.298168422202816,19.50873784362186,25.08037622582893
0.0698,0.8784,0.3129,-0.1876,0.1394,0.1153,-3.2288,-6.51,-16.7125,19.60634304474089,4.281944101132922,19.524511651125273,25.092555503608693
0.0789,0.9088,0.3221,-0.1876,0.1394,0.1153,-3.1325,-5.18,-16.1,19.515765918395257,4.652238470970296,19.735866383603977,25.104739382283793
0.0904,0.9066,0.3234,-0.1893,0.1411,0.1165,-2.7913,-4.095,-15.4175,19.631885233047917,5.315196098449032,19.87599565712063,25.116894239926783
0.0825,0.9053,0.3209,-0.1893,0.1411,0.1165,-3.3425,-2.9663,-14.7875,19.51810559199019,4.940260824560526,19.817168869123684,25.125784939287644
0.0744,0.9093,0.3191,-0.189,0.1402,0.1116,-2.5813,-1.4612,-14.7788,19.337957350422712,4.460080067563718,18.55592294263316,25.1379337803752
0.0662,0.9134,0.315,-0.1869,0.1402,0.113,-1.5487,-1.3037,-15.0062,19.028381112826843,3.96682108687658,19.262693960906006,25.150193750780826
0.0656,0.9152,0.3076,-0.1869,0.1402,0.113,0.1837,-1.0325,-15.2775,18.578785697630106,3.8940513237961016,19.635658883052876,25.16230507687565
0.0825,0.9328,0.2992,-0.1886,0.1408,0.1158,1.8987,-1.3912,-15.75,17.786024421510923,4.734138637523275,21.16532147331457,25.174457811028486
0.0985,0.9764,0.2974,-0.1886,0.1408,0.1158,1.7237,-0.4812,-16.4237,16.942395557306273,5.438906884772827,22.12558116097624,25.18662222437717
0.0987,0.9974,0.3005,-0.1874,0.142,0.1112,1.1812,-0.1138,-16.87,16.767151976122168,5.415199360283668,20.994440602046843,25.195380205603396
0.0861,0.9814,0.2913,-0.1874,0.1398,0.117,-1.2075,0.8663,-17.0888,16.532624732734536,4.873091876503403,22.736526022475502,25.207554528572796
0.0662,0.9611,0.2962,-0.1873,0.1398,0.117,-2.7037,1.4525,-17.5,17.127076288032242,3.893489688319298,21.884485697289403,25.219711155790915
0.0545,0.9471,0.2946,-0.1866,0.1394,0.1147,-3.3163,1.26,-16.45,17.27814377052553,3.2293848856180873,21.0341816559949,25.231908837152016
0.0374,0.9243,0.2907,-0.1866,0.1394,0.1147,-3.325,1.33,-15.3825,17.45830088295602,2.326151232064364,20.581885853972395,25.244049892109004
0.0317,0.9064,0.2924,-0.1874,0.1391,0.1087,-4.445,1.0062,-15.68,17.8782841017673,1.9523282675811184,18.479007950943423,25.256184222680503
0.0258,0.8877,0.2841,-0.1874,0.1391,0.1087,-4.095,0.5775,-16.0562,17.747138505760446,1.623950097992819,18.494986764999698,25.265009801676637
0.039,0.8922,0.2812,-0.1869,0.1411,0.1198,-4.3925,-0.2625,-17.0975,17.494292064165652,2.3139085958690595,21.796978164489257,25.27716926021496
0.0508,0.9038,0.2858,-0.1857,0.1404,0.1158,-5.1363,-1.0412,-17.465,17.54786993481623,3.0002080915158067,21.103904032462687,25.289364818085907
0.0639,0.8979,0.2856,-0.1857,0.1404,0.1158,-5.11,-0.9538,-18.6287,17.644328082023982,3.800448108864884,21.30426817316168,25.301571701237677
0.0506,0.878,0.2888,-0.1846,0.1407,0.117,-4.8913,-0.4025,-18.7425,18.206013115965373,3.196827000055232,20.998794928944314,25.313777876559392
0.0529,0.8663,0.2884,-0.1846,0.1407,0.117,-4.6988,-0.3063,-17.9112,18.41255378368049,3.304496686289568,20.888213263616894,25.32592070109151
0.0638,0.8652,0.2912,-0.1858,0.1418,0.1138,-4.8825,-0.9363,-17.1325,18.601149799112715,3.9351773411394477,19.852635540527583,25.338201198568626
0.0701,0.8762,0.294,-0.1865,0.1414,0.1176,-4.8475,-0.6737,-16.5287,18.54879778060826,4.300288306457942,21.028882021140106,25.346985723421778
0.0761,0.8877,0.2958,-0.1865,0.1414,0.1176,-5.2238,-0.1488,-14.385,18.42946746827534,4.615704881015188,21.24451143592063,25.359144828045075
0.0872,0.8808,0.303,-0.1843,0.14,0.1187,-5.6963,0.4112,-13.4312,18.981976503912662,5.2729271096116985,21.70645486626291,25.3712795125316
0.0885,0.8919,0.3013,-0.1843,0.14,0.1187,-5.2325,0.6913,-13.4137,18.666767258477815,5.36010837107099,21.989984752768237,25.383458790311362
0.0906,0.9098,0.3057,-0.1861,0.1412,0.1137,-4.8213,0.7525,-13.8687,18.573013205516265,5.389064419541925,20.355015391961306,25.395639129836205
0.0955,0.9247,0.3101,-0.1891,0.1423,0.1127,-4.655,-0.0438,-14.7525,18.539074078697926,5.572455207942919,19.753669187836337,25.407827609406635
0.0933,0.9299,0.3069,-0.1891,0.1423,0.1127,-4.48,0.3763,-16.485,18.2654736042358,5.4559233287192015,19.938689760605115,25.416594792423528
0.096,0.9423,0.3081,-0.1854,0.1404,0.119,-3.6663,-0.035,-18.5937,18.10641653451058,5.523545781184866,22.452063450871893,25.428737970870667
0.1063,0.9522,0.2993,-0.1854,0.1404,0.119,-4.2525,0.2538,-20.0725,17.45101808151876,6.022830859947084,23.23055502072662,25.440949101002747
0.0999,0.9506,0.3063,-0.1846,0.1416,0.1194,-5.6613,1.785,-20.4225,17.85873002499814,5.749329153954094,22.85177172921939,25.45311988482189
0.0844,0.9426,0.3052,-0.1846,0.1416,0.1194,-7.3238,4.1737,-21.0,17.940962357542723,5.016624335102269,22.447372840737533,25.465266248504264
0.0621,0.937,0.3112,-0.1823,0.1429,0.1205,-8.3037,5.6788,-21.8225,18.371362705662442,3.916936555412287,22.060853407007755,25.47741508959182
0.0503,0.9293,0.3218,-0.182,0.1433,0.1209,-9.5637,6.5188,-22.61,19.098035994502006,3.2012458238122568,21.29252911604847,25.486190058739275
0.03,0.9015,0.3286,-0.182,0.1433,0.1209,-10.8762,6.1512,-22.9425,20.024395529211173,2.144617341525943,20.088669170090956,25.49839340274079
0.02,0.8989,0.3338,-0.1794,0.1435,0.122,-11.0075,6.1863,-23.625,20.371146205064573,1.4352465014478606,20.136874760840033,25.510623644284255
0.0126,0.8976,0.3333,-0.1794,0.1435,0.122,-9.8787,5.6438,-24.5963,20.371146209913512,0.9055503664165938,19.992813507728236,25.522757620940727
0.0162,0.888,0.3335,-0.1803,0.1434,0.123,-9.6162,4.375,-23.1963,20.583732596621733,0.9657845179626977,20.062343868992514,25.534919910799257
0.0218,0.8944,0.3401,-0.1784,0.1438,0.1244,-9.6162,3.6312,-21.2012,20.818898878736803,1.2529559078050874,20.500972283902893,25.547090340703377
0.0226,0.8998,0.3376,-0.1784,0.1438,0.1244,-9.625,3.2113,-19.7663,20.5665158819238,1.333523641725786,20.742583233782465,25.555840535799035
0.0385,0.918,0.3381,-0.1774,0.1446,0.1236,-9.835,3.6138,-18.3925,20.219750086805327,2.1126471197672667,21.19228060405281,25.568100860119685
0.0456,0.9476,0.3273,-0.1774,0.1446,0.1236,-12.1975,4.3925,-16.2313,19.05810969111997,2.518716533272692,22.367773801847928,25.580181749522303
0.0473,0.9439,0.3405,-0.1768,0.1474,0.13,-15.4088,5.4688,-14.28,19.834075398674077,2.660234419917754,23.275630058050094,25.592402435360075
0.0534,0.9365,0.3462,-0.1774,0.1479,0.127,-17.92,6.5625,-11.9175,20.286770276963495,2.94922621021718,22.062521176436196,25.604588791440353
0.0551,0.9467,0.362,-0.1774,0.1479,0.127,-19.2675,7.1138,-9.66,20.924078455315904,3.057986439882848,21.484542102971815,25.61677514752063
0.0388,0.8951,0.3853,-0.1785,0.1463,0.1294,-19.9587,7.56,-7.4812,23.28293476612693,2.581845454229532,19.63982005153785,25.62894805482993
-0.0278,0.8611,0.3906,-0.1785,0.1463,0.1294,-19.2413,6.3875,-7.14,24.396141612967416,-0.546518572093487,17.33733704451322,25.637796992217762
-0.0331,0.8434,0.3942,-0.1796,0.1457,0.1362,-16.5725,3.8588,-7.7175,25.049247161454073,-1.798978104928465,18.328805272363326,25.649901240012074
-0.0205,0.8491,0.3832,-0.1796,0.1457,0.1362,-13.1512,0.0963,-8.7675,24.29184909361102,-1.3142582260668263,19.26456842189308,25.66212652674518
0.0036,0.8672,0.3779,-0.1798,0.1466,0.1336,-10.0012,-2.4413,-9.3275,23.5482118782447,0.09623110936562976,19.640180957898576,25.674321730701102
0.0304,0.8823,0.3717,-0.1818,0.1446,0.1342,-8.2163,-3.6488,-8.7412,22.84691803334196,1.6937446349249956,21.010626484118042,25.686453229952395
0.0467,0.9018,0.3704,-0.1818,0.1446,0.1342,-6.8688,-3.115,-9.5987,22.331050720868234,2.663357242308881,21.828695044292687,25.698621890281387
0.0341,0.8808,0.372,-0.1829,0.147,0.135,-6.4488,-2.38,-10.6575,22.894886099922815,2.0921509034942467,20.880772955433443,25.710782410564786
0.016,0.8623,0.3649,-0.1829,0.147,0.135,-5.3463,-2.9925,-11.235,22.936537787298615,1.063755355273818,20.462752142408185,25.719616837436565
0.0123,0.8561,0.367,-0.1839,0.1429,0.1318,-1.5137,-6.0288,-14.91,23.203518394968047,0.7755625828292126,19.661519699731652,25.731781250785247
0.024,0.8627,0.3578,-0.1832,0.1448,0.136,0.035,-7.595,-15.7675,22.527785941832555,1.4327399768297413,21.468464231818253,25.743963359885218
0.0441,0.8918,0.3417,-0.1832,0.1448,0.136,1.4787,-7.4637,-16.9925,20.968921940629123,2.575058360554533,23.306223786200235,25.756458329867915
0.0659,0.9037,0.3342,-0.1822,0.1444,0.1351,1.8288,-7.7613,-17.5438,20.296859653641953,3.837938569878346,24.346730280325595,25.768717238528463
0.0598,0.8959,0.3353,-0.1822,0.1444,0.1351,1.2775,-7.4988,-17.08,20.518293081750002,3.591909054678271,24.00691960007642,25.7805960424514
0.0521,0.878,0.3328,-0.1825,0.1457,0.1307,0.6563,-7.6825,-16.0562,20.758227819494888,3.1992644098800875,22.297776670106664,25.789866846549877
0.0454,0.8692,0.3264,-0.1825,0.145,0.1323,-0.0175,-8.47,-14.945,20.58252260007122,2.820905354583256,22.799131689043545,25.801977110899625
0.0431,0.875,0.3304,-0.1825,0.145,0.1323,0.1138,-8.9775,-14.3675,20.686255589014998,2.647950256737902,22.643943208694424,25.814021547054594
0.0742,0.883,0.3187,-0.1842,0.1462,0.1353,0.0875,-9.8262,-14.1312,19.848234678729842,4.425579500240066,24.64832011805454,25.82608757202613
0.0877,0.8982,0.3216,-0.1842,0.1462,0.1353,-0.07,-10.3162,-14.1662,19.700278623489904,5.211741710775115,25.1088713301957,25.83825481669502
0.1067,0.9069,0.3251,-0.1854,0.144,0.1363,-0.3938,-10.6138,-15.2163,19.72137553863282,6.266493451384515,25.882138229123864,25.85037499066549
0.1096,0.9113,0.3283,-0.1854,0.1452,0.133,-0.6913,-8.8638,-15.75,19.81154357795959,6.4455693266009595,24.866932784908972,25.862526309158223
0.1081,0.9112,0.3299,-0.185,0.1452,0.133,-1.68,-7.8663,-17.43,19.902543480231444,6.3694447736353395,24.79549163954362,25.871817286413165
0.1083,0.9119,0.3356,-0.1848,0.1457,0.1371,-2.835,-6.1338,-17.605,20.203943604385003,6.360248171417418,25.632361935566188,25.88339101558394
0.0969,0.8951,0.3412,-0.1848,0.1457,0.1371,-3.6312,-4.7075,-16.9487,20.864362827953705,5.815513333334387,24.759988941818627,25.895609931846582
0.0956,0.8891,0.3465,-0.1845,0.1476,0.1354,-4.06,-1.6362,-15.6712,21.29068712939914,5.729115512020358,23.742799140799654,25.9077665590647
0.1019,0.884,0.3512,-0.1845,0.1476,0.1354,-3.7625,-1.0237,-15.6187,21.666158344127453,6.080061648942876,23.570541752824923,25.919973088301443
0.1037,0.8806,0.3564,-0.1876,0.1462,0.1394,-3.0888,-0.0088,-15.715,22.033360554247857,6.214951673844288,24.11809582439466,25.932171477492595
0.0937,0.875,0.3565,-0.1833,0.1468,0.1378,-1.855,0.91,-16.24,22.16702199438762,5.723291976823697,23.787057222517046,25.944293421038193
0.0743,0.8762,0.3528,-0.1833,0.1468,0.1378,0.0788,1.8812,-17.57,21.93270682177411,4.6461223228099024,23.48263334870942,25.9530552953297
0.0696,0.8895,0.3526,-0.1822,0.1454,0.1379,1.435,2.6425,-18.4275,21.624328945941578,4.225160679539532,23.91867051150967,25.96522572523382
0.0621,0.903,0.3386,-0.1822,0.1454,0.1379,2.5463,2.975,-19.0662,20.557523854585188,3.7598470116255904,24.67065690168547,25.97733882090378
0.0551,0.9116,0.3406,-0.1818,0.1457,0.1274,3.36,3.0975,-19.1012,20.487323809984925,3.3143883326745467,21.75667891308889,25.98946784274989
0.0493,0.9117,0.3401,-0.1822,0.1469,0.1374,3.5175,3.115,-18.8388,20.457575745697373,2.9593306164302824,24.15251164212447,25.99821520652534
0.0433,0.9015,0.3303,-0.1822,0.1469,0.1374,3.22,3.64,-18.9175,20.123193934027388,2.6402819507161195,24.31644637550065,26.01034033530617
0.0384,0.9189,0.3318,-0.1809,0.1466,0.1327,4.0687,4.06,-18.6025,19.85455496619094,2.314939661790148,23.376005959205152,26.022543679307685
0.0409,0.9242,0.3273,-0.1809,0.1466,0.1327,3.9463,5.2238,-18.41,19.502244925140594,2.3737316200822995,23.740414553786113,26.034646511441895
0.0401,0.9329,0.3206,-0.1817,0.1472,0.1319,2.7738,5.9063,-17.5613,18.967211433489204,2.338681836886015,23.824098187297153,26.0467712863077
0.0325,0.9374,0.3266,-0.1817,0.1472,0.1319,2.0038,7.665,-16.2313,19.208223841723342,2.0626472357744006,23.433825072775807,26.05547582636504
0.0229,0.9213,0.3262,-0.1829,0.1457,0.137,-0.3413,8.3562,-14.8925,19.4964864302344,1.7466468482990403,24.27047656631144,26.06766182853029
0.0099,0.906,0.3307,-0.1801,0.1461,0.1302,-1.3475,8.0675,-13.7112,20.051132602045627,1.147759937292094,22.05803881560947,26.079860217721446
0.0072,0.8955,0.3334,-0.1801,0.1461,0.1302,-2.2925,7.28,-13.195,20.419595326099785,0.6822882791869804,21.678240959449415,26.091984284757196
0.0207,0.8975,0.3336,-0.181,0.1466,0.1295,-2.4588,5.7312,-12.0575,20.39013856288663,1.112256755193591,21.66289647148542,26.104129940609518
0.0296,0.8974,0.3301,-0.181,0.1466,0.1295,-1.7413,4.3137,-11.1387,20.19609043545205,1.6596284164269284,22.031615746419593,26.116256485050453
0.0412,0.9014,0.3389,-0.1821,0.146,0.132,-1.7587,3.2113,-10.36,20.60368126333322,2.335701400079596,22.516066299291264,26.125080294471456
0.0422,0.9082,0.3373,-0.1826,0.1455,0.125,-2.1,2.7475,-10.6487,20.37531483054452,2.4727000932787173,20.858179012574762,26.137223826833623
0.0401,0.9034,0.3426,-0.1826,0.1455,0.125,-3.3775,1.8112,-11.62,20.76735924359189,2.3881565525100084,20.462446152536316,26.149423985599903
0.0371,0.8971,0.3407,-0.1844,0.1441,0.128,-3.1937,0.9538,-11.025,20.79566270852189,2.232984925329257,21.12342183285634,26.1615569005113
0.0403,0.8901,0.3426,-0.1844,0.1441,0.128,-3.2638,-0.0788,-10.7975,21.05104627297455,2.4012735470030178,20.971123493839134,26.1737779402641
0.0536,0.8989,0.3429,-0.1846,0.145,0.1279,-3.255,-1.8112,-11.1562,20.880629793834487,3.1228872650401978,21.267309361722297,26.185965004174427
0.0595,0.9004,0.3326,-0.1846,0.145,0.1279,-2.8612,-2.3275,-11.6287,20.275447159576043,3.5130693248870575,21.94268166572046,26.19481783462754
0.0684,0.9023,0.3358,-0.1849,0.1451,0.127,-2.135,-2.8525,-12.5212,20.412880969206636,4.0213972240209594,21.730081442162568,26.206940839918218
0.0659,0.8993,0.3408,-0.184,0.1442,0.1285,-1.365,-3.2813,-12.6787,20.75384820118146,3.927553922466002,21.96426683698062,26.21911870203788
0.063,0.8994,0.3362,-0.184,0.1442,0.1285,-0.3413,-4.2613,-13.3875,20.4966794906322,3.7659968713178746,22.13075197000022,26.2313415113658
0.0642,0.9073,0.3289,-0.1866,0.1447,0.1285,0.6563,-5.075,-14.1837,19.927329148458806,3.8032778165836114,22.30755018485783,26.243496369008792
0.0692,0.9122,0.3244,-0.1866,0.1447,0.1285,1.5925,-5.5388,-14.2012,19.577538580532728,4.070105075832399,22.72220466257443,26.25566786065799
0.0683,0.9134,0.3261,-0.1866,0.1434,0.1311,2.8,-7.14,-15.0412,19.647278403760634,4.030660548133938,23.44051635571815,26.264425134054164
0.0695,0.9105,0.3159,-0.1871,0.144,0.1277,3.8325,-8.1812,-15.7937,19.135702186779717,4.119585287814579,22.905918891293187,26.27659414829818
0.0672,0.9082,0.3099,-0.1871,0.144,0.1277,4.7075,-8.5837,-16.1612,18.841679593728905,4.011844598731341,23.10926756742138,26.288759269476916
0.0562,0.9101,0.2976,-0.185,0.1445,0.1257,5.6438,-9.5725,-16.6163,18.109544107653146,3.392139750229032,23.155256221696092,26.300916604525085
0.0531,0.9158,0.2902,-0.185,0.1445,0.1257,5.3812,-10.9025,-15.5312,17.583844137715023,3.1745678041928436,23.520823593356184,26.313079248298642
0.0526,0.9185,0.282,-0.1876,0.1448,0.129,4.97,-11.8387,-13.9737,17.06903055126865,3.1354060279347373,24.457944654849673,26.325299934136414
0.0625,0.919,0.2841,-0.1882,0.1431,0.1274,4.2875,-12.005,-12.845,17.178198091794886,3.691264673068967,24.23522322751019,26.33749478417731
0.0742,0.9194,0.2797,-0.1882,0.1431,0.1274,2.9663,-12.3812,-11.6287,16.921506976087702,4.382956938967919,24.72417606448701,26.3463115152978
0.0867,0.9173,0.2762,-0.1882,0.1427,0.1262,1.6712,-11.5937,-12.11,16.75754573455551,5.135068516328631,24.88171495796914,26.358488315672382
0.0985,0.9118,0.2719,-0.1882,0.1427,0.1262,0.315,-11.1737,-11.69,16.605064693427714,5.874009822400772,25.322207995915793,26.370985055230207
0.1111,0.9101,0.271,-0.1922,0.1416,0.1235,-0.28,-10.1587,-11.2262,16.581987563970607,6.633765729192951,24.503202373739697,26.38290951419146
0.1231,0.9216,0.2785,-0.1926,0.143,0.1212,-1.365,-9.4325,-12.0487,16.813758546597505,7.253036774829662,23.803303065619286,26.395244514582537
0.1301,0.9171,0.2837,-0.1926,0.143,0.1212,-1.54,-8.3562,-12.8275,17.188156158249413,7.692788901774103,23.674751852364807,26.407365396383057
0.1358,0.9187,0.2917,-0.1913,0.1426,0.1277,-2.0213,-6.4837,-12.5562,17.614205467050173,7.999760524133555,25.447927287443495,26.419469998092396
0.1502,0.9182,0.2903,-0.1913,0.1426,0.1277,-2.3363,-4.865,-12.88,17.54516608054292,8.80738985935844,25.913013365161067,26.431640781911543
0.1559,0.9264,0.2864,-0.1918,0.143,0.1276,-2.2925,-2.0213,-13.44,17.180182796596796,9.10688914490744,26.229750432660648,26.440467422652755
0.1851,0.9367,0.2847,-0.1918,0.143,0.1276,-4.0775,0.5425,-14.0175,16.906839887339494,10.539741628968423,27.271980890854845,26.45265554830816
0.2083,0.9506,0.2779,-0.1936,0.1438,0.128,-4.62,4.5588,-14.6562,16.297512537844966,11.63764474937652,28.23372234955287,26.464799434585355
0.2133,0.9555,0.2746,-0.1936,0.1413,0.1291,-6.335,17.4562,-13.6763,16.034782299938488,12.05860669328748,29.016810897330302,26.476981189770296
0.1437,0.9035,0.2918,-0.1936,0.1413,0.1291,-9.905,23.1175,-10.5087,17.893532508414317,8.836876399622376,25.657899139260525,26.489188426837092
0.1035,0.8625,0.2996,-0.1929,0.1421,0.1266,-9.695,27.0988,-7.63,19.15180092323751,6.592184200084298,23.003721202894734,26.501467862569132
0.0842,0.8469,0.3047,-0.1929,0.1421,0.1266,-7.6737,29.0675,-5.915,19.78610126535148,5.404124994513892,22.018929623598442,26.510106574431692
0.0759,0.8488,0.3051,-0.1946,0.1424,0.1252,-4.5237,29.3388,-5.18,19.770946472863198,4.838085712008281,21.24856550130753,26.522275234760684
0.0733,0.8424,0.3124,-0.1942,0.1403,0.1262,-1.2337,29.785,-4.2,20.345496104161725,4.672126182363022,21.199905268043988,26.534444956834754
0.0747,0.8442,0.3121,-0.1942,0.1403,0.1262,1.61,29.96,-4.4625,20.28946019777777,4.74112714061722,21.277196999007934,26.546597337072562
0.0816,0.8836,0.3029,-0.1938,0.1394,0.1222,3.8063,30.1788,-5.7137,18.925482358274802,4.9812215464579594,21.56132093152131,26.558740515519705
0.0749,0.905,0.306,-0.1938,0.1394,0.1222,5.2063,29.9687,-6.9125,18.68215294577379,4.505757378325661,21.575961678078794,26.567475846184283
0.0668,0.9156,0.2999,-0.1959,0.141,0.114,5.4513,29.995,-7.6563,18.137392402651138,3.990836772427617,19.332976660513634,26.57961937854645
0.0456,0.9229,0.2988,-0.1959,0.141,0.1188,4.6988,29.0937,-7.6563,17.940511865224504,2.753341902388753,20.345748708798062,26.59173778294179
0.0301,0.9263,0.303,-0.1951,0.1404,0.1188,4.0338,27.3875,-8.155,18.112865185108166,1.820126732394881,20.053562531513396,26.60392626251222
0.0248,0.9228,0.3115,-0.1957,0.1383,0.1148,2.6863,25.1212,-9.6775,18.651157117424667,1.479901099341221,18.637460501790066,26.616013522385302
0.0212,0.9173,0.3195,-0.1957,0.1383,0.1148,2.0038,21.8575,-11.3925,19.20198908498704,1.2670345467648196,18.147047656138103,26.62475133045506
0.0318,0.9171,0.3251,-0.1961,0.1379,0.1139,1.4175,18.0163,-12.4337,19.517901192244064,1.8106399477928916,17.83152839220583,26.636931316064874
0.0381,0.9195,0.3235,-0.1961,0.1379,0.1139,1.6625,15.19,-13.6412,19.38333824740304,2.1777313049417133,18.038254137413535,26.64910563903428
0.0533,0.9296,0.3234,-0.1946,0.1382,0.1114,1.5662,11.5412,-14.4462,19.182895290269446,2.828828303308177,17.889594848660526,26.66127359153322
0.0719,0.947,0.3207,-0.1938,0.1374,0.112,1.015,9.2137,-15.715,18.70986388129139,2.919656342626385,18.873027680734047,26.67336651404671
0.076,0.9544,0.322,-0.1938,0.1374,0.112,0.2538,7.0963,-17.465,18.643788985764314,3.856159590427891,18.987893697062646,26.682125203102984
0.0673,0.9342,0.3169,-0.1951,0.139,0.1102,-0.0875,6.125,-19.0225,18.737746572621013,3.891162486880866,18.044661595889437,26.694295279092078
0.0544,0.925,0.3083,-0.1951,0.139,0.1102,-1.365,3.5788,-22.6975,18.433916449473262,3.299800620378851,18.088986370875297,26.70653578417129
0.0478,0.9299,0.2992,-0.1952,0.1382,0.1136,-0.2975,2.9225,-25.1912,17.837456966751976,2.870486019848758,19.40329042578431,26.718647464181146
0.0492,0.9312,0.3007,-0.1952,0.1382,0.1136,-0.9013,2.3013,-26.005,17.895974060822585,2.877328862154086,19.379402266149988,26.73079276611844
0.0456,0.9302,0.2901,-0.1918,0.14,0.1104,-2.5988,2.065,-25.2787,17.322614856204936,2.7039277063143525,19.11782853518615,26.742920018389423
0.0357,0.927,0.2931,-0.1896,0.1416,0.1114,-3.4388,2.2662,-24.1063,17.545367712721127,2.1792849821095235,19.116884943972615,26.75173462601976
0.0314,0.9063,0.3005,-0.1896,0.1416,0.1114,-3.8763,2.485,-22.4175,18.341685190983515,1.922185386376351,18.39778261134134,26.7639011628586
0.031,0.8969,0.3068,-0.1884,0.1406,0.1119,-4.8125,2.4763,-20.5975,18.882646503974104,1.879492192789216,18.279315916019264,26.776073716252874
0.0397,0.8951,0.3138,-0.1884,0.1406,0.1119,-5.0662,2.625,-19.6525,19.318212771997036,2.3278706772639923,18.06536795201327,26.788213709464785
0.0506,0.8955,0.3129,-0.1871,0.1402,0.109,-5.285,3.1238,-19.075,19.260275222857143,2.9499485300925796,17.667531315363153,26.800381661963726
0.0512,0.8972,0.314,-0.185,0.1406,0.1125,-4.4713,3.7362,-18.62,19.28883010178402,3.0623361308083594,18.788282685245647,26.809147075405487
0.0441,0.8911,0.318,-0.185,0.1406,0.1125,-4.8825,5.1188,-18.76,19.63860675441097,2.7470894750319097,18.35987732895302,26.82132883059043
0.0378,0.8678,0.3207,-0.1874,0.1413,0.1122,-4.3663,5.3113,-17.7712,20.280295332917685,2.4240882234031402,17.336223628433267,26.833457852436545
0.0517,0.88,0.3238,-0.1874,0.1413,0.1122,-4.305,5.5825,-17.0975,20.201537216139343,2.9952147024573086,17.64084713528323,26.84562686668056
0.0603,0.8971,0.3237,-0.1855,0.1424,0.1123,-3.7538,6.1863,-16.5112,19.841915050571274,3.4602327854319452,18.20070933665856,26.857710587403385
0.06,0.9005,0.3273,-0.1855,0.1424,0.1149,-3.2113,7.0437,-15.295,19.974060224293783,3.543503665453748,18.799895931274246,26.869904729614227
0.0588,0.9016,0.3326,-0.1859,0.1416,0.1149,-4.06,7.2713,-14.4112,20.248253473146004,3.5160757322770344,18.568780155708925,26.878453547060257
0.057,0.9231,0.3353,-0.1842,0.1406,0.1114,-3.7013,7.63,-14.6212,19.96345009636263,3.3991691504510944,18.04764627615115,26.891128305876016
0.0462,0.9352,0.3534,-0.1842,0.1406,0.1114,-4.1038,7.1925,-16.3275,20.698916915986608,2.9016419908094973,17.197780283992525,26.903425791274366
0.0365,0.9302,0.357,-0.1862,0.141,0.1136,-4.6375,6.6413,-16.2138,20.995411332179046,2.3278626976587704,17.167835435898194,26.915386703483264
0.0264,0.9165,0.3662,-0.1862,0.141,0.1136,-4.2263,6.195,-16.5025,21.777705905819406,1.7340417517154465,16.32910164869322,26.92749342868276
0.0184,0.9094,0.3731,-0.1842,0.1412,0.1185,-2.3275,5.2588,-16.4762,22.305458099545604,1.2080092460740448,17.212408345642537,26.939526893471932
0.0085,0.9064,0.3564,-0.1845,0.1422,0.1118,-1.1987,3.4563,-16.9662,21.467222360259775,0.6059914068387097,15.86807759665813,26.948505009844144
-0.0124,0.9099,0.3515,-0.1845,0.1422,0.1118,0.1488,2.3013,-16.6338,21.122787473674865,-0.5580484396843162,15.862683794992929,26.960643941310977
-0.0212,0.894,0.3351,-0.1834,0.1403,0.1106,2.2662,-0.0263,-16.4237,20.549160605316892,-1.2017957786825721,16.18658591774594,26.972806585084534
-0.0091,0.9029,0.326,-0.1834,0.1403,0.1106,2.695,-3.0363,-16.1087,19.854431242837517,-0.5931260659937255,16.94883782030997,26.984947640041522
0.0146,0.9145,0.3196,-0.1842,0.143,0.111,3.43,-4.7163,-15.68,19.26511101379485,0.7653876459156995,17.600401394404173,26.997044455620294
0.0287,0.9202,0.3169,-0.1828,0.1412,0.1075,3.2288,-5.74,-16.94,19.00347061193488,1.630937269664021,17.388487066928842,27.009234704765856
0.0346,0.9206,0.31,-0.1828,0.1412,0.1075,2.4675,-6.3438,-18.305,18.61133374584235,2.0151363540149068,17.82494453027246,27.018174244400267
0.0364,0.9085,0.309,-0.1822,0.139,0.1102,1.6887,-7.2625,-18.8125,18.783786527404896,2.163271607575009,18.72526233352139,27.03029158705053
0.0209,0.9015,0.3024,-0.1822,0.139,0.1102,0.7525,-7.7613,-18.7162,18.54420837372501,1.3096675074482018,18.65901498538812,27.042422378471773
0.0246,0.8945,0.3031,-0.1829,0.1415,0.1069,0.8575,-8.645,-18.1475,18.7184032239668,1.4823196026079148,17.374576213987652,27.054553169893016
0.0305,0.8932,0.3012,-0.1829,0.1415,0.1069,0.2713,-9.5288,-17.8412,18.635078266823115,1.8343949045761383,17.546557107264945,27.06669245527487
0.0439,0.9002,0.2959,-0.1831,0.1426,0.1091,0.1225,-10.2287,-18.025,18.1971246242639,2.6123494849269067,18.658487023935983,27.07883669546709
0.0573,0.905,0.2921,-0.1826,0.142,0.11,-0.1925,-11.4012,-17.1063,17.888964974515368,3.4093357586003417,19.53447720514168,27.08786966866829
0.1024,0.9195,0.2909,-0.1826,0.142,0.11,-2.1875,-10.185,-16.94,17.556588907122862,5.930370706509295,20.747241096891074,27.100027711546513
0.1161,0.9132,0.2923,-0.1839,0.1425,0.1119,-2.3013,-9.1875,-17.36,17.748474044901936,6.853603268328487,21.272796342675704,27.112227870312793
0.1053,0.9036,0.2948,-0.1839,0.1425,0.1119,-2.3712,-7.6825,-19.0487,18.068072896573717,6.351681129787976,20.760527643706002,27.124386621021063
0.0977,0.8892,0.2977,-0.1829,0.1418,0.1051,-1.19,-6.51,-19.4862,18.509106639381542,5.972416830066953,18.37502290133426,27.136560236160417
0.0985,0.8855,0.3051,-0.1806,0.1426,0.1114,-0.455,-5.2675,-19.7838,19.010088431176584,6.001642698612494,20.002666804506575,27.148718632953663
0.0934,0.8942,0.2982,-0.1806,0.1426,0.1114,0.385,-3.5525,-19.145,18.444168499830013,5.6838070658826805,20.394201776525083,27.160857210505473
0.0814,0.9094,0.2925,-0.1808,0.1418,0.1117,1.7762,-2.205,-20.055,17.83155232565973,4.936331034640887,20.78226441538217,27.16979356490465
0.0615,0.9143,0.2844,-0.1808,0.1418,0.1117,2.5638,-1.3475,-20.4312,17.280187923362092,3.7848260586052924,20.831837888671526,27.18192046326061
0.0507,0.9167,0.2787,-0.1798,0.1435,0.1083,2.9488,-0.6212,-20.2125,16.911589513675775,3.099265449161231,19.932951478214054,27.194021525819693
0.0594,0.9226,0.2808,-0.1801,0.1438,0.105,2.6163,0.0613,-19.9587,16.92796327275593,3.482390536590686,19.074143454729846,27.206125773614005
0.0623,0.9355,0.2799,-0.1801,0.1438,0.105,1.9862,1.645,-19.6788,16.657820777605174,3.6307702302373532,19.352755441364053,27.21823002140832
0.061,0.9448,0.2933,-0.18,0.1427,0.1081,1.0587,3.185,-18.83,17.244643170797755,3.5431698162158223,19.79399011695812,27.227122844259338
0.0439,0.9387,0.2948,-0.18,0.1427,0.1081,-0.4725,4.0862,-18.305,17.434451826039563,2.718080497387275,19.310894412281883,27.239323356940645
0.022,0.9328,0.295,-0.1774,0.142,0.1111,-1.0762,5.1975,-18.235,17.549358286754185,1.577645780225871,19.98243942788639,27.25135894521997
0.0049,0.9237,0.2991,-0.1774,0.142,0.1111,-1.4525,5.285,-18.1037,17.941221246138653,0.5546817022411967,19.337422854612143,27.263539638659836
-0.0027,0.9109,0.3015,-0.1783,0.1433,0.1113,-1.2775,4.8213,-16.5287,18.313085152092732,-0.026564733888610963,18.734899097225856,27.27569095715257
-0.0103,0.9068,0.2962,-0.1776,0.1426,0.1074,-1.3387,4.06,-13.3962,18.0898780837395,-0.5211961738360172,17.861729693389268,27.287866341867048
0.0145,0.9151,0.2998,-0.1776,0.1426,0.1074,-0.1488,2.2138,-11.655,18.13941028141242,0.6880332630230919,18.234420071194158,27.296748193352272
0.0228,0.913,0.3007,-0.179,0.1414,0.1062,0.63,1.6712,-10.1675,18.229251010129254,1.2795372182325628,17.93593496740436,27.309023028188978
0.0274,0.8987,0.3043,-0.179,0.1414,0.1062,1.6538,1.61,-9.59,18.70482844662431,1.6101990464471687,17.606472718808206,27.32092342092848
0.0291,0.8891,0.3027,-0.1802,0.1421,0.105,2.8788,2.3625,-9.485,18.801223441495512,1.7534942548253802,17.038606579267228,27.332994046795353
0.0395,0.8983,0.3056,-0.1797,0.1423,0.1095,3.2462,1.6275,-9.205,18.788244286622863,2.309721516309235,18.536506979678137,27.345106434635255
0.057,0.9112,0.3082,-0.1797,0.1423,0.1095,4.3575,1.68,-8.8812,18.68762083603611,3.2633408174895853,18.947276870935895,27.353869724586865
0.0578,0.9276,0.3032,-0.1831,0.1405,0.1041,5.0487,2.7125,-8.12,18.102321906496915,3.372539287462058,17.729112783589663,27.365938226963582
0.0351,0.936,0.2915,-0.1831,0.1405,0.1041,5.985,3.0188,-7.945,17.300377473345698,2.2362409518293473,18.022989449048037,27.377983370948602
0.0255,0.9427,0.2887,-0.1814,0.142,0.103,6.4663,1.6187,-8.6187,17.02782856271807,1.570169192112013,17.817712280974483,27.38685637455818
0.0244,0.9455,0.2857,-0.1814,0.142,0.103,6.4925,0.21,-9.6337,16.813715409983555,1.4307266972384374,17.979628095280543,27.398940095281002
0.0249,0.9449,0.2785,-0.1826,0.1394,0.1042,5.985,-0.2625,-10.2112,16.423403863046385,1.4462967668221842,18.741863586139566,27.410756964074437
0.0297,0.9439,0.2747,-0.1859,0.1403,0.1071,5.5213,-1.8812,-10.0537,16.22692478393006,1.7068362559985328,19.383818111276746,27.42296632463139
0.0356,0.9317,0.2768,-0.1859,0.1403,0.1071,5.6262,-1.8812,-10.9725,16.54537899624864,2.0651438671264484,19.233739477993776,27.435401836889767
0.0412,0.9273,0.2692,-0.1871,0.1391,0.1003,5.0575,-2.2662,-10.8587,16.189238615217025,2.412757536953444,17.725176986507545,27.447446273044733
0.0537,0.9198,0.2647,-0.1871,0.1391,0.1003,4.9525,-1.33,-10.22,16.05511611365952,3.141597645207827,18.046428867639182,27.45662222791632
0.0617,0.9113,0.2686,-0.1868,0.1369,0.0971,4.4975,-1.0062,-9.1087,16.421572352551852,3.6642349541121044,17.17583839352854,27.468653923130365
0.07,0.9068,0.2647,-0.1868,0.1369,0.0971,4.1475,-0.735,-8.6363,16.273217907223533,4.185215106314464,17.442576989095482,27.480717824611745
0.0742,0.9012,0.2594,-0.1894,0.1382,0.0965,4.795,0.2625,-7.7613,16.058426561846733,4.489642356373615,17.18699488138711,27.492710235257935
0.0872,0.9024,0.246,-0.1893,0.1371,0.0969,5.6262,0.735,-8.2163,15.250825882960513,5.237265933615759,18.28097067337999,27.50180620533371
0.1122,0.9102,0.2331,-0.1893,0.1371,0.0969,5.6788,1.5575,-8.5925,14.366939939689972,6.626500064564168,19.46364563826085,27.513707305903267
0.1777,0.9575,0.2227,-0.1909,0.1372,0.0945,6.5625,3.3513,-8.9337,13.096725213259313,9.712894646621676,20.823676747292705,27.525709626170176
0.1948,0.9784,0.2145,-0.1909,0.1372,0.0945,6.8863,6.895,-10.4825,12.36756919669025,10.606932142828652,21.72255707472865,27.537758663220476
0.1886,0.9859,0.2174,-0.1935,0.1382,0.0935,6.3088,12.3462,-11.97,12.435062841308365,10.587488884488472,20.835177287593428,27.546952667758376
0.1774,0.9822,0.2178,-0.1935,0.1382,0.0935,4.6375,18.935,-11.5412,12.502682713945743,10.054648002817181,20.558738057588602,27.559263248012677
0.1537,0.9739,0.2235,-0.1912,0.1366,0.0903,3.1325,25.095,-7.315,12.923860272839905,8.821975763905476,19.129161206190133,27.571011457291128
0.1313,0.9714,0.2352,-0.1914,0.1366,0.0896,-0.9887,34.3963,-7.0437,13.60892729379155,7.535030898767804,17.93650419547862,27.58310154848441
0.103,0.9442,0.2501,-0.1914,0.1366,0.0896,-2.0475,36.8288,-6.58,14.832487628542134,6.072438688612194,16.5216471723076,27.59521853721965
0.0695,0.943,0.2548,-0.1927,0.1371,0.0874,-2.8175,37.52,-6.9038,15.11955099893677,4.137865382548892,15.018368280472826,27.60728774742642
0.0482,0.9318,0.2605,-0.1927,0.1371,0.0874,-4.0075,36.75,-7.9275,15.61784387762961,2.896924810801887,14.35128333564155,27.616421940324972
0.0209,0.9198,0.2708,-0.1914,0.1357,0.0856,-4.1038,35.0438,-10.3863,16.40290247815163,1.3099530089523868,13.113276279131751,27.62854529953067
-0.0047,0.9149,0.2779,-0.1934,0.1357,0.0828,-4.6813,32.5325,-11.62,16.89475940443578,-0.21638801348895295,11.581819194139966,27.640732009525976
-0.019,0.9147,0.2862,-0.1934,0.1357,0.0828,-4.2088,29.1812,-12.0487,17.37304192903535,-1.0920032017395394,11.09033884563001,27.65292119692646
-0.0356,0.9059,0.2961,-0.193,0.1324,0.0834,-3.9988,25.1125,-11.4187,18.098370681904576,-2.077497716448695,10.874431466542221,27.66506260579847
-0.0215,0.9024,0.2978,-0.193,0.1324,0.0834,-3.6925,20.8512,-10.1062,18.262897924982806,-1.3575672512946388,10.868691008463212,27.677255332349212
-0.0067,0.9042,0.294,-0.195,0.1364,0.082,-3.8588,17.1063,-8.505,18.012583532876366,-0.510091476235315,10.34822745804868,27.689463631161086
0.0091,0.9037,0.2993,-0.1934,0.1353,0.0811,-2.87,13.8162,-8.7587,18.32371060437396,0.36140557629935705,10.176236194661506,27.701503112505694
0.0235,0.8994,0.2976,-0.1934,0.1353,0.0811,-3.5963,11.3837,-8.68,18.308762474603864,1.0945645076219512,10.314410391349194,27.710678713462254
0.0368,0.8988,0.2978,-0.1954,0.1341,0.0814,-2.94,9.2225,-9.6862,18.33155453523851,1.1830842321824366,10.501363264392413,27.72264670397167
0.0382,0.9008,0.2965,-0.1954,0.1341,0.0814,-2.87,7.315,-10.4912,18.21936279960362,1.9086048754802776,10.601522869223725,27.734754844831265
0.0392,0.9028,0.2954,-0.1943,0.1351,0.0843,-2.1088,5.5475,-10.22,18.11859095000405,2.2640946793869077,11.472036954907157,27.74684989083491
0.0496,0.9061,0.2952,-0.1943,0.1351,0.0843,-1.1287,2.275,-10.99,18.045386488357877,2.888439596627602,11.63623506723198,27.75893927419814
0.0587,0.9132,0.2919,-0.1965,0.1334,0.0807,-0.7525,3.4038,-11.375,17.72709342167264,3.412339302438035,10.979560713886446,27.76806815837131
0.0656,0.9193,0.2868,-0.1963,0.1334,0.0822,-0.3063,3.3863,-13.0462,17.327777290638444,3.825211396485212,11.794156550947775,27.780139492068233
0.073,0.9195,0.2847,-0.1963,0.1334,0.0822,0.1225,3.5788,-13.5537,17.204155981823057,4.258924798900358,11.970142983270916,27.792224982366182
0.0692,0.9231,0.2871,-0.197,0.1334,0.0819,-0.1837,3.8588,-14.6912,17.276397910668386,4.12059818590099,11.740861420435978,27.804271542011307
0.0619,0.9221,0.2834,-0.197,0.1334,0.0819,0.4812,4.06,-15.3475,17.084906514567443,3.745372585246667,11.815372997523378,27.816247672566313
0.0434,0.9298,0.2818,-0.1945,0.1338,0.0782,0.4987,2.9488,-14.9713,16.861397610276708,2.7229222255177126,10.87348286513481,27.825436368378824
0.0331,0.9352,0.2793,-0.1954,0.1336,0.0814,-0.7613,1.3912,-14.5075,16.629027584439903,2.031593853860048,11.810387849157882,27.837495668964873
0.0265,0.9324,0.276,-0.1954,0.1336,0.0814,-1.2163,0.245,-15.0237,16.489674743474477,1.608624721818536,11.853438449549282,27.849566294831742
0.0351,0.9378,0.2715,-0.2009,0.1319,0.0795,-1.5837,-1.26,-16.0212,16.147050833707095,2.0194793943572247,11.479112007988766,27.861726461200117
0.049,0.9394,0.2683,-0.2009,0.1319,0.0795,-2.03,-2.2925,-16.8525,15.940319835191964,2.802759780472154,11.75953646894263,27.874189932745526
0.0463,0.9334,0.2773,-0.1966,0.1312,0.0774,-2.0913,-3.0888,-16.9837,16.54429833127832,2.728421013612803,11.007470633976178,27.8860499791721
0.0467,0.9246,0.2791,-0.1966,0.1312,0.0774,-2.625,-3.9725,-16.695,16.796291414742495,2.765462853701261,10.825517740114577,27.897946124931295
0.0502,0.922,0.2725,-0.1974,0.1347,0.0787,-3.2288,-5.04,-17.2637,16.46611255202947,2.974209502797513,11.148830695725938,27.906641817112995
0.0511,0.9213,0.2703,-0.1964,0.1326,0.0804,-3.2813,-5.7312,-17.64,16.35146245725103,3.04195307433161,11.948207548543525,27.918879136956974
0.0514,0.9199,0.2611,-0.1964,0.1326,0.0804,-2.6513,-5.4163,-18.025,15.847183989851013,3.07458073010578,12.336902541112055,27.931063369547097
0.0616,0.9301,0.2625,-0.1953,0.1335,0.0797,-2.4763,-5.1013,-17.3862,15.76077289585954,3.6095062922137617,12.30855026111677,27.94327662316933
0.0684,0.9335,0.2548,-0.1953,0.1335,0.0797,-2.7562,-4.725,-16.1525,15.268406463803863,4.014138944591891,12.7621366569135,27.955485275896226
0.0736,0.9406,0.2653,-0.1944,0.132,0.0782,-3.3775,-3.6925,-15.8375,15.750002042539302,4.285633868767557,12.178154749137487,27.96773321319098
0.0732,0.9389,0.2636,-0.1943,0.1324,0.0808,-3.605,-3.36,-15.3125,15.682487472353353,4.2921317940948995,12.955520674603983,27.980071398817287
0.0732,0.9312,0.2613,-0.1943,0.1324,0.0808,-3.4825,-2.1788,-15.2425,15.674442858262331,4.325252600681975,12.96907962525602,27.989409800685674
0.0702,0.9348,0.2547,-0.1954,0.1334,0.081,-3.1412,-0.84,-15.1112,15.242295287889224,4.160623755761626,13.174580644286486,28.00154837823748
0.0672,0.9351,0.2633,-0.1954,0.1334,0.081,-3.4913,0.21,-14.2887,15.724529627071155,3.9775817636950115,12.76530743753121,28.013625374574815
0.0693,0.9318,0.2591,-0.1954,0.1356,0.083,-3.4913,0.7437,-14.21,15.539837411570456,4.08558026021739,13.34363101925416,28.02568892214117
0.0712,0.9334,0.2632,-0.1963,0.133,0.0811,-3.29,1.8025,-13.3175,15.746817306878519,4.185363661379101,12.793710984135341,28.037688765002898
0.0722,0.9299,0.2646,-0.1963,0.133,0.0811,-3.4388,2.1525,-12.5475,15.883156638595674,4.260124394769714,12.702399193436694,28.049755851719514
0.0751,0.9307,0.2685,-0.1951,0.1326,0.0807,-3.6663,3.43,-12.39,16.091884799259397,4.407463912312839,12.567556279702139,28.059128583345395
0.0784,0.932,0.2612,-0.1951,0.1326,0.0807,-2.695,3.5438,-12.6962,15.657113288340554,4.596935478038788,12.943968245589122,28.07116240204959
0.0792,0.9316,0.2619,-0.1962,0.1325,0.0779,-2.7738,4.2263,-12.2675,15.702103013508552,4.664946721365917,12.044177890440823,28.08318383372789
0.0782,0.9318,0.2616,-0.1972,0.1317,0.0802,-2.7913,4.9,-12.5475,15.681978936341313,4.628133968878292,12.703954239060101,28.095171643478743
0.0704,0.928,0.2603,-0.1972,0.1317,0.0802,-3.7013,5.355,-12.3462,15.66861579236141,4.27183317814052,12.631310326217742,28.1072489937311
0.0654,0.9281,0.2715,-0.1985,0.133,0.0818,-4.0862,5.915,-12.1712,16.304206137399298,3.964507935204391,12.359082586054098,28.119334130114026
0.0645,0.9231,0.2677,-0.1985,0.133,0.0818,-3.5963,6.3612,-11.83,16.172576256753956,3.872429802300549,12.455163836228516,28.12864988142077
0.0615,0.9242,0.273,-0.1947,0.1319,0.0875,-4.0425,6.265,-12.285,16.455869813813496,3.7085875125402046,14.146662787595103,28.140647600792345
0.0648,0.9251,0.2742,-0.1947,0.1319,0.0875,-4.41,6.475,-12.7925,16.509696433414987,3.8056695357005443,14.147052066660798,28.152686728221926
0.0593,0.9249,0.2726,-0.1978,0.1319,0.0789,-4.2962,7.105,-12.67,16.422306959919826,3.613682196976469,11.526100275356267,28.164769741114696
0.0633,0.9207,0.2781,-0.1984,0.1285,0.081,-4.2962,7.28,-13.2475,16.806036283377843,3.712374141980938,12.100884660233827,28.176842844386748
0.0543,0.9219,0.277,-0.1984,0.1285,0.081,-3.9113,7.0,-13.755,16.723983439818962,3.3827625765987626,12.070763511551782,28.188782521694105
0.0588,0.9179,0.2774,-0.1988,0.1306,0.0811,-3.535,6.7288,-14.0087,16.815175032270158,3.4719635062410252,11.885911649759993,28.198153837659884
0.0509,0.9152,0.2773,-0.1988,0.1306,0.0811,-3.7625,6.7987,-13.6937,16.856374711353553,3.1741277096756044,11.77728504824585,28.21023224965732
0.0489,0.9174,0.2776,-0.1982,0.1316,0.0714,-3.325,6.4663,-13.5275,16.835572117473024,2.9896558397466446,9.018708247985384,28.222266776191567
0.047,0.9188,0.2763,-0.1994,0.1318,0.08,-3.1675,5.6262,-14.3238,16.737264185035702,2.8455308746922943,11.38977285853906,28.23427865216417
0.0436,0.9181,0.2725,-0.1994,0.1318,0.08,-2.8525,4.8038,-14.0087,16.531903384932292,2.651451634970825,11.512533492040971,28.246391747834128
0.0422,0.9225,0.2719,-0.198,0.1302,0.0807,-2.24,4.2875,-14.3762,16.4227855786745,2.536226643572672,11.979156532145327,28.25565299622691
0.0359,0.927,0.2764,-0.198,0.1302,0.0807,-2.415,3.8588,-14.7087,16.602308857955677,2.1908422560741605,11.78365230037988,28.2677197290285
0.0392,0.926,0.2763,-0.1979,0.1321,0.084,-2.0738,2.6513,-14.3325,16.614026022514988,2.30530220183922,12.567475123218308,28.279848396959586
0.0444,0.919,0.2788,-0.1979,0.1321,0.084,-2.3538,1.5662,-13.825,16.8756797532726,2.6071817743681205,12.428518212528763,28.291800461292844
0.0517,0.9105,0.2762,-0.1982,0.1302,0.0816,-1.7675,0.3325,-12.7575,16.875165318970794,3.058914511922184,11.98131551792078,28.303865070604278
0.0651,0.9155,0.2757,-0.1992,0.1303,0.0804,-1.2687,0.2713,-11.5412,16.759826100284005,3.8103992194297063,11.798057246865644,28.315934280811046
0.0717,0.9393,0.2677,-0.1992,0.1303,0.0804,-0.665,0.5862,-10.8238,15.909829842148048,4.157927701410868,12.48683544037597,28.325228797216244
0.0692,0.941,0.268,-0.2006,0.1315,0.0797,-1.1812,0.0175,-12.5037,15.897167689238307,4.056683041302049,12.093852819967948,28.337315703174298
0.0676,0.9396,0.2662,-0.2006,0.1315,0.0797,-1.855,-0.1225,-13.2737,15.818279716303639,3.9692061554664604,12.13735217331552,28.349348106218393
0.0708,0.9357,0.2717,-0.2,0.1314,0.0784,-1.47,-0.6825,-14.735,16.190743880282493,4.1387652515486,11.572764624401481,28.361460140143272
0.0695,0.939,0.2684,-0.1986,0.1318,0.0795,-2.3712,-1.1725,-15.9075,15.952492269878055,4.076609925671581,12.102108726021969,28.373658883249448
0.062,0.9395,0.2677,-0.1986,0.1318,0.0795,-3.115,-0.9887,-16.8875,15.904439892207144,3.6714927253388607,12.061072511584308,28.385725969966064
0.0587,0.9357,0.2657,-0.2,0.1302,0.0786,-3.7362,-1.2163,-17.0888,15.852490018405454,3.4726944193497653,11.853499383030341,28.39777536093139
0.0517,0.9334,0.2697,-0.2,0.1302,0.0786,-3.7538,-1.5925,-17.57,16.11559406558734,3.0823371259056995,11.593087688408152,28.4074995301778
0.0467,0.9265,0.2783,-0.2005,0.1305,0.0773,-4.2,-1.82,-17.7012,16.71745069696992,2.790392425257678,10.697895530002919,28.418555127750935
0.0436,0.9196,0.2783,-0.2006,0.1315,0.0788,-4.515,-2.24,-16.9662,16.837144457418333,2.6137867247769515,10.911297182109701,28.430783245804246
0.042,0.9151,0.2801,-0.2006,0.1315,0.0788,-4.725,-2.7825,-16.4325,17.018159726956313,2.520722526030953,10.76483924168951,28.442941642597496
0.0459,0.918,0.2777,-0.2001,0.1318,0.08,-3.9025,-3.2638,-16.7737,16.831363176620005,2.723620573848951,11.270745111468218,28.45517613112127
0.0432,0.9154,0.2755,-0.2001,0.1318,0.08,-4.2175,-4.165,-17.2112,16.74998595126372,2.596969705949672,11.307208111008975,28.467369919417088
0.0442,0.9188,0.2779,-0.1989,0.1314,0.0813,-3.9463,-4.6638,-16.6863,16.828237883279165,2.6337229687505967,11.714852480658546,28.47982631266198
0.0426,0.927,0.2726,-0.1986,0.1318,0.085,-3.535,-5.075,-15.5837,16.388066871074958,2.531603945616232,13.023879656912344,28.489222048764535
0.0531,0.9296,0.2706,-0.1986,0.1318,0.085,-3.955,-5.7225,-12.005,16.230337054828635,3.100926335958043,13.255480959634141,28.50124772742314
0.0671,0.9321,0.2739,-0.1992,0.1321,0.0821,-3.9113,-4.935,-13.055,16.37516543300577,3.8946158781474844,12.430760423011149,28.513410371196695
0.0662,0.9268,0.2736,-0.1992,0.1321,0.0821,-4.7512,-5.3987,-12.495,16.446894938997126,3.9174041500505963,12.370375498371459,28.525487013619003
0.0703,0.9209,0.277,-0.1988,0.131,0.0836,-4.97,-5.0925,-12.5125,16.740098618458017,4.163740729144934,12.728148177525874,28.53757852047239
0.0689,0.917,0.2754,-0.1988,0.131,0.0788,-4.55,-5.0575,-11.9263,16.716504197329673,4.119113594340472,11.38673881009329,28.549650208084337
0.0707,0.9209,0.2816,-0.1994,0.1306,0.0788,-4.7163,-4.48,-12.565,17.002209944395737,4.193486306427646,11.180723407288221,28.561777460355323
0.0701,0.9284,0.2847,-0.2004,0.1304,0.0838,-4.69,-4.6725,-14.1837,17.04837784083478,4.133280490795835,12.486602672241526,28.573888078620097
0.052,0.9215,0.2906,-0.2004,0.1304,0.0838,-4.8562,-5.425,-14.49,17.501706102374943,3.1481688133473438,11.96478128096846,28.58327992165737
0.0468,0.9206,0.2959,-0.2014,0.1302,0.0831,-5.1887,-5.8975,-14.3238,17.817618239840396,2.7943611368287478,11.44758254200964,28.595377091151168
0.0434,0.9209,0.293,-0.2014,0.1302,0.0831,-4.9525,-6.2475,-13.9912,17.649814423489328,2.585004595365807,11.539946329374699,28.607445239612858
0.0415,0.9203,0.2976,-0.2002,0.129,0.0908,-5.4775,-7.0963,-13.1862,17.919056977416254,2.4642848825663037,13.564359568428857,28.61991932860904
0.0367,0.9187,0.2976,-0.2009,0.1302,0.0874,-5.3025,-7.91,-12.7487,17.948923442765153,2.192346884897093,12.44075590502822,28.631712485095754
0.042,0.9079,0.2944,-0.2009,0.1302,0.0874,-4.9175,-9.135,-12.1538,17.966006219009635,2.5026861225868466,12.486495572089325,28.64380080671391
0.0536,0.9092,0.2922,-0.2009,0.1312,0.0886,-5.39,-10.3512,-11.3575,17.816850949291908,3.1777532763233474,12.961716019684118,28.655930182475046
0.0589,0.9142,0.2895,-0.2009,0.1312,0.0886,-4.5763,-11.515,-11.6287,17.572119749010767,3.4992278064835785,13.202265033109539,28.668098488889015
0.0629,0.9184,0.2891,-0.205,0.1303,0.0843,-3.8325,-13.2825,-12.1975,17.473572348135324,3.7275467012804273,11.966373776578516,28.677528908664087
0.0486,0.9276,0.2837,-0.2039,0.1293,0.0892,-4.025,-14.0087,-11.9175,17.00716401603738,2.9038423470683705,13.606965467139949,28.689685535882205
0.0157,0.9428,0.2843,-0.2039,0.1293,0.0892,-4.6638,-15.4787,-11.3575,16.781230142182793,0.9911146289395137,13.41895563590984,28.70182836041432
0.0093,0.9413,0.2854,-0.2088,0.1294,0.0917,-5.0487,-17.2112,-10.6487,16.866947762422672,0.5581430058078278,13.610688190902376,28.71400126772362
0.0133,0.9369,0.2926,-0.2088,0.1294,0.0917,-5.0225,-19.9937,-9.5113,17.34261996485316,0.7690867587868601,13.322521586030751,28.726106223347987
0.0243,0.9315,0.2802,-0.2066,0.1281,0.087,-6.02,-22.0937,-8.5662,16.74320790069393,1.4104843975397188,12.888090102496932,28.738228520808608
0.0329,0.9252,0.283,-0.2072,0.129,0.0948,-6.2825,-24.2375,-6.86,17.00708670126781,1.9319488877676219,14.6833325165446,28.750476104188337
0.0495,0.9173,0.2799,-0.2072,0.129,0.0948,-6.1512,-26.9937,-5.7312,16.96886833282154,2.927066308013045,14.90989840303091,28.76243276941693
0.052,0.9181,0.2876,-0.2099,0.1295,0.0962,-5.6087,-29.2425,-4.4363,17.39229467391969,3.089529177325614,14.769401554535989,28.774483929957384
0.044,0.9154,0.2769,-0.2099,0.1295,0.0962,-5.285,-31.1588,-3.3338,16.831619035444618,2.645211181214346,15.071291847504801,28.783898777471325
0.0329,0.9181,0.2836,-0.2157,0.1278,0.1034,-4.9963,-33.2938,-3.0888,17.1649414879995,1.9767154552038138,16.189868677062513,28.796063544735034
0.0176,0.9233,0.2729,-0.2166,0.1259,0.0994,-5.11,-36.085,-2.4938,16.4680249681765,1.067374265079943,15.583358691671249,28.808348643107486
0.0246,0.9313,0.268,-0.2166,0.1259,0.0994,-5.18,-43.5138,-3.08,16.055353165078746,1.4469056340652584,15.924486717324655,28.820207273873958
0.0641,0.9304,0.2605,-0.2187,0.1253,0.1027,-7.1138,-47.2238,-4.6463,15.642700698446609,3.7547065542889686,17.35022769358703,28.832327447844428
0.0906,0.9278,0.2583,-0.2187,0.1253,0.1027,-8.47,-50.855,-5.5037,15.55746637634371,5.347603665499262,17.769569072562074,28.844494692513315
0.1066,0.9157,0.2632,-0.2236,0.126,0.1046,-9.555,-53.5237,-6.8513,16.034931479399003,6.3676344149957655,17.73237576999191,28.856557886164648
0.1125,0.906,0.2597,-0.2238,0.1252,0.1088,-9.1787,-54.88,-8.4,15.994775069544788,6.800156709951468,18.92584453147021,28.86587116006621
0.1211,0.9073,0.2614,-0.2238,0.1252,0.1088,-9.3887,-56.0088,-8.9337,16.07187746845483,7.300941962691614,19.010307997256344,28.877933999802515
0.1431,0.9059,0.2504,-0.2276,0.125,0.112,-10.885,-57.3125,-8.7062,15.453068618014502,8.636985234571084,20.246036377247066,28.89097612241496
0.1648,0.9095,0.2506,-0.2276,0.125,0.112,-10.4125,-57.4,-8.9162,15.404933288576084,9.89009815512662,20.65479440179619,28.90176805329394
0.1881,0.9134,0.2456,-0.2313,0.1258,0.1062,-11.13,-56.805,-10.7187,15.051028430785768,11.227397330059567,19.462968338237733,28.913976352105813
0.1868,0.9179,0.2505,-0.2326,0.1242,0.1192,-12.0137,-56.7438,-11.7075,15.264029145983793,11.109299965091015,22.453764721671956,28.926250479112465
0.1823,0.9041,0.2504,-0.2326,0.1242,0.1192,-12.215,-55.0988,-10.6138,15.480025340027291,10.998491758264512,22.283788514736745,28.938497000747113
0.1871,0.8857,0.2545,-0.2345,0.1262,0.1236,-12.1975,-53.9962,-9.765,16.030111864606514,11.469298757479757,22.881976214355593,28.95073290493099
0.199,0.8816,0.2588,-0.2345,0.1262,0.1236,-11.7775,-51.7737,-9.4762,16.359059373581747,12.208599332625814,22.943838390363837,28.96343562303378
0.2117,0.8798,0.2531,-0.2383,0.125,0.1337,-10.9462,-50.5662,-9.5288,16.05027854234855,13.007080905771119,25.51512797506854,28.975444313771153
0.2223,0.8838,0.25,-0.2406,0.1246,0.1298,-10.185,-48.9388,-8.5575,15.79529644510876,13.595566053535574,24.753535116029212,28.98762571504107
0.2244,0.8885,0.2388,-0.2406,0.1246,0.1298,-9.0738,-47.4425,-7.7962,15.045821331316967,13.705148213230293,25.24515877406125,28.997012957183006
0.2309,0.8851,0.2409,-0.2459,0.1242,0.132,-7.8488,-45.4212,-8.0237,15.225040325522908,14.121205902092616,25.26668018027202,29.009261956222833
0.2307,0.8818,0.2428,-0.2459,0.1242,0.132,-8.1988,-43.54,-8.9162,15.394205402386918,14.156142753211725,25.178865455973426,29.02121472838614
0.2131,0.8788,0.2429,-0.2446,0.1228,0.1312,-7.4988,-42.2625,-9.3537,15.450623584002425,13.17446115362147,24.75640588139391,29.03328146118773
0.2142,0.8763,0.2408,-0.2496,0.1254,0.1368,-7.035,-41.7112,-8.7587,15.3653923830677,13.260846928660834,25.500198687833272,29.045402696903277
0.2226,0.8744,0.2417,-0.2496,0.1254,0.1368,-6.02,-40.7225,-8.4525,15.451526049831147,13.77612521389034,25.659894436997593,29.05759860868925
0.2425,0.9033,0.2413,-0.2509,0.1226,0.1382,-5.5563,-39.6287,-8.8812,14.957643962545822,14.524804772682863,26.517549720459794,29.069597035890876
0.2203,0.9113,0.2435,-0.2509,0.1226,0.1382,-4.9788,-38.2112,-9.065,14.95997356878051,13.174265492425649,25.95563430186331,29.081642179875896
0.1703,0.9207,0.2388,-0.2544,0.1257,0.1387,-4.9175,-37.4675,-9.7825,14.541434841518297,10.214401134352281,24.74446696567883,29.091076138801224
0.1385,0.9281,0.232,-0.2546,0.1243,0.1411,-5.4425,-38.7187,-10.4475,14.036179688585609,8.278213678386313,24.91587495891436,29.103342479677313
0.1199,0.9365,0.2201,-0.2546,0.1243,0.1411,-4.935,-48.0025,-13.8162,13.228073874055951,7.124557867131759,24.989593283938127,29.115443542236395
0.1688,0.9546,0.2109,-0.259,0.1234,0.1457,-9.065,-52.815,-14.9888,12.460377846098734,9.753904171649847,26.755699406730642,29.127549205690812
0.2032,0.9564,0.2037,-0.259,0.1234,0.1457,-11.76,-56.245,-16.1788,12.024768733465553,11.709224909549377,27.65863888232819,29.139774492423918
0.2373,0.9539,0.2071,-0.2609,0.1241,0.1531,-14.14,-58.03,-17.0888,12.248681558645515,13.635137593669528,29.578929223691066,29.15202490712385
0.2549,0.9511,0.2039,-0.2638,0.1257,0.153,-16.8437,-58.065,-18.2525,12.100525662742022,14.668859712189438,29.72105526822615,29.16422258848495
0.263,0.9311,0.2225,-0.2638,0.1257,0.153,-19.0575,-57.5312,-20.125,13.435817529735226,15.351442751979034,29.36325999415007,29.176430533381794
0.1968,0.9135,0.2314,-0.2653,0.1262,0.1579,-20.7375,-56.6475,-21.2275,14.212446271881104,11.849292583781974,28.296340664903244,29.188651219219565
0.1319,0.9021,0.2225,-0.2653,0.1262,0.1579,-21.875,-57.2163,-21.3412,13.856299078369867,8.135693354443488,27.139254633216265,29.200893493873906
0.1064,0.9012,0.2231,-0.2653,0.1279,0.1681,-22.3213,-60.2175,-21.5862,13.904387211563568,6.560581610980765,28.409132024522584,29.213085512594596
0.1177,0.9232,0.2068,-0.2666,0.1275,0.1678,-22.61,-65.7825,-21.7262,12.629703266928791,7.0846378328018345,29.044050824137976,29.225286025275903
0.19,0.9615,0.1917,-0.2666,0.1275,0.1678,-26.2325,-75.18,-24.0187,11.279485826427623,10.92209867367161,31.073518838267148,29.237534670400706
0.1992,0.9838,0.1848,-0.2696,0.1278,0.1734,-29.2863,-78.33,-23.5987,10.640521808825264,11.251055655409909,32.14421164801142,29.249761372793913
0.1655,0.9789,0.1781,-0.2696,0.1278,0.1734,-32.5062,-81.2175,-22.3038,10.312516304259791,9.463708627921946,31.58956495018615,29.26197922731148
0.1229,0.9772,0.1623,-0.2729,0.1308,0.1776,-36.1987,-86.2838,-23.5725,9.432633905588355,7.097229332499371,31.456910029560373,29.271533517345553
0.0765,0.9839,0.1405,-0.2755,0.1316,0.1906,-40.1712,-95.235,-25.3225,8.130797288746786,4.427017571015464,32.92741485127809,29.283631748584426
0.0949,0.9959,0.1261,-0.2755,0.1316,0.1906,-45.0363,-104.8688,-27.8687,7.219152527514329,5.391993211992376,33.598151220553326,29.295953300204527
0.1279,0.9951,0.1222,-0.282,0.1358,0.2028,-49.8838,-113.8813,-29.8812,7.0016500666652695,7.254895711954494,35.44047696712062,29.308213978440204
0.1247,0.9815,0.1062,-0.2848,0.1388,0.2139,-55.195,-121.7213,-30.4675,6.178099658750795,7.199509256627042,37.00053467401151,29.320508632518347
0.0999,0.9714,0.105,-0.2848,0.1388,0.2139,-59.9113,-129.4825,-32.06,6.169258248766122,5.847710922128312,36.52993184844296,29.332752676747816
0.0788,0.9764,0.0703,-0.2926,0.1421,0.2253,-63.6562,-150.9637,-36.2337,4.1248330562890025,4.609904177730026,37.55613494052461,29.3450161863037
0.1003,0.9836,0.0602,-0.2926,0.1421,0.2253,-72.59,-161.7962,-36.225,3.5044385640596007,5.80466963581434,38.13875173710696,29.357356141505136
0.1473,0.9661,0.0551,-0.3014,0.148,0.2364,-77.8575,-171.57,-36.0412,3.265060274121101,8.639508844763917,39.74278112979483,29.36961044927035
0.2125,0.9448,0.0542,-0.313,0.1546,0.2568,-82.5825,-178.15,-36.1813,3.2832044595158445,12.634300493889693,42.68544749826112,29.381836443833507
0.3113,0.9018,0.0572,-0.313,0.1546,0.2568,-86.4938,-181.6412,-35.9712,3.628114911035472,18.975905501639723,45.71781968026479,29.394114463905446
0.344,0.8907,0.0647,-0.3265,0.1599,0.2736,-89.3025,-183.2687,-36.3475,4.152765428013401,21.05578414922189,47.40446052816399,29.406403809258205
0.3576,0.8721,0.0576,-0.347,0.1669,0.286,-91.525,-183.925,-36.0325,3.780094982036932,22.245919987063488,47.55288626715979,29.418660948343625
0.3753,0.8582,0.0722,-0.3412,0.1669,0.286,-92.6625,-183.75,-35.49,4.805238841547504,23.539480214650894,48.85552232312574,29.431179276718016
0.4262,0.7995,0.0902,-0.3545,0.1734,0.3014,-92.4,-183.015,-35.6388,6.431048028993848,27.888544709429514,52.25505644205235,29.44327927753202
0.4493,0.7712,0.0978,-0.3545,0.1734,0.3014,-88.0863,-179.865,-35.1225,7.224582881513328,30.015353508652993,53.93419505739308,29.45493440715871
0.48,0.7543,0.1123,-0.3745,0.1833,0.3182,-82.95,-176.3125,-35.1225,8.463654546797137,32.17525025065125,55.81759142362438,29.467222336851364
0.4561,0.7718,0.1136,-0.3893,0.1918,0.3249,-75.6788,-171.5875,-34.86,8.37345973249824,30.323238432918636,53.597714617125646,29.47952442314505
0.5323,0.7853,0.1577,-0.3893,0.1918,0.3249,-69.7638,-163.8175,-34.1338,11.344902248425113,33.58765816890379,56.653945984243975,29.491773068269854
0.5633,0.7904,0.1144,-0.4046,0.197,0.3326,-71.995,-159.1887,-34.405,8.246044312279079,35.18687039615533,57.625704903433885,29.50406524494282
0.5715,0.7926,0.1566,-0.4046,0.197,0.3326,-69.5275,-149.4325,-33.4775,11.16667052128624,35.273896502389036,57.793632722492184,29.516350697230294
0.578,0.7919,0.1479,-0.4215,0.2026,0.3336,-67.1825,-140.77,-33.915,10.580962397771014,35.656280766811726,56.74344903295757,29.528720027378867
0.5807,0.787,0.1767,-0.4356,0.2082,0.347,-65.5375,-131.495,-33.6875,12.64759071839016,35.75102448327647,56.97819957836643,29.54086108233585
0.5749,0.7796,0.1746,-0.4356,0.2082,0.347,-60.5937,-113.715,-32.2438,12.623786519387565,35.739006762275174,56.964366469031894,29.553175909570463
0.5777,0.7701,0.1903,-0.448,0.2145,0.3514,-58.0213,-104.055,-31.99,13.876310111574815,36.06138330672265,56.7490928871424,29.56545074440717
0.5803,0.7619,0.1997,-0.4558,0.2204,0.3598,-55.3,-95.0163,-31.9725,14.684708855062778,36.37829422913661,57.46323566210803,29.577717085283258
0.5771,0.7446,0.2089,-0.4558,0.2204,0.3598,-52.08,-85.3125,-32.025,15.668538254519385,36.72788936655984,57.85770673533164,29.589940602441235
0.5507,0.7316,0.227,-0.4639,0.2242,0.3601,-48.16,-76.8863,-31.3337,17.2331379168823,35.72486464735654,55.68864364800363,29.602201280676912
0.535,0.7342,0.2394,-0.4639,0.2242,0.3601,-43.3737,-69.2825,-30.38,18.05702363943126,34.72638891639746,54.25891030506012,29.614489210369566
0.5182,0.7377,0.2424,-0.47,0.2302,0.3661,-38.605,-62.5713,-29.3563,18.189546180305584,33.731034712279595,53.244305890701014,29.626716266677803
0.504,0.7339,0.247,-0.475,0.2309,0.3641,-33.9325,-55.9388,-27.2475,18.59985369138123,33.069001017851896,51.56992944371358,29.63894473864614
0.4843,0.7349,0.2503,-0.475,0.2309,0.3641,-30.8787,-50.5925,-26.4687,18.807743597259346,31.97473142871051,50.19265841030254,29.651197984666275
0.494,0.697,0.2558,-0.4798,0.2327,0.3662,-27.1688,-44.3275,-24.15,20.149287518673315,33.60759541920282,51.64903380679105,29.66346467945739
0.5048,0.7252,0.2499,-0.4798,0.2327,0.3662,-16.94,-34.7638,-23.2925,19.01688861931868,33.35491395458969,51.607935295973284,29.675720048967683
0.499,0.7429,0.2518,-0.4854,0.2342,0.3674,-12.3987,-29.4525,-22.1287,18.724496749205105,32.48480366863115,50.209638874343824,29.6879509983412
0.4867,0.7768,0.2494,-0.486,0.2342,0.3662,-10.0275,-24.8937,-21.3412,17.802353410759572,30.865864270962668,48.42637146226155,29.700208137426618
0.4341,0.7795,0.2511,-0.486,0.2342,0.3662,-8.0325,-20.9562,-19.1625,17.85513857037326,28.021332903587783,45.45461154749176,29.712414312748336
0.4258,0.7844,0.2503,-0.4911,0.2341,0.3714,-6.72,-18.3838,-18.375,17.698180818634654,27.369203387235164,45.075907871198034,29.721295810318534
0.4389,0.7828,0.2437,-0.4911,0.2341,0.351,-4.6287,-16.87,-18.0775,17.293433555952216,28.132454817462722,43.66525337591986,29.733517203986356
0.441,0.7889,0.235,-0.4905,0.2345,0.3657,-3.2987,-15.0325,-18.5062,16.589828971107494,28.177940609812538,45.67414152526821,29.745699313086327
0.4484,0.7907,0.242,-0.4944,0.2342,0.3665,-1.61,-13.0025,-18.0513,17.015986097445182,28.456769962163854,45.531524010621276,29.75795362085154
0.4631,0.8039,0.2388,-0.4944,0.2342,0.3665,0.0175,-10.4387,-17.71,16.54542493354967,28.88632146320104,46.109519726528454,29.77011414113494
0.4562,0.8139,0.2389,-0.4946,0.2332,0.3679,1.5137,-6.895,-16.695,16.358786219208778,28.308356830506643,45.68600824896201,29.782269352692957
0.445,0.8222,0.2364,-0.4946,0.2332,0.3679,2.765,-3.92,-16.17,16.041921457088097,27.540347509979323,45.06811534693921,29.794417485950458
0.4405,0.8192,0.2414,-0.4961,0.2344,0.368,3.0975,0.805,-13.2388,16.41806131549065,27.311734291790092,44.66094999006991,29.803212274339355
0.438,0.8133,0.2341,-0.4958,0.2334,0.3634,2.9138,2.4938,-12.425,16.05888240621307,27.35637965582809,44.36604477263373,29.815323954349207
0.439,0.7893,0.2372,-0.4958,0.2334,0.3634,3.5875,3.885,-11.9175,16.72475907864648,27.93257808886282,44.746932965224026,29.82751738873
0.4342,0.7814,0.2358,-0.4952,0.2292,0.3622,4.8125,5.2675,-12.0487,16.791852563836773,27.995595531220008,44.54946941482899,29.83959296940723
0.4138,0.7859,0.2305,-0.4952,0.2292,0.3622,7.2625,6.0113,-12.2412,16.347293649272856,27.093586119020294,43.63889863216826,29.851697217201544
0.3899,0.8056,0.2246,-0.4953,0.231,0.3657,8.4962,5.8975,-13.0288,15.580415862767717,25.49014985873372,42.803082297920895,29.86046970894382
0.3713,0.8223,0.2188,-0.4958,0.2281,0.3591,8.925,5.11,-13.0462,14.901981865016015,23.955378056008964,41.20723413690015,29.87259059074434
0.3636,0.8316,0.2128,-0.4958,0.2281,0.3591,8.7675,3.325,-11.2962,14.354989810576843,23.103205261704232,40.96047685781099,29.884769868524106
0.3592,0.8321,0.2051,-0.495,0.2285,0.3594,8.0675,1.365,-10.9462,13.847872420810713,22.78161000867982,41.084445516878525,29.89682881519513
0.3845,0.8158,0.1933,-0.495,0.2285,0.3594,8.1637,-0.525,-11.3312,13.33149951659406,24.463036496758424,42.62679053576157,29.909004553824634
0.3956,0.815,0.1941,-0.4961,0.2285,0.3586,8.015,-1.5662,-11.9875,13.395812137801107,25.206823124533614,42.91896035048464,29.91781774579487
0.4041,0.819,0.1861,-0.4961,0.2285,0.3586,8.1462,-1.785,-12.3287,12.80341675426355,25.65326904744974,43.422600410637855,29.931381185240184
0.4078,0.823,0.186,-0.498,0.2278,0.359,7.7263,-2.0738,-12.1625,12.73522012211693,25.783545930491265,43.394653774385816,29.942129230655976
0.4079,0.8292,0.1792,-0.496,0.2256,0.3549,7.7525,-0.9887,-12.39,12.19618927713428,25.688552593887792,43.171644217241244,29.95426710037773
0.4014,0.8412,0.1756,-0.496,0.2256,0.3549,7.8225,-0.7263,-13.3175,11.792205945477788,25.097508237053745,42.81338277930845,29.966430805896366
0.4004,0.8528,0.1655,-0.4984,0.2237,0.3539,6.4488,-0.9625,-13.23,10.984828421579476,24.77729424121437,42.51245246462067,29.97855381118704
0.4071,0.8662,0.1668,-0.4984,0.2237,0.3539,4.5938,-1.3562,-13.1075,10.899982769843964,24.773889345243447,42.554860845650516,29.98740522598005
0.422,0.8709,0.1789,-0.4994,0.2241,0.3579,3.1063,-1.1638,-12.6787,11.606303575073287,25.33651826972381,43.12582528791521,29.999608569981564
0.4301,0.8733,0.1724,-0.4998,0.2238,0.3566,0.56,-1.015,-11.5762,11.168473708300539,25.74811561299402,43.37021942150663,30.011712817775877
0.432,0.8703,0.1828,-0.4998,0.2238,0.3566,-1.5662,-0.8138,-13.0113,11.860230691425247,25.894830458323906,43.27199281894681,30.023906606071694
0.4286,0.8502,0.1877,-0.4982,0.2243,0.3537,-2.9575,0.4375,-14.3937,12.447974657847826,26.176892933393095,43.17605150524094,30.036064648949914
0.424,0.8172,0.1903,-0.4982,0.2243,0.3537,-4.7688,0.2625,-14.3413,13.106944701868882,26.744616795785547,43.44948269849104,30.04819756386131
0.4267,0.812,0.184,-0.5014,0.2243,0.357,-3.2813,0.5163,-14.8225,12.768587701732992,27.094526040700185,43.884700891555966,30.057011817576623
0.4258,0.8231,0.1893,-0.5014,0.2243,0.357,-2.6863,0.9975,-14.4025,12.951406310130002,26.792166358011563,43.53296768028289,30.06917092219992
0.4278,0.8408,0.1919,-0.4998,0.2232,0.3525,-2.9488,1.085,-14.1837,12.856940022729862,26.428640482073696,42.91776095989315,30.08133179639835
0.4297,0.8506,0.1864,-0.5023,0.2244,0.3547,-3.0713,1.3912,-13.4925,12.361731731973762,26.283393174381985,43.01754045937733,30.093501872387442
0.4369,0.8348,0.1987,-0.5023,0.2244,0.3547,-3.9988,2.31,-13.405,13.385673438847562,26.892968801484972,43.27386944020108,30.105635849043914
0.4371,0.8297,0.1948,-0.5002,0.223,0.3533,-4.48,3.1063,-14.1925,13.213276411064077,27.115134124260056,43.460968815194995,30.114436300073223
0.432,0.8246,0.2031,-0.5002,0.223,0.3533,-4.0862,3.5438,-15.2687,13.834910761157264,26.985131923204296,43.123140853243555,30.126667957276794
0.4311,0.8194,0.1955,-0.4999,0.2258,0.3544,-4.5237,3.78,-15.2337,13.420415451620679,27.08295371452168,43.55147843139965,30.138777159881467
0.4276,0.8203,0.1932,-0.4998,0.2253,0.353,-3.7625,5.005,-15.9425,13.253434171817535,26.937878821182824,43.295000491109384,30.15094051148507
0.4254,0.8287,0.1957,-0.4998,0.2253,0.353,-3.9463,5.3375,-16.7475,13.287048351163143,26.62792986693659,43.003097322927424,30.163046528854515
0.4015,0.8356,0.1926,-0.4965,0.2266,0.3537,-4.13,5.2762,-16.975,12.980432236137581,25.40617264422389,42.34575846025571,30.17523642408505
0.4006,0.8289,0.1971,-0.4965,0.2266,0.3537,-4.48,4.6375,-17.2987,13.374595154743513,25.2227896028074,42.28777866302001,30.184047846480155
0.4016,0.8187,0.1968,-0.4986,0.2245,0.3512,-4.8038,4.0775,-18.2875,13.515989288196218,25.453165236872707,42.021479792876946,30.196222523364582
0.4078,0.8157,0.1978,-0.4986,0.2245,0.3512,-5.5475,3.465,-18.1125,13.6302991803578,25.844232318998532,42.2993426183559,30.20839189152363
0.4086,0.8095,0.1947,-0.4986,0.2246,0.3529,-4.8825,3.0188,-17.57,13.524129590026762,26.098436045958117,42.688309325073774,30.22050958808892
0.4083,0.8081,0.1991,-0.4971,0.2258,0.3557,-4.69,3.2288,-13.8337,13.840022732854854,26.127171999231503,43.017586443057084,30.2326725857775
0.4242,0.8224,0.1992,-0.4971,0.2258,0.3557,-4.6375,4.6725,-15.505,13.616441164688338,26.53400429138408,43.47828837131588,30.244793113662993
0.4199,0.8316,0.1996,-0.4956,0.2248,0.3566,-5.2325,4.935,-16.38,13.497103446739343,26.224112699510247,43.34021691252593,30.253633911005235
0.4039,0.8312,0.2036,-0.4956,0.2248,0.3566,-6.1075,5.355,-17.7537,13.762708004451676,25.46630536884801,42.57531673714769,30.265774965962223
0.3868,0.8196,0.2007,-0.4934,0.2275,0.3577,-5.915,5.0925,-17.8325,13.759582353102479,24.792910345715846,42.42141547704809,30.27801653278651
0.3828,0.8159,0.201,-0.4938,0.2265,0.3566,-5.2325,4.0338,-17.3512,13.839229338324532,24.541190281817055,42.13599082748891,30.290119011005693
0.3672,0.8255,0.2097,-0.4938,0.2265,0.3566,-4.9963,2.5463,-15.4263,14.25210750015632,23.482816483096606,41.14227457758719,30.30224767893678
0.4155,0.8352,0.2057,-0.4978,0.2256,0.3577,-5.81,1.4875,-13.6062,13.837057051670202,25.517002721432252,42.8941897280473,30.31107538142307
0.4309,0.8375,0.2178,-0.4978,0.2256,0.3577,-5.88,1.4,-14.8225,14.575388290223009,26.361607999019935,43.202040471693344,30.323206880674363
0.4321,0.8307,0.2171,-0.4942,0.2276,0.3576,-6.0725,1.3037,-15.9425,14.646226450923924,26.6743931612426,43.701105789789885,30.335388635859307
0.428,0.8325,0.2117,-0.4942,0.2276,0.3571,-6.5625,2.4675,-16.6425,14.268621306039291,26.509758856056504,43.58203646766739,30.347530752561372
0.4169,0.8453,0.2212,-0.4954,0.2274,0.3571,-6.6238,3.5875,-15.995,14.663372891196639,25.66033735764745,42.56776087707718,30.359702598125594
0.4067,0.8383,0.2091,-0.495,0.2273,0.3578,-7.5425,3.7713,-14.5162,14.007497292851506,25.27869794251165,42.65941906463158,30.37183303563181
0.3972,0.8082,0.1998,-0.495,0.2273,0.3578,-7.3938,3.8588,-14.525,13.88635369097282,25.469620724750833,42.92846877987799,30.380635256236246
0.4001,0.8006,0.2059,-0.4936,0.2286,0.3595,-8.085,3.3513,-14.8925,14.421401368434553,25.774320567978585,43.3194159269757,30.392813472270934
0.4147,0.8078,0.2098,-0.4936,0.2286,0.3595,-6.825,3.1412,-15.6625,14.558688709684535,26.329499339010653,43.7573876719729,30.404946741097355
0.4185,0.8144,0.2172,-0.4954,0.227,0.359,-5.25,2.7738,-17.01,14.932142721409049,26.395028400182586,43.39281209256017,30.417157517314408
0.42,0.8211,0.2217,-0.4932,0.229,0.3603,-4.8387,3.29,-17.2725,15.109284130477352,26.297924764737736,43.58529801195527,30.429159129751262
0.41,0.8225,0.213,-0.4932,0.229,0.3603,-5.2413,4.1038,-18.4625,14.520357953677925,25.849296348403048,43.35810298443948,30.441363181582826
0.3954,0.8247,0.2218,-0.491,0.2281,0.3593,-4.8213,3.71,-17.7275,15.051830506075968,25.000307114995444,42.518185088354436,30.449996230804974
0.3961,0.819,0.2159,-0.491,0.2281,0.3593,-4.13,3.535,-17.29,14.768784436159567,25.054103516286023,42.78803331250119,30.462765838847623
0.3927,0.8157,0.2151,-0.4926,0.2326,0.3596,-3.675,3.3513,-17.8675,14.772591298070468,24.97610053145228,42.661115082645495,30.474778422650278
0.397,0.8163,0.2209,-0.4908,0.2298,0.3606,-4.3575,3.3163,-17.9025,15.141204703909102,25.122761324331126,42.899483485199234,30.48690496709121
0.4016,0.8162,0.2235,-0.4908,0.2298,0.3606,-3.8763,2.7037,-17.9813,15.313435343336403,25.351811549061924,43.03109057442572,30.49900709139537
0.4024,0.8204,0.2194,-0.4895,0.2296,0.3603,-3.4213,2.7825,-18.0075,14.973199513774125,25.35326936999271,43.19724259211621,30.508161457450388
0.4014,0.82,0.2257,-0.4895,0.2296,0.3603,-2.8175,2.6163,-17.3075,15.388110190439576,25.2771489002048,42.98148523587442,30.52027490703537
0.3951,0.8145,0.2158,-0.4878,0.2302,0.3571,-2.4325,2.6775,-17.85,14.84092526044717,25.142859478390463,42.8691231172809,30.5322885525831
0.3853,0.8197,0.2234,-0.4878,0.2302,0.3571,-2.9488,3.2813,-17.8937,15.243963297568886,24.50383476575346,42.15275491145624,30.5443843064168
0.3838,0.8165,0.2165,-0.4879,0.2282,0.3638,-3.0888,2.9663,-17.045,14.851658049882623,24.44448424538298,42.99857241261033,30.55646944279972
0.3813,0.8195,0.2153,-0.4872,0.2293,0.3614,-2.4675,2.345,-16.8262,14.720516091643812,24.256072073263407,42.7055719019441,30.568582184554653
0.3841,0.8222,0.2134,-0.4872,0.2293,0.3614,-2.8,1.8025,-16.2925,14.550396039514617,24.322435542002836,42.84330975634423,30.57778114390291
0.3933,0.8289,0.2193,-0.4874,0.229,0.3607,-2.6075,1.6013,-15.8987,14.818339317610993,24.60370203381031,42.89707688460675,30.58980045209105
0.4027,0.8333,0.2194,-0.4874,0.229,0.3607,-3.2113,1.6187,-16.3187,14.750854307176834,24.996034661956763,43.24030455538763,30.601857983101972
0.4006,0.8319,0.2211,-0.4874,0.2287,0.3623,-3.1325,1.7937,-15.8638,14.883461789234486,24.961568995305573,43.287211570952884,30.61394064207972
0.4022,0.834,0.2256,-0.4872,0.2286,0.3652,-4.025,2.1875,-15.5312,15.135774323885729,24.962880683489097,43.525495344124806,30.62598790955489
0.3967,0.8262,0.2134,-0.4872,0.2286,0.3652,-3.6225,1.715,-15.8025,14.484240157360306,24.9368866921156,43.71918842301778,30.638110560930542
0.3931,0.8329,0.2236,-0.4887,0.2289,0.3622,-3.3338,1.8812,-16.5987,15.025801648887802,24.557047666617972,42.76757921571821,30.64733110909537
0.3931,0.8379,0.2173,-0.4887,0.2289,0.3622,-3.8588,2.0125,-16.1262,14.54005595684994,24.440407077464336,42.87296747810195,30.659369882609923
0.3983,0.8348,0.2217,-0.4857,0.2306,0.3602,-4.1213,2.0125,-15.9687,14.871968088882145,24.717255341474118,43.077094673026174,30.67142847536592
0.3942,0.8309,0.2188,-0.4857,0.2306,0.3602,-4.4975,2.0388,-15.9337,14.753052866566415,24.653889186968975,43.03153494215987,30.683515381323975
0.395,0.8292,0.2184,-0.4872,0.2297,0.3595,-4.0687,2.275,-16.2225,14.755798876639512,24.723176744543515,42.88997363558846,30.695584591530743
0.396,0.8248,0.2256,-0.4871,0.2276,0.3622,-4.7163,2.4675,-16.2138,15.295949394783126,24.83269508511451,43.06133198874434,30.704773995173305
0.3903,0.8178,0.2192,-0.4871,0.2276,0.3622,-4.3838,2.415,-16.5287,15.005447030810746,24.759786962200483,43.08356344558054,30.71685028368059
0.3905,0.8215,0.2311,-0.4855,0.2293,0.3616,-3.9288,2.2225,-15.8463,15.710142401004028,24.60995007193364,42.79649121871088,30.728905337286328
0.3902,0.8216,0.2191,-0.4855,0.2293,0.3616,-3.6225,2.3888,-15.575,14.93397407513874,24.644763522034214,43.12150470730607,30.740962868297245
0.3848,0.813,0.2258,-0.4849,0.2298,0.3654,-3.3775,2.3013,-15.4437,15.520327474542215,24.531716431989686,43.26412708229345,30.753059329960994
