AcclX,AcclY,AcclZ,MagX,MagY,MagZ,GyroX,GyroY,GyroZ,Roll,Pitch,Yaw,Time(s)
-0.1459,0.9781,0.0204,-0.6894,0.0668,0.2034,-2.3275,0.5425,-15.1637,0,0,0,1.6197586511873674
-0.1357,0.9526,0.0254,-0.691,0.067,0.199,-2.59,0.6563,-15.1375,0,0,0,1.631837771014855
-0.1435,0.9797,0.0228,-0.691,0.067,0.199,-2.2925,1.0762,-15.0237,0,0,0,1.6439027342413142
-0.1452,0.9791,0.0206,-0.6881,0.0669,0.1994,-2.2925,1.1987,-15.47,0,0,0,1.6560211386366557
-0.1462,0.9774,0.0223,-0.6881,0.0669,0.1994,-2.2488,1.1987,-15.47,0,0,0,1.6681540535480512
-0.1431,0.9784,0.0188,-0.6902,0.0668,0.2022,-3.15,1.3125,-15.4175,0,0,0,1.6802763510086756
-0.145,0.9794,0.0248,-0.6902,0.0668,0.2022,-3.1412,1.435,-15.0325,0,0,0,1.6895928101454698
-0.143,0.9767,0.0211,-0.6874,0.0669,0.1981,-2.9313,1.575,-14.7437,0,0,0,1.7017671331148734
-0.1446,0.9787,0.0222,-0.6904,0.066,0.1998,-2.8525,1.4525,-14.9012,0,0,0,1.7145222306414676
-0.1405,0.9785,0.0206,-0.6904,0.066,0.1998,-2.5375,1.4612,-15.1725,0,0,0,1.7259232492796945
-0.1444,0.9785,0.0198,-0.6906,0.0659,0.199,-3.045,1.3212,-15.785,0,0,0,1.7380052004273878
-0.1472,0.9784,0.0192,-0.6906,0.0659,0.199,-3.1937,1.2862,-15.2512,0,0,0,1.750112987371958
-0.1454,0.9776,0.0253,-0.6895,0.0663,0.203,-3.4913,1.1812,-14.6562,0,0,0,1.7622289143621195
-0.1474,0.9765,0.0246,-0.6908,0.0662,0.1998,-3.08,1.0675,-14.4637,0,0,0,1.7716200495693386
-0.1431,0.9772,0.0221,-0.6908,0.0662,0.1998,-2.625,1.1987,-14.7175,0,0,0,1.7837465940102715
-0.1461,0.983,0.0196,-0.6888,0.0642,0.1998,-2.555,0.8925,-15.1462,0,0,0,1.7958784471765898
-0.1331,0.9764,0.0249,-0.6888,0.0642,0.1998,-2.9838,1.1638,-15.3387,0,0,0,1.807922883331558
-0.1426,0.9783,0.0232,-0.6921,0.0667,0.195,-2.7388,1.3475,-14.6212,0,0,0,1.8200055423093027
-0.144,0.9787,0.0206,-0.687,0.0655,0.1986,-1.5837,0.945,-15.1287,0,0,0,1.8321462433512639
-0.1467,0.9831,0.0228,-0.687,0.0655,0.1986,-2.6863,0.9975,-15.1375,0,0,0,1.844215099643006
-0.1455,0.9747,0.0215,-0.6916,0.0652,0.2006,-4.4012,1.19,-15.4263,0,0,0,1.8535789833932454
-0.1385,0.9841,0.0195,-0.6916,0.0652,0.2006,-2.7913,0.8925,-15.3737,0,0,0,1.8657076513243325
-0.1377,0.9747,0.0215,-0.6918,0.067,0.1922,-2.695,1.5662,-15.19,0,0,0,1.8778274713797767
-0.1432,0.9813,0.0186,-0.69,0.0647,0.2023,-2.695,0.9975,-15.4437,0,0,0,1.8899416287948096
-0.1419,0.9778,0.021,-0.69,0.0647,0.2023,-2.7213,0.8838,-15.26,0,0,0,1.9020119007466547
-0.147,0.978,0.0171,-0.6899,0.0666,0.1998,-2.7825,0.77,-15.6275,0,0,0,1.9143069087398255
-0.1437,0.9786,0.0204,-0.6899,0.0666,0.1998,-2.8438,1.0237,-15.2163,0,0,0,1.9262232276554865
-0.1468,0.978,0.0206,-0.6877,0.0664,0.1985,-3.1588,1.05,-15.4088,0,0,0,1.9383423398808795
-0.14,0.9767,0.0242,-0.6907,0.0669,0.1937,-3.2375,1.0325,-15.3037,0,0,0,1.9477674509305665
-0.1411,0.9842,0.0267,-0.6907,0.0669,0.1937,-2.4763,1.1025,-15.365,0,0,0,1.9597927756741462
-0.1467,0.9815,0.0224,-0.691,0.0669,0.201,-2.4763,1.5487,-15.4787,0,0,0,1.971921797520259
-0.1452,0.9772,0.0204,-0.691,0.0669,0.201,-1.8987,0.9187,-15.2687,0,0,0,1.984010473053441
-0.1522,0.9767,0.0195,-0.6881,0.0652,0.2011,-2.1525,1.4525,-14.9625,0,0,0,1.9960453535027147
-0.1418,0.9822,0.015,-0.6881,0.0652,0.2011,-2.9313,1.1025,-15.5662,0,0,0,2.0085187346688436
-0.1414,0.9751,0.024,-0.6893,0.0666,0.1971,-2.6775,1.4787,-15.5837,0,0,0,2.0203380808674596
-0.1448,0.9776,0.0215,-0.6886,0.0661,0.2005,-2.5375,0.84,-14.8837,0,0,0,2.03008631633562
-0.1474,0.9804,0.0178,-0.6886,0.0661,0.2005,-2.5463,1.1025,-14.9187,0,0,0,2.0418437274047374
-0.1473,0.9741,0.0218,-0.6874,0.0649,0.2013,-2.415,1.1638,-15.155,0,0,0,2.0538984270954512
-0.1459,0.9814,0.0203,-0.6874,0.0649,0.2013,-2.6863,0.77,-15.2775,0,0,0,2.065994534844173
-0.145,0.9797,0.0218,-0.6921,0.066,0.1954,-3.0888,1.0237,-15.0937,0,0,0,2.0780835642923803
-0.1418,0.9787,0.0255,-0.6898,0.066,0.1995,-3.2113,0.7263,-14.9362,0,0,0,2.090225327079419
-0.1443,0.9782,0.0187,-0.6898,0.066,0.1995,-2.2225,0.9013,-14.945,0,0,0,2.1023115252074205
-0.1442,0.9815,0.027,-0.69,0.0654,0.2004,-2.275,1.19,-14.98,0,0,0,2.114344989996592
-0.1415,0.9784,0.0186,-0.69,0.0654,0.2004,-2.8175,1.4088,-15.3737,0,0,0,2.1237835498172557
-0.1418,0.9753,0.0236,-0.6917,0.0654,0.1962,-2.3975,1.155,-15.2687,0,0,0,2.135916818643677
-0.1444,0.979,0.0175,-0.6899,0.0664,0.1998,-2.3363,1.015,-14.9537,0,0,0,2.1481598011280685
-0.1449,0.9787,0.0237,-0.6899,0.0664,0.1998,-2.5113,1.2687,-15.4875,0,0,0,2.160093815795015
-0.1416,0.9769,0.0246,-0.6901,0.0669,0.1991,-2.4588,1.3825,-16.1175,0,0,0,2.1722076192950226
-0.1446,0.9767,0.0168,-0.6901,0.0669,0.1991,-2.9925,1.6975,-15.5225,0,0,0,2.1843426576965723
-0.1405,0.9798,0.0219,-0.6891,0.0664,0.1971,-3.8063,1.5225,-15.5925,0,0,0,2.1964635394970937
-0.1427,0.9809,0.0196,-0.6891,0.0662,0.2006,-3.4388,0.9975,-15.225,0,0,0,2.2057424836411625
-0.1454,0.9782,0.0195,-0.6891,0.0662,0.2006,-3.2987,1.4875,-15.2775,0,0,0,2.2179302553815434
-0.1422,0.9788,0.023,-0.6889,0.0643,0.2006,-2.8438,0.9013,-15.0937,0,0,0,2.230568560949653
-0.1456,0.9793,0.0184,-0.6889,0.0643,0.2006,-2.8263,0.6038,-14.8925,0,0,0,2.2421267178592954
-0.1451,0.9767,0.0243,-0.6882,0.0651,0.2001,-3.1412,0.77,-14.9713,0,0,0,2.2541828332101117
-0.1415,0.9783,0.0185,-0.6894,0.0678,0.2022,-3.2113,1.0237,-14.9275,0,0,0,2.2663192872717643
-0.1414,0.9798,0.0192,-0.6894,0.0678,0.2022,-2.8525,1.015,-15.155,0,0,0,2.278439107327209
-0.1431,0.9766,0.0209,-0.6902,0.0666,0.1986,-3.0188,1.0937,-15.5137,0,0,0,2.2904453206594
-0.1444,0.9779,0.0181,-0.6902,0.0666,0.1986,-2.5725,1.0937,-15.4962,0,0,0,2.2999316590085352
-0.1437,0.9791,0.0284,-0.6898,0.0686,0.195,-2.7825,0.9713,-15.1725,0,0,0,2.3119644159676547
-0.1444,0.9794,0.0235,-0.6898,0.0672,0.2006,-3.0888,0.7788,-15.7062,0,0,0,2.3241281214862872
-0.1427,0.9781,0.0219,-0.6916,0.0672,0.2006,-2.7388,1.1112,-15.4263,0,0,0,2.336175742876487
-0.1424,0.9785,0.0209,-0.6906,0.0658,0.1991,-2.6163,1.085,-15.0587,0,0,0,2.3483252917940907
-0.1463,0.9776,0.0176,-0.6906,0.0658,0.1991,-2.7475,0.5775,-14.7788,0,0,0,2.3603902550205498
-0.1437,0.9772,0.0214,-0.6914,0.0673,0.1982,-3.0013,0.805,-15.0762,0,0,0,2.3725111368210716
-0.1425,0.9783,0.0184,-0.6914,0.0673,0.1982,-2.5025,1.015,-15.0412,0,0,0,2.3824508403181412
-0.1459,0.9797,0.0229,-0.6898,0.066,0.1994,-2.2925,1.4262,-15.2337,0,0,0,2.3940489896256887
-0.1444,0.979,0.0207,-0.6917,0.0671,0.1991,-2.6075,1.1725,-15.1287,0,0,0,2.4061196154925595
-0.1432,0.9781,0.0196,-0.6917,0.0671,0.1991,-3.185,1.5225,-15.0412,0,0,0,2.418172191693119
-0.1471,0.9785,0.0205,-0.6893,0.0668,0.2024,-2.6688,1.3737,-15.4875,0,0,0,2.4302817482128174
-0.143,0.9792,0.026,-0.6893,0.0668,0.2024,-2.625,1.3912,-14.7175,0,0,0,2.44244297632627
-0.1432,0.9778,0.0232,-0.6905,0.0654,0.2034,-2.5725,1.3125,-14.9625,0,0,0,2.4545401458200686
-0.1458,0.9776,0.0211,-0.691,0.0665,0.2006,-2.8,1.5487,-15.26,0,0,0,2.463936943667699
-0.1451,0.9806,0.0221,-0.691,0.0665,0.2006,-2.4938,1.2425,-15.5137,0,0,0,2.47599765991385
-0.1454,0.9796,0.0202,-0.6907,0.0671,0.1997,-3.2725,1.0675,-15.2862,0,0,0,2.4880987224729316
-0.1446,0.9778,0.0213,-0.6907,0.0671,0.1997,-2.975,1.12,-15.8725,0,0,0,2.5002447322402785
-0.1449,0.9789,0.0195,-0.6919,0.0686,0.1998,-3.1937,1.085,-15.3475,0,0,0,2.5123128807019692
-0.1428,0.9795,0.0202,-0.6899,0.0675,0.2006,-3.4125,1.12,-14.9537,0,0,0,2.524396955339817
-0.1427,0.9792,0.0183,-0.6899,0.0675,0.2006,-3.2288,1.2425,-14.84,0,0,0,2.536559599113372
-0.1456,0.9793,0.0204,-0.6917,0.0671,0.1994,-2.975,0.7613,-14.9012,0,0,0,2.5485987265429544
-0.1442,0.9786,0.0196,-0.6917,0.0671,0.1994,-2.5113,1.1287,-15.155,0,0,0,2.557994108730482
-0.1437,0.9782,0.0188,-0.6896,0.067,0.2072,-2.45,0.8663,-15.4612,0,0,0,2.570071812897867
-0.1446,0.9789,0.0208,-0.6914,0.0662,0.2002,-2.485,0.98,-15.2862,0,0,0,2.582181723332591
-0.1419,0.9784,0.0239,-0.6914,0.0662,0.2002,-2.7213,1.1112,-15.015,0,0,0,2.59428384763675
-0.1457,0.978,0.0221,-0.6901,0.0664,0.2005,-2.7738,1.3562,-15.3212,0,0,0,2.606477282017542
-0.1424,0.9784,0.0202,-0.6901,0.0664,0.2005,-2.7825,1.1025,-15.1812,0,0,0,2.6184700465787563
-0.1426,0.9789,0.0229,-0.6909,0.0657,0.2,-3.0013,1.225,-15.3737,0,0,0,2.6306181798362576
-0.144,0.9791,0.0194,-0.6902,0.0662,0.2032,-2.8612,1.5662,-15.3387,0,0,0,2.6399710922207
-0.1432,0.9791,0.0176,-0.6902,0.0662,0.2032,-2.8438,1.4088,-15.155,0,0,0,2.652103299302044
-0.1446,0.9783,0.0214,-0.6891,0.0664,0.1997,-2.485,0.9538,-14.5162,0,0,0,2.6643866280993667
-0.1441,0.9769,0.0193,-0.6891,0.0664,0.1997,-2.5725,1.645,-14.56,0,0,0,2.676244904950811
-0.1444,0.978,0.023,-0.6898,0.0649,0.201,-2.03,0.8225,-15.1025,0,0,0,2.6881346802395436
-0.1444,0.9787,0.0222,-0.6898,0.0653,0.1972,-2.2313,1.1812,-15.47,0,0,0,2.7003369624959785
-0.1406,0.9786,0.0234,-0.6899,0.0653,0.1972,-2.765,1.3912,-15.1375,0,0,0,2.7125219029161536
-0.1451,0.9798,0.0231,-0.6892,0.0665,0.201,-2.6863,1.1462,-15.0937,0,0,0,2.724598899253487
-0.1419,0.9797,0.0218,-0.6892,0.0665,0.201,-2.38,1.295,-15.7412,0,0,0,2.7336060366578105
-0.1403,0.9773,0.0218,-0.6889,0.0672,0.195,-2.94,1.47,-15.4263,0,0,0,2.745799824953628
-0.1453,0.9793,0.018,-0.6889,0.0672,0.195,-3.0975,1.54,-14.875,0,0,0,2.757971670517852
-0.1435,0.9791,0.0204,-0.6899,0.0663,0.2039,-2.7125,1.5137,-15.2775,0,0,0,2.7701424543369986
-0.1435,0.979,0.0205,-0.6884,0.0654,0.1988,-2.765,1.4,-15.12,0,0,0,2.7822651057126486
-0.1446,0.9789,0.0193,-0.6884,0.0654,0.1988,-3.0188,1.015,-15.3475,1.1263613582274796,-7.489916247782087,15.935166484872608,10.333730897878882
-0.1434,0.9798,0.0254,-0.691,0.0677,0.2012,-3.2462,1.1287,-15.6187,1.4839871570426426,-8.232159262407466,16.022691831404078,10.335149743216954
-0.1416,0.9799,0.0187,-0.691,0.0677,0.2012,-3.3688,0.8663,-14.6737,1.094361849514518,-8.222285672875568,16.063561927038474,10.336387030146836
-0.1438,0.9777,0.0214,-0.6912,0.0671,0.2009,-2.8875,1.1638,-15.2075,1.2534529807096837,-8.349347863109926,16.023808049462883,10.337624317076719
-0.1448,0.9784,0.0215,-0.6894,0.0667,0.1983,-2.59,0.7875,-14.77,1.2588372685528642,-8.409370768918025,15.866346640985187,10.338924600881178
-0.1437,0.9788,0.0187,-0.6894,0.0667,0.1983,-2.3625,1.1638,-15.1112,1.094959719463183,-8.35704769254724,15.882799963985251,10.340172151346806
-0.1443,0.9798,0.0211,-0.6888,0.0666,0.2,-2.5375,0.91,-15.12,1.2332896742367245,-8.374050034248159,16.011791963255035,10.341396697335764
-0.146,0.9786,0.0187,-0.6888,0.0666,0.2,-2.5638,1.2425,-15.2512,1.0951121370051944,-8.471770677065631,16.027815332004753,10.342721401276997
-0.1452,0.9787,0.0222,-0.6894,0.0671,0.2015,-2.7475,1.47,-15.4088,1.2988590909017275,-8.440711420619184,16.104566826891393,10.343965412592368
-0.1451,0.9803,0.022,-0.6917,0.0669,0.2,-3.15,1.0412,-15.4962,1.285659124765068,-8.419994599792643,15.942756027076431,10.345179341130555
-0.1441,0.9761,0.0226,-0.6917,0.0669,0.2,-2.695,0.7788,-15.6275,1.3262402492430565,-8.398183850863036,15.938077343250876,10.346381590472891
-0.144,0.9828,0.0191,-0.6909,0.0662,0.1995,-2.4763,0.84,-15.6975,1.113951684783225,-8.34094087346911,15.942269302431534,10.347720451015153
-0.1468,0.9744,0.024,-0.6909,0.0662,0.1995,-2.8175,1.6362,-15.1462,1.4101166152408395,-8.538947527711882,15.913789305882188,10.349138942438199
-0.1399,0.9778,0.0236,-0.6877,0.0674,0.2034,-2.52,1.0587,-15.155,1.3826881754700797,-8.183540165302205,16.273020429015784,10.35052168844365
-0.1468,0.9798,0.0167,-0.6899,0.0673,0.2016,-2.8,1.33,-15.295,0.9775988826112506,-8.482057314155869,16.135776123050288,10.35184072974447
-0.1437,0.9795,0.022,-0.6899,0.0673,0.2016,-2.7825,1.1812,-15.0937,1.285814369322612,-8.359345193268778,16.100681823844816,10.353167911090884
-0.1458,0.9755,0.0234,-0.6895,0.0655,0.2014,-2.59,1.1462,-15.1988,1.3738854285408217,-8.48291866820768,16.09568072894596,10.354395642315072
-0.1403,0.9831,0.0184,-0.6895,0.0655,0.2014,-2.0038,0.3938,-15.435,1.0730753674728277,-8.15736493498281,16.12265598385302,10.3556803538584
-0.1457,0.98,0.0202,-0.6901,0.0663,0.1989,-3.115,1.0675,-14.7613,1.1805281463457047,-8.422218629894854,15.907774093128992,10.356917640788282
-0.1438,0.9788,0.0234,-0.6911,0.0662,0.202,-2.7475,1.3212,-14.9362,1.3689749580682031,-8.362935047184425,16.101652152135035,10.358136524136828
-0.1417,0.9781,0.0221,-0.6911,0.0662,0.202,-2.4675,0.8838,-14.9012,1.2945748180346344,-8.254192071430813,16.10839271938865,10.359347267439784
-0.1429,0.9842,0.0209,-0.6895,0.0668,0.2001,-2.9225,1.0237,-15.1988,1.2167395749923442,-8.258870907282787,16.003922565302158,10.360584908284691
-0.1426,0.978,0.0187,-0.6895,0.0668,0.2001,-2.5375,1.0587,-15.8638,1.0957358013965273,-8.290363839976953,16.017004626111138,10.361793528097492
-0.1441,0.9694,0.0203,-0.6902,0.067,0.2023,-2.7213,1.3387,-15.8725,1.1993551568831238,-8.434895844503306,16.159348409951342,10.363374466517339
-0.1394,0.9853,0.0206,-0.6902,0.067,0.1966,-2.31,1.1987,-15.6625,1.197732235423488,-8.093496681102582,15.720462744037235,10.365575110147205
-0.1476,0.9833,0.014,-0.6897,0.0666,0.1966,-2.52,1.2512,-15.0762,0.8167683765730234,-8.48664869492143,15.77803066197296,10.367008819916357
-0.1496,0.9756,0.0165,-0.6931,0.0655,0.2005,-2.695,1.1112,-14.9537,0.9685100424320505,-8.691473485330548,15.993974517554411,10.368278667028605
-0.1443,0.9801,0.0231,-0.6931,0.0655,0.2005,-2.87,1.015,-14.8575,1.3490963131977403,-8.40771055727662,15.950167718087563,10.369516307873512
-0.144,0.9762,0.0203,-0.691,0.0657,0.1999,-3.0013,1.2512,-14.3675,1.1917275718743543,-8.391475891833984,15.965502620087426,10.371675897360396
-0.144,0.9816,0.0202,-0.691,0.0657,0.1999,-2.6338,0.8575,-14.6737,1.1789388038457873,-8.3490438127852,15.966255441590775,10.373777444783062
-0.1413,0.9789,0.0221,-0.6888,0.0663,0.2062,-2.7738,0.8925,-15.0062,1.2929931483569472,-8.226315411258733,16.477569437004714,10.375594090610033
-0.147,0.9798,0.024,-0.6894,0.0677,0.2018,-3.2987,1.7413,-15.0587,1.4028616131454865,-8.494208000611973,16.11464268165862,10.377765713207792
-0.1485,0.9808,0.0187,-0.6894,0.0677,0.2018,-2.555,1.5925,-15.575,1.0931342373710813,-8.594876899080527,16.14876646773224,10.379898051237694
-0.1428,0.9751,0.019,-0.6882,0.0643,0.2002,-3.325,1.5837,-15.33,1.1162130583694436,-8.360605554811837,16.06291088270898,10.382063657280016
-0.1421,0.9842,0.0207,-0.6882,0.0643,0.2002,-2.625,1.0237,-15.5575,1.204639031619291,-8.229800453333153,16.052389235196426,10.38338659164612
-0.1452,0.9726,0.0157,-0.691,0.0657,0.195,-2.5725,1.1462,-15.2512,0.9255813505956307,-8.461296368281204,15.620216951334413,10.384735715724126
-0.1419,0.982,0.02,-0.6914,0.0673,0.1997,-2.4763,1.3825,-15.05,1.1660901643041268,-8.247883107951907,15.934524220894403,10.38597795746437
-0.1437,0.9773,0.0189,-0.6914,0.0673,0.1997,-2.6425,1.0325,-15.015,1.1080660987392927,-8.35063504959242,15.942531804405649,10.387208166093737
-0.1408,0.9843,0.0192,-0.6904,0.066,0.1999,-2.7738,0.7263,-14.8225,1.1174578391437564,-8.161409570342897,15.98185769761748,10.389324224032459
-0.1442,0.9784,0.0236,-0.6904,0.066,0.1999,-2.1525,1.3825,-14.735,1.3810322016807588,-8.356804445939096,15.956979366241098,10.391476027388777
-0.1459,0.9748,0.021,-0.69,0.0663,0.2015,-3.0188,1.2337,-14.875,1.234533167147218,-8.49335657246741,16.103204880746464,10.392841431557967
-0.1443,0.9781,0.0196,-0.6894,0.0679,0.201,-2.9225,1.2687,-15.26,1.148228185777981,-8.402150734084548,16.07826783600031,10.394073409762463
-0.143,0.982,0.0218,-0.6894,0.0679,0.201,-2.6775,1.575,-14.7175,1.2713914606121777,-8.296963138971542,16.063805574071374,10.395297601836395
-0.1437,0.9755,0.0239,-0.6895,0.0657,0.2007,-2.905,1.5487,-14.3937,1.4031138448117848,-8.368176250041444,16.036711557415618,10.396541613151767
-0.1426,0.9819,0.0218,-0.6895,0.0657,0.2007,-2.4763,1.0412,-15.2687,1.272227458180474,-8.272844923532485,16.049150223092916,10.398674305096696
-0.1452,0.9782,0.0242,-0.6915,0.0662,0.2009,-0.035,0.9538,-14.7262,1.4167702263034911,-8.422484698478707,16.00536245503486,10.400757448938025
-0.142,0.9795,0.0204,-0.6898,0.0652,0.2014,-2.2662,1.0675,-14.6562,1.1937437048214903,-8.266186190966799,16.10639659133533,10.40293190285599
-0.1441,0.9801,0.02,-0.6898,0.0652,0.2014,-2.4763,0.98,-15.3562,1.1690886214413132,-8.351930704435835,16.110332456960645,10.405079105316972
-0.1418,0.9792,0.0228,-0.6896,0.0654,0.1997,-2.625,1.1375,-14.8837,1.3333948794194428,-8.250204001248305,15.965451173047795,10.407163664818405
-0.1438,0.9761,0.0185,-0.6896,0.0654,0.1997,-2.6513,1.2425,-15.0762,1.0864823640607175,-8.36476883105637,15.992762794917633,10.40931086727939
-0.1441,0.9825,0.021,-0.6868,0.0659,0.1953,-3.1325,1.3125,-15.4525,1.2240729337009937,-8.344563675310306,15.698802198632906,10.410653620886933
-0.1429,0.9781,0.0203,-0.6887,0.0659,0.1997,-2.975,1.225,-14.875,1.1890733816822554,-8.314118208005056,15.998216083511686,10.41193090021472
-0.1418,0.9787,0.0278,-0.6887,0.0659,0.1997,-3.0013,1.5312,-15.6975,1.6258345734971238,-8.24914992325911,15.951459932223687,10.413162524504193
-0.1566,0.939,0.0157,-0.6886,0.0659,0.201,-3.7888,2.5813,-14.6387,0.9597499857898567,-9.307831332795255,16.140862036220263,10.41442175416567
-0.1399,0.9833,0.0385,-0.6886,0.0659,0.201,-2.4063,2.31,-13.0025,2.2386511432241942,-8.244864162228316,15.985228330392339,10.41565585586032
-0.1247,0.9933,0.0253,-0.693,0.0672,0.1968,-1.3912,1.47,-13.755,1.4612005077143553,-7.277798457590084,15.640827111232195,10.41693384301816
-0.1292,0.9771,0.0028,-0.693,0.0672,0.1968,-1.1375,1.5662,-13.16,0.16777041038408394,-7.503010341252814,15.77596700385189,10.418160866412297
-0.1432,1.0103,0.0096,-0.6894,0.065,0.197,-1.7413,1.6625,-14.5162,0.5433732967707771,-8.00121297893184,15.843491575653056,10.419385412401255
-0.1322,0.984,0.0041,-0.6903,0.0666,0.1999,-3.2375,0.7788,-14.2012,0.23957746381200076,-7.688735924120186,16.066156864288633,10.420601110514568
-0.134,0.9821,0.013,-0.6903,0.0666,0.1999,-4.095,0.4987,-17.3425,0.7569316803955628,-7.7606833707458325,16.014817730445927,10.42181539296778
-0.1495,0.9676,0.018,-0.69,0.067,0.2001,-3.64,0.5513,-17.535,1.0648759472229432,-8.676161480637472,16.014427321415326,10.423027198015811
-0.1554,0.971,0.0339,-0.69,0.067,0.2001,-3.6312,0.77,-16.9312,1.996924849644372,-9.04371086924236,15.917581100175813,10.42425988405036
-0.1465,0.9525,0.025,-0.6892,0.0658,0.2023,-3.6138,1.2425,-15.5312,1.504853492505871,-8.774610483627821,16.15859601838351,10.425475228248649
-0.1526,0.974,0.038,-0.6902,0.0662,0.2012,-1.96,1.4525,-15.0237,2.2322064756787214,-8.883669437273456,15.97374099336669,10.426690218531911
-0.1454,0.9906,0.0206,-0.6902,0.0662,0.2012,-2.205,1.3912,-14.6825,1.1942051486970697,-8.408977132947838,16.07903280157876,10.428173830319688
-0.1357,0.9865,0.0131,-0.6897,0.0686,0.2008,-2.5725,0.9713,-15.1287,0.7620033829742211,-7.893932394339391,16.088838762482734,10.429570025096115
-0.1466,0.9742,0.0235,-0.6897,0.0686,0.2008,-3.2462,1.4787,-15.2687,1.3801190278847673,-8.479803950891199,16.029649558036635,10.431033817642453
-0.1434,0.9735,0.0243,-0.6901,0.0667,0.2046,-3.5088,1.47,-15.0587,1.429752089881173,-8.388763481650795,16.312558498222497,10.43228561508839
-0.1421,0.9791,0.0222,-0.6897,0.0662,0.1998,-2.9313,1.4787,-14.91,1.2992585784748916,-8.27096299079034,15.971002772429165,10.43351157673745
-0.1468,0.9745,0.019,-0.6897,0.0662,0.1998,-2.9925,1.0675,-14.8225,1.1174706430839518,-8.533009993425978,15.993562924126545,10.434780008189595
-0.1435,0.9735,0.0293,-0.6894,0.0657,0.2013,-2.7037,0.98,-15.3125,1.7222616694017383,-8.397987121767267,16.050678184730796,10.4360162333744
-0.1446,0.982,0.0184,-0.6894,0.0657,0.2013,-2.17,0.735,-15.7587,1.0752383088941775,-8.377587099747236,16.119108237876095,10.437243964598588
-0.1478,0.9787,0.0171,-0.688,0.0664,0.2066,-2.5025,0.8225,-15.295,1.0011849063829026,-8.564244419528096,16.560853574892178,10.438468510587546
-0.1394,0.9877,0.019,-0.6909,0.0666,0.2004,-2.4063,1.1638,-15.2163,1.1017610842995111,-8.09065112592704,16.00728881317932,10.439691994831426
-0.1398,0.9797,0.0231,-0.6909,0.0666,0.2004,-2.7738,1.3912,-14.6737,1.3500158692329873,-8.115678344874334,15.981712949968061,10.440914063415203
-0.1412,0.9884,0.0168,-0.6889,0.0678,0.1992,-3.1412,1.365,-15.5837,0.9748172639761373,-8.127448224051617,15.967796474161087,10.442138963319186
-0.1427,0.9841,0.0152,-0.6889,0.0678,0.1992,-3.57,1.435,-15.3562,0.8851465274944715,-8.235833596911906,15.978455129480606,10.443355723177577
-0.1457,0.98,0.016,-0.6892,0.065,0.2011,-4.3663,2.17,-15.2862,0.9352182466503743,-8.428092894383143,16.126609395692483,10.444576376101251
-0.1388,0.9806,0.0217,-0.69,0.0658,0.2016,-4.6988,2.2225,-14.9275,1.2667815051309808,-8.101149501260826,16.10462925404849,10.445813309116108
-0.1429,0.9827,0.0209,-0.69,0.0658,0.2016,-4.7075,2.3363,-15.5662,1.218514285866686,-8.250252666519161,16.11214390494641,10.447267545956752
-0.146,0.9683,0.0239,-0.6886,0.0662,0.2018,-4.865,2.7125,-15.0587,1.4133667963883665,-8.529120770785829,16.138958794642928,10.448509079866943
-0.1458,0.9771,0.0354,-0.6886,0.0662,0.2018,-4.4187,1.9075,-15.26,2.0730549725388743,-8.487135995249869,16.06663444787765,10.449758045992674
-0.1361,0.979,0.0295,-0.6905,0.0667,0.2032,-3.6925,1.1375,-15.96,1.726924959740096,-7.974292984668211,16.16099480882777,10.4509917937723
-0.1473,0.9852,0.0203,-0.6908,0.0664,0.2016,-3.6925,2.0738,-15.5487,1.1819302097517954,-8.437057259073844,16.098604123742422,10.452213862356077
-0.1481,0.9839,0.0069,-0.6908,0.0664,0.2016,-4.7512,2.5813,-14.7175,0.4039801242264842,-8.543836443009537,16.17987052750204,10.453442655325343
-0.1597,0.9841,0.0105,-0.6885,0.0662,0.203,-5.2588,3.6488,-14.9975,0.6107232814769084,-9.114868907595312,16.32651151589015,10.454666847399274
-0.1869,0.9662,0.0061,-0.6885,0.0662,0.203,-6.2038,3.7538,-14.9975,0.362423522295658,-10.664932448315058,16.38904872879806,10.455906611734337
-0.1708,0.9727,0.0098,-0.6881,0.0673,0.2064,-5.005,1.3212,-14.9537,0.5766384502101701,-10.037982414034385,16.607034668321912,10.457134342958526
-0.1714,0.9811,0.0237,-0.6881,0.0673,0.2064,-4.935,2.065,-15.8025,1.381546473056744,-9.92289095767741,16.518867021744626,10.458348625411737
-0.1508,0.9866,0.0167,-0.69,0.066,0.2025,-5.0838,1.5925,-15.0237,0.9708927744962504,-8.831843407868664,16.211222639957896,10.459566800930231
-0.1369,0.9656,0.035,-0.6932,0.0665,0.2043,-4.5675,1.3212,-14.1662,2.07280364551469,-8.150347273723204,16.150373709682352,10.460785330363752
-0.1685,0.9628,0.0482,-0.6932,0.0665,0.2043,-4.865,0.3237,-14.4812,2.8637531147820043,-9.736631180318868,16.086161841351206,10.462006691117477
-0.1579,0.9508,0.0477,-0.6894,0.0667,0.203,-4.97,0.2888,-13.3787,2.871999709378275,-9.449554754364167,16.059786027173924,10.46344854093222
-0.1558,0.9614,0.0429,-0.6894,0.0667,0.203,-3.5438,0.1138,-12.5738,2.555863332503739,-9.221115116002693,16.092813404622703,10.464697153142925
-0.1568,0.9553,0.0363,-0.6926,0.066,0.2009,-1.435,-0.35,-11.1825,2.1771585722971425,-9.305798331592365,15.912741007955676,10.465940810543271
-0.1674,0.9803,0.0145,-0.6915,0.0679,0.2043,-0.7613,-0.7788,-11.445,0.8510917939769448,-9.654702667440791,16.33465864365304,10.467185175773668
-0.0845,0.9845,0.0282,-0.6915,0.0679,0.2043,-1.365,-0.4112,-12.1363,1.6385480213102759,-5.349986313612854,16.221143810733242,10.46843980453981
-0.0672,0.977,0.0303,-0.6923,0.0678,0.2041,-1.5487,0.6913,-14.0437,1.775981053911207,-4.081336955614688,16.182230421196532,10.469671428829281
-0.0569,0.9692,0.0384,-0.6923,0.0678,0.2041,-1.505,2.4413,-12.5037,2.267526612157187,-3.450163538259917,16.13765825316466,10.47089916005347
-0.0791,0.997,0.0575,-0.6908,0.067,0.2043,-1.1812,3.7713,-13.2737,3.2979097004091824,-4.361853024173248,16.06535062694327,10.47212264429735
-0.0975,0.9917,0.0343,-0.6934,0.0682,0.2038,-2.0825,4.375,-15.9425,1.9845511668532607,-5.398401418966292,16.101321537229367,10.473346482456256
-0.1692,0.9634,-0.0067,-0.6934,0.0682,0.2038,-2.5288,4.6463,-14.49,-0.39185109550845937,-9.144432793691106,16.3897207433481,10.474582353726035
-0.1578,0.9897,0.0151,-0.6936,0.0683,0.2034,-2.0825,4.5237,-13.9212,0.8705962772244846,-9.073200440658098,16.20561438875183,10.475803714479762
-0.149,0.9913,0.0148,-0.6936,0.0683,0.2034,-3.08,3.29,-13.825,0.8553984637476584,-8.622831828882727,16.20048673491416,10.477026490893591
-0.1128,0.9941,0.021,-0.6943,0.0678,0.1993,-3.7188,1.5312,-15.8112,1.209185418676289,-6.719312267052671,15.82398009895173,10.478239711601725
-0.0954,1.024,0.0245,-0.6908,0.0682,0.2042,-4.6375,0.6475,-18.1737,1.370134609961821,-5.46688490948453,16.253759554565573,10.47946779674094
-0.1368,0.9301,0.0339,-0.6908,0.0682,0.2042,-7.4025,2.1963,-19.4512,2.0853588993294006,-8.00151851354379,16.186668683547072,10.480913185705939
-0.171,0.9102,0.0769,-0.6921,0.0667,0.2042,-6.5275,2.0913,-18.2175,4.821581405123089,-10.283755775923147,15.876700899386732,10.482189757203676
-0.1862,0.9795,0.0433,-0.6921,0.0667,0.2042,-2.8,-0.105,-17.71,2.537538341377146,-10.707682277656955,16.154998916373746,10.483469160021619
-0.3346,0.9407,0.1127,-0.6962,0.0683,0.2066,-2.345,1.2163,-13.9912,6.819823614575025,-18.4819426179888,15.996131150879336,10.48473369840848
-0.3742,0.908,0.1121,-0.6935,0.0678,0.2046,-0.0613,-2.2138,-13.125,7.03741656045582,-21.942716070501262,16.052169037040024,10.485985849769444
-0.3383,0.9309,0.1038,-0.6935,0.0678,0.2046,2.8963,-9.555,-12.7575,6.364327295540738,-19.963697769146123,16.00169635159665,10.48723269240502
-0.146,1.0042,0.1525,-0.6969,0.066,0.199,6.1075,-19.1187,-9.1612,8.62893467775507,-8.581199340473155,14.87710092321284,10.488452991413668
-0.0694,1.0268,0.1091,-0.6969,0.066,0.199,8.5662,-29.3825,-13.125,6.071957758383935,-3.964632034670972,15.231459602296562,10.489715406310376
-0.0901,0.9954,0.0755,-0.7013,0.0654,0.189,8.1725,-33.0925,-15.295,4.342187828367628,-5.129848720624705,14.578779052319188,10.490972512481699
-0.0955,0.9959,0.017,-0.7022,0.0644,0.1891,7.7788,-33.355,-18.34,0.9870129786171169,-5.468773917274232,14.920106703455591,10.492218647287224
-0.0207,1.033,-0.0202,-0.7022,0.0644,0.1891,1.1112,-28.6125,-20.5888,-1.114473687985821,-1.2589933424083608,15.142737826536472,10.493464074262699
-0.1618,0.8554,-0.0206,-0.7046,0.065,0.1856,3.3338,-23.4937,-16.275,-1.3788242517585287,-10.42783991549422,14.8929001869898,10.494744184910692
-0.0659,0.9887,0.0178,-0.7046,0.065,0.1856,9.625,-22.5225,-14.6212,1.0249440109390449,-4.014636951439094,14.606863404513119,10.495992443206372
-0.1635,0.936,0.0398,-0.7077,0.0658,0.1787,13.2125,-21.4025,-11.4888,2.43108209567818,-9.713639616406509,13.907530440945784,10.497477824569277
-0.1093,1.004,0.1366,-0.7081,0.0634,0.1757,11.5762,-19.6788,-10.045,7.7336599220964795,-6.275638244485605,13.067036063555177,10.498757581302245
-0.284,1.0347,0.0628,-0.7081,0.0634,0.1757,7.91,-27.16,-16.765,3.484726531331415,-15.079549629066577,13.722142130881698,10.500028844074595
-0.2291,0.9247,0.0266,-0.7115,0.063,0.1712,5.0662,-32.6025,-16.2663,1.652709860303248,-13.936953119307464,13.468910388529908,10.501267900579608
-0.2733,1.1574,0.0104,-0.7115,0.063,0.1712,0.7088,-42.56,-17.4037,0.5179536493109292,-13.297860459927891,13.562882899386565,10.502554027783038
-0.1687,0.8884,-0.0747,-0.7122,0.0624,0.1634,-0.665,-53.9087,-19.0487,-4.791649744739843,-10.755326171359137,13.338510879859225,10.50383767758129
-0.1476,1.0098,-0.0827,-0.7177,0.0621,0.1597,-0.8575,-59.2025,-19.9412,-4.682229680101138,-8.3240582236874,12.897603388275385,10.505107878608563
-0.2013,0.8888,-0.0001,-0.7177,0.0621,0.1597,2.4588,-56.77,-14.7525,-0.019235401029327446,-12.695126117649405,12.613908320296197,10.506358260394396
-0.1204,1.0154,0.0227,-0.7221,0.0618,0.1534,2.31,-59.7625,-20.9125,1.277118287478619,-6.845323864884888,11.843758954257785,10.507618197885925
-0.176,1.0056,-0.016,-0.7221,0.0618,0.1534,0.3063,-59.8325,-18.4538,-0.9055286464783319,-9.882150404499948,12.075769939750622,10.508870703161913
-0.1191,0.9505,0.057,-0.7231,0.0598,0.146,0.77,-56.5513,-13.79,3.4199100707447347,-7.170621374011467,11.07956627981357,10.510332372218096
0.0012,0.9895,0.0639,-0.7274,0.0594,0.1389,3.0363,-55.7112,-20.1688,3.694169193984183,-0.04044698869691894,10.499097054103926,10.511596202774907
-0.0786,0.8924,-0.06,-0.7274,0.0594,0.1389,4.5062,-50.6888,-15.085,-3.825949855258274,-4.940405759525341,11.065689244770876,10.513017171603133
-0.12,1.0031,-0.002,-0.7294,0.0597,0.1296,5.67,-47.6087,-11.5937,-0.12430098154602567,-6.789286439749242,10.059271078786276,10.514347538184778
-0.0698,1.0307,0.0195,-0.7326,0.0584,0.1274,6.3175,-47.2412,-16.4325,1.080589933534936,-3.924249787647597,9.74798231061047,10.515594380820355
-0.1536,0.9924,0.0129,-0.7326,0.0584,0.1274,4.655,-48.0462,-17.6662,0.7456470409266628,-8.713867704116286,9.799246899745116,10.516993053001961
-0.1422,0.917,0.0159,-0.7352,0.0572,0.1165,4.6025,-49.9625,-17.3075,0.9926869541855723,-8.811741654935869,8.923409891223733,10.518281657610572
-0.1154,1.0654,-0.0016,-0.7352,0.0572,0.1165,5.635,-50.1375,-15.505,-0.0831206966440171,-6.2255086971414375,8.98828253711793,10.51955645953318
-0.1049,0.9144,-0.0428,-0.7367,0.059,0.1114,4.4012,-49.0875,-11.7425,-2.672802554306368,-6.53201388573558,8.783769954766957,10.52082276749517
-0.0592,0.97,-0.047,-0.7402,0.0562,0.1057,6.5713,-48.5537,-19.285,-2.773743950629787,-3.5401729250717024,8.304835305013277,10.522073857111057
-0.0952,1.0077,0.0024,-0.7402,0.0562,0.1057,5.9063,-44.3187,-13.0288,0.12857338412497915,-5.362811781760027,8.0949272991552,10.523324592811916
-0.2009,0.9379,-0.0056,-0.7422,0.0558,0.0969,8.3475,-41.1075,-9.8875,-0.3408298127416989,-11.958931972565452,7.51287646787799,10.52457001978739
-0.1518,0.7674,-0.0376,-0.7422,0.0558,0.0969,16.9837,-35.665,-8.8287,-2.7985733414024403,-11.19325777317143,7.679457529140442,10.525826772043686
-0.2231,0.9049,0.0548,-0.7463,0.0566,0.0905,26.0225,-36.2687,-5.355,3.4494569429395336,-13.768907149762304,6.703962002943919,10.527073260764238
-0.1361,0.9259,0.083,-0.7515,0.0599,0.0756,35.1312,-36.96,0.8838,5.118245312013374,-8.444478930488723,5.306817182745596,10.528303469393606
-0.003,1.0243,0.0708,-0.7515,0.0599,0.0756,39.3312,-39.0337,1.8725,3.956909441374527,-0.3354105736511175,5.4176270703592335,10.529523768402255
0.0228,0.9939,0.0307,-0.7563,0.0616,0.0658,38.8587,-26.3725,-10.0012,1.7746554340469838,1.2684606986508224,4.83789839851361,10.530802463390145
-0.0673,0.9548,-0.0737,-0.7563,0.0616,0.0658,32.9962,-18.9175,-14.91,-4.398226571318374,-3.8385516469751506,5.2990874586623535,10.532101331534502
-0.0328,1.0355,-0.0488,-0.7547,0.0625,0.0592,31.57,-10.9462,-13.3525,-2.702488349272621,-1.9079248706577345,4.693240207501749,10.533391351803216
-0.0814,1.0876,-0.1605,-0.758,0.0602,0.0535,24.1675,-4.7075,-10.6312,-8.380003703470052,-4.078843112296034,4.644037152082495,10.534717471404552
-0.002,1.0807,-0.203,-0.758,0.0602,0.0535,16.0212,3.1238,-7.9888,-10.632583780370542,-0.6631924237974877,4.80256899733692,10.535957235739614
-0.0123,1.071,-0.1513,-0.7613,0.0608,0.0535,3.7013,13.0113,-6.44,-8.048020337598091,-0.6539644531453881,4.61370470093511,10.537180012153442
-0.1957,0.9724,-0.1125,-0.7613,0.0608,0.0535,-7.5687,19.2325,-4.655,-6.603462367820341,-10.337098615955927,4.540887657487626,10.538406681632555
-0.195,0.8303,-0.1607,-0.7636,0.0635,0.0522,-8.0237,16.7038,0.6125,-10.941597883019563,-12.671568389308607,4.788107745109218,10.539624503236023
-0.2678,0.8721,-0.1778,-0.7646,0.0674,0.0561,0.49,11.2437,1.4175,-11.52169338803128,-15.391945417150804,5.227248142506401,10.540837016114105
-0.3351,1.099,0.0971,-0.7646,0.0674,0.0561,14.1138,6.6675,2.4063,5.005222121516272,-16.473691161817097,3.7983877767622216,10.542025462770441
-0.106,1.0554,0.1631,-0.7682,0.068,0.0498,23.0037,-4.41,1.5662,8.775125094160492,-6.406319515682728,2.880688320678886,10.543230189517958
-0.0458,1.0031,-0.0175,-0.7682,0.068,0.0498,26.285,-23.625,1.2337,-0.9743767141992381,-2.725831681644679,3.7849378483921665,10.544473846918303
-0.0627,0.8438,-0.1087,-0.7739,0.0695,0.0382,25.1125,-40.0575,-12.6612,-7.324132738565588,-4.185338467354495,3.4467791762549442,10.545740862710346
0.0214,0.8797,-0.2235,-0.7726,0.068,0.0314,23.975,-42.63,-23.4325,-14.237276029594744,1.245916504735947,3.501465806478014,10.547213503132326
-0.0013,0.9115,-0.2358,-0.7726,0.068,0.0314,27.2825,-36.2425,-16.975,-14.50344495144581,-0.05060256939531583,3.5126076545841967,10.54851661825699
-0.148,1.009,-0.1504,-0.7722,0.0687,0.0214,30.1875,-36.5225,-13.6412,-8.49331862732718,-8.07924712195541,2.3176133033870543,10.54981194725109
-0.2061,1.0656,-0.0195,-0.7722,0.0687,0.0214,33.9588,-40.2238,-8.7937,-1.0671177534343628,-10.88796125955044,1.6831233867503805,10.551058082056615
-0.0728,1.0961,-0.1642,-0.7748,0.0718,0.0114,31.3075,-50.3213,-3.0013,-8.500880669872158,-3.8757804756954486,1.6139536330508595,10.552312710822758
-0.0371,1.1222,-0.2111,-0.7787,0.0732,-0.0027,24.71,-56.0875,-3.2025,-10.648010710177767,-1.891277307088231,0.7989575861591186,10.553604146751574
-0.0943,1.1263,-0.236,-0.7787,0.0732,-0.0027,15.4,-56.3413,-5.0662,-11.831161311355947,-4.64272680484756,0.9061431295111184,10.554862668582999
-0.0525,1.0516,-0.2484,-0.778,0.0746,-0.0106,6.2125,-54.1275,-9.8612,-13.286363359727027,-2.8105501017821166,0.5017373086230794,10.556118359094219
-0.0633,1.0111,-0.296,-0.778,0.0746,-0.0106,0.0175,-50.7938,-20.0987,-16.30907081039405,-3.4281009110170944,0.7910027257183446,10.55738714446139
-0.2792,1.0725,-0.1372,-0.7747,0.0714,-0.0183,8.3037,-53.2438,-22.7763,-7.314271747647155,-14.304668773439897,0.6769555964907993,10.558643896717687
-0.0637,1.2144,-0.274,-0.7702,0.072,-0.0268,10.6487,-64.4613,-27.1338,-12.700061310821397,-3.081428145595391,0.7629765718158288,10.559915159490037
-0.1181,1.3497,-0.2888,-0.7702,0.072,-0.0268,6.8513,-64.68,-38.36,-12.079333612611697,-4.866400123982538,0.8248041579985277,10.561176866556695
-0.2045,1.2803,-0.2254,-0.7634,0.0688,-0.0365,-0.9538,-62.1338,-39.41,-9.990529223899749,-8.883587955258154,1.7961356219239328,10.562439281453402
-0.2978,1.2677,-0.2145,-0.7547,0.0642,-0.0441,-9.3712,-67.1913,-46.6375,-9.604810374865906,-12.987267811490833,2.497554413761655,10.563967840449445
-0.3336,1.0814,-0.2369,-0.7547,0.0642,-0.0441,-15.9075,-74.34,-51.8875,-12.348543027578076,-16.725082820962506,2.260239203737926,10.565289359155447
-0.2942,1.1074,-0.2532,-0.7401,0.0585,-0.0521,-18.4625,-84.805,-54.4075,-12.877396352169807,-14.542880916902838,2.9450215758092804,10.566592120365085
-0.2061,1.1536,-0.2862,-0.7401,0.0585,-0.0646,-8.4612,-103.1275,-49.2363,-13.930380497933799,-9.87885679698471,3.750021014198134,10.567903729450368
-0.1606,1.2399,-0.2834,-0.7255,0.0528,-0.0646,-8.5137,-105.7525,-44.9313,-12.877727255212521,-7.219788094987112,4.02344782549831,10.569207198490057
-0.1132,1.282,-0.264,-0.7135,0.0474,-0.073,-13.6588,-105.6213,-42.8838,-11.6397085376422,-4.9625683158308025,4.942790637014011,10.57051385276498
0.2862,0.8952,0.0869,-0.3082,0.0971,0.015,0.6563,9.2575,-4.7775,5.497282690341621,-4.44981648245746,1.2001471874966447,10.572466755876848
0.2842,0.8963,0.0865,-0.3086,0.0968,0.0124,3.0,10.0187,-7.21,5.512380538414159,5.206291758983072,0.6586190101908698,10.573606008344608
0.2862,0.8952,0.0869,-0.3082,0.0971,0.015,0.6563,9.2575,-4.7775,5.544428708310606,5.488475224749124,1.2038212987377928,10.574794455000944
0.2842,0.8963,0.0865,-0.3086,0.0968,0.0124,1.2862,8.2512,-3.4563,5.512509710444972,11.451224059761792,0.6586205422735218,10.575967329396148
0.2827,0.8876,0.0773,-0.3117,0.0951,0.0126,0.9975,7.2888,-2.2138,4.978731401094919,15.515223226097113,0.9189784786713097,10.577161438692894
0.2923,0.8882,0.0763,-0.3117,0.0951,0.0126,-0.1575,6.3175,-1.0937,4.9100767897782,17.479949358393053,0.9495440888130067,10.57840261868806
0.3187,0.9026,0.0731,-0.3153,0.0967,0.0104,-0.2362,5.2937,-0.3588,4.6309508930906755,19.002556598914612,0.5534560623082055,10.579604160200345
0.3309,0.9226,0.0641,-0.3153,0.0967,0.0104,-1.435,4.9963,0.1837,3.9761995471480693,19.55640929976877,0.7964786762599995,10.58084710977064
0.3337,0.9209,0.0743,-0.3186,0.0952,0.0113,-1.8288,5.3113,0.07,4.610981347262178,19.797673354618414,0.7737589387158627,10.582065285289133
0.3389,0.9075,0.0651,-0.3186,0.0952,0.0113,-2.8612,5.7488,-1.5662,4.104524565182784,20.2887766368728,0.9634519441919063,10.583310712264607
0.3403,0.9034,0.0714,-0.3221,0.0954,0.011,-3.2462,5.2937,-3.6138,4.517812915254738,20.522661225712984,0.7380840710806881,10.584624090925018
0.3386,0.9053,0.0695,-0.3221,0.0948,0.011,-2.9488,4.9,-6.4575,4.390348524441997,20.46492896249372,0.7919420942159323,10.585839081208281
0.3411,0.8996,0.0783,-0.3221,0.0948,0.011,-2.6775,4.9175,-9.0475,4.972792641335769,20.65057139480935,0.5864091434035444,10.58702965135477
0.3308,0.8822,0.0795,-0.3251,0.0954,0.0106,-3.395,4.4012,-10.3337,5.148845073163347,20.508053081199606,0.42189745700824244,10.588236147677415
0.3212,0.8725,0.0811,-0.3251,0.0954,0.0106,-2.3538,3.85,-11.2175,5.310009714434886,20.189878833816113,0.363121349413367,10.589466002391758
0.3159,0.8618,0.0804,-0.3239,0.0955,0.011,-0.84,3.1063,-12.075,5.329819176991409,20.070262654540997,0.4394984293147052,10.590700458001436
0.3178,0.8646,0.0767,-0.3239,0.0955,0.011,0.07,1.925,-12.46,5.0702428060963,20.1045516229539,0.532095851783942,10.591901645598696
0.3156,0.8714,0.0845,-0.3265,0.0962,0.0041,1.96,1.4088,-12.5125,5.537394021454114,19.85531718762643,1.0848673550895218,10.59307522782395
0.3282,0.8758,0.0818,-0.3255,0.0949,0.0089,2.4413,0.2975,-12.2325,5.336514718696721,20.40050355673776,0.006905247397671688,10.594238900428486
0.3309,0.8804,0.0735,-0.3255,0.0949,0.0089,2.695,-0.7788,-13.0025,4.773801303389777,20.52131689466605,0.20547925424868144,10.595423454019537
0.3362,0.8996,0.0735,-0.3254,0.0946,0.009,2.87,-0.91,-13.2125,4.671142301264982,20.437630677065815,0.26700723935241977,10.59660800761059
0.3343,0.9123,0.0749,-0.3254,0.0946,0.009,1.8987,-1.2687,-14.2975,4.693406558869041,20.095187833661175,0.25792436223359483,10.598019774648147
0.3359,0.9173,0.0661,-0.3238,0.0933,0.0162,-0.525,-2.1088,-15.015,4.123146991911809,20.066554800755206,1.9904498845645626,10.599261308558338
0.3218,0.9065,0.0708,-0.3274,0.0947,0.0029,-2.065,-2.8612,-15.5837,4.464933806370793,19.53363951584275,0.9249830411961331,10.600507443363863
0.3208,0.8827,0.0743,-0.3274,0.0947,0.0029,-4.1125,-4.2,-16.2225,4.810482581366117,19.881914684946807,1.0502920370062678,10.601748269444004
0.3049,0.8461,0.0767,-0.3232,0.0948,0.0063,-4.3925,-5.2325,-17.1325,5.178745583134737,19.75145621412557,0.4813495715031961,10.602989803354195
0.3079,0.8395,0.0815,-0.3232,0.0948,0.0063,-3.92,-6.2475,-18.83,5.543969572834243,20.036202584007953,0.6107661449282061,10.604945183871244
0.3135,0.8408,0.0825,-0.3232,0.0951,0.0107,-3.3688,-8.3125,-20.405,5.603804579543716,20.34134889311024,0.2887616464148894,10.61723559096908
0.3258,0.8452,0.0811,-0.321,0.0955,0.0065,-2.8963,-9.6862,-21.1312,5.481298347189722,20.95955950586768,0.5717686265397169,10.62946229336229
0.336,0.8491,0.0811,-0.321,0.0955,0.0065,-2.52,-10.4038,-22.9862,5.456005353130952,21.474280718659596,0.567219223426523,10.642090335394654
0.3489,0.8606,0.0822,-0.319,0.0957,0.0094,-2.0825,-10.8937,-24.6225,5.456040596305119,21.95408486205724,0.05649143725545634,10.654198830169275
0.3594,0.8791,0.0803,-0.319,0.0957,0.0094,-1.9687,-10.9375,-25.935,5.219765140168162,22.14343689955005,0.14488758712675637,10.666437565673357
0.3759,0.9046,0.0775,-0.3166,0.095,0.0065,-2.1175,-11.2262,-27.5888,4.897651715214657,22.474644094423475,0.3649924868480475,10.678650819295589
0.3875,0.9207,0.0859,-0.3139,0.0966,0.0107,-3.0888,-10.8762,-29.19,5.328983419884673,22.723990747340995,0.3815581175477004,10.687637075713397
0.39,0.9257,0.0835,-0.3139,0.0966,0.0107,-7.2975,-7.7962,-29.1637,5.154736669911181,22.76072718510563,0.45003448273007285,10.699778484585408
0.374,0.9163,0.0928,-0.3126,0.0969,0.0102,-8.715,-6.2213,-28.6737,5.781246480870194,22.141448991433922,0.08728377736434985,10.711940066613886
0.3662,0.912,0.0966,-0.3126,0.0969,0.0102,-9.8962,-5.6087,-28.2887,6.045534624820964,21.7905368922946,0.014222567915424845,10.72416889249725
0.3657,0.9052,0.1008,-0.3086,0.0952,0.0102,-11.8037,-4.83,-28.595,6.353207480819756,21.87062096416416,0.09106418594063594,10.736323396225213
0.367,0.9096,0.1002,-0.3051,0.0966,0.0209,-13.195,-4.3137,-29.365,6.286451766466219,21.85435801785184,2.3663833717339062,10.748576996160377
0.3694,0.9169,0.1032,-0.3051,0.0966,0.0209,-13.5012,-3.7538,-30.6425,6.421407876084475,21.82130768093661,2.3130385564287335,10.760733269463469
0.3677,0.9063,0.1118,-0.3022,0.0957,0.015,-14.42,-3.4738,-32.7425,7.030653497989829,21.924704148400018,0.7450067248740437,10.772955017046318
0.3608,0.9082,0.111,-0.3022,0.0957,0.015,-14.5338,-1.96,-34.7287,6.968297990578509,21.554155603322812,0.7648839324175188,10.785181011609476
0.351,0.9091,0.118,-0.2991,0.0962,0.0148,-15.3475,-1.1287,-36.3125,7.394341503910567,21.004131796519438,0.537666862001517,10.797304724730202
0.3443,0.8985,0.1204,-0.2949,0.0965,0.0176,-15.61,-0.2713,-36.9337,7.631548218505925,20.81649142417811,1.1001159447162827,10.806326726565606
0.3363,0.8887,0.1179,-0.2949,0.0965,0.0176,-15.1812,-0.14,-37.5988,7.557269279186795,20.58710161999688,1.1272866810130249,10.81850104953501
0.3262,0.8923,0.1187,-0.2897,0.0952,0.0208,-14.9625,0.035,-38.745,7.577340336463072,19.98494999529825,1.9298323846169132,10.830692006510622
0.3285,0.896,0.1153,-0.2897,0.0952,0.0208,-14.2187,-1.855,-39.97,7.333398319820189,19.9830139232099,2.031157856824041,10.842954808236453
0.3339,0.8968,0.1154,-0.2854,0.0977,0.021,-12.8537,0.1488,-39.83,7.332514553316583,20.23986044562971,2.052593428347026,10.855112851114674
0.3247,0.8928,0.1138,-0.2817,0.0994,0.0226,-11.9962,1.0325,-39.4625,7.264182822682305,19.881529167253984,2.446220587552465,10.867271955737971
0.3131,0.8846,0.1117,-0.2817,0.0994,0.0226,-11.7687,1.3825,-38.78,7.196942516700417,19.409225613697664,2.4587003339070614,10.879424689890808
0.3062,0.8796,0.1082,-0.2784,0.1003,0.0263,-10.8675,1.9687,-37.8263,7.013273295630932,19.102662532814325,3.4535759597685582,10.891629449552422
0.2916,0.8852,0.1082,-0.2784,0.1003,0.0263,-9.0738,2.0913,-37.2575,6.968949154511542,18.2291741318443,3.4276642347607167,10.90058102229771
0.2826,0.8813,0.1107,-0.2764,0.1006,0.0262,-8.0762,2.6075,-36.785,7.158884110410618,17.725174902085232,3.3180156003552965,10.912653063824683
0.2726,0.8805,0.1098,-0.2764,0.1006,0.0262,-5.6,2.4325,-37.7825,7.108338918476196,17.160834590975185,3.314868565221334,10.924791995291516
0.2585,0.8888,0.1096,-0.2695,0.102,0.0282,-4.97,2.0475,-38.5088,7.0300072989900775,16.23051001216307,3.857946289894302,10.936927741523117
0.2438,0.888,0.1049,-0.2652,0.1024,0.0251,-3.605,2.24,-38.745,6.737978129083537,15.37369765819773,3.2373663068131573,10.949065965159898
0.2284,0.8937,0.1024,-0.2652,0.1024,0.0251,-2.135,2.065,-38.535,6.536994162151376,14.384614566224856,3.285948597761943,10.957997364748719
0.2194,0.8876,0.1061,-0.2611,0.1022,0.026,-0.7788,1.2775,-36.295,6.815782880317897,13.856273455830886,3.425295857938368,10.97009028726221
0.2131,0.8838,0.1011,-0.2611,0.1022,0.026,-0.21,0.8225,-32.9437,6.526634193670806,13.512522194868176,3.543458958542478,10.982236297029557
0.205,0.8788,0.1032,-0.2589,0.1042,0.0305,1.2337,0.4462,-29.155,6.697261982246529,13.092032997170824,4.546825637149379,10.994347623124384
0.191,0.8714,0.0977,-0.256,0.1034,0.0205,2.6338,-0.525,-23.7825,6.398017040737252,12.363068537618767,2.226938829731825,11.006493278976706
0.1957,0.8793,0.094,-0.256,0.1034,0.0205,3.5613,-2.0738,-19.2325,6.102736178443128,12.469193426571616,2.3665398875098558,11.018589740640452
0.2339,0.9335,0.0958,-0.2587,0.1018,0.0219,4.1038,-3.2375,-8.5662,5.860102307541189,13.882638711412973,2.885742347323425,11.0275338811702
0.2522,0.9446,0.0884,-0.2587,0.1018,0.0219,2.59,-3.0975,-4.7337,5.347834419464861,14.811332256552895,3.1554158425629013,11.039563098979063
0.263,0.9545,0.0925,-0.2602,0.1033,0.0185,0.5688,-2.3538,-3.325,5.534698434015011,15.294694584860652,2.167995459987141,11.051693536485278
0.2649,0.9592,0.087,-0.2602,0.1033,0.0185,-0.945,-3.185,-3.99,5.183552179905444,15.372078588939011,2.333300978100455,11.063758853626762
0.2618,0.9552,0.0839,-0.2625,0.1045,0.0234,-1.7237,-4.1388,-7.1312,5.0201461338744195,15.278154297727609,3.5975700996409485,11.075859916185845
0.2604,0.9443,0.0831,-0.2638,0.1039,0.0234,-3.2638,-5.6875,-12.005,5.029144842510456,15.355022551209128,3.589098819739927,11.084885811086531
0.2527,0.927,0.0808,-0.2638,0.1039,0.0234,-4.3488,-6.7375,-18.305,4.981608728786469,15.202914530567428,3.6032637849366758,11.097069335846603
0.2534,0.9296,0.0839,-0.2593,0.1054,0.023,-4.8213,-8.505,-23.6338,5.156703179017213,15.189693589834468,3.459631986338069,11.10924259707093
0.2528,0.9302,0.0839,-0.2593,0.1054,0.023,-5.2937,-9.5025,-28.91,5.1538924774520165,15.147633927105113,3.459101044485296,11.12138329811289
0.2528,0.9405,0.083,-0.2598,0.1026,0.0206,-5.9763,-9.66,-31.9638,5.04364955618986,14.997437203932016,2.9387309725531123,11.133519044344492
0.2517,0.9481,0.0859,-0.2566,0.1034,0.0238,-7.455,-9.5812,-34.0638,5.176617369176416,14.819318811230213,3.717075650888163,11.145754240698318
0.2536,0.9493,0.1038,-0.2566,0.1034,0.0238,-9.0475,-9.5113,-34.93,6.237140280575098,14.869595805319419,3.2174878651848644,11.157914053151668
0.2577,0.9374,0.1023,-0.2501,0.1044,0.0266,-10.0362,-8.9075,-35.9538,6.228160858527303,15.263252398018599,4.0564681224226815,11.170046614148037
0.2561,0.9218,0.112,-0.2501,0.1044,0.0266,-10.745,-8.0325,-36.47,6.92557695438038,15.410222617604052,3.716200368147828,11.242649804267296
0.2512,0.9042,0.12,-0.245,0.1059,0.0303,-11.3575,-6.7638,-36.8987,7.557972506286607,15.398297145805325,4.442244569506604,11.24733316180252
0.2463,0.8907,0.123,-0.2414,0.1057,0.03,-11.0513,-5.915,-38.01,7.86159068435375,15.323863277462252,4.276136616320715,11.251970156469373
0.2403,0.8893,0.112,-0.2414,0.1057,0.03,-8.435,-4.55,-37.17,7.180065214720581,15.029159126234468,4.616467411673637,11.256587331894787
0.23,0.8903,0.1247,-0.2385,0.1084,0.0297,-6.3787,-3.745,-36.015,7.9710479520460344,14.39938755004033,4.04284215432519,11.261092316257052
0.2281,0.8949,0.127,-0.2385,0.1084,0.0297,-5.495,-3.0013,-33.7925,8.076914093713052,14.18127466081682,3.9753174432263303,11.263991942062695
0.2292,0.8976,0.136,-0.2345,0.1085,0.0368,-4.6112,-2.1263,-31.5788,8.61414560805077,14.170133639306066,5.753464413966744,11.265995808938266
0.2264,0.9074,0.1299,-0.2326,0.1096,0.0306,-3.7625,-1.19,-29.4787,8.148197753564823,13.899557928261034,4.247906168546796,11.268040022126769
0.2195,0.9127,0.1307,-0.2326,0.1096,0.0306,-2.3363,0.105,-26.9412,8.149433038193358,13.441159168791847,4.216209845322117,11.272935020847365
0.2057,0.9276,0.1262,-0.2288,0.1092,0.0303,-1.3037,0.6563,-25.3663,7.74863521619489,12.50217171749929,4.388923160014717,11.285162431070626
0.195,0.9282,0.1254,-0.2288,0.1092,0.0303,-0.7263,0.9538,-23.9575,7.69423614520881,11.84047394512402,4.380823977700477,11.297286144191352
0.1874,0.9249,0.1253,-0.2318,0.1114,0.0292,0.595,1.26,-22.575,7.7150666928105665,11.407344274905125,3.9062263141539035,11.309491611683018
0.1813,0.9258,0.1206,-0.2318,0.1114,0.0292,1.3475,1.5137,-20.65,7.42268736322493,11.037405436839789,4.048767085804949,11.321680445168477
0.1749,0.9224,0.1222,-0.2279,0.1108,0.0278,2.695,0.9887,-18.9437,7.546288199273807,10.688120252367353,3.666342877703349,11.33028341161344
0.1742,0.923,0.1183,-0.2271,0.1092,0.0273,4.2613,0.0788,-16.5987,7.304383993512913,10.611478839077975,3.725577280018332,11.342442870151762
0.1733,0.9246,0.1129,-0.2271,0.1092,0.0273,5.53,-0.315,-14.385,6.962673365296777,10.546237769860198,3.909703197592454,11.355131431653524
0.1804,0.9259,0.1105,-0.2305,0.1098,0.0263,6.1338,-0.5775,-11.6375,6.806105998684202,10.912142141980398,3.6573482189059296,11.367153925076897
0.1862,0.9257,0.1079,-0.2305,0.1098,0.0263,6.65,-0.455,-9.1875,6.648846810656027,11.262352751469344,3.7598531438734124,11.379149520958318
0.1857,0.921,0.1052,-0.2314,0.1102,0.0267,7.4025,-1.2075,-6.685,6.516650398286795,11.32216677501274,3.9166431780361943,11.387805574657136
0.1911,0.9174,0.1004,-0.2334,0.1098,0.0232,7.2537,-1.3475,-4.7337,6.246310546969768,11.666357320230263,3.0909882270304454,11.39994273654884
0.1926,0.9155,0.0969,-0.2334,0.1098,0.0232,8.1112,-1.3912,-2.3975,6.04245835148271,11.80342381926099,3.2053457649656036,11.412123076073682
0.1957,0.9117,0.0922,-0.2334,0.1086,0.0223,9.8787,-1.8725,-1.8288,5.775393249009953,12.034449811694147,3.140597330345087,11.424138491196542
0.1987,0.914,0.0836,-0.2334,0.1086,0.0223,11.0862,-2.3538,-1.8025,5.227546856935328,12.201193614648437,3.4410237095118386,11.436319184636409
0.2079,0.9178,0.0853,-0.2384,0.1092,0.0211,11.6462,-3.2462,-2.6075,5.3095763536298595,12.672497408545185,2.9982113675720603,11.445126360051205
0.2128,0.925,0.0803,-0.2384,0.1092,0.0211,11.2875,-3.08,-3.4213,4.962384371943051,12.89104394236334,3.190668847283557,11.457269184583321
0.2159,0.9315,0.0745,-0.2409,0.108,0.0159,11.34,-2.7825,-4.235,4.573739470064421,13.000204559130927,1.973288619814914,11.469465096369293
0.2238,0.9393,0.0709,-0.2427,0.1077,0.0163,11.4712,-3.4125,-5.2762,4.317286113254677,13.338193907482552,2.2109343106490753,11.481591286895199
0.2283,0.9456,0.0495,-0.2427,0.1077,0.0163,10.7887,-2.9488,-6.3088,3.000099924131352,13.539036475319401,2.894816811361093,11.493761362884294
0.2348,0.9514,0.0601,-0.2437,0.1086,0.0146,9.2837,-2.7738,-7.4113,3.6129254099568797,13.813837539835658,2.102183293643368,11.502527130241084
0.2319,0.9518,0.0584,-0.2437,0.1086,0.0146,8.9075,-2.2925,-8.575,3.511393565764402,13.679850025776991,2.150316749000083,11.514673493923457
0.2342,0.9495,0.0496,-0.245,0.108,0.0141,8.82,-1.68,-10.5437,2.9917009618539283,13.824398045465085,2.2824382019335983,11.526859850003735
0.2354,0.9468,0.0509,-0.2654,0.1042,0.0094,7.1575,-1.8637,-11.9525,3.077029702019497,13.933041309475833,0.9359117664184521,11.538961266477841
0.2374,0.9473,0.0484,-0.2487,0.1042,0.0094,6.4925,-1.6712,-13.1775,2.9252575527844638,14.041431094724352,1.0802211646162427,11.55112284850632
0.241,0.9485,0.0498,-0.2466,0.1071,0.0094,5.985,-1.68,-14.0875,3.0052778962619997,14.221067296798855,1.0163909406066123,11.563263195633256
0.2445,0.9512,0.0413,-0.2466,0.1071,0.0094,5.2325,-1.5575,-15.4787,2.4875639256568354,14.387060370186825,1.2812966381795565,11.572106470380675
0.2408,0.9516,0.0376,-0.2461,0.1071,0.01,5.5913,-1.2163,-17.1588,2.263326484723591,14.20706197395353,1.5552440449706522,11.584794324052384
0.2417,0.9515,0.0369,-0.2461,0.1071,0.01,5.705,-1.0237,-18.3225,2.2209825029205317,14.239394263136901,1.5776883168398335,11.596405214300857
0.2442,0.952,0.0358,-0.2448,0.1071,0.0097,4.6375,0.035,-18.4625,2.15377863942469,14.363649413866453,1.5427835313371578,11.608532466571841
0.2428,0.9525,0.034,-0.245,0.1067,0.0063,3.2025,0.6475,-18.6987,2.0446344304306296,14.299366883458756,0.6764820938679329,11.6206717519537
0.2413,0.9489,0.0314,-0.245,0.1067,0.0063,1.9337,1.8288,-18.0163,1.895689139294988,14.264772985716423,0.7509877343582435,11.629598550647188
0.2342,0.9406,0.0295,-0.2421,0.1076,0.0074,1.0325,3.8588,-17.1937,1.7966490910563713,14.020589425092878,1.1031071491331021,11.641549199320343
0.235,0.9375,0.0298,-0.2421,0.1076,0.0074,0.5163,3.57,-15.9337,1.8205628883016718,14.058647413778521,1.0921847250215528,11.653690254277329
0.2318,0.9385,0.0261,-0.2439,0.1056,0.0034,-0.3325,3.92,-15.4088,1.5936314554636346,13.898741464961745,0.12610022595795997,11.665844758005294
0.2302,0.9398,0.032,-0.2439,0.1056,0.0034,-0.77,4.095,-15.12,1.9491724403239559,13.778998245577412,0.05278491801835339,11.677985105132228
0.2287,0.9432,0.0255,-0.244,0.1064,0.0075,-0.56,4.1912,-14.7262,1.549754486806647,13.650324737320693,1.2478402835401707,11.686783432671383
0.2293,0.9482,0.0281,-0.2469,0.1082,0.0058,-1.4088,4.305,-14.1312,1.6970608918566865,13.599263920297503,0.6926622867454288,11.698952093000376
0.2351,0.9548,0.0329,-0.2469,0.1082,0.0058,-2.2225,4.55,-13.8863,1.9727213827325425,13.785166069595487,0.5547786736028096,11.711158622237118
0.2364,0.9495,0.033,-0.2459,0.1075,0.0051,-2.6163,5.0138,-14.735,1.9904719348152777,13.936818485101526,0.36737893034408037,11.723280919697743
0.2316,0.9516,0.0299,-0.2459,0.1075,0.0051,-2.835,4.9612,-15.295,1.8002146237581425,13.722372692116455,0.4619002525025881,11.735446040876479
0.2306,0.9519,0.0384,-0.2449,0.1085,0.0078,-3.9725,4.8562,-15.2075,2.3086609652977677,13.62848206318984,0.9220485296096338,11.747502864057346
0.227,0.9482,0.0397,-0.246,0.1076,0.002,-3.9288,4.76,-15.3475,2.3972581554972683,13.484172674527295,0.6683390485031123,11.756391439928057
0.2258,0.9382,0.0393,-0.246,0.1076,0.002,-5.1625,5.1013,-14.9625,2.398640885167216,13.513664857868074,0.6705703520475141,11.76855019063633
0.2182,0.9356,0.0397,-0.2443,0.1098,0.005,-5.0575,5.425,-14.6737,2.4296680624057148,13.199029479990633,0.09111967045740221,11.780681689887622
0.2188,0.934,0.0488,-0.2443,0.1098,0.005,-5.3987,4.76,-14.525,2.9893240835478956,13.172931692681262,0.19790148665718224,11.792846457151331
0.218,0.9281,0.0443,-0.2456,0.1076,0.0097,-5.4163,4.27,-13.8425,2.73348092923226,13.198782963139926,1.2168877727027776,11.805002022624373
0.2144,0.9242,0.0524,-0.2456,0.1076,0.0073,-5.7925,4.0163,-13.3962,3.2436322155975468,13.06593721872016,0.31978734328816266,11.813812383274401
0.2186,0.9215,0.0488,-0.2455,0.1087,0.0073,-4.76,3.64,-12.7662,3.031980863442219,13.287519875621413,0.41304955587553155,11.82598706015883
0.2148,0.9242,0.0531,-0.2465,0.1065,0.0069,-4.2263,2.59,-12.5562,3.2876051815821206,13.092744607395591,0.20697042370503202,11.838145103037052
0.2207,0.9249,0.055,-0.2465,0.1065,0.0069,-4.0338,1.5925,-13.4137,3.40281510355211,13.362815271629293,0.1507966988175542,11.85028686582409
0.2219,0.9242,0.054,-0.2447,0.107,0.0071,-3.2813,1.0412,-13.5187,3.3440918011104275,13.466342471819393,0.2277324572140249,11.862440307806978
0.2192,0.9231,0.0528,-0.2447,0.107,0.0071,-3.2288,0.245,-13.6237,3.273865296540999,13.350011000864555,0.2626435420942764,11.874610383796073
0.2213,0.9242,0.0532,-0.2467,0.1066,0.0118,-2.4413,0.1488,-14.1662,3.294441227782456,13.435135957253436,1.5054178619431164,11.883474893445035
0.2208,0.928,0.0564,-0.2486,0.1067,0.0066,-2.975,-0.9975,-13.6937,3.477413041860608,13.366534044651774,0.03131437789594575,11.895596129160582
0.223,0.9281,0.0528,-0.2486,0.1067,0.0066,-3.0888,-1.1987,-13.8512,3.256686012516718,13.478892940888198,0.13971238012570159,11.907821061978662
0.2256,0.9302,0.0505,-0.245,0.1078,0.0078,-2.7475,-1.3737,-13.93,3.1079168735451073,13.601754812354867,0.5236374033171661,11.919973442216472
0.2278,0.931,0.0564,-0.245,0.1078,0.0078,-3.99,-1.645,-13.6588,3.4657437190049554,13.71459295420587,0.3419956066318222,11.93211520500351
0.2289,0.9305,0.0501,-0.247,0.1062,0.0041,-3.8675,-1.6625,-13.7375,3.0830129142630907,13.7936833350584,0.43101269688860666,11.944339429991539
0.2308,0.9307,0.0532,-0.2488,0.1052,0.0078,-3.5088,-2.065,-13.4663,3.271015630141116,13.896626287287303,0.47218915956386764,11.95650242768012
0.2354,0.9326,0.0529,-0.2488,0.1052,0.0078,-4.1563,-1.89,-13.3787,3.2465858175803572,14.124008320545078,0.48650890953091325,11.965372599969493
0.242,0.9337,0.057,-0.2505,0.1058,0.0076,-3.4563,-1.8637,-13.8337,3.492739288011466,14.473093391077139,0.3023324433553966,11.977565326520233
0.2396,0.9369,0.0481,-0.2505,0.1058,0.0076,-3.745,-2.0213,-14.28,2.940498563826984,14.339015402726023,0.5729623763803126,11.989739295574612
0.245,0.9399,0.0555,-0.2478,0.106,0.0119,-4.2263,-2.0825,-14.77,3.3781024250081146,14.565611657494458,1.5138066352358455,12.00192565165489
0.2436,0.9407,0.0498,-0.2492,0.1072,0.0126,-5.6,-1.68,-14.3413,3.03134220121699,14.504346018550482,1.8480428747463782,12.014104575519628
0.2419,0.9413,0.0535,-0.2492,0.1072,0.0126,-5.9412,-0.77,-14.9713,3.2523593284669134,14.400421145116963,1.7340380019869934,12.026293762920112
0.2446,0.9381,0.0591,-0.2489,0.1082,0.0107,-7.3675,-0.7788,-14.28,3.603860905146068,14.569359769265743,1.0403907362203653,12.038488966876033
0.2456,0.9317,0.0592,-0.2489,0.1082,0.0107,-7.9275,-0.2888,-14.1312,3.6355833562043687,14.722922922311852,1.0264192836816972,12.050607371271374
0.2431,0.9277,0.0599,-0.2482,0.1069,0.0116,-7.3063,-0.4725,-14.1662,3.6941968493871293,14.661128545796432,1.2609671408531182,12.05948143662603
0.2386,0.9221,0.0623,-0.2482,0.1069,0.0116,-7.6038,-0.4375,-14.0525,3.8647294248487314,14.493244054681323,1.1721866043530114,12.071694690248261
0.2428,0.9198,0.0653,-0.2514,0.1064,0.0136,-7.1663,-0.35,-13.4925,4.060275014935168,14.727182083379127,1.6002549518633102,12.084247702295174
0.24,0.9185,0.0607,-0.2499,0.1066,0.0126,-6.65,-0.2538,-13.6675,3.7817350949903625,14.624084628316165,1.4785330968980586,12.096143140224319
0.2384,0.9184,0.0631,-0.2499,0.1066,0.0126,-6.3,-0.4462,-13.4488,3.9299959067656802,14.52883637969569,1.4021797712395785,12.108248803678736
0.2414,0.916,0.062,-0.2493,0.1057,0.0146,-5.5563,-1.0325,-14.6825,3.872354189309029,14.713644994871133,1.9873960858161928,12.120439052824295
0.2482,0.9209,0.0658,-0.2493,0.1057,0.0146,-5.8538,-1.5575,-15.6625,4.086342645990552,15.018973943782372,1.8893287992582195,12.132631779375036
0.2462,0.9232,0.0664,-0.2492,0.1065,0.0126,-4.5588,-1.54,-16.7825,4.113766347919206,14.905921693231733,1.3237908526558133,12.141483548083073
0.244,0.9238,0.0634,-0.2487,0.1056,0.014,-4.3838,-1.7587,-17.1937,3.92655202962688,14.774226627016866,1.8078458887215225,12.153643360536423
0.2429,0.9271,0.0631,-0.2487,0.1056,0.014,-5.3987,-2.0038,-17.9988,3.893735128115558,14.659287227535202,1.8214695329081347,12.165854844583526
0.2394,0.9226,0.0634,-0.2463,0.1075,0.0143,-5.4688,-2.2925,-18.1212,3.931014703015379,14.525363935588219,1.869189478221548,12.178028105807853
0.2405,0.9185,0.0667,-0.2463,0.1075,0.0143,-5.0225,-3.0363,-19.1975,4.152816024973872,14.627699188220017,1.7585468063211647,12.190202074862231
0.2386,0.9177,0.0715,-0.2486,0.1054,0.01,-4.4363,-3.57,-19.95,4.454196161383625,14.538869400349512,0.4779319065605057,12.202459567862675
0.2426,0.9146,0.073,-0.2476,0.1066,0.0145,-4.8387,-3.4475,-20.405,4.563158604232625,14.790855624607035,1.613634526157791,12.214582927068378
0.2405,0.9181,0.0659,-0.2476,0.1066,0.0145,-4.3137,-3.6488,-20.7462,4.106849006355347,14.653637918823533,1.8417114401607784,12.226720796790133
0.2399,0.918,0.0639,-0.2462,0.1062,0.0159,-3.43,-3.5613,-21.455,3.982160550070258,14.614720314468276,2.3005421261827816,12.235602648275355
0.2392,0.9205,0.0741,-0.2462,0.1062,0.0159,-2.87,-3.6925,-22.3563,4.600648915592995,14.528338456312234,1.9846450391259,12.247790773930761
0.2415,0.9202,0.0675,-0.2427,0.1071,0.0142,-2.0038,-3.185,-22.2775,4.196461123495986,14.657169753129729,1.74676266124484,12.260007920618277
0.2395,0.9211,0.068,-0.2444,0.1082,0.0154,-1.0675,-2.905,-22.575,4.222117630900514,14.546287968237971,2.0234556314425562,12.272159593026034
0.2375,0.9212,0.0634,-0.2444,0.1082,0.0154,-1.0325,-1.8112,-21.9888,3.937861943939877,14.43437690422006,2.1684226477855413,12.284373908393343
0.2391,0.9254,0.0625,-0.2434,0.1086,0.0143,-0.735,-0.9187,-21.5075,3.8639997721596426,14.453525512456517,1.9100464535059036,12.296630693563737
0.237,0.9277,0.065,-0.2434,0.1086,0.0143,-0.525,-0.49,-20.3525,4.007525092433186,14.311824502330728,1.8304103089609738,12.308789090356985
0.2363,0.9271,0.0611,-0.2406,0.1088,0.0136,-0.3588,0.735,-19.9587,3.771246201418434,14.27391293069192,1.7821749477907227,12.31749893913971
0.2353,0.9329,0.0621,-0.2413,0.1086,0.0144,-1.1812,1.3737,-19.3638,3.8082653663560824,14.142797074986781,1.9764431319752438,12.3297033448863
0.2369,0.9349,0.0609,-0.2413,0.1086,0.0144,0.1925,2.6163,-18.9437,3.72724263946514,14.184129868288599,2.0211595639597872,12.341834844137592
0.2352,0.9363,0.0595,-0.2384,0.1077,0.0138,-0.0438,3.4213,-17.9112,3.6363941373340167,14.089961000280926,1.9405068311115776,12.354031817668643
0.2279,0.9359,0.0579,-0.2384,0.1077,0.0138,0.4375,5.39,-18.41,3.5403897981562835,13.749186597349997,1.9798133689204604,12.366087225189407
0.2284,0.9329,0.0578,-0.2383,0.1088,0.0129,0.28,6.0725,-18.2962,3.5453483515203974,13.735878793840758,1.7134030116510004,12.374878474428048
0.2228,0.9289,0.0595,-0.2383,0.1088,0.0129,-0.6125,6.5538,-17.4737,3.6647014967324902,13.535846222432562,1.64352882966777,12.3870520895674
0.2166,0.927,0.0599,-0.2376,0.1077,0.0147,0.7175,6.2562,-18.4888,3.697054837206642,13.228414572311854,2.139143287615377,12.399161292172073
0.2148,0.927,0.0583,-0.2382,0.1074,0.0121,1.2075,6.6062,-17.6575,3.5989220290972312,13.07832797201978,1.4714356038857561,12.411298454063777
0.2176,0.9263,0.0581,-0.2382,0.1074,0.0121,1.2075,7.0175,-17.6662,3.589069155579887,13.158601184965063,1.4794091017563287,12.423381466956547
0.218,0.9226,0.0569,-0.2383,0.109,0.0121,0.5775,7.0525,-17.8675,3.529327744943643,13.23511738807189,1.486791998416153,12.43218651888119
0.2142,0.9243,0.0585,-0.2383,0.109,0.0121,1.12,6.51,-18.305,3.6212317143578514,13.079522287260305,1.4331538286398335,12.444317664217458
0.2155,0.9246,0.062,-0.2367,0.1099,0.0118,2.3625,6.6413,-18.655,3.8356957377077316,13.08819009433632,1.2322709768515598,12.456434652952696
0.2156,0.9276,0.0597,-0.2367,0.1099,0.0118,3.22,5.8275,-18.69,3.682875035278254,13.065405510205656,1.3140904170252226,12.468558366073424
0.2159,0.9304,0.0578,-0.2368,0.1106,0.0046,3.3775,5.6875,-18.97,3.55521333406711,13.045612423630153,0.6299368486330783,12.477336166541086
0.2136,0.9325,0.0597,-0.2373,0.1097,0.0086,3.0625,5.25,-19.1887,3.66286466252966,12.910199195386104,0.4352428614361688,12.489469081452482
0.2089,0.9372,0.0534,-0.2373,0.1097,0.0086,2.5288,5.2762,-19.46,3.262184982401098,12.619452264429796,0.6467944354812226,12.50161013640947
0.2069,0.9397,0.0548,-0.2349,0.1082,0.0074,4.025,4.9612,-20.0987,3.3373032778053884,12.438913657765259,0.30271310377464183,12.513653864734385
0.2046,0.9437,0.0492,-0.2349,0.1082,0.0074,3.7888,4.4187,-20.1338,2.9853873015229024,12.254881478261286,0.48693449612236783,12.525810491952504
0.2009,0.9475,0.0512,-0.235,0.1103,0.0062,3.5788,3.8063,-19.845,3.0927866552098977,12.001048424371271,0.06652920720955922,12.534725965365169
0.199,0.9476,0.0464,-0.2327,0.1096,0.0037,2.625,3.7275,-19.11,2.8040865931693424,11.870014400520429,0.4643645332673294,12.546754829259005
0.1998,0.9475,0.0482,-0.2327,0.1096,0.0037,3.15,3.29,-18.9612,2.911871730989236,11.88935820914383,0.523157075775688,12.55888703634035
0.1973,0.9445,0.0497,-0.2334,0.1108,0.0048,2.38,3.1937,-17.9638,3.0118763771394828,11.798282677213223,0.28656232433560463,12.570995177199945
0.1887,0.9423,0.0428,-0.2334,0.1108,0.0048,2.24,2.6863,-17.465,2.6017570011540645,11.376947202420196,0.06443422155531175,12.583049522975633
0.1901,0.9408,0.0416,-0.2337,0.1114,0.004,1.8637,2.5988,-16.8175,2.532029174414733,11.407959159673148,0.2558607339124351,12.591895982958285
0.193,0.9415,0.0418,-0.2337,0.1114,0.004,2.5113,2.2313,-17.7712,2.5420774469954277,11.552898656876659,0.26206547331400293,12.604023589144294
0.1972,0.9419,0.0431,-0.2323,0.1124,0.0025,3.115,1.1725,-17.5263,2.6197329469337705,11.784175635470206,0.7399123039774913,12.616104832461936
0.1993,0.9463,0.0379,-0.2334,0.1114,0.0038,2.5988,0.2538,-17.8675,2.294403581449528,11.873979047673298,0.18474537722712872,12.628263229255182
0.197,0.9453,0.0349,-0.2334,0.1114,0.0038,2.8263,-0.4025,-17.9988,2.1148629357986897,11.774455704601667,0.08711122936511727,12.637076775140443
0.1987,0.9478,0.0359,-0.233,0.1101,0.0016,2.6513,-0.7613,-18.13,2.1690176786521134,11.826733052994975,0.7157326507491028,12.64923269452851
0.2013,0.9472,0.0326,-0.233,0.1101,0.0016,1.6187,0.0,-17.78,1.9717262843177836,11.975096061623207,0.6114553241093162,12.6613132300161
0.2051,0.9451,0.0331,-0.233,0.1135,-0.0023,0.8225,0.4462,-17.8937,2.0057421388819674,12.21011461059364,1.7627870074131058,12.673538870664233
0.2064,0.9442,0.0337,-0.233,0.1135,-0.0023,0.3763,0.4462,-17.5438,2.0440042768402233,12.311606832448094,1.7869213151102226,12.685645595863726
0.2079,0.9434,0.0382,-0.2311,0.1126,0.0003,0.0963,0.7,-18.445,2.317988370468295,12.40679462343148,1.2103676525978004,12.697739934037319
0.2061,0.94,0.0368,-0.2316,0.113,-0.0001,0.4288,1.3037,-18.4975,2.2421331386819014,12.363055106540386,1.2814621963597208,12.706604797601306
0.2019,0.9432,0.0347,-0.2316,0.113,-0.0001,0.385,1.33,-18.0513,2.107313458584212,12.106801903827467,1.2015026255719816,12.718778412740658
0.1995,0.9451,0.0307,-0.231,0.1111,0.0001,0.1663,1.1812,-18.2,1.861183130462489,11.934771356358784,0.9893970870693631,12.730830988941218
0.1981,0.9471,0.03,-0.231,0.1111,0.0001,-0.1575,1.4612,-18.1825,1.8144031765467545,11.822613273711005,0.9626491234385723,12.74300212667539
0.1998,0.9474,0.0298,-0.233,0.1117,0.0045,0.1225,1.015,-17.7362,1.8016516923016965,11.894328633625573,0.2748592022510425,12.755139288567094
0.2005,0.9471,0.0315,-0.2298,0.1128,0.0004,0.1312,0.6563,-17.6312,1.9046381303694544,11.941105112638649,0.9516850041549912,12.76388559059747
0.2016,0.9451,0.0333,-0.2298,0.1128,0.0004,-0.6825,1.085,-17.7712,2.017633117844546,12.023925516092831,1.016892576516036,12.776079024978262
0.204,0.9459,0.0345,-0.2294,0.1137,-0.0009,-0.8225,0.9363,-17.2812,2.08863799574146,12.147677139128735,1.4420151102028018,12.788237067856482
0.2022,0.946,0.0276,-0.2294,0.1137,-0.0009,-0.5688,1.3912,-17.3337,1.6723089694483038,12.06990718972289,1.2040284008462454,12.800514380098369
0.2053,0.9456,0.034,-0.2278,0.1131,-0.0042,-0.91,0.8138,-16.8525,2.0581721642279964,12.223514020540158,2.3801828624111776,12.812667114251203
0.2017,0.9439,0.0276,-0.2278,0.1131,-0.0042,-1.2775,0.9363,-16.5025,1.6759326628102298,12.074910098351856,2.1576189714935534,12.82481807882891
0.2057,0.9428,0.029,-0.2284,0.1136,-0.003,-1.5575,1.2512,-16.7038,1.761593028889113,12.276959530925023,1.868637333163602,12.833791948220817
0.2051,0.9467,0.0321,-0.2298,0.1118,-0.0028,-1.12,1.6187,-16.6075,1.9415003819769951,12.224182914659352,1.8772620685581909,12.845866113237944
0.2022,0.9469,0.031,-0.2298,0.1118,-0.0028,-1.2775,1.855,-16.2488,1.8752864545455086,12.068651788024333,1.8359297414455058,12.85802627960632
0.1992,0.9473,0.0296,-0.2274,0.1126,-0.001,-1.4437,1.8812,-16.7388,1.789958339923512,11.893444260404202,1.297846170918708,12.870296513547691
0.1964,0.9428,0.0286,-0.2274,0.1126,-0.001,-1.505,1.995,-17.3162,1.7376894026024183,11.778004657926074,1.2662209386717576,12.882404654407287
0.1932,0.9407,0.0289,-0.2268,0.1141,-0.0099,-1.9337,1.8987,-17.535,1.759615305503044,11.621915999288694,3.844627151556257,12.894587471337308
0.1943,0.9411,0.027,-0.2247,0.1124,-0.0018,-1.365,1.8375,-17.185,1.643676796851214,11.656119470076927,1.4593674762729134,12.906768872607225
0.1908,0.9427,0.027,-0.2247,0.1124,-0.0018,-0.9975,1.7937,-17.3775,1.6405763685715384,11.463296029071047,1.4517659979044215,12.918989912360024
0.1935,0.9473,0.0285,-0.2267,0.1135,-0.0026,-1.8637,1.8025,-17.325,1.7230238888639082,11.530560705340168,1.726452028142503,12.927838849747854
0.1959,0.9484,0.0254,-0.2267,0.1135,-0.0026,-2.275,1.4262,-16.5812,1.5346493355346187,11.651262229790422,1.6221329545164234,12.939986983005355
0.1974,0.9475,0.0311,-0.2274,0.115,-0.0014,-2.0125,1.2687,-17.0275,1.8790008172553474,11.749979599895193,1.4873129498605604,12.952220055869027
0.1992,0.9467,0.0301,-0.224,0.1129,-0.0036,-2.9138,1.7937,-16.4062,1.8212468374462456,11.861710233427482,2.099253128089959,12.964384823132736
0.1912,0.9457,0.0307,-0.224,0.1129,-0.0036,-2.3275,1.645,-16.4937,1.8592187106948417,11.474985167171914,2.108387368662203,12.976575780108348
0.1951,0.9429,0.0331,-0.2254,0.1127,-0.003,-2.1875,1.3475,-16.4675,2.0100929507433536,11.659925839360683,2.0115290923831193,12.988740193457032
0.1928,0.9444,0.0278,-0.2254,0.1127,-0.003,-2.6163,1.3387,-16.4587,1.6870092034007516,11.547767434208701,1.8236757340307588,13.000930442602593
0.1911,0.9421,0.0284,-0.2257,0.1142,-0.005,-1.7937,1.4437,-17.1937,1.726572625221715,11.471312380368564,2.4333563505402513,13.009788581781093
0.1888,0.9404,0.0295,-0.2245,0.1135,-0.0074,-1.9075,1.4437,-17.0975,1.7965638979434826,11.360848973421009,3.1689651017245293,13.021959011685214
0.1908,0.9383,0.0292,-0.2245,0.1135,-0.0074,-1.8025,0.7088,-17.045,1.7825147256630247,11.475335183430621,3.167471591711715,13.034584930227423
0.1915,0.9406,0.0276,-0.2247,0.1114,-0.0038,-1.47,0.8575,-17.2287,1.6810275936256764,11.500002092276539,2.0444804873546443,13.046286776637503
0.192,0.944,0.0263,-0.2247,0.1114,-0.0038,-1.1287,1.0237,-17.675,1.596092580342513,11.493067154010374,1.9958657898583794,13.058512771200661
0.1943,0.9448,0.0269,-0.2226,0.1131,-0.0014,-1.1725,1.0762,-17.7187,1.6307678343906837,11.602925756181312,1.3551573098458163,13.07070903690166
0.1898,0.9458,0.0272,-0.2242,0.1155,-0.004,-1.0325,1.1462,-17.3775,1.6472537462277497,11.371279547580134,2.1255892232437485,13.08286212496952
0.1843,0.9467,0.0272,-0.2242,0.1155,-0.004,-1.0325,0.9538,-17.5263,1.645738417001979,11.050628204499725,2.1154995706442308,13.09503184704359
0.1879,0.9509,0.0279,-0.2242,0.1136,-0.0037,-1.4437,1.0062,-17.675,1.680515395422787,11.159818280965311,2.033833946234379,13.103913698528812
0.187,0.9516,0.0204,-0.2242,0.1136,-0.0037,-1.47,1.4262,-17.4562,1.2293455619206015,11.12018166371677,1.7735592884167357,13.116101824184218
0.1884,0.9553,0.0257,-0.2221,0.1157,-0.0122,-2.4325,1.2775,-16.87,1.5401664463102631,11.148904851523328,4.472928669455335,13.128284641114238
0.1924,0.9564,0.03,-0.2221,0.1157,-0.0122,-2.695,1.3912,-16.695,1.7959320966356045,11.344100388809927,4.637963255835824,13.14046993544944
0.1909,0.953,0.0271,-0.2233,0.1131,-0.0058,-2.975,1.645,-17.465,1.6293172911304983,11.32529346587476,2.6235220832016006,13.152662308085155
0.1873,0.9532,0.0242,-0.2252,0.1127,-0.005,-2.4325,1.7762,-17.955,1.4548074878230473,11.138336849932415,2.258497061218169,13.164925109810985
0.1809,0.9442,0.03,-0.2252,0.1127,-0.005,-1.7675,2.1263,-18.4013,1.8188324342990665,10.877294213193219,2.4550342261391127,13.195584060658204
0.1799,0.9399,0.0264,-0.2221,0.1154,-0.0059,-1.3562,2.275,-18.4975,1.6094864811138903,10.837148944160319,2.662388714824368,13.200282990454559
0.1742,0.9424,0.027,-0.2221,0.1154,-0.0059,-2.205,2.5725,-18.305,1.6410021936446777,10.516660552359676,2.668090574606353,13.204952545303778
0.174,0.9457,0.0306,-0.2226,0.1173,0.0045,-1.0762,2.3712,-18.3838,1.8526857804701355,10.432257218301542,0.20217262313436243,13.210667211223921
0.1798,0.9461,0.0273,-0.2201,0.1161,-0.0048,-0.8312,2.2838,-18.165,1.6533799227542092,10.715272403580272,2.3954968375299233,13.222790570429622
0.1742,0.9501,0.026,-0.2201,0.1161,-0.0048,-0.4462,2.5988,-17.1063,1.5677754245723095,10.429062607563848,2.334620640076961,13.234940119347225
0.1759,0.947,0.0252,-0.2219,0.1154,-0.0065,-0.4812,2.5375,-16.3537,1.5244208086215518,10.507153892434792,2.778122802753409,13.24699234163276
0.174,0.947,0.0241,-0.2219,0.1154,-0.0065,-1.155,2.135,-15.7325,1.45797741192251,10.42024097738478,2.7355858990244317,13.259077124100658
0.1773,0.9451,0.0228,-0.2213,0.1156,-0.0049,-0.4462,2.2575,-15.1812,1.3821696265135675,10.596816529036118,2.243550043191487,13.268474275863314
0.1776,0.9485,0.0232,-0.2224,0.115,-0.0068,-0.9713,2.1963,-15.1112,1.4011042351473995,10.601645284820231,2.7856189017727706,13.280582770637936
0.1835,0.9475,0.03,-0.2224,0.115,-0.0068,-1.7062,2.8087,-14.7962,1.8123675523996792,10.907661692608084,3.0392246527425635,13.29264561037424
0.1835,0.9489,0.0256,-0.2176,0.1145,-0.0049,-1.505,2.205,-14.4812,1.5461236867090817,10.936828678341197,2.382920827848615,13.30477003132502
0.1815,0.95,0.0234,-0.2176,0.1145,-0.0049,-0.9625,2.4938,-14.8837,1.4113732789074085,10.828965685346402,2.298571471752907,13.316866846903793
0.1785,0.9484,0.0298,-0.2208,0.1157,-0.0172,-1.4962,2.6075,-14.84,1.798644307729894,10.676859692602969,6.071273672292098,13.328993745259751
0.1781,0.9449,0.0273,-0.2226,0.1146,-0.0086,-1.9337,2.0388,-14.9012,1.655324074629204,10.670701573352606,3.450030387005138,13.3410654328717
0.1753,0.9417,0.0243,-0.2226,0.1146,-0.0086,-1.54,1.6362,-14.63,1.4786449177745462,10.556645149471267,3.3407762381679325,13.35310137506605
0.1728,0.947,0.0188,-0.2222,0.1151,-0.006,-0.98,0.6825,-15.015,1.1382383696709908,10.36183388751278,2.3966827646462443,13.362530733096046
0.1764,0.95,0.0227,-0.2222,0.1151,-0.006,-0.1225,0.7263,-14.5513,1.3681719777878845,10.499950146943412,2.5361229230187727,13.374684882908983
0.1798,0.952,0.0179,-0.222,0.1146,-0.0061,-0.5775,0.28,-14.2275,1.0779807476667318,10.673941818124122,2.4002424113955994,13.386816382160276
0.1776,0.9529,0.0105,-0.2223,0.1145,-0.0093,-0.5425,-0.2625,-13.8512,0.6325481448147338,10.568083799438993,3.059232652261525,13.39897336329342
0.1829,0.9547,0.0151,-0.2223,0.1145,-0.0093,-1.0062,-0.1312,-13.2825,0.9053869059889589,10.81729835617341,3.2305546155167644,13.411083273728146
0.1914,0.9529,0.0184,-0.2214,0.1165,-0.0068,-1.4175,0.3325,-13.5887,1.105658847160544,11.300940514734027,2.6684504115877066,13.423401994028039
0.1912,0.9511,0.0127,-0.2214,0.1165,-0.0068,-1.8375,0.2187,-13.1687,0.7659655407152139,11.359234575458187,2.464616475660544,13.435179224338595
0.1898,0.9496,0.0152,-0.2211,0.1146,-0.0089,-2.3888,0.1575,-13.5012,0.9166215477803674,11.307283422976678,3.1599267180748933,13.44722896921895
0.1907,0.9506,0.0165,-0.2246,0.1167,-0.0084,-3.6225,0.1488,-13.265,0.9941928944330621,11.338448178553183,3.024483187447116,13.456288486047077
0.189,0.9511,0.0184,-0.2246,0.1167,-0.0084,-2.2488,0.0438,-13.8775,1.1079908738435675,11.247133655096324,3.0868525650236514,13.468480504767767
0.1936,0.946,0.0187,-0.2234,0.115,-0.0069,-3.0275,-0.4112,-14.3238,1.132375603725976,11.534004477372013,2.681487454085182,13.480645272031477
0.1984,0.9448,0.0196,-0.2234,0.115,-0.0069,-3.5875,0.28,-14.2975,1.1882820820373596,11.824404291612254,2.725140584596505,13.492856756078579
0.1986,0.9436,0.0209,-0.2232,0.115,-0.0055,-4.1125,0.2362,-14.77,1.2686247199697849,11.876928986703325,2.3655781523747015,13.504995333630387
0.2018,0.9456,0.0231,-0.2232,0.115,-0.0055,-4.13,0.4375,-14.7437,1.3990322421970758,12.02628166233362,2.447653591087048,13.517206463762465
0.2026,0.9431,0.0226,-0.223,0.1136,-0.0085,-4.1038,0.6388,-14.7262,1.3728193030426534,12.110980778831753,3.305337615681062,13.529361321405453
0.2073,0.9428,0.0249,-0.2234,0.1146,-0.0072,-3.8763,1.0325,-14.98,1.512479658006219,12.365476084888595,3.0222902562411313,13.541471231840179
0.207,0.9496,0.0309,-0.2234,0.1146,-0.0072,-4.1825,0.9887,-15.4787,1.8627694569871427,12.299078981452036,3.223430913151148,13.550508805936714
0.2056,0.942,0.0353,-0.2222,0.1142,-0.0078,-4.165,1.645,-16.3887,2.1452778142381446,12.30330842212255,3.581570916735026,13.562636412122723
0.1995,0.9338,0.0306,-0.2222,0.1142,-0.0078,-3.4738,2.1175,-17.0538,1.8776189015633362,12.084078214919995,3.4115747380854375,13.574828784758438
0.1902,0.9302,0.0345,-0.2237,0.1151,-0.01,-2.8263,2.0738,-17.0362,2.1233740840208193,11.614019232616789,4.155851525719178,13.586996029427327
0.1809,0.9245,0.0288,-0.2225,0.1123,-0.007,-1.9162,2.3975,-17.4125,1.7852382494828665,11.13604654089489,3.051892338903687,13.599173183716937
0.176,0.9288,0.0293,-0.2225,0.1123,-0.007,-1.3475,2.0213,-17.4825,1.8067983346682237,10.774741826281774,3.049937118137847,13.611296189007613
0.1767,0.9332,0.0296,-0.221,0.1159,-0.0071,-0.945,0.9887,-17.29,1.8167177794323963,10.722950422649529,3.1510215484013844,13.623473343297222
0.1773,0.9401,0.0225,-0.221,0.1159,-0.0071,0.4288,0.6212,-17.1675,1.3722597235420313,10.682113595695657,2.887166833695407,13.632395541095375
0.1815,0.9443,0.0236,-0.2233,0.1158,-0.0046,-0.21,0.5862,-17.0888,1.4314777905577223,10.856429128673446,2.173193915931689,13.644569156234727
0.1856,0.9473,0.0225,-0.2203,0.1154,-0.0077,0.5338,1.1025,-16.8525,1.3608120661826855,11.05749737720698,3.0783674470838944,13.656700301570995
0.1888,0.9498,0.0178,-0.2203,0.1154,-0.0077,0.1575,1.4175,-16.835,1.0744327766822659,11.219928870635455,2.9157654444579304,13.668822245116592
0.1868,0.9517,0.0278,-0.2206,0.115,-0.0078,-0.0263,0.8138,-17.1413,1.6715357978522078,11.112950249779285,3.283974943431922,13.680961884413477
0.1867,0.9487,0.0242,-0.2206,0.115,-0.0078,-0.0875,0.8663,-17.0713,1.4617969977481073,11.127963759788287,3.1609969222616985,13.693180446761094
0.1804,0.9465,0.0214,-0.2222,0.1159,-0.0021,-0.56,0.7263,-17.0362,1.2956742286378724,10.82400730427423,1.37631197356983,13.70215183874782
0.1799,0.947,0.0138,-0.2203,0.1163,-0.0066,-0.4288,0.4725,-16.695,0.836144517428573,10.76215888027179,2.437929496746215,13.714287584979422
0.1791,0.9486,0.021,-0.2203,0.1163,-0.0066,0.07,0.8312,-17.1413,1.2670108567273568,10.697036285004922,2.693774136174626,13.726427932106358
0.1804,0.9505,0.0145,-0.2189,0.1162,-0.0082,0.4812,0.9275,-17.465,0.8750675344747779,10.740203889604649,2.9509780596577673,13.738559785272676
0.1792,0.9528,0.0213,-0.2189,0.1162,-0.0082,0.0263,1.1462,-16.8175,1.279526483697944,10.659037931899471,3.189716041430634,13.75071676640582
0.1828,0.9545,0.0177,-0.2183,0.1169,-0.0061,0.2187,1.3737,-16.5725,1.0629539443213896,10.819435907176135,2.460069517706523,13.762874455369015
0.1818,0.9542,0.0162,-0.2183,0.1169,-0.0061,-0.0875,1.1812,-16.5987,0.9728985533381928,10.789283445044834,2.4034793769954943,13.774935525530193
0.1775,0.9555,0.0157,-0.2191,0.1155,-0.0114,-0.4462,1.2337,-16.38,0.9414399790622862,10.551957457313462,3.9124567296820554,13.784196773922975
0.1781,0.9523,0.0151,-0.2197,0.1161,-0.0106,-0.6388,1.085,-16.7213,0.9085167494106029,10.58747500901372,3.656761946041772,13.796150961746388
0.1748,0.9515,0.0122,-0.2197,0.1161,-0.0106,-0.8838,1.12,-16.4062,0.7350783048094094,10.428488728211375,3.5447323034692975,13.808272905291986
0.1735,0.9518,0.0081,-0.2222,0.1171,-0.008,-0.315,1.8112,-16.0475,0.48826837238304127,10.34207638424846,2.607188697896695,13.820432717745335
0.1705,0.9545,0.0117,-0.2222,0.1171,-0.008,-0.6388,1.7413,-16.2663,0.7016904681298786,10.15236185798606,2.7256964399375474,13.832614119015254
0.1719,0.9548,0.0134,-0.2188,0.1164,-0.0145,-0.3938,1.68,-16.1437,0.803774205248674,10.198919323069353,4.733833660437593,13.84479162721989
0.1717,0.9535,0.0045,-0.2178,0.1161,-0.0101,-0.7088,1.68,-15.9337,0.27187442688915475,10.206882538860478,3.1460781434700404,13.856986477260783
0.1718,0.9562,0.0095,-0.2178,0.1161,-0.0101,-1.0937,2.0213,-15.6538,0.5684027323316327,10.187787288833391,3.3220391104713465,13.86590088892837
0.1745,0.9539,0.0086,-0.2198,0.1169,-0.0117,-1.1725,1.0937,-14.98,0.5166862530884556,10.346739040344687,3.7378904873222805,13.87806813359726
0.1745,0.9566,0.0048,-0.2198,0.1169,-0.0117,-2.4063,1.5225,-14.6737,0.2881300317496926,10.338933678520213,3.60050494689878,13.890248827037126
0.1718,0.9581,0.0073,-0.2189,0.1167,-0.0088,-2.625,1.7237,-14.28,0.43613056182667553,10.185936615296454,2.8467485744211016,13.902404038595142
0.1754,0.9575,0.0135,-0.2204,0.117,-0.012,-2.2488,2.2225,-13.5975,0.8067423341964014,10.355468762924287,3.987699971235355,13.914573760669212
0.1756,0.9521,0.0059,-0.2204,0.117,-0.012,-3.0188,1.7675,-13.5537,0.3563017952146772,10.438557386736615,3.7234921638319394,13.926836208480017
0.1745,0.9506,0.008,-0.2202,0.116,-0.0117,-3.1937,1.4875,-13.0725,0.48182516472602255,10.405754642447942,3.706784838755126,13.938924176183148
0.1765,0.9513,0.0101,-0.2202,0.116,-0.0117,-2.7825,1.435,-12.8275,0.6079383913092087,10.498425362317166,3.7866385962493667,13.951060984159826
0.1792,0.9502,0.009,-0.2182,0.1166,-0.0202,-3.1412,1.2075,-13.0812,0.5428529351284984,10.659538553821305,6.302072722176247,13.960062105008712
0.1814,0.9504,0.01,-0.2195,0.1167,-0.0112,-2.7037,0.9713,-13.8162,0.6026709703830798,10.789582185790787,3.6716219252910602,13.972205991285906
0.1818,0.949,0.0115,-0.2195,0.1167,-0.0112,-2.3275,1.0762,-14.3238,0.6940234790902522,10.83804814465284,3.726575691654185,13.984844296854014
0.1829,0.9504,0.0074,-0.2198,0.1168,-0.0136,-2.6163,0.6038,-14.4462,0.4467947477406079,10.88712099299308,4.281393199898404,13.996534817983273
0.182,0.9506,0.0052,-0.2198,0.1168,-0.0136,-2.9663,0.4288,-13.7287,0.3137882280274465,10.843382441036864,4.199277281829271,14.008745948115351
0.1811,0.9449,0.0082,-0.2206,0.1158,-0.0126,-2.9838,0.1225,-13.86,0.4967005943378789,10.848773012580482,3.993399652014694,14.020906822313776
0.1798,0.9434,0.0051,-0.2214,0.1171,-0.0104,-3.1238,0.28,-13.545,0.3102560319175169,10.796159348987896,3.2293075059801506,14.033027704114298
0.1825,0.9464,0.0062,-0.2214,0.1171,-0.0104,-3.4475,0.35,-13.3175,0.37516641218617586,10.90251523153945,3.2735416199422906,14.042017145767336
0.1906,0.949,0.0129,-0.2219,0.1163,-0.0125,-2.905,0.5425,-13.7462,0.7776678325316809,11.308622355114762,4.135680099045281,14.054203501847613
0.192,0.9491,0.018,-0.2219,0.1163,-0.0125,-2.7475,1.05,-13.5275,1.0856465173699097,11.420719506374526,4.323070504427266,14.066362606470912
0.1968,0.946,0.0106,-0.2214,0.1166,-0.0132,-3.0013,0.945,-14.0787,0.6432084849895345,11.715555845332675,4.297216308523986,14.078482780441382
0.1934,0.9441,0.0102,-0.2214,0.115,-0.0137,-3.2725,1.2337,-13.4137,0.6190633749095815,11.591759222310257,4.407458046244608,14.090707005429412
0.1915,0.9424,0.0133,-0.2209,0.115,-0.0137,-3.2813,1.715,-13.5012,0.808029554666422,11.497758381329614,4.5244204737216736,14.102884867549072
0.1897,0.9398,0.0123,-0.2209,0.1136,-0.0115,-2.7125,1.8375,-14.0262,0.7499995533671447,11.421283975437694,3.8281510503698586,14.1150457417475
0.1882,0.9382,0.0124,-0.2209,0.1136,-0.0115,-1.5137,1.3125,-13.9212,0.75720268841806,11.35075121915225,3.828310514256032,14.12397714133632
0.188,0.9444,0.0093,-0.2236,0.115,-0.018,-1.0062,1.4175,-13.8337,0.5647361594290409,11.268569555546044,5.549021629436322,14.136156419116084
0.1914,0.9466,0.0118,-0.2236,0.115,-0.018,-1.2425,1.4525,-14.6475,0.7137801245466495,11.41168180779111,5.649827924100749,14.14840223292068
0.1906,0.9479,0.0101,-0.2221,0.1161,-0.0104,-2.275,1.4,-15.1025,0.6107572873753543,11.373453793572965,3.4185853218559026,14.160446315160623
0.1915,0.9481,0.0051,-0.2214,0.1165,-0.0111,-1.8375,1.5137,-14.7262,0.30903868174185034,11.413752981328368,3.4596854239070503,14.172638333881313
0.1969,0.9501,0.0101,-0.2214,0.1165,-0.0111,-2.1963,2.17,-15.365,0.6082263673361914,11.671222258040688,3.6542102925997915,14.184818673406154
0.1966,0.9536,0.0059,-0.2214,0.1166,-0.0119,-2.4413,2.625,-15.8638,0.3551925171160449,11.6519317682909,3.7354413007319938,14.196973531049142
0.1957,0.9541,0.0102,-0.2214,0.1166,-0.0119,-3.0363,2.9838,-16.1262,0.611794305015588,11.59922464286088,3.8867308237559084,14.209166965429935
0.1925,0.951,0.0078,-0.2234,0.1159,-0.0162,-3.5525,3.4038,-16.59,0.4703178266359925,11.46564643026973,5.000079825637157,14.218145789632201
0.1893,0.9488,0.0131,-0.2227,0.115,-0.0133,-3.6575,3.675,-15.96,0.7901355233951093,11.310143940484895,4.345177912672945,14.230273041903185
0.1882,0.949,0.0124,-0.2227,0.115,-0.0133,-3.5875,3.4038,-15.8725,0.7487216502363448,11.229855281243353,4.316145666121085,14.242554955040406
0.192,0.945,0.0181,-0.2211,0.1159,-0.0123,-3.6575,3.4213,-15.645,1.0963074872746783,11.44556288658615,4.287176450866124,14.254631597462714
0.1881,0.949,0.0154,-0.2211,0.1159,-0.0123,-3.3338,3.4475,-15.645,0.9301549050262525,11.244513154714234,4.1718209073398045,14.266806982177194
0.1882,0.948,0.019,-0.2193,0.1154,-0.0075,-3.4563,3.4913,-15.4875,1.1475732761148765,11.22904578709398,2.9158421534328065,14.278945559729001
0.1862,0.9496,0.0166,-0.2218,0.1173,-0.0114,-3.0538,3.0888,-16.135,1.0018937565016295,11.111435783419882,3.9419271886308023,14.291131915809279
0.1849,0.9465,0.0157,-0.2218,0.1173,-0.0114,-2.8087,3.6837,-15.75,0.9504456039605766,11.06117092548793,3.9098963183657838,14.300097645155594
0.1835,0.9496,0.017,-0.2234,0.1159,-0.013,-2.4237,3.57,-15.6363,1.02540683984879,10.954169924222711,4.365931080482847,14.312268075059714
0.1826,0.9474,0.0179,-0.2234,0.1159,-0.013,-2.555,3.4213,-15.2687,1.0822489807695583,10.914266368455632,4.397540525381376,14.324451599819787
0.1829,0.9461,0.0157,-0.2226,0.1162,-0.014,-2.8438,3.3425,-15.19,0.9510692243689817,10.936245623896275,4.6323134025543204,14.336612474018214
0.1783,0.9453,0.0161,-0.2233,0.1158,-0.0118,-2.6863,3.36,-14.7875,0.9756777286393604,10.717255199025708,3.9785269416896516,14.348760607275715
0.177,0.942,0.0163,-0.2233,0.1158,-0.0118,-2.1525,2.8875,-14.735,0.9912815104267158,10.650629060017982,3.9849655468610616,14.361009252400518
0.1798,0.939,0.0215,-0.2213,0.1159,-0.0118,-2.6513,2.59,-14.7875,1.3107663203204691,10.812646975063839,4.224486240434215,14.37310040533888
0.1793,0.9431,0.0219,-0.2213,0.1159,-0.0118,-2.205,2.1088,-14.665,1.3301889699327196,10.767919328653756,4.231149868434911,14.385219871479299
0.1773,0.9446,0.0195,-0.2224,0.1155,-0.0134,-1.8025,1.5137,-15.5225,1.1830349049275197,10.644424311975056,4.57196312961936,14.394302038869073
0.1751,0.9464,0.016,-0.2216,0.1167,-0.0082,-2.0125,1.2163,-16.1612,0.9691538461274857,10.498846611129498,2.9611901667294114,14.406417965859234
0.1754,0.9508,0.0177,-0.2216,0.1167,-0.0082,-2.24,1.2163,-16.31,1.0662197588255269,10.4557971030635,3.016647700186828,14.418550172940579
0.1776,0.9504,0.0151,-0.2217,0.1122,-0.013,-2.345,0.9187,-16.5375,0.9106737646763916,10.569704606384285,4.282151414003446,14.430666453845765
0.1778,0.95,0.0148,-0.2217,0.1122,-0.013,-2.8788,0.9975,-16.66,0.8925860762182105,10.596240013229059,4.273933865866762,14.442962523584013
0.1737,0.9496,0.0154,-0.2216,0.1161,-0.0159,-3.0888,0.6563,-15.7237,0.9290031087049722,10.38875063802623,5.152962514615824,14.455069602698533
0.1746,0.9497,0.0159,-0.2216,0.1161,-0.0138,-1.5837,0.2187,-15.435,0.9590803100885991,10.413217017701438,4.568907814158079,14.467235077792292
0.1745,0.948,0.0154,-0.2206,0.1159,-0.0138,-2.1875,0.0788,-15.6975,0.930751064746897,10.426939217096667,4.573639735477348,14.476220980295073
0.1755,0.9484,0.003,-0.2222,0.117,-0.0123,-2.1875,-0.0875,-15.9687,0.1833150998475292,10.478339847594668,3.6766131949742413,14.48837937708832
0.1742,0.9486,0.0106,-0.2222,0.117,-0.0123,-1.925,0.1138,-15.3475,0.6389522844955244,10.412398054781127,3.942102739367238,14.50055653137793
0.1723,0.9488,0.0194,-0.2216,0.1166,-0.0161,-1.9775,0.3675,-14.9537,1.1698826295426767,10.302871108709839,5.350935092524766,14.512708203785689
0.1749,0.9464,0.0165,-0.2216,0.1166,-0.0161,-2.1438,-0.0788,-14.3062,0.999295264888015,10.45279316013622,5.264105940089251,14.524939860989257
0.1749,0.9423,0.0192,-0.2228,0.1155,-0.01,-1.4787,0.0,-13.9125,1.166814286534391,10.506988178189532,3.56998304440046,14.53709117948199
0.1776,0.9434,0.0171,-0.2253,0.1158,-0.0145,-0.8925,0.5075,-13.65,1.0387798424052483,10.644037159566565,4.7417994993186,14.549263732876264
0.1777,0.9487,0.0148,-0.2253,0.1158,-0.0145,-0.77,0.595,-13.7287,0.8941587604881411,10.611576194037179,4.6565553159364255,14.561439825420797
0.1773,0.9468,0.0135,-0.2202,0.115,-0.0111,-0.7875,0.2713,-13.65,0.8171128822770316,10.606062786162868,3.7323519081786722,14.570398476466599
0.1779,0.9481,0.0099,-0.2202,0.115,-0.0111,-0.7962,0.21,-13.7725,0.5988611298713563,10.624687468182566,3.6049859157402717,14.58257952382149
0.1788,0.9511,0.008,-0.2206,0.1158,-0.0135,-0.28,0.6038,-13.8075,0.48224364447039764,10.644292451655684,4.23516521219003,14.594714208308014
0.1776,0.9523,0.0112,-0.2202,0.116,-0.013,-0.5338,0.4112,-14.035,0.6732962503100268,10.571591462734112,4.207700398705408,14.606903041793473
0.1812,0.9505,0.0082,-0.2202,0.116,-0.013,-1.12,0.035,-13.965,0.49477510316628975,10.771083702530152,4.114932022261169,14.619120896311038
0.1835,0.9511,0.0062,-0.2231,0.1166,-0.0151,-1.155,0.3325,-13.335,0.3738276267073934,10.904896907703806,4.602633389142656,14.631212757079451
0.1837,0.9539,0.0087,-0.2231,0.1166,-0.0151,-1.82,0.2538,-13.0288,0.5221373759372124,10.900499692838038,4.688978103927344,14.643397343584601
0.1857,0.9526,0.007,-0.2214,0.1151,-0.0188,-1.4525,0.2713,-12.5913,0.42129912868719077,11.017555764304538,5.7429605709828975,14.655516455809993
0.1846,0.9538,0.0038,-0.2235,0.115,-0.0145,-1.3562,0.3325,-12.6787,0.22880236471988377,10.960062827107148,4.330156939251126,14.66449952699257
0.1884,0.9534,0.0101,-0.2235,0.115,-0.0145,-1.6712,0.5338,-12.3638,0.6059034695667065,11.15509499013783,4.561480773173951,14.676713488444852
0.1868,0.9499,0.0131,-0.2226,0.1169,-0.0135,-2.0388,0.665,-12.9237,0.7896016179890798,11.127562800965071,4.410845767132912,14.688855959061941
0.19,0.9482,0.0106,-0.2226,0.1169,-0.0135,-2.0825,1.0325,-12.8625,0.64090018226636,11.308141039998862,4.334828200061037,14.701050809102837
0.189,0.9459,0.0101,-0.2239,0.1174,-0.0159,-2.0913,0.49,-12.7487,0.6118423920524552,11.299777306338115,4.985943586220765,14.713220885091932
0.1862,0.9452,0.0074,-0.2252,0.1155,-0.015,-2.0213,0.6825,-12.705,0.44901340255376354,11.160283180478658,4.577473495583144,14.72539237674113
0.1922,0.9456,0.0108,-0.2252,0.1155,-0.015,-1.9162,0.3325,-12.8625,0.6537964982338649,11.455384885557333,4.7179293097080786,14.737568823200688
0.1901,0.9491,0.0063,-0.2254,0.1145,-0.0162,-1.8637,0.5338,-12.6,0.38107316404123676,11.339285539521743,4.8822189791799255,14.746550124808135
0.1888,0.9496,0.0076,-0.2254,0.1145,-0.0162,-1.47,0.8312,-12.9762,0.4583353116824303,11.25465957525401,4.921455339386587,14.758649417792087
0.1925,0.947,0.0048,-0.2288,0.1167,-0.0152,-1.9775,0.1312,-12.6262,0.2908740126196313,11.46672275535511,4.492780323746596,14.770848868728317
0.1925,0.943,0.0034,-0.2262,0.1144,-0.0155,-2.4237,0.2625,-12.0312,0.2068135361337091,11.530423532515632,4.57718785851168,14.783026730847977
0.1931,0.9437,0.0052,-0.2262,0.1144,-0.0155,-2.17,0.7875,-11.6287,0.3154078156888462,11.560504477117334,4.641120507008818,14.795151505713783
0.204,0.9421,0.0045,-0.2256,0.1151,-0.0151,-2.3363,0.315,-12.005,0.2737904820817648,12.15164329928909,4.561738153780602,14.807337507879033
0.1997,0.9427,0.0065,-0.2256,0.1151,-0.0151,-2.1,0.56,-11.6025,0.39471735431264693,11.980119520617054,4.615378376236992,14.819504398632898
0.2034,0.9432,0.0056,-0.2278,0.1158,-0.0152,-1.8637,0.9538,-10.9987,0.34032547508262523,12.148827316546692,4.580847845161014,14.831685799902816
0.2037,0.9428,0.0065,-0.2278,0.1143,-0.0195,-1.6625,0.7875,-11.1037,0.3948600340512253,12.187033954483459,5.833224157283521,14.84063100217764
0.2056,0.9429,0.0062,-0.2287,0.1143,-0.0195,-0.3938,1.19,-11.6725,0.3767905508991397,12.288031227422957,5.8070057584709724,14.852801785996787
0.1987,0.9412,0.0069,-0.2289,0.113,-0.0163,-1.155,1.2687,-11.9263,0.4199122061542207,11.961544027436618,4.879725060998528,14.864982833351679
0.1979,0.9363,0.0046,-0.2289,0.113,-0.0163,-1.3387,1.0675,-11.725,0.28187191742208695,11.93741685211955,4.802880726306936,14.877145123210209
0.2001,0.9365,-0.0024,-0.2284,0.1137,-0.018,-0.7175,0.9538,-11.83,-0.14565064585948667,12.047568420266723,5.07006971757115,14.889306351323661
0.2009,0.9405,-0.003,-0.2284,0.1137,-0.018,-0.3763,1.1287,-12.4075,-0.18265874145632718,12.056555810330027,5.0497770669660325,14.901538008527229
0.2033,0.9434,0.0018,-0.2288,0.1145,-0.0175,-0.3763,1.2425,-12.1363,0.10851493040890543,12.149456788216318,5.074031356188059,14.913679063484217
0.2033,0.9415,-0.0021,-0.229,0.1143,-0.0161,-0.6737,1.4525,-11.8562,-0.1271451307047869,12.180848583626915,4.536739123607643,14.925928770354096
0.2093,0.949,-0.0024,-0.229,0.1143,-0.0161,-0.3763,1.61,-11.3925,-0.1448505093263474,12.407583651555575,4.542695142553861,14.93517267691062
0.2111,0.9517,-0.0034,-0.2316,0.1122,-0.0155,-1.26,1.855,-11.1737,-0.20452606107914928,12.494622701162523,4.279266982715556,14.94706103653925
0.2111,0.9529,-0.0039,-0.2316,0.1122,-0.0155,-1.4437,3.0013,-11.6112,-0.2344142463152979,12.491620396709921,4.26175551808484,14.959441691968642
0.213,0.9556,-0.0049,-0.2337,0.1138,-0.018,-2.2225,3.955,-10.5612,-0.293626676394925,12.553703912193175,4.895427556544504,14.971535322312183
0.2095,0.9508,0.0104,-0.2326,0.1121,-0.017,-2.4588,4.865,-11.4012,0.6241337466947822,12.449230800569415,5.128196234518456,14.98370787570646
0.2055,0.9415,0.0008,-0.2326,0.1121,-0.017,-3.0538,4.7512,-11.9175,0.050282701492235786,12.337652854359881,4.805713096929995,14.995882906505914
0.2012,0.9362,-0.0001,-0.2328,0.1138,-0.0186,-2.6863,4.62,-11.1212,-0.005963564166949894,12.16618493224754,5.213801486398548,15.008077048716759
0.2037,0.9392,0.0034,-0.2328,0.1138,-0.0186,-2.94,4.7863,-11.5587,0.20682330015561362,12.224072435393778,5.339741405824836,15.020232968104825
0.2076,0.9384,0.0093,-0.2338,0.1144,-0.0166,-2.5463,4.6463,-10.9462,0.566809368586995,12.429190642661675,4.977756766661164,15.032421447675256
0.2084,0.9381,0.0045,-0.2345,0.113,-0.0186,-1.9162,5.145,-10.6662,0.27564998132778296,12.506003969754978,5.348961787751265,15.0414013336226
0.2074,0.9393,0.0068,-0.2345,0.113,-0.0186,-1.645,5.4513,-10.6225,0.4143968799173582,12.462471836846069,5.420018931877746,15.053527170233481
0.2114,0.9396,0.0104,-0.2342,0.1118,-0.0196,-1.7675,4.97,-11.1562,0.6335466190540421,12.63791032936725,5.831614117450174,15.065707509758322
0.2144,0.9372,0.0023,-0.2342,0.1118,-0.0196,-1.9425,4.8562,-11.3137,0.14197504318436086,12.839534617840089,5.581363743872753,15.077894573668653
0.2154,0.9343,0.0051,-0.2368,0.1122,-0.0246,-1.4262,5.0925,-11.3312,0.31228135481567015,12.954563870100793,6.991112756247147,15.090069958383133
0.2147,0.9343,-0.0007,-0.2378,0.1124,-0.0182,-1.2075,4.935,-11.3837,-0.04194597472992025,12.944170020482906,5.012888275717203,15.102242157862383
0.2073,0.928,0.0063,-0.2378,0.1124,-0.0182,-0.8225,5.2063,-11.5675,0.38777394139063825,12.66198005736254,5.218799862550336,15.114382858904344
0.2056,0.9239,0.0095,-0.2391,0.1114,-0.0194,0.07,4.6813,-12.6787,0.588568639992466,12.566260248475208,5.607429654990242,15.123334785564657
0.2106,0.924,0.0097,-0.2391,0.1114,-0.0194,0.035,3.99,-12.3287,0.6014240801911198,12.795283843018703,5.6362251840625515,15.135450712554817
0.2148,0.9221,0.0145,-0.2378,0.1119,-0.0192,-0.5338,3.78,-11.97,0.900074609347069,13.062454455737752,5.8007251345391335,15.147655826131459
0.2172,0.9217,0.007,-0.2387,0.1112,-0.0212,1.0412,2.8087,-12.1187,0.4364103500005837,13.23300948902107,6.082279316042035,15.159758304350643
0.216,0.9248,0.0081,-0.2387,0.1112,-0.0212,1.6187,2.6863,-12.915,0.5016415571898937,13.15758780391298,6.108223649103148,15.171951738731435
0.2198,0.9307,0.0061,-0.2418,0.1114,-0.0196,2.1263,2.5113,-13.125,0.37586826154875314,13.270754897711637,5.536320870142586,15.184400345845765
0.2222,0.9354,0.0006,-0.2418,0.1114,-0.0196,3.1937,2.1525,-13.545,0.03767729262181459,13.351305674022854,5.364030223356374,15.192975353003696
0.223,0.9393,0.0035,-0.2402,0.1112,-0.0286,3.2288,2.1963,-13.7025,0.21301347321154543,13.354797038885966,7.937692863818755,15.205106144424937
0.2234,0.945,0.0003,-0.241,0.1112,-0.0221,3.2638,2.0563,-14.1312,0.018720839351500634,13.307277866336909,6.048248454660911,15.21724755329695
0.2263,0.9476,0.0002,-0.241,0.1112,-0.0221,2.7125,2.485,-14.1925,0.01211093554842689,13.415431099033302,6.054564784125461,15.2293454306208
0.2252,0.949,-0.0048,-0.2407,0.1119,-0.0234,2.1788,3.1763,-13.65,-0.2889706484424272,13.358701829083094,6.254635019465028,15.241525062315588
0.2237,0.9443,-0.0028,-0.2407,0.1119,-0.0234,1.7413,3.4388,-14.2712,-0.1702169625022369,13.331961366705308,6.316179387717316,15.253676380808322
0.2234,0.9426,-0.0046,-0.2425,0.113,-0.0243,1.4962,3.5963,-14.7875,-0.27930800126077315,13.332981762560784,6.455644891339701,15.26578098251766
0.2199,0.9431,-0.0085,-0.2425,0.113,-0.0243,1.47,3.9463,-14.3675,-0.5157329451153644,13.157639445360976,6.312408993157116,15.274789535582087
0.2181,0.9385,-0.014,-0.2457,0.113,-0.0294,0.9887,3.5088,-14.84,-0.8537111877739956,13.092789460361931,7.38946777943324,15.286959257656155
0.2186,0.9403,-0.0068,-0.2434,0.1124,-0.0256,0.7,3.185,-14.3238,-0.4155482000468411,13.088044939464845,6.682015429166627,15.299131457135406
0.2193,0.9424,-0.0076,-0.2434,0.1124,-0.0256,0.6737,2.555,-14.7525,-0.4619249003744336,13.097917459692843,6.657751237024484,15.31128100605301
0.2219,0.9443,-0.0092,-0.2414,0.1124,-0.0261,0.7962,2.7562,-14.6212,-0.5579314932382341,13.20656969144294,6.814587857891766,15.323453559447284
0.2186,0.9431,-0.0137,-0.2414,0.1124,-0.0261,0.5688,3.045,-14.6737,-0.8314979104134163,13.070690961538064,6.654240595139597,15.335637084207356
0.2167,0.9438,-0.0124,-0.2414,0.1115,-0.0269,-0.595,2.2575,-14.6125,-0.7529474858003325,12.947742767846904,6.897025551212725,15.347873696221285
0.2145,0.9484,-0.0161,-0.2422,0.1132,-0.0273,-0.4375,1.8463,-14.6475,-0.9719519523630636,12.766897064860403,6.852031332213127,15.360074208902592
0.2119,0.9497,-0.0181,-0.2422,0.1132,-0.0273,-0.2538,1.7937,-14.1487,-1.0915176433211562,12.598417516202568,6.773952596621636,15.36902896688311
0.2137,0.945,-0.0185,-0.2427,0.1117,-0.0282,-1.4787,1.0325,-14.2887,-1.1214371948322324,12.724652912678682,6.994808299954341,15.381213553388259
0.2143,0.9465,-0.0174,-0.2427,0.1117,-0.0282,-2.0125,0.6737,-14.6387,-1.053368382672449,12.752129236419362,7.031772236609448,15.39346326025814
0.2176,0.942,-0.0182,-0.2425,0.1117,-0.0266,-2.5288,0.0613,-14.3762,-1.1067025055720625,12.979881238997416,6.605623262145221,15.405640060632724
0.2181,0.9416,-0.0106,-0.2438,0.1108,-0.0265,-2.9663,0.3763,-14.175,-0.6462581337614486,13.034326152143699,6.778190841744582,15.417875256986548
0.22,0.9367,-0.0162,-0.2438,0.1108,-0.0265,-2.905,0.07,-14.2187,-0.9898614171922838,13.197609869798448,6.616376473290755,15.430139828287508
0.2208,0.9361,-0.0125,-0.2421,0.1103,-0.0271,-2.59,-0.875,-14.6737,-0.7656643155744316,13.26417607792298,6.949111582081346,15.442293624185421
0.2205,0.9357,-0.0138,-0.2421,0.1103,-0.0271,-2.7213,-1.0937,-14.2275,-0.8447350572901204,13.259075337187538,6.90704041527052,15.454597480054234
0.2225,0.9349,-0.0129,-0.2428,0.1126,-0.0274,-3.08,-0.91,-13.9912,-0.7906828402857444,13.374379320701017,7.014114298992927,15.466797284905489
0.2272,0.9369,-0.0156,-0.2449,0.1107,-0.0278,-2.9925,-0.805,-14.2887,-0.9534709408053165,13.606277734688128,6.9855821117835175,15.479051238755678
0.2258,0.9361,-0.0159,-0.2449,0.1107,-0.0278,-2.8438,-0.1663,-14.7525,-0.9730416762242466,13.564066030357282,6.969155895718099,15.491245380966522
0.2275,0.9325,-0.0135,-0.2436,0.1121,-0.0242,-3.01,-0.0788,-14.735,-0.8298239699018088,13.695050255274214,6.135834691387704,15.503555607305797
0.2261,0.9337,-0.0224,-0.2436,0.112,-0.028,-2.5025,0.14,-15.2337,-1.3727853879895429,13.617206295729478,6.862380945441782,15.515762844372592
0.2245,0.9367,-0.017,-0.242,0.112,-0.028,-1.8463,0.175,-15.4525,-1.040658455179778,13.489839420375981,7.077020439700288,15.524763611306453
0.228,0.9345,-0.0112,-0.2424,0.113,-0.0262,-2.3975,0.2625,-15.0587,-0.6876393933791368,13.688144612099872,6.790789642135357,15.536940765596063
0.2309,0.934,-0.0122,-0.2424,0.113,-0.0262,-2.4237,1.0237,-15.2163,-0.7481922266766652,13.863532059404804,6.774228695888682,15.549133138231777
0.2273,0.9334,-0.0149,-0.243,0.1117,-0.026,-1.96,1.1987,-15.0675,-0.914082626001936,13.704321745302845,6.590517856738165,15.561347453599087
0.2302,0.9346,-0.0165,-0.2426,0.1118,-0.026,-1.4787,1.7062,-15.225,-1.0111605019421266,13.819620940696144,6.565479106927209,15.57350938954259
0.2342,0.9359,-0.0167,-0.2426,0.1118,-0.026,-1.3475,2.0563,-14.9713,-1.0222344901438924,14.019248387642286,6.5790998905321265,15.58575661900729
0.2295,0.9391,-0.0132,-0.2445,0.1114,-0.0275,-1.7237,2.555,-15.2425,-0.805897302943862,13.769089680410977,7.006840135614739,15.597986152720704
0.2262,0.9391,-0.009,-0.2445,0.1114,-0.0275,-1.7325,3.3425,-15.015,-0.5497961037842009,13.575120691807733,7.12137742812513,15.610183834081806
0.2262,0.9321,-0.0102,-0.2438,0.111,-0.0244,-1.4787,3.1675,-14.6912,-0.6267511500729356,13.630759560046018,6.280110021863684,15.622355679646029
0.2219,0.9301,-0.0127,-0.2446,0.1128,-0.0249,-2.0825,3.0275,-14.56,-0.7818627151313691,13.44699173365827,6.296966723662892,15.634570702843389
0.2186,0.9282,-0.0122,-0.2446,0.1128,-0.0249,-2.1263,2.9925,-14.2625,-0.7531161112024625,13.278161439303451,6.298083750385734,15.646735824022125
0.2164,0.9322,-0.0149,-0.2459,0.1091,-0.0284,-1.9687,3.01,-14.0525,-0.9152700590875843,13.096658202491467,7.073826918717202,15.655782599909328
0.2184,0.9336,-0.0175,-0.2459,0.1091,-0.0284,-0.4725,2.835,-14.6387,-1.0734259696422896,13.155226792761638,7.004317766047723,15.668002577917049
0.2166,0.9358,-0.0236,-0.2443,0.113,-0.027,0.2888,2.3187,-14.1662,-1.443618324122034,13.044222851753915,6.485293192980656,15.68013584674347
0.2183,0.9398,-0.016,-0.2454,0.1126,-0.0286,0.0788,2.485,-14.7175,-0.9766497747808256,13.071143603130292,7.123768748434813,15.692315832353284
0.2213,0.9426,-0.0162,-0.2454,0.1126,-0.0286,-0.9363,1.4875,-14.8137,-0.9845952915151085,13.194579903236345,7.132353433692626,15.70470108867801
0.2238,0.9434,-0.0185,-0.2451,0.1109,-0.0304,-1.435,1.295,-14.8575,-1.123037954088424,13.326343836152484,7.555234135906497,15.716744463087903
0.2241,0.9457,-0.0166,-0.2451,0.1109,-0.0304,-2.1788,2.1,-15.015,-1.0059425836533238,13.328975692694659,7.614247003555035,15.728988153402344
0.2234,0.9462,-0.0157,-0.2423,0.1108,-0.0278,-2.2225,2.3888,-15.26,-0.9507570000094924,13.28853292857677,7.038341032249675,15.741147965855694
0.223,0.9462,-0.0179,-0.2428,0.1141,-0.0278,-2.3187,2.5025,-15.4437,-1.083410813514006,13.262954850995477,6.958922389058772,15.753353079432335
0.2174,0.9462,-0.018,-0.2428,0.1141,-0.0278,-2.4675,1.89,-15.1637,-1.0898148406161732,12.97650703865801,6.9251144837233705,15.765559962584105
0.2225,0.9494,-0.0199,-0.2435,0.1127,-0.0293,-2.7562,1.8288,-15.4,-1.2004705734510328,13.161888630980487,7.265625767373907,15.774599660170793
0.2238,0.9464,-0.0123,-0.2435,0.1127,-0.0293,-3.7188,1.995,-15.12,-0.745877760005558,13.286341786078818,7.516188486878012,15.786740361212754
0.223,0.9431,-0.0149,-0.246,0.1117,-0.0302,-4.5237,2.31,-15.4263,-0.9046943905145411,13.299924517894798,7.582101774081657,15.798957507900269
0.2239,0.9409,-0.014,-0.2434,0.1117,-0.0324,-4.1825,1.7062,-15.1725,-0.852607748761113,13.374083539315782,8.293817845175866,15.811167222372244
0.2252,0.9385,-0.0147,-0.2434,0.1117,-0.0324,-4.9963,1.715,-14.7962,-0.8972421991926579,13.478008700547957,8.283201416998294,15.823399587405865
0.2256,0.941,-0.0107,-0.2443,0.1123,-0.0286,-4.8562,1.7587,-14.7087,-0.6521614067257617,13.480713664913731,7.367613178240893,15.835572494715164
0.2229,0.944,-0.0132,-0.2443,0.1123,-0.0286,-4.3225,2.2662,-14.77,-0.8007024705146537,13.308908604372265,7.269731391849943,15.84778220918714
0.2204,0.9442,-0.0168,-0.2426,0.1137,-0.023,-4.8738,2.1963,-14.2537,-1.018736839392427,13.158389225212733,5.695880469772785,15.859983075783472
0.2119,0.9485,-0.0152,-0.2452,0.1118,-0.0266,-5.355,1.9775,-14.2712,-0.9183849043582104,12.660443753817816,6.585562897171835,15.872195621575651
0.2038,0.9443,-0.022,-0.2452,0.1118,-0.0266,-5.88,1.3037,-13.8512,-1.3334523185406018,12.22992753676701,6.337991850319726,15.884341985258024
0.2076,0.949,-0.0329,-0.2455,0.1116,-0.0278,-6.2388,0.14,-13.5187,-1.9837119676734203,12.322127394172842,6.323937037099402,15.896504275116554
0.2131,0.9496,-0.0382,-0.2455,0.1116,-0.0278,-6.1863,-0.6038,-13.72,-2.302725650079078,12.609151154821827,6.185639634946569,15.905745350352872
0.2223,0.9532,-0.0361,-0.2466,0.112,-0.0269,-6.7725,-1.2687,-14.245,-2.169269347699744,13.074204316289277,6.024907116354307,15.917884989649755
0.23,0.959,-0.0369,-0.2452,0.1103,-0.0293,-7.98,-1.61,-14.5862,-2.2034195398021272,13.443070831992998,6.719376091673747,15.930118416428453
0.2391,0.964,-0.0371,-0.2452,0.1103,-0.0293,-8.4612,-1.1287,-14.7613,-2.2039661764489487,13.878033343268065,6.760084467687414,15.94233131613566
0.2522,0.9721,-0.0345,-0.2455,0.1118,-0.024,-9.8875,-1.0325,-14.5075,-2.0330693364460095,14.476968223131424,5.462329339433673,15.955117558184515
0.2483,0.9777,-0.0357,-0.2455,0.1118,-0.024,-13.755,1.6538,-14.035,-2.091018072782927,14.268206010872499,5.407959488586159,15.96685054911686
0.2406,0.9753,-0.0366,-0.2464,0.1118,-0.0128,-15.6012,2.555,-13.7112,-2.1489581743629986,13.903083912087721,2.320434639476545,15.979091762026123
0.2286,0.9743,-0.0308,-0.2446,0.1105,-0.0205,-17.6925,3.465,-13.3262,-1.8116356600274177,13.302241648536418,4.566111705984765,15.991299706922968
0.2107,0.9617,-0.0237,-0.2446,0.1105,-0.0205,-19.0662,3.1763,-12.4162,-1.412865725877962,12.488441298017472,4.720880895879285,16.003618781137884
0.2061,0.9593,-0.0224,-0.2476,0.1092,-0.019,-20.2737,2.59,-11.5325,-1.3378533951590732,12.170057146156378,4.2936265105572975,16.015808322453395
0.2087,0.9572,-0.014,-0.2476,0.1092,-0.019,-21.14,2.1438,-10.9375,-0.8394095552630102,12.28265330258421,4.551068164271291,16.02812279577298
0.2141,0.9546,-0.0064,-0.2488,0.1105,-0.0187,-22.015,1.3475,-10.5087,-0.3854614597360223,12.600649397344924,4.69725476398724,16.040266682050174
0.2159,0.9537,-0.0091,-0.247,0.1077,-0.0109,-23.2488,0.6737,-10.115,-0.5462130677796179,12.738978640146147,2.6048688219708676,16.05253620816149
0.2181,0.9548,0.0027,-0.247,0.1077,-0.0109,-23.5462,0.7613,-10.36,0.15993610314934895,12.853456638682257,2.957968038699695,16.064746276548494
0.2147,0.9589,0.0074,-0.2493,0.1097,-0.0091,-24.4913,-0.1925,-10.3337,0.4413195002610894,12.64252339477948,2.5967934653666305,16.076986073797652
0.2109,0.9609,0.0107,-0.2493,0.1078,-0.0024,-25.9962,-1.8637,-10.1237,0.6374013977806531,12.400184472759348,0.936907465205589,16.08916995247275
0.2053,0.9573,0.0094,-0.2497,0.1078,-0.0024,-27.5625,-3.0013,-10.7187,0.5628083553318683,12.126000244835922,0.8943242997558167,16.10139736269601
0.1981,0.9449,0.0249,-0.2522,0.1053,-0.0008,-28.8225,-4.1475,-10.4038,1.506677097453209,11.85679497277573,0.9089213478763143,16.113722453466366
0.2045,0.9351,0.0375,-0.2522,0.1053,-0.0008,-29.6275,-5.5125,-10.1325,2.2941147057760447,12.296555496899526,1.2836568587806196,16.125907393886543
0.2116,0.9254,0.0425,-0.2529,0.1054,0.0033,-29.54,-7.1312,-10.2462,2.628517815683499,12.833772571102708,0.3958685916751488,16.13494638364318
0.2144,0.9177,0.0514,-0.2526,0.105,0.0077,-30.1087,-8.4525,-10.3863,3.20403038511028,13.114283739705638,0.46797190177592735,16.147082483789806
0.2194,0.9114,0.0582,-0.2526,0.105,0.0077,-28.7787,-8.995,-10.2375,3.652476167584234,13.488181665026469,0.25753237419901726,16.159320865378863
0.2306,0.9026,0.0752,-0.2525,0.1058,0.0127,-27.8162,-9.8875,-9.7125,4.759280546714706,14.244583573204427,1.0150635364440392,16.171483155237393
0.239,0.9026,0.0802,-0.2525,0.1058,0.0127,-27.545,-9.9663,-9.625,5.076699811703972,14.749089786869508,0.8677691499697072,16.183692161879318
0.2433,0.9021,0.0833,-0.2544,0.1067,0.0139,-26.1887,-9.9663,-9.275,5.275146143483526,15.018685646602439,1.0599291592243343,16.195828969855995
0.2524,0.9005,0.0923,-0.2554,0.1032,0.0239,-24.7362,-10.2375,-9.2312,5.850594821399701,15.55253565388519,3.4806431773533006,16.208063812294796
0.2592,0.8965,0.1017,-0.2554,0.1032,0.0239,-23.4237,-9.5987,-8.7325,6.470202475241966,16.004400935595864,3.204335467388547,16.22026786412636
0.2623,0.8943,0.0988,-0.2574,0.1029,0.025,-21.8487,-8.8112,-8.2512,6.304812955376448,16.239852022376855,3.5608840342557375,16.22919289324472
0.2663,0.8937,0.1051,-0.2574,0.1029,0.025,-20.8512,-7.5513,-8.1112,6.7060573438478555,16.47154466036473,3.378802486524279,16.24136403097889
0.268,0.8908,0.1036,-0.2579,0.105,0.0292,-19.3288,-6.5538,-7.735,6.633905753072863,16.62826776698239,4.460763692265631,16.253510394661262
0.2655,0.8911,0.1083,-0.2579,0.1031,0.0265,-18.5237,-5.5037,-7.0525,6.928610744141427,16.48627054165172,3.650840320885784,16.265686841120818
0.2703,0.8947,0.1096,-0.2593,0.1031,0.0265,-17.115,-4.55,-7.0175,6.983730390652318,16.678510506796822,3.6127600257709975,16.277861871920276
0.2746,0.8991,0.1125,-0.2627,0.1022,0.0319,-16.5112,-3.675,-6.6062,7.1316471373133306,16.846590449627534,4.907116389715167,16.290028054844086
0.2735,0.8995,0.108,-0.2627,0.1022,0.0319,-16.1612,-2.765,-6.4488,6.847362626070393,16.802215942499295,5.038117429037704,16.30218680555236
0.2722,0.9045,0.1155,-0.2627,0.1018,0.0386,-15.12,-2.0125,-6.4138,7.275759725753475,16.635976134902084,6.541030230506321,16.314317596973602
0.274,0.908,0.115,-0.2627,0.1018,0.0386,-14.805,-0.8838,-5.6262,7.2183580191963985,16.663440111391612,6.573598197763378,16.323327211783106
0.2782,0.9051,0.1191,-0.2659,0.1014,0.0334,-14.0262,-0.3675,-4.8913,7.49555264700444,16.921338128783628,5.079180519818487,16.335496933857172
0.2804,0.9016,0.1188,-0.2674,0.1001,0.0367,-13.685,0.5775,-4.7163,7.506347250113094,17.114211020048984,5.917156139261721,16.34754986397276
0.2919,0.9045,0.125,-0.2674,0.1001,0.0367,-13.3612,1.1638,-4.4975,7.8672827065943,17.660431676136614,5.800532338852151,16.359723125197085
0.2952,0.8994,0.1261,-0.2665,0.1006,0.0402,-12.81,2.4413,-4.2875,7.980781468717222,17.961845365278286,6.671241972205048,16.371899571656645
0.2982,0.8947,0.1304,-0.2665,0.1006,0.0402,-12.7225,3.5438,-4.69,8.291422364477889,18.209610522483118,6.550001502719098,16.38400912817634
0.2955,0.893,0.1326,-0.2691,0.101,0.0449,-11.97,5.2325,-5.6175,8.445595260733928,18.141288818892626,7.567643512462383,16.392959285261526
0.2868,0.889,0.1291,-0.2719,0.0995,0.0424,-11.0162,5.7225,-6.2913,8.263215142690822,17.802669977961614,6.941171553116724,16.405047960794708
0.2799,0.8908,0.1279,-0.2719,0.0995,0.0424,-10.2112,5.705,-5.95,8.170881871779027,17.392956118093984,6.940969889660562,16.4171780443859
0.2746,0.8945,0.1296,-0.2748,0.1018,0.0435,-9.485,5.7838,-6.6588,8.243750224742271,17.01042532113492,6.997059611640115,16.429309189722165
0.2758,0.8933,0.1282,-0.2748,0.1018,0.0435,-8.995,5.6175,-7.5425,8.16713197255208,16.997374959815,7.040765731875316,16.441386539974523
0.2815,0.8943,0.1315,-0.2768,0.0982,0.0417,-8.9512,5.285,-7.6912,8.364405362384574,17.23707586870217,6.586556505061569,16.450288210701185
0.2878,0.8929,0.1371,-0.2768,0.0982,0.0417,-8.855,5.1013,-7.2625,8.728255022017452,17.586623351273825,6.461162130274652,16.46234361822195
0.2877,0.8905,0.1334,-0.2757,0.0989,0.0468,-7.7613,5.1363,-8.4437,8.520340046407316,17.693266959376672,7.8049106862194355,16.474407519703334
0.289,0.8861,0.1344,-0.2783,0.0987,0.0456,-7.42,5.565,-9.1087,8.624357311527865,17.83407160300537,7.411107751146345,16.486543973764984
0.2785,0.8809,0.1429,-0.2783,0.0987,0.0456,-7.0,5.39,-9.7912,9.212624557546087,17.435488239877266,7.100899765134953,16.498656715519918
0.2704,0.8799,0.1419,-0.2785,0.098,0.045,-5.565,4.8125,-10.4125,9.161262719911463,16.98013600252887,6.953483892468358,16.507560155821707
0.2697,0.882,0.1402,-0.2785,0.098,0.045,-4.935,3.4125,-10.4125,9.0323557933831,16.829680103486005,7.001957869006817,16.519685284602538
0.2763,0.8864,0.1408,-0.2802,0.0986,0.0461,-4.305,2.3275,-10.5,9.025745886159811,17.07543664563842,7.22808315884154,16.531817845598905
0.282,0.8932,0.1458,-0.2804,0.0974,0.0478,-3.9113,1.2425,-10.8937,9.270134400065933,17.281036911620376,7.572717186074257,16.543973057156922
0.2933,0.8949,0.1449,-0.2804,0.0974,0.0478,-3.395,0.5775,-11.34,9.197571174643821,17.86107530337466,7.667903001906597,16.556073765800978
0.2992,0.8962,0.1443,-0.2816,0.0958,0.0463,-3.1675,0.3763,-12.1275,9.147009988386658,18.203964852788562,7.374298147513309,16.565009766285133
0.3032,0.8935,0.14,-0.2816,0.0958,0.0463,-2.9225,0.1925,-12.6262,8.905780935691064,18.500855588868525,7.505238057267919,16.57712604719032
0.304,0.8913,0.1437,-0.2807,0.098,0.0488,-2.4938,0.2013,-12.6525,9.158007767562298,18.598892429838266,7.970630650545759,16.58929824666957
0.3034,0.888,0.138,-0.2807,0.098,0.0488,-2.1875,0.5075,-13.0462,8.83431389080063,18.649599825768707,8.117101899989652,16.601436116391326
0.2979,0.8853,0.1391,-0.2814,0.0982,0.0427,-2.03,0.9713,-13.895,8.929153781018655,18.415999642454768,6.559039628444328,16.613484799526603
0.2933,0.8863,0.1347,-0.283,0.0968,0.0458,-1.2425,0.3588,-13.6763,8.642484797088281,18.1468397968005,7.386393147832775,16.62564992070534
0.2846,0.8937,0.1276,-0.283,0.0968,0.0458,-0.315,0.2975,-13.7112,8.12703907787418,17.56301065859271,7.54084105232718,16.63506795345451
0.2838,0.8974,0.1269,-0.2837,0.0978,0.0444,0.5688,-0.8312,-14.6212,8.048960824264947,17.402898538989117,7.190202738665025,16.646678843702983
0.29,0.9,0.1207,-0.2837,0.0978,0.0444,0.2713,-1.9162,-15.05,7.639553523541844,17.686156324879303,7.392749076545557,16.658823437810227
0.2953,0.9015,0.1204,-0.2832,0.0974,0.0503,-0.2975,-1.7762,-14.4812,7.607221536567341,17.96258940451313,8.845786412171183,16.671025366151635
0.2968,0.901,0.1188,-0.2835,0.0966,0.0459,-0.2187,-1.5487,-14.665,7.51158410824746,18.07577024159064,7.869302186977776,16.683192964735554
0.304,0.9017,0.1177,-0.2835,0.0966,0.0459,-0.9363,-1.5487,-14.455,7.437047209490856,18.450304291861983,7.941991146988891,16.695335435352643
0.3106,0.8976,0.1188,-0.2822,0.0983,0.0443,-1.0675,-1.54,-14.4725,7.53916233792178,18.8930456042111,7.569806411354546,16.707497725211173
0.3074,0.8995,0.1191,-0.2822,0.0983,0.0443,-1.4088,-1.33,-14.5338,7.542473916750342,18.731120231334884,7.5452853794156995,16.716473364178206
0.3104,0.8981,0.1213,-0.2836,0.0973,0.047,-1.5662,-0.9538,-14.4987,7.691574239913689,18.891074344406125,8.124936184924126,16.728638485356942
0.3076,0.8979,0.1168,-0.2826,0.097,0.0445,-1.855,-0.4288,-14.735,7.4122680711743785,18.775368588650988,7.669217903105149,16.740829796247578
0.308,0.8974,0.1146,-0.2826,0.097,0.0445,-1.855,0.3588,-14.9187,7.27778417603442,18.79848356487831,7.7292532473653885,16.752980052995234
0.3069,0.8971,0.1166,-0.2844,0.0979,0.0437,-2.1875,0.315,-14.9713,7.405113848890966,18.7453961511116,7.405915310831709,16.765084654704573
0.3075,0.8985,0.1127,-0.2844,0.0979,0.0437,-1.5312,0.5075,-15.6275,7.150052384372531,18.75514766590081,7.515342793345724,16.777197396459503
0.307,0.9001,0.1187,-0.2852,0.0962,0.0418,-1.4175,1.05,-13.6325,7.511485937792247,18.69062254862278,6.918987679376782,16.78626292984307
0.309,0.899,0.1153,-0.2852,0.0962,0.0418,-1.7413,1.9512,-15.5312,7.309054358648026,18.809138786995117,7.016331748924604,16.798325415664348
0.308,0.8996,0.114,-0.2842,0.0989,0.0456,-0.945,2.4063,-16.0125,7.222436620690374,18.76668506551331,7.922863761014637,16.81041409119753
0.3051,0.8999,0.1133,-0.2834,0.098,0.0434,-1.4612,2.5988,-16.1175,7.176074454602029,18.614892267295588,7.443926292041559,16.822526479037435
0.3017,0.9004,0.1151,-0.2834,0.098,0.0434,-1.785,2.6338,-16.2488,7.284429110771644,18.415412809810462,7.376755466116624,16.834675674040014
0.301,0.9009,0.1141,-0.2814,0.0994,0.0437,-0.9013,3.0013,-17.22,7.218327486066622,18.34906706785884,7.502531239721975,16.8467409911815
0.2942,0.903,0.1124,-0.2814,0.0994,0.0437,-0.9887,3.3075,-17.1238,7.095678724941835,17.978887347425466,7.512039068580868,16.855718753638687
0.2884,0.9044,0.1143,-0.2851,0.0978,0.0402,-1.505,3.8937,-17.2812,7.202678357225167,17.622484432777345,6.53766857278208,16.86782866407341
0.2863,0.9012,0.1135,-0.2821,0.0974,0.04,-2.0825,3.3425,-17.29,7.178287130212221,17.513263198530588,6.581147250456045,16.879934681442855
0.284,0.9019,0.116,-0.2821,0.0974,0.04,-1.855,3.255,-16.2138,7.328578582122511,17.36870705222821,6.5055068124742785,16.892120329693082
0.2771,0.9062,0.1174,-0.2818,0.0976,0.0431,-1.5312,2.8788,-16.1,7.381520562634632,16.93765423677237,7.173024964176115,16.9042521828594
0.2802,0.9057,0.1197,-0.2818,0.0976,0.0431,-1.785,2.205,-15.785,7.528340176625417,17.03700557858526,7.129146424030716,16.91318995291868
0.2819,0.9059,0.119,-0.2808,0.0985,0.0427,-2.1613,2.1613,-15.4962,7.483710678566396,17.133069226948216,7.070859780770829,16.92536887678342
0.2864,0.9063,0.1147,-0.2808,0.0985,0.0427,-2.5025,2.1438,-15.0062,7.2136739054220715,17.372876267167133,7.20979332658909,16.937429239114547
0.284,0.9053,0.1232,-0.2818,0.099,0.042,-2.6863,1.8463,-14.5687,7.748145120590372,17.28005473123122,6.765027463558382,16.949581619352355
0.2841,0.9046,0.1176,-0.2833,0.0978,0.0429,-2.8963,1.6887,-13.93,7.407983551881204,17.296532017370605,7.109173520777363,16.961692237617132
0.2849,0.9027,0.1137,-0.2833,0.0978,0.0429,-3.3863,1.6275,-12.8887,7.179548724137891,17.376615673164448,7.212505055455616,16.973818074228014
0.2854,0.902,0.1149,-0.2838,0.0958,0.0416,-2.9488,1.4875,-12.7137,7.25922354460425,17.41999701522261,6.9067681626097475,16.98273000849042
0.2885,0.903,0.1192,-0.2838,0.0958,0.0416,-3.3163,1.1638,-11.3662,7.519095570477873,17.558112550315812,6.814000413644251,16.99487814174792
0.2901,0.9037,0.118,-0.2854,0.0978,0.0376,-3.08,1.435,-12.8013,7.439489879621488,17.645649011043265,5.832283624374568,17.007017073214755
0.288,0.9038,0.1147,-0.2822,0.0966,0.0425,-2.835,1.2512,-12.81,7.233237748951251,17.554194461368787,7.166178286806389,17.01910291742773
0.2847,0.9013,0.117,-0.2822,0.0966,0.0425,-2.6075,0.875,-12.1012,7.395894666880929,17.410313000193792,7.085570338697014,17.031254589835488
0.2777,0.9073,0.1148,-0.2861,0.097,0.0426,-3.6488,0.7175,-10.675,7.21178588901458,16.945580948559346,7.0225733990610175,17.043335479238106
0.2762,0.9092,0.1233,-0.2861,0.097,0.0426,-3.745,0.8225,-9.3625,7.721557166613917,16.77370106082454,6.802834290772752,17.05227147972226
0.2756,0.908,0.1149,-0.2859,0.0959,0.0382,-4.0513,0.735,-7.6213,7.2134012218757775,16.75987699066123,6.0268667911863005,17.06436864921606
0.2758,0.9046,0.1118,-0.2859,0.0959,0.0587,-4.0338,0.1488,-6.9475,7.0459563109957255,16.82752755401035,10.785298367085872,17.076442460318162
0.2767,0.9038,0.113,-0.2894,0.0955,0.0422,-3.815,-0.595,-5.7838,7.126352459607875,16.891565062373527,6.910371409255816,17.088603334516588
0.2749,0.9043,0.1161,-0.2893,0.0964,0.0431,-4.6463,-0.665,-3.465,7.315459618669051,16.789294668451614,7.0108253880752915,17.1006828082591
0.2677,0.914,0.1109,-0.2893,0.0964,0.0431,-5.0838,-1.33,-2.0825,6.919263355457967,16.26201504847061,7.118429836293056,17.10973170763646
0.269,0.9166,0.1155,-0.293,0.0964,0.0444,-5.425,-2.625,-0.3938,7.181206267478712,16.236317706843675,7.207725965331959,17.12181047354892
0.2759,0.9108,0.1145,-0.293,0.0964,0.0444,-6.2737,-3.8588,1.2425,7.165317990588688,16.69348833760004,7.258346745314693,17.1338853463961
0.2813,0.9126,0.112,-0.2941,0.095,0.0403,-6.7725,-5.2413,2.1525,6.997183242482593,16.990686379725556,6.431459785535168,17.145968713203896
0.2761,0.9151,0.1086,-0.2981,0.0962,0.0458,-7.5687,-6.2125,2.3363,6.768598492159755,16.69786549326346,7.578888890615003,17.15801031803866
0.2666,0.9167,0.1098,-0.2981,0.0962,0.0458,-8.2075,-7.9625,2.17,6.8300300674081775,16.13918392184337,7.503679876584683,17.166978524790153
0.2643,0.9285,0.1069,-0.3027,0.093,0.0466,-9.7737,-10.4125,1.7062,6.568399312329278,15.806995602788279,7.672279440603684,17.179067200323335
0.2568,0.9391,0.0999,-0.3027,0.093,0.0466,-10.7362,-13.4225,0.4112,6.0736076864071356,15.237159644960608,7.797831831341313,17.19126700517459
0.2553,0.9459,0.0931,-0.3064,0.0938,0.0515,-12.2587,-16.8525,-1.2337,5.622508696834289,15.042450661930204,8.842017848978383,17.20343424984348
0.2437,0.9537,0.0895,-0.3064,0.0938,0.0515,-15.47,-25.69,-4.3663,5.361973582258739,14.295373052995584,8.859474185543714,17.21567510883772
0.2219,0.9587,0.0863,-0.3066,0.0927,0.0542,-21.7437,-32.5763,-7.7788,5.14441150338162,13.012138755989632,9.364377525003693,17.22785120138225
0.1947,0.9604,0.0775,-0.3089,0.0938,0.057,-26.6087,-39.7775,-10.0275,4.6150948374604175,11.455747806708738,9.863854059285023,17.24010409348736
0.1821,0.9696,0.0761,-0.3089,0.0938,0.057,-31.2462,-48.3525,-11.305,4.488099062080922,10.619432451942359,9.830268654237226,17.25234884554688
0.1901,0.9712,0.0759,-0.31,0.0947,0.0643,-35.945,-56.6475,-13.2037,4.468684498115364,11.035739900389164,11.24764144694081,17.264600675906916
0.2057,0.9651,0.0754,-0.3112,0.093,0.0757,-41.23,-65.2138,-15.5137,4.467255712822107,11.98367438465344,13.511164373131566,17.27681039037889
