AcclX,AcclY,AcclZ,MagX,MagY,MagZ,GyroX,GyroY,GyroZ,Roll,Pitch,Yaw,Time Elapsed(s)
0.5004,-0.3159,0.6971,-0.2429,0.4562,0.4927,-0.9712,0.6825,-2.5287,0,0,0,0.15343333333339615
0.5004,-0.3159,0.6971,-0.2432,0.457,0.4965,-0.1925,1.5488,-3.2725,0,0,0,0.15343333333339615
0.5045,-0.3005,0.6888,-0.2432,0.457,0.4965,-0.1925,0.4025,-2.5463,0,0,0,0.1536833333332197
0.5011,-0.3238,0.6631,-0.2432,0.457,0.4965,-1.0762,0.4025,-2.5463,0,0,0,0.1536833333332197
0.5011,-0.3238,0.6631,-0.2444,0.4554,0.497,-0.595,1.2687,-2.905,0,0,0,0.1536833333332197
0.5084,-0.2932,0.697,-0.2444,0.4554,0.497,-0.595,1.2687,-2.905,0,0,0,0.15394999999989523
0.5126,-0.3344,0.6809,-0.2444,0.4554,0.497,-0.7,0.9187,-2.2225,0,0,0,0.15394999999989523
0.5126,-0.3344,0.6934,-0.2445,0.4552,0.4874,-0.4375,1.1988,-2.8,0,0,0,0.15394999999989523
0.5069,-0.2944,0.6934,-0.2445,0.4552,0.4874,-0.4375,1.1988,-2.8,0,0,0,0.15394999999989523
0.5048,-0.3187,0.6755,-0.2445,0.4552,0.4874,-0.35,0.9712,-2.5725,0,0,0,0.15394999999989523
0.4978,-0.3081,0.6795,-0.2445,0.4556,0.4902,-0.525,0.9975,-2.1,0,0,0,0.15394999999989523
0.4978,-0.3081,0.6795,-0.2445,0.4556,0.4902,-0.525,0.9975,-2.1,0,0,0,0.15419999999994616
0.5121,-0.306,0.6937,-0.2445,0.4556,0.4902,-0.63,0.7613,-2.4588,0,0,0,0.15419999999994616
0.4969,-0.3218,0.6847,-0.2437,0.4569,0.4963,-0.735,0.4812,-2.5638,0,0,0,0.15419999999994616
0.4969,-0.3218,0.6847,-0.2437,0.4569,0.4963,-0.735,0.4812,-2.5638,0,0,0,0.15446666666662168
0.5025,-0.2896,0.6905,-0.2437,0.4569,0.4963,-0.0613,0.7088,-2.8263,0,0,0,0.15446666666662168
0.5045,-0.3298,0.6753,-0.2442,0.4548,0.4917,-0.385,0.8662,-2.2487,0,0,0,0.1547333333332972
0.5045,-0.3298,0.6753,-0.2442,0.4548,0.4917,-0.385,0.8662,-2.2487,0,0,0,0.1547333333332972
0.5111,-0.2962,0.6944,-0.2437,0.4553,0.5002,0.3237,1.3212,-3.0538,0,0,0,0.15498333333334813
0.5051,-0.3268,0.6916,-0.2437,0.4553,0.5002,-1.2075,0.665,-2.4762,0,0,0,0.15498333333334813
0.5051,-0.297,0.6936,-0.2437,0.4553,0.5002,-1.2075,0.665,-2.4762,0,0,0,0.15498333333334813
0.5054,-0.297,0.6936,-0.2444,0.4562,0.4987,-0.28,1.5662,-2.9838,0,0,0,0.15525000000002365
0.4966,-0.3105,0.6744,-0.2444,0.4562,0.4987,-0.28,1.5662,-2.065,0,0,0,0.15525000000002365
0.506,-0.3133,0.6729,-0.2444,0.4562,0.4987,-1.1025,0.6037,-2.065,0,0,0,0.15550000000007458
0.506,-0.3133,0.6729,-0.2435,0.4554,0.4958,-0.1663,1.0675,-2.5025,0,0,0,0.15550000000007458
0.5015,-0.301,0.6871,-0.2435,0.4554,0.4958,-0.1663,1.0675,-2.5025,0,0,0,0.15576666666652272
0.5097,-0.3237,0.6744,-0.2435,0.4554,0.4958,-0.6388,0.91,-2.2662,0,0,0,0.15576666666652272
0.5097,-0.3237,0.6744,-0.2429,0.4572,0.4956,-0.42,1.19,-2.8437,0,0,0,0.15603333333319824
0.4953,-0.2913,0.6849,-0.2429,0.4572,0.4956,-0.42,1.19,-2.8437,0,0,0,0.15603333333319824
0.5101,-0.3221,0.6811,-0.2429,0.4572,0.4956,-0.8662,0.3762,-2.7562,0,0,0,0.15603333333319824
0.5101,-0.3221,0.695,-0.2433,0.4569,0.4968,-0.6037,0.6562,-2.5375,0,0,0,0.15628333333324917
0.5039,-0.3026,0.695,-0.2433,0.4569,0.4968,-0.6037,0.6562,-2.5375,0,0,0,0.15628333333324917
0.4987,-0.3135,0.6838,-0.2433,0.4569,0.4968,-0.7525,1.1463,-2.345,0,0,0,0.1565499999999247
0.5059,-0.3162,0.6745,-0.2448,0.4564,0.4841,-0.9538,1.1988,-2.1875,0,0,0,0.1565499999999247
0.5059,-0.3162,0.6745,-0.2448,0.4564,0.4841,-0.9538,1.1988,-2.1875,0,0,0,0.15679999999997563
0.5027,-0.302,0.6908,-0.2448,0.4564,0.4841,-0.4288,1.1988,-2.7037,0,0,0,0.15679999999997563
0.5125,-0.3264,0.6728,-0.2441,0.455,0.496,-0.6037,0.7,-2.4413,0,0,0,0.15706666666665114
0.5125,-0.3264,0.6728,-0.2441,0.455,0.496,-0.6037,0.7,-2.4413,0,0,0,0.15706666666665114
0.4981,-0.3006,0.6909,-0.2441,0.455,0.496,-0.245,1.0412,-2.8,0,0,0,0.15733333333332666
0.5082,-0.3173,0.6909,-0.2445,0.4554,0.4908,-0.945,1.0412,-2.4588,0,0,0,0.15733333333332666
0.5082,-0.3173,0.6909,-0.2445,0.4554,0.4908,-0.945,1.0412,-2.4588,0,0,0,0.15733333333332666
0.5038,-0.3051,0.6893,-0.2436,0.457,0.4891,-0.2187,1.19,-2.8963,0,0,0,0.1575833333333776
0.5077,-0.3108,0.6825,-0.2436,0.457,0.4891,-0.2187,1.19,-2.8963,0,0,0,0.1575833333333776
0.5061,-0.3148,0.6778,-0.2436,0.457,0.4891,-0.8138,1.05,-2.5025,0,0,0,0.15785000000005311
0.5061,-0.3148,0.6778,-0.2439,0.455,0.4974,-0.0175,1.5137,-2.4675,0,0,0,0.15785000000005311
0.4995,-0.3044,0.6837,-0.2439,0.455,0.4974,-0.0175,1.5137,-2.4675,0,0,0,0.15809999999987667
0.5079,-0.3201,0.6875,-0.2439,0.455,0.4974,-0.7262,0.7788,-1.96,0,0,0,0.15809999999987667
0.5079,-0.3201,0.6875,-0.2448,0.4553,0.4951,-0.2187,0.9887,-2.4675,0,0,0,0.1583666666665522
0.5015,-0.3008,0.6874,-0.2448,0.4553,0.4951,-0.2187,0.9887,-2.4675,0,0,0,0.1583666666665522
0.5025,-0.3179,0.6838,-0.2448,0.4553,0.4951,-0.4812,1.3388,-2.5463,0,0,0,0.1583666666665522
0.5025,-0.3179,0.6838,-0.2438,0.4553,0.4967,-0.665,1.1638,-2.2225,0,0,0,0.1586333333332277
0.5039,-0.3073,0.6866,-0.2438,0.4553,0.4967,-0.665,1.1638,-2.2225,0,0,0,0.1586333333332277
0.505,-0.3091,0.6831,-0.2438,0.4553,0.4967,-0.56,1.1988,-2.5287,0,0,0,0.15888333333327864
0.505,-0.3117,0.6837,-0.2438,0.4566,0.4886,-0.6825,1.3913,-2.4237,0,0,0,0.15888333333327864
0.5037,-0.3117,0.6837,-0.2438,0.4566,0.4886,-0.6825,1.3913,-2.4237,0,0,0,0.15914999999995416
0.507,-0.306,0.6851,-0.2438,0.4566,0.4886,-1.015,1.33,-2.6425,0,0,0,0.15914999999995416
0.5095,-0.3222,0.6867,-0.2429,0.4578,0.4888,-1.0325,0.9975,-2.1525,0,0,0,0.1594000000000051
0.5095,-0.3222,0.6867,-0.2429,0.4578,0.4888,-1.0325,0.9975,-2.1525,0,0,0,0.1594000000000051
0.5025,-0.304,0.6852,-0.2429,0.4578,0.4888,-0.3675,1.0675,-2.5638,0,0,0,0.1596666666666806
0.5119,-0.3201,0.6815,-0.2442,0.4568,0.497,-0.91,0.8925,-2.3625,0,0,0,0.1596666666666806
0.5119,-0.3201,0.6815,-0.2442,0.4568,0.497,-0.91,0.8925,-2.3625,0,0,0,0.1596666666666806
0.5046,-0.3056,0.689,-0.2442,0.4568,0.499,-0.7962,0.8313,-2.6862,0,0,0,0.15993333333335613
0.5037,-0.3089,0.6815,-0.244,0.4547,0.499,-0.7962,0.8313,-2.6862,0,0,0,0.15993333333335613
0.5037,-0.3089,0.6792,-0.244,0.4547,0.499,-0.6125,1.1988,-2.31,0,0,0,0.16018333333340706
0.5012,-0.3154,0.6792,-0.243,0.4558,0.4966,-0.5075,1.4175,-2.5988,0,0,0,0.16018333333340706
0.5034,-0.3038,0.6909,-0.243,0.4558,0.4966,-0.5075,1.4175,-2.5988,0,0,0,0.1604499999998552
0.5014,-0.3167,0.6854,-0.243,0.4558,0.4966,-0.0175,0.6913,-2.2925,0,0,0,0.1604499999998552
0.5014,-0.3167,0.6854,-0.2455,0.4558,0.4951,-0.1838,1.0237,-2.905,0,0,0,0.16069999999990614
0.5083,-0.3029,0.6916,-0.2455,0.4558,0.4951,-0.1838,1.0237,-2.905,0,0,0,0.16069999999990614
0.5094,-0.3207,0.6748,-0.2455,0.4558,0.4951,-0.3675,1.0063,-2.6513,0,0,0,0.16069999999990614
0.5094,-0.3207,0.6748,-0.2435,0.4559,0.4925,-0.385,1.1287,-2.24,0,0,0,0.16096666666658166
0.5039,-0.3016,0.6817,-0.2435,0.4559,0.4925,-0.385,1.1287,-2.24,0,0,0,0.16096666666658166
0.5061,-0.3117,0.6853,-0.2435,0.4559,0.4925,-0.6125,0.7175,-2.4237,0,0,0,0.16123333333325718
0.5061,-0.3117,0.6853,-0.2435,0.4546,0.495,-0.6475,1.015,-2.695,0,0,0,0.16123333333325718
0.5048,-0.314,0.6764,-0.2435,0.4546,0.495,-0.6475,1.015,-2.695,0,0,0,0.1614833333333081
0.4989,-0.3061,0.684,-0.2435,0.4546,0.495,-0.3237,1.1113,-2.6513,0,0,0,0.1614833333333081
0.5097,-0.3183,0.686,-0.2439,0.4561,0.496,-0.6388,1.0412,-2.59,0,0,0,0.16174999999998363
0.5097,-0.3183,0.686,-0.2439,0.4561,0.496,-0.6388,1.0412,-2.59,0,0,0,0.16174999999998363
0.5048,-0.2994,0.6878,-0.2439,0.4561,0.496,-0.245,0.9625,-2.8612,0,0,0,0.16174999999998363
0.5062,-0.315,0.6989,-0.2445,0.4565,0.4905,-0.84,0.8225,-2.625,0,0,0,0.16200000000003456
0.5062,-0.315,0.6989,-0.2445,0.4565,0.4905,-0.84,0.8225,-2.625,0,0,0,0.16200000000003456
0.5075,-0.3032,0.6842,-0.2445,0.4565,0.4905,-0.525,1.19,-2.835,0,0,0,0.16226666666671008
0.5035,-0.3122,0.6839,-0.2442,0.4572,0.4932,-0.525,1.19,-2.835,0,0,0,0.16226666666671008
0.5035,-0.3122,0.6839,-0.2442,0.4572,0.4932,-0.595,0.9363,-2.52,0,0,0,0.1625333333333856
0.504,-0.3143,0.6852,-0.2434,0.4558,0.4935,-0.7875,0.7175,-2.3275,0,0,0,0.1625333333333856
0.4998,-0.304,0.6885,-0.2434,0.4558,0.4935,-0.7875,0.7175,-2.3275,0,0,0,0.16278333333320916
0.4998,-0.3145,0.6852,-0.2434,0.4558,0.4935,-0.5863,1.3388,-2.3712,0,0,0,0.16278333333320916
0.5076,-0.3145,0.6852,-0.2434,0.4547,0.4986,-0.7788,0.9538,-2.7475,0,0,0,0.16304999999988468
0.5028,-0.303,0.6741,-0.2434,0.4547,0.4986,-0.7788,0.9538,-2.7475,0,0,0,0.16304999999988468
0.5085,-0.3157,0.6906,-0.2434,0.4547,0.4986,-0.63,1.33,-2.6425,0,0,0,0.16304999999988468
0.5085,-0.3157,0.6906,-0.2441,0.4553,0.4914,-0.9712,0.875,-2.8087,0,0,0,0.1632999999999356
0.5049,-0.3051,0.6855,-0.2441,0.4553,0.4914,-0.9712,0.875,-2.8087,0,0,0,0.1632999999999356
0.5021,-0.3143,0.6782,-0.2441,0.4553,0.4914,-0.7525,0.6475,-2.7037,0,0,0,0.16356666666661113
0.5021,-0.3143,0.6782,-0.2446,0.4554,0.4953,-0.8138,0.5863,-2.9838,0,0,0,0.16356666666661113
0.5089,-0.3119,0.6831,-0.2446,0.4554,0.4953,-0.8138,0.5863,-2.9838,0,0,0,0.16383333333328665
0.5067,-0.3092,0.6805,-0.2446,0.4554,0.4953,0.14,1.1375,-2.8963,0,0,0,0.16383333333328665
0.5067,-0.3248,0.6827,-0.244,0.4566,0.4997,-0.63,0.6913,-2.5025,0,0,0,0.16408333333333758
0.5075,-0.3163,0.6827,-0.244,0.4566,0.4997,-0.63,0.6913,-2.5025,0,0,0,0.16408333333333758
0.5016,-0.3052,0.6902,-0.244,0.4566,0.4997,-0.7088,1.12,-2.3712,0,0,0,0.16408333333333758
0.5091,-0.3173,0.6842,-0.243,0.4563,0.4947,-0.7088,0.9275,-2.45,0,0,0,0.1643500000000131
0.5091,-0.3173,0.6842,-0.243,0.4563,0.4947,-0.4462,0.9275,-2.45,10.183197478136899,1.968767604345935,1.2990340691042357,0.24963333333334958
0.505,-0.3048,0.6861,-0.243,0.4563,0.4947,0.2187,1.05,-2.6862,55.0653723777412,9.298731758831847,9.396263306461474,0.24963333333334958
0.5067,-0.313,0.6836,-0.2433,0.4565,0.5025,0.2187,1.05,-2.6862,80.81575095834513,14.959092278637717,16.716730622749598,0.24963333333334958
0.5067,-0.313,0.6836,-0.2433,0.4565,0.5025,-0.1838,1.05,-2.4762,89.75293205083334,16.491320771400357,23.33007292654653,0.24988333333340051
0.5048,-0.3137,0.6893,-0.2433,0.4565,0.5025,0.0437,1.225,-2.6862,98.89699060883544,20.435041687247377,36.91086502912197,0.24988333333340051
0.5,-0.3064,0.6898,-0.2437,0.4564,0.4944,0.0437,1.225,-2.6862,104.46584008227194,23.4366814411816,47.448176831681515,0.24988333333340051
0.5,-0.3064,0.6898,-0.2437,0.4564,0.4944,0.0437,0.6125,-2.6425,107.97451938285872,25.478998007278953,56.73419260864414,0.25015000000007603
0.5073,-0.317,0.6858,-0.2438,0.4551,0.4951,0.1488,1.4525,-2.9488,110.76992161246827,28.495411471492986,66.14991914807645,0.25015000000007603
0.5043,-0.3034,0.6895,-0.2438,0.4551,0.4951,0.1488,1.4525,-2.9488,111.98936191767372,30.400286514848354,72.55620214813034,0.25015000000007603
0.4999,-0.3163,0.6808,-0.2438,0.4551,0.4951,-0.3762,1.1725,-2.5113,112.40925310215627,30.756659584719955,74.77637549060907,0.2503999999998996
0.4999,-0.3163,0.6808,-0.2441,0.4554,0.4951,-0.315,0.945,-2.8263,112.87611627864703,31.640751388258455,74.79490716302831,0.2503999999998996
0.5077,-0.3101,0.6764,-0.2441,0.4554,0.4951,-0.315,0.945,-2.8263,113.20218342683059,32.452170300526895,74.81438507074009,0.2503999999998996
0.5095,-0.3106,0.6874,-0.2441,0.4554,0.4951,-0.3413,0.9013,-2.7475,113.38944233980625,32.87074931529122,75.22078329195,0.2503999999998996
0.5095,-0.3106,0.6874,-0.2437,0.4557,0.4956,-0.7613,0.875,-2.8963,113.55512593960083,33.26346672501455,75.84409417421118,0.2503999999998996
0.5034,-0.3143,0.6764,-0.2437,0.4557,0.4956,-0.7613,0.875,-2.8963,113.79974316747993,33.517069119126305,76.40692809694839,0.2503999999998996
0.5031,-0.3057,0.683,-0.2437,0.4557,0.4956,-0.5425,1.1113,-2.8175,113.80004440799452,33.636263652079734,77.64940417931302,0.2503999999998996
0.5031,-0.3057,0.683,-0.2433,0.4549,0.4998,-0.6562,0.9275,-2.7387,113.83170411048782,33.70832860696086,77.76653969343252,0.2503999999998996
0.5053,-0.3102,0.6886,-0.2433,0.4549,0.4998,-0.6562,0.9275,-2.7387,113.87414173120803,33.72813375721031,77.87964067319697,0.2503999999998996
0.5013,-0.3033,0.697,-0.2433,0.4549,0.4998,0.035,1.5137,-2.835,113.74300168898944,33.62824679156468,80.57424503248728,0.2506666666665751
0.5013,-0.3165,0.6734,-0.2455,0.455,0.4909,0.035,1.5137,-2.8963,114.26730036641615,33.74306885595696,81.87602052789362,0.2506666666665751
0.5039,-0.3165,0.6734,-0.2455,0.455,0.4909,-0.21,1.2425,-2.8963,114.49395786201367,33.865521205382954,82.41914164960451,0.2506666666665751
0.5106,-0.3077,0.6911,-0.2455,0.455,0.4909,-0.49,1.3125,-2.9313,114.46889779394967,33.91890014003112,83.05805508504494,0.2506666666665751
0.5025,-0.3115,0.6715,-0.244,0.4564,0.5026,-0.49,1.3125,-2.9313,114.49006418125376,34.0073246026575,83.60773909310936,0.2506666666665751
0.5025,-0.3115,0.6715,-0.244,0.4564,0.5026,-0.2187,1.05,-2.8525,114.58711845285099,34.05895691209581,83.75146841919808,0.2506666666665751
0.5018,-0.3116,0.6828,-0.244,0.4564,0.5026,0.2975,0.98,-2.625,114.56097072866038,34.00295821078728,83.7977469856689,0.2506666666665751
0.5072,-0.3095,0.6857,-0.2447,0.4561,0.4879,0.2975,0.98,-2.625,114.43841495723696,33.99997521190194,83.82327784699278,0.2506666666665751
0.5072,-0.3095,0.6857,-0.2447,0.4561,0.4879,-0.6037,1.0675,-2.2838,114.43013534607813,33.99877862698323,83.89979006231307,0.2506666666665751
0.5079,-0.3136,0.6827,-0.2447,0.4561,0.4879,-0.6737,1.0063,-2.3625,114.45798284339133,34.0003458230987,83.92718838837398,0.25093333333325063
0.5097,-0.3066,0.6848,-0.2431,0.4552,0.4899,-0.6737,1.0063,-2.3625,114.41893493379507,34.005146816400625,83.98826068212203,0.25093333333325063
0.5097,-0.3066,0.6848,-0.2431,0.4552,0.4899,-0.4812,1.1725,-2.4237,114.4013609066042,34.01139466242846,84.16852070551604,0.25093333333325063
0.5028,-0.3157,0.6765,-0.2443,0.4562,0.5024,-0.7788,0.8225,-2.8788,114.51862209970919,33.99469305576038,84.24509103556501,0.25093333333325063
0.5111,-0.3109,0.6857,-0.2443,0.4562,0.5024,-0.7788,0.8225,-2.8788,114.4940792059457,34.05257775261031,84.36132803252522,0.25093333333325063
0.5061,-0.3112,0.6798,-0.2443,0.4562,0.5024,-0.28,0.9887,-2.9137,114.51563252409473,34.067206673523906,84.39677755526662,0.25093333333325063
0.5061,-0.3112,0.6798,-0.2442,0.4558,0.4971,-0.455,1.1988,-2.5025,114.52228135612279,34.070055806266765,84.50389802805242,0.25093333333325063
0.5095,-0.3099,0.6903,-0.2442,0.4558,0.4971,-0.455,1.1988,-2.5025,114.49421829524186,34.05819639395084,84.61723035414539,0.25093333333325063
0.4989,-0.3011,0.681,-0.2442,0.4558,0.4971,-0.5688,1.3125,-3.0187,114.47835716839222,33.96736130189921,84.76168674118361,0.25093333333325063
0.4989,-0.3011,0.681,-0.2441,0.4562,0.4901,-0.5075,0.8487,-2.555,114.45662418674718,33.946793461364535,84.76529550504267,0.25093333333325063
0.5089,-0.3157,0.6809,-0.2441,0.4562,0.4901,-0.5075,0.8487,-2.555,114.47114298023126,33.97428748310286,84.73851794236838,0.25093333333325063
0.5,-0.3082,0.6828,-0.2441,0.4562,0.4901,-0.7525,0.7175,-2.7125,114.44039601542096,33.912216453350595,84.69822325113262,0.25093333333325063
0.5,-0.3082,0.6828,-0.243,0.456,0.495,-0.7525,0.7175,-2.7125,114.41496503999068,33.86533235511824,84.72639218731103,0.25118333333330156
0.5065,-0.3135,0.6805,-0.243,0.456,0.495,-0.6388,0.8838,-2.625,114.44282750370508,33.9024355888717,84.73132097634891,0.25118333333330156
0.4958,-0.3102,0.6783,-0.243,0.456,0.495,-0.0263,1.4438,-2.3975,114.4880710480139,33.89987728217367,84.70298476182896,0.25118333333330156
0.4958,-0.3065,0.6917,-0.2435,0.4566,0.4958,-0.0263,1.4438,-2.3975,114.28715775004062,33.89402254172218,84.72538744888246,0.25118333333330156
0.5065,-0.3065,0.6917,-0.2435,0.4566,0.4958,-0.1312,0.8662,-2.52,114.17375073469117,33.88324457977394,84.75168904519863,0.25118333333330156
0.5103,-0.3117,0.6751,-0.2435,0.4566,0.4958,-0.7,1.1375,-2.8,114.2562408542888,34.05156447493258,84.79337972901163,0.25118333333330156
0.4989,-0.3078,0.687,-0.2435,0.4557,0.4887,-0.7,1.1375,-2.8,114.23970198244531,33.90052670370157,84.74191905736095,0.25118333333330156
0.4989,-0.3078,0.687,-0.2435,0.4557,0.4887,-0.7875,1.295,-2.7562,114.21897612056601,33.8018458502092,84.67301858748729,0.25118333333330156
0.5026,-0.3112,0.6781,-0.2435,0.4557,0.4887,-0.63,0.9187,-2.73,114.25344631154006,33.84353543533924,84.66783410097396,0.25118333333330156
0.4982,-0.3122,0.6849,-0.2443,0.4554,0.4857,-0.63,0.9187,-2.73,114.2734860165103,33.75608299089522,84.65343763238572,0.25118333333330156
0.4982,-0.3122,0.6849,-0.2443,0.4554,0.4857,-0.2713,1.0588,-2.4062,114.32302899177519,33.75164672066236,84.59218000183681,0.25118333333330156
0.5068,-0.3126,0.677,-0.2443,0.4554,0.5062,-0.245,0.9625,-2.7125,114.42917139743818,33.86176013308422,84.60636883537686,0.25118333333330156
0.5055,-0.3062,0.6939,-0.2445,0.4562,0.498,-0.245,0.9625,-2.7125,114.28699138096154,33.81799378940576,84.6159538511946,0.2514499999999771
0.5055,-0.3062,0.6783,-0.2445,0.4562,0.498,-0.1225,1.19,-2.87,114.28951080307515,33.93760046390771,84.72138470110154,0.2514499999999771
0.5053,-0.3072,0.6756,-0.2428,0.4578,0.4895,-0.63,1.0938,-2.8437,114.30242196190669,34.03495799178011,84.72926379336445,0.2514499999999771
0.5009,-0.3138,0.6811,-0.2428,0.4578,0.4895,-0.63,1.0938,-2.8437,114.33701113547686,33.94293879152695,84.67996977611503,0.2514499999999771
0.5081,-0.3096,0.69,-0.2428,0.4578,0.4895,-0.5337,0.91,-2.8612,114.33535333628916,33.927552566824,84.68161712828628,0.2514499999999771
0.5081,-0.3096,0.69,-0.2432,0.4547,0.4939,-0.5337,0.91,-2.3975,114.33371156733351,33.927264585236394,84.69064229140344,0.2514499999999771
0.5009,-0.3131,0.6797,-0.2432,0.4547,0.4939,0.035,0.8313,-2.3975,114.48000181794474,33.92610378352334,84.68312425674767,0.2514499999999771
0.4999,-0.3052,0.678,-0.2432,0.4547,0.4939,-0.1225,0.6037,-2.765,114.40735205597551,33.92290174000242,84.74792369072516,0.2514499999999771
0.4999,-0.3052,0.678,-0.2433,0.4549,0.4929,-0.1225,0.6037,-2.765,114.3562249605887,33.92057539202057,84.78095197637487,0.2514499999999771
0.5013,-0.3142,0.6873,-0.2433,0.4549,0.4929,-0.4375,0.7437,-2.835,114.3764737860413,33.80872281537857,84.73536403612131,0.2514499999999771
0.5039,-0.3053,0.6905,-0.2433,0.4549,0.4929,-0.0787,1.3038,-2.5113,114.21015560413846,33.799073448001025,84.7959750777681,0.2514499999999771
0.5039,-0.3053,0.6905,-0.245,0.4542,0.4907,-0.0787,1.3038,-2.5113,114.09660954354247,33.79047885237203,84.77894407309346,0.2514499999999771
0.5041,-0.3088,0.6823,-0.245,0.4542,0.4907,-0.5337,1.1375,-2.695,114.09906824900827,33.82657514223159,84.75049250906018,0.251700000000028
0.502,-0.314,0.6835,-0.245,0.4542,0.4907,-0.7088,1.155,-2.38,114.18064674020661,33.825660854841594,84.67380933175932,0.251700000000028
0.502,-0.3086,0.6791,-0.2444,0.456,0.49,-0.7088,1.155,-2.38,114.2171927402365,33.826632950955215,84.65101343793782,0.251700000000028
0.5034,-0.3086,0.6791,-0.2444,0.456,0.49,-0.9275,1.295,-2.625,114.27852613096414,33.8624504426046,84.63382152134166,0.251700000000028
0.5049,-0.3101,0.6854,-0.2444,0.456,0.49,-1.1287,0.805,-2.94,114.30259930651995,33.864311186474964,84.62380904152201,0.251700000000028
0.5025,-0.3098,0.6858,-0.2436,0.4569,0.4982,-1.1287,0.805,-2.94,114.3054677336218,33.817640631872806,84.66348613129253,0.251700000000028
0.5025,-0.3098,0.6858,-0.2436,0.4569,0.4982,-0.77,0.7613,-2.695,114.30637298607832,33.79778899958546,84.70768620457947,0.251700000000028
0.5019,-0.312,0.6856,-0.2436,0.4569,0.4982,-0.525,0.6737,-2.3888,114.30932374677208,33.7977615779028,84.73513403550255,0.251700000000028
0.5038,-0.3111,0.6765,-0.2436,0.4562,0.4878,-0.525,0.6737,-2.3888,114.31633641511878,33.797825589805875,84.67195229753892,0.251700000000028
0.5038,-0.3111,0.6765,-0.2436,0.4562,0.4878,-0.455,0.9187,-2.1263,114.34720452315032,33.85693833598629,84.66637099306958,0.251700000000028
0.5014,-0.3103,0.6822,-0.2436,0.4562,0.491,-0.455,0.4288,-2.3537,114.3562505365419,33.85445643417016,84.62811351755846,0.251700000000028
0.5027,-0.3093,0.6822,-0.2446,0.4555,0.491,-0.8225,0.4288,-2.3537,114.36336883038553,33.85486298977883,84.60806901083389,0.251700000000028
0.5027,-0.3093,0.6859,-0.2446,0.4555,0.491,-0.4462,0.7788,-2.345,114.35531716220795,33.85038263825889,84.60148823669331,0.25196666666670353
0.4983,-0.3082,0.6859,-0.2444,0.4542,0.5008,-0.4462,0.7788,-2.345,114.34120645723125,33.837051659177725,84.65741978499277,0.25196666666670353
0.5019,-0.3116,0.6831,-0.2444,0.4542,0.5008,-0.735,0.9363,-2.2138,114.37000705082573,33.82584910912365,84.65948596635816,0.25196666666670353
0.5062,-0.3065,0.6924,-0.2444,0.4542,0.5008,-0.63,1.2425,-2.345,114.33075868946617,33.823231329393835,84.80623254944369,0.25196666666670353
0.5062,-0.3065,0.6924,-0.2441,0.4558,0.492,-0.63,1.2425,-2.345,114.29463622195514,33.82072285637578,84.81798559979494,0.25196666666670353
0.5096,-0.3106,0.6806,-0.2441,0.4558,0.492,-0.595,1.2513,-2.3975,114.30617908197254,33.82462248448998,84.81444111725735,0.25196666666670353
0.4996,-0.3095,0.6774,-0.2441,0.4558,0.492,-0.56,1.2687,-2.66,114.31023278210277,33.83103459540801,84.75228355110514,0.25196666666670353
0.4996,-0.3095,0.6774,-0.2435,0.4568,0.4971,-0.56,1.2687,-2.66,114.31422054065753,33.83607784288076,84.77581544350042,0.25196666666670353
0.5032,-0.308,0.6843,-0.2435,0.4568,0.4971,-0.7175,0.7088,-2.73,114.30207256444957,33.83812751563508,84.81999826731786,0.25196666666670353
0.5012,-0.3131,0.6846,-0.2435,0.4568,0.4971,-1.1287,0.6037,-2.4762,114.40351913859975,33.82336600462816,84.79581615155905,0.25196666666670353
0.5012,-0.3131,0.6846,-0.2422,0.456,0.4996,-1.1287,0.6037,-2.4762,114.46751375779222,33.809793761431365,84.83687548997179,0.25196666666670353
0.5082,-0.3104,0.6822,-0.2422,0.456,0.4996,-0.6475,0.8487,-2.1,114.46732074820547,33.88361711934669,84.87596657548723,0.25196666666670353
0.5059,-0.3128,0.6913,-0.2422,0.456,0.4996,-0.6737,0.7613,-2.5988,114.45332267543002,33.850450040856344,84.9101033709383,0.25223333333337905
0.5059,-0.3073,0.6836,-0.2442,0.4548,0.5014,-0.6737,0.7613,-2.5988,114.4247590803686,33.8797080361816,84.97188661282851,0.25223333333337905
0.5053,-0.3073,0.6836,-0.2442,0.4548,0.5014,-0.3063,0.9187,-2.3888,114.38271514972674,33.879732252452484,84.97954086765314,0.25223333333337905
0.5045,-0.3121,0.6828,-0.2442,0.4548,0.5014,-0.5688,0.6737,-2.4237,114.38720934832212,33.88045286047806,84.99615200005391,0.25223333333337905
0.5024,-0.3078,0.6995,-0.2442,0.4558,0.4963,-0.5688,0.6737,-2.4237,114.37148536049266,33.86146251526405,84.9701568044661,0.25223333333337905
0.5024,-0.3078,0.6995,-0.2442,0.4558,0.4963,-0.3237,0.455,-2.7387,114.25966899071497,33.72125681546384,84.93850514168395,0.25223333333337905
0.4993,-0.3102,0.6886,-0.2442,0.4558,0.4963,-0.3237,0.455,-2.4588,114.25803059646185,33.70471179309368,84.8621371274392,0.25223333333337905
0.5042,-0.3093,0.6871,-0.2453,0.4561,0.4938,-0.0962,0.5337,-2.4588,114.2509212833798,33.710175166508364,84.80998174793326,0.25223333333337905
0.5042,-0.3093,0.6871,-0.2453,0.4561,0.4938,-0.2625,0.8575,-2.6688,114.24743488148154,33.727204188690834,84.79993863188213,0.25223333333337905
0.4971,-0.3077,0.6775,-0.2453,0.4561,0.4863,-0.2625,0.8575,-2.6688,114.28662546068146,33.73112123882321,84.75139421839435,0.25223333333337905
0.5015,-0.3109,0.6831,-0.2429,0.457,0.4863,-0.4112,0.5337,-2.1613,114.30825103709344,33.73478076433702,84.6307793373575,0.25223333333337905
0.5015,-0.3109,0.6865,-0.2429,0.457,0.4863,-0.385,0.7175,-2.4062,114.31596908910421,33.73317409369901,84.57545752790409,0.25223333333337905
0.5016,-0.3088,0.6865,-0.2427,0.4559,0.4959,-0.385,0.7175,-2.4062,114.3027143143674,33.73221163302577,84.64144388827107,0.2524833333332026
0.5007,-0.3066,0.6874,-0.2427,0.4559,0.4959,-0.49,1.0063,-2.7475,114.28929176517391,33.70597450469353,84.66282911252722,0.2524833333332026
0.5022,-0.3097,0.6847,-0.2427,0.4559,0.4959,-0.2275,1.12,-2.905,114.30097402745024,33.72230402334171,84.70093895659402,0.2524833333332026
0.5022,-0.3097,0.6847,-0.2445,0.4542,0.4945,-0.2275,1.12,-2.905,114.30985136928966,33.733072454782885,84.70558432122591,0.2524833333332026
0.5035,-0.3079,0.6816,-0.2445,0.4542,0.4945,-0.9363,0.8925,-2.6513,114.30994397269241,33.77790159587437,84.7128771364504,0.2524833333332026
0.5063,-0.3134,0.6846,-0.2445,0.4542,0.4945,-0.4462,0.875,-2.555,114.33544451841729,33.79797811199149,84.71154692422171,0.2524833333332026
0.5063,-0.3134,0.6846,-0.2436,0.4556,0.5014,-0.4462,0.875,-2.555,114.35868463722632,33.81519011972206,84.73535304072468,0.2524833333332026
0.5015,-0.311,0.6889,-0.2436,0.4556,0.5014,-0.3325,0.525,-2.905,114.34785596545575,33.72966290432549,84.8244072370947,0.2524833333332026
0.5109,-0.3113,0.6842,-0.2436,0.4556,0.5014,-0.385,0.9975,-2.6163,114.36384867117664,33.817408775160075,84.84979218366136,0.2524833333332026
0.5109,-0.3113,0.6842,-0.2438,0.4558,0.5015,-0.385,0.9975,-2.6163,114.37765376630338,33.88887907252683,84.8731945252601,0.2524833333332026
0.5059,-0.3126,0.6834,-0.2438,0.4558,0.5015,-0.2713,0.7262,-2.4588,114.42099608998832,33.89275034820475,84.91320528979976,0.2524833333332026
0.5064,-0.3135,0.6854,-0.2438,0.4558,0.5015,-0.2713,1.2513,-2.4413,114.45484640752859,33.89295162196255,84.94994488222514,0.2524833333332026
0.5042,-0.3104,0.6773,-0.2434,0.4568,0.4933,-0.1225,1.2513,-2.4413,114.50422556301588,33.9027153542381,84.9058458740436,0.2527499999998781
0.5042,-0.3104,0.6773,-0.2434,0.4568,0.4933,-0.1838,1.2862,-2.52,114.53525429812045,33.92422590295377,84.86929503453852,0.2527499999998781
0.4997,-0.3084,0.6834,-0.2434,0.4568,0.4933,-0.1838,1.2862,-2.52,114.46994836821668,33.89614934580925,84.82765868566835,0.2527499999998781
0.5013,-0.3124,0.6809,-0.2436,0.4567,0.494,-0.4988,1.015,-2.3712,114.47746984893192,33.894318732536924,84.81266526260006,0.2527499999998781
0.5013,-0.3124,0.6809,-0.2436,0.4567,0.494,-0.6212,0.9538,-2.7475,114.48961647134192,33.86649085944086,84.81045343542166,0.2527499999998781
0.5033,-0.3071,0.692,-0.2436,0.4567,0.494,-0.6212,0.9538,-2.7475,114.44932289002227,33.80019946433092,84.81110373665221,0.2527499999998781
0.5029,-0.3118,0.6832,-0.2449,0.4558,0.4838,-0.175,1.1025,-2.6513,114.47133894976031,33.80188992414734,84.70975754803375,0.2527499999998781
0.5029,-0.3118,0.6832,-0.2449,0.4558,0.4838,-0.0613,0.8138,-2.8437,114.49077656822865,33.80390241465539,84.6369843389267,0.2527499999998781
0.5105,-0.3118,0.6892,-0.2449,0.4557,0.4963,-0.0613,0.8138,-2.8437,114.44250949979589,33.86960537340607,84.66905161322688,0.2527499999998781
0.5043,-0.3116,0.6828,-0.2449,0.4557,0.4963,-0.6562,1.1638,-2.7475,114.45136118984425,33.8770499287004,84.68447898081685,0.2527499999998781
0.5043,-0.3116,0.692,-0.2449,0.4557,0.4963,-1.1375,1.3825,-2.7825,114.37315946225193,33.79986826381523,84.69989312613215,0.2527499999998781
0.5067,-0.3111,0.692,-0.2435,0.4546,0.4957,-1.1375,1.3825,-2.7825,114.31127013359126,33.781988818239306,84.76713647099855,0.2527499999998781
0.505,-0.3091,0.6808,-0.2435,0.4546,0.4957,-0.5075,1.1988,-2.4762,114.31501769667844,33.80244031949323,84.81077184942566,0.2527499999998781
0.504,-0.3095,0.6905,-0.2435,0.4546,0.4957,-0.5863,1.5575,-2.4675,114.30795836813896,33.79245438342289,84.84947469477277,0.25299999999992906
0.504,-0.3095,0.6905,-0.2438,0.4558,0.4988,-0.5863,1.5575,-2.4675,114.3011890117498,33.783198933720335,84.91731303952335,0.25299999999992906
0.5012,-0.3083,0.6892,-0.2438,0.4558,0.4988,-0.1225,1.9075,-2.5463,114.24170821420483,33.755156663489004,84.95727179337946,0.25299999999992906
0.508,-0.3118,0.6798,-0.2438,0.4558,0.4988,-0.1138,1.61,-2.3625,114.36117873721838,33.76610278649995,85.00144958454722,0.25299999999992906
0.508,-0.3118,0.6798,-0.2435,0.4558,0.4925,-0.1138,1.61,-2.3625,114.4447441924677,33.77677074255671,84.91063852400914,0.25299999999992906
0.4989,-0.3111,0.6755,-0.2435,0.4558,0.4925,-0.5425,1.0412,-2.5113,114.44501730323191,33.78534841249735,84.87785239221336,0.25299999999992906
0.5045,-0.3087,0.6899,-0.2435,0.4558,0.4925,-0.5425,1.0412,-2.2925,114.44469121245899,33.77986024459514,84.86980185173799,0.25299999999992906
0.5045,-0.3087,0.6899,-0.2443,0.4562,0.497,-0.6388,1.2775,-2.2925,114.41524895941924,33.774853134769444,84.88891589200199,0.25299999999992906
0.505,-0.3101,0.6885,-0.2443,0.4562,0.497,-0.315,1.085,-2.4237,114.38391671314601,33.77481100402628,84.89068342386174,0.25299999999992906
0.4996,-0.3099,0.6769,-0.2443,0.4562,0.497,-0.315,1.085,-2.4237,114.42398553444292,33.77786879715164,84.8761475531065,0.25299999999992906
0.5117,-0.3124,0.687,-0.2438,0.4538,0.5002,-0.4638,1.085,-2.45,114.42610803178172,33.798720443627424,84.92091653142161,0.25299999999992906
0.5117,-0.3124,0.687,-0.2438,0.4538,0.5002,-0.8138,1.1375,-2.4062,114.43177786551202,33.80459989152287,84.97226324986082,0.25299999999992906
0.5,-0.3095,0.6792,-0.2438,0.4538,0.5002,-0.8138,1.1375,-2.4062,114.44586085443235,33.804826126494476,84.98155180606312,0.2532666666666046
0.504,-0.3123,0.69,-0.2434,0.4574,0.4997,-0.63,0.7262,-2.6163,114.43837911418413,33.77456863367677,84.97776456727665,0.2532666666666046
0.504,-0.3123,0.69,-0.2434,0.4574,0.4997,-0.4025,0.9187,-2.9137,114.42769737221855,33.7288198573136,84.97734902593268,0.2532666666666046
0.5085,-0.3091,0.6818,-0.2434,0.4574,0.4997,-0.4025,0.9187,-2.9137,114.42274087005786,33.886647419870684,84.98388874045108,0.2532666666666046
0.5057,-0.3102,0.6906,-0.2433,0.4563,0.4963,-0.6212,1.1025,-2.555,114.40583857965974,33.86597951642434,84.97991502351049,0.2532666666666046
0.5057,-0.3102,0.6906,-0.2433,0.4563,0.4963,-0.49,1.1812,-2.3625,114.39480376308909,33.86282361761768,84.97512119765558,0.2532666666666046
0.5049,-0.3106,0.6851,-0.2433,0.4567,0.4935,-0.49,1.1812,-2.3625,114.39445090905646,33.86300717891352,84.93760460116853,0.2532666666666046
0.495,-0.3084,0.6828,-0.2434,0.4567,0.4935,-0.4112,1.3563,-2.1613,114.38426431572827,33.786954214527206,84.83246263445072,0.2532666666666046
0.495,-0.3119,0.6768,-0.2434,0.4567,0.4935,-0.3325,0.9887,-2.4675,114.44665295575476,33.772820935775876,84.81518369392585,0.2532666666666046
0.5078,-0.3119,0.6768,-0.2451,0.4542,0.4978,-0.3325,0.9887,-2.4675,114.49817276974302,33.80927825326261,84.82047890116222,0.2532666666666046
0.5023,-0.3095,0.6776,-0.2451,0.4542,0.4978,-0.6562,0.98,-2.4413,114.50332067976579,33.81838889214185,84.82252248581362,0.2532666666666046
0.5075,-0.3123,0.6867,-0.2451,0.4542,0.4978,-0.6825,0.4112,-2.5463,114.49745528334617,33.833627035757225,84.84646575884811,0.2532666666666046
0.5075,-0.3123,0.6867,-0.2449,0.4548,0.5,-0.6825,0.4112,-2.5463,114.49230584432962,33.84678918014849,84.90263590662563,0.2535333333332801
0.5043,-0.3094,0.6805,-0.2449,0.4548,0.5,-0.1488,0.3938,-2.6513,114.4802389218189,33.87955713477664,84.95613374512237,0.2535333333332801
0.5043,-0.311,0.693,-0.2449,0.4548,0.5,-0.1488,0.3938,-2.6775,114.39224240399952,33.81258168598241,84.95549068913009,0.2535333333332801
0.5043,-0.311,0.693,-0.2433,0.4561,0.4937,-0.5075,0.6913,-2.6775,114.38450204152849,33.76061943155005,84.91340204060364,0.2535333333332801
0.5072,-0.3089,0.6928,-0.2433,0.4561,0.4937,-0.1925,1.0325,-2.5463,114.29260044563561,33.761706219722846,84.91428236563563,0.2535333333332801
0.4986,-0.3096,0.6894,-0.2433,0.4561,0.4937,-0.1925,1.0325,-2.5463,114.26443636459346,33.71451089561071,84.89215370647052,0.2535333333332801
0.4986,-0.3096,0.6805,-0.2431,0.4576,0.4885,0.14,0.98,-2.66,114.34530097548634,33.71142319659779,84.87460736165941,0.2535333333332801
0.5068,-0.312,0.6805,-0.2431,0.4576,0.4885,-0.28,1.4963,-2.3975,114.40483725832746,33.71483717568803,84.75327338728171,0.2535333333332801
0.5049,-0.3099,0.68,-0.2431,0.4576,0.4885,-0.28,1.4963,-2.3975,114.42477049997393,33.7177550603805,84.68873235569717,0.2535333333332801
0.5075,-0.3123,0.6801,-0.2439,0.4557,0.5008,-0.91,0.9538,-2.1875,114.48905897199882,33.78887202733964,84.69334667617815,0.2535333333332801
0.5075,-0.3123,0.6801,-0.2439,0.4557,0.5008,-0.0613,0.9363,-2.4938,114.54611676754661,33.82254514930051,84.69624262906666,0.2535333333332801
0.4999,-0.3081,0.6762,-0.2439,0.4557,0.5008,-0.0613,0.9363,-2.4938,114.52969720114143,33.83279639536999,84.6988962174534,0.2535333333332801
0.5007,-0.3081,0.6906,-0.2454,0.455,0.5046,-0.105,1.1463,-2.4762,114.381425910236,33.806728690182645,84.777428364988,0.25378333333333103
0.5007,-0.3081,0.6906,-0.2454,0.455,0.5046,-0.28,1.05,-2.2313,114.31091090600381,33.76629923469623,84.81475594817896,0.25378333333333103
0.5033,-0.3073,0.6802,-0.2454,0.455,0.5046,-0.28,1.05,-2.2313,114.31123142058061,33.79698590473953,84.86220864859581,0.25378333333333103
0.5073,-0.3093,0.6875,-0.2443,0.4554,0.4939,-0.6562,1.5575,-2.3012,114.30224644912538,33.80828784677141,84.86323294881711,0.25378333333333103
0.5073,-0.3093,0.6875,-0.2443,0.4554,0.4939,-0.42,1.295,-2.695,114.29348783762968,33.838627149744696,84.86366691481456,0.25378333333333103
0.5083,-0.3127,0.6807,-0.2433,0.4562,0.4941,-0.42,1.295,-2.695,114.33520631977174,33.91380964177358,84.8553981103344,0.25378333333333103
0.5065,-0.311,0.6974,-0.2433,0.4562,0.4941,-0.0263,1.5925,-2.625,114.2325675646562,33.845479986580784,84.84142113719612,0.25378333333333103
0.5065,-0.3116,0.6902,-0.2433,0.4562,0.4941,-0.0263,1.0063,-2.4325,114.25467805230565,33.842568640827146,84.83956709694172,0.25378333333333103
0.5095,-0.3116,0.6902,-0.2434,0.4563,0.4926,-0.4025,1.0063,-2.4325,114.25996014852853,33.8463664014594,84.83809250638943,0.25378333333333103
0.4997,-0.3111,0.6777,-0.2434,0.4563,0.4926,-0.595,1.0063,-2.7912,114.2794493395213,33.84068404649759,84.82214474359245,0.25378333333333103
0.5094,-0.3093,0.6902,-0.2434,0.4563,0.4926,-0.595,1.0063,-2.7912,114.27254771939819,33.875136310962304,84.8275200612847,0.25378333333333103
0.5094,-0.3093,0.6902,-0.2442,0.4557,0.4946,-0.5512,1.2775,-2.4237,114.2715196793543,33.87803993624819,84.86074731972698,0.25378333333333103
0.5073,-0.3098,0.6916,-0.2442,0.4557,0.4946,-0.7962,1.1113,-2.3537,114.24293628848417,33.87538491964977,84.86241512979684,0.25405000000000655
0.5002,-0.311,0.6892,-0.2442,0.4557,0.4946,-0.7962,1.1113,-2.3537,114.2518608951338,33.86226392847504,84.82658689529462,0.25405000000000655
0.5002,-0.311,0.6892,-0.2449,0.4552,0.4961,-0.6475,1.1725,-2.4325,114.25518842825574,33.846433418744674,84.79196583708101,0.25405000000000655
0.5023,-0.3132,0.6802,-0.2449,0.4552,0.4961,-0.28,0.805,-2.2575,114.35291396483977,33.847129284085696,84.77181691996495,0.25405000000000655
0.5118,-0.3082,0.6875,-0.2449,0.4552,0.4961,-0.28,0.805,-2.2575,114.309821383603,33.88666816538695,84.81353229992358,0.25405000000000655
0.5118,-0.3082,0.6795,-0.2448,0.4564,0.4918,-0.28,1.1375,-2.73,114.32811739204921,34.02949558175029,84.82852647884224,0.25405000000000655
0.5046,-0.3109,0.6795,-0.2448,0.4564,0.4918,-0.6212,0.9887,-2.4938,114.3467253639997,34.02957180858019,84.81736631434794,0.25405000000000655
0.5041,-0.3054,0.6843,-0.2448,0.4564,0.4918,-0.6212,0.9887,-2.4938,114.3253943442487,34.02000859206347,84.81622867645018,0.25405000000000655
0.509,-0.3122,0.6831,-0.2442,0.4562,0.4862,-0.7088,0.4025,-2.2138,114.35896603524515,34.03574185348681,84.67162089337728,0.25405000000000655
0.509,-0.3122,0.6831,-0.2442,0.4562,0.4862,-0.3938,0.8225,-2.415,114.38539938525301,34.038059393402065,84.6428366734993,0.25405000000000655
0.5083,-0.3148,0.6899,-0.2442,0.4562,0.4862,-0.3938,0.8225,-2.415,114.40384864828552,34.03279501798157,84.60161231628537,0.25405000000000655
0.4987,-0.307,0.6856,-0.2435,0.456,0.4962,-0.6212,0.9187,-2.87,114.38352078769297,33.88537368679405,84.60823352284588,0.25405000000000655
0.4987,-0.307,0.6856,-0.2435,0.456,0.4962,-0.3675,1.085,-2.8175,114.34439173958793,33.79345504155934,84.64199281543868,0.2543000000000575
0.5011,-0.3105,0.6789,-0.2435,0.456,0.4962,-0.3675,1.085,-2.8175,114.37924903155945,33.816686823680776,84.66312566104284,0.2543000000000575
0.5073,-0.3095,0.6847,-0.2442,0.4551,0.491,-0.0175,0.7,-2.45,114.36022402717848,33.82873005121745,84.67575796420128,0.2543000000000575
0.5073,-0.3095,0.6847,-0.2442,0.4551,0.491,-0.0175,0.7,-2.6513,114.34775649558468,33.86952349296549,84.68592009681296,0.2543000000000575
0.5045,-0.3102,0.6877,-0.245,0.4547,0.4978,-0.2362,0.7437,-2.6513,114.33151330245445,33.849134193727394,84.72023023173479,0.2543000000000575
0.5034,-0.3091,0.69,-0.245,0.4547,0.4978,-0.2713,1.05,-2.4675,114.28861515983846,33.835013832034534,84.73775093113193,0.2543000000000575
0.4878,-0.3078,0.6742,-0.245,0.4547,0.4978,-0.2713,1.05,-2.4675,114.34210616527106,33.79967852851774,84.7167834429992,0.2543000000000575
0.4997,-0.3078,0.6742,-0.2433,0.4567,0.4984,-0.5688,1.0588,-2.4762,114.34696264886999,33.81494274913223,84.7475964863053,0.2543000000000575
0.5059,-0.3122,0.6882,-0.2433,0.4567,0.4984,-1.2775,0.9538,-2.4237,114.36995858021076,33.814436526732926,84.7500373923089,0.2543000000000575
0.5081,-0.3124,0.6862,-0.2433,0.4567,0.4984,-1.2775,0.9538,-2.4237,114.41565828213993,33.81992441802939,84.75309248232959,0.2543000000000575
0.5081,-0.3124,0.6862,-0.2438,0.4569,0.4916,-0.8662,1.1287,-2.2138,114.43084871837297,33.843168574075335,84.73811311321346,0.2543000000000575
0.5027,-0.3109,0.6731,-0.2438,0.4569,0.4916,-0.7875,1.33,-2.4237,114.50166877652826,33.85316389598258,84.69549656475735,0.2543000000000575
0.5,-0.3094,0.6822,-0.2438,0.4569,0.4916,-0.7875,1.33,-2.4237,114.48090995696742,33.8487277128587,84.65691070618551,0.254566666666733
0.5,-0.3094,0.6822,-0.2446,0.4556,0.4907,-0.2975,1.1113,-2.5113,114.4641174781568,33.83492219252643,84.62970314662843,0.254566666666733
0.5077,-0.312,0.6879,-0.2446,0.4556,0.4907,-0.385,0.8662,-2.8,114.45491912582452,33.8558309994207,84.62552706039966,0.254566666666733
0.5031,-0.3101,0.6808,-0.2446,0.4556,0.4907,-0.385,0.8662,-2.8,114.4595752716529,33.87484120899276,84.61885217279612,0.254566666666733
0.5031,-0.3101,0.6808,-0.2436,0.4557,0.4977,-0.9975,0.8138,-2.7475,114.46875037762756,33.88704527217811,84.65759289818304,0.254566666666733
0.5045,-0.3125,0.6808,-0.2436,0.4557,0.4977,-0.805,0.8662,-2.5638,114.50757276462392,33.897835478142994,84.67437415972918,0.254566666666733
0.5106,-0.3024,0.6895,-0.2443,0.4576,0.4909,-0.49,0.7088,-2.73,114.46563541311755,33.96056716614542,84.7518625679225,0.254566666666733
0.5033,-0.3024,0.6895,-0.244,0.4558,0.4926,-0.35,0.6475,-2.73,114.3384813064229,33.91004375148613,84.80733980318975,0.2550833333332321
0.5025,-0.3138,0.6914,-0.244,0.4558,0.4926,-0.8662,0.7613,-2.24,114.35629231123274,33.856623934826224,84.75566327474088,0.2550833333332321
0.5154,-0.3156,0.6751,-0.244,0.4558,0.4926,-0.8662,0.7613,-2.24,114.5268793433064,33.96155235723365,84.76129631873003,0.2553499999999076
0.5154,-0.3156,0.6751,-0.243,0.455,0.4958,-0.4812,1.1113,-2.3625,114.55786089427045,33.979499388325735,84.80156697244638,0.2553499999999076
0.5064,-0.3177,0.6769,-0.243,0.455,0.4958,-0.5075,1.4875,-2.7037,114.57816747583404,34.010093109071526,84.76006021552953,0.2553499999999076
0.5042,-0.308,0.6787,-0.243,0.455,0.4958,-0.5075,1.4875,-2.7037,114.57229345429893,34.02635956150369,84.8616174134835,0.2555999999999585
0.5042,-0.308,0.6787,-0.245,0.4539,0.4953,-0.0962,1.4088,-2.835,114.5218175940223,34.04229127825767,84.86939411440143,0.2555999999999585
0.5029,-0.3082,0.6936,-0.245,0.4539,0.4953,-0.0962,1.4088,-2.835,114.34754084540128,33.88357420436579,84.84790321420878,0.2555999999999585
0.5075,-0.3069,0.6946,-0.245,0.4539,0.4953,-0.8575,0.8925,-2.765,114.22567619456271,33.84845706145825,84.8549768618672,0.25586666666663405
0.5075,-0.3069,0.6783,-0.2442,0.4557,0.4954,-0.805,0.9275,-2.6513,114.25033008096979,33.938442095409535,84.85836692657958,0.25586666666663405
0.4962,-0.3111,0.6783,-0.2442,0.4557,0.4954,-0.805,0.9275,-2.6513,114.33078232150206,33.87244991196274,84.8536572831296,0.25586666666663405
0.5023,-0.3116,0.6897,-0.2442,0.4557,0.4954,-0.4638,1.1463,-2.59,114.32947074065696,33.8220878365308,84.82586673229669,0.25586666666663405
0.5028,-0.3102,0.6789,-0.2429,0.4578,0.4972,-0.6125,1.365,-2.6075,114.34412534738726,33.847780312115795,84.8616409083739,0.25586666666663405
0.5028,-0.3102,0.6789,-0.2429,0.4578,0.4972,-0.6125,1.365,-2.6075,114.35783359175909,33.868858291142395,84.88679990145454,0.25586666666663405
0.5115,-0.3176,0.6904,-0.2429,0.4578,0.4972,-0.6037,1.05,-2.4762,114.37747368772621,33.874862602318615,84.88403362825848,0.25586666666663405
0.5036,-0.3101,0.6757,-0.2433,0.4564,0.4911,-0.2713,1.12,-2.3888,114.43617958656299,33.87491609765879,84.85087947391372,0.25586666666663405
0.5036,-0.3101,0.6757,-0.2433,0.4564,0.4911,-0.2713,1.12,-2.3888,114.48232607305118,33.87496958096522,84.82270929950592,0.25586666666663405
0.5045,-0.3076,0.6925,-0.2433,0.4564,0.4911,-0.14,0.805,-2.3712,114.32935339127933,33.871219874227926,84.81590469978181,0.25613333333330957
0.505,-0.3058,0.6883,-0.2434,0.455,0.4897,-0.4025,1.0325,-2.7037,114.28307368390614,33.86414627760481,84.81548905753618,0.25613333333330957
0.505,-0.3058,0.6883,-0.2434,0.455,0.4897,-0.4025,1.0325,-2.7037,114.24251174910961,33.85876762795317,84.81510753276196,0.25613333333330957
0.5065,-0.3185,0.6812,-0.2439,0.4545,0.501,-0.3413,1.0325,-2.3625,114.37978104111883,33.86140113661761,84.81750531798365,0.25613333333330957
0.5032,-0.3093,0.6827,-0.2439,0.4545,0.501,-0.4462,1.3563,-2.2575,114.37918845280173,33.86318140090674,84.91474097898079,0.25613333333330957
0.5032,-0.3154,0.6703,-0.2439,0.4545,0.501,-0.4462,1.3563,-2.2575,114.45182773343497,33.90071326719015,84.90973466427108,0.25613333333330957
0.5047,-0.3154,0.6703,-0.2443,0.4558,0.4956,-0.4812,0.8313,-2.5025,114.49560251246145,33.93810958922058,84.88097063104591,0.25613333333330957
0.5036,-0.3087,0.6794,-0.2443,0.4558,0.4956,-0.4812,0.8313,-2.625,114.49209102285623,33.9524874220378,84.88063475178566,0.25613333333330957
0.5039,-0.3102,0.6733,-0.2443,0.4558,0.4956,-0.4375,0.7262,-2.625,114.51548658176404,34.00081391023689,84.87161600594871,0.2563833333333605
0.5039,-0.3102,0.6733,-0.2435,0.4558,0.4961,-0.5163,0.9187,-2.1788,114.52132545454317,34.03625776622895,84.8726628328437,0.2563833333333605
0.5015,-0.3093,0.6892,-0.2435,0.4558,0.4961,-0.5163,0.9187,-2.1788,114.51202507477346,33.95694645515136,84.8721966471205,0.2563833333333605
0.4993,-0.3094,0.6821,-0.2435,0.4558,0.4961,-0.42,0.9712,-1.9338,114.4996046414184,33.8730560867156,84.87017490003252,0.2563833333333605
0.4993,-0.3094,0.6821,-0.2431,0.4558,0.4961,-0.5863,0.7,-2.2138,114.49547236561315,33.84561254652875,84.8620828533831,0.2563833333333605
0.5028,-0.3102,0.678,-0.2431,0.4558,0.4961,-0.5863,0.7,-2.2138,114.499155712589,33.86772919343967,84.87061247552641,0.2563833333333605
0.504,-0.3109,0.6842,-0.2431,0.4558,0.4961,-0.6913,0.49,-2.5812,114.4911521710376,33.86442556935417,84.879506434012,0.2563833333333605
0.504,-0.3109,0.6755,-0.2445,0.4543,0.4972,-0.6212,0.9625,-2.66,114.50724977394596,33.92076759579288,84.87959589149813,0.2563833333333605
0.508,-0.3142,0.6755,-0.2445,0.4543,0.4972,-0.6212,0.9625,-2.66,114.53881547298447,33.999450356234725,84.87912662026773,0.2563833333333605
0.5041,-0.3127,0.6841,-0.2445,0.4543,0.4972,-0.7788,0.9538,-2.6075,114.54380258342226,33.96891359091096,84.87820142528196,0.2563833333333605
0.5052,-0.3096,0.6725,-0.2442,0.455,0.4946,-0.1312,0.945,-2.5988,114.59523979022265,34.02800304846336,84.87817690336733,0.2563833333333605
0.5052,-0.3096,0.6725,-0.2442,0.455,0.4946,-0.1312,0.945,-2.5988,114.63166159719387,34.076828231840324,84.8781524285423,0.2563833333333605
0.4989,-0.3101,0.6827,-0.2442,0.455,0.4946,-0.5512,1.2513,-2.52,114.6301041337815,34.025846140556844,84.8213081188398,0.256650000000036
0.4972,-0.3087,0.6825,-0.2436,0.4559,0.4946,-0.6913,0.7525,-2.52,114.59243164512024,33.973425837106895,84.79892254036632,0.256650000000036
0.4972,-0.3087,0.6825,-0.2436,0.4559,0.4946,-0.6913,0.7525,-2.52,114.55961119981163,33.92709461457783,84.78012023083423,0.256650000000036
0.5045,-0.3063,0.6933,-0.2436,0.4559,0.4946,-0.1663,0.9187,-2.5025,114.36139351275541,33.898577583855186,84.78486982727182,0.256650000000036
0.5044,-0.3099,0.688,-0.2434,0.4566,0.5005,-0.1663,0.8225,-2.485,114.33048037878008,33.88647907611475,84.82222162562994,0.256650000000036
0.5044,-0.3099,0.688,-0.2434,0.4566,0.5005,-0.595,0.8225,-2.485,114.32646340159636,33.87544457057134,84.85555430307271,0.256650000000036
0.5125,-0.3127,0.677,-0.2441,0.456,0.4894,-0.595,0.7262,-2.7738,114.34926845630247,34.04877263842333,84.82149471232238,0.256650000000036
0.5001,-0.3114,0.68,-0.2441,0.456,0.4894,-0.595,0.7262,-2.7738,114.3618016055159,33.971019508246656,84.7384057577104,0.256650000000036
0.5001,-0.3101,0.687,-0.2441,0.456,0.4894,-0.7962,0.9975,-2.7387,114.34804190387041,33.86540791208327,84.72087036881122,0.256650000000036
0.5089,-0.3101,0.687,-0.245,0.4548,0.495,-0.6212,0.9712,-2.415,114.34411498698734,33.86953558972392,84.72545657293666,0.256650000000036
0.504,-0.3065,0.6877,-0.245,0.4548,0.495,-0.6212,0.9712,-2.415,114.32088004474531,33.86770571556205,84.73018046998298,0.256650000000036
0.5068,-0.3098,0.6845,-0.245,0.4548,0.495,-0.84,0.7962,-2.73,114.32781028743194,33.901547933570285,84.7448155270882,0.2568999999998596
0.5068,-0.3098,0.6845,-0.244,0.4554,0.4999,-0.4462,0.8925,-2.625,114.32988191658261,33.92050142052643,84.7646813148786,0.2568999999998596
0.5075,-0.3104,0.6785,-0.244,0.4554,0.4999,-0.4462,0.8925,-2.625,114.35233081033708,33.978267977479035,84.7838751449243,0.2571666666665351
0.5104,-0.3121,0.6885,-0.244,0.4554,0.4999,-0.77,0.7088,-2.3537,114.35836290848813,33.97990413890931,84.85429756745404,0.2571666666665351
0.5104,-0.3121,0.6885,-0.2427,0.4558,0.4931,-0.3237,0.9538,-2.135,114.36316037455362,33.98939417897883,84.85486589709805,0.2571666666665351
0.4968,-0.3103,0.6775,-0.2427,0.4558,0.4931,-0.3237,0.9538,-2.135,114.40729624296858,33.92899380651491,84.85220710069346,0.2574333333332106
0.4989,-0.312,0.6787,-0.2427,0.4558,0.4931,-0.1488,1.2775,-2.4325,114.4868303693462,33.92098155982524,84.78648499288803,0.2574333333332106
0.4989,-0.312,0.6806,-0.2438,0.4559,0.4902,-0.7437,1.0237,-2.5725,114.51031885914246,33.88315611603701,84.754438045513,0.25768333333326154
0.5005,-0.3096,0.6806,-0.2438,0.4559,0.4902,-0.7437,1.0237,-2.5725,114.50199812755261,33.86984762370534,84.73614613059861,0.25768333333326154
0.5043,-0.3068,0.689,-0.2438,0.4559,0.4902,-0.5775,1.3475,-2.5287,114.48556003246696,33.857354455135685,84.73352790373873,0.25794999999993706
0.5068,-0.3113,0.6992,-0.2436,0.457,0.4907,-0.9363,0.7525,-2.6775,114.34853733256844,33.77974567350946,84.71353289348808,0.25794999999993706
0.5068,-0.3113,0.6992,-0.2436,0.457,0.4907,-0.9363,0.7525,-2.6775,114.25016056753758,33.71953365060182,84.69673849292006,0.258199999999988
0.5064,-0.3093,0.6794,-0.2436,0.457,0.4907,-0.8138,0.735,-2.7037,114.29856570861487,33.8231344212801,84.70153662971076,0.258199999999988
0.5095,-0.3098,0.685,-0.2443,0.4556,0.4974,-0.8138,0.735,-2.52,114.30641894311167,33.85829328062512,84.76786515372771,0.2584666666666635
0.5095,-0.3098,0.685,-0.2443,0.4556,0.4974,-0.2013,1.2337,-2.52,114.31382476751767,33.88936812813603,84.8396462491705,0.2584666666666635
0.5045,-0.3159,0.6783,-0.2443,0.4556,0.4974,-0.5163,0.8313,-2.7562,114.3312434425579,33.91622677695058,84.82354217306914,0.25873333333333903
0.5047,-0.3132,0.6838,-0.2454,0.4555,0.4913,-0.5163,0.8313,-2.7562,114.33859251966412,33.90198306181368,84.78181476100838,0.25873333333333903
0.5047,-0.3132,0.6838,-0.2454,0.4555,0.4913,-0.6562,0.77,-2.6513,114.36600255307047,33.89392165452244,84.72673607302026,0.25873333333333903
0.5029,-0.3108,0.6806,-0.2438,0.4563,0.492,-0.5337,0.28,-2.59,114.36772457421044,33.89605580285662,84.68119193262109,0.25898333333338996
0.5018,-0.3067,0.6823,-0.2438,0.4563,0.492,-0.5337,0.28,-2.59,114.36614477957329,33.88895058015113,84.7115213576753,0.25898333333338996
0.5007,-0.3087,0.6881,-0.2438,0.4563,0.492,-1.0938,0.9363,-2.8437,114.29377557599193,33.79244860600758,84.71093162002335,0.2592500000000655
0.5007,-0.3087,0.6881,-0.2441,0.4566,0.4949,-0.5163,1.19,-2.7738,114.29029797458986,33.73348288017972,84.71700707146982,0.2592500000000655
0.5075,-0.3133,0.6705,-0.2441,0.4566,0.4949,-0.5163,1.19,-2.7738,114.31025536472745,33.92986454496394,84.72718241999776,0.25949999999988904
0.5013,-0.3121,0.6903,-0.2441,0.4566,0.4949,-0.5775,0.8838,-2.52,114.31086528107218,33.8791486132762,84.72048475974633,0.25949999999988904
0.5013,-0.3121,0.6903,-0.2446,0.4563,0.4966,-0.385,1.0063,-2.3275,114.3133164871729,33.85693681012689,84.71674012895386,0.25976666666656456
0.5056,-0.3118,0.6781,-0.2446,0.4563,0.4966,-0.385,1.0063,-2.3275,114.36534054649961,33.87178417503269,84.72298812062654,0.25976666666656456
0.5097,-0.3093,0.692,-0.2446,0.4563,0.4966,-0.4812,0.8138,-2.52,114.34879055835262,33.87723882405007,84.75772103229617,0.25976666666656456
0.5097,-0.3093,0.692,-0.2443,0.4561,0.4926,-0.2975,0.875,-2.415,114.29631866653678,33.87830732915115,84.76368756535362,0.2600333333332401
0.5022,-0.3093,0.6866,-0.2443,0.4561,0.4926,-0.2975,0.875,-2.415,114.28730166890799,33.8736860939553,84.75582226825637,0.2600333333332401
0.5083,-0.3079,0.6814,-0.2443,0.4561,0.4926,-0.3325,0.8838,-2.7738,114.29238638929088,33.966465604219394,84.76358164281562,0.260283333333291
0.5083,-0.3095,0.6897,-0.2443,0.4567,0.4998,-0.3588,1.2425,-2.7213,114.27299089741462,33.95398522913754,84.85451834086359,0.260283333333291
0.5073,-0.3095,0.6897,-0.2443,0.4567,0.4998,-0.3588,1.2425,-2.7213,114.25661875149285,33.93158193829375,84.91758644142516,0.26054999999996653
0.5094,-0.3114,0.6745,-0.2443,0.4567,0.4998,-0.9363,0.805,-2.8963,114.40468590022881,34.10198664526416,84.94392744468172,0.26054999999996653
0.5054,-0.3086,0.6986,-0.2436,0.4547,0.4974,-0.9363,0.805,-2.5287,114.24344602374008,34.027368547024025,84.95655436644442,0.26080000000001746
0.5054,-0.3086,0.6986,-0.2436,0.4547,0.4974,-0.6212,1.015,-2.5287,114.21384062080489,33.961921251122135,84.96269041983703,0.26080000000001746
0.5026,-0.3083,0.6867,-0.2436,0.4547,0.4974,-0.4288,0.9712,-2.275,114.2101655899352,33.93837678393048,84.96392187960122,0.26080000000001746
0.5061,-0.3075,0.6933,-0.2427,0.4561,0.4942,-0.4288,0.9712,-2.275,114.18018986258134,33.91559915875465,84.96550892401378,0.261066666666693
0.5061,-0.3075,0.6933,-0.2427,0.4561,0.4942,-0.6475,0.8838,-2.24,114.15555540221928,33.88965664376746,84.96866670312774,0.261066666666693
0.5024,-0.3127,0.6755,-0.2427,0.4561,0.4959,-0.3588,0.595,-2.4675,114.26227543937055,33.898960504535566,84.92577882699321,0.2613333333333685
0.5092,-0.3099,0.688,-0.2436,0.4553,0.4959,-0.3588,0.595,-2.4675,114.26013099778086,33.90724248998219,84.95762124162746,0.2613333333333685
0.5092,-0.3099,0.6933,-0.2436,0.4553,0.4959,-0.07,0.7262,-2.7825,114.20362915891288,33.88899687462616,84.97176090580413,0.26158333333319206
0.5029,-0.3106,0.6933,-0.2438,0.4554,0.4953,-0.1838,0.7875,-2.2925,114.18481105724632,33.85521483174303,84.94479941945265,0.26158333333319206
0.5055,-0.3095,0.6717,-0.2438,0.4554,0.4953,-0.1838,0.7875,-2.2925,114.33137781439974,33.898815385791586,84.94413625874198,0.2618499999998676
0.5087,-0.3101,0.6875,-0.2438,0.4554,0.4953,-0.4288,0.805,-2.3625,114.32588399254482,33.901367353503495,84.9484578146884,0.2618499999998676
0.5087,-0.3101,0.6875,-0.2438,0.4557,0.4931,-0.6388,0.84,-2.6513,114.32171379095549,33.92173043409061,84.94067654705127,0.2620999999999185
0.5054,-0.3091,0.6701,-0.2438,0.4557,0.4931,-0.6388,0.84,-2.6513,114.36009365172404,34.02247202309866,84.93147121360244,0.2620999999999185
0.4991,-0.3079,0.6866,-0.2438,0.4557,0.4931,-0.4288,1.1375,-2.8788,114.33883633305062,33.8688098132338,84.89002343410894,0.2620999999999185
0.4991,-0.3079,0.6866,-0.2427,0.457,0.4925,-0.6125,0.9538,-2.5463,114.32686438882229,33.826105991457254,84.88815881612535,0.26236666666659403
0.5,-0.3126,0.68,-0.2427,0.457,0.4925,-0.6125,0.9538,-2.5463,114.35021931760797,33.815217456568966,84.8845521170969,0.26236666666659403
0.5043,-0.3082,0.692,-0.2427,0.457,0.4925,-0.5512,0.315,-2.1437,114.34758478966599,33.78318242778283,84.86891355735509,0.26263333333326955
0.5043,-0.3082,0.692,-0.2431,0.4554,0.4982,-0.6825,0.3325,-2.4237,114.30601515934073,33.77874323296488,84.96366236934644,0.26263333333326955
0.5009,-0.3095,0.6817,-0.2431,0.4554,0.4982,-0.6825,0.3325,-2.4237,114.31976023199991,33.778944129292825,84.97103406253288,0.2628833333333205
0.5072,-0.3102,0.6848,-0.2431,0.4554,0.4982,-0.035,0.6562,-2.2225,114.33653521383924,33.811301160317406,85.00750217101492,0.2628833333333205
0.5003,-0.3121,0.6845,-0.2434,0.4557,0.4965,-0.035,0.6562,-2.7037,114.39526466128353,33.76670597688852,84.94656117023617,0.263149999999996
0.5003,-0.3121,0.6845,-0.2434,0.4557,0.4965,-0.4112,0.9013,-2.7037,114.40875707528478,33.732796513203404,84.93804257718742,0.263149999999996
0.5047,-0.3109,0.6884,-0.2434,0.4557,0.4965,-0.4812,0.9363,-2.835,114.40268820714837,33.737966644238796,84.9378529436054,0.263149999999996
0.5069,-0.3091,0.6859,-0.2441,0.4561,0.4986,-0.4812,0.9363,-2.835,114.39424551880315,33.809895258110465,84.9389862605378,0.26340000000004693
0.5069,-0.3091,0.6859,-0.2441,0.4561,0.4986,-0.3325,1.05,-2.3888,114.37062329067187,33.80993150226694,84.95514231741895,0.26340000000004693
0.5015,-0.3112,0.6689,-0.2441,0.4561,0.4986,-0.315,0.9625,-2.8263,114.47833601714031,33.930740102533065,84.95372372710305,0.26366666666672245
0.5087,-0.3095,0.6978,-0.245,0.4542,0.4932,-0.315,0.9625,-2.8263,114.37432254076931,33.85421924592791,84.9507912369623,0.26366666666672245
0.5087,-0.3095,0.6978,-0.245,0.4542,0.4932,-0.9187,0.8838,-2.555,114.25010037385427,33.829276732312,84.94234296962894,0.26393333333339797
0.5033,-0.3105,0.6837,-0.2432,0.4568,0.4901,-0.77,1.05,-2.3012,114.28240549023417,33.829522713039815,84.9069408359118,0.26393333333339797
0.5094,-0.3096,0.6916,-0.2432,0.4568,0.4901,-0.77,1.05,-2.3012,114.25167829770393,33.836119323050234,84.89460165043228,0.2641833333332215
0.5094,-0.3085,0.6897,-0.2432,0.4568,0.4901,-0.5863,1.1812,-2.3363,114.24539750793397,33.843675241412214,84.882456904417,0.2641833333332215
0.5001,-0.3085,0.6897,-0.2433,0.4559,0.4937,-0.77,0.8925,-2.6775,114.21831665895918,33.7667701238693,84.87555601356962,0.26444999999989705
0.4998,-0.3102,0.6788,-0.2433,0.4559,0.4937,-0.77,0.8925,-2.6775,114.28134853130086,33.776385433158765,84.86607454698095,0.26444999999989705
0.5091,-0.3087,0.6819,-0.2433,0.4559,0.4937,-0.8487,1.0237,-2.8963,114.29893070435826,33.92619134802775,84.8772415237701,0.26444999999989705
0.5091,-0.3087,0.6819,-0.2435,0.4563,0.4916,-0.98,0.9538,-2.66,114.31643482699506,33.989179593704165,84.87736720564793,0.264699999999948
0.5083,-0.3122,0.6925,-0.2435,0.4563,0.4916,-0.98,0.9538,-2.66,114.30150237808128,33.946320253126785,84.87538867051992,0.264699999999948
0.5009,-0.3096,0.6679,-0.2435,0.4563,0.4916,-0.9712,0.84,-2.3625,114.471736346412,33.95357980557554,84.85229082875107,0.2649666666666235
0.5009,-0.3096,0.6679,-0.2444,0.4554,0.499,-0.3325,0.805,-2.1088,114.54107055109334,34.014443850640646,84.8634060172072,0.26913333333322953
0.5064,-0.3083,0.695,-0.2444,0.4554,0.499,-0.3325,0.805,-2.1088,114.43321014605232,33.938118062566645,84.89336151631998,0.26938333333328046
0.5079,-0.3101,0.6861,-0.2444,0.4554,0.499,-0.3588,0.9363,-2.765,114.41583987796675,33.955700199658345,84.89474162522195,0.26938333333328046
0.5079,-0.3101,0.6773,-0.2451,0.4561,0.4994,-0.3588,0.9363,-2.765,114.4446321037011,34.04632639543123,84.89594006940592,0.26938333333328046
0.5011,-0.3116,0.6773,-0.2451,0.4561,0.4994,-0.6037,0.945,-2.52,114.45944518597159,34.030054503829476,84.89576082328,0.269649999999956
0.5057,-0.3087,0.6929,-0.2451,0.4561,0.4994,-0.7788,0.6913,-2.625,114.37456198029025,33.96500820512543,84.92363918796399,0.269649999999956
0.4995,-0.3083,0.671,-0.2422,0.4571,0.4896,-0.7788,0.6913,-2.625,114.43218775735012,33.986142386515894,84.86424949993852,0.269649999999956
0.4995,-0.3083,0.671,-0.2422,0.4571,0.4896,-0.3063,0.6388,-2.7037,114.47912849604475,34.00756181397331,84.8092200831797,0.2699000000000069
0.5066,-0.3135,0.6827,-0.2422,0.4571,0.4896,-0.385,0.7613,-2.4675,114.50453647334211,34.00655699115194,84.77541167084188,0.2699000000000069
0.5089,-0.3084,0.6881,-0.2439,0.4563,0.4952,-0.385,0.7613,-2.4675,114.45487434459193,34.00717168830697,84.81525093491591,0.2699000000000069
0.5089,-0.3084,0.6881,-0.2439,0.4563,0.4952,-0.9187,0.7525,-2.4413,114.36936334515302,34.00756176343913,84.850333056432,0.2699000000000069
0.5059,-0.3113,0.6828,-0.2439,0.4563,0.4952,-0.4025,0.9625,-2.7825,114.38662012574949,34.001543227619784,84.8499061797251,0.2699000000000069
0.5001,-0.3078,0.6761,-0.2442,0.455,0.4927,-0.4025,0.9625,-2.7825,114.39788343528197,33.98656063392942,84.8469029999821,0.2699000000000069
0.5001,-0.3078,0.6761,-0.2442,0.455,0.4927,-0.035,1.3038,-2.73,114.42481633190553,33.97688003158891,84.80591585671202,0.2699000000000069
0.5001,-0.3121,0.674,-0.2445,0.4548,0.4958,-0.63,0.875,-2.3363,114.45842450176116,33.97567418684956,84.79532678053887,0.2699000000000069
0.5024,-0.3104,0.6966,-0.2445,0.4548,0.4958,-0.63,0.875,-2.3363,114.42330055979231,33.9458794974267,84.79151713612306,0.2699000000000069
0.5024,-0.3099,0.6866,-0.2445,0.4548,0.4958,-0.5163,0.8225,-2.59,114.41983486546404,33.90476971026836,84.79047672825055,0.27016666666668243
0.511,-0.3099,0.6866,-0.2434,0.4561,0.4947,-0.2887,1.0237,-2.4062,114.39393052479682,33.909034867816764,84.80978970523523,0.27016666666668243
0.5014,-0.3108,0.693,-0.2434,0.4561,0.4947,-0.2887,1.0237,-2.4062,114.34552257922394,33.90076441542574,84.8023775335446,0.27016666666668243
0.5067,-0.311,0.6778,-0.2434,0.4561,0.4947,-0.49,1.0588,-2.3363,114.36084448473274,33.915350544102765,84.8113547949715,0.27016666666668243
0.5067,-0.311,0.6778,-0.2439,0.457,0.4938,-0.49,1.0588,-1.9512,114.37538879332685,34.00025487964438,84.80948967472885,0.27016666666668243
0.5065,-0.31,0.69,-0.2439,0.457,0.4938,-0.1488,1.1638,-1.9512,114.32383529300691,33.94104193897712,84.80939313962803,0.27016666666668243
0.5079,-0.3126,0.6818,-0.2439,0.457,0.4938,-0.0175,0.8575,-2.3625,114.42973802239929,33.94518822817025,84.80481940652598,0.27016666666668243
0.5079,-0.3126,0.6818,-0.2427,0.4567,0.4892,-0.0175,0.8575,-2.3625,114.49913856487107,33.94922915031836,84.78988614585228,0.27016666666668243
0.4992,-0.3099,0.6831,-0.2427,0.4567,0.4892,-0.3237,1.575,-2.7562,114.48167910848217,33.867153129608575,84.66856651785898,0.27016666666668243
0.5081,-0.3105,0.6916,-0.2427,0.4567,0.4892,-0.3762,1.0412,-2.7825,114.43818068375946,33.8569329551654,84.67102293054174,0.27043333333335795
0.5081,-0.3105,0.6875,-0.2456,0.4545,0.4895,-0.3762,1.0412,-2.7825,114.41919185059471,33.88665484201304,84.65814889009606,0.27043333333335795
0.5068,-0.3113,0.6875,-0.2456,0.4545,0.4895,-0.7788,1.1375,-2.6775,114.40810945240216,33.885732872792296,84.6248427134698,0.27043333333335795
0.5053,-0.3093,0.6825,-0.2456,0.4545,0.4895,-0.8925,1.3212,-2.6862,114.40068323725419,33.91050384866739,84.59249728362668,0.27043333333335795
0.5018,-0.3106,0.6797,-0.2451,0.4555,0.5013,-0.8925,1.3212,-2.6862,114.44159376137996,33.90363568411674,84.69502896990835,0.27043333333335795
0.5018,-0.3106,0.6797,-0.2451,0.4555,0.5013,-0.3938,0.8838,-2.5812,114.45685224010566,33.89990850704267,84.71020274397871,0.27043333333335795
0.5017,-0.3107,0.6817,-0.2451,0.4555,0.5013,-0.385,0.84,-2.2838,114.46305336068585,33.891320858849205,84.73304941358799,0.27043333333335795
0.5015,-0.3106,0.6872,-0.2442,0.4553,0.4924,-0.385,0.84,-2.2838,114.44375504598075,33.86596830765751,84.717780168618,0.27043333333335795
0.5015,-0.3106,0.6872,-0.2442,0.4553,0.4924,-0.07,0.9275,-2.835,114.40462267128072,33.791286196461485,84.71550819379058,0.27043333333335795
0.5075,-0.309,0.6842,-0.2442,0.4553,0.4924,-0.3588,1.1287,-2.5375,114.38909329847893,33.8259459150443,84.73259713552854,0.27043333333335795
0.4986,-0.312,0.6734,-0.243,0.4572,0.4921,-0.3588,1.1287,-2.5375,114.46238149155914,33.834749323609834,84.69573837816331,0.27043333333335795
0.4986,-0.312,0.6734,-0.243,0.4572,0.4921,-0.9975,1.1988,-2.3275,114.58630876805302,33.83815184326411,84.65530091924776,0.27043333333335795
0.5053,-0.3093,0.6891,-0.243,0.4564,0.4939,-0.6825,1.1725,-2.3537,114.53582811846385,33.83624782518114,84.69863778959905,0.2706833333334089
0.5012,-0.3117,0.6652,-0.243,0.4564,0.4939,-0.6825,1.1725,-2.3537,114.60553456959381,33.852028343790685,84.69828577531814,0.2706833333334089
0.5071,-0.3092,0.6911,-0.243,0.4564,0.4939,-0.4725,0.63,-2.59,114.57229341163773,33.84554245980177,84.75615067799214,0.2706833333334089
0.5071,-0.3092,0.6911,-0.2445,0.4541,0.4936,-0.4725,0.63,-2.59,114.54125487256819,33.84014396718765,84.77662241591078,0.2706833333334089
0.5008,-0.3095,0.6934,-0.2445,0.4541,0.4936,-0.98,0.875,-2.8263,114.39308354874149,33.70788446556308,84.76751727358841,0.2706833333334089
0.502,-0.3097,0.6769,-0.2445,0.4541,0.4936,-0.455,1.3563,-2.7562,114.40871163774041,33.7850781466057,84.7470988179333,0.2706833333334089
0.502,-0.3097,0.6769,-0.2444,0.4556,0.4934,-0.455,1.3563,-2.7562,114.42306956689465,33.84152174850141,84.72597975639646,0.2706833333334089
0.5011,-0.3071,0.6864,-0.2444,0.4556,0.4934,-0.9625,0.5775,-2.6688,114.32886866032872,33.805924781037945,84.7304662465985,0.2706833333334089
0.5102,-0.3157,0.6833,-0.2444,0.4556,0.4934,-0.8313,0.595,-2.4413,114.43372148930854,33.82216936341473,84.70731441888402,0.2706833333334089
0.5102,-0.3157,0.6833,-0.2437,0.4554,0.4907,-0.8313,0.595,-2.4413,114.51513933209273,33.83760034717287,84.66949209699604,0.2706833333334089
0.506,-0.3088,0.6818,-0.2437,0.4554,0.4907,0.2625,1.0588,-2.2225,114.44887761100975,33.86934089406838,84.67730460368807,0.2706833333334089
0.5028,-0.3076,0.6787,-0.2437,0.4554,0.4907,0.1925,1.4875,-2.3537,114.42008188697005,33.87408001362137,84.68846321944724,0.2706833333334089
0.5028,-0.3076,0.6983,-0.2424,0.4562,0.4974,0.1925,1.4875,-2.3537,114.14592554417473,33.85750959850552,84.8284648524166,0.270949999999857
0.5079,-0.3082,0.6983,-0.2424,0.4562,0.4974,-0.385,1.365,-2.4762,114.10060817595246,33.840000631183536,84.94273530287546,0.270949999999857
0.5064,-0.3118,0.6883,-0.2424,0.4562,0.4974,-0.4288,1.0237,-2.7738,114.12837501244603,33.836883345589,84.94965208774522,0.270949999999857
0.5026,-0.3111,0.6743,-0.2436,0.4564,0.4885,-0.4288,1.0237,-2.7738,114.1940754244221,33.907375897845604,84.91147102627312,0.270949999999857
0.5026,-0.3111,0.6743,-0.2436,0.4564,0.4885,-0.0613,1.2163,-2.485,114.3804726851608,33.923468989664386,84.8098466985134,0.27119999999990796
0.5072,-0.3086,0.6895,-0.2436,0.4564,0.4885,-0.6037,1.1725,-2.24,114.36521354413654,33.91763122294325,84.78125350509251,0.27119999999990796
0.5061,-0.3156,0.6792,-0.2446,0.4559,0.4896,-0.6037,1.1725,-2.24,114.39688141975286,33.93461740425588,84.69537948577518,0.2714666666665835
0.5061,-0.3156,0.6792,-0.2446,0.4559,0.4896,-0.5863,1.2163,-2.1962,114.41847654367704,33.953062706994594,84.61505703117015,0.2714666666665835
0.509,-0.3111,0.6839,-0.2446,0.4559,0.4896,-0.5863,1.2163,-2.5812,114.42019712967512,33.97940252521231,84.61115036707824,0.271733333333259
0.5002,-0.3071,0.6772,-0.245,0.4552,0.4997,-0.595,1.19,-2.5812,114.41889243172574,33.97116693863044,84.69032740765616,0.271733333333259
0.5002,-0.3071,0.6772,-0.245,0.4552,0.4997,-0.42,0.735,-2.7825,114.41611028227913,33.95908446037863,84.74555596453462,0.27198333333330993
0.5014,-0.3082,0.6817,-0.2426,0.4559,0.4927,-0.42,0.735,-2.7825,114.40642350206598,33.92262773968725,84.7570744302828,0.27198333333330993
0.5023,-0.3094,0.6837,-0.2426,0.4559,0.4927,-0.07,1.2075,-2.6425,114.38782492234724,33.896919898415966,84.7623801564846,0.27198333333330993
0.5067,-0.3107,0.6962,-0.2426,0.4559,0.4927,-0.8138,0.8575,-2.5638,114.31598497769478,33.85399778387108,84.7676642437819,0.27224999999998545
0.5067,-0.3107,0.6962,-0.2438,0.4562,0.4951,-0.8138,0.8575,-2.5638,114.25943305391051,33.817475318347554,84.77441080626276,0.27224999999998545
0.5012,-0.3131,0.6692,-0.2438,0.4562,0.4951,-0.7,1.2163,-2.345,114.36962725156089,33.83144431211021,84.74393014413799,0.2725000000000364
0.5058,-0.3105,0.6941,-0.2438,0.4562,0.4951,-0.5688,1.2687,-2.4675,114.36298868208259,33.81681327246928,84.76756276416333,0.2725000000000364
0.5058,-0.3105,0.6941,-0.2439,0.4557,0.4955,-0.5688,1.2687,-2.4675,114.3565141513158,33.803252515566875,84.79003205579437,0.2727666666667119
0.5039,-0.3137,0.6791,-0.2439,0.4557,0.4955,-0.9363,1.155,-2.6775,114.47986441549713,33.83946160402023,84.77290190964982,0.2727666666667119
0.507,-0.3116,0.6878,-0.2439,0.4557,0.4955,-0.8575,1.2425,-2.45,114.45417355861564,33.84175301188603,84.79319019806806,0.2730333333333874
0.507,-0.3116,0.6878,-0.2446,0.4558,0.4966,-0.8575,1.2425,-2.45,114.43462245280001,33.84391181525489,84.80887533514405,0.2730333333333874
0.5027,-0.309,0.682,-0.2446,0.4558,0.4966,-0.4988,1.3125,-2.4413,114.43204299289447,33.84558676140221,84.82247798010377,0.273283333333211
0.4984,-0.308,0.6755,-0.2446,0.4558,0.4966,-1.2687,0.9538,-2.625,114.46524234341446,33.8511605557444,84.82210620241605,0.273283333333211
0.4984,-0.3087,0.6759,-0.2453,0.4558,0.4941,-1.2687,0.9538,-2.625,114.4997516417153,33.851201468377425,84.81951049351248,0.273283333333211
0.4995,-0.3087,0.6759,-0.2453,0.4558,0.4941,-1.1375,0.7437,-2.4062,114.51748420075137,33.85221697687188,84.78475411057916,0.2735499999998865
0.5108,-0.3129,0.6995,-0.2453,0.4558,0.4941,-0.8138,0.91,-2.2575,114.42861940074864,33.83304987147531,84.78245394336616,0.2735499999998865
0.5068,-0.3131,0.6856,-0.2442,0.4555,0.4987,-0.8138,0.91,-2.2575,114.45343813029534,33.8427974629942,84.78727465465056,0.2737999999999374
0.5068,-0.3131,0.6856,-0.2442,0.4555,0.4987,-0.5863,0.8838,-2.5725,114.45720923471339,33.85435044317838,84.79543047959542,0.2737999999999374
0.5029,-0.3081,0.6881,-0.2442,0.4555,0.4987,-0.5863,0.8838,-2.695,114.44338550263508,33.81928983430677,84.80856776965545,0.27406666666661295
0.5032,-0.3108,0.6762,-0.2432,0.4558,0.497,-0.5863,0.9013,-2.695,114.45330213261563,33.876886456093224,84.81348433676438,0.27406666666661295
0.5032,-0.3108,0.6762,-0.2432,0.4558,0.497,-0.315,1.05,-2.9925,114.49635583863257,33.94766013445385,84.82485255783435,0.27433333333328846
0.504,-0.3104,0.6905,-0.2432,0.4558,0.497,-0.315,1.05,-2.9925,114.44222943867189,33.83673401329759,84.83644672293275,0.27433333333328846
0.5071,-0.3117,0.6913,-0.2434,0.4562,0.4938,0.0175,0.8838,-2.5113,114.3803782543873,33.82956671375819,84.83433643980906,0.27433333333328846
0.5071,-0.3117,0.6756,-0.2434,0.4562,0.4938,-0.385,0.9013,-2.3187,114.43327346587593,33.8587526686958,84.83400007901322,0.2745833333333394
0.5042,-0.3091,0.6793,-0.2448,0.455,0.4949,-0.385,0.9013,-2.3187,114.43786330416602,33.870739540112794,84.83327108455026,0.2745833333333394
0.4909,-0.3052,0.6758,-0.2448,0.455,0.4949,-0.56,1.0938,-2.6775,114.4356946835405,33.78881824034151,84.80190244786229,0.2748500000000149
0.4981,-0.3118,0.6792,-0.2448,0.455,0.4949,-0.2013,1.0938,-2.4588,114.49247293386173,33.78187433532296,84.76425212150453,0.2748500000000149
0.4981,-0.3118,0.6792,-0.2444,0.4547,0.4927,-0.2013,1.0938,-2.4588,114.53477644544544,33.7753860688196,84.72166945727912,0.27510000000006585
0.5046,-0.3062,0.6909,-0.2444,0.4547,0.4927,-0.8662,0.5512,-2.4325,114.38049292629142,33.77354386062372,84.75859123467448,0.27510000000006585
0.5034,-0.3087,0.6848,-0.2444,0.4547,0.4927,-0.7788,0.9187,-2.7387,114.35854949495511,33.78777555659296,84.75772536131979,0.27536666666674137
0.5034,-0.3087,0.6848,-0.2443,0.4569,0.4904,-0.7788,0.9187,-2.7387,114.34078636708034,33.79831657758676,84.75362268264449,0.27536666666674137
0.5061,-0.3087,0.6859,-0.2443,0.4569,0.4904,-0.56,1.05,-2.625,114.3389983768,33.82443109213416,84.74487254642665,0.2756333333331895
0.5126,-0.3143,0.6842,-0.2443,0.4569,0.4904,-0.9712,0.8313,-2.5287,114.43893168775675,33.876373447589856,84.73128409835405,0.2756333333331895
0.5126,-0.3143,0.6842,-0.2434,0.4566,0.493,-0.9712,0.8313,-2.5287,114.50892593806402,33.9219319218411,84.73949580350447,0.2756333333331895
0.5037,-0.3115,0.6847,-0.2434,0.4566,0.493,-0.35,1.0588,-2.5812,114.50145947822381,33.90332150872615,84.73276620803465,0.27588333333324044
0.5036,-0.3123,0.6806,-0.2434,0.4566,0.493,-0.1225,0.7613,-2.2838,114.54501731905079,33.90503836485459,84.71903662954561,0.27588333333324044
0.5015,-0.3108,0.6825,-0.243,0.455,0.4966,-0.1225,0.7613,-2.2838,114.52687846455096,33.89238447604954,84.7431313798023,0.27614999999991596
0.5015,-0.3108,0.6825,-0.243,0.455,0.4966,-0.3413,0.9187,-2.3537,114.51963235320626,33.88831449239566,84.74628557766427,0.27614999999991596
0.5097,-0.3085,0.6839,-0.243,0.455,0.4966,-0.3413,0.9187,-2.6075,114.47927163732744,33.94263573092363,84.75755715785945,0.2763999999999669
0.4989,-0.3093,0.6704,-0.244,0.4559,0.4999,-0.6037,0.9887,-2.6075,114.4956191619164,33.96158573102601,84.76646420965389,0.2763999999999669
0.4989,-0.3093,0.6704,-0.244,0.4559,0.4999,-0.7962,0.945,-2.9925,114.55037159516756,33.99417786595169,84.76683910574056,0.2766666666666424
0.5058,-0.3083,0.6963,-0.244,0.4559,0.4999,-0.7962,0.945,-2.9925,114.41558473852315,33.84301559758987,84.76758859289768,0.2766666666666424
0.5046,-0.3127,0.6845,-0.2446,0.4547,0.4966,-0.1925,0.9887,-2.94,114.45111036006574,33.8429693826731,84.76739165351866,0.2766666666666424
0.5046,-0.3127,0.6845,-0.2446,0.4547,0.4966,-0.2887,0.9013,-2.3712,114.47166240888049,33.84296795134408,84.76721855565339,0.27693333333331793
0.5029,-0.3096,0.6747,-0.2446,0.456,0.4914,-0.2887,0.9013,-2.3712,114.50766840114738,33.847625462572395,84.76005305102161,0.27693333333331793
0.5097,-0.3126,0.6922,-0.2438,0.456,0.4914,-0.4812,1.1725,-2.6075,114.49573668967082,33.85076286355844,84.74629757418548,0.27718333333336886
0.5097,-0.297,0.6853,-0.2438,0.456,0.4914,-1.1725,1.1988,-2.345,114.08470492527073,33.86997122705282,84.87845628619063,0.27718333333336886
0.5031,-0.3104,0.6853,-0.2434,0.4552,0.4945,-1.1725,1.1988,-2.345,114.19397641544313,33.86587688050211,84.86196727263876,0.2774500000000444
0.5048,-0.3121,0.6739,-0.2434,0.4552,0.4945,-0.5863,0.9712,-2.5113,114.22092511136248,33.902902132333836,84.86004886645092,0.2774500000000444
0.4973,-0.3063,0.6815,-0.2434,0.4552,0.4945,-0.14,0.9975,-2.4062,114.21534707590546,33.89846810859624,84.85754343011973,0.27769999999986794
0.4973,-0.3063,0.6815,-0.2428,0.4559,0.4967,-0.14,0.9975,-2.4062,114.21137259885653,33.89411088099512,84.86270808538706,0.27769999999986794
0.5051,-0.3096,0.6842,-0.2428,0.4559,0.4967,-0.2975,0.77,-2.205,114.23809076642831,33.89875316253993,84.88896410579541,0.27769999999986794
0.5031,-0.3137,0.6875,-0.2428,0.4559,0.4967,-0.3938,1.2163,-2.4413,114.27567289721003,33.88648177008482,84.868805304852,0.27796666666654346
0.5031,-0.3137,0.6875,-0.2446,0.4555,0.4982,-0.3938,1.2163,-2.4413,114.30836256200057,33.87482498179243,84.84067609011151,0.27796666666654346
0.4982,-0.3104,0.6726,-0.2446,0.4555,0.4982,-0.245,1.4787,-2.73,114.41515912916243,33.886978804642744,84.81372583754884,0.278233333333219
0.507,-0.3123,0.6902,-0.2446,0.4555,0.4982,-0.6737,1.1025,-2.5638,114.40715355698184,33.872867799234044,84.82688159837032,0.278233333333219
0.507,-0.3123,0.6746,-0.2435,0.4566,0.4971,-0.6737,1.1025,-2.5638,114.45718592912473,33.935763372267544,84.84376279158022,0.2784833333332699
0.5054,-0.3121,0.6731,-0.2435,0.4566,0.4971,-0.6475,0.7262,-2.5025,114.49665189014004,33.969160248562844,84.8561813342026,0.2784833333332699
0.506,-0.3121,0.6916,-0.2435,0.4566,0.4971,-0.6475,0.7262,-2.5988,114.47702246674888,33.922131683952344,84.86390512294155,0.27874999999994543
0.5062,-0.3114,0.6801,-0.2429,0.4568,0.4936,-0.315,1.155,-2.5988,114.50022884163752,33.950884704467384,84.85724080501838,0.27874999999994543
0.5062,-0.3114,0.6801,-0.2429,0.4568,0.4936,-0.175,1.2687,-2.2925,114.5275784563767,33.96287332555242,84.84951628304067,0.27874999999994543
0.5023,-0.3076,0.6886,-0.2429,0.4568,0.4936,-0.175,1.2687,-2.2925,114.40450315731121,33.936716106675,84.85225715456122,0.27899999999999636
0.4978,-0.3088,0.6786,-0.2433,0.4562,0.4953,-0.5337,1.1287,-2.5375,114.40511833714393,33.90999724755159,84.83729954412917,0.27899999999999636
0.4978,-0.3088,0.6786,-0.2433,0.4562,0.4953,-0.6037,0.7525,-2.4325,114.40869788272555,33.90244818935702,84.82440104512307,0.2792666666666719
0.5065,-0.3099,0.6911,-0.2433,0.4562,0.4953,-0.6037,0.7525,-2.4325,114.39412566189974,33.89695856764944,84.84327156733161,0.2792666666666719
0.5088,-0.312,0.674,-0.2442,0.454,0.4933,-0.2625,0.5863,-2.3975,114.49187814020067,33.901526948077034,84.83451450018289,0.2795333333333474
0.5088,-0.312,0.674,-0.2442,0.454,0.4933,-0.7,0.91,-2.3975,114.53896851811685,33.906054916387454,84.83372864276174,0.2795333333333474
0.5072,-0.3132,0.682,-0.2439,0.4552,0.4876,-0.7,0.91,-2.3975,114.55621128817276,33.90734787415336,84.82036873306082,0.27978333333339833
0.503,-0.3088,0.6866,-0.2439,0.4552,0.4876,-0.3413,1.1463,-2.5638,114.49899013949093,33.8836083945129,84.76239288271454,0.27978333333339833
0.5025,-0.3126,0.6891,-0.2439,0.4552,0.4876,-0.5775,0.7613,-2.66,114.49575536366358,33.82034158267259,84.69016356218577,0.28005000000007385
0.5025,-0.3126,0.6891,-0.2446,0.4575,0.4972,-0.5775,0.7613,-2.66,114.49262706268821,33.77058102908876,84.68987259936868,0.28005000000007385
0.498,-0.3024,0.6875,-0.2446,0.4575,0.4972,-0.595,1.1463,-2.555,114.45586376299555,33.7386271908577,84.74235988949216,0.28005000000007385
0.4994,-0.3082,0.693,-0.2446,0.4575,0.4972,-0.6388,1.1988,-2.3712,114.4141230417995,33.73221322457732,84.74921844271451,0.2802999999998974
0.4994,-0.3082,0.693,-0.2437,0.4559,0.502,-0.6388,1.1988,-2.3712,114.37601535502934,33.7259087977137,84.82120624248805,0.2802999999998974
0.5075,-0.3107,0.6834,-0.2437,0.4559,0.502,-0.8138,1.2513,-2.4762,114.39141424551994,33.75279567402084,84.92480816304275,0.28056666666657293
0.5044,-0.3134,0.6777,-0.2437,0.4559,0.502,-0.8662,0.945,-2.5812,114.49550148261355,33.79930761064166,84.92506390234196,0.28056666666657293
0.5044,-0.3134,0.6777,-0.2434,0.4564,0.4989,-0.8662,0.945,-2.5812,114.57419234541128,33.83830724306662,84.925053525072,0.28083333333324845
0.5111,-0.3138,0.6843,-0.2434,0.4564,0.4989,-0.8487,0.9887,-2.7825,114.58836755814504,33.93293537039319,84.9322275887334,0.28083333333324845
0.5044,-0.3113,0.6763,-0.2434,0.4564,0.4989,-0.8487,0.9887,-2.3712,114.6183444148034,33.93608718944016,84.93586040224147,0.2810833333332994
0.5044,-0.312,0.6784,-0.2446,0.4559,0.493,-0.245,1.225,-2.3712,114.63664682055695,33.9378450083932,84.86246591760019,0.2810833333332994
0.5045,-0.312,0.6784,-0.2446,0.4559,0.493,-1.0675,0.9712,-2.135,114.65773223400883,33.95937545061745,84.85542522330637,0.2810833333332994
0.5009,-0.3071,0.6836,-0.2446,0.4559,0.493,-1.0675,0.9712,-2.135,114.49741626461525,33.9187166670912,84.8512846378083,0.2813499999999749
0.5022,-0.3098,0.6813,-0.2446,0.4551,0.4897,-0.7262,0.9275,-2.6688,114.49042886810899,33.90626609934448,84.84549623217441,0.2813499999999749
0.5022,-0.3098,0.6813,-0.2446,0.4551,0.4897,-0.735,0.8487,-2.1962,114.48428227422623,33.899097768375135,84.81344844667353,0.28160000000002583
0.5041,-0.3088,0.6886,-0.2446,0.4551,0.4897,-0.735,0.8487,-2.1962,114.43113638884974,33.87373307546518,84.79148401927378,0.28160000000002583
0.505,-0.3095,0.6866,-0.2444,0.4561,0.4913,-0.6825,1.1113,-2.4325,114.41079775238155,33.87244488306116,84.7699702745752,0.28186666666670135
0.505,-0.3095,0.6866,-0.2444,0.4561,0.4913,-0.35,0.8313,-2.31,114.38708481204966,33.87030838253648,84.75711269192931,0.28186666666670135
0.51,-0.312,0.685,-0.2444,0.4561,0.4914,-0.35,0.8313,-2.31,114.40345199798432,33.888480531092156,84.75015503410046,0.28213333333337687
0.5241,-0.3188,0.6878,-0.243,0.4566,0.4914,-0.3762,1.295,-2.59,114.47002623304289,34.017447189007385,84.78615823115673,0.28213333333337687
0.5241,-0.3188,0.6722,-0.243,0.4566,0.4914,-0.7175,1.1113,-2.2487,114.60392270237814,34.15807250007581,84.80225366204395,0.28213333333337687
0.5004,-0.3116,0.6759,-0.2432,0.4561,0.4912,-0.7175,1.1113,-2.2487,114.62563725624003,34.12817685732126,84.76147424910918,0.2823833333332004
0.5,-0.308,0.6949,-0.2432,0.4561,0.4912,-0.4112,1.3038,-2.485,114.54137765646364,34.058622526109886,84.72532327434732,0.2823833333332004
0.5076,-0.3143,0.6895,-0.2432,0.4561,0.4912,-0.6913,1.3038,-2.3187,114.53672851057328,34.04284407736348,84.68958835536685,0.28264999999987594
0.5076,-0.3143,0.6895,-0.2438,0.4541,0.4948,-0.6913,1.3038,-2.3187,114.53267815330067,34.028096140692,84.70606691344135,0.28264999999987594
0.4926,-0.3052,0.6795,-0.2438,0.4541,0.4948,-1.0237,0.875,-2.17,114.42066306498953,33.92920053599359,84.70697641304966,0.2828999999999269
0.5009,-0.3102,0.6762,-0.2438,0.4541,0.4948,-0.77,0.9013,-2.5463,114.46169413750725,33.932318686597135,84.70899592648357,0.2828999999999269
0.5009,-0.3102,0.6762,-0.2448,0.4548,0.495,-0.77,0.9013,-2.5463,114.49514694485882,33.93501202966526,84.70790211357863,0.2831666666666024
0.5067,-0.3121,0.6839,-0.2448,0.4548,0.495,-0.4462,1.3038,-2.4237,114.49821335810485,33.936576000064576,84.72075778518875,0.2831666666666024
0.5036,-0.3103,0.6806,-0.2448,0.4548,0.495,-0.4462,1.3038,-2.5725,114.4991916865756,33.93880473338011,84.72847349644573,0.2834333333332779
0.5036,-0.3103,0.6806,-0.2441,0.4554,0.4937,-1.0237,0.9887,-2.5725,114.50245498143651,33.94068722873712,84.72853260051544,0.2834333333332779
0.5035,-0.3085,0.6792,-0.2441,0.4554,0.4937,-0.6037,0.7788,-2.485,114.49822851988962,33.94743850645978,84.73993085568709,0.2834333333332779
0.5029,-0.3102,0.682,-0.2441,0.4554,0.4937,-0.6037,0.7788,-2.485,114.49593607877745,33.940658196889224,84.73581732790319,0.28368333333332885
0.5036,-0.3108,0.6835,-0.2429,0.4573,0.4926,-0.2975,1.05,-2.4675,114.48729523286465,33.93403929139825,84.73363372748075,0.28368333333332885
0.5036,-0.3108,0.6835,-0.2429,0.4573,0.4926,-0.3588,0.9187,-2.6163,114.48181912793869,33.91848389077177,84.73314776692644,0.28395000000000437
0.503,-0.311,0.687,-0.2429,0.4573,0.4926,-0.3588,0.9187,-2.6163,114.46219468156718,33.87861733058744,84.7318897489013,0.28395000000000437
0.5033,-0.3102,0.687,-0.2434,0.4558,0.4965,-0.6737,0.5775,-2.4588,114.44356586076874,33.86892391556546,84.77697574706647,0.2842000000000553
0.5033,-0.3102,0.687,-0.2434,0.4558,0.4965,-0.6475,1.155,-2.6337,114.43008695221222,33.84174953125432,84.7985417057544,0.2842000000000553
0.5026,-0.312,0.6773,-0.2434,0.4558,0.4965,-0.6475,1.155,-2.6337,114.45865787223285,33.86889122041842,84.80195614801319,0.2844666666667308
0.5044,-0.3081,0.6902,-0.2452,0.4553,0.4988,-0.5775,0.7962,-2.4675,114.4453915719954,33.857741697052745,84.82751991041916,0.2844666666667308
0.5044,-0.3081,0.6902,-0.2452,0.4553,0.4988,-0.1138,0.63,-2.6513,114.32825128259358,33.82834934551515,84.8690185489612,0.2844666666667308
0.505,-0.3091,0.6886,-0.2452,0.4554,0.4979,-0.1138,0.63,-2.6513,114.28202663578871,33.81928752249158,84.88444815210589,0.28473333333340634
0.4983,-0.3091,0.6774,-0.2446,0.4554,0.4979,-0.7525,0.8313,-2.5638,114.32444706093482,33.81515001043825,84.87616448890346,0.28473333333340634
0.4983,-0.3113,0.6834,-0.2446,0.4554,0.4979,-0.2537,1.2513,-2.345,114.36165203200876,33.804756419441006,84.8330676797189,0.2849833333332299
0.5036,-0.3113,0.6834,-0.2434,0.4557,0.4951,-0.2537,1.2513,-2.345,114.39049837217172,33.80648182624503,84.82522992013638,0.2849833333332299
0.5011,-0.314,0.6686,-0.2434,0.4557,0.4951,-0.735,0.8662,-2.4675,114.51363675006299,33.831794875331475,84.81106474945345,0.2852499999999054
0.5004,-0.3095,0.685,-0.2434,0.4557,0.4951,-1.2687,1.0063,-2.3363,114.42998187768393,33.822874600489705,84.80921821609564,0.2852499999999054
0.5004,-0.3095,0.685,-0.243,0.4576,0.4943,-1.2687,1.0063,-2.3363,114.38149293334297,33.81439746776131,84.80543174050156,0.28549999999995634
0.5026,-0.3113,0.6797,-0.243,0.4576,0.4943,-0.525,0.9275,-2.1263,114.3855920615394,33.83477627879351,84.8044477313461,0.28549999999995634
0.5036,-0.3117,0.6823,-0.243,0.4576,0.4943,-0.525,0.9275,-2.415,114.38862128760196,33.83582630827072,84.80359594164005,0.28576666666663186
0.5036,-0.3117,0.6823,-0.2445,0.4547,0.4889,-0.455,1.1988,-2.415,114.40195522451853,33.836849305057825,84.72195760975995,0.28576666666663186
0.4995,-0.3121,0.6758,-0.2445,0.4547,0.4889,-0.2713,1.3563,-2.275,114.48466892823875,33.83946305963562,84.5912032939095,0.28576666666663186
0.503,-0.3074,0.6814,-0.2445,0.4547,0.4889,-0.2713,1.3563,-2.275,114.44121734919699,33.84930251943272,84.58667120543114,0.2860333333333074
0.503,-0.3074,0.6905,-0.2454,0.4558,0.4952,-0.3325,1.05,-2.2313,114.3639853172865,33.821316106696436,84.6060610295548,0.2860333333333074
0.5064,-0.3106,0.6905,-0.2454,0.4558,0.4952,-0.1312,1.1113,-2.6775,114.3216964337547,33.81112736411254,84.62681900597477,0.2862833333333583
0.5036,-0.3104,0.6924,-0.2454,0.4558,0.4952,-0.1312,1.1113,-2.6775,114.27055136539188,33.7574524922687,84.63312116624839,0.2862833333333583
0.5076,-0.31,0.6764,-0.2444,0.4555,0.4935,-0.6212,0.7613,-2.4237,114.29592971054919,33.775935023895386,84.66414646943824,0.28655000000003383
0.5076,-0.31,0.6764,-0.2444,0.4555,0.4935,-0.7262,1.1287,-2.4325,114.34636998118923,33.798075532699606,84.69086832651739,0.28655000000003383
0.5006,-0.3098,0.6838,-0.2444,0.4555,0.4935,-0.7262,1.1287,-2.4325,114.35051682763516,33.79381943081515,84.68006486656705,0.2867999999998574
0.5029,-0.3092,0.6888,-0.243,0.4562,0.4971,-0.6037,1.3563,-2.415,114.34055364547962,33.79054712517993,84.76864038013147,0.2867999999998574
0.5029,-0.3092,0.6888,-0.243,0.4562,0.4971,-0.1925,0.98,-2.5988,114.29758410188319,33.76903629828469,84.77627328689555,0.2867999999998574
0.5061,-0.3124,0.6825,-0.243,0.4562,0.4971,-0.1925,0.98,-2.5988,114.37483370195363,33.807461694365756,84.78246958150929,0.2870666666665329
0.5037,-0.3082,0.6827,-0.2439,0.4559,0.498,-0.2187,0.5075,-1.9512,114.3556189380169,33.84144721871441,84.86214067133159,0.2870666666665329
0.5037,-0.3082,0.6827,-0.2439,0.4559,0.498,-0.455,0.91,-2.1962,114.35081032669794,33.853983703859974,84.86799689326081,0.28733333333320843
0.4997,-0.3078,0.6891,-0.243,0.4555,0.4922,-0.455,0.91,-2.1962,114.32789520726162,33.798259925896566,84.86301198805373,0.28733333333320843
0.5036,-0.3138,0.6817,-0.243,0.4555,0.4922,-0.1925,1.0063,-2.4062,114.42912303712028,33.7993968370645,84.8462507669489,0.28758333333325936
0.5051,-0.3091,0.6874,-0.243,0.4555,0.4922,-0.5775,1.0063,-2.45,114.42196972891432,33.801080044496864,84.84474945671207,0.28758333333325936
0.5051,-0.3091,0.6874,-0.2453,0.4558,0.4911,-0.5775,1.0063,-2.45,114.41505187672547,33.80266584418349,84.8293585248188,0.2878499999999349
0.5007,-0.3104,0.6766,-0.2453,0.4558,0.4911,-0.49,0.875,-2.2225,114.42666975534782,33.820167293357734,84.8032143752391,0.2878499999999349
0.5039,-0.3095,0.6859,-0.2453,0.4558,0.4911,-0.49,0.875,-2.59,114.41955186601402,33.81809377549893,84.7861840860914,0.2878499999999349
0.5039,-0.3095,0.6859,-0.2438,0.4544,0.4984,-0.9275,0.875,-2.59,114.38261038231184,33.81636789343488,84.80202488247954,0.2880999999999858
0.5022,-0.3104,0.6868,-0.2438,0.4544,0.4984,-0.8662,0.8313,-2.415,114.36749035262227,33.81276771520252,84.81608837287854,0.2880999999999858
0.5072,-0.3104,0.6744,-0.2438,0.4544,0.4984,-0.8662,0.8313,-2.415,114.4522236027528,33.82635005295139,84.84621510738192,0.28836666666666133
0.5072,-0.3104,0.6744,-0.2436,0.4558,0.4976,-1.225,0.9538,-2.4938,114.55863522999813,33.8752859737035,84.84859476080284,0.28836666666666133
0.5043,-0.3105,0.6811,-0.2436,0.4558,0.4976,-0.7875,0.595,-2.4325,114.54856561853416,33.879217063776366,84.87953961528726,0.28863333333333685
0.506,-0.3107,0.6859,-0.2436,0.4558,0.4976,-0.7875,0.595,-2.4325,114.5134679234921,33.88011802035836,84.91087987998809,0.28863333333333685
0.506,-0.3107,0.6882,-0.2431,0.4568,0.4935,-0.7875,0.5337,-2.8963,114.47112887783626,33.862213527004315,84.8833276548144,0.2888833333333878
0.503,-0.3095,0.6882,-0.2431,0.4568,0.4935,-0.8225,0.7262,-2.4325,114.41516192200018,33.85483411965992,84.8647987379081,0.2888833333333878
0.4985,-0.3084,0.6761,-0.2431,0.4568,0.4935,-0.8225,0.7262,-2.4325,114.4380092664233,33.85482619019089,84.83852163981385,0.2891500000000633
0.5033,-0.3099,0.6836,-0.2438,0.4546,0.5078,-0.875,0.63,-2.4675,114.42517508350251,33.854056474432944,84.98843598691056,0.2891500000000633
0.5033,-0.3099,0.6836,-0.2438,0.4546,0.5078,-0.0787,1.015,-2.4325,114.41289214281687,33.8536461208223,85.02056543451411,0.2891500000000633
0.5059,-0.3091,0.6925,-0.2438,0.4546,0.5078,-0.0787,1.015,-2.4325,114.29894620301353,33.847492538372464,85.05674383678752,0.2938333333333958
0.5039,-0.3127,0.6748,-0.2449,0.4557,0.5033,0.0175,0.805,-2.52,114.50159434504089,33.87900752570235,85.05661535658842,0.29408333333321934
0.5039,-0.3127,0.6748,-0.2449,0.4557,0.5033,-0.07,1.3125,-2.0475,114.61767372199829,33.93999434340148,85.05636433840911,0.29408333333321934
0.5045,-0.3134,0.6939,-0.2449,0.4557,0.4828,-0.07,1.3125,-2.0475,114.5176270332311,33.83535563773269,84.76683847397656,0.29408333333321934
0.5049,-0.3131,0.6689,-0.244,0.4555,0.4887,-0.1925,1.4,-2.3625,114.66461952579257,33.848634327860246,84.65602431514222,0.29434999999989486
0.5049,-0.3131,0.6689,-0.244,0.4555,0.4887,-0.1925,0.8487,-2.8788,114.77342515833458,34.01615736172828,84.6351098727456,0.29434999999989486
0.5025,-0.3113,0.6767,-0.244,0.4566,0.4947,-0.3237,0.8487,-2.8788,114.76086068220361,34.01221912058373,84.64077396907447,0.29434999999989486
0.5023,-0.3114,0.6766,-0.244,0.4566,0.4947,-0.4725,0.9975,-2.5988,114.75774842398926,34.00929066568876,84.64334502409466,0.2945999999999458
0.509,-0.3121,0.6919,-0.244,0.4566,0.4947,-0.4725,0.9975,-2.5988,114.72602758470856,33.980820239764455,84.65298518895109,0.2945999999999458
0.509,-0.3121,0.6919,-0.2449,0.4566,0.4942,-0.735,1.61,-2.3888,114.65417377036928,33.980789775239096,84.68641997885125,0.2945999999999458
0.4964,-0.3115,0.6714,-0.2449,0.4566,0.4942,-0.7788,1.3563,-2.4938,114.69895123385152,33.96824721314318,84.61019913326699,0.2948666666666213
0.5059,-0.3078,0.6841,-0.2449,0.4566,0.4942,-0.7788,1.3563,-2.4938,114.6085876970771,33.97083824105116,84.68028204201256,0.2948666666666213
0.5059,-0.3078,0.6841,-0.243,0.455,0.4982,-0.2362,1.4963,-2.7037,114.51833644586772,33.976738471594864,84.87144509709886,0.2948666666666213
0.5052,-0.3159,0.6764,-0.243,0.455,0.4982,-0.4812,0.7788,-2.59,114.54856463645494,33.995285659478704,84.86825763731238,0.2948666666666213
0.5051,-0.3126,0.6869,-0.243,0.455,0.4982,-0.4812,0.7788,-2.59,114.5439429601001,33.961507969100595,84.88333740948624,0.2948666666666213
0.5051,-0.3126,0.6869,-0.245,0.4558,0.4939,-0.6212,0.805,-2.4325,114.53858903474563,33.954451961335586,84.84866788092853,0.2948666666666213
0.5003,-0.3084,0.669,-0.245,0.4558,0.4939,-0.9187,0.7262,-2.7738,114.59601809094117,34.01777592272958,84.81720237982138,0.2948666666666213
0.5018,-0.3113,0.6884,-0.245,0.4558,0.4939,-0.9187,0.7262,-2.7738,114.5242160281333,33.89921391691623,84.77009227103468,0.2948666666666213
0.5018,-0.3113,0.6837,-0.2444,0.4559,0.4919,-0.7788,0.875,-2.555,114.51590028958961,33.87672865054198,84.75332471147591,0.29513333333329683
0.5094,-0.3113,0.6837,-0.2444,0.4559,0.4919,-0.8925,0.8487,-2.3275,114.50675791224874,33.89191468101853,84.75143546863877,0.29513333333329683
0.5025,-0.3116,0.6816,-0.2444,0.4559,0.4919,-0.8925,0.8487,-2.3275,114.52259426339114,33.88901720874458,84.73134109338477,0.29513333333329683
0.5031,-0.3095,0.679,-0.2429,0.4559,0.4961,-0.4288,1.1375,-2.45,114.52071471890957,33.89474997323562,84.76820928533431,0.29513333333329683
0.5031,-0.3095,0.679,-0.2429,0.4559,0.4961,-0.4112,1.0938,-2.66,114.5187999363028,33.91467404215999,84.79304708993575,0.29513333333329683
0.5085,-0.3093,0.6952,-0.2429,0.4559,0.4961,-0.4112,1.0938,-2.66,114.45640517519472,33.880436729897916,84.83232130187689,0.29513333333329683
0.503,-0.3062,0.6917,-0.243,0.4555,0.4947,-0.4462,1.0237,-2.6425,114.40512447258408,33.82811413168592,84.84479071616454,0.29513333333329683
0.503,-0.3062,0.6917,-0.243,0.4555,0.4947,-0.4462,1.0237,-2.765,114.35838940918032,33.77176207804443,84.85632980310659,0.29538333333334776
0.5061,-0.311,0.689,-0.243,0.4555,0.4947,-0.7788,0.4375,-2.765,114.34601018834151,33.78011053405055,84.86741840284635,0.29538333333334776
0.5,-0.3124,0.6772,-0.2434,0.4574,0.4923,-0.9275,1.0412,-2.345,114.46210558677353,33.78258217922377,84.83392708944035,0.29538333333334776
0.5,-0.3124,0.6772,-0.2434,0.4574,0.4923,-0.9275,1.0412,-2.345,114.54598736328226,33.78495061960729,84.80342842680662,0.29538333333334776
0.511,-0.3079,0.6901,-0.2441,0.4553,0.4937,-0.3325,1.5137,-2.59,114.45868557636435,33.832289802744626,84.88848252957044,0.29538333333334776
0.5063,-0.3085,0.6847,-0.2441,0.4553,0.4937,-0.2625,1.3913,-2.5638,114.41390678479189,33.85534574461071,84.88679506449616,0.29538333333334776
0.4979,-0.3106,0.6702,-0.2441,0.4553,0.4937,-0.2625,1.3913,-2.5638,114.51286394160648,33.87419123610197,84.78725350107389,0.29538333333334776
0.4979,-0.3106,0.6702,-0.2448,0.4554,0.4971,0.1225,0.84,-2.31,114.65365713918845,33.8820263522656,84.77728997269192,0.29538333333334776
0.5015,-0.3102,0.688,-0.2448,0.4554,0.4971,-0.3762,0.8487,-2.6075,114.59857817246574,33.83213260391783,84.77686588075575,0.29538333333334776
0.5049,-0.3101,0.6888,-0.2448,0.4554,0.4971,-0.3762,0.8487,-2.6075,114.54682701820019,33.81895816640082,84.78550784534265,0.29538333333334776
0.5049,-0.3101,0.6888,-0.2432,0.4561,0.4926,-0.6037,1.1113,-2.6425,114.52924895018647,33.806771901241646,84.78256752924136,0.29538333333334776
0.4966,-0.3085,0.6737,-0.2432,0.4561,0.4926,-0.5075,1.2163,-2.3537,114.53184192976043,33.80755186798904,84.74707812684638,0.29538333333334776
0.5043,-0.3077,0.6886,-0.2432,0.4561,0.4926,-0.5075,1.2163,-2.3537,114.51606633356334,33.80622404841631,84.76969579809193,0.2956500000000233
0.5043,-0.3077,0.6886,-0.2431,0.4558,0.4946,-0.5688,1.085,-2.135,114.5052273230708,33.79852244836812,84.79387488004735,0.2956500000000233
0.5023,-0.3073,0.6991,-0.2431,0.4558,0.4946,-0.1488,1.6625,-2.7213,114.28546117528754,33.68282885916799,84.83553697242861,0.2956500000000233
0.504,-0.3121,0.6782,-0.2431,0.4558,0.4946,-0.1488,1.6625,-2.7213,114.4059811409169,33.76773320991253,84.81294077068584,0.2956500000000233
0.504,-0.3104,0.6897,-0.2443,0.4551,0.4971,-0.6125,1.505,-2.5463,114.39462720466267,33.75558272395402,84.83600963538066,0.2956500000000233
0.5094,-0.3104,0.6897,-0.2443,0.4551,0.4971,-0.7525,1.0938,-2.625,114.36619224049112,33.794842330212774,84.86257490970604,0.2956500000000233
0.5054,-0.309,0.683,-0.2443,0.4551,0.4971,-0.7525,1.0938,-2.625,114.36213884436853,33.83163058677656,84.88000384658108,0.2956500000000233
0.5023,-0.3097,0.6833,-0.2446,0.4559,0.5019,-0.385,1.2775,-2.66,114.3648572615097,33.825768568543985,84.929072106938,0.2956500000000233
0.5023,-0.3097,0.6833,-0.2446,0.4559,0.5019,-0.385,1.2775,-2.66,114.3672038317451,33.821157979454924,84.96584322343239,0.2956500000000233
0.5048,-0.309,0.6858,-0.2446,0.4559,0.5019,-0.0088,1.1725,-2.4675,114.3280556588828,33.82440450544435,85.00519164465506,0.2956500000000233
0.5009,-0.3124,0.6797,-0.2449,0.4562,0.4882,-0.0525,1.0325,-2.1613,114.44533123493444,33.82107035605859,84.94006491159058,0.2956500000000233
0.5009,-0.3124,0.6797,-0.2449,0.4562,0.4882,-0.0525,1.0325,-2.1613,114.52398878538612,33.818353646775215,84.88028402456727,0.2956500000000233
0.505,-0.3114,0.6785,-0.2449,0.4562,0.5086,-0.6388,1.2687,-2.3275,114.53521121951746,33.83320095797575,85.00689675955563,0.2959000000000742
0.5051,-0.3109,0.6793,-0.2431,0.4569,0.4935,-0.2625,1.6712,-2.66,114.5477726976994,33.88227783865229,84.91775264101555,0.2959000000000742
0.5051,-0.3109,0.6793,-0.2431,0.4569,0.4935,-0.2625,1.6712,-2.66,114.55757896718232,33.92087774086953,84.8661683111063,0.2959000000000742
0.5045,-0.311,0.6819,-0.2429,0.4561,0.493,-0.6913,0.8138,-2.7475,114.55231575998138,33.92753647299091,84.85515811786729,0.2959000000000742
0.5043,-0.3122,0.6831,-0.2429,0.4561,0.493,-0.5512,0.805,-2.1613,114.55239023528561,33.918612607617064,84.83745257683655,0.2959000000000742
0.5025,-0.3093,0.6837,-0.2429,0.4561,0.493,-0.5512,0.805,-2.1613,114.55077197900664,33.89806884465937,84.83075025124879,0.2959000000000742
0.5025,-0.3093,0.6837,-0.2432,0.4547,0.4949,-0.49,0.8313,-2.2575,114.54015569352053,33.88759377808135,84.83501922502683,0.2959000000000742
0.5072,-0.3082,0.6978,-0.2432,0.4547,0.4949,-0.735,1.085,-2.4675,114.4259669263074,33.86798830853458,84.85899233041806,0.2959000000000742
0.5019,-0.3127,0.6828,-0.2432,0.4547,0.4949,-0.735,1.085,-2.4675,114.45494305389761,33.85974141492793,84.84019524832011,0.2959000000000742
0.5019,-0.3127,0.6828,-0.2449,0.4554,0.4926,-0.7788,1.1287,-2.6513,114.4837630024744,33.83800097024434,84.77972770925639,0.29616666666652236
0.5043,-0.307,0.685,-0.2449,0.4554,0.4926,-0.6125,1.0063,-2.45,114.46161123195249,33.841238197281385,84.779205489314,0.29616666666652236
0.5009,-0.3145,0.6881,-0.2449,0.4554,0.4926,-0.6125,1.0063,-2.45,114.46816120019419,33.821917246528955,84.75289610344207,0.2964333333331979
0.5009,-0.3145,0.6881,-0.2442,0.455,0.4933,-0.5163,0.8838,-2.6775,114.47067029751172,33.75140885572786,84.73484199852477,0.2964333333331979
0.5039,-0.3066,0.684,-0.2442,0.455,0.4933,-0.5163,0.8838,-2.5375,114.46203390957635,33.772088330631725,84.74257339197888,0.2966833333332488
0.5021,-0.31,0.6831,-0.2442,0.455,0.4933,-0.4462,0.6737,-2.5375,114.45734955446487,33.775146216866204,84.72743542810211,0.2966833333332488
0.5021,-0.312,0.6811,-0.2426,0.4556,0.5041,-0.8138,0.7088,-2.0912,114.49019371289282,33.78787202408757,84.82414916754925,0.2966833333332488
0.4994,-0.312,0.6811,-0.2426,0.4556,0.5041,-0.8138,0.7088,-2.0912,114.51604841466303,33.764965790504924,84.88707204687518,0.29694999999992433
0.5046,-0.3095,0.6863,-0.2426,0.4556,0.5041,-0.6737,1.0588,-2.24,114.48814554302726,33.77360393710916,84.94156979909815,0.29694999999992433
0.5058,-0.3094,0.6758,-0.2433,0.4564,0.4986,-0.5425,0.875,-2.59,114.48825290255968,33.851115458099386,84.95395611291744,0.29719999999997526
0.5058,-0.3094,0.6758,-0.2433,0.4564,0.4986,-0.5425,0.875,-2.59,114.4883601586972,33.91563177912668,84.96555295978911,0.29719999999997526
0.5061,-0.3115,0.6843,-0.2433,0.4564,0.4986,-0.4638,1.155,-2.9225,114.48741042236281,33.9260564359511,84.97787669166625,0.2974666666666508
0.504,-0.3116,0.6853,-0.2441,0.4558,0.493,-0.4812,1.1375,-2.66,114.48526941530379,33.899529299970645,84.92211384870849,0.2974666666666508
0.504,-0.3116,0.6853,-0.2441,0.4558,0.493,-0.4812,1.1375,-2.66,114.48325390215544,33.87866520182843,84.87542787877004,0.2977333333333263
0.5041,-0.3101,0.6747,-0.2441,0.4558,0.4971,-0.21,0.6562,-2.8525,114.5334712058498,33.97150911572402,84.88727685571283,0.2977333333333263
0.5072,-0.3082,0.6975,-0.2442,0.4554,0.4971,-0.6475,0.6737,-2.31,114.46802007131839,33.946563436753586,84.92234226628342,0.29798333333337723
0.5072,-0.3082,0.6776,-0.2442,0.4554,0.4971,-0.6475,0.6737,-2.31,114.4670729177724,33.97003705305382,84.95995974154215,0.29798333333337723
0.5015,-0.3115,0.6776,-0.2437,0.4566,0.4949,-0.945,0.9363,-2.3537,114.53058275541068,33.96832388717778,84.95816741857719,0.29798333333337723
0.4996,-0.3096,0.6827,-0.2437,0.4566,0.4949,-1.05,0.9625,-2.3537,114.484654152682,33.95868412618683,84.95347067224613,0.29825000000005275
0.5043,-0.312,0.6787,-0.2437,0.4566,0.4949,-1.05,0.9625,-2.3537,114.5531432636382,33.960886845044655,84.94964242245265,0.29825000000005275
0.5043,-0.312,0.6787,-0.2423,0.4562,0.4942,-0.4988,0.6125,-2.2838,114.55892412026311,33.96687687073594,84.9197229955847,0.2984999999998763
0.5047,-0.3058,0.6958,-0.2423,0.4562,0.4942,-1.05,0.6125,-2.3888,114.27860668234926,33.966791221415406,84.95865142734101,0.2984999999998763
0.507,-0.3125,0.6881,-0.2423,0.4562,0.4942,-1.05,0.6125,-2.3888,114.3278720554641,33.96676639365616,84.93689411925234,0.29876666666655183
0.507,-0.3125,0.6881,-0.2439,0.4558,0.487,-0.8838,0.7175,-2.4413,114.35256800150638,33.96123981113523,84.83678437996012,0.29876666666655183
0.5042,-0.3133,0.668,-0.2439,0.4558,0.487,-0.8838,0.7175,-2.7037,114.54924604501082,34.05373468363479,84.73841555314715,0.29903333333322735
0.5023,-0.3137,0.6666,-0.2439,0.4558,0.487,-0.1838,1.12,-2.7037,114.72179292578122,34.10944309091002,84.66205632258968,0.29903333333322735
0.5023,-0.3137,0.6666,-0.2442,0.4537,0.494,-0.3413,1.05,-2.7825,114.80247001972964,34.15940189339603,84.65509309537012,0.29903333333322735
0.4967,-0.3126,0.6498,-0.2442,0.4537,0.494,-0.3413,1.05,-2.7825,114.95186810531804,34.27263714150717,84.63868366488488,0.2992833333332783
0.5068,-0.3092,0.6946,-0.2442,0.4537,0.494,-0.0263,1.1638,-2.7475,114.62608910397289,34.11774071755508,84.68096927042599,0.2992833333332783
0.5031,-0.3033,0.6905,-0.2442,0.4546,0.4958,-0.5075,0.8662,-2.66,114.59440239129606,34.029989537157974,84.71142995059705,0.2995499999999538
0.5031,-0.3033,0.6905,-0.2442,0.4546,0.4958,-0.5075,0.8662,-2.66,114.56381569844106,33.96097156095246,84.73971610440776,0.2995499999999538
0.5039,-0.3085,0.6881,-0.2442,0.4546,0.4958,-0.2537,1.4262,-2.6775,114.47048904314771,33.914059694023855,84.79530025995793,0.29980000000000473
0.4976,-0.3113,0.6811,-0.2446,0.4559,0.492,-0.3762,0.9187,-2.59,114.48374494242164,33.86187381851829,84.78534398222679,0.29980000000000473
0.4976,-0.3113,0.6811,-0.2446,0.4559,0.492,-0.3762,0.9187,-2.59,114.49510132733023,33.81843716995049,84.775624623582,0.30006666666668025
0.5068,-0.3093,0.6858,-0.2446,0.4559,0.492,-0.805,0.8225,-2.5988,114.44960903591507,33.84408638691038,84.7705606843662,0.30006666666668025
0.4989,-0.3117,0.6848,-0.2434,0.4568,0.4949,-1.0412,0.7175,-2.66,114.45757367934573,33.780757586610804,84.74199142382992,0.30033333333335577
0.4989,-0.3117,0.6848,-0.2434,0.4568,0.4949,-1.0412,0.7175,-2.66,114.46289146794842,33.73094827792207,84.7186805393672,0.30033333333335577
0.502,-0.3087,0.6824,-0.2434,0.4552,0.4907,-0.455,1.2862,-2.6075,114.45296517574455,33.74907957225741,84.70236751864766,0.30033333333335577
0.5118,-0.3102,0.6972,-0.2428,0.4552,0.4907,-0.4812,1.1025,-2.9225,114.42555674764353,33.78399896126593,84.72862243192377,0.3005833333334067
0.5118,-0.3076,0.6738,-0.2428,0.4552,0.4907,-0.4812,1.1025,-2.9225,114.43211369665913,34.08318332152212,84.7734981113214,0.3005833333334067
0.5004,-0.3076,0.6738,-0.2444,0.4551,0.4983,-0.7875,0.7,-2.59,114.4527715761207,34.07633898872593,84.81361165631999,0.30084999999985484
0.5004,-0.3093,0.6846,-0.2444,0.4551,0.4983,-0.35,1.0325,-2.4325,114.43016186064116,34.059155384188486,84.81910449526698,0.30084999999985484
0.5049,-0.3117,0.6817,-0.2444,0.4551,0.4983,-0.35,1.0325,-2.4325,114.45311202853011,34.05512090110093,84.82705272854159,0.3010999999999058
0.5049,-0.3117,0.6817,-0.2448,0.4555,0.4978,-0.7175,1.1638,-2.7037,114.47069706943923,34.03311232457161,84.8321251251268,0.3010999999999058
0.5014,-0.3095,0.6715,-0.2448,0.4555,0.4978,-0.7175,1.1638,-2.7475,114.5114144114372,34.06190345352668,84.83831413894676,0.3013666666665813
0.501,-0.3102,0.6906,-0.2448,0.4555,0.4978,-0.6562,1.085,-2.7475,114.47868912370564,33.91220434048569,84.83163085342538,0.3013666666665813
0.501,-0.3102,0.6906,-0.2434,0.4556,0.5005,-0.6737,1.1638,-2.6337,114.44524015247102,33.83009545226423,84.8663934936844,0.3013666666665813
0.5056,-0.3126,0.6812,-0.2434,0.4556,0.5005,-0.6737,1.1638,-2.6337,114.46885794023798,33.86411295298111,84.904316770422,0.3016333333332568
0.5063,-0.3108,0.6855,-0.2434,0.4556,0.5005,-0.8575,0.9975,-2.7475,114.449807529413,33.8809178821793,84.91796161776684,0.3016333333332568
0.5063,-0.3108,0.6724,-0.2425,0.4565,0.4899,-1.1375,0.6562,-2.4237,114.58312582246862,33.89691257626325,84.87257376288031,0.30188333333330775
0.4997,-0.3072,0.6724,-0.2425,0.4565,0.4899,-1.1375,0.6562,-2.4237,114.57237680973965,33.90234022366741,84.83007535683073,0.30188333333330775
0.5058,-0.3102,0.6913,-0.2425,0.4565,0.4899,-0.805,0.735,-2.5375,114.48827750054308,33.879316030465844,84.80682549312982,0.30214999999998327
0.4992,-0.3118,0.6794,-0.2433,0.4554,0.4889,-0.1838,0.9275,-2.6862,114.53159032589308,33.846195257741115,84.79991178142247,0.30214999999998327
0.4992,-0.3118,0.6794,-0.2433,0.4554,0.4889,-0.1838,0.9275,-2.6862,114.56344586178281,33.8206711096053,84.79310410606645,0.3024000000000342
0.5059,-0.3079,0.6826,-0.2433,0.4554,0.4889,-0.5512,0.8575,-2.73,114.56125983023782,33.87712865338616,84.78732387306476,0.3024000000000342
0.5063,-0.3116,0.6789,-0.2444,0.4553,0.4914,-0.8575,0.7,-2.5725,114.58344022200592,33.91622117257494,84.7541996226469,0.3026666666667097
0.5063,-0.3116,0.6789,-0.2444,0.4553,0.4914,-0.8575,0.7,-2.5725,114.60031981416935,33.94924059457278,84.72755261923129,0.3026666666667097
0.508,-0.315,0.6836,-0.2444,0.4553,0.4914,-0.42,1.085,-2.5025,114.61567569963357,33.9560791054196,84.70058445341817,0.3026666666667097
0.5006,-0.3092,0.6905,-0.245,0.4553,0.499,-0.455,0.6212,-2.45,114.57558735640778,33.929193972665125,84.74009329616044,0.30293333333338524
0.5006,-0.3092,0.6905,-0.245,0.4553,0.499,-0.455,0.6212,-2.45,114.53875715970324,33.90386469103479,84.76998175978508,0.30293333333338524
0.5077,-0.3085,0.6789,-0.2435,0.4566,0.4962,-0.3762,0.875,-3.0013,114.52426118295409,34.03471113260437,84.7903405957368,0.3031833333332088
0.4959,-0.3072,0.6791,-0.2435,0.4566,0.4962,-0.0613,0.8575,-2.7562,114.4644023548608,33.927741861002026,84.7905696236147,0.3031833333332088
0.5051,-0.3093,0.6906,-0.2435,0.4566,0.4962,-0.0613,0.8575,-2.7562,114.3543956088182,33.87277469690808,84.80329853633559,0.3034499999998843
0.5051,-0.3093,0.6906,-0.2438,0.4573,0.4904,-0.6037,0.9013,-2.415,114.34143342680716,33.868925358719885,84.7963536871827,0.3070833333333667
0.5049,-0.3112,0.6873,-0.2438,0.4573,0.4904,-0.6037,0.9013,-2.415,114.34250897702171,33.866915394982854,84.78641210516132,0.3070833333333667
0.5083,-0.3131,0.678,-0.2438,0.4573,0.4904,-0.2625,0.7962,-2.66,114.44010471436741,33.94667686037248,84.7598232038838,0.3073500000000422
0.5083,-0.3131,0.678,-0.2427,0.4537,0.4958,-0.7613,0.9013,-2.6075,114.50223752763041,33.99945592044411,84.7688204882129,0.3073500000000422
0.4997,-0.3118,0.6723,-0.2427,0.4537,0.4958,-0.7613,0.9013,-2.6075,114.5699831337181,33.9979506782387,84.76989292922097,0.3073500000000422
0.5023,-0.3101,0.6871,-0.2427,0.4537,0.4958,-0.8313,0.91,-2.7037,114.50751137486557,33.92093351223346,84.77474664812287,0.30759999999986576
0.5023,-0.3101,0.6871,-0.2446,0.455,0.4976,-0.6475,0.5863,-2.555,114.48705922183045,33.88606235006959,84.79410671610621,0.30759999999986576
0.5094,-0.3155,0.6908,-0.2446,0.455,0.4976,-0.6475,0.5863,-2.555,114.49270558988317,33.881219850962296,84.80009280019095,0.30759999999986576
0.5026,-0.31,0.6837,-0.2446,0.455,0.4976,-0.84,0.8838,-2.5113,114.4692757331817,33.87264296496611,84.80396737705736,0.3078666666665413
0.5026,-0.31,0.6841,-0.2453,0.4566,0.4958,-0.9187,0.5425,-2.485,114.44427898212706,33.86536664357408,84.77536062965254,0.3078666666665413
0.5025,-0.3079,0.6841,-0.2453,0.4566,0.4958,-0.9187,0.5425,-2.485,114.38624251098899,33.86094900039705,84.78046974124085,0.3078666666665413
0.4995,-0.3088,0.6759,-0.2453,0.4566,0.4958,-0.8313,0.7613,-2.5375,114.42381484662111,33.867093323454135,84.76505658404088,0.3078666666665413
0.504,-0.3096,0.6857,-0.243,0.4566,0.4965,-0.385,0.7088,-2.345,114.40682698488735,33.865044485909635,84.80394382731212,0.3078666666665413
0.504,-0.3096,0.6857,-0.243,0.4566,0.4965,-0.385,0.7088,-2.345,114.39216285917107,33.863081198609244,84.835449943668,0.3078666666665413
0.5125,-0.3145,0.6916,-0.243,0.4566,0.4965,-0.2537,1.0063,-2.5638,114.40590195511096,33.88381887194378,84.84493009607041,0.3078666666665413
0.4997,-0.3078,0.6806,-0.2438,0.4558,0.4924,-0.49,0.8662,-2.3537,114.40229180320524,33.88036985122407,84.83288331451988,0.3078666666665413
0.4997,-0.3078,0.6806,-0.2438,0.4558,0.4924,-0.49,0.8662,-2.3537,114.39886486891447,33.87703706154444,84.82169652834344,0.3078666666665413
0.502,-0.3091,0.6872,-0.2438,0.4558,0.4924,-0.175,0.8313,-2.625,114.35017646677436,33.837820681641915,84.80683458684013,0.3081333333332168
0.5033,-0.3123,0.6768,-0.244,0.4557,0.4946,-0.175,0.8313,-2.2925,114.46329863833276,33.85451606135372,84.79480686417803,0.3081333333332168
0.5033,-0.3123,0.6768,-0.244,0.4557,0.4946,-0.0962,1.2337,-2.2925,114.55817736666533,33.869748029706074,84.77057612958978,0.3081333333332168
0.5011,-0.3113,0.6831,-0.2451,0.4554,0.4968,0.0437,0.7437,-2.3537,114.5364852086775,33.86483375912378,84.75637550267707,0.3081333333332168
0.503,-0.3104,0.6706,-0.2451,0.4554,0.4968,0.0437,0.7437,-2.3537,114.64801401943619,33.877571571179196,84.76422195555041,0.3081333333332168
0.5033,-0.3086,0.6898,-0.2451,0.4554,0.4968,-0.2625,1.3825,-3.01,114.52838376268208,33.79586468069824,84.79165610774831,0.3081333333332168
0.5033,-0.3086,0.6898,-0.245,0.4552,0.4947,-0.385,1.2337,-2.5463,114.47014147440385,33.77795181431574,84.78441790080929,0.3081333333332168
0.5012,-0.3102,0.6843,-0.245,0.4552,0.4947,-0.385,1.2337,-2.5463,114.45853067916336,33.76825188365098,84.75175306895218,0.3081333333332168
0.5018,-0.3076,0.6836,-0.245,0.4552,0.4947,-0.5863,0.9625,-2.6337,114.44899357443752,33.77423895113342,84.75215817019081,0.3081333333332168
0.5018,-0.3076,0.6836,-0.2431,0.4549,0.4962,-0.35,0.8313,-2.5725,114.41290261053155,33.778033351206396,84.7767973123424,0.30838333333326773
0.5043,-0.3107,0.6794,-0.2431,0.4549,0.4962,-0.35,0.8313,-2.5725,114.43923453268934,33.81573001533901,84.79352797061493,0.30838333333326773
0.5086,-0.312,0.6755,-0.2431,0.4549,0.4962,-0.28,1.1113,-2.555,114.51264380211977,33.89252810166503,84.8259309109229,0.30838333333326773
0.5086,-0.312,0.6755,-0.2428,0.456,0.4885,-0.4112,0.8313,-2.7037,114.54519174718483,34.003100736306834,84.806963082242,0.30838333333326773
0.5085,-0.311,0.6881,-0.2428,0.456,0.4885,-0.4112,0.8313,-2.7037,114.51906177905522,33.99193995768506,84.79211770250942,0.30838333333326773
0.5052,-0.3106,0.6831,-0.2428,0.456,0.4885,-0.7525,1.1025,-2.345,114.5072779623631,33.99019314151604,84.76420114248224,0.30838333333326773
0.5052,-0.3106,0.6784,-0.2444,0.4549,0.5024,-0.525,0.9187,-2.135,114.50896429870355,34.01279942182937,84.77426792288543,0.30838333333326773
0.4986,-0.3107,0.6784,-0.2444,0.4549,0.5024,-0.525,0.9187,-2.135,114.5107466368558,33.9599514246565,84.77924739175903,0.30838333333326773
0.501,-0.3085,0.6805,-0.2444,0.4549,0.5024,0.245,1.19,-2.7387,114.45611958913324,33.92969872785393,84.85259675550427,0.30864999999994325
0.4982,-0.3082,0.6848,-0.2455,0.455,0.5074,-1.995,1.0412,-2.73,114.32254873874763,33.835869564831256,84.88619015153627,0.30864999999994325
0.4982,-0.3082,0.6848,-0.2455,0.455,0.5074,-0.2887,1.0412,-2.73,114.30386516766804,33.76592218572122,84.91678177509795,0.30864999999994325
0.5043,-0.3057,0.6958,-0.2455,0.455,0.5074,-0.4812,0.875,-2.4413,114.26954283480515,33.75593893126387,84.95361268729947,0.30864999999994325
0.5097,-0.3045,0.7182,-0.2442,0.4571,0.4935,-0.4812,0.875,-2.4413,114.19371133112705,33.72610360757768,84.95755805999444,0.30864999999994325
0.5097,-0.3045,0.7182,-0.2442,0.4571,0.4935,-0.8225,0.7437,-2.4938,113.92801220893139,33.672229213353276,84.96719216841508,0.30864999999994325
0.4984,-0.3107,0.6719,-0.2442,0.4571,0.4935,-0.4112,1.26,-2.5812,114.03183079901558,33.71733400819951,84.8622832251885,0.30864999999994325
0.5009,-0.3116,0.683,-0.2424,0.4558,0.4909,-0.4112,1.26,-2.5812,114.0892693067483,33.71650192881728,84.79255774855476,0.30864999999994325
0.5009,-0.3116,0.683,-0.2424,0.4558,0.4909,-0.35,1.2425,-2.3712,114.15966601225313,33.71642815608627,84.74186193614909,0.30864999999994325
0.5051,-0.3123,0.6726,-0.2432,0.4573,0.4969,-0.4375,0.98,-2.6163,114.23119925970383,33.817207248449,84.74745280347173,0.3088999999999942
0.5006,-0.3062,0.6857,-0.2432,0.4573,0.4969,-0.4375,0.98,-2.6163,114.21510269251972,33.793224049655386,84.75689159123941,0.3088999999999942
0.5006,-0.3116,0.6799,-0.2432,0.4573,0.4969,-0.1663,1.0588,-2.3625,114.3265708821325,33.79329235667194,84.75998705221086,0.3088999999999942
0.5054,-0.3116,0.6799,-0.2446,0.4542,0.4962,-0.84,1.4525,-2.7125,114.39416572451634,33.85588279950603,84.78389271487728,0.3088999999999942
0.5058,-0.3115,0.6889,-0.2446,0.4542,0.4962,-0.84,1.4525,-2.7125,114.379732966258,33.83794454650668,84.79915629936569,0.3088999999999942
0.5029,-0.3101,0.6771,-0.2446,0.4542,0.4962,-0.9625,0.6737,-2.8788,114.44683058964058,33.901193945593825,84.80526786752151,0.3091666666666697
0.5029,-0.3101,0.6771,-0.2444,0.4554,0.503,-0.525,0.9187,-2.7912,114.44973351527987,33.938229607517464,84.81383941814937,0.3091666666666697
0.5042,-0.3098,0.6878,-0.2444,0.4554,0.503,-0.525,0.9187,-2.7912,114.44607318712417,33.88659478850258,84.8229138700984,0.3091666666666697
0.5051,-0.309,0.6818,-0.2444,0.4554,0.503,-0.35,0.7088,-2.7387,114.43546111414773,33.91865483493561,84.90808925310215,0.3094333333333452
0.5051,-0.309,0.6818,-0.2443,0.455,0.5003,-0.6125,1.1375,-2.6775,114.43191883033401,33.9391805596413,84.94754287036476,0.3094333333333452
0.502,-0.3055,0.6971,-0.2443,0.455,0.5003,-0.6125,1.1375,-2.6775,114.38240290338183,33.82001919342267,84.98357311628857,0.30968333333339615
0.5077,-0.3108,0.6857,-0.2443,0.455,0.5003,-0.6125,0.9013,-2.2838,114.38243236515902,33.83657805281668,84.98986011243471,0.30968333333339615
0.5077,-0.3108,0.7325,-0.2429,0.457,0.4941,-0.6125,0.9013,-2.5025,114.29261087626843,33.70395214512553,84.9812242936764,0.30995000000007167
0.5092,-0.3051,0.7208,-0.2429,0.457,0.4941,-0.07,0.385,-2.5025,113.85860800623642,33.63669664812749,85.02284312030838,0.30995000000007167
0.4905,-0.3107,0.6523,-0.2429,0.457,0.4941,-0.0263,0.8138,-2.4062,114.40759921340235,33.64596272894926,84.9566817661997,0.3101999999998952
0.4903,-0.304,0.6942,-0.2435,0.4566,0.4966,-0.0263,0.8138,-2.4062,114.14911065573534,33.63306853638129,84.9319472420088,0.3101999999998952
0.4903,-0.304,0.6942,-0.2435,0.4566,0.4966,-0.6913,1.2163,-2.5287,114.08473622535921,33.54315435738855,84.89088906305683,0.31046666666657075
0.4987,-0.3082,0.6861,-0.2435,0.4566,0.4966,-1.0675,1.015,-2.415,114.12089162777316,33.54322481519632,84.88735304547652,0.31046666666657075
0.4936,-0.3155,0.6363,-0.2454,0.4552,0.5017,-1.0675,1.015,-2.415,114.89556146638202,33.575554278352705,84.8633674671293,0.31046666666657075
0.4936,-0.3155,0.6363,-0.2454,0.4552,0.5017,-0.4812,0.9013,-2.485,114.98220977270576,33.68314980486845,84.84999446638552,0.31073333333324626
0.5121,-0.3145,0.6869,-0.2454,0.4552,0.5017,-0.6913,0.875,-2.52,114.93309504794988,33.73522532258559,84.86523040442069,0.31073333333324626
0.5073,-0.3125,0.6747,-0.2432,0.4553,0.4905,-0.6913,0.875,-2.52,114.92266339548318,33.80131822002569,84.85205876915124,0.3109833333332972
0.5073,-0.3125,0.6747,-0.2432,0.4553,0.4905,-0.6737,0.6125,-2.5375,114.91453256663264,33.86650398024732,84.80398841725176,0.3109833333332972
0.512,-0.3145,0.6808,-0.2442,0.4563,0.4908,-0.8225,0.7175,-1.995,114.88842991999304,33.99527243744381,84.77086994334141,0.3112499999999727
0.5045,-0.3104,0.6872,-0.2442,0.4563,0.4908,-0.8225,0.7175,-1.995,114.7618295746841,33.93578458464578,84.73468529699814,0.3112499999999727
0.5045,-0.311,0.6837,-0.2442,0.4563,0.4908,0.0787,1.2775,-1.9512,114.64596533489369,33.92129449010755,84.6896064418262,0.31150000000002365
0.5097,-0.311,0.6837,-0.2432,0.4557,0.4961,-0.2275,0.49,-2.45,114.60125188979309,33.935145205907624,84.80467442495475,0.31150000000002365
0.5024,-0.3101,0.6856,-0.2432,0.4557,0.4961,-0.2275,0.49,-2.45,114.53791428752949,33.92326189737783,84.82736017054219,0.31150000000002365
0.5017,-0.3084,0.6775,-0.2432,0.4557,0.4961,-0.21,1.12,-2.7738,114.5222231595274,33.938752350514314,84.84545821638078,0.31514999999990323
0.5017,-0.3084,0.6775,-0.2438,0.4554,0.495,-0.49,0.9363,-2.73,114.51983509004387,33.948987132132594,84.845497050673,0.31514999999990323
0.5069,-0.3048,0.7022,-0.2438,0.4554,0.495,-0.49,0.9363,-2.73,114.46624806361358,33.83772407230245,84.8472222621604,0.31514999999990323
0.5071,-0.3159,0.6867,-0.2438,0.4554,0.495,-0.9187,0.9187,-2.6513,114.5310290719784,33.84167922487435,84.84287797185843,0.31514999999990323
0.5071,-0.3159,0.6867,-0.2442,0.4545,0.4947,-0.9187,0.9187,-2.6513,114.57813444761197,33.844811460770444,84.83784633200794,0.31539999999995416
0.5061,-0.3129,0.6755,-0.2442,0.4545,0.4947,-0.7088,1.2862,-2.7912,114.61729633940686,33.9493664672744,84.81578214088884,0.31539999999995416
0.5026,-0.309,0.6895,-0.2442,0.4545,0.4947,-0.14,0.7088,-2.8788,114.47996281776702,33.84478733825534,84.81132225121176,0.31539999999995416
0.5026,-0.309,0.6895,-0.2449,0.4548,0.496,-0.14,0.7088,-2.8788,114.38210956207979,33.77461060050161,84.80909954712024,0.31539999999995416
0.51,-0.3124,0.6927,-0.2449,0.4548,0.496,-0.3325,0.8225,-2.485,114.36342290780226,33.78279384613285,84.8151839181562,0.31539999999995416
0.5015,-0.3122,0.672,-0.2449,0.4548,0.496,-0.7613,0.8138,-2.7562,114.46276317796354,33.86546852161997,84.79736242776008,0.3156666666666297
0.5087,-0.3136,0.6745,-0.2438,0.456,0.5014,-0.7613,0.8138,-2.7562,114.5473149708126,34.000457985773465,84.8368343722323,0.3156666666666297
0.5087,-0.3136,0.6745,-0.2438,0.456,0.5014,-0.7437,1.3212,-2.4588,114.6120692807041,34.0245521292444,84.92060978238091,0.3156666666666297
0.504,-0.3093,0.6881,-0.2438,0.456,0.5014,-0.4025,1.3388,-1.9775,114.56163471922004,33.943243382879,84.99089491001627,0.3156666666666297
0.4999,-0.3087,0.6828,-0.2435,0.457,0.5006,-0.4025,1.3388,-1.9775,114.53278838369945,33.87472262748321,85.00838999102548,0.3156666666666297
0.4999,-0.3087,0.6828,-0.2435,0.457,0.5006,-0.4288,1.19,-2.205,114.51173773185101,33.84886915814642,85.01714480428625,0.3159333333333052
0.497,-0.31,0.6836,-0.2435,0.457,0.5006,-0.3762,0.9275,-2.6163,114.49478273394526,33.78597930856133,85.01544409447374,0.3159333333333052
0.5029,-0.3085,0.6847,-0.2433,0.4543,0.4996,-0.3762,0.9275,-2.6163,114.46035570931168,33.790102798864886,85.01751877221004,0.3159333333333052
0.5029,-0.3085,0.6847,-0.2433,0.4543,0.4996,-0.2275,1.4,-2.6688,114.41093709014552,33.79406626216316,85.05929236034227,0.3159333333333052
0.5028,-0.3136,0.6866,-0.2446,0.457,0.4912,0.0875,1.085,-2.8263,114.46405339432687,33.75570866492456,84.97322946358044,0.3159333333333052
0.5044,-0.3109,0.6752,-0.2446,0.457,0.4912,0.0875,1.085,-2.8263,114.56461706323734,33.87855937165499,84.92067740813157,0.3159333333333052
0.5044,-0.3083,0.6772,-0.2446,0.457,0.4912,-0.35,0.7,-2.8525,114.55053250180029,33.959152557532015,84.87032104127258,0.3159333333333052
0.5031,-0.3083,0.6772,-0.2439,0.4547,0.4896,-0.35,0.7,-2.905,114.53873108890718,33.99493754651429,84.82297911823973,0.3159333333333052
0.504,-0.3106,0.6892,-0.2439,0.4547,0.4896,-0.945,0.735,-2.905,114.458743381337,33.891640657073516,84.77253823388493,0.3159333333333052
0.5053,-0.3101,0.6985,-0.2439,0.4547,0.4896,-1.1725,0.9887,-2.59,114.25800770829352,33.82125830787709,84.76361950978156,0.3159333333333052
0.5053,-0.3101,0.6985,-0.2441,0.4566,0.495,-1.1725,0.9887,-2.59,114.13478411283982,33.76267591680279,84.76512757003364,0.3159333333333052
0.5042,-0.3098,0.6818,-0.2441,0.4566,0.495,-0.3325,1.1025,-2.4237,114.1873215343128,33.76907106630907,84.77216933270788,0.3159333333333052
0.499,-0.3093,0.6744,-0.2441,0.4566,0.495,-0.1138,1.785,-2.2313,114.32264747551461,33.79000068492659,84.73772473931696,0.31618333333335613
0.499,-0.3093,0.6744,-0.2434,0.4574,0.5012,-0.1138,1.785,-2.2313,114.41730324162599,33.80808594436581,84.87902343245656,0.31618333333335613
0.502,-0.3085,0.692,-0.2434,0.4574,0.5012,-0.42,1.1113,-2.2838,114.37449350014398,33.78146612311618,84.91586269885784,0.31618333333335613
0.5032,-0.3086,0.6832,-0.2434,0.4574,0.5012,-0.9625,0.98,-2.1875,114.35503354774882,33.79643091554594,84.92553239797985,0.31618333333335613
0.5032,-0.3086,0.6832,-0.2431,0.4556,0.4923,-0.9625,0.98,-2.1875,114.341320046192,33.808890414269804,84.92075087624436,0.31618333333335613
0.5095,-0.3121,0.6841,-0.2431,0.4556,0.4923,-0.7175,0.8487,-2.8875,114.36831303776262,33.91282750715636,84.91217942452992,0.31618333333335613
0.5039,-0.3095,0.6832,-0.2431,0.4556,0.4923,-0.42,1.4963,-2.695,114.36863580373873,33.90855224485011,84.86240046030883,0.31618333333335613
0.5036,-0.3106,0.6797,-0.2443,0.4557,0.4914,-0.42,1.4963,-2.695,114.38953447238728,33.92427176060135,84.76304060629708,0.31618333333335613
0.5036,-0.3106,0.6797,-0.2443,0.4557,0.4914,-0.56,0.9013,-2.3363,114.39228797807013,33.926820231961955,84.75583845171302,0.31618333333335613
0.5029,-0.3099,0.6899,-0.2443,0.4557,0.4914,-0.2362,0.8225,-2.695,114.34460123621669,33.855228402870104,84.7361519691404,0.31618333333335613
0.5033,-0.3107,0.6746,-0.2463,0.455,0.5002,-0.2362,0.8225,-2.695,114.43503225551278,33.91818253606535,84.75138781571496,0.31618333333335613
0.5033,-0.3107,0.6746,-0.2463,0.455,0.5002,-0.455,1.0938,-2.2313,114.45895209433661,33.946103035095675,84.76793853826325,0.31618333333335613
0.5022,-0.309,0.6952,-0.2463,0.455,0.5002,-0.455,0.98,-2.2487,114.41872676716969,33.882689379246756,84.77161495676022,0.31645000000003165
0.4988,-0.3113,0.6814,-0.244,0.4556,0.4927,-0.0787,0.98,-2.2487,114.46147659634578,33.85497088736301,84.76182343497074,0.31645000000003165
0.4988,-0.3113,0.6814,-0.244,0.4556,0.4927,-0.4725,1.0675,-2.5812,114.46757147576005,33.822964383290525,84.73247969235399,0.31645000000003165
0.5034,-0.3088,0.6836,-0.244,0.4554,0.4972,-0.4725,1.0675,-2.5812,114.45712644344947,33.82984919659817,84.7584129249669,0.31645000000003165
0.5035,-0.3112,0.6818,-0.2444,0.4554,0.4972,-0.7788,1.0588,-2.5988,114.47173259432782,33.84094536786828,84.76656956951264,0.3166999999998552
0.5035,-0.3112,0.687,-0.2444,0.4554,0.4972,-0.735,0.9013,-2.52,114.455341624606,33.82770285894676,84.76897435803038,0.3166999999998552
0.5023,-0.3106,0.687,-0.2444,0.4551,0.4942,-0.735,0.9013,-2.52,114.43490900385908,33.80967574842248,84.76505399727989,0.3169666666665307
0.4995,-0.3078,0.6856,-0.2444,0.4551,0.4942,-0.1663,1.3737,-2.6075,114.36446379846087,33.77380933253793,84.74919802929391,0.3169666666665307
0.5078,-0.3134,0.6856,-0.2444,0.4551,0.4942,-0.7175,1.015,-2.7125,114.39433696487242,33.82061002390966,84.74689617605762,0.31723333333320625
0.5078,-0.3134,0.6856,-0.2447,0.4554,0.4941,-0.7175,1.015,-2.7125,114.41978181188868,33.85595998057014,84.74260849324662,0.31723333333320625
0.5027,-0.3112,0.6784,-0.2447,0.4554,0.4941,-0.6825,0.9712,-2.6688,114.44692804375512,33.87900034084316,84.73984481946101,0.31723333333320625
0.504,-0.3118,0.6875,-0.2447,0.4554,0.4941,-0.56,0.9187,-2.6425,114.4460928951535,33.84853331776359,84.7373911645133,0.3174833333332572
0.504,-0.3118,0.6875,-0.2446,0.4559,0.4939,-0.56,0.9187,-2.6425,114.44527133192148,33.8242359929,84.73478277242947,0.3174833333332572
0.5007,-0.3088,0.6811,-0.2446,0.4559,0.4939,-0.5688,1.225,-2.5375,114.44387568478189,33.821569290622506,84.7213604208385,0.3177499999999327
0.5029,-0.3104,0.6834,-0.2446,0.4559,0.4939,-0.63,0.8575,-2.5025,114.44257379642815,33.82165129612429,84.71687590724741,0.3177499999999327
0.5029,-0.3104,0.6834,-0.244,0.4567,0.4889,-0.63,0.8575,-2.5025,114.44137559558277,33.82172491463701,84.69576265036906,0.31799999999998363
0.5028,-0.3079,0.6919,-0.244,0.4567,0.4889,-0.1925,0.875,-2.3012,114.32395135817552,33.80239075461538,84.68561623286352,0.31799999999998363
0.5033,-0.3085,0.6778,-0.244,0.4567,0.4889,-0.28,1.0938,-2.24,114.35495002104084,33.834722685733105,84.66843031175422,0.31826666666665915
0.507,-0.3078,0.6917,-0.2431,0.4545,0.4947,-0.28,1.0938,-2.24,114.27855987575944,33.83138320158289,84.71918023966131,0.31826666666665915
0.507,-0.3078,0.6917,-0.2431,0.4545,0.4947,-0.1838,1.33,-2.5113,114.20186233727993,33.828926268687084,84.81311493342454,0.31853333333333467
0.4998,-0.3124,0.6787,-0.2431,0.4545,0.4947,-0.1838,1.33,-2.4675,114.33792359682086,33.8253736140041,84.77203216069277,0.31853333333333467
0.5036,-0.3119,0.6759,-0.2439,0.4553,0.4935,-0.5512,1.3475,-2.4675,114.34125105508463,33.84394677187828,84.74355022981986,0.31853333333333467
