AcclX,AcclY,AcclZ,MagX,MagY,MagZ,GyroX,GyroY,GyroZ,Roll,Pitch,Yaw,Time(s)
-0.2883,-0.1565,0.9146,-0.249,0.7609,0.3341,-3.7362,1.26,-10.4387,0,0,0,1.620511076364877
-0.281,-0.1469,0.8773,-0.2488,0.7611,0.3358,-3.2813,1.33,-10.3162,0,0,0,1.6325221212316399
-0.2841,-0.1529,0.9126,-0.2488,0.7611,0.3358,-3.43,1.2687,-10.5875,0,0,0,1.6447182617571134
-0.2844,-0.1551,0.9161,-0.249,0.7608,0.3338,-3.01,0.9538,-9.7212,0,0,0,1.6568160149152418
-0.2857,-0.1529,0.9169,-0.249,0.7608,0.3338,-3.6575,1.26,-9.9225,0,0,0,1.6662527083069374
-0.2884,-0.1546,0.9201,-0.2505,0.7624,0.3375,-3.2462,1.3212,-10.1675,0,0,0,1.6785585613643426
-0.2886,-0.1553,0.9167,-0.249,0.7598,0.3346,-3.6312,1.26,-10.4912,0,0,0,1.69049351528154
-0.2871,-0.156,0.9119,-0.249,0.7598,0.3346,-3.4738,1.0237,-10.6312,0,0,0,1.7026726680601336
-0.2881,-0.1528,0.9125,-0.2494,0.76,0.3358,-3.8675,1.0237,-10.0975,0,0,0,1.7147867011423552
-0.2891,-0.1522,0.9137,-0.2494,0.76,0.3358,-3.885,1.5925,-9.5462,0,0,0,1.7268770221612235
-0.2865,-0.156,0.9196,-0.2506,0.7622,0.3327,-3.7625,1.4525,-9.6075,0,0,0,1.738998487382705
-0.2887,-0.155,0.9188,-0.2506,0.7622,0.3327,-3.5,1.5575,-10.0012,0,0,0,1.7512714266805305
-0.286,-0.1543,0.9163,-0.2482,0.761,0.3352,-3.4125,1.7937,-10.57,0,0,0,1.7633713033070189
-0.289,-0.1552,0.9121,-0.2496,0.7625,0.3356,-4.0687,1.4875,-9.5375,0,0,0,1.7727418152681622
-0.2876,-0.1555,0.9185,-0.2496,0.7625,0.3356,-3.8063,1.2337,-9.9137,0,0,0,1.7847956834135177
-0.2885,-0.1534,0.9162,-0.2481,0.7626,0.3346,-3.36,1.1638,-10.0975,0,0,0,1.7969787292174382
-0.2866,-0.1526,0.9157,-0.2481,0.7626,0.3346,-3.1412,1.3212,-9.73,0,0,0,1.8090800214894998
-0.2871,-0.1539,0.9132,-0.2512,0.7634,0.3352,-4.5588,1.4962,-9.8,0,0,0,1.8211859146096745
-0.286,-0.1542,0.9188,-0.2502,0.7606,0.3355,-3.9288,1.3387,-10.1412,0,0,0,1.8333608204515484
-0.2885,-0.1566,0.9138,-0.2502,0.7606,0.3355,-3.8675,1.5925,-9.4412,0,0,0,1.8454483101792702
-0.2859,-0.1542,0.9175,-0.2502,0.7618,0.3351,-2.8525,1.7587,-10.1587,0,0,0,1.8576292325148305
-0.2869,-0.1545,0.9162,-0.2502,0.7618,0.3351,-3.1412,1.5312,-10.5875,0,0,0,1.8697945827490845
-0.2853,-0.1551,0.9143,-0.2491,0.7623,0.3373,-4.06,1.365,-10.1412,0,0,0,1.879338865204352
-0.2871,-0.1538,0.9204,-0.2514,0.7606,0.3343,-3.2725,1.5225,-9.7475,0,0,0,1.8913994576661808
-0.2869,-0.1559,0.9198,-0.2514,0.7606,0.3343,-3.3163,1.435,-9.275,0,0,0,1.9034795152546427
-0.2883,-0.156,0.9143,-0.2494,0.762,0.3362,-3.6925,1.3037,-9.1087,0,0,0,1.9155008235518123
-0.2871,-0.1552,0.9137,-0.2494,0.762,0.3362,-4.3225,1.5662,-9.3362,0,0,0,1.9275932680390406
-0.2838,-0.1529,0.9166,-0.2488,0.7614,0.3338,-3.5525,1.3212,-9.975,0,0,0,1.9396881899060223
-0.2858,-0.1548,0.9145,-0.2499,0.761,0.3342,-2.9138,1.1987,-10.92,0,0,0,1.9518680505074026
-0.2885,-0.1539,0.9131,-0.2499,0.761,0.3342,-3.4213,1.5575,-10.2375,0,0,0,1.9641080760456489
-0.2858,-0.1552,0.9145,-0.2488,0.7602,0.3359,-4.1213,1.6887,-10.2287,0,0,0,1.9762061831151705
-0.2852,-0.1557,0.9167,-0.2488,0.7602,0.3359,-3.7888,1.47,-10.2462,0,0,0,1.9856120862156466
-0.2849,-0.1555,0.9146,-0.249,0.7607,0.3357,-3.8063,1.1638,-9.695,0,0,0,1.9976999298547617
-0.2889,-0.1568,0.914,-0.2498,0.7607,0.3354,-3.8937,1.33,-9.415,0,0,0,2.0098401523800895
-0.2868,-0.1529,0.917,-0.2498,0.7607,0.3354,-2.8175,1.295,-10.5,0,0,0,2.021969403652224
-0.2885,-0.1532,0.9174,-0.2527,0.7614,0.3377,-3.605,1.1287,-9.45,0,0,0,2.0340353047849526
-0.2841,-0.1546,0.9168,-0.2527,0.7614,0.3377,-3.8063,0.875,-9.66,0,0,0,2.0461914533229804
-0.2874,-0.1554,0.9145,-0.2494,0.7614,0.338,-4.0862,0.945,-9.7475,0,0,0,2.0583090255191347
-0.2891,-0.1573,0.9112,-0.2507,0.762,0.3352,-3.6312,0.9887,-10.1587,0,0,0,2.070482161804042
-0.286,-0.156,0.9196,-0.2507,0.762,0.3352,-3.2113,1.2337,-10.4125,0,0,0,2.082619553038223
-0.2844,-0.1551,0.918,-0.2498,0.7624,0.3352,-3.5525,1.7325,-10.22,0,0,0,2.092035011746319
-0.2863,-0.1557,0.9204,-0.2498,0.7624,0.3352,-3.8238,1.2512,-10.3863,0,0,0,2.1042077941198327
-0.2876,-0.1554,0.915,-0.2495,0.7621,0.3335,-3.4913,0.7613,-10.3162,0,0,0,2.11637137479712
-0.2882,-0.1545,0.916,-0.2502,0.7605,0.3354,-4.5763,1.2075,-10.115,0,0,0,2.128568930968167
-0.2865,-0.1542,0.9177,-0.2502,0.7605,0.3354,-3.6575,1.4175,-9.7737,0,0,0,2.1406107661261493
-0.2877,-0.1541,0.9176,-0.249,0.7619,0.3357,-3.5963,1.295,-10.2112,0,0,0,2.15278425632245
-0.2854,-0.1554,0.9173,-0.249,0.7619,0.3357,-3.7362,1.4437,-9.9225,0,0,0,2.1648965198477046
-0.2891,-0.1554,0.9138,-0.2486,0.7599,0.335,-4.235,0.8925,-9.975,0,0,0,2.177021170271726
-0.2901,-0.1547,0.9152,-0.2483,0.7615,0.3359,-3.2462,1.2163,-10.255,0,0,0,2.1892151873288395
-0.2865,-0.1537,0.9138,-0.2483,0.7615,0.3359,-3.395,1.12,-10.9112,0,0,0,2.1985694193658896
-0.2858,-0.154,0.9202,-0.2542,0.7607,0.3366,-3.5438,1.3387,-10.1587,0,0,0,2.210747864321697
-0.2872,-0.1543,0.9167,-0.2542,0.7607,0.3366,-3.8063,1.3037,-10.045,0,0,0,2.2229726716700298
-0.2879,-0.1541,0.9179,-0.2493,0.7598,0.3371,-3.8937,1.33,-10.1587,0,0,0,2.2351305897650238
-0.2897,-0.1559,0.9146,-0.2509,0.7611,0.3354,-3.0538,1.2512,-10.2287,0,0,0,2.2471940135179995
-0.2843,-0.1548,0.9143,-0.2509,0.7611,0.3354,-3.2987,1.2075,-10.045,0,0,0,2.259366795891513
-0.2879,-0.1541,0.9176,-0.2487,0.7617,0.3358,-3.4475,1.8987,-9.9488,0,0,0,2.271508080151021
-0.2869,-0.1535,0.9138,-0.2487,0.7617,0.3358,-5.0313,1.855,-9.485,0,0,0,2.2836298992838957
-0.2872,-0.1529,0.9174,-0.2482,0.7626,0.3374,-4.025,1.5925,-10.2025,0,0,0,2.295725528973664
-0.2879,-0.1546,0.9147,-0.2469,0.763,0.3352,-4.3663,1.645,-9.8875,0,0,0,2.305088962706941
-0.2869,-0.1546,0.9182,-0.2469,0.763,0.3352,-3.5438,1.6538,-10.3512,0,0,0,2.317297490131181
-0.2862,-0.1562,0.9171,-0.2497,0.7602,0.3361,-3.605,1.7325,-9.9137,0,0,0,2.3294101075678286
-0.2871,-0.1564,0.9146,-0.2497,0.7602,0.3361,-3.5,1.4787,-9.73,0,0,0,2.341519539801937
-0.2887,-0.1563,0.9132,-0.25,0.7603,0.3394,-3.4388,1.155,-9.6337,0,0,0,2.353561021048526
-0.2904,-0.1554,0.9221,-0.2487,0.7632,0.3373,-3.6663,1.6275,-9.7825,0,0,0,2.365685317561154
-0.2862,-0.1535,0.9179,-0.2487,0.7632,0.3373,-3.7975,1.3212,-9.7388,0,0,0,2.377837926985248
-0.2879,-0.1534,0.9138,-0.2493,0.76,0.3353,-3.5175,1.2337,-9.45,0,0,0,2.389949482687716
-0.2878,-0.1519,0.9188,-0.2493,0.76,0.3353,-3.605,1.3562,-9.8262,0,0,0,2.3992407184967544
-0.2858,-0.1571,0.921,-0.2494,0.7618,0.3349,-3.3513,1.7062,-10.0887,0,0,0,2.4118222685295616
-0.2893,-0.1545,0.9203,-0.2487,0.7602,0.3367,-2.975,1.4525,-10.3863,0,0,0,2.4236354769274544
-0.2863,-0.1552,0.9175,-0.2487,0.7602,0.3367,-3.5525,1.715,-11.0075,0,0,0,2.435804720187035
-0.2879,-0.1545,0.918,-0.2509,0.7611,0.3357,-3.78,1.47,-9.94,0,0,0,2.4479134445983566
-0.2889,-0.1543,0.9165,-0.2509,0.7611,0.3357,-3.2987,1.295,-10.7187,0,0,0,2.4600097821109115
-0.287,-0.1555,0.9216,-0.2516,0.7625,0.3341,-3.3425,1.33,-10.3075,0,0,0,2.4721914122692583
-0.2877,-0.1538,0.9231,-0.2495,0.7616,0.3352,-3.0625,1.3912,-10.0187,0,0,0,2.484364902465559
-0.2879,-0.1521,0.9134,-0.2495,0.7616,0.3352,-4.1125,1.8463,-9.9925,0,0,0,2.49650123196556
-0.2891,-0.1534,0.9179,-0.2509,0.7609,0.3354,-3.4388,1.5925,-9.5812,0,0,0,2.505806624230331
-0.2876,-0.1543,0.9209,-0.2509,0.7609,0.3354,-3.7275,1.61,-9.555,0,0,0,2.5179160564644394
-0.2863,-0.1551,0.919,-0.2498,0.7602,0.3354,-4.3925,1.4437,-10.3425,0,0,0,2.5301143204582726
-0.2879,-0.1535,0.914,-0.2504,0.7634,0.3371,-3.7975,1.5837,-10.2025,0,0,0,2.54247679933861
-0.2869,-0.1565,0.9151,-0.2504,0.7634,0.3371,-3.6225,0.98,-9.9575,0,0,0,2.5543183206479694
-0.2899,-0.1545,0.9183,-0.2496,0.7609,0.3358,-3.675,1.2862,-10.1763,0,0,0,2.5666029390217746
-0.2877,-0.1549,0.919,-0.2496,0.7609,0.3358,-3.9375,1.4525,-9.905,0,0,0,2.5786168151796844
-0.288,-0.1537,0.9179,-0.2481,0.761,0.335,-3.885,1.2075,-9.7825,0,0,0,2.5907534985910785
-0.2908,-0.1526,0.9151,-0.2481,0.761,0.3356,-3.6925,1.015,-9.8962,0,0,0,2.6027613582553015
-0.2896,-0.153,0.9193,-0.2509,0.7611,0.3356,-3.9113,1.3825,-10.2987,0,0,0,2.61225361573575
-0.2866,-0.1551,0.9209,-0.2486,0.7614,0.3351,-3.745,1.4,-10.0187,0,0,0,2.624425336375084
-0.2895,-0.1579,0.9143,-0.2486,0.7614,0.3351,-3.9113,1.2775,-9.8087,0,0,0,2.6365514024446783
-0.2867,-0.1568,0.9128,-0.2494,0.762,0.3374,-3.2987,1.0062,-10.255,0,0,0,2.6487804567297313
-0.2876,-0.1563,0.9197,-0.2494,0.762,0.3374,-2.625,1.2337,-10.5525,0,0,0,2.6609274035715322
-0.2856,-0.1544,0.9166,-0.2492,0.7607,0.3372,-3.2725,1.54,-10.465,0,0,0,2.6729720700206614
-0.2896,-0.155,0.9167,-0.249,0.7615,0.3353,-3.3863,1.435,-9.9225,0,0,0,2.6850931813307493
-0.2877,-0.1517,0.9172,-0.249,0.7615,0.3353,-3.0538,1.4175,-10.605,0,0,0,2.6970373369441734
-0.2866,-0.1552,0.9202,-0.2494,0.7639,0.3366,-2.8525,1.2425,-10.6225,0,0,0,2.70923807831776
-0.2863,-0.1549,0.915,-0.2494,0.7639,0.3387,-3.4125,1.2862,-10.3075,0,0,0,2.7214487292103597
-0.2866,-0.1557,0.9189,-0.2513,0.763,0.3387,-2.7913,0.8575,-10.2462,0,0,0,2.7310064602985737
-0.2879,-0.1407,0.9196,-0.2514,0.7617,0.3355,-4.1038,1.4175,-10.5262,0,0,0,2.743195876507574
-0.2846,-0.1543,0.918,-0.2514,0.7617,0.3355,-3.5525,1.4612,-10.6925,0,0,0,2.754956706019254
-0.2897,-0.1547,0.9162,-0.2506,0.7619,0.337,-3.29,1.2163,-9.8262,0,0,0,2.7670902042281087
-0.2863,-0.156,0.9154,-0.2506,0.7619,0.3354,-3.2725,1.3475,-10.2987,0,0,0,2.779311118551115
-0.288,-0.1537,0.9196,-0.247,0.7602,0.3354,-3.1763,1.6275,-10.0187,0,0,0,2.7915207077095348
-0.2898,-0.1529,0.9154,-0.2489,0.7583,0.3354,-3.01,1.3475,-9.975,0,0,0,2.8036952596400155
-0.2875,-0.1543,0.9192,-0.2489,0.7583,0.3354,-3.4388,1.4525,-9.8,-9.507371256434965,-16.566066320427694,-102.35094645184495,3.2874634674964236
-0.2857,-0.157,0.9178,-0.2504,0.7619,0.3321,-3.7188,1.1812,-9.7388,-9.706677094212436,-17.041250787920585,-102.64459739796779,3.292149254344085
-0.2862,-0.1573,0.9259,-0.2504,0.7619,0.3321,-4.7337,1.33,-9.975,-9.641998192265563,-16.951107518251373,-102.66426930752247,3.2965965049126438
-0.2866,-0.156,0.9189,-0.249,0.7624,0.3314,-3.6488,1.4088,-10.5087,-9.635152363503293,-17.087652344367598,-102.53703418961008,3.301619569318147
-0.2873,-0.1541,0.9166,-0.2483,0.7609,0.3361,-3.6663,1.1025,-10.255,-9.543604411060139,-17.173583536507884,-102.35727717364965,3.3061595446717575
-0.288,-0.1543,0.9167,-0.2483,0.7609,0.3361,-3.4388,0.9363,-9.625,-9.55450556195638,-17.212297479006242,-102.34783508744609,3.310597947455483
-0.2847,-0.1529,0.9186,-0.2509,0.7613,0.3353,-2.8438,1.5837,-10.1062,-9.450421045191487,-17.0067349922194,-102.57378130076923,3.315029272011342
-0.2871,-0.1523,0.918,-0.2509,0.7613,0.3353,-3.2375,1.7237,-9.3887,-9.419877688244531,-17.141712393470765,-102.52020982965615,3.319858746884695
-0.2869,-0.1531,0.9155,-0.249,0.7605,0.3306,-3.7975,1.4962,-9.8437,-9.493612494777828,-17.174627614154215,-102.51824057384698,3.324305289630467
-0.2852,-0.1549,0.9186,-0.2493,0.7602,0.3357,-3.8588,0.8575,-10.0712,-9.571347114994364,-17.027018865499205,-102.49440127582959,3.3288052729966315
-0.2885,-0.1549,0.9156,-0.2493,0.7602,0.3357,-3.4825,0.945,-9.9575,-9.602232427013016,-17.25126526500482,-102.42605574500082,3.333304194628616
-0.2863,-0.1542,0.9173,-0.2492,0.7614,0.3338,-3.64,0.7263,-10.15,-9.542457747431351,-17.11270710607657,-102.48216982025214,3.3378193961846936
-0.2855,-0.1545,0.9131,-0.2492,0.7614,0.3338,-3.4213,1.1375,-10.3162,-9.603563425259324,-17.13325348217676,-102.4879978001499,3.3422928361963584
-0.2871,-0.154,0.9129,-0.2466,0.7619,0.3387,-3.7713,1.33,-9.9137,-9.575321599572659,-17.226010624111908,-102.16876849179484,3.347176105601497
-0.2916,-0.1568,0.9162,-0.2498,0.7596,0.336,-3.64,0.9625,-10.1325,-9.711299165880913,-17.410840919351312,-102.4331040538128,3.3519061313733247
-0.289,-0.1538,0.9121,-0.2498,0.7596,0.336,-3.255,1.365,-9.1612,-9.571602248669436,-17.352928186033292,-102.42199312182268,3.356629432828679
-0.2869,-0.1556,0.9196,-0.2486,0.7592,0.3364,-3.5175,1.3125,-9.94,-9.603640213674899,-17.10699709997122,-102.42786798737465,3.3612263879166155
-0.2897,-0.1549,0.9164,-0.2486,0.7592,0.3364,-3.8675,1.26,-10.0537,-9.594097770617028,-17.30573606526804,-102.35733514362892,3.364170222886317
-0.2879,-0.1548,0.9184,-0.2487,0.7609,0.3363,-3.4038,1.3562,-10.3075,-9.567564337953913,-17.181707188555517,-102.38378373193261,3.366784920260224
-0.2865,-0.1569,0.9156,-0.2495,0.7608,0.3354,-3.7188,1.1638,-9.4937,-9.72357556630213,-17.141867897878992,-102.50400983157122,3.369330958823825
-0.2876,-0.1559,0.916,-0.2495,0.7608,0.3354,-3.2375,1.0675,-9.9137,-9.659134390178632,-17.196610745698123,-102.47100894316634,3.3718961086026655
-0.2851,-0.1539,0.9151,-0.2505,0.7624,0.3364,-3.08,1.2075,-9.9575,-9.54682871789082,-17.082772705966956,-102.50753672026225,3.374408879495294
-0.2863,-0.1556,0.9166,-0.2505,0.7624,0.3364,-2.835,1.3825,-10.3075,-9.634358501882348,-17.114809057542445,-102.51572214582832,3.3769457163626684
-0.2878,-0.1554,0.9212,-0.2491,0.7619,0.3338,-3.185,1.6187,-10.08,-9.575382187790469,-17.122031478241244,-102.47304147757276,3.3796934844204665
-0.2846,-0.1557,0.924,-0.25,0.7595,0.3365,-3.6138,1.19,-10.0275,-9.56488070841799,-16.902511910382586,-102.56914284327478,3.382296856629787
-0.2877,-0.1526,0.915,-0.25,0.7595,0.3365,-2.695,1.435,-10.3512,-9.468633499824497,-17.21985174516706,-102.43994623808034,3.384818475307248
-0.2901,-0.1537,0.9184,-0.2536,0.7617,0.3367,-3.3075,1.4088,-10.1675,-9.500688514411769,-17.301213854344095,-102.62659760610654,3.3875266052889934
-0.2865,-0.1551,0.9201,-0.2536,0.7617,0.3367,-3.4388,1.9512,-10.115,-9.568165166265096,-17.07690962704693,-102.71732133479911,3.3901016645868474
-0.2843,-0.1577,0.9098,-0.2495,0.7615,0.3342,-3.3513,1.5662,-10.5262,-9.833042421712488,-17.112114554811857,-102.55641705061875,3.392609480719969
-0.2872,-0.1545,0.9181,-0.253,0.7618,0.3357,-3.3513,1.1112,-9.87,-9.55300446520545,-17.14301577203956,-102.6719518811341,3.3941061720023527
-0.2864,-0.1556,0.9142,-0.253,0.7618,0.3357,-4.06,1.4088,-9.6337,-9.659132688818325,-17.162010846556853,-102.69038791396268,3.395302038600408
-0.2854,-0.154,0.9193,-0.2513,0.7614,0.3345,-3.4563,1.4088,-10.1325,-9.510156991325324,-17.028552775633003,-102.62204456436807,3.396513123388376
-0.2878,-0.1537,0.9153,-0.2513,0.7614,0.3345,-3.0538,1.47,-10.1325,-9.532299405477106,-17.221464583821795,-102.56225129440422,3.3977337637839637
-0.2846,-0.1537,0.9202,-0.249,0.7611,0.3322,-2.9488,1.645,-9.9312,-9.48262789471433,-16.973263541779527,-102.53978382429267,3.398936000787099
-0.2842,-0.1552,0.9157,-0.2493,0.7618,0.3346,-3.3775,1.1638,-10.2637,-9.619210634812163,-17.012733820522843,-102.5135725381583,3.400143900372527
-0.2852,-0.1533,0.9193,-0.2493,0.7618,0.3346,-4.2875,1.3125,-10.1937,-9.46772118965199,-17.014593977433037,-102.47908082984817,3.4013613555655753
-0.2849,-0.1555,0.9186,-0.249,0.7616,0.336,-3.5525,1.3125,-10.6225,-9.607590852876221,-17.003769168929516,-102.46636694886043,3.402612078429596
-0.2865,-0.157,0.9161,-0.249,0.7616,0.336,-3.2813,1.2687,-10.9025,-9.724534826353535,-17.127370623132347,-102.45235616044863,3.4038850977113966
-0.2874,-0.1557,0.9113,-0.2492,0.7624,0.3374,-3.2987,0.9975,-10.0625,-9.695706249378002,-17.264159158648148,-102.37509753624798,3.4050972442335445
-0.2874,-0.1548,0.9216,-0.2485,0.7626,0.3361,-3.0363,1.155,-10.185,-9.535259441058964,-17.10043577461605,-102.37486714893372,3.4063146994265927
-0.2862,-0.153,0.9143,-0.2485,0.7626,0.3361,-3.2462,1.2862,-10.1763,-9.49999812078993,-17.15530860581256,-102.34705828442969,3.407527907682921
-0.2898,-0.1498,0.9068,-0.2486,0.7598,0.3358,-3.43,1.5837,-9.8437,-9.380605403566898,-17.489014769404605,-102.25394197856642,3.408867462306667
-0.296,-0.1574,0.9331,-0.2486,0.7598,0.3358,-3.5438,1.4875,-10.01,-9.574362023597194,-17.373854373864592,-102.34111329638617,3.410109691297248
-0.2816,-0.1565,0.9208,-0.2494,0.7633,0.3334,-3.29,1.785,-10.78,-9.645705750756235,-16.798194692655805,-102.6085283590114,3.411335994275129
-0.2843,-0.1474,0.9016,-0.2493,0.7613,0.3357,-3.8588,2.0125,-10.22,-9.285801512790142,-17.269256190050402,-102.3321798171678,3.412546725151704
-0.2843,-0.1604,0.9249,-0.2493,0.7613,0.3357,-3.3338,1.9162,-9.8875,-9.837360029841587,-16.864001934692784,-102.59560826461356,3.413741530015579
-0.2875,-0.1688,0.9338,-0.2561,0.7614,0.3355,-3.6488,1.4,-10.4387,-10.245591305147778,-16.855605729352956,-103.12606763876612,3.4149646477909203
-0.2865,-0.1534,0.9069,-0.2561,0.7614,0.3355,-3.5,1.61,-10.045,-9.602039778621725,-17.286056482410732,-102.84238668371354,3.416175378667495
-0.2908,-0.1514,0.9096,-0.2494,0.7613,0.3353,-3.7013,2.1438,-9.6075,-9.45040974179879,-17.495829375590823,-102.31605338308457,3.4173984964428366
-0.2816,-0.1489,0.9155,-0.2494,0.7606,0.3366,-3.815,2.1613,-9.5025,-9.238372173816682,-16.909332678013588,-102.44458199829283,3.4186226759523577
-0.2945,-0.1493,0.9145,-0.2494,0.7606,0.3366,-3.4038,1.89,-10.43,-9.272151232912567,-17.606960101594385,-102.21091061542094,3.419861719740399
-0.2931,-0.1551,0.9132,-0.2489,0.7618,0.3357,-3.2638,1.6887,-10.815,-9.638430282470475,-17.560451899341523,-102.29517214615774,3.421071742794187
-0.2863,-0.1563,0.9202,-0.2489,0.7618,0.3357,-3.99,1.54,-10.1412,-9.639932607233709,-17.069730031064072,-102.45573186829519,3.430157002172308
-0.2826,-0.1517,0.917,-0.2496,0.762,0.3327,-3.4825,1.7587,-9.8,-9.393969782866746,-16.917079143666786,-102.55381964605847,3.442386056457361
-0.2894,-0.1551,0.9191,-0.2513,0.7624,0.3344,-3.2725,1.4525,-10.2987,-9.578117384269843,-17.23754728049383,-102.55694370618298,3.454648378413387
-0.288,-0.1582,0.9158,-0.2513,0.7624,0.3344,-4.1388,1.96,-10.4387,-9.80033592878198,-17.218337715648893,-102.61760239995661,3.4669050377871193
-0.2917,-0.1512,0.9139,-0.25,0.7621,0.3354,-3.3513,1.4787,-10.2112,-9.395115463868613,-17.470476752257646,-102.33803252830752,3.4793567023385754
-0.2906,-0.1529,0.9106,-0.25,0.7621,0.3354,-3.4388,1.4612,-10.325,-9.531380924326395,-17.47007399555363,-102.3727594226453,3.4914831223195635
-0.2846,-0.1555,0.9187,-0.2482,0.763,0.3346,-3.535,0.945,-9.9837,-9.606711543476733,-17.0008756118349,-102.43494820253757,3.5008157657616206
-0.2895,-0.1542,0.9192,-0.2511,0.7595,0.3362,-3.535,1.0325,-10.2725,-9.523149386968385,-17.246756350183354,-102.5223998723152,3.5131513473760654
-0.2926,-0.1574,0.9134,-0.2511,0.7595,0.3362,-3.1763,1.3475,-10.115,-9.776788289678702,-17.51114523025066,-102.49663940825228,3.525315281964746
-0.288,-0.1545,0.9229,-0.2484,0.761,0.3346,-3.675,1.8987,-10.4212,-9.504214645519825,-17.12095118754108,-102.4088134419245,3.537416928148201
-0.2867,-0.1537,0.9191,-0.2484,0.761,0.3346,-3.43,1.12,-10.29,-9.493681320880999,-17.10186623055012,-102.40836066701895,3.5497174725347063
-0.2835,-0.1534,0.9186,-0.248,0.7614,0.3342,-3.535,1.1462,-9.7388,-9.48055729047863,-16.93629478327099,-102.43778262369827,3.561733826072369
-0.2857,-0.1576,0.9218,-0.2518,0.7625,0.3349,-3.2987,1.1725,-9.835,-9.70154061002952,-16.986404219165284,-102.68690509009105,3.573860246053357
-0.2851,-0.1519,0.9193,-0.2518,0.7625,0.3349,-3.29,0.945,-10.3425,-9.383184484514508,-17.012101366355548,-102.60762677670785,3.5860379831863773
-0.2838,-0.1535,0.9172,-0.2494,0.7608,0.3362,-3.0188,1.715,-10.0362,-9.50054477533664,-16.97231537295293,-102.48341955326299,3.598137151990079
-0.2841,-0.1559,0.9155,-0.2494,0.7608,0.3362,-4.1213,1.4525,-9.3537,-9.663791178409108,-17.00857044846757,-102.50763955780829,3.6075112030651555
-0.2858,-0.1541,0.9195,-0.2495,0.762,0.3332,-4.1912,1.0412,-10.43,-9.51418934411544,-17.041576900779603,-102.52213533894812,3.619689648020963
-0.29,-0.1532,0.9167,-0.2481,0.7608,0.3354,-3.4825,1.435,-10.3337,-9.487719358016363,-17.31954640691236,-102.29951212287376,3.631955863002315
-0.2875,-0.1555,0.9157,-0.2481,0.7608,0.3354,-3.6225,1.225,-10.115,-9.63742655225738,-17.203201147040954,-102.37518230800447,3.6439435497171186
-0.2846,-0.1537,0.9201,-0.249,0.7624,0.3354,-3.5175,1.8375,-9.9663,-9.483876513783695,-16.974331279167007,-102.45407191479688,3.656107484305799
-0.2852,-0.156,0.9148,-0.249,0.7624,0.3354,-3.5875,1.3212,-10.3425,-9.677065095044648,-17.07987700480814,-102.4608988306849,3.668296546603406
-0.2855,-0.1558,0.9178,-0.25,0.7618,0.3311,-3.465,1.12,-10.5175,-9.63442956876519,-17.050863635010924,-102.62803737252146,3.6804431395338137
-0.2877,-0.1552,0.9127,-0.2482,0.7618,0.3344,-3.4388,1.2862,-9.8787,-9.650510205945691,-17.255941059670796,-102.37572557035222,3.692556110881855
-0.2849,-0.1548,0.9235,-0.2482,0.7618,0.3344,-3.5088,1.1287,-9.8437,-9.515942986908751,-16.933759526052217,-102.45210330887598,3.7047890581922345
-0.2871,-0.1563,0.9188,-0.2474,0.7589,0.3351,-3.4125,1.5225,-10.1763,-9.654033965146121,-17.114987258123744,-102.38656971596201,3.7140778166215194
-0.2866,-0.1545,0.9165,-0.2474,0.7589,0.3351,-4.025,1.575,-9.8087,-9.56892910929935,-17.13693465983915,-102.36180948632251,3.7255979863857362
-0.291,-0.1532,0.9128,-0.2482,0.7599,0.3314,-3.185,1.8288,-10.1763,-9.527548327971719,-17.442470802313863,-102.37568115859173,3.7378433205948824
-0.2854,-0.1552,0.9165,-0.2506,0.7629,0.3354,-3.85,1.0937,-10.2375,-9.611091153435229,-17.080550806135996,-102.54822184462827,3.750012563854463
-0.2882,-0.156,0.9185,-0.2506,0.7629,0.3354,-3.6837,1.1462,-10.465,-9.639190063431165,-17.185446601390428,-102.51657346925036,3.762232062531896
-0.2871,-0.1535,0.9173,-0.251,0.7635,0.3344,-3.5088,1.1462,-9.6337,-9.500111678066057,-17.156028674216632,-102.53657550069974,3.7744377586649893
-0.2899,-0.1541,0.9134,-0.251,0.7635,0.3344,-4.1475,1.4962,-9.8875,-9.57603879216894,-17.370699458997723,-102.48352361883109,3.7866324835448895
-0.2868,-0.1532,0.9155,-0.2517,0.7623,0.3336,-3.325,1.5662,-10.36,-9.500041601935,-17.176635214447145,-102.6086114508717,3.79882402322225
-0.2859,-0.1537,0.9135,-0.2511,0.7619,0.3366,-3.5438,0.9275,-10.745,-9.550671734065192,-17.152816292580738,-102.52538952060853,3.8110647565832827
-0.2874,-0.1521,0.9173,-0.2511,0.7619,0.3366,-3.9638,1.645,-10.0887,-9.415019241386622,-17.17510474992165,-102.48677766849993,3.823242493716303
-0.2878,-0.1543,0.9146,-0.2488,0.7602,0.3357,-4.1038,1.505,-9.9663,-9.57569614434278,-17.236369098361603,-102.39416605593144,3.8321274392458005
-0.2901,-0.1546,0.916,-0.2488,0.7602,0.3357,-3.78,1.2512,-10.1587,-9.579933707505992,-17.339317327754237,-102.36171850206638,3.8443317197333204
-0.2908,-0.1557,0.9193,-0.2494,0.7622,0.3381,-3.5788,0.8925,-10.955,-9.612772863197193,-17.322540180476388,-102.33856565587321,3.8565328150183005
-0.2884,-0.1562,0.9163,-0.2496,0.7616,0.3362,-3.15,1.1725,-10.2637,-9.673975700618385,-17.240292880165796,-102.44155246224533,3.868779210961627
-0.2871,-0.1562,0.9113,-0.2496,0.7616,0.3362,-3.0713,1.4,-9.9663,-9.726063968312495,-17.250070836578033,-102.44950633879381,3.8809615489427602
-0.2874,-0.1524,0.9142,-0.2499,0.7616,0.335,-3.36,1.0587,-9.9137,-9.46494934496786,-17.229070906383775,-102.44259792533877,3.8931346852276674
-0.2869,-0.1536,0.9189,-0.2499,0.7616,0.335,-2.975,1.155,-10.0975,-9.489564359479468,-17.119900410118074,-102.48408855208694,3.905353122170921
-0.2874,-0.1535,0.9171,-0.2492,0.7621,0.3411,-3.0538,1.3737,-10.4125,-9.501801006669503,-17.173456822163125,-102.28201575060983,3.9175807608104005
-0.2898,-0.1551,0.9149,-0.2494,0.7617,0.3356,-3.5088,1.225,-10.0625,-9.621415781949132,-17.337908822133265,-102.39513185162042,3.9298798895513323
-0.2875,-0.1554,0.9152,-0.2494,0.7617,0.3356,-4.2613,1.4525,-9.9925,-9.636814112633896,-17.212436341920775,-102.44166075709666,3.9392461545757556
-0.288,-0.1539,0.9096,-0.2482,0.7618,0.3354,-4.2962,1.2075,-10.1937,-9.603302201896165,-17.333443160399284,-102.31873195368222,3.951368681531417
-0.2887,-0.1536,0.918,-0.2482,0.7618,0.3354,-3.7188,1.5225,-10.0275,-9.498992137241956,-17.23604127033407,-102.32788144977924,3.9635630524999237
-0.2863,-0.1557,0.9244,-0.2506,0.762,0.3369,-3.3863,1.4088,-10.0625,-9.560653964726717,-16.991812256338033,-102.54105455458428,3.975766271253264
-0.2884,-0.1557,0.9163,-0.2493,0.7626,0.3351,-3.0188,1.015,-10.185,-9.64354179407128,-17.23072961318237,-102.42808279637313,3.987952148348331
-0.2846,-0.1529,0.9173,-0.2493,0.7626,0.3351,-3.0538,1.2075,-10.5787,-9.46374417021876,-17.023164180241974,-102.4574753620129,4.000087416114152
-0.2836,-0.1545,0.9154,-0.2489,0.7622,0.3343,-3.7013,1.1638,-9.8612,-9.579756091359451,-16.9885468687372,-102.4891490973305,4.012154732892454
-0.2878,-0.1541,0.916,-0.2489,0.7622,0.3343,-3.64,1.365,-9.8262,-9.54960057414678,-17.207385760688993,-102.41046354063143,4.024268765974675
-0.2879,-0.1557,0.9204,-0.2488,0.7617,0.3302,-3.2113,1.6975,-10.7537,-9.601455026605766,-17.14291177666057,-102.53583288730339,4.036443671816549
-0.2872,-0.1559,0.9162,-0.2486,0.7626,0.3363,-3.465,1.2337,-10.4212,-9.6567929077496,-17.171560277516864,-102.38023625105225,4.048574338734257
-0.2855,-0.1556,0.9169,-0.2486,0.7626,0.3363,-3.5175,1.3387,-9.8175,-9.631521844459503,-17.069310626020066,-102.40803113427452,4.057908397821888
-0.2871,-0.1554,0.9199,-0.2482,0.761,0.3356,-4.305,1.715,-10.2462,-9.58862648414107,-17.103952276144323,-102.3935881539817,4.070050389904182
-0.2851,-0.1569,0.9163,-0.2482,0.761,0.3356,-3.5,1.61,-10.3512,-9.716353307703493,-17.051519209423226,-102.44016432605542,4.082357658607161
-0.285,-0.1546,0.9143,-0.2486,0.7626,0.3355,-3.1238,1.4262,-10.6487,-9.59769478070403,-17.083741724412462,-102.41196921155252,4.094450103094389
-0.2869,-0.1532,0.9176,-0.2478,0.7617,0.3358,-3.3513,1.4787,-10.3162,-9.478793039608837,-17.13761361784908,-102.31940007659198,4.106560243151284
-0.2854,-0.1539,0.9167,-0.2478,0.7617,0.3358,-4.1563,1.435,-10.08,-9.530099548460255,-17.07076125607651,-102.35367105083196,4.118779387917323
-0.2862,-0.1563,0.9155,-0.2492,0.763,0.3363,-3.4125,1.4612,-10.2812,-9.688130071014069,-17.125169602741636,-102.4358190498033,4.130923503467978
-0.2899,-0.1526,0.9171,-0.2492,0.763,0.3363,-3.43,1.5662,-10.3775,-9.44767248836679,-17.311889882535073,-102.31978483363848,4.143098409309851
-0.2859,-0.1521,0.9182,-0.2487,0.762,0.3409,-4.0338,1.5487,-9.9663,-9.405742453210806,-17.084078204451984,-102.26550009273359,4.155231907518706
-0.2865,-0.1546,0.9181,-0.2494,0.7606,0.3352,-3.8325,1.3212,-9.8437,-9.558088370581167,-17.10376525089372,-102.47794338719976,4.164519604213811
-0.2866,-0.1533,0.9175,-0.2494,0.7606,0.3352,-4.0163,1.3125,-10.0887,-9.48577682473455,-17.123362147613033,-102.45539814674754,4.176697695258224
-0.2868,-0.1555,0.9191,-0.2473,0.761,0.335,-4.06,1.3912,-9.9925,-9.602513790950981,-17.10239475212556,-102.35298789327557,4.188856675087398
-0.2863,-0.1556,0.917,-0.2473,0.761,0.335,-4.2263,1.5312,-9.6425,-9.630370086570698,-17.108862530705945,-102.35684673356518,4.200890016371941
-0.2873,-0.1543,0.9135,-0.2518,0.7629,0.3386,-3.71,1.4525,-10.0887,-9.587477521788028,-17.2252338385575,-102.49812278072086,4.213212503264833
-0.2876,-0.1541,0.9165,-0.2508,0.7641,0.3348,-3.7275,1.5225,-10.2112,-9.544515857364543,-17.196149191292047,-102.5054094425023,4.2249457276878335
-0.2857,-0.1545,0.9199,-0.2508,0.7641,0.3348,-3.3338,1.7762,-10.1937,-9.534042737053124,-17.034843545372535,-102.55546285912723,4.2371570864032195
-0.2879,-0.1552,0.9136,-0.249,0.761,0.3354,-3.2813,1.2775,-10.22,-9.640975048478367,-17.25128028269878,-102.41331268033326,4.2493755233464725
-0.2876,-0.1527,0.9143,-0.249,0.761,0.3354,-3.4825,1.6187,-10.2112,-9.481991187845955,-17.237520680978957,-102.38346604408294,4.261572725606126
-0.2864,-0.1532,0.9209,-0.2496,0.7619,0.336,-3.6488,1.4437,-9.7825,-9.445253296075288,-17.061302892242068,-102.44849701141226,4.270421572173504
-0.2861,-0.1554,0.9197,-0.2496,0.7625,0.3359,-2.975,1.2163,-10.6662,-9.590245196380794,-17.052741794156702,-102.47758653753945,4.2826371778256105
-0.2878,-0.1571,0.9193,-0.2496,0.7625,0.3359,-3.5088,1.2512,-10.4912,-9.697404724152564,-17.146499492081315,-102.47120805984473,4.294882512034757
-0.2891,-0.1543,0.9184,-0.2506,0.7624,0.3359,-3.4913,0.9538,-9.975,-9.537533792895616,-17.242910150702603,-102.46965309255468,4.307074051712117
-0.2837,-0.1555,0.9169,-0.2506,0.7624,0.3359,-3.2288,1.2862,-10.2375,-9.625190723628101,-16.973962623997984,-102.57890955980076,4.319261344452757
-0.2888,-0.1529,0.9208,-0.251,0.7618,0.3354,-3.4038,1.5225,-9.7562,-9.428459512337305,-17.184901543142963,-102.50589142828323,4.3314376659402045
-0.2877,-0.1541,0.9179,-0.2498,0.7626,0.3363,-3.43,1.5662,-9.8087,-9.529896842887391,-17.177023016214275,-102.4273988554038,4.343639115136578
-0.2889,-0.1551,0.9158,-0.2498,0.7626,0.3363,-3.815,1.3737,-9.59,-9.6122214096701,-17.274038221668675,-102.41415853500605,4.355834193927872
-0.2907,-0.1537,0.9149,-0.2504,0.7597,0.3358,-3.7888,1.3562,-9.9663,-9.536613171964262,-17.39414361507523,-102.44094288900172,4.367970523427872
-0.2898,-0.1553,0.9196,-0.2504,0.7597,0.3358,-3.325,1.12,-9.835,-9.585429783234929,-17.266355475033127,-102.49586793395899,4.376839896856064
-0.2854,-0.1544,0.9215,-0.2471,0.7612,0.331,-3.57,1.4787,-9.8612,-9.511887844260956,-16.994979372942918,-102.44184944624396,4.38903214435621
-0.2852,-0.1541,0.9147,-0.2497,0.7615,0.3342,-3.6312,1.2163,-9.975,-9.56273764041161,-17.087555183362653,-102.51463480633562,4.401296589780596
-0.2866,-0.1524,0.9157,-0.2497,0.7615,0.3342,-3.605,1.0237,-10.7537,-9.449389386349287,-17.155124740540593,-102.46774508304308,4.413464417394604
-0.2859,-0.1559,0.9204,-0.2502,0.7608,0.335,-4.27,1.3825,-10.1237,-9.613302459895284,-17.032180908736148,-102.5687393949336,4.4256577266289305
-0.2862,-0.1568,0.9163,-0.2502,0.7608,0.335,-3.5438,1.33,-9.835,-9.710348219358035,-17.109252082656255,-102.56425339871647,4.437844311546784
-0.286,-0.1553,0.9171,-0.2514,0.7606,0.3381,-3.4388,1.3212,-10.08,-9.611409469073124,-17.091966286502686,-102.5595437070686,4.450059917198891
-0.2874,-0.1548,0.917,-0.2488,0.7624,0.3366,-3.4563,1.0237,-9.8087,-9.581907357077018,-17.17058783824895,-102.37139374716695,4.462275522850997
-0.2863,-0.1552,0.9112,-0.2488,0.7624,0.3366,-3.4388,0.8487,-10.15,-9.665942516311114,-17.208565603723912,-102.37890256371439,4.471107381671495
-0.2872,-0.1554,0.9195,-0.2498,0.7633,0.3358,-3.2638,0.9975,-10.2375,-9.592788827141947,-17.120607132381586,-102.46335641137516,4.483333958576795
-0.2856,-0.1543,0.9239,-0.2498,0.7633,0.3358,-2.94,0.6475,-9.94,-9.481681238554028,-16.961912186075107,-102.48936506193175,4.495548502494722
-0.2843,-0.154,0.9199,-0.2496,0.7608,0.3341,-3.8588,0.91,-9.835,-9.503678043066918,-16.95225915989275,-102.5490673053671,4.508189509641608
-0.2908,-0.1528,0.9145,-0.2492,0.7607,0.3329,-3.0888,1.3037,-10.4212,-9.485729176302273,-17.398076046307615,-102.40060382321488,4.520285847154163
-0.287,-0.1532,0.9176,-0.2492,0.7607,0.3329,-3.5788,1.5662,-10.6138,-9.478538708480807,-17.153656062489326,-102.48388967714992,4.53245898343907
-0.2847,-0.1572,0.9174,-0.2494,0.7614,0.3356,-3.6312,1.68,-10.7012,-9.722861547737962,-17.012537238139604,-102.52803403752574,4.544628580610044
-0.2862,-0.1566,0.9127,-0.2494,0.7614,0.3356,-3.6312,1.2337,-10.71,-9.735912123887141,-17.168828641915198,-102.47853432505931,4.556832861097564
-0.2877,-0.154,0.9174,-0.2498,0.7606,0.3345,-3.045,1.2862,-10.57,-9.529621748750879,-17.185043062561267,-102.48713207931414,4.569011659964764
-0.2858,-0.154,0.916,-0.2472,0.7618,0.3346,-4.06,1.6013,-10.2812,-9.543417460991948,-17.105424490716523,-102.33252681600727,4.581109059211499
-0.2868,-0.1545,0.9213,-0.2472,0.7618,0.3346,-3.3075,1.4437,-10.6138,-9.519850092798958,-17.068412867191615,-102.33822645583408,4.590541505666475
-0.2873,-0.1536,0.9182,-0.2494,0.7605,0.3349,-2.8087,1.5137,-10.7362,-9.496775615380049,-17.147800986031374,-102.45712998644662,4.602735168812195
-0.2843,-0.1542,0.9169,-0.2494,0.7605,0.3349,-3.6837,1.7237,-9.5025,-9.546294998258068,-17.007139403519407,-102.51561939842286,4.614907597274316
-0.2872,-0.1541,0.9204,-0.2499,0.7613,0.3333,-3.325,1.3737,-10.2462,-9.504809367207134,-17.102672430124425,-102.53185257189432,4.626953325457625
-0.2852,-0.1547,0.9168,-0.247,0.763,0.3327,-3.2462,1.5575,-10.7975,-9.577649468536713,-17.0548413441935,-102.37133177532948,4.639105580970326
-0.2845,-0.1571,0.9167,-0.247,0.763,0.3327,-3.8238,1.5487,-10.395,-9.724295136184038,-17.010062563579112,-102.4184350658291,4.651303491052766
-0.286,-0.1543,0.9142,-0.249,0.7617,0.3358,-3.5263,1.4612,-9.9837,-9.580502385046048,-17.139384318077795,-102.41879029722547,4.663403721590647
-0.2852,-0.1559,0.9147,-0.249,0.7617,0.3358,-3.1763,1.505,-10.29,-9.672247411503772,-17.08734941139337,-102.45822492151055,4.675545359761548
-0.2866,-0.1537,0.9139,-0.2473,0.761,0.3367,-4.0163,1.2687,-10.3425,-9.546969441791669,-17.181385572626375,-102.27618020745525,4.687716018666703
-0.2858,-0.1538,0.9178,-0.2482,0.763,0.3342,-4.2438,1.5575,-10.1237,-9.513008953406398,-17.07616220857341,-102.39480044292341,4.699940826015036
-0.285,-0.1532,0.9155,-0.2482,0.763,0.3342,-3.535,1.295,-9.9312,-9.499898446980795,-17.06863443501457,-102.39324677755378,4.708637490683283
-0.286,-0.154,0.9157,-0.2501,0.7622,0.3351,-3.6138,1.575,-10.08,-9.546412028577645,-17.117339171469535,-102.49985052233012,4.720859820651862
-0.2886,-0.1545,0.9205,-0.2501,0.7622,0.3351,-3.2025,1.1462,-10.3425,-9.527960399938378,-17.17947890951146,-102.47587229446331,4.7330502985950424
-0.2868,-0.1537,0.9183,-0.2499,0.7623,0.3335,-3.1937,1.1025,-9.695,-9.50183668391449,-17.122437586170978,-102.51061744178489,4.7452765215889485
-0.2877,-0.1568,0.9169,-0.2491,0.7606,0.332,-3.1063,0.945,-9.6775,-9.70387600516744,-17.18393898932728,-102.53736034626051,4.757439040532057
-0.2898,-0.1548,0.9179,-0.2491,0.7606,0.332,-2.9575,0.8312,-10.3512,-9.572917023785841,-17.28906085832238,-102.47375039044525,4.769961841273571
-0.2864,-0.1548,0.9119,-0.2478,0.7603,0.3358,-3.5175,1.0412,-10.2462,-9.634287183124599,-17.20740684799899,-102.35019319789588,4.782075520444399
-0.2866,-0.155,0.9177,-0.2478,0.7603,0.3358,-3.3775,0.9975,-10.36,-9.586915509418677,-17.118781892797013,-102.36739745476262,4.7942766157293795
-0.2852,-0.154,0.9182,-0.2514,0.7609,0.3368,-3.8937,1.4875,-9.8175,-9.521151914216258,-17.034295222883625,-102.58349560203057,4.806394187925534
-0.2879,-0.1557,0.9173,-0.2491,0.762,0.3407,-3.7188,1.8812,-9.9925,-9.633159091011084,-17.188201751678246,-102.30969873990094,4.815786288481671
-0.2893,-0.1548,0.9166,-0.2491,0.762,0.3407,-3.57,1.4175,-10.3162,-9.5860513708628,-17.28365309281519,-102.26847710359961,4.8279357127032245
-0.2904,-0.1535,0.9224,-0.2485,0.7628,0.3351,-3.4825,1.5662,-10.2287,-9.448532813767885,-17.253748806096542,-102.3246127183355,4.840229178861863
-0.2866,-0.1551,0.9224,-0.2485,0.7628,0.3351,-3.885,1.1025,-10.325,-9.54468060326251,-17.042825551677204,-102.41559739950175,4.8522766766021395
-0.2879,-0.1551,0.9197,-0.2515,0.7643,0.3374,-3.4563,0.9887,-9.9663,-9.57234034021167,-17.150624631225817,-102.50995451795225,4.864333376038641
-0.2873,-0.1525,0.9139,-0.2515,0.7629,0.3354,-3.255,1.5575,-10.045,-9.473729509872632,-17.224998841631397,-102.52451835945196,4.876505804500762
-0.2874,-0.1527,0.9224,-0.2486,0.7629,0.3354,-3.2725,1.2075,-10.1675,-9.400026916773577,-17.09175431253757,-102.36529071732515,4.8886293931906035
-0.2849,-0.1543,0.9199,-0.2498,0.7614,0.3353,-3.71,1.3475,-10.9375,-9.521626174973985,-16.988382129488336,-102.52224737703973,4.900828365007223
-0.2878,-0.1556,0.9207,-0.2498,0.7614,0.3353,-2.7125,1.5837,-10.5437,-9.592291889330154,-17.12542865979999,-102.49222577857236,4.913069098368256
-0.2859,-0.1556,0.9146,-0.2473,0.763,0.3358,-3.2462,1.26,-10.2112,-9.655086789921945,-17.127534940162175,-102.31660930119988,4.925150925513685
-0.2872,-0.1534,0.9162,-0.2511,0.7628,0.335,-3.7713,1.4,-9.6775,-9.505250697727554,-17.178034617472758,-102.53092281078202,4.934446762170836
-0.2886,-0.1553,0.9177,-0.2511,0.7628,0.335,-3.4913,1.8725,-9.94,-9.604790697674167,-17.225586376622008,-102.53892675586792,4.946565042189777
-0.2876,-0.1545,0.9224,-0.2508,0.7637,0.3359,-4.1038,1.7325,-9.9663,-9.508869880011833,-17.097756107753927,-102.50988776081839,4.958742779322797
-0.2885,-0.1535,0.9168,-0.2508,0.7637,0.3359,-3.3425,1.6275,-9.8175,-9.50489042303315,-17.237434093395354,-102.46159842192142,4.971127200709521
-0.2863,-0.155,0.9143,-0.2484,0.7621,0.3386,-3.1238,1.7675,-10.0012,-9.62152733025664,-17.159795797928652,-102.31883618388491,4.983007298360753
-0.2852,-0.1546,0.914,-0.2484,0.7621,0.3343,-3.4125,1.4088,-10.2725,-9.600564014372958,-17.10325510863004,-102.42662710576599,4.9951213314429745
-0.2885,-0.1559,0.9188,-0.2481,0.7632,0.3343,-3.3425,1.2425,-10.2637,-9.630037352282367,-17.197782142513784,-102.37030577261254,5.007307208538042
-0.286,-0.1584,0.9155,-0.2468,0.7613,0.3359,-3.1763,1.155,-10.5087,-9.815722966124543,-17.11256090403605,-102.34342854352214,5.019487776962208
-0.2869,-0.1572,0.9163,-0.2468,0.7613,0.3359,-3.3075,1.715,-10.2287,-9.735051366825122,-17.148874578577562,-102.31210081176042,5.031652065462283
-0.2874,-0.1551,0.9152,-0.2489,0.762,0.3383,-2.8525,1.1462,-9.94,-9.618857430337165,-17.201499199336713,-102.34326807823396,5.04095816554984
-0.2851,-0.1522,0.9141,-0.2489,0.762,0.3352,-3.0975,1.1462,-9.8787,-9.45355022140408,-17.104182491820097,-102.40692107396332,5.05313802615122
-0.2843,-0.1518,0.9173,-0.2498,0.7617,0.3352,-3.7625,1.19,-9.6862,-9.396601785296706,-17.005603506261885,-102.48732301680107,5.065224454144762
-0.2849,-0.153,0.9187,-0.2501,0.7621,0.3362,-3.9638,1.5137,-9.8612,-9.45510926832922,-17.008710911451537,-102.4913027425285,5.077309820404124
-0.2854,-0.1533,0.9114,-0.2501,0.7621,0.3362,-3.4913,1.085,-9.9225,-9.547723140708596,-17.155975876077598,-102.4637339060362,5.089420668283806
-0.2857,-0.1534,0.9195,-0.2527,0.7625,0.3351,-3.3338,1.4787,-10.1237,-9.471589465679072,-17.04301509341931,-102.67275138337129,5.10156690730282
-0.2865,-0.1555,0.9206,-0.2527,0.7625,0.3351,-3.99,1.3212,-10.4912,-9.587160656401611,-17.058781388123727,-102.69259131753866,5.1137460600814135
-0.2859,-0.156,0.9217,-0.2501,0.762,0.3337,-3.2987,0.8838,-10.43,-9.606369071548984,-17.007380103703383,-102.58262462736839,5.125917072897961
-0.2881,-0.1568,0.9155,-0.2498,0.7622,0.3344,-3.6575,1.3737,-10.43,-9.71863719159007,-17.225024521149567,-102.49975045107172,5.138023319929529
-0.2855,-0.1543,0.9166,-0.2498,0.7622,0.3344,-4.095,1.9512,-10.185,-9.555924639421916,-17.079772582081702,-102.51212530395863,5.1474617828781914
-0.2871,-0.1533,0.914,-0.2488,0.764,0.3384,-3.7362,1.2775,-9.66,-9.521350385661304,-17.207851174723043,-102.28720127847885,5.159577585517379
-0.288,-0.1524,0.9196,-0.2488,0.764,0.3384,-4.165,1.19,-9.4062,-9.410029749486489,-17.170632862467254,-102.27529307188837,5.171739042726307
-0.2854,-0.154,0.9201,-0.2504,0.7596,0.3334,-3.255,1.3475,-10.5612,-9.501491858996323,-17.01572031405136,-102.6111233153527,5.183837503707222
-0.2861,-0.1546,0.9148,-0.2482,0.7622,0.3366,-3.85,1.4787,-10.0625,-9.59207015916429,-17.134236469559774,-102.34840575674693,5.195964277599603
-0.2866,-0.1552,0.9218,-0.2482,0.7622,0.3366,-3.5525,1.6538,-10.185,-9.557122149779406,-17.048452304907226,-102.36966017248179,5.20814484602377
-0.2844,-0.1565,0.9195,-0.2521,0.7609,0.3342,-3.9288,1.3912,-10.0975,-9.659016555211661,-16.96024193840122,-102.74043669080146,5.220321875334004
-0.2899,-0.1574,0.9149,-0.2521,0.7609,0.3342,-3.3775,1.0062,-10.3075,-9.761410827925353,-17.32974650376288,-102.64299041019288,5.232289389099387
-0.2874,-0.1524,0.9142,-0.2506,0.7622,0.3365,-3.9463,1.2425,-10.3687,-9.465030539954158,-17.231736644625602,-102.44782643917421,5.244486591359041
-0.2857,-0.1529,0.9166,-0.2502,0.7618,0.3351,-3.4475,1.5137,-10.4737,-9.470419025655092,-17.094679433413244,-102.50298659053999,5.25327385734398
-0.2859,-0.1541,0.9197,-0.2502,0.7618,0.3351,-3.5788,1.4437,-10.4125,-9.511722901951856,-17.046602917500852,-102.52667749425505,5.265511051591079
-0.2877,-0.1557,0.9162,-0.2503,0.7614,0.3362,-3.22,1.8112,-10.4038,-9.644461053188548,-17.19600149748185,-102.4939689527079,5.277770542255959
-0.2865,-0.1547,0.9206,-0.2503,0.7614,0.3362,-3.3163,1.2775,-10.2375,-9.539248006709936,-17.066109465793655,-102.51432355078866,5.289987209642245
-0.2862,-0.1565,0.9187,-0.2494,0.7626,0.3346,-3.7625,1.2163,-9.9137,-9.66720980063426,-17.07169289728488,-102.50353784224285,5.302191844041158
-0.2877,-0.1565,0.9122,-0.249,0.7609,0.3374,-3.5175,1.0937,-9.835,-9.734920584910824,-17.261325601822914,-102.38848842461833,5.3143313587437
-0.2867,-0.1566,0.9181,-0.249,0.7609,0.3374,-3.0888,1.2075,-10.2025,-9.679889589138135,-17.11495906568809,-102.4258615308705,5.326600405016198
-0.2854,-0.156,0.9165,-0.2498,0.7611,0.337,-3.4388,1.47,-10.4475,-9.659938511283142,-17.067447560585073,-102.49368566812095,5.339093123289281
-0.2868,-0.1564,0.9155,-0.2498,0.7611,0.337,-3.5525,1.5925,-9.9663,-9.694492264937239,-17.15742265973571,-102.47155773563843,5.351162917447336
-0.2877,-0.1539,0.9165,-0.2494,0.7606,0.3383,-3.1675,1.5662,-10.2637,-9.532626489055453,-17.199854737990417,-102.37247524644698,5.363282613111851
-0.2842,-0.1548,0.9179,-0.2522,0.7606,0.3344,-3.4913,0.9275,-10.2987,-9.57252825322159,-16.985214259339845,-102.72015060198169,5.372756113288452
-0.2877,-0.1559,0.9146,-0.2522,0.7606,0.3344,-3.745,1.4088,-9.59,-9.673264231792144,-17.22003460217019,-102.66417201221614,5.384941282560733
-0.2893,-0.1551,0.9112,-0.2578,0.7628,0.3392,-3.6837,1.7937,-10.1325,-9.660053198663224,-17.374249663505275,-102.84042445149217,5.397067702541721
-0.2861,-0.154,0.918,-0.2578,0.7628,0.3392,-3.6575,1.19,-10.15,-9.523349764157311,-17.095012858936126,-102.90450936910167,5.40915483835805
-0.2845,-0.152,0.916,-0.2506,0.7612,0.337,-3.5263,1.1725,-10.4475,-9.42197536432179,-17.037046958773463,-102.5009106176179,5.421340715453116
-0.2852,-0.1513,0.9153,-0.2494,0.7605,0.3354,-3.15,1.1638,-10.2812,-9.38625420304292,-17.086766712488554,-102.44100507123383,5.43351031262409
-0.2885,-0.1542,0.918,-0.2494,0.7605,0.3354,-3.3688,1.3212,-10.8238,-9.53484063149619,-17.215232658041934,-102.43286836219796,5.445685218465964
-0.2868,-0.1545,0.9172,-0.2491,0.7602,0.333,-3.7188,1.12,-10.3687,-9.561506382281214,-17.139582134110963,-102.50244672290843,5.457832873130552
-0.2876,-0.1559,0.9176,-0.2491,0.7602,0.333,-3.605,1.4962,-9.765,-9.642278010805459,-17.1699995341484,-102.51023167533025,5.470020519782585
-0.2855,-0.1568,0.9199,-0.2482,0.7604,0.3332,-3.64,1.505,-9.87,-9.673216167550308,-17.01668565754478,-102.50229283993919,5.479302907806789
-0.2851,-0.1579,0.921,-0.2482,0.7616,0.3344,-3.5613,1.2163,-10.4825,-9.728316387411585,-16.968776955031153,-102.48839153663184,5.49150294135759
-0.2879,-0.1547,0.9112,-0.2482,0.7616,0.3344,-3.7713,0.8312,-10.6138,-9.635788606440668,-17.290815616142716,-102.36218238486617,5.503679970667823
-0.285,-0.1552,0.9193,-0.2486,0.7606,0.3325,-3.5263,1.1462,-9.9488,-9.582672209982523,-17.007760519031894,-102.52487830622688,5.515727468408099
-0.2856,-0.1541,0.9141,-0.2486,0.7606,0.3325,-3.8763,1.4875,-9.9837,-9.569045413576324,-17.119704553501442,-102.4825512611213,5.527822744186475
-0.2892,-0.1532,0.9143,-0.2476,0.7609,0.3337,-4.3488,1.61,-10.08,-9.512238900267997,-17.3187894071439,-102.31075130038101,5.540031979433501
-0.2876,-0.1538,0.9206,-0.249,0.7578,0.3358,-3.8413,1.4175,-9.7388,-9.484587423218162,-17.13234846650343,-102.44732016840561,5.552231305161515
-0.2857,-0.1552,0.9134,-0.249,0.7578,0.3358,-3.955,1.4,-10.1412,-9.642928891231021,-17.13787659674725,-102.47955587503976,5.564261107332124
-0.2872,-0.154,0.9179,-0.2488,0.7621,0.336,-3.5263,1.4088,-10.5787,-9.524326918176763,-17.14856395005305,-102.38256199337795,5.576428934946131
-0.2876,-0.1559,0.9212,-0.2488,0.7621,0.336,-4.0775,1.6887,-9.7737,-9.605298566850532,-17.11096393827773,-102.41347063720677,5.585819619856694
-0.2852,-0.157,0.9193,-0.2508,0.7602,0.3336,-4.06,1.6187,-9.6512,-9.691396641787453,-17.007688855762435,-102.67037496977186,5.597997356989715
-0.2882,-0.1559,0.9135,-0.2509,0.7618,0.3342,-3.64,1.3037,-10.4562,-9.684936450228866,-17.26639245109121,-102.55859348183513,5.61004273126163
-0.2848,-0.1547,0.9196,-0.2509,0.7618,0.3342,-3.8413,1.3475,-10.115,-9.549499257499694,-16.992613291350523,-102.61974453563853,5.622214451900964
-0.2855,-0.1543,0.9199,-0.2489,0.7608,0.3318,-4.095,1.295,-9.9137,-9.521966046224469,-17.01763564799309,-102.53756436908233,5.634313620704666
-0.2881,-0.1537,0.9195,-0.2489,0.7608,0.3318,-3.57,1.1287,-10.08,-9.489676095601048,-17.16780074452553,-102.48158715297059,5.646500559533913
-0.2866,-0.1523,0.9189,-0.2514,0.7612,0.3391,-3.885,1.4088,-9.87,-9.410926733724907,-17.105153240428088,-102.48154746884113,5.658551596388122
-0.286,-0.1529,0.9148,-0.2483,0.7618,0.3362,-3.4825,1.5312,-10.5787,-9.48855041201717,-17.136530815835755,-102.34476171207304,5.670745967356629
-0.2905,-0.1535,0.9173,-0.2483,0.7618,0.3362,-3.6575,1.4962,-10.0187,-9.499769355909109,-17.33899319082231,-102.28058886432424,5.682985992894875
-0.2855,-0.156,0.9179,-0.2495,0.7609,0.3336,-3.2638,1.365,-10.01,-9.64510577539359,-17.05736034479975,-102.5539891950736,5.695043046242771
-0.2866,-0.1563,0.9177,-0.2495,0.7609,0.3336,-3.6225,1.4175,-10.1062,-9.665655583120543,-17.110146532335875,-102.53864272993954,5.704532118520679
-0.2858,-0.1546,0.9114,-0.25,0.7626,0.3361,-3.4825,1.2425,-9.8,-9.627479232369677,-17.17755617869252,-102.46596079295196,5.716557673754568
-0.2858,-0.1532,0.9185,-0.2499,0.7613,0.3364,-3.2638,1.2163,-10.0275,-9.46976201667823,-17.066119202857884,-102.46925635035399,5.728756645571188
-0.2846,-0.1546,0.919,-0.2499,0.7613,0.3364,-3.57,0.8663,-10.115,-9.549066608424189,-16.985082384582448,-102.51272165174967,5.740929427944702
-0.2852,-0.1552,0.9174,-0.2486,0.7634,0.3358,-3.1412,1.1112,-10.7012,-9.601907978410207,-17.039640561310918,-102.41107335370991,5.75303461324209
-0.2881,-0.1541,0.9159,-0.2486,0.7634,0.3358,-3.29,1.5225,-10.6662,-9.550671941940156,-17.22704470256853,-102.33849147549482,5.764937361222495
-0.2882,-0.1537,0.9157,-0.2493,0.7607,0.3398,-3.185,1.295,-10.4038,-9.528313072626275,-17.243252774935726,-102.31677139562093,5.777147658203702
-0.2879,-0.153,0.92,-0.2498,0.7599,0.3359,-3.6837,1.5137,-10.3162,-9.442318681666423,-17.158168064338778,-102.45384179289023,5.7893983010837475
-0.2869,-0.1541,0.9193,-0.2498,0.7599,0.3359,-3.5263,1.2862,-10.0012,-9.515712871030848,-17.10957269179407,-102.48583698919967,5.801606828507987
-0.2907,-0.154,0.91,-0.2487,0.7617,0.3366,-3.8238,1.4088,-10.2287,-9.605000649362937,-17.470432937571974,-102.27949592720043,5.813923298907192
-0.2899,-0.1554,0.914,-0.2487,0.7617,0.3366,-3.2025,1.7675,-10.3512,-9.649163319694084,-17.36755766032808,-102.32746725433148,5.823300535184809
-0.2876,-0.154,0.921,-0.2501,0.761,0.3325,-3.6312,1.785,-9.7912,-9.492939970265036,-17.126957647922346,-102.55909221425046,5.835424831697437
-0.2868,-0.157,0.9221,-0.2508,0.7601,0.3354,-3.745,1.575,-9.7475,-9.662333649010618,-17.04912796390805,-102.61211660353585,5.847541342159412
-0.2856,-0.1554,0.9156,-0.2508,0.7601,0.3354,-3.0625,1.5662,-10.4475,-9.632785306208484,-17.092641545898275,-102.5902845622349,5.859672362988513
-0.2866,-0.1533,0.9165,-0.2495,0.761,0.3348,-3.9725,1.7237,-10.2462,-9.496085052804263,-17.139505323549052,-102.46310857482455,5.87180621510876
-0.2854,-0.1546,0.9163,-0.2495,0.761,0.3348,-3.5438,1.6362,-10.1763,-9.57668138021838,-17.07549229909276,-102.50291586337966,5.8840943725965
-0.2865,-0.154,0.9191,-0.2476,0.7618,0.3336,-4.2438,1.2425,-10.5262,-9.511996866680997,-17.088664588882597,-102.37759615484522,5.896158858083655
-0.2887,-0.1557,0.9193,-0.2507,0.7628,0.3358,-3.3688,1.715,-10.43,-9.612618568315206,-17.200362485423195,-102.50428579069352,5.908359599457241
-0.2863,-0.1528,0.9212,-0.2507,0.7628,0.3358,-3.2288,1.7413,-10.43,-9.418380272772225,-17.050855434948677,-102.51067737462041,5.920484603792656
-0.2862,-0.1545,0.9177,-0.2491,0.7615,0.3358,-2.8612,1.3825,-10.9287,-9.556140426535297,-17.093217444338553,-102.43784893850635,5.932591558647011
-0.285,-0.1555,0.917,-0.2491,0.7615,0.3358,-2.9925,1.4437,-10.5175,-9.624205374681988,-17.038114979088142,-102.47167746109695,5.942087355241393
-0.2846,-0.1555,0.922,-0.2486,0.7606,0.3401,-3.8588,1.5137,-9.66,-9.573252027850188,-16.93277989737558,-102.37777097384753,5.954243857690813
-0.2867,-0.1565,0.9229,-0.2483,0.7598,0.336,-3.5088,1.12,-10.2287,-9.624214530580197,-17.025526228929696,-102.43720796425946,5.966361783798361
-0.2894,-0.1536,0.9136,-0.2483,0.7598,0.336,-3.7362,1.12,-10.185,-9.54384513023365,-17.33727345684795,-102.31714544747159,5.978471569943863
-0.2883,-0.1554,0.9186,-0.2494,0.7618,0.3371,-3.4388,1.3475,-9.905,-9.601714020013924,-17.19948009778218,-102.4033800738922,5.990538532810771
-0.2872,-0.1558,0.9203,-0.2494,0.7618,0.3371,-3.0275,1.8025,-9.975,-9.608633610086855,-17.106109993896805,-102.43425323002803,6.002752368905911
-0.2846,-0.1551,0.9193,-0.2492,0.761,0.3326,-3.2638,1.2075,-10.5437,-9.576564290375346,-16.98016019167702,-102.56256638334625,6.014906040064186
-0.2855,-0.1538,0.9152,-0.2498,0.7618,0.3356,-3.2025,0.9975,-10.2725,-9.539545110025117,-17.096015019050828,-102.47861224119596,6.027045554766726
-0.287,-0.1521,0.9171,-0.2498,0.7618,0.3356,-3.92,1.33,-10.2637,-9.417005694657474,-17.15477479010434,-102.43256041392301,6.039198518102213
-0.288,-0.1546,0.9164,-0.2499,0.7615,0.3374,-3.955,1.3737,-9.9312,-9.575477959603187,-17.215789945135658,-102.41919026478467,6.048521252025258
-0.2872,-0.1554,0.9147,-0.2499,0.7615,0.3374,-3.08,1.155,-9.9663,-9.641867083167439,-17.20029999629203,-102.44008086214579,6.060673153626565
-0.2871,-0.1564,0.9213,-0.2528,0.7617,0.3349,-4.095,1.3912,-9.7212,-9.634703148831619,-17.082584555085152,-102.71717041940606,6.072791079734113
-0.2862,-0.1548,0.914,-0.2509,0.7581,0.3359,-3.8588,1.3562,-9.9225,-9.612754515645396,-17.154655210908498,-102.5843646465788,6.084848133082009
-0.288,-0.1574,0.9119,-0.2509,0.7581,0.3359,-3.57,1.3562,-10.4825,-9.79272736812893,-17.282843940282124,-102.58401758896554,6.097027639771996
-0.2872,-0.1548,0.919,-0.2491,0.7614,0.3356,-3.7188,1.3387,-10.1325,-9.56189879588184,-17.13303932714541,-102.43407141798383,6.109205730816409
-0.2823,-0.1531,0.919,-0.2491,0.7614,0.3356,-4.0425,1.5925,-10.395,-9.458513862870072,-16.86643559189126,-102.49678843531056,6.121374620164597
-0.286,-0.1541,0.9177,-0.2487,0.7626,0.3313,-2.8963,1.7237,-10.8937,-9.531999547167642,-17.07717929157942,-102.49641401397403,6.133498208854438
-0.2877,-0.1543,0.9185,-0.2493,0.7604,0.3358,-2.9488,1.5662,-10.9725,-9.536140997724457,-17.162905781210327,-102.43606413473697,6.145663913000085
-0.2839,-0.1541,0.9185,-0.2493,0.7604,0.3358,-3.465,1.6275,-10.5175,-9.5240440113618,-16.959929155789442,-102.50113838771358,6.155114408936121
-0.2857,-0.1545,0.9091,-0.248,0.762,0.3353,-3.0625,1.3737,-10.815,-9.644891371795312,-17.205727587238677,-102.35453388789932,6.167261355777922
-0.2898,-0.1556,0.9169,-0.248,0.762,0.3353,-3.3338,1.3037,-10.0537,-9.631494786144419,-17.30414039888639,-102.32177458292628,6.17938352882219
-0.2863,-0.1546,0.92,-0.2482,0.761,0.3352,-3.535,1.1375,-10.5087,-9.539268547390494,-17.068965387716066,-102.40516683796395,6.1915584346640635
-0.2885,-0.1543,0.9166,-0.2469,0.7624,0.3356,-3.57,0.8838,-9.7562,-9.555516542680325,-17.237697101539638,-102.24234348072522,6.203730155303398
-0.2836,-0.1548,0.9217,-0.2469,0.7624,0.3356,-4.0687,1.7237,-9.73,-9.533928137133199,-16.892164620778768,-102.35229183325403,6.21577411392974
-0.2866,-0.1535,0.9194,-0.2499,0.762,0.3343,-3.7713,1.8725,-9.7912,-9.478616665365625,-17.08426521199763,-102.50031297624717,6.227946188480467
-0.2857,-0.1518,0.9146,-0.2499,0.762,0.3343,-3.5438,1.2775,-10.15,-9.4238393367265,-17.12583501538625,-102.47653009933397,6.239920780473717
-0.2869,-0.1552,0.9151,-0.2477,0.762,0.3341,-3.4563,0.9275,-10.4562,-9.62525216393967,-17.17489373870319,-102.36916611753877,6.252116920999191
-0.2881,-0.1536,0.9173,-0.249,0.7611,0.3359,-3.5438,0.945,-9.8525,-9.506142103810342,-17.209763384479974,-102.38504353432056,6.260937808566496
-0.2882,-0.1548,0.9151,-0.249,0.7611,0.3359,-3.3075,1.19,-10.2637,-9.601148442383927,-17.24958632406936,-102.39419448003288,6.273158015066715
-0.2879,-0.1551,0.9138,-0.2494,0.7626,0.3359,-3.745,1.4088,-9.9225,-9.632981012363908,-17.25540597172906,-102.40887750136494,6.285328320060477
-0.2871,-0.1548,0.9173,-0.2494,0.7626,0.3359,-3.43,0.7613,-10.6662,-9.578887715487094,-17.154698819416602,-102.42951292408307,6.297998701853009
-0.2879,-0.155,0.9206,-0.2498,0.761,0.3306,-3.29,1.5662,-10.815,-9.557215314525942,-17.13977453330012,-102.59004962424267,6.31016157470751
-0.2872,-0.154,0.9151,-0.2491,0.7606,0.335,-3.0188,1.155,-10.3425,-9.552672339917086,-17.195053959396812,-102.4325770956164,6.322337896194957
-0.2877,-0.1542,0.9158,-0.2491,0.7606,0.335,-3.7713,1.3825,-10.115,-9.55765159884522,-17.211915829698818,-102.42863202560105,6.334476703074711
-0.2863,-0.153,0.9157,-0.2485,0.7606,0.3345,-3.4825,1.0237,-10.185,-9.485821305987573,-17.141244019905006,-102.4078690437121,6.346657271498878
-0.2853,-0.1534,0.919,-0.2485,0.7606,0.3345,-4.1388,1.7413,-9.9137,-9.476497071139166,-17.02903480070092,-102.44191331953797,6.358774843695033
-0.2881,-0.1541,0.9157,-0.2488,0.7618,0.3346,-3.36,1.7062,-9.7912,-9.552429941953973,-17.229970792514273,-102.39555426594194,6.370820217966949
-0.2879,-0.1554,0.9121,-0.2486,0.7609,0.335,-3.2987,1.2775,-10.2462,-9.668720459372903,-17.282310667610176,-102.39573097587588,6.380298318991664
-0.2884,-0.1538,0.9179,-0.2486,0.7609,0.335,-3.7625,1.435,-10.4212,-9.512270567197442,-17.219133895976384,-102.3809391377737,6.392415891187818
-0.2883,-0.1532,0.9182,-0.2499,0.7628,0.3346,-3.4913,1.3737,-9.9488,-9.472531352025852,-17.2082699620373,-102.44605983167334,6.404561422384046
-0.2865,-0.1556,0.9187,-0.2499,0.7628,0.3346,-3.4913,1.89,-9.975,-9.61262686755961,-17.09533366015734,-102.51496815260613,6.416659883364961
-0.2863,-0.154,0.9179,-0.2506,0.7602,0.3335,-3.4388,1.3387,-10.255,-9.524258017110528,-17.098233824764545,-102.59227544720149,6.428818155371348
-0.2868,-0.1534,0.917,-0.2486,0.7626,0.3349,-3.4825,1.225,-9.975,-9.496830622463468,-17.1420480763953,-102.38388892882524,6.440885472149651
-0.2849,-0.1541,0.9164,-0.2486,0.7626,0.3349,-3.605,0.8575,-9.9137,-9.545329823615642,-17.048011838748685,-102.4260016442199,6.453199111257709
-0.2843,-0.154,0.9197,-0.2506,0.7631,0.3354,-3.3688,1.19,-10.1675,-9.50584706864944,-16.958400563223126,-102.55788778672544,6.465209094390292
-0.2863,-0.1563,0.9191,-0.2506,0.7631,0.3354,-3.465,1.435,-9.8787,-9.65092605473821,-17.067484716626737,-102.55413910806787,6.474582083731189
-0.288,-0.1551,0.9138,-0.2501,0.7618,0.3359,-4.025,1.7762,-10.0012,-9.633094213633589,-17.25465633866638,-102.46149495348435,6.486792026801002
-0.288,-0.1565,0.9148,-0.2491,0.7607,0.3361,-3.43,1.4787,-10.4825,-9.70776345585361,-17.24038160550758,-102.42877885293849,6.498870314832497
-0.2886,-0.1556,0.9126,-0.2491,0.7607,0.3361,-3.3775,1.3912,-10.57,-9.676062131191186,-17.31188734053866,-102.39780391240602,6.5110561919275645
-0.2862,-0.1551,0.9152,-0.2453,0.7622,0.3354,-3.1325,1.2075,-10.605,-9.61872366572216,-17.14157504491718,-102.19405299455117,6.523213048288378
-0.2885,-0.154,0.9183,-0.2453,0.7622,0.3354,-3.6312,0.875,-10.2375,-9.5202086102835,-17.2126855216367,-102.1460838486511,6.535359641218786
-0.2832,-0.1546,0.9157,-0.2491,0.765,0.333,-3.5175,1.7937,-10.1763,-9.582880987921097,-16.968009992235093,-102.5075618330226,6.5475058802378
-0.2885,-0.1531,0.9162,-0.2506,0.7613,0.3353,-2.9663,0.9538,-9.905,-9.486877330316544,-17.24435569418787,-102.48164336810946,6.559627699370675
-0.286,-0.1562,0.9179,-0.2506,0.7613,0.3353,-3.1412,1.1462,-10.7187,-9.657182242602577,-17.08076240361487,-102.57721016862024,6.571811806908775
-0.287,-0.1548,0.9166,-0.2492,0.762,0.3354,-3.3688,1.4962,-10.885,-9.586105894661472,-17.155046142566324,-102.43427238640817,6.584001223117776
-0.2868,-0.1546,0.9137,-0.2492,0.762,0.3354,-3.7975,1.4525,-10.4038,-9.603569966600471,-17.195349709177194,-102.42578764037462,6.593678576256934
-0.2889,-0.1544,0.9191,-0.2498,0.7624,0.3354,-3.3688,1.0762,-9.6425,-9.536255497500097,-17.221777933534863,-102.43631298544894,6.60545497786992
-0.2875,-0.1555,0.9146,-0.2514,0.7622,0.335,-3.7188,1.0587,-10.5087,-9.648884618549456,-17.21822197912888,-102.5780541416433,6.61764970274982
-0.2846,-0.1526,0.9167,-0.2514,0.7622,0.335,-3.1763,1.365,-10.465,-9.451621744100974,-17.033472130081353,-102.59390405992781,6.629828855528414
-0.2854,-0.1534,0.918,-0.248,0.761,0.3354,-3.6575,1.505,-10.2725,-9.486531691891853,-17.047233825205247,-102.38037343503431,6.641979695395542
-0.2848,-0.1536,0.9208,-0.248,0.761,0.3354,-3.78,1.1812,-9.8175,-9.470431003101526,-16.968650488108462,-102.40253476479394,6.654032147895324
-0.2854,-0.1546,0.9185,-0.2506,0.7622,0.3308,-3.4563,1.1112,-9.7475,-9.554159058787715,-17.03355599751372,-102.65500626815442,6.666219794547358
-0.2877,-0.1582,0.9164,-0.25,0.7604,0.3342,-3.5875,1.12,-9.6075,-9.794003775138963,-17.185269132320798,-102.56825625971524,6.678314008591553
-0.2883,-0.1556,0.9209,-0.25,0.7604,0.3342,-3.605,0.9538,-10.0625,-9.590870717646798,-17.155832200560003,-102.53282973871639,6.690459185876387
-0.2871,-0.1549,0.9145,-0.2534,0.763,0.3351,-3.2462,1.2337,-10.0712,-9.613585686720713,-17.197586734494404,-102.693483254916,6.699816603115977
-0.2872,-0.1541,0.9184,-0.2534,0.763,0.3351,-2.835,1.3387,-10.1412,-9.525235400788686,-17.142026500815604,-102.6922223936093,6.712016282755384
-0.2848,-0.154,0.9192,-0.2475,0.762,0.333,-3.3688,1.1812,-9.94,-9.510866121342819,-16.99688735013054,-102.41262685150109,6.724148011407272
-0.2851,-0.1527,0.9175,-0.2503,0.7621,0.3353,-3.6312,1.225,-10.7887,-9.449297317139726,-17.039841645677136,-102.51221734904915,6.736988270668602
-0.2862,-0.1531,0.9121,-0.2503,0.7621,0.3353,-3.6312,1.365,-10.71,-9.528342315497817,-17.189601972761295,-102.4814614872649,6.748396958343921
-0.2888,-0.1537,0.9142,-0.2491,0.7622,0.3347,-3.3163,1.365,-10.0362,-9.543573940498923,-17.299683517497744,-102.38508092445707,6.760077449969316
-0.2863,-0.1557,0.9201,-0.2491,0.7622,0.3347,-3.5875,1.645,-10.0275,-9.604506542779546,-17.064269630094888,-102.47715157519616,6.772324907646822
-0.287,-0.1565,0.9198,-0.2529,0.7629,0.3323,-3.5263,1.5575,-10.2287,-9.656040358796098,-17.096945608973638,-102.76573702737251,6.784564933185068
-0.2857,-0.1574,0.9159,-0.2494,0.7615,0.3362,-3.3075,1.295,-10.4125,-9.750974591412298,-17.089111178754813,-102.49466463674065,6.796808851748641
-0.2878,-0.1538,0.9185,-0.2494,0.7615,0.3362,-3.3863,1.2687,-10.7712,-9.506370860036421,-17.170149733025106,-102.4119512185354,6.8090481694641
-0.2867,-0.154,0.918,-0.2532,0.7608,0.3347,-3.4738,1.6187,-10.605,-9.523000434204201,-17.12084541108621,-102.7199101138364,6.821351191230359
-0.2846,-0.1547,0.9182,-0.2532,0.7608,0.3347,-3.5088,1.4612,-10.3337,-9.56338970213242,-16.999806270929408,-102.76850793053327,6.830679587735696
-0.2872,-0.1534,0.9161,-0.2528,0.7604,0.3406,-3.64,1.295,-10.3425,-9.506058452386535,-17.175426244657302,-102.5443061957585,6.843124527970679
-0.2867,-0.1529,0.9176,-0.2513,0.762,0.3362,-3.745,1.505,-10.08,-9.46040112945219,-17.130658666301173,-102.5327574500699,6.854730698203475
-0.2861,-0.1541,0.9155,-0.2513,0.762,0.3362,-3.465,1.7587,-9.7125,-9.554437063667828,-17.127911034875886,-102.55451482220353,6.866912682273215
-0.2864,-0.1551,0.919,-0.2496,0.7609,0.335,-3.8325,1.3037,-9.87,-9.57950240193672,-17.083590439302696,-102.50402577390847,6.879086880292302
-0.2854,-0.1534,0.9152,-0.2496,0.7609,0.335,-3.2638,1.5312,-10.43,-9.515251294390628,-17.095091689592163,-102.48512361455077,6.891317350222929
-0.2858,-0.1538,0.9167,-0.2506,0.7627,0.3316,-3.6225,1.3912,-10.1062,-9.524117382695598,-17.09138015489316,-102.60745341564078,6.903490840419229
-0.2862,-0.1551,0.9136,-0.2511,0.7606,0.3358,-3.1412,1.225,-10.29,-9.63487079754906,-17.160758229025607,-102.57369989590978,6.915707153894123
-0.288,-0.1552,0.921,-0.2511,0.7606,0.3358,-3.5263,1.4088,-9.7388,-9.565349020379317,-17.138249021600384,-102.56596874211222,6.927889845786649
-0.2846,-0.1556,0.9162,-0.2492,0.7606,0.3359,-3.3425,1.1987,-9.8787,-9.638518383297892,-17.030696060486022,-102.49251637184582,6.936903261151925
-0.2876,-0.1555,0.9162,-0.2492,0.7606,0.3359,-3.4213,1.5662,-10.43,-9.632619974643347,-17.190635093930435,-102.4374423908434,6.949041714120286
-0.2891,-0.1559,0.9139,-0.2494,0.761,0.3315,-3.6312,1.89,-10.5962,-9.680653592870376,-17.314759088815496,-102.51634188005646,6.9612226364558465
-0.2881,-0.1532,0.9209,-0.2512,0.7613,0.3347,-3.6138,1.1375,-10.0625,-9.445704837574493,-17.155950374871868,-102.5573082880161,6.9734552298548325
-0.2871,-0.1696,0.9167,-0.2512,0.7613,0.3347,-3.675,1.225,-10.4212,-10.47949726659586,-17.118164402358406,-102.80383036232031,6.985667650304399
-0.2866,-0.1558,0.9137,-0.2494,0.7606,0.336,-3.5963,1.0762,-10.0537,-9.678573005850424,-17.179841524689735,-102.46305508220367,6.9978928115641255
-0.2848,-0.1541,0.9122,-0.2494,0.7606,0.336,-3.4563,0.9275,-9.9137,-9.58878022813778,-17.113278671556476,-102.46517538802031,7.01002630977298
-0.2863,-0.1543,0.9182,-0.2516,0.7614,0.3375,-3.7275,0.9275,-10.0537,-9.539321581262813,-17.093050298332432,-102.55985170434421,7.022232359817466
-0.2868,-0.1557,0.9165,-0.2483,0.7613,0.3355,-3.815,1.1638,-10.2725,-9.641432678632189,-17.143736085569714,-102.39835973244001,7.034440887241707
-0.2843,-0.1531,0.9145,-0.2483,0.7613,0.3355,-3.01,1.4262,-10.15,-9.504284659933552,-17.049506201053422,-102.39838955018136,7.046672772817906
-0.2873,-0.1534,0.9151,-0.2493,0.7625,0.336,-3.0713,1.6275,-10.7362,-9.516098931127281,-17.199088024414827,-102.39081130195748,7.055651858778028
-0.2865,-0.1544,0.9198,-0.2493,0.7625,0.336,-3.7625,1.3825,-10.2375,-9.52894877566704,-17.08019339110938,-102.43452668397275,7.067816855100889
-0.289,-0.1544,0.9141,-0.2503,0.7622,0.33,-3.6138,1.47,-9.3013,-9.58716510654324,-17.30657470592873,-102.57411247913787,7.080018304297263
-0.2893,-0.1555,0.9174,-0.2474,0.7614,0.3346,-3.2375,1.4437,-10.0187,-9.620167176142916,-17.272340108076737,-102.31444635402434,7.092362379785147
-0.2855,-0.1527,0.918,-0.2474,0.7614,0.3346,-3.1675,1.575,-10.36,-9.444502966958758,-17.062657563536078,-102.34227265902585,7.10442757309509
-0.287,-0.1534,0.9163,-0.2501,0.7609,0.3342,-3.1238,1.3475,-10.605,-9.503756005283535,-17.16332249410357,-102.50984145148382,7.116846677798359
-0.2866,-0.1549,0.9132,-0.2501,0.7609,0.3342,-2.7475,1.2687,-10.5,-9.626787349546492,-17.19220083152665,-102.5297258989428,7.1290304314250665
-0.2857,-0.1544,0.9158,-0.248,0.7606,0.3451,-3.64,1.4262,-9.9312,-9.569959738983199,-17.102394446211072,-102.17300121555249,7.1411625139883474
-0.286,-0.1536,0.9157,-0.2473,0.761,0.3354,-3.9375,1.6275,-9.9837,-9.522285171890974,-17.11958972537888,-102.31964433903069,7.153281501830076
-0.2866,-0.1549,0.9111,-0.2473,0.761,0.3354,-3.5,1.6013,-9.765,-9.648552297223453,-17.225724668377403,-102.31415804779662,7.162645997297533
-0.2882,-0.1546,0.9174,-0.2498,0.7609,0.3358,-3.9375,1.5137,-9.6162,-9.565782918167988,-17.212438667270106,-102.45456892961676,7.174373205226846
-0.2871,-0.1563,0.9174,-0.2498,0.7609,0.3358,-3.4825,1.1638,-10.3337,-9.668569443985715,-17.147454137324935,-102.49941777239994,7.186577485714366
-0.2864,-0.1559,0.918,-0.2507,0.762,0.335,-3.5088,1.1112,-10.0975,-9.63840803373019,-17.098467356730456,-102.57106185395183,7.1987697332145135
-0.2856,-0.1554,0.9212,-0.2477,0.7598,0.3356,-3.255,1.05,-10.2812,-9.575391405980286,-17.002273384693872,-102.40567703380962,7.21119910134819
-0.2874,-0.1534,0.9139,-0.2477,0.7598,0.3356,-3.115,1.155,-9.905,-9.528498741065032,-17.223033789528245,-102.32115245603674,7.223538575987961
-0.2857,-0.1558,0.9161,-0.2482,0.7614,0.3344,-3.1588,1.2775,-9.8262,-9.651594680205486,-17.094540872631026,-102.43465169037992,7.2351146637523245
-0.2855,-0.1551,0.9155,-0.2482,0.7614,0.3344,-3.7888,1.6275,-9.8787,-9.61558220140759,-17.09121988273407,-102.42617361973097,7.247317528594271
-0.2862,-0.1551,0.9127,-0.2502,0.7631,0.3354,-4.375,1.7587,-9.7562,-9.644379800299236,-17.175664847752884,-102.49285634301489,7.259511545651384
-0.2886,-0.156,0.9215,-0.2486,0.7613,0.3371,-3.3075,1.4088,-10.7712,-9.608540473097731,-17.16076032277043,-102.36997796860355,7.268167864420792
-0.2858,-0.1552,0.9123,-0.2486,0.7613,0.3371,-3.1325,1.3212,-10.7275,-9.65459370295036,-17.16256333952618,-102.37965105608043,7.281198174100339
-0.2858,-0.1513,0.9196,-0.2497,0.7613,0.3352,-3.3513,1.1638,-10.5787,-9.343767026287663,-17.052697997926536,-102.45848466453741,7.293370956473853
-0.2894,-0.1551,0.9206,-0.2497,0.7613,0.3352,-3.5875,1.2425,-10.1937,-9.562719277705616,-17.21730389199637,-102.45297477607082,7.305545154492941
-0.2847,-0.1541,0.9207,-0.2495,0.7609,0.3385,-3.4913,1.3912,-10.4212,-9.501813104644418,-16.969220542636457,-102.44159690120607,7.317640784182709
-0.2883,-0.1542,0.9146,-0.249,0.7635,0.3334,-3.6488,1.6187,-10.29,-9.569816350549216,-17.2568944658273,-102.41044472331978,7.329816751758763
-0.2879,-0.1547,0.9165,-0.249,0.7635,0.3334,-3.9725,0.8575,-9.4325,-9.580867092880078,-17.21181217854071,-102.43073451664378,7.341995550625963
-0.2858,-0.1555,0.9138,-0.2502,0.7615,0.3361,-3.6312,1.1287,-10.115,-9.657255695960487,-17.138497551931362,-102.51206612891332,7.354131172303178
-0.2903,-0.1534,0.9115,-0.2502,0.7615,0.3361,-3.22,1.4437,-10.0362,-9.553255422593793,-17.4259063346804,-102.3927460350392,7.366318818955211
-0.2856,-0.1535,0.9171,-0.2505,0.7617,0.3314,-2.7475,1.7675,-10.7887,-9.50194550762606,-17.08598361724228,-102.61730436838599,7.378375518391714
-0.2871,-0.1529,0.9167,-0.2492,0.7622,0.3347,-3.3688,1.715,-10.7537,-9.469490801951753,-17.16426525228092,-102.41799310823353,7.388046147214399
-0.2871,-0.1548,0.9152,-0.2492,0.7622,0.3347,-4.1125,1.33,-10.2112,-9.600037415097809,-17.18651405240837,-102.44127693231987,7.400023924410189
-0.2879,-0.1548,0.918,-0.2487,0.7618,0.3361,-3.9813,1.5225,-10.29,-9.571660354280114,-17.18432978590416,-102.37686108279259,7.41219953807485
-0.2866,-0.1559,0.9166,-0.2487,0.7618,0.3361,-3.6488,1.3562,-10.0012,-9.652599599982192,-17.133691693023636,-102.4119068214142,7.4243263119672305
-0.2877,-0.1555,0.9141,-0.2492,0.7614,0.3335,-3.6488,1.2862,-10.4562,-9.654315989011954,-17.23449668079513,-102.47346828176546,7.436564921859904
-0.289,-0.1549,0.9146,-0.2505,0.7612,0.3346,-3.8238,1.5312,-10.0275,-9.612700725169852,-17.30198797801166,-102.50474243074882,7.4486672758661445
-0.2864,-0.1557,0.9205,-0.2505,0.7612,0.3346,-3.7975,1.5925,-10.0362,-9.600577013471147,-17.063194704320967,-102.58090737392429,7.460845720821952
-0.2857,-0.152,0.9173,-0.2484,0.761,0.3349,-3.465,1.3562,-9.94,-9.409066992112002,-17.079920364661934,-102.38921544741736,7.472913745423041
-0.2882,-0.1534,0.9185,-0.2484,0.761,0.3349,-3.6225,1.6625,-11.0513,-9.481376100486003,-17.19260883313758,-102.36860915922823,7.485112009416874
-0.2846,-0.1538,0.9171,-0.2486,0.7627,0.3338,-2.8612,1.855,-10.395,-9.519971833385066,-17.022835942843763,-102.45211933527769,7.497273466625802
-0.2844,-0.1548,0.9204,-0.2489,0.7592,0.335,-3.3513,1.6887,-9.9663,-9.547035514231784,-16.949413836172155,-102.5137350973064,7.506634069067932
-0.2858,-0.1562,0.9186,-0.2489,0.7592,0.335,-3.255,1.1287,-10.0187,-9.650114263974736,-17.048564163144643,-102.50371264083158,7.518809682732592
-0.2869,-0.1572,0.9182,-0.2476,0.7612,0.3356,-3.6225,1.68,-9.9663,-9.714960231725701,-17.11534750418193,-102.37746085755627,7.530895756814741
-0.2871,-0.1566,0.9165,-0.2476,0.7612,0.3356,-3.4825,1.3037,-10.5262,-9.696384801491387,-17.15825219201107,-102.359818620318,7.543043411479328
-0.2837,-0.1552,0.9224,-0.249,0.7621,0.3346,-2.9313,1.3212,-10.325,-9.551270543521158,-16.88231464742069,-102.51966199897636,7.555227872928822
-0.2874,-0.1534,0.917,-0.2482,0.763,0.335,-3.4125,1.3562,-10.3162,-9.496891982360605,-17.16742644935201,-102.34052348510781,7.5673783588845565
-0.2871,-0.1544,0.9187,-0.2482,0.763,0.335,-3.3688,1.2337,-10.6138,-9.54007959769918,-17.129798157881677,-102.36572405143258,7.579505486688331
-0.288,-0.155,0.918,-0.2507,0.7622,0.3359,-3.5088,1.645,-10.1763,-9.583633627615335,-17.187278155914083,-102.50703100232741,7.591701627213804
-0.2866,-0.1538,0.9158,-0.2507,0.7622,0.3359,-3.8588,1.645,-9.6775,-9.533440097742012,-17.15291595599685,-102.50764233814793,7.603826631549219
-0.2864,-0.1548,0.9199,-0.249,0.7622,0.3395,-3.2638,0.9187,-10.1675,-9.55214815393631,-17.070427664252797,-102.34949927375385,7.615925800352921
-0.2881,-0.1554,0.9172,-0.2514,0.7614,0.3362,-3.2025,1.4875,-10.3512,-9.616082916381812,-17.20285287623235,-102.55635638480402,7.625586165745199
-0.2856,-0.1545,0.9295,-0.2514,0.7614,0.3362,-3.325,1.3212,-10.2462,-9.437736620483927,-16.873638984656843,-102.62642033534897,7.637463078193891
-0.2866,-0.1542,0.919,-0.2479,0.7614,0.3359,-3.6925,1.2512,-10.1237,-9.524795182929802,-17.088444238171576,-102.35172558374278,7.649771408631049
-0.2841,-0.1546,0.9156,-0.2479,0.7614,0.3359,-4.1475,1.5925,-9.8,-9.583916108421555,-17.014469652603996,-102.39149035204584,7.662063459144115
-0.2862,-0.1535,0.9146,-0.2497,0.7611,0.3381,-3.3163,1.33,-10.3512,-9.52745452862785,-17.146055031557633,-102.40575059081034,7.674041944162692
-0.2868,-0.1512,0.9137,-0.2494,0.7614,0.3341,-2.975,1.435,-10.4038,-9.396510377936151,-17.204523386279007,-102.42388217831086,7.686084487143461
-0.2862,-0.1543,0.9135,-0.2494,0.7614,0.3341,-3.6837,1.4612,-10.64,-9.586945881885898,-17.168458256175853,-102.4800246590274,7.698272133795494
-0.2883,-0.1563,0.9176,-0.2482,0.7612,0.3343,-3.2025,1.1462,-10.2025,-9.666554703016203,-17.20786275310239,-102.40524194706724,7.7104619039158875
-0.2885,-0.1549,0.9165,-0.2482,0.7612,0.3343,-3.885,1.225,-9.8875,-9.593215835629161,-17.242248161636706,-102.37745863389698,7.722578768289256
-0.2888,-0.1516,0.9134,-0.2491,0.7618,0.3278,-4.27,1.4787,-9.73,-9.424049797469012,-17.32071397412935,-102.50968409055484,7.731865757161574
-0.2876,-0.1537,0.9133,-0.2496,0.7592,0.3401,-2.9225,1.2163,-10.2287,-9.55254773228952,-17.253723493397416,-102.34976063318048,7.744024029167961
-0.2879,-0.154,0.9177,-0.2496,0.7592,0.3401,-2.9313,1.015,-10.0887,-9.526154416289527,-17.193757327880828,-102.36289145420935,7.758200657850498
-0.2869,-0.1552,0.9232,-0.2478,0.7633,0.3362,-2.7825,1.1812,-10.2462,-9.542778566016127,-17.04372131721557,-102.33914053429099,7.767800858305911
-0.2852,-0.157,0.9241,-0.2478,0.7633,0.3362,-3.5,1.1725,-10.15,-9.641974055655727,-16.92716915661583,-102.39795920264311,7.780044069046697
-0.2865,-0.1581,0.914,-0.2475,0.7602,0.3378,-3.3075,1.2687,-9.9925,-9.813292349721788,-17.15644962133519,-102.34113378424591,7.792234900901271
-0.2867,-0.1541,0.9124,-0.2491,0.7628,0.3374,-3.3338,1.2163,-10.0362,-9.58702804745034,-17.213021398065166,-102.35611113842327,7.804475988173697
-0.2832,-0.1542,0.9227,-0.2491,0.7628,0.3374,-3.3338,1.61,-10.01,-9.487720419912822,-16.855015653578825,-102.45249345217339,7.816706812015717
-0.2884,-0.1539,0.9156,-0.2507,0.7609,0.3361,-2.695,1.33,-10.2462,-9.541333888039814,-17.242774899709783,-102.486585682765,7.828935866300769
-0.2885,-0.1532,0.9167,-0.2507,0.7609,0.3361,-2.9313,0.9187,-10.6487,-9.487780885022834,-17.244840328138388,-102.47793622229634,7.8412806496114404
-0.289,-0.1548,0.9165,-0.2506,0.7629,0.3379,-3.57,1.5575,-10.4912,-9.58674515189429,-17.270923811643097,-102.42272926888126,7.85071451171199
-0.2905,-0.1554,0.9167,-0.2523,0.7622,0.3353,-3.99,1.5137,-10.4825,-9.621296654510742,-17.34819754169121,-102.58098512319654,7.862890833199437
-0.2869,-0.1546,0.9156,-0.2523,0.7622,0.3353,-3.9463,0.945,-9.94,-9.584135678294722,-17.175633136934717,-102.63005722884748,7.875031409636158
-0.2875,-0.1585,0.9171,-0.249,0.7618,0.3357,-3.2725,1.505,-9.7475,-9.804916154326538,-17.16668424086646,-102.46439556780162,7.8872342744781045
-0.2878,-0.1545,0.9159,-0.249,0.7618,0.3357,-3.36,1.3825,-10.0362,-9.575409985860333,-17.213901416912215,-102.39596965413936,7.899252043661341
-0.2857,-0.1543,0.9162,-0.2516,0.7615,0.3357,-3.3075,1.0937,-9.275,-9.559684196778893,-17.096750689807347,-102.60288778265024,7.9113600602498755
-0.2874,-0.155,0.9185,-0.2495,0.7603,0.3338,-3.5175,1.6275,-10.0887,-9.578569445147734,-17.145336589542335,-102.51030963037846,7.923531073066423
-0.2849,-0.1541,0.9196,-0.2495,0.7603,0.3338,-3.3075,1.6975,-10.0012,-9.512981742021141,-16.995697342396035,-102.54486014860272,7.935707040642477
-0.289,-0.1545,0.9109,-0.2488,0.761,0.3355,-3.3775,1.4875,-10.2812,-9.626206034719567,-17.357145695517087,-102.35955075198679,7.947942111421216
-0.288,-0.1565,0.9098,-0.2488,0.761,0.3355,-3.9025,1.4088,-9.8525,-9.759957163864515,-17.327450517285573,-102.40406392205075,7.957199371736494
-0.2891,-0.1546,0.919,-0.2491,0.7611,0.3362,-3.8675,1.2775,-10.185,-9.549726463560136,-17.238131962380606,-102.3871149381849,7.969399051375901
-0.2893,-0.1553,0.9204,-0.2496,0.7602,0.3372,-3.08,1.6187,-10.2812,-9.577300945933642,-17.22084353242793,-102.41857454906886,7.981556969470895
-0.2864,-0.156,0.9156,-0.2496,0.7602,0.3372,-3.9725,1.2687,-10.0712,-9.66900014016988,-17.140281820218718,-102.46593115168164,7.993697545907616
-0.284,-0.1553,0.9134,-0.2501,0.7622,0.3342,-3.5613,1.225,-10.0012,-9.649431140298349,-17.0450168200309,-102.56745363202045,8.005828212825325
-0.2827,-0.1546,0.9141,-0.2501,0.7622,0.3342,-3.4738,0.7437,-9.7825,-9.599599042232052,-16.961170904096,-102.58250431321007,8.017958525831638
-0.285,-0.1548,0.9163,-0.2502,0.7613,0.3357,-3.4213,1.0587,-10.01,-9.589048295503042,-17.047180843864787,-102.53505155605814,8.030129892559579
-0.2882,-0.1558,0.9155,-0.2492,0.76,0.3364,-3.2113,1.155,-9.9575,-9.657924585374376,-17.23468556573745,-102.42472804358411,8.042213489261973
-0.2876,-0.1532,0.9187,-0.2492,0.76,0.3364,-3.0538,1.5225,-9.8175,-9.467811397149537,-17.162531542043446,-102.40700957523421,8.054338139685996
-0.2898,-0.1532,0.9166,-0.249,0.7604,0.3346,-3.3775,1.3125,-10.2812,-9.488627948534779,-17.31444581520809,-102.38336042829944,8.06645358841379
-0.288,-0.154,0.9247,-0.249,0.7604,0.3346,-3.7013,1.6275,-10.3162,-9.455364392474877,-17.08605598541223,-102.45275232615462,8.075912932134658
-0.2863,-0.1556,0.9194,-0.2501,0.7607,0.3385,-3.6575,1.6712,-10.1763,-9.605421505205587,-17.068803362518278,-102.47158270576027,8.088099517052513
-0.2865,-0.1546,0.9164,-0.2497,0.76,0.3356,-3.43,1.505,-10.7275,-9.575906469963916,-17.131315190469802,-102.49030292608477,8.100226290944894
-0.2901,-0.1555,0.9152,-0.2497,0.76,0.3356,-3.5175,1.6712,-9.8437,-9.642781841163947,-17.34653922816796,-102.4355380498667,8.112319089343515
-0.2883,-0.1532,0.9198,-0.2505,0.7606,0.335,-2.8087,1.5487,-9.94,-9.45668447649654,-17.186088069138936,-102.5063237057095,8.12446001969163
-0.2829,-0.1556,0.9171,-0.2505,0.7606,0.335,-2.905,1.6887,-10.8238,-9.629011254149995,-16.92504630430284,-102.62939198185578,8.136659345419643
-0.2851,-0.1555,0.9137,-0.249,0.7618,0.3347,-3.4825,1.575,-10.4475,-9.658399844198524,-17.09231843199636,-102.47443959797876,8.148764530717031
-0.289,-0.1562,0.9162,-0.2505,0.7612,0.3301,-4.095,1.505,-10.3337,-9.67511280329671,-17.266825314880045,-102.62954955193273,8.160941560027265
-0.2872,-0.154,0.9164,-0.2505,0.7612,0.3301,-3.9025,1.5312,-9.6775,-9.539668627882946,-17.17773959987064,-102.6291809223891,8.17302940366638
-0.2869,-0.1556,0.9202,-0.2485,0.7626,0.3356,-3.2025,1.4175,-10.3687,-9.59743629384997,-17.091276915589873,-102.40243998301546,8.182463973589716
-0.2899,-0.1557,0.9184,-0.2485,0.7626,0.3356,-2.9138,1.0587,-9.8525,-9.622035933853446,-17.280525463799957,-102.34501452518714,8.194594994418818
-0.2869,-0.1554,0.9151,-0.2518,0.7619,0.3395,-3.7625,1.3212,-10.535,-9.637846553431245,-17.179488899318585,-102.5181570633878,8.206759636830284
-0.2903,-0.1546,0.912,-0.2494,0.7608,0.3357,-4.0163,1.5137,-10.08,-9.621214834545881,-17.415408450464167,-102.37771279074182,8.218895966330285
-0.2899,-0.1543,0.9213,-0.2494,0.7608,0.3357,-3.5175,1.4875,-9.9488,-9.507956165533537,-17.24715721029477,-102.4095267427862,8.230986641260547
-0.2861,-0.154,0.9188,-0.2485,0.7602,0.335,-3.6837,1.6975,-10.2462,-9.5148824782519,-17.077702304425937,-102.42931751405439,8.243174641823975
-0.2866,-0.1542,0.9187,-0.2485,0.7602,0.335,-4.1038,1.8288,-10.6837,-9.52801694623149,-17.100189131094915,-102.42302451529179,8.255016517044726
-0.2862,-0.1557,0.9173,-0.2507,0.7601,0.3342,-3.5963,2.0125,-10.57,-9.633174765272573,-17.098124914704616,-102.60914187579242,8.2672073488993
-0.2863,-0.1575,0.9184,-0.2507,0.762,0.3317,-3.5088,1.3825,-9.8,-9.730992053248789,-17.08031814479241,-102.67049746905899,8.27942012326026
-0.2847,-0.1599,0.9195,-0.2507,0.762,0.3317,-3.4825,1.4962,-9.975,-9.864713495987184,-16.968068070660667,-102.73643284599467,8.288129528738667
-0.2852,-0.1554,0.9159,-0.2487,0.7605,0.3367,-3.8763,1.68,-9.765,-9.630156670273065,-17.063157978348112,-102.42922832361602,8.300311158897014
-0.2877,-0.1561,0.9152,-0.2487,0.7605,0.3367,-3.5788,1.6013,-9.905,-9.679327020118954,-17.21207213493288,-102.39240394698315,8.312521101966826
-0.2879,-0.1543,0.9153,-0.2513,0.761,0.3373,-3.1412,1.7937,-9.2137,-9.56912529970078,-17.231395738132047,-102.51141765895738,8.32473635370754
-0.288,-0.1535,0.9216,-0.2478,0.7599,0.3389,-3.1412,1.7675,-10.255,-9.456529369596291,-17.13547453051597,-102.26850578977988,8.337430447563426
-0.2887,-0.1521,0.9175,-0.2478,0.7599,0.3389,-3.08,1.0675,-10.71,-9.412793953008036,-17.241880039415967,-102.22155816692168,8.349608184696447
-0.2891,-0.1527,0.9165,-0.2487,0.7595,0.3362,-3.4563,1.1375,-10.15,-9.459175245081886,-17.282145265871158,-102.34301525368768,8.361732835120467
-0.2883,-0.1545,0.919,-0.2487,0.7595,0.3362,-3.4388,1.2425,-10.0187,-9.542993280950782,-17.1935139169139,-102.39218230365638,8.373902786202835
-0.2862,-0.1541,0.9193,-0.2499,0.7611,0.3342,-3.3688,1.47,-10.3775,-9.515941631027157,-17.072783605536138,-102.52851862295354,8.386068844259876
-0.2858,-0.1582,0.9193,-0.2506,0.7623,0.3384,-3.185,1.1638,-10.0625,-9.763684340502131,-17.035569577429353,-102.53438510335859,8.39819491032947
-0.2862,-0.1573,0.9136,-0.2506,0.7623,0.3384,-3.2025,1.1725,-9.94,-9.769163202151224,-17.152656825375267,-102.49676264471307,8.407923580620661
-0.2868,-0.1535,0.9172,-0.25,0.7621,0.3348,-3.8238,1.1638,-9.8437,-9.501422012828561,-17.14027812052447,-102.48429087938571,8.419815357347872
-0.2841,-0.1543,0.9174,-0.25,0.7621,0.3348,-3.2025,1.295,-9.5375,-9.547269936827238,-16.987443200262735,-102.54474646212799,8.431813661404476
-0.2865,-0.1532,0.9184,-0.2485,0.7618,0.337,-3.1763,1.5225,-9.73,-9.470589916122062,-17.099424929808357,-102.34688401621791,8.443928402309485
-0.2891,-0.152,0.9118,-0.2485,0.7618,0.3332,-2.8875,1.61,-10.0712,-9.464374324846968,-17.35798588510946,-102.345736810737,8.456056237936044
-0.2876,-0.1546,0.914,-0.2497,0.7622,0.3332,-3.5525,1.5837,-9.3362,-9.6002068796299,-17.24080280898248,-102.4913011678676,8.468185843119572
-0.2879,-0.1553,0.9173,-0.2499,0.7614,0.3361,-2.9838,0.98,-10.64,-9.60910745693543,-17.196325966289805,-102.46423199846568,8.480359333315874
-0.2884,-0.1577,0.9209,-0.2499,0.7614,0.3361,-2.7562,1.2687,-10.8062,-9.717143986155353,-17.155741175547302,-102.50170442642897,8.49251972879062
-0.2867,-0.1552,0.9179,-0.2496,0.7613,0.3366,-3.85,1.4875,-10.1325,-9.597168567016315,-17.118667958676625,-102.45673205368135,8.501928463182244
-0.2852,-0.1549,0.9203,-0.2496,0.7606,0.3358,-3.535,1.3037,-10.1587,-9.554267502428413,-16.997372287976148,-102.51221172396498,8.514075410024045
-0.2839,-0.1522,0.9152,-0.2492,0.7606,0.3358,-3.3425,1.4175,-11.095,-9.442271779543393,-17.013689843328596,-102.45443657980864,8.526239344612724
-0.2829,-0.1523,0.9218,-0.2471,0.7614,0.3356,-3.2375,1.4787,-10.3162,-9.381805630517201,-16.85167211615101,-102.35366246843945,8.538389830568459
-0.2855,-0.1527,0.9155,-0.2471,0.7614,0.3356,-3.8413,1.5837,-10.2025,-9.469226947185865,-17.089680079576638,-102.29297712158589,8.550538546967227
-0.2863,-0.1518,0.9166,-0.2494,0.7626,0.3374,-3.4213,1.2862,-10.4737,-9.403669175775539,-17.12557899205731,-102.36422072822778,8.56272300841672
-0.2863,-0.1555,0.9163,-0.25,0.7611,0.3293,-3.1412,1.19,-10.6312,-9.631057525998779,-17.12148143559306,-102.65311092105324,8.57485367533443
-0.2884,-0.1555,0.9163,-0.25,0.7611,0.3293,-2.9663,1.0937,-10.0975,-9.631573812444627,-17.235582784454447,-102.61677469032236,8.586771641504747
-0.29,-0.1582,0.9187,-0.2497,0.76,0.3346,-3.2813,1.2862,-10.5962,-9.770186767163194,-17.278637219758185,-102.51085611215953,8.599027946967086
-0.2916,-0.1576,0.9166,-0.2497,0.76,0.3346,-3.7362,1.3387,-10.325,-9.756062068483333,-17.403520090993336,-102.46722493603468,8.611219132733053
-0.2877,-0.154,0.9129,-0.2502,0.7626,0.3404,-3.78,1.7062,-9.6162,-9.575668352432684,-17.26785877476528,-102.34483908967493,8.620321379858053
-0.2876,-0.1538,0.9159,-0.2479,0.763,0.3349,-3.5175,1.4962,-9.9312,-9.532402462351852,-17.208382468401666,-102.32214978422705,8.632330301256456
-0.2852,-0.1532,0.9177,-0.2479,0.763,0.3349,-3.5525,1.3125,-10.0187,-9.477632965433392,-17.04769794843983,-102.36161183883037,8.645007407365462
-0.2868,-0.1553,0.9154,-0.2498,0.7616,0.3358,-3.15,1.225,-10.2375,-9.628356339045535,-17.16156405492681,-102.47578199400256,8.657547195853857
-0.2854,-0.1556,0.9135,-0.2498,0.7616,0.3358,-3.0013,1.54,-10.3863,-9.666550028092447,-17.11970511143785,-102.49946584655888,8.66927865071989
-0.2851,-0.1551,0.9124,-0.2494,0.7613,0.3346,-3.7888,1.5575,-10.0537,-9.647600239100289,-17.12156119493067,-102.49823253818687,8.681480453827659
-0.2859,-0.1566,0.9104,-0.2488,0.7626,0.3381,-3.2025,1.4525,-10.605,-9.759810492447079,-17.194369490318923,-102.36911424615053,8.693655713580926
-0.2873,-0.157,0.9217,-0.2488,0.7626,0.3381,-3.2987,1.4875,-10.0887,-9.667045165124005,-17.084992307994913,-102.38440141392964,8.705840175030419
-0.2872,-0.1545,0.9151,-0.2486,0.7618,0.3355,-3.78,0.945,-9.6687,-9.583293711812356,-17.191854112609875,-102.38271620305723,8.717973673239273
-0.2914,-0.1535,0.9162,-0.2486,0.7618,0.3355,-3.0625,0.9538,-9.975,-9.511156358300699,-17.4082385594221,-102.29605514210203,8.729958882574323
-0.289,-0.1534,0.917,-0.2492,0.7613,0.3347,-3.955,1.5487,-10.3425,-9.496800887174526,-17.272031785045176,-102.40230638619455,8.739433798396497
-0.2851,-0.154,0.9128,-0.2492,0.7614,0.3351,-3.2113,1.26,-9.7562,-9.576106308842537,-17.12310595058324,-102.4579550126657,8.75153933760528
-0.2869,-0.1554,0.9146,-0.2485,0.7614,0.3351,-3.7625,1.3737,-9.8612,-9.642900364217484,-17.182514726275176,-102.40690946850707,8.763671066257167
-0.2863,-0.1547,0.9207,-0.2501,0.7621,0.3357,-3.6663,1.1112,-9.87,-9.538229937075215,-17.053149689559795,-102.50815421613665,8.775705823187284
-0.2851,-0.1544,0.9156,-0.2501,0.7621,0.3357,-3.43,0.8663,-10.185,-9.571805535590004,-17.068345080660613,-102.50950766429706,8.787498504724363
-0.2843,-0.1539,0.9171,-0.2512,0.7643,0.3352,-3.8325,0.8138,-10.1062,-9.52623995238837,-17.001916612116297,-102.57770250902125,8.799732513768923
-0.2855,-0.1562,0.9105,-0.2512,0.7643,0.3352,-3.64,1.19,-10.1062,-9.734091301844673,-17.167992167921625,-102.57024628854154,8.811960152408401
-0.2885,-0.154,0.9149,-0.2496,0.7618,0.3342,-3.885,1.4175,-10.325,-9.55511972091643,-17.270082931188437,-102.44517889007962,8.824194161452962
-0.2892,-0.1526,0.9193,-0.2497,0.7607,0.3354,-3.5088,1.1725,-10.1325,-9.425218738733177,-17.242198702988244,-102.41790702063926,8.836406227991136
-0.2881,-0.1574,0.9152,-0.2497,0.7607,0.3354,-3.0713,1.365,-10.5262,-9.757749053242355,-17.23617858594364,-102.49595875955076,8.84597245295279
-0.2859,-0.1563,0.919,-0.2498,0.7616,0.3417,-3.4038,1.4437,-10.5262,-9.65252648005753,-17.056754604643647,-102.3876008422024,8.85816505436433
-0.2892,-0.155,0.9163,-0.2498,0.7616,0.3326,-3.2725,1.82,-10.3512,-9.601299320412863,-17.278136290752514,-102.5027127308119,8.87037039658603
-0.2867,-0.156,0.9134,-0.2504,0.762,0.3326,-3.4738,1.0937,-10.3337,-9.69185086649272,-17.195034248212732,-102.58719093257662,8.882465318453011
-0.2862,-0.1537,0.919,-0.2498,0.7619,0.3347,-3.4738,0.7788,-9.3712,-9.495119603880946,-17.078777194477954,-102.49520506275104,8.89455882467442
-0.284,-0.1514,0.9161,-0.2498,0.7619,0.3347,-3.395,1.2687,-10.2987,-9.384462058021178,-17.00923374858998,-102.49185171614884,8.90673762354162
-0.2862,-0.154,0.9191,-0.2495,0.7613,0.3375,-3.6488,0.6475,-10.3687,-9.511559728927292,-17.070202035117937,-102.42551831065035,8.918926685839226
-0.2871,-0.1532,0.9155,-0.2495,0.7613,0.3395,-3.3338,0.8925,-10.2725,-9.499895141424755,-17.182907607911517,-102.34166218390737,8.931119287250766
-0.2861,-0.154,0.9199,-0.249,0.76,0.3395,-3.15,1.3912,-10.2375,-9.503719479310687,-17.057407712851383,-102.36804891985292,8.943222349079795
-0.2904,-0.1575,0.9198,-0.2502,0.7608,0.337,-3.7975,1.7237,-9.5987,-9.716201555415134,-17.2779525126327,-102.46604704536749,8.95532293352907
-0.2899,-0.1565,0.9208,-0.2502,0.7608,0.337,-3.4213,1.54,-9.8087,-9.646027954362802,-17.244661517399184,-102.46331816290824,8.96469627678136
-0.2873,-0.1562,0.9138,-0.2492,0.761,0.3328,-3.8325,1.4262,-10.395,-9.69995661393121,-17.21942507807053,-102.51026999042436,8.976839684509228
-0.2851,-0.1538,0.9182,-0.2492,0.761,0.3346,-3.9813,1.1287,-10.325,-9.50929771187193,-17.032720620084923,-102.48747206601614,8.988998310427009
-0.2837,-0.1532,0.9195,-0.2498,0.7628,0.3346,-3.1937,1.3475,-9.9575,-9.459404346638628,-16.93074177202077,-102.52575529777172,9.001090401002843
-0.2857,-0.1541,0.9192,-0.2486,0.7616,0.3357,-2.9488,1.4437,-10.395,-9.516765859378115,-17.03843925049379,-102.41430624211446,9.01326672249029
-0.2894,-0.1549,0.9146,-0.2486,0.7616,0.3357,-3.71,1.1987,-9.8787,-9.612387988763864,-17.317241756184504,-102.34567580392647,9.02540729892701
-0.2863,-0.154,0.9105,-0.248,0.7606,0.3354,-3.4913,1.5925,-10.3687,-9.600055748330938,-17.22858360226804,-102.3540283613899,9.037529471971279
-0.2907,-0.1538,0.916,-0.248,0.7606,0.3354,-3.8063,1.4787,-9.9488,-9.531438754471408,-17.373861369223867,-102.28935229827987,9.049643505053501
-0.288,-0.1569,0.9149,-0.2493,0.7611,0.3361,-3.2725,1.715,-10.325,-9.730774991064695,-17.24162761867086,-102.44327407324506,9.061870435870194
-0.2882,-0.1581,0.9152,-0.2493,0.7603,0.3345,-2.6688,1.3125,-10.115,-9.800905062347042,-17.239591696579204,-102.50341708883137,9.071315977046723
-0.2896,-0.1532,0.9118,-0.2493,0.7603,0.3345,-3.4125,1.435,-9.3887,-9.538309298591914,-17.386643920916125,-102.394617126428,9.08332737582488
-0.2872,-0.1534,0.9143,-0.2518,0.7619,0.3379,-3.2725,1.4962,-10.0275,-9.524331632613798,-17.21833162482954,-102.51617858297284,9.095508652071832
-0.2862,-0.1512,0.9177,-0.2518,0.7619,0.3379,-3.0713,1.4525,-9.7037,-9.356364900578953,-17.107915518566074,-102.51316018232293,9.107609944343894
-0.2879,-0.1526,0.9199,-0.2503,0.7615,0.334,-3.0625,1.2687,-10.0712,-9.418743783789814,-17.15636754027748,-102.50392080697343,9.119780249337655
-0.2854,-0.153,0.9145,-0.248,0.7606,0.336,-3.2375,1.54,-10.57,-9.49769838100106,-17.110236800978267,-102.35472698987886,9.131865261685624
-0.2889,-0.1563,0.9112,-0.248,0.7606,0.336,-3.7713,1.2775,-10.1587,-9.732802046612985,-17.345393829377777,-102.33085061327449,9.144072727375683
-0.2888,-0.1569,0.9188,-0.2472,0.7604,0.3398,-3.605,1.54,-10.045,-9.69080347026105,-17.21936211454772,-102.23070268318233,9.156237723698544
-0.2855,-0.1581,0.915,-0.2472,0.7604,0.3398,-3.3775,1.4262,-10.4038,-9.802909977054123,-17.09519445563432,-102.29588104135927,9.16843846507213
-0.2863,-0.157,0.9146,-0.2489,0.7621,0.3367,-3.6312,1.1638,-10.43,-9.740587005502745,-17.1443683159506,-102.42359586621916,9.180462604660447
-0.2882,-0.1551,0.9162,-0.2486,0.7606,0.3351,-3.71,1.0937,-9.7737,-9.60859142045257,-17.228259686865808,-102.39972070701697,9.189931150077541
-0.2887,-0.1531,0.9209,-0.2486,0.7606,0.3351,-3.1412,0.98,-9.87,-9.4395001209465,-17.185835487034417,-102.37587776367194,9.202021117185017
-0.2826,-0.152,0.9199,-0.2498,0.7599,0.3311,-3.8588,1.54,-10.15,-9.382641470651437,-16.872851545212978,-102.63962892455999,9.214215488153524
-0.283,-0.1512,0.9147,-0.2498,0.7599,0.3311,-3.2375,1.47,-10.4212,-9.386115044040743,-16.971319106616313,-102.60507197614085,9.226625037249175
-0.2865,-0.1535,0.9154,-0.2483,0.7617,0.333,-2.975,1.6975,-10.2637,-9.518850218786968,-17.147611887007074,-102.41867387947926,9.238489916710492
-0.2895,-0.1548,0.9165,-0.2494,0.763,0.3358,-4.06,1.54,-9.9925,-9.586815591060855,-17.294796229562298,-102.38195728759888,9.25058660813444
-0.2857,-0.1567,0.92,-0.2494,0.763,0.3358,-3.5788,1.0937,-10.22,-9.666022530836281,-17.030256550501555,-102.48805431080713,9.262772131318114
-0.2891,-0.1557,0.9202,-0.2491,0.7607,0.333,-3.8063,1.4088,-9.9225,-9.6037629278906,-17.20522109995481,-102.48295784289803,9.27472725818473
-0.2893,-0.1554,0.9198,-0.2491,0.7607,0.333,-3.9113,1.26,-9.9137,-9.589584032283513,-17.229388491488475,-102.47377178975374,9.283304300802033
-0.2888,-0.1533,0.9156,-0.2497,0.7621,0.3332,-2.8612,0.8138,-9.9488,-9.505129203672059,-17.27878037629557,-102.45680692425115,9.295500795238901
-0.2881,-0.1543,0.9185,-0.2497,0.7603,0.3347,-3.36,1.12,-10.43,-9.536079949400067,-17.191370380390207,-102.48035509421068,9.307754269410093
-0.2882,-0.1546,0.921,-0.2497,0.7603,0.3347,-3.2813,1.54,-10.5787,-9.528907555167393,-17.15177252866496,-102.4907959296626,9.320024377416772
-0.2841,-0.1526,0.9216,-0.2484,0.7617,0.3352,-4.0775,1.645,-9.87,-9.402111115955604,-16.923930158682346,-102.42546454530103,9.33279951698173
-0.2861,-0.1563,0.9189,-0.2484,0.7617,0.3352,-3.2813,1.225,-10.2462,-9.652746991406278,-17.058788494948228,-102.43531256577575,9.344919566557639
-0.2859,-0.1557,0.9151,-0.2498,0.7616,0.3349,-2.9663,1.155,-10.3162,-9.656130853013114,-17.116756069771107,-102.51679967141963,9.357096241956478
-0.2891,-0.1543,0.9174,-0.2502,0.7609,0.3357,-3.0713,1.4787,-10.1675,-9.547621179085345,-17.258467595201743,-102.46229851461278,9.369278933849007
-0.2874,-0.1555,0.9201,-0.2502,0.7609,0.3357,-3.115,1.2425,-10.36,-9.592435394115348,-17.122985199813836,-102.51870959789585,9.381462687475713
-0.286,-0.1561,0.9184,-0.2494,0.7623,0.3369,-3.3863,0.98,-10.4825,-9.646225074306566,-17.068764481300956,-102.45302371015491,9.393577074469327
-0.2872,-0.152,0.9174,-0.2494,0.7623,0.3369,-3.85,1.4875,-10.57,-9.408166234729617,-17.160025407532608,-102.36806952372724,9.403038541658557
-0.2869,-0.1545,0.9129,-0.2506,0.7642,0.3378,-3.2987,0.875,-10.115,-9.605318554694158,-17.214613070309024,-102.43208339876435,9.41516779293069
-0.288,-0.1541,0.9218,-0.2492,0.7605,0.3358,-2.8875,1.12,-9.9837,-9.490802709251785,-17.129904563321123,-102.43043680755977,9.427292443354713
-0.2889,-0.1535,0.9145,-0.2492,0.7605,0.3358,-3.3338,1.0762,-10.0625,-9.528263409812565,-17.298725670960295,-102.38235052611154,9.439481505652319
-0.2888,-0.1549,0.9163,-0.248,0.7609,0.3378,-3.2288,1.2337,-9.4587,-9.594951807797138,-17.26491471980586,-102.2839069073221,9.451507060886208
-0.2883,-0.1553,0.9122,-0.248,0.7609,0.3378,-3.4913,1.3737,-10.325,-9.66168922306971,-17.30391013844293,-102.28592771279382,9.463684444107836
-0.2876,-0.1535,0.9161,-0.2491,0.761,0.3419,-3.9988,1.4088,-10.0975,-9.512351968045278,-17.207100719665924,-102.26304933295829,9.475895095000435
-0.2868,-0.1558,0.9185,-0.2483,0.7619,0.3357,-3.9288,1.2687,-10.1412,-9.626866435263743,-17.114237561436017,-102.39442532721553,9.488117071057621
-0.2871,-0.156,0.9134,-0.2483,0.7619,0.3357,-3.1937,1.435,-10.4737,-9.691909054795516,-17.21136784006522,-102.37666455599297,9.500185449570104
-0.286,-0.1524,0.9179,-0.2482,0.7612,0.336,-3.3775,1.6362,-10.325,-9.427492756214262,-17.090257976623366,-102.35186941764758,9.512350445892965
-0.2866,-0.1559,0.9189,-0.2482,0.7612,0.336,-3.185,1.8375,-9.7037,-9.628618332966113,-17.09260424917891,-102.39558645373134,9.521730159550334
-0.2865,-0.1524,0.9201,-0.2499,0.7626,0.3365,-3.2638,1.5925,-10.2812,-9.405262181892214,-17.077174368171452,-102.43287463380696,9.533904003658028
-0.2847,-0.1548,0.9148,-0.2496,0.7614,0.3354,-3.0188,1.47,-10.3425,-9.604002617817288,-17.059421770526676,-102.50232294975054,9.546027592347869
-0.2901,-0.1539,0.9166,-0.2496,0.7614,0.3354,-2.3187,1.2512,-10.325,-9.531402142452363,-17.325343457531922,-102.39811404112284,9.55821063815179
-0.286,-0.1552,0.9207,-0.2482,0.7618,0.3356,-3.2725,1.3037,-9.8962,-9.568166083093706,-17.040313745925427,-102.4035552739796,9.57033635030999
-0.2853,-0.1556,0.9168,-0.2482,0.7618,0.3356,-3.9813,1.26,-9.2225,-9.632348817941844,-17.055676454533195,-102.40996090845371,9.582428086974433
-0.2868,-0.1546,0.9196,-0.2486,0.7621,0.3376,-3.9025,1.0412,-9.9225,-9.54333432507252,-17.094407401589123,-102.35550501846622,9.594502128069207
-0.2875,-0.1552,0.9152,-0.2494,0.7613,0.3353,-4.2875,1.9075,-11.025,-9.624493582328574,-17.204749772683762,-102.44986978810103,9.606661107898383
-0.2879,-0.1533,0.9207,-0.2494,0.7613,0.3353,-3.885,1.4787,-10.2725,-9.453629144251595,-17.144500056934266,-102.43192657988186,9.618820441638949
-0.2846,-0.1537,0.9162,-0.249,0.7622,0.3346,-3.4563,1.1025,-10.0187,-9.522999592624002,-17.03617110391251,-102.46194847450688,9.628260674144578
-0.287,-0.1543,0.9166,-0.249,0.7622,0.3346,-3.7888,1.5925,-9.7912,-9.555479531158708,-17.1549262795728,-102.42929479670157,9.64034073173304
-0.2876,-0.154,0.9135,-0.2476,0.7622,0.3328,-2.8087,1.505,-9.6162,-9.569053539926477,-17.243977557074622,-102.35411535011642,9.652434591865841
-0.2883,-0.1531,0.9113,-0.2499,0.7602,0.3369,-3.2288,1.505,-10.1675,-9.536806990405484,-17.324537990569144,-102.40100131271804,9.664579769150675
-0.2864,-0.1555,0.9171,-0.2499,0.7602,0.3369,-3.465,1.155,-10.2287,-9.62313381176382,-17.12033205247783,-102.489270952264,9.676784757460982
-0.2884,-0.1546,0.9148,-0.253,0.7607,0.3356,-3.535,1.0237,-10.2375,-9.592346742570106,-17.26308434662775,-102.65652773679837,9.688964971973757
-0.287,-0.1581,0.9146,-0.253,0.7607,0.3356,-3.255,1.0062,-10.2025,-9.806881068004667,-17.184942564271108,-102.73280521059448,9.70115155689161
-0.2874,-0.1538,0.9199,-0.2514,0.7624,0.3394,-3.4738,1.365,-10.185,-9.492326759715237,-17.128538945863937,-102.47197775035866,9.713254972632031
-0.2854,-0.1546,0.9158,-0.2496,0.7622,0.3355,-4.1038,1.82,-9.9663,-9.581792682903291,-17.08337793715579,-102.47863394760164,9.725397318625719
-0.2866,-0.1551,0.9161,-0.2496,0.7622,0.3355,-2.9663,1.3912,-10.0187,-9.60925744613278,-17.140819643594117,-102.46553996390976,9.737503919568681
-0.2866,-0.1546,0.9183,-0.2515,0.7626,0.3349,-2.9925,1.0325,-10.2812,-9.556512226862466,-17.10778992030893,-102.59626699047425,9.746968925871842
-0.286,-0.1534,0.9173,-0.2515,0.7626,0.3349,-2.6775,0.8663,-10.6312,-9.493861240118818,-17.09388512676443,-102.58642184923715,9.75907941984013
-0.2875,-0.1538,0.9168,-0.249,0.7634,0.34,-2.8175,1.1725,-9.9137,-9.523051385268385,-17.182180385361224,-102.28060483477505,9.771390227657042
-0.2882,-0.1554,0.9159,-0.249,0.7602,0.3372,-3.9638,1.645,-9.695,-9.629379580191902,-17.233627466927583,-102.38674003856063,9.783313856409654
-0.288,-0.1553,0.9198,-0.249,0.7602,0.3372,-4.9437,1.995,-10.01,-9.58359992398477,-17.160245713241867,-102.40115235065151,9.795629972897466
-0.2894,-0.1561,0.914,-0.2486,0.7604,0.3352,-3.7713,1.4612,-9.3887,-9.691660117245544,-17.327881184221198,-102.38652955147126,9.807569173751382
-0.2896,-0.1549,0.9137,-0.2486,0.7604,0.3352,-3.7362,1.4175,-9.6162,-9.622056028058402,-17.352854953984384,-102.36397342820338,9.819532086668653
-0.2882,-0.1546,0.9228,-0.2507,0.7631,0.3367,-4.1213,1.4088,-10.0362,-9.510897706038334,-17.12758437178123,-102.4845340235646,9.831760079219526
-0.284,-0.155,0.925,-0.2514,0.7618,0.3352,-3.9288,1.26,-10.115,-9.512533872219027,-16.855978711038254,-102.66510538633182,9.844007182985639
-0.288,-0.1534,0.9133,-0.2514,0.7618,0.3352,-3.29,1.33,-10.3512,-9.534486928058215,-17.260817943584776,-102.53421280544833,9.853791063454189
-0.2857,-0.1536,0.9174,-0.2487,0.7625,0.335,-2.7213,1.6013,-10.4212,-9.50492075040786,-17.080555532515724,-102.41303944238376,9.865612411814128
-0.2857,-0.1557,0.9193,-0.2487,0.7625,0.335,-2.7913,1.3212,-9.9488,-9.612602814885882,-17.03740606109265,-102.44948747187728,9.877592666389672
-0.2854,-0.1544,0.9227,-0.2491,0.7608,0.3297,-3.7625,1.5925,-10.0712,-9.499832626591086,-16.967709182529703,-102.60821588554438,9.889776420016378
-0.2894,-0.1537,0.9138,-0.2494,0.763,0.3361,-3.8063,1.3387,-10.5087,-9.547600404495519,-17.331620715849443,-102.35230193689252,9.901984593529226
-0.2883,-0.1543,0.9186,-0.2494,0.763,0.3361,-3.2288,1.4525,-11.13,-9.535159679502243,-17.202376244553218,-102.39573478681882,9.914104643105134
-0.2873,-0.153,0.9189,-0.2504,0.763,0.3346,-3.3425,1.3125,-10.6312,-9.453407987074774,-17.142393350010277,-102.49315509120181,9.926306092301507
-0.2876,-0.1537,0.9184,-0.2504,0.763,0.3346,-3.675,1.4088,-10.185,-9.500653841922858,-17.16300110055824,-102.49663362733553,9.938492323307967
-0.2832,-0.153,0.924,-0.2514,0.7631,0.3438,-2.8438,1.5837,-10.4562,-9.402203014033725,-16.835520334307795,-102.44577116813407,9.950671829997955
-0.2894,-0.1532,0.919,-0.2502,0.7619,0.3354,-3.605,1.5575,-9.6775,-9.464202981154159,-17.24170246406286,-102.44086393925724,9.959883789654887
-0.2862,-0.1551,0.9132,-0.2502,0.7619,0.3354,-3.2813,1.3562,-10.0625,-9.638866442194399,-17.172434744995662,-102.50810883740313,9.97204276948406
-0.2879,-0.1544,0.9163,-0.2519,0.7607,0.3346,-3.5525,1.33,-10.6225,-9.564873318833797,-17.213169112756535,-102.61848555816564,9.984239617832321
-0.2855,-0.1546,0.9197,-0.2519,0.7607,0.3346,-3.5,0.8663,-10.3512,-9.542164571918503,-17.0273768196592,-102.67490921953744,9.996405675889362
-0.2846,-0.1553,0.9169,-0.2496,0.7606,0.3328,-3.3425,1.1725,-10.29,-9.613080042541194,-17.016325554489125,-102.58461342332336,10.008607478997128
-0.2861,-0.1555,0.9166,-0.2476,0.7618,0.3366,-3.4213,1.5925,-10.325,-9.628446638851159,-17.10195744659117,-102.33294051173662,10.020759026687042
-0.2907,-0.1542,0.9154,-0.2476,0.7618,0.3366,-3.5788,1.435,-9.94,-9.56191379611879,-17.378543727701263,-102.22729248604664,10.032888277959177
-0.2857,-0.1537,0.9206,-0.2475,0.7618,0.3349,-4.0513,1.4787,-9.835,-9.478659392228918,-17.031653656616506,-102.35664317545573,10.045053274282038
-0.2868,-0.1536,0.9169,-0.2475,0.7618,0.3349,-3.2725,1.7237,-10.0712,-9.50987098297896,-17.140862446113616,-102.32422767482937,10.057274542516437
-0.287,-0.1548,0.913,-0.2502,0.761,0.3415,-2.6863,1.54,-10.6575,-9.622779730022714,-17.216866081069195,-102.36326721570119,10.069358493130226
-0.2896,-0.1546,0.915,-0.2486,0.7609,0.3362,-3.9988,1.4175,-9.9312,-9.590292965798573,-17.328199163223147,-102.33548597721567,10.078744223281282
-0.2854,-0.1571,0.9132,-0.2486,0.7609,0.3362,-3.3075,1.1375,-10.395,-9.760796893139643,-17.125948409120575,-102.44216292414744,10.090900017907916
-0.2857,-0.1565,0.9163,-0.2497,0.7619,0.336,-3.4213,1.3387,-10.535,-9.692498637234387,-17.08602943496572,-102.50155888706298,10.103093681053636
-0.2882,-0.1543,0.9132,-0.2497,0.7619,0.336,-3.2638,1.33,-10.3425,-9.590702612046133,-17.278564954702713,-102.41485088909123,10.115084199059586
-0.2855,-0.1532,0.9179,-0.2495,0.7612,0.3357,-2.9838,1.365,-10.57,-9.475742139365028,-17.06308938170055,-102.46340424400218,10.12728564825596
-0.2862,-0.1549,0.9174,-0.2503,0.7619,0.3351,-3.29,0.98,-10.1325,-9.583566745793991,-17.09747855793043,-102.53119437375295,10.139469047971273
-0.2898,-0.1545,0.9174,-0.2503,0.7619,0.3351,-3.9463,1.5662,-9.5725,-9.559575821418363,-17.295221202267626,-102.46121018558009,10.151604315737094
-0.2864,-0.1535,0.9181,-0.2503,0.7612,0.3353,-3.0013,1.5225,-9.7825,-9.49182194870945,-17.108489884435507,-102.51292257395131,10.16370383845219
-0.2871,-0.1537,0.9191,-0.2503,0.7612,0.3353,-3.3163,1.4525,-9.8087,-9.493653165837458,-17.123163424308512,-102.50650817411528,10.175822826293917
-0.288,-0.1538,0.9154,-0.2488,0.7613,0.3377,-3.2375,1.4175,-10.255,-9.537315546835632,-17.233594868369867,-102.32869855898541,10.185159362761302
-0.29,-0.1534,0.9207,-0.2486,0.7618,0.3349,-3.675,1.6975,-9.7037,-9.45947210472648,-17.25886385256523,-102.34718740038204,10.197258531565003
-0.2858,-0.1559,0.9151,-0.2486,0.7618,0.3349,-2.7213,1.61,-10.0625,-9.667834384244939,-17.117481140857908,-102.44162006961795,10.209437684343596
-0.2865,-0.1551,0.9182,-0.2484,0.7619,0.3352,-3.7275,1.435,-9.94,-9.587933111523741,-17.10184748522487,-102.40622600409812,10.221526943628286
-0.2905,-0.1538,0.9145,-0.2484,0.7619,0.3352,-4.0687,1.3387,-10.2112,-9.546722426215096,-17.38393949723373,-102.30403074016083,10.233711405077779
-0.2898,-0.1544,0.9185,-0.2486,0.7624,0.3286,-3.1325,1.575,-10.115,-9.542227301645218,-17.28686490852524,-102.49238302799333,10.24589551261588
-0.2841,-0.154,0.9164,-0.2503,0.7598,0.3354,-3.745,1.4962,-10.1675,-9.539366386158155,-17.00965625207178,-102.57015922105164,10.2581104104452
-0.2871,-0.1534,0.916,-0.2503,0.7598,0.3354,-3.745,1.1812,-10.2287,-9.507020370125925,-17.17199436323421,-102.50628654738877,10.270196838438741
-0.2869,-0.1545,0.9184,-0.25,0.7607,0.3343,-3.955,1.4262,-9.9575,-9.549207847440842,-17.123773516744727,-102.52811656954955,10.28222133193845
-0.2886,-0.156,0.9151,-0.25,0.7607,0.3343,-4.2788,1.9337,-10.2987,-9.674107569381446,-17.264964862413663,-102.50997516718874,10.294405085565158
-0.2866,-0.1552,0.9168,-0.2498,0.7595,0.338,-2.9138,1.225,-10.1937,-9.60834474168841,-17.135033155126315,-102.45758697934454,10.303087593777672
-0.288,-0.1552,0.9196,-0.249,0.7631,0.3361,-3.605,1.2337,-9.905,-9.579548665761646,-17.160466914274735,-102.39061370217767,10.316159311090239
-0.2893,-0.1544,0.916,-0.249,0.7631,0.3361,-3.0275,1.435,-10.185,-9.567806135833216,-17.293849552819456,-102.3443487198544,10.328242907792633
-0.2855,-0.156,0.9198,-0.2496,0.7614,0.336,-4.0862,1.82,-9.7912,-9.62575337122494,-17.024822761492093,-102.50759859298583,10.340337829659616
-0.284,-0.157,0.9183,-0.2496,0.7614,0.336,-3.7888,1.5925,-9.625,-9.701773093503544,-16.955932910673358,-102.54435615814191,10.352474866982403
-0.2874,-0.1564,0.9176,-0.2516,0.7611,0.331,-3.6925,1.7937,-9.7562,-9.672869671245229,-17.151476636745464,-102.71682909189916,10.36459597829249
-0.2895,-0.1551,0.9195,-0.2503,0.7624,0.3352,-3.3513,1.1025,-10.2987,-9.574670453951578,-17.2442529441606,-102.4742409091866,10.376718505248151
-0.2871,-0.1557,0.9143,-0.2503,0.7624,0.3352,-2.7388,0.7788,-10.7275,-9.664224649068503,-17.201583655171873,-102.50956357890824,10.38888739459634
-0.2888,-0.1545,0.9157,-0.249,0.7615,0.3347,-3.4913,1.2075,-9.7212,-9.577138324191445,-17.27279754919324,-102.40320665759756,10.398249766595436
-0.288,-0.1548,0.9141,-0.249,0.7615,0.3347,-3.3163,1.4262,-10.08,-9.611594061456172,-17.25747695395941,-102.41688892296234,10.41043316631075
-0.2874,-0.1542,0.9167,-0.2479,0.7609,0.33,-3.22,1.3125,-10.4387,-9.54859564810548,-17.182749871679384,-102.46677427020765,10.422610549532378
-0.284,-0.1554,0.9175,-0.2477,0.7626,0.3354,-3.4475,1.5225,-10.5175,-9.612996190047594,-16.97879205415292,-102.39527218227006,10.434814476108503
-0.2866,-0.1537,0.9199,-0.2477,0.7626,0.3354,-3.3338,1.8112,-9.94,-9.48584067173443,-17.078458256698895,-102.33146749907529,10.446813841899287
-0.285,-0.1552,0.9177,-0.248,0.7606,0.3342,-3.0625,1.6625,-10.0887,-9.598690935498231,-17.026964789017775,-102.44368476791436,10.458989101652554
-0.2868,-0.1559,0.9187,-0.248,0.7606,0.3342,-2.9925,1.505,-9.9137,-9.63105941771499,-17.104619069180373,-102.42521604977351,10.471186657823601
-0.2896,-0.1557,0.9183,-0.249,0.759,0.3312,-2.73,1.33,-9.66,-9.623138117451361,-17.266313995021083,-102.52154624456058,10.483201241804297
-0.2887,-0.1548,0.9143,-0.2498,0.762,0.333,-3.2288,1.015,-10.7362,-9.609639917547405,-17.29204760737879,-102.48908763635691,10.49537720938035
-0.2866,-0.1546,0.9159,-0.2498,0.762,0.333,-3.3513,1.1112,-11.0075,-9.58103506218257,-17.15248967994752,-102.52812947275442,10.507480979032165
-0.2848,-0.1542,0.9212,-0.2483,0.7606,0.3358,-3.57,1.1112,-9.8612,-9.502839520173492,-16.96397723101178,-102.4278499489896,10.516908824639028
-0.287,-0.1541,0.9213,-0.2483,0.7606,0.3358,-3.4563,1.1025,-10.4212,-9.495615564973242,-17.075632306745963,-102.38730013908113,10.529523288431415
-0.2872,-0.1535,0.9199,-0.248,0.761,0.3374,-3.2725,1.5925,-10.5175,-9.473482491528921,-17.11484244784954,-102.3111402499077,10.541229615588522
-0.2864,-0.1545,0.9177,-0.249,0.7612,0.3362,-3.9288,0.9538,-10.5612,-9.55626499963895,-17.106231904126453,-102.42219483534682,10.553366652911311
-0.2869,-0.1535,0.9151,-0.249,0.7612,0.3362,-3.6138,1.1287,-10.255,-9.522293112938254,-17.178992207335124,-102.390432708869,10.565560669968423
-0.2881,-0.1554,0.9168,-0.2494,0.761,0.335,-3.3338,1.6013,-10.29,-9.62012287136116,-17.213139961808203,-102.45720261063434,10.577737699278657
-0.2913,-0.1549,0.9117,-0.2494,0.761,0.335,-3.1763,1.26,-10.6312,-9.642558068248059,-17.475301897930926,-102.37686771831294,10.589865180993826
-0.2871,-0.1535,0.9143,-0.2506,0.762,0.3365,-3.325,1.0237,-10.3863,-9.530649533431653,-17.21544782419743,-102.4719072239786,10.602010712190053
-0.2849,-0.1529,0.9196,-0.2515,0.7616,0.3338,-4.5413,1.12,-10.2462,-9.440299267329136,-17.001209224955613,-102.64173662769508,10.614223840462406
-0.2862,-0.1552,0.9203,-0.2515,0.7616,0.3338,-4.2613,1.4525,-8.9512,-9.572031040185069,-17.046858591418662,-102.65432085876172,10.626270630379896
-0.2886,-0.154,0.9143,-0.2474,0.7596,0.336,-3.4563,1.61,-10.1587,-9.56089158694219,-17.281422837314494,-102.28390081902923,10.635674763923404
-0.2884,-0.1545,0.9157,-0.2474,0.7596,0.336,-2.9313,1.5312,-10.1237,-9.576903565839972,-17.25371677941304,-102.29901565365994,10.647861702752651
-0.287,-0.1548,0.9169,-0.2445,0.7608,0.3335,-3.7975,1.6362,-10.1587,-9.582852261099294,-17.1559239097484,-102.18627452999968,10.660055011986978
-0.2896,-0.1546,0.9149,-0.2492,0.762,0.3354,-2.7388,1.4437,-9.8262,-9.591228601612409,-17.327819669848864,-102.37927732737617,10.672156658170433
-0.2865,-0.1549,0.9177,-0.2492,0.762,0.3354,-3.1412,1.2687,-10.3863,-9.580761118537218,-17.11767834366577,-102.44784832489168,10.684354922164268
-0.2863,-0.1533,0.9164,-0.2495,0.7606,0.335,-3.4388,1.3912,-10.3863,-9.496981492977653,-17.125692668511842,-102.46819560031089,10.696446304917316
-0.2885,-0.1543,0.914,-0.2495,0.7606,0.335,-3.8588,1.61,-10.3337,-9.582038446583768,-17.282812136837286,-102.43610087542203,10.708642799354182
-0.2889,-0.1563,0.9156,-0.2505,0.7623,0.3321,-4.0075,1.19,-10.1325,-9.687212000633536,-17.277518850106873,-102.57364386688106,10.720801425271963
-0.2868,-0.1545,0.9158,-0.2501,0.7595,0.3346,-3.6663,1.2862,-10.2112,-9.576166611927938,-17.164855862655838,-102.53555607620923,10.732988718012603
-0.2871,-0.1551,0.917,-0.2501,0.7595,0.3346,-3.2462,1.295,-10.5525,-9.600010082258022,-17.155854765871624,-102.54272687141696,10.745036569664272
-0.2884,-0.1544,0.9119,-0.2514,0.7598,0.3366,-3.5,0.8487,-9.3712,-9.609973972520041,-17.313392815608527,-102.52908100825306,10.754502991613007
-0.2853,-0.1546,0.9155,-0.2514,0.7598,0.3366,-2.8875,0.91,-10.0537,-9.585134893205545,-17.088940596288978,-102.59929330599385,10.76663401244211
-0.2862,-0.1549,0.922,-0.2531,0.7598,0.3368,-3.0538,1.2075,-9.8437,-9.536987053699075,-17.0227850399313,-102.71356264700302,10.77884466333471
-0.2858,-0.1553,0.9185,-0.2482,0.7604,0.3344,-3.78,1.5312,-9.8612,-9.59667120871434,-17.055141932576785,-102.44458429679788,10.790782802454446
-0.2872,-0.1541,0.9148,-0.2482,0.7604,0.3344,-3.8413,1.5225,-9.695,-9.561906679058566,-17.19688337118032,-102.39033656765747,10.80290355985314
-0.2849,-0.1541,0.9181,-0.2499,0.7615,0.3354,-3.885,1.575,-9.9225,-9.528166757064684,-17.02199788572805,-102.51691072260292,10.815071741378542
-0.2896,-0.1532,0.9227,-0.2499,0.7615,0.3354,-3.3338,1.4525,-9.9488,-9.427304675581839,-17.197601982901272,-102.43427806849324,10.827012003966638
-0.2857,-0.1549,0.9192,-0.2507,0.7602,0.3323,-3.4125,1.0762,-10.2462,-9.565078330622594,-17.04514135173872,-102.65297615800691,10.839176292466712
-0.2879,-0.1523,0.9138,-0.251,0.7607,0.3345,-3.4125,1.435,-10.4825,-9.462555659935452,-17.256395901241493,-102.5236382660296,10.847985147046645
-0.2871,-0.1541,0.9157,-0.251,0.7607,0.3345,-3.185,1.1287,-10.3512,-9.55239835348714,-17.183243434229162,-102.57054058505905,10.860238267306444
-0.2855,-0.1533,0.9203,-0.2496,0.7617,0.3362,-3.1588,0.9538,-9.8087,-9.457490198992264,-17.020135399389265,-102.46227245444346,10.872429099161018
-0.2891,-0.1531,0.9194,-0.2496,0.7617,0.3362,-2.9838,1.5487,-9.7475,-9.454244817308501,-17.22532011192418,-102.3917593289148,10.884647890015664
-0.2846,-0.1539,0.9155,-0.2478,0.761,0.3375,-2.275,1.3825,-10.2812,-9.542278875998269,-17.04989642268339,-102.334813846649,10.89684332271835
-0.2885,-0.1545,0.9169,-0.2506,0.7622,0.3367,-3.2375,1.2163,-10.815,-9.56458702312035,-17.23144788333736,-102.46301079390614,10.909090780395857
-0.2892,-0.156,0.9159,-0.2506,0.7622,0.3367,-3.08,1.1462,-10.2987,-9.665871399981805,-17.287967379558395,-102.46979344217718,10.921318419035337
-0.2883,-0.1545,0.9157,-0.2491,0.761,0.3349,-3.01,1.05,-9.9575,-9.577141845353603,-17.248478008965865,-102.41976920114693,10.933526592548183
-0.289,-0.1555,0.9161,-0.2491,0.761,0.3349,-3.01,1.2163,-10.0537,-9.633510081300964,-17.275745226554786,-102.42338921248944,10.945700082744484
-0.2871,-0.1538,0.9155,-0.2498,0.7615,0.3395,-3.0625,1.26,-10.255,-9.536612760139347,-17.18805900364351,-102.36766641265486,10.954480978324343
-0.2885,-0.1533,0.9161,-0.2477,0.7615,0.3342,-2.4588,1.4875,-10.0362,-9.499927351157632,-17.25270479087748,-102.31881976495615,10.96675391762217
-0.2865,-0.1544,0.9152,-0.2477,0.7615,0.3342,-4.1213,1.5487,-9.6862,-9.575814970765485,-17.157944919385372,-102.36797625075755,10.978954305084361
-0.2891,-0.1559,0.9145,-0.2486,0.7613,0.3358,-3.8238,1.2862,-9.2837,-9.674307104741848,-17.303719308986583,-102.36681642600601,10.991183005458021
-0.2879,-0.1576,0.9156,-0.2486,0.7613,0.3358,-3.36,1.225,-10.1062,-9.76627074511954,-17.22013142415364,-102.41685633257228,11.003381623363248
-0.2863,-0.1557,0.9177,-0.2496,0.7607,0.3364,-3.465,1.505,-9.6862,-9.629605252002916,-17.10100759309991,-102.4817996704277,11.015551574445615
-0.286,-0.1546,0.9176,-0.2489,0.7602,0.3325,-3.3338,0.8838,-10.045,-9.563697867484361,-17.085389112429446,-102.51748076611213,11.027791953895255
-0.2866,-0.1554,0.9175,-0.2489,0.7602,0.3325,-3.1325,1.2163,-9.8787,-9.613030583895863,-17.116916427329308,-102.51836887658902,11.040028794230961
-0.2849,-0.1518,0.918,-0.2486,0.7618,0.3354,-3.2288,1.4525,-9.7737,-9.389942357698208,-17.02721877998533,-102.39562079987539,11.052141765579002
-0.2861,-0.1535,0.9176,-0.2486,0.7618,0.3354,-3.7625,1.1025,-10.36,-9.496502797245473,-17.091424290221358,-102.39760285315779,11.060977517424828
-0.2871,-0.1539,0.9184,-0.2498,0.7602,0.3365,-3.2725,1.2862,-10.2812,-9.512861180060828,-17.13359520213376,-102.45968038350186,11.073209403001027
-0.2854,-0.1549,0.9169,-0.2488,0.7627,0.3318,-2.9225,1.5137,-10.185,-9.588768735196027,-17.06456266189859,-102.51055813230495,11.08543845728608
-0.2868,-0.156,0.9179,-0.2488,0.7627,0.3318,-3.605,1.8288,-9.7388,-9.64530780522689,-17.11877014411684,-102.50524181090194,11.0981095469014
-0.2891,-0.1564,0.916,-0.2489,0.7617,0.3354,-3.99,1.5837,-9.6162,-9.68927926045988,-17.275896662064444,-102.4028279957126,11.110217563489934
-0.2877,-0.1537,0.9165,-0.2489,0.7617,0.3354,-3.92,1.6013,-9.9137,-9.520482209259606,-17.20441525183719,-102.38903468590357,11.122357432103868
-0.2826,-0.1552,0.92,-0.2518,0.7621,0.3338,-2.9313,1.7675,-10.4475,-9.57527058865831,-16.86326452920641,-102.73033429909893,11.134533399679922
-0.2838,-0.1547,0.9169,-0.2518,0.7621,0.3359,-2.4763,1.435,-10.7187,-9.576786585168954,-16.96891101679428,-102.64672362274027,11.14671927677499
-0.2877,-0.1529,0.9187,-0.2499,0.7622,0.3359,-3.4388,1.2337,-10.0712,-9.449464187479556,-17.159887659951664,-102.43225111723505,11.15884286546483
-0.2883,-0.1544,0.916,-0.2486,0.7632,0.3349,-3.1937,1.7587,-9.415,-9.567510753478688,-17.239446894329895,-102.36196325633419,11.168183648868935
-0.2892,-0.1549,0.9153,-0.2486,0.7632,0.3349,-3.29,1.1638,-10.22,-9.605305363818145,-17.301364625590306,-102.35122481744409,11.180373418989328
-0.2858,-0.1554,0.916,-0.2495,0.7606,0.3381,-3.9025,1.4088,-10.325,-9.62853745493064,-17.10540797738866,-102.43808999516702,11.192580884679389
-0.2893,-0.1566,0.9165,-0.2495,0.7606,0.3375,-3.9288,1.61,-10.2375,-9.696188269719643,-17.277404451698974,-102.40802997545485,11.204705181192017
-0.2898,-0.1588,0.9122,-0.2491,0.7623,0.3375,-3.6488,1.2512,-9.2225,-9.874942004586611,-17.375996598197307,-102.37414529353109,11.216747016349998
-0.2894,-0.156,0.9198,-0.2505,0.7614,0.3351,-3.15,1.5487,-10.08,-9.626451019051006,-17.23887568692891,-102.51649439404778,11.228944218609652
-0.2841,-0.1566,0.9184,-0.2505,0.7614,0.3351,-3.2462,1.2337,-10.115,-9.676548190150957,-16.96797246990606,-102.615024054898,11.241176104185852
-0.2873,-0.1539,0.9157,-0.2523,0.7622,0.335,-2.8087,1.0062,-10.2987,-9.540741757621596,-17.18512343635891,-102.61958643357521,11.253266071293327
-0.287,-0.1526,0.9179,-0.2523,0.7622,0.3364,-3.1238,1.2512,-10.2462,-9.439270378292866,-17.143142833906648,-102.58182876009937,11.265439207578234
-0.2868,-0.1534,0.9168,-0.2498,0.7618,0.3364,-3.5963,1.3737,-9.7475,-9.498666823779187,-17.146856963090773,-102.43674304356303,11.277478565356462
-0.2877,-0.1554,0.9182,-0.249,0.7612,0.3357,-4.2088,1.2163,-9.2662,-9.605706591802267,-17.167159916764504,-102.42498189583932,11.286835274773267
-0.289,-0.1541,0.9205,-0.249,0.7612,0.3357,-3.0975,1.0675,-10.2287,-9.50393277704627,-17.203912545267702,-102.38975390360373,11.299104674957158
-0.2893,-0.1551,0.9137,-0.2498,0.76,0.3309,-3.5875,1.7937,-10.1412,-9.633792266259205,-17.331733162864477,-102.55093699565262,11.310683240101275
-0.2889,-0.1545,0.9175,-0.2498,0.76,0.3309,-4.0687,1.9337,-10.01,-9.558669757283665,-17.252671119899503,-102.5607357458669,11.322919018702802
-0.2877,-0.1554,0.919,-0.2483,0.7621,0.333,-3.3163,1.26,-10.3337,-9.597655547168669,-17.15747636710628,-102.43191205211103,11.335140286937202
-0.2871,-0.1552,0.9171,-0.2538,0.762,0.3354,-3.0538,1.295,-9.975,-9.60509379206202,-17.153673380379253,-102.73665314362522,11.347335011817101
-0.2874,-0.1546,0.9155,-0.2538,0.762,0.3354,-3.1588,1.1287,-10.5875,-9.585123847097671,-17.198079920686936,-102.7177838536411,11.359560173076828
-0.2863,-0.1534,0.9168,-0.2498,0.7619,0.3338,-3.5613,1.4437,-10.255,-9.498998311486755,-17.12150583887042,-102.50219713380692,11.371777902197294
-0.2883,-0.1536,0.9151,-0.2498,0.7619,0.3338,-3.5,1.6013,-9.6512,-9.52823881629174,-17.255393554060976,-102.46403053835407,11.383964487115147
-0.2854,-0.1552,0.9161,-0.2486,0.7614,0.3374,-4.0775,1.2775,-10.4387,-9.615201528142096,-17.0809663947416,-102.39091162097604,11.392812271948346
-0.2874,-0.1551,0.9165,-0.2486,0.7614,0.3366,-3.3688,1.47,-9.7125,-9.605226865816926,-17.17762076294001,-102.37249675031978,11.405010182030786
-0.2885,-0.1548,0.9158,-0.2486,0.7614,0.3366,-3.7188,1.1987,-10.8238,-9.59418746138197,-17.253173277233596,-102.34615106914438,11.417199598239787
-0.2878,-0.1535,0.9148,-0.2506,0.7636,0.3353,-3.5263,1.0412,-10.4475,-9.52543781879265,-17.237902088544445,-102.46925102321133,11.429397154410832
-0.2869,-0.1558,0.9179,-0.2506,0.7636,0.3353,-3.675,1.3475,-9.4325,-9.633057332695271,-17.13060370953726,-102.52894820945181,11.441616299176873
-0.2871,-0.1551,0.9148,-0.2496,0.762,0.3345,-3.6925,1.4525,-9.73,-9.622743827986556,-17.19117834028555,-102.47716089638018,11.453905164487399
-0.2826,-0.1551,0.9192,-0.2497,0.7633,0.336,-3.5263,1.7413,-10.2025,-9.577616606339268,-16.876072218174603,-102.52899390035546,11.466042909632973
-0.2883,-0.1527,0.9133,-0.2497,0.7633,0.336,-3.2375,1.365,-10.1937,-9.492016869220864,-17.279793513582767,-102.37360250845067,11.478265239601551
-0.2867,-0.1535,0.9172,-0.2521,0.761,0.3365,-3.7013,1.26,-10.1412,-9.500791779987164,-17.139090407970603,-102.59675050306161,11.490495355620785
-0.288,-0.1543,0.9165,-0.2521,0.761,0.3365,-3.8063,1.12,-10.3512,-9.556450086736538,-17.214464539343627,-102.58309778550553,11.502698928285518
-0.2883,-0.156,0.9193,-0.2527,0.7607,0.3317,-3.4038,1.19,-9.66,-9.630853510737209,-17.182100711378457,-102.76046200855065,11.511514507181923
-0.2883,-0.1568,0.9155,-0.2486,0.7624,0.3358,-4.0775,1.2775,-10.1763,-9.718692657581308,-17.241769034678963,-102.38554211635686,11.523720911137804
-0.2875,-0.1546,0.9157,-0.2486,0.7624,0.3358,-3.8325,1.7413,-9.8,-9.583332252801142,-17.2031592788425,-102.36726396234072,11.535927669005076
-0.2882,-0.1555,0.9184,-0.2495,0.762,0.3386,-3.2462,1.9687,-10.5087,-9.609902267893895,-17.192597589352523,-102.376991294534,11.54816734063193
-0.2858,-0.1555,0.9145,-0.2495,0.762,0.3386,-3.01,2.0475,-10.5525,-9.650085134038076,-17.126327563151584,-102.40795657530465,11.56039497927141
-0.2878,-0.1527,0.9171,-0.2515,0.7622,0.3423,-3.5088,1.5925,-10.5,-9.453651392784769,-17.197610606400232,-102.38368258668008,11.572591119796883
-0.2857,-0.154,0.9171,-0.2496,0.76,0.3365,-3.1937,1.12,-10.5525,-9.532033974431956,-17.08219221685736,-102.47155890960806,11.584811680208496
-0.2902,-0.1559,0.9161,-0.2496,0.76,0.3365,-3.115,1.0237,-10.1325,-9.657667328514512,-17.33430640607292,-102.415882990262,11.597033302354289
-0.2849,-0.1541,0.9177,-0.2477,0.7622,0.3358,-3.29,1.47,-10.1587,-9.532451729118646,-17.033169283207744,-102.35658449284554,11.609401797728314
-0.2858,-0.1538,0.9202,-0.2477,0.7622,0.3358,-3.2113,1.26,-10.0537,-9.488671899299321,-17.031730059460266,-102.34381483689292,11.61876841666413
-0.2879,-0.1537,0.9181,-0.2495,0.7628,0.3313,-3.5263,1.295,-10.6225,-9.503774952220386,-17.180554648299914,-102.50755491365324,11.630915363505931
-0.2867,-0.1563,0.9123,-0.2497,0.7619,0.3358,-3.01,1.6887,-10.3425,-9.721331077419608,-17.20923659526509,-102.47319233075075,11.643110088385832
-0.2851,-0.1559,0.9193,-0.2497,0.7619,0.3358,-3.0713,1.68,-10.5525,-9.625183491963261,-17.00866252030184,-102.51697087151271,11.655330648797444
-0.2849,-0.1568,0.9213,-0.2506,0.7618,0.3294,-4.5062,1.5137,-9.8612,-9.658787614826226,-16.955855664615758,-102.73949785147086,11.667521834563411
-0.288,-0.1546,0.9146,-0.2506,0.7618,0.3294,-3.3775,1.505,-9.8787,-9.594481637829125,-17.239025715740183,-102.63380455071798,11.679476961430028
-0.2885,-0.1532,0.9139,-0.2497,0.7635,0.3362,-3.3163,1.3387,-9.3187,-9.516374265625721,-17.29142628598558,-102.37278173981453,11.69159736491733
-0.2872,-0.1543,0.9188,-0.2483,0.7602,0.3345,-3.2375,1.3387,-9.485,-9.533055929191429,-17.13801339071278,-102.41216315493466,11.703720245784384
-0.289,-0.1539,0.9181,-0.2483,0.7602,0.3345,-3.5613,1.7237,-9.87,-9.515988906223646,-17.24320821370349,-102.37199898467742,11.715853390081845
-0.2883,-0.1527,0.9172,-0.2507,0.7601,0.3354,-3.0975,1.1725,-10.3075,-9.452336777553242,-17.22705587973934,-102.50042266097417,11.725209745587255
-0.2905,-0.1543,0.9141,-0.2507,0.7601,0.3354,-3.2462,1.26,-10.185,-9.580910827482434,-17.393455954668017,-102.47492827081433,11.737423227771002
-0.2852,-0.1557,0.9191,-0.2495,0.763,0.3383,-3.2462,1.2775,-10.1587,-9.614823226388879,-17.023991465026732,-102.43125372271881,11.74957406763813
-0.2855,-0.1566,0.9202,-0.2502,0.7611,0.3348,-3.5963,1.4175,-10.15,-9.657992263369376,-17.00741358039308,-102.58628660858197,11.761725615328045
-0.288,-0.155,0.916,-0.2502,0.7611,0.3348,-3.71,1.1375,-9.59,-9.604390774747333,-17.216426787975198,-102.50579462072456,11.773789392992413
-0.288,-0.153,0.9154,-0.2486,0.7631,0.3364,-4.0775,1.7587,-9.59,-9.488973102739152,-17.2389517684271,-102.3124786452712,11.785911212125287
-0.2841,-0.1537,0.9176,-0.2486,0.7631,0.3364,-3.255,1.8112,-10.4387,-9.508848191117629,-16.9892687348966,-102.3994237220722,11.798086471878554
-0.2874,-0.1554,0.9155,-0.2488,0.7609,0.3342,-2.8875,1.6975,-10.9375,-9.63346711102552,-17.190225599882826,-102.44579664837282,11.810235188277321
