AcclX,AcclY,AcclZ,MagX,MagY,MagZ,GyroX,GyroY,GyroZ,Roll,Pitch,Yaw,Time(s)
-0.1709,0.9753,0.0476,-0.6759,0.0353,-0.021,-3.2025,1.33,-15.1375,0,0,0,1.61926175449127
-0.1679,0.9472,0.0511,-0.6791,0.0353,-0.021,-3.2025,1.33,-14.8925,0,0,0,1.6314438635912394
-0.1677,0.9731,0.0474,-0.6782,0.0354,-0.0193,-2.905,1.2163,-14.8925,0,0,0,1.6436079230248974
-0.1667,0.9741,0.053,-0.6782,0.0354,-0.0193,-2.4063,1.1287,-14.8925,0,0,0,1.655732343975676
-0.167,0.9752,0.0495,-0.6781,0.0384,-0.0201,-2.9488,0.9187,-15.4787,0,0,0,1.6679094982652853
-0.1673,0.9729,0.0482,-0.6781,0.0384,-0.0201,-2.6775,0.9187,-15.995,0,0,0,1.6800951465155118
-0.1671,0.9751,0.0508,-0.6777,0.0356,-0.0213,-2.765,1.1462,-15.575,0,0,0,1.6922839800009697
-0.1676,0.9748,0.053,-0.6777,0.0356,-0.0213,-2.205,0.945,-15.5137,0,0,0,1.7044639656107847
-0.1707,0.9755,0.045,-0.6774,0.0359,-0.0114,-2.9488,1.0237,-15.33,0,0,0,1.7164988460600585
-0.1679,0.9747,0.047,-0.6783,0.0338,-0.0202,-2.87,1.0062,-14.9625,0,0,0,1.726049596943873
-0.1687,0.9751,0.0479,-0.6783,0.0338,-0.0202,-2.8525,0.5425,-14.6825,0,0,0,1.738207285907068
-0.1682,0.9753,0.0537,-0.6784,0.0345,-0.0209,-2.7562,1.0062,-14.7788,0,0,0,1.7503317068578468
-0.1669,0.974,0.0478,-0.6784,0.0345,-0.0209,-2.8175,1.3037,-15.1637,0,0,0,1.7624571895537025
-0.1684,0.9756,0.0519,-0.678,0.0347,-0.0226,-3.1325,1.4,-15.225,0,0,0,1.774612047196692
-0.1668,0.974,0.0502,-0.6754,0.0351,-0.0198,-3.3688,1.0325,-14.9275,0,0,0,1.7868118520479468
-0.1655,0.9748,0.0476,-0.6754,0.0351,-0.0198,-3.3775,0.945,-14.8837,0,0,0,1.799001393363456
-0.1659,0.9715,0.0466,-0.6787,0.0356,-0.0195,-2.835,0.9975,-14.7437,0,0,0,1.8111491727059315
-0.1674,0.9755,0.0466,-0.6787,0.0356,-0.0195,-2.5988,0.6038,-15.4875,0,0,0,1.8232785484670702
-0.1696,0.9743,0.0519,-0.6798,0.0358,-0.0202,-3.0713,0.9187,-14.9625,0,0,0,1.835465966292425
-0.1673,0.9743,0.0491,-0.6763,0.0337,-0.0206,-3.1675,0.9538,-15.2163,0,0,0,1.8475157111727787
-0.1687,0.9748,0.0543,-0.6763,0.0337,-0.0206,-3.3163,1.0062,-14.5687,0,0,0,1.857063984651413
-0.1632,0.9731,0.0492,-0.6775,0.0357,-0.0212,-2.4763,1.19,-15.295,0,0,0,1.869162215890289
-0.1681,0.9753,0.0487,-0.6775,0.0357,-0.0212,-2.3275,0.9975,-14.9362,0,0,0,1.881338662349847
-0.1698,0.9759,0.0476,-0.6764,0.0358,-0.0202,-3.1412,1.0062,-15.4525,0,0,0,1.8935324506456648
-0.1698,0.9765,0.047,-0.6779,0.035,-0.0203,-2.8875,0.7788,-15.1988,0,0,0,1.9056809378181916
-0.1692,0.9747,0.051,-0.6779,0.035,-0.0203,-2.0038,0.9887,-15.0325,0,0,0,1.9178088979192274
-0.1721,0.9745,0.0504,-0.6778,0.036,-0.0199,-2.0913,0.8138,-15.365,0,0,0,1.9299853443787853
-0.166,0.9714,0.05,-0.6778,0.036,-0.0199,-2.8612,0.9625,-15.19,0,0,0,1.9421532968777262
-0.1663,0.974,0.0485,-0.6786,0.0349,-0.0288,-2.6163,0.7175,-15.2075,0,0,0,1.954350624323801
-0.1683,0.9772,0.0504,-0.6763,0.0334,-0.0215,-2.4763,1.2862,-15.2862,0,0,0,1.9664400076870343
-0.1676,0.9735,0.0475,-0.6763,0.0334,-0.0215,-2.73,0.98,-15.5837,0,0,0,1.9759440417874548
-0.1679,0.9744,0.0508,-0.6773,0.0358,-0.02,-2.9663,1.295,-15.715,0,0,0,1.9880971298553158
-0.1688,0.974,0.0514,-0.6773,0.0358,-0.02,-2.94,1.435,-15.54,0,0,0,2.000240662217483
-0.172,0.9758,0.0462,-0.6803,0.0364,-0.0202,-3.0013,0.7525,-15.225,0,0,0,2.0124174625920666
-0.1698,0.9762,0.0481,-0.6761,0.0358,-0.0205,-2.7213,1.19,-15.1812,0,0,0,2.0245850611759817
-0.1674,0.974,0.0496,-0.6761,0.0358,-0.0205,-2.8788,0.9363,-15.2337,0,0,0,2.036710897786863
-0.1678,0.9742,0.0529,-0.677,0.0346,-0.019,-2.905,0.8312,-15.1812,0,0,0,2.048886282501344
-0.1688,0.9737,0.0501,-0.677,0.0346,-0.019,-2.87,0.6563,-14.9625,0,0,0,2.0610432636344878
-0.164,0.9731,0.0492,-0.6776,0.035,-0.0222,-2.9663,0.9887,-15.0937,0,0,0,2.0731751168008064
-0.1674,0.9751,0.0455,-0.6777,0.0343,-0.021,-3.4038,1.3125,-15.015,0,0,0,2.0853515632603643
-0.1661,0.9737,0.0465,-0.6777,0.0343,-0.021,-3.6925,0.84,-15.1637,0,0,0,2.0975046513282254
-0.168,0.9723,0.0489,-0.677,0.0344,-0.0168,-2.8963,1.3737,-15.4,0,0,0,2.1069495816193524
-0.1694,0.9748,0.0486,-0.677,0.0344,-0.0168,-2.6775,1.225,-15.1375,0,0,0,2.1191143488830617
-0.1684,0.9731,0.0479,-0.6763,0.0355,-0.0264,-2.7037,1.0937,-15.1812,0,0,0,2.131240539408969
-0.1698,0.973,0.0496,-0.6785,0.0335,-0.0199,-3.1063,0.8487,-14.9975,0,0,0,2.1434258337441694
-0.1674,0.9753,0.0485,-0.6785,0.0335,-0.0199,-2.7388,0.8487,-15.365,0,0,0,2.1556171446348076
-0.1698,0.973,0.047,-0.6786,0.0358,-0.0223,-2.7388,1.155,-15.7325,0,0,0,2.167757491761743
-0.1692,0.975,0.0486,-0.6786,0.0358,-0.0223,-2.9838,0.9975,-15.5137,0,0,0,2.179887221437907
-0.1659,0.9742,0.0504,-0.6782,0.0354,-0.0195,-2.9838,0.9013,-14.9362,0,0,0,2.1921071994456276
-0.1709,0.9755,0.052,-0.6767,0.0372,-0.0214,-2.8963,0.9975,-14.8575,0,0,0,2.204245069167383
-0.1693,0.9745,0.049,-0.6767,0.0372,-0.0214,-2.5725,0.9975,-14.9537,0,0,0,2.2163995728953467
-0.1691,0.9728,0.0438,-0.679,0.0362,-0.0221,-2.3888,0.6038,-15.4088,0,0,0,2.228497450219197
-0.1687,0.9746,0.0512,-0.679,0.0362,-0.022,-2.8263,0.84,-15.6538,0,0,0,2.2381356181143617
-0.1684,0.9752,0.0553,-0.6768,0.0343,-0.022,-2.8087,1.2862,-15.3387,0,0,0,2.250147494086965
-0.1699,0.974,0.047,-0.6769,0.0362,-0.0205,-2.66,0.9013,-15.1462,0,0,0,2.2623363275724224
-0.1674,0.974,0.0529,-0.6769,0.0362,-0.0205,-2.4763,1.2862,-15.4525,0,0,0,2.2744529623926355
-0.1685,0.9732,0.0496,-0.6788,0.0361,-0.0237,-2.59,1.295,-14.9275,0,0,0,2.286583399898851
-0.1665,0.9746,0.05,-0.6788,0.0347,-0.0211,-3.115,1.33,-14.7613,0,0,0,2.2987920526257484
-0.167,0.9749,0.0502,-0.6776,0.0347,-0.0211,-2.87,1.33,-14.735,0,0,0,2.310969206915358
-0.1703,0.9747,0.05,-0.6791,0.0338,-0.0202,-2.6863,0.9887,-15.5662,0,0,0,2.3231994484588236
-0.1669,0.9743,0.0517,-0.6791,0.0338,-0.0202,-2.6425,1.155,-15.645,0,0,0,2.335242822868715
-0.1682,0.9737,0.0464,-0.6757,0.0343,-0.0202,-2.415,1.4525,-15.0237,0,0,0,2.3474185614982215
-0.1693,0.9758,0.0487,-0.6768,0.0355,-0.0184,-1.9775,1.1462,-15.75,0,0,0,2.3595532459847455
-0.1686,0.9764,0.0545,-0.6768,0.0355,-0.0184,-2.7125,1.1725,-15.085,0,0,0,2.3690332138634176
-0.1701,0.9752,0.0498,-0.6778,0.0346,-0.021,-2.8263,1.4175,-15.47,0,0,0,2.381136045997628
-0.1653,0.9745,0.047,-0.6778,0.0346,-0.021,-2.3712,1.2163,-15.0762,0,0,0,2.3933875224426364
-0.1666,0.974,0.0487,-0.6778,0.0358,-0.0213,-2.4588,1.1812,-15.12,0,0,0,2.4054896467467954
-0.1684,0.9742,0.051,-0.6783,0.0349,-0.023,-2.9313,1.0325,-14.7437,0,0,0,2.4176862663628187
-0.1699,0.9762,0.0511,-0.6783,0.0349,-0.023,-2.8087,0.945,-15.3737,0,0,0,2.429854926691811
-0.1671,0.9749,0.0535,-0.6758,0.0358,-0.0202,-2.4763,1.1025,-15.4962,0,0,0,2.441951742270584
-0.1698,0.9758,0.0493,-0.6758,0.0358,-0.0202,-2.87,0.8487,-15.3912,0,0,0,2.4541458844814277
-0.1718,0.9742,0.0481,-0.6763,0.0342,-0.0221,-2.275,0.875,-14.8575,0,0,0,2.46632197702596
-0.1677,0.9748,0.0525,-0.6771,0.0362,-0.0185,-2.94,0.8487,-15.2512,0,0,0,2.4784998391456208
-0.1692,0.9744,0.0459,-0.6771,0.0362,-0.0185,-2.1875,1.295,-15.33,0,0,0,2.487879649072017
-0.1663,0.9747,0.0514,-0.6765,0.0351,-0.0202,-2.4938,1.085,-15.0762,0,0,0,2.500040169355418
-0.1703,0.9739,0.0459,-0.6765,0.0351,-0.0202,-2.73,1.1638,-15.0587,0,0,0,2.5122183853901046
-0.1662,0.9745,0.0525,-0.6787,0.0376,-0.017,-3.605,1.1638,-14.7962,0,0,0,2.5245144551283527
-0.1677,0.9739,0.0478,-0.6764,0.0359,-0.0262,-2.8087,0.7437,-15.0675,0,0,0,2.536485276957973
-0.166,0.9736,0.0497,-0.6764,0.0359,-0.0262,-3.045,0.9013,-14.9362,0,0,0,2.548664200822711
-0.1681,0.976,0.0457,-0.6759,0.0357,-0.0197,-2.7562,0.8925,-15.1462,0,0,0,2.5608763926998654
-0.1677,0.9742,0.0511,-0.6759,0.0357,-0.0197,-3.045,0.945,-14.7087,0,0,0,2.5730220485521866
-0.1667,0.9731,0.045,-0.6784,0.0353,-0.0182,-3.36,0.7525,-14.9713,0,0,0,2.5851928323713333
-0.1681,0.9761,0.0539,-0.6768,0.036,-0.0185,-2.66,0.3763,-15.1112,0,0,0,2.59731654549206
-0.1683,0.9746,0.0497,-0.6768,0.036,-0.0185,-3.1937,0.8138,-15.3125,0,0,0,2.609508918127775
-0.1696,0.9744,0.0525,-0.6782,0.0362,-0.0213,-2.975,1.2075,-15.6187,0,0,0,2.618916333426177
-0.1688,0.973,0.0494,-0.6782,0.0362,-0.0213,-2.7037,1.5662,-15.0062,0,0,0,2.6310991503561976
-0.1672,0.9734,0.0456,-0.6773,0.0357,-0.024,-2.8788,1.6013,-14.7613,0,0,0,2.6433290379846377
-0.1671,0.9759,0.0491,-0.6782,0.0365,-0.0195,-2.345,0.7875,-14.91,0,0,0,2.65551751755507
-0.1683,0.974,0.0451,-0.6782,0.0365,-0.0195,-2.1263,1.4175,-15.1287,0,0,0,2.667556998899678
-0.1674,0.9739,0.0515,-0.6764,0.0337,-0.0202,-3.1763,1.1462,-15.0937,0,0,0,2.679715041777899
-0.1686,0.9756,0.0481,-0.6764,0.0337,-0.0202,-2.8875,1.12,-14.9713,0,0,0,2.6918490184343717
-0.1696,0.9734,0.0488,-0.6807,0.0342,-0.0229,-2.8612,1.2775,-15.2512,0,0,0,2.7040244031488525
-0.1694,0.9756,0.0525,-0.6766,0.0354,-0.0218,-2.5813,1.155,-15.8025,0,0,0,2.7162096974840533
-0.1677,0.974,0.0482,-0.6766,0.0354,-0.0218,-2.66,0.84,-15.3125,0,0,0,2.7283910987539715
-0.1663,0.975,0.052,-0.6785,0.0357,-0.0208,-2.8438,1.12,-15.365,0,0,0,2.740447921934839
-0.1688,0.9757,0.0473,-0.6785,0.0357,-0.0208,-2.66,1.365,-15.1725,0,0,0,2.7499158567026374
-0.1682,0.9727,0.0508,-0.6778,0.0368,-0.0189,-2.8175,1.0937,-15.2163,0,0,0,2.7621096449984552
-0.1657,0.9734,0.051,-0.6761,0.0347,-0.0201,-2.205,1.225,-15.2687,0,0,0,2.774292461928476
-0.1689,0.9755,0.053,-0.6761,0.0347,-0.0201,-3.15,0.9538,-14.6387,0,0,0,2.786461476172494
-0.169,0.974,0.0454,-0.6778,0.0348,-0.0211,-2.17,0.9625,-14.6475,0,0,0,2.79856713962691
-0.1688,0.9746,0.0528,-0.6778,0.0348,-0.0211,-2.73,1.1287,-15.4175,3.0924188095827447,-7.172944979511882,1.9501660573015218,7.53089695870201
-0.1666,0.9744,0.0472,-0.6774,0.0347,-0.02,-2.765,1.1812,-15.1375,2.7741298668711214,-9.023386466931674,1.8419660742908308,7.535665255843403
-0.1708,0.9761,0.0459,-0.6781,0.0352,-0.0215,-2.6688,1.2775,-14.6737,2.6925132505581337,-9.684055626928762,1.9657959514671826,7.540115737291708
-0.1682,0.9732,0.0462,-0.6781,0.0352,-0.0215,-2.5025,1.1725,-15.0062,2.7178489552126064,-9.765399433600995,1.9666778515026997,7.545191586590443
-0.1671,0.9748,0.0473,-0.678,0.0342,-0.0199,-2.5725,0.9187,-15.4263,2.7778044590555506,-9.729993493459771,1.8303871708007697,7.549677813456345
-0.1683,0.9756,0.0504,-0.678,0.0342,-0.0199,-2.6775,0.84,-15.4088,2.956802319244531,-9.761829051784801,1.839368822761982,7.554086179016591
-0.169,0.9745,0.0488,-0.6794,0.0344,-0.0115,-2.8,0.8925,-15.2862,2.8670537697231544,-9.807881901949454,1.1209720258476892,7.558939061849128
-0.1712,0.9751,0.0471,-0.6798,0.0306,-0.0204,-2.8087,0.945,-15.435,2.7656759957507147,-9.907395565266619,1.8546199321574441,7.563849986745883
-0.1667,0.9743,0.0481,-0.6798,0.0306,-0.0204,-2.7213,1.3387,-15.0675,2.8261595100708217,-9.750971016570201,1.8567441262879083,7.568524142490436
-0.1701,0.9755,0.05,-0.6783,0.0339,-0.0203,-2.7562,0.7875,-15.1725,2.933871459335727,-9.840820967912245,1.8706045456068146,7.573111589053692
-0.1681,0.9745,0.0476,-0.6783,0.0339,-0.0203,-2.6163,1.1112,-14.98,2.7968034759073666,-9.793299809611906,1.8634730599566633,7.577743982825212
-0.1692,0.9735,0.0506,-0.6814,0.0363,-0.0155,-3.29,0.9975,-15.0675,2.9749114729076935,-9.831894276809733,1.4685124151483675,7.582314441467233
-0.1703,0.9742,0.0493,-0.6781,0.0358,-0.0206,-2.8612,0.4112,-14.8312,2.8972337577465472,-9.879479880271942,1.9018602229151866,7.5869475430688045
-0.1663,0.9739,0.0497,-0.6781,0.0358,-0.0206,-2.8175,1.3037,-14.7613,2.9213130987541653,-9.729624994086976,1.9025039723087487,7.591910139559312
-0.167,0.9756,0.0461,-0.6783,0.0354,-0.0198,-3.0888,1.505,-15.1812,2.705983650263587,-9.709456883354582,1.8216946247372283,7.596553150781604
-0.1685,0.9761,0.0484,-0.6783,0.0354,-0.0198,-3.0625,1.4525,-15.0675,2.8383222556505996,-9.764363850927436,1.828756555322593,7.601137766024653
-0.1684,0.9753,0.0495,-0.6786,0.0339,-0.0206,-3.0538,1.3562,-15.435,2.9052882222775183,-9.779041486511684,1.8934067498367162,7.605926944152563
-0.1697,0.9739,0.0459,-0.6779,0.0354,-0.0207,-3.2725,1.12,-15.5312,2.6989342388718374,-9.84816833772373,1.8993871149089776,7.61063224441938
-0.1688,0.9739,0.0483,-0.6779,0.0354,-0.0207,-2.4063,1.1987,-14.9888,2.8388351917428234,-9.828316211607657,1.9063760879514424,7.615295782713162
-0.1695,0.975,0.0464,-0.6772,0.0348,-0.021,-2.6775,1.2687,-15.1725,2.7249528198221924,-9.845236370995375,1.9259319005457138,7.620224049446176
-0.1669,0.9739,0.0516,-0.6772,0.0348,-0.021,-2.3275,1.0587,-14.98,3.032004084216442,-9.747880737577292,1.9408356821365818,7.625066668742969
-0.1666,0.9748,0.0501,-0.6792,0.0387,-0.0198,-3.1238,0.455,-15.2687,2.9423867353197877,-9.70632381817335,1.8441747874058978,7.630056870605482
-0.1682,0.9753,0.0479,-0.6782,0.0357,-0.0197,-2.7388,0.8575,-15.4,2.8120765362896165,-9.75394805929103,1.8202608636002504,7.634569287183286
-0.1703,0.9745,0.0497,-0.6782,0.0357,-0.0197,-2.9575,1.1025,-14.6387,2.919285892091081,-9.86050019211835,1.8262899134322248,7.63923848811748
-0.1671,0.9737,0.0479,-0.6755,0.0339,-0.019,-2.7475,1.435,-15.68,2.8166124169377174,-9.759670628889065,1.7612145286039969,7.643788065772984
-0.169,0.9736,0.0515,-0.6755,0.0339,-0.019,-3.2725,1.33,-15.1025,3.0273347356130147,-9.814996554045084,1.7719620688212565,7.648288095324889
-0.1683,0.9746,0.0485,-0.6794,0.0364,-0.0222,-2.625,1.0237,-14.7525,2.8494125413389915,-9.793801661658124,2.0330799244028945,7.653140270327375
-0.1691,0.9761,0.0521,-0.6766,0.0351,-0.0204,-2.485,0.8925,-15.0237,3.054730579563519,-9.808696736438575,1.8944015893603523,7.657915999684308
-0.1711,0.9749,0.0445,-0.6766,0.0351,-0.0204,-2.8612,0.56,-15.0412,2.614717827114178,-9.90116026969787,1.8724172567029644,7.663253038272018
-0.1702,0.9754,0.054,-0.6759,0.0344,-0.0171,-2.9663,0.9538,-14.98,3.1672293319915577,-9.888265760521618,1.6185665098167126,7.666708310668025
-0.1656,0.974,0.0482,-0.6759,0.0344,-0.0171,-2.7213,1.0675,-15.1812,2.8339929874096352,-9.706159957005516,1.6008216788966028,7.668409226281589
-0.1696,0.9769,0.0464,-0.6782,0.0333,-0.0199,-2.5025,0.9713,-14.9975,2.7196626540427387,-9.80104516169678,1.8239845737510278,7.670164644809111
-0.169,0.9764,0.0504,-0.6797,0.0358,-0.0221,-2.3712,1.6538,-14.9888,2.954229454209171,-9.805548137483159,2.0270871054280954,7.671852465566722
-0.1694,0.9736,0.0463,-0.6797,0.0358,-0.0221,-3.2375,0.8663,-14.875,2.7233199784356183,-9.843783384720357,2.0155059358671217,7.673543471559566
-0.1677,0.9739,0.0517,-0.6775,0.0357,-0.0192,-3.115,0.8575,-14.875,3.03784799759419,-9.781978228746933,1.7914557938568392,7.675228460996972
-0.1666,0.9735,0.0481,-0.6775,0.0357,-0.0242,-2.4675,0.9013,-15.0237,2.8292271674352594,-9.723224711021384,2.2043442512897244,7.676926545290329
-0.1693,0.9759,0.0476,-0.6794,0.0355,-0.0242,-2.555,0.91,-14.63,2.7925188060585504,-9.79971054500398,2.1965485409652508,7.678609057322555
-0.1651,0.9761,0.0489,-0.6789,0.0354,-0.0216,-3.29,1.0062,-15.12,2.867757858404425,-9.647233395077103,1.9805027306582288,7.680297939825244
-0.1685,0.9749,0.0489,-0.6789,0.0354,-0.0216,-2.8263,0.9625,-15.2163,2.8714815607914908,-9.752641258760626,1.9813852139914536,7.682028938215993
-0.1687,0.9728,0.05,-0.6776,0.0355,-0.0182,-2.9925,1.3562,-15.2687,2.942104085652032,-9.807032271093254,1.7008389039674139,7.68373693213007
-0.1677,0.9741,0.0465,-0.6776,0.036,-0.0209,-3.2113,0.84,-15.645,2.7335992433606435,-9.771821692909997,1.9205036933890953,7.685429707698042
-0.1663,0.976,0.0512,-0.6769,0.036,-0.0209,-3.395,1.4612,-15.7675,3.0021784516896144,-9.685119653254771,1.9362389948110101,7.687094877894007
-0.1687,0.9779,0.049,-0.678,0.0338,-0.0197,-2.8438,1.4175,-15.2075,2.8689130253180375,-9.753223208531562,1.8165894867176045,7.688780221246439
-0.1684,0.9722,0.0475,-0.678,0.0338,-0.0197,-2.2838,0.9363,-15.05,2.7973467761505506,-9.797852181676191,1.813184246766232,7.690462025448614
-0.1701,0.9741,0.0485,-0.6778,0.0345,-0.0242,-2.9575,1.155,-15.0237,2.850229902994522,-9.867777653590831,2.201012677704744,7.692148784461149
-0.1695,0.9737,0.0496,-0.678,0.0366,-0.0216,-2.7825,1.2337,-15.12,2.915927156982226,-9.863850175303895,1.9912718626724517,7.693841560029121
-0.1688,0.9761,0.0527,-0.678,0.0366,-0.0216,-2.87,1.2337,-14.9275,3.089935175084872,-9.814713632865764,2.000038930768679,7.6955173476758585
-0.169,0.9765,0.046,-0.678,0.036,-0.0221,-3.1063,0.5688,-15.26,2.6981313523531396,-9.81018602022791,2.019644418319787,7.697250115641735
-0.1682,0.9754,0.0503,-0.678,0.036,-0.0221,-2.5725,0.4725,-14.8312,2.951342759351715,-9.783965126067399,2.0327210983546693,7.698518193178854
-0.1689,0.9732,0.0467,-0.6773,0.0361,-0.0204,-3.3863,0.8663,-15.0062,2.747856924910425,-9.819936825696823,1.8805424981147691,7.69975689576884
-0.1684,0.973,0.0484,-0.6794,0.0358,-0.0227,-3.045,0.6737,-15.015,2.8474428146788644,-9.811097033069478,2.073259175453971,7.700974717372309
-0.1695,0.9741,0.0519,-0.6794,0.0358,-0.0227,-2.7913,0.91,-15.1287,3.0492705552406747,-9.844105901850385,2.08398232753213,7.702197139871112
-0.2258,0.9747,0.0606,-0.678,0.0355,-0.0206,-3.3075,0.9187,-15.3387,3.5562559943982675,-12.11384221764368,1.9510020789976281,7.703405759683911
-0.2116,0.9598,0.0145,-0.678,0.0355,-0.0206,-2.9925,0.4375,-15.4088,0.872995732200069,-12.326432997934738,1.8076513704612,7.7046264126075865
-0.3052,0.9383,0.0646,-0.6778,0.0358,-0.0167,-2.0563,1.6975,-14.035,3.929984658297891,-16.659861573951023,1.6711266246369543,7.705847419446286
-0.3898,0.9936,0.0696,-0.6787,0.0374,-0.0184,-7.9187,3.325,-9.3625,4.006710593944601,-20.576079019125043,1.8614186782000455,7.707056747089138
-0.3994,0.9357,0.0651,-0.6787,0.0374,-0.0184,-5.8625,-1.0412,-10.2812,3.9799345659589895,-21.45731744383991,1.8792064862468518,7.708281293078095
-0.3032,0.945,0.0131,-0.681,0.0349,-0.0212,-1.1725,-8.435,-9.1787,0.8030151229867898,-18.25486360916467,1.8843512903043076,7.709542646229726
-0.2412,0.9958,0.07,-0.681,0.0349,-0.0212,1.6887,-13.2125,-7.8838,4.012179695998301,-13.953582927478438,2.017503133990759,7.710751266042526
-0.1934,1.0115,0.0605,-0.6818,0.0368,-0.0218,-0.0088,-16.345,-10.2375,3.424530258005946,-11.005326700533583,2.0287145855425335,7.711987137312306
-0.1989,0.9494,0.0783,-0.6834,0.0349,-0.0283,-0.315,-18.9875,-9.7737,4.711134464034006,-11.750627540645654,2.632917508884121,7.713325290024516
-0.1426,0.9365,0.0467,-0.6834,0.0349,-0.0283,2.7037,-20.8162,-12.8275,2.8598542004435754,-8.80071557255876,2.523998352465308,7.7145770874704525
0.0137,0.973,0.0339,-0.683,0.0324,-0.0299,4.2175,-20.2562,-15.3037,1.9977725407219862,0.31771058734088736,2.601479239425079,7.715794909073922
0.0361,1.0041,0.0622,-0.683,0.0324,-0.0299,3.9463,-16.2225,-11.305,3.5404992514649747,1.9439739907325733,2.675523850498445,7.717015561997596
0.0375,1.0367,0.0248,-0.6814,0.0354,-0.0289,2.66,-11.0862,-10.9725,1.376308219360775,2.058930081296556,2.5053243152615456,7.7182397540715275
0.0295,1.0006,0.0395,-0.6834,0.0346,-0.0326,0.1925,-4.48,-11.515,2.2582167587502173,1.7828987142753197,2.848209311350357,7.719432801623197
-0.0223,1.0074,0.0179,-0.6834,0.0346,-0.0326,-4.235,3.0713,-15.6275,1.0214117056190821,-0.7289494063932528,2.779745035348889,7.720642483181074
-0.162,1.0496,0.0207,-0.6818,0.0338,-0.0316,-6.755,7.455,-21.5513,1.1295249454466554,-7.971579512288606,2.720671034957314,7.721866675255005
-0.1783,1.0142,0.0158,-0.6818,0.0338,-0.0316,-10.9637,10.3337,-24.745,0.8931996370161174,-9.815108491411504,2.71548531871087,7.7231043160999135
-0.1643,0.9718,0.0074,-0.6784,0.0318,-0.0272,-13.335,11.7163,-26.5912,0.4375908840629853,-9.611175234279603,2.3311169994012135,7.724342310859847
-0.1532,1.004,0.0354,-0.6786,0.03,-0.0267,-13.7287,11.375,-26.7138,2.014823216852423,-8.737876596943261,2.352575776719873,7.7255965857109645
-0.1368,0.8383,0.1102,-0.6786,0.03,-0.0267,-13.2562,7.3325,-23.3187,7.473305844644954,-9.144926390826567,2.580538599884685,7.726859000607672
-0.1309,0.9572,0.1427,-0.6779,0.0308,-0.021,-7.945,-1.4962,-14.5338,8.476409006554697,-9.022114751996622,2.1463933129796056,7.728093810132375
-0.0809,0.9628,0.0935,-0.6779,0.0308,-0.021,-1.1287,-6.3088,-15.3475,5.554846381454327,-5.522232846854387,2.0173888909424758,7.729352685878826
-0.1528,1.0288,0.0656,-0.6751,0.0305,-0.027,0.91,-2.4938,-21.5425,3.6536864984864024,-6.903726910928497,2.4610117177139137,7.730570861397321
-0.2208,0.9043,0.0413,-0.6762,0.03,-0.0254,-3.6663,2.2225,-15.3125,2.617812039563679,-12.293527910869706,2.307219220224185,7.731778419465043
-0.168,0.9952,0.0376,-0.6762,0.03,-0.0254,-1.68,3.6925,-12.6612,2.164940034507812,-10.007827097703197,2.260850689014827,7.732981730552458
-0.1981,1.0038,0.0411,-0.6779,0.0314,-0.0207,-3.885,6.51,-11.3925,2.3441318099891157,-11.028710661722576,1.8753410136428705,7.734219371397367
-0.2516,0.9366,-0.0177,-0.6779,0.03,-0.0255,-3.0538,7.455,-11.7425,-1.0731319289596768,-14.635139035621053,2.1543964326763216,7.735453473092018
-0.2445,1.0091,0.0436,-0.6766,0.03,-0.0255,-3.3163,7.4113,-12.4425,2.464164848361246,-13.710513111768922,2.3073182925615785,7.736654660689278
-0.2003,0.9288,0.0734,-0.6791,0.0317,-0.0259,-4.5938,5.3375,-14.6212,4.512772185534486,-12.332029830704698,2.4195146697938505,7.73787885276321
-0.237,0.9398,0.1374,-0.6791,0.0317,-0.0259,-2.1963,-0.455,-10.9462,8.307239926244135,-13.224243641177122,2.598971753731248,7.739109415307603
-0.3484,0.9697,0.154,-0.6801,0.0306,-0.023,0.0788,-4.9525,-9.765,9.021922109730514,-18.08994675009795,2.4246050282353684,7.74030352460435
-0.4861,0.8943,0.1824,-0.6832,0.032,-0.0291,3.5438,-10.36,-5.4075,11.521003740828736,-27.020987753423814,3.2480574238767153,7.741517807057561
-0.5602,1.0863,0.3109,-0.6832,0.032,-0.0291,12.3287,-17.0275,7.8838,15.959307523047903,-26.41124010447559,3.3829951542531758,7.742759694882778
-0.2994,0.9841,0.2264,-0.6928,0.0371,-0.0378,16.87,-31.0713,30.1875,12.963824863759264,-16.83935652192292,3.8434578321607935,7.744005121858253
-0.0174,0.6725,-0.0104,-0.6928,0.0371,-0.0378,14.3413,-44.17,46.2962,-0.8492768443935363,-1.8343309297675645,3.072555053989856,7.745245594023366
0.0331,0.6102,-0.0018,-0.6997,0.0418,-0.0508,22.4525,-57.6975,7.315,-0.17077892129429958,3.0184355606001527,4.161318849302997,7.746467308692118
0.0838,0.662,-0.0281,-0.7017,0.0416,-0.0584,29.33,-55.9738,-8.6363,-2.424820861681905,7.132409317349709,4.683440644886174,7.7476851302955865
0.1263,0.8591,-0.0645,-0.7017,0.0416,-0.0584,43.0412,-47.4075,-6.7112,-4.289026212431815,8.314450033530068,4.583209818820741,7.74890012057885
-0.0705,1.184,0.1441,-0.7045,0.0453,-0.0736,49.7262,-31.885,16.9662,6.91190590466397,-3.0089278549344463,6.351552713344989,7.750169967691098
-0.195,1.1788,0.1732,-0.7045,0.0453,-0.0736,46.3312,-27.3875,26.6437,8.355074420487611,-9.060354431038562,6.464553000645783,7.751413979006469
-0.1934,1.1317,0.1218,-0.7119,0.0514,-0.0862,38.9113,-34.0638,25.4013,6.14835846903624,-9.62574074306461,7.331141211644915,7.752635339760195
-0.1555,1.0041,0.0093,-0.7194,0.057,-0.0964,31.9113,-40.4075,32.2875,0.5448887175928595,-8.82347788492851,7.671778196969693,7.753863424899409
-0.1321,0.8779,-0.1146,-0.7194,0.057,-0.0964,28.8225,-40.9588,29.9687,-7.416889950869955,-8.494666488657225,6.968896878760637,7.755110621450012
-0.1487,0.8732,-0.1197,-0.7243,0.0622,-0.1074,31.0363,-41.2388,24.7887,-7.804583128104192,-9.549878923692502,7.6746716448810615,7.75636064932082
-0.1631,0.9787,-0.0744,-0.7243,0.0622,-0.1074,32.7337,-35.9188,25.1562,-4.355957492972167,-9.437904357987831,8.026321024325446,7.757613508511834
-0.1059,0.9571,-0.0085,-0.7354,0.0686,-0.1246,35.9538,-35.5425,15.54,-0.5184756532463439,-6.40304530154488,9.528134905318016,7.758873092088336
-0.0195,0.8724,0.0253,-0.7357,0.0724,-0.1292,29.3738,-36.295,13.5975,1.6555818994065734,-1.42341334801954,10.096314206886902,7.760102238972627
-0.0056,0.8854,0.0503,-0.7357,0.0724,-0.1292,21.1225,-35.1575,6.65,3.247349968139311,-0.3925083523582457,10.24920086381706,7.7613076735501965
0.038,0.9726,0.0044,-0.737,0.0742,-0.135,12.3287,-34.6063,-9.9488,0.2671654318248049,2.160103671404082,10.452740396257566,7.762519832513253
0.0798,1.0228,-0.0296,-0.7335,0.0703,-0.14,3.2025,-31.2987,-20.3875,-1.6524288624309642,4.384511447511198,10.762532947455844,7.763750748972673
0.129,1.2827,-0.2987,-0.7335,0.0703,-0.14,-5.5913,-28.2537,-26.985,-13.07668084757415,5.550459740774012,9.491671499857734,7.764990159392711
0.2106,1.2051,-0.4586,-0.7309,0.0684,-0.1464,-10.64,-26.3288,-32.1562,-20.81226642136778,9.131486599667312,9.096645249218835,7.766247265564033
0.1059,0.9082,-0.2117,-0.7309,0.0684,-0.1464,2.66,-28.8838,-13.3087,-13.142297076936735,6.572505494254556,10.075682460784916,7.76747676636335
-0.4286,1.1528,0.0483,-0.7313,0.0728,-0.1536,13.1162,-27.9825,13.9212,2.3578424453924853,-19.394397185230307,12.45341038257852,7.768699542777179
-0.054,1.2667,-0.1906,-0.7366,0.0781,-0.1602,25.445,-10.2025,27.965,-8.528978356772786,-4.180296188478812,11.21804628252407,7.769971159464555
-0.1227,1.163,-0.0929,-0.7366,0.0781,-0.1602,19.285,2.8175,57.6975,-4.577434425949372,-5.666387610217946,11.68520139060981,7.771190750643153
-0.061,1.0755,-0.0692,-0.7538,0.088,-0.1636,15.6975,1.1112,68.3725,-3.6838264461675463,-3.895347741245491,11.743892299722537,7.772397600880824
-0.0778,1.0795,-0.0313,-0.7538,0.088,-0.1636,10.99,-2.52,74.025,-1.6662311059472823,-4.003871985234816,11.98206643874197,7.773663201012764
0.0025,0.8431,-0.0645,-0.7687,0.1002,-0.1657,0.9713,-7.8225,76.4225,-4.367355396465842,-0.40756011697884637,11.589615636835097,7.774866866015204
-0.0184,0.8564,0.0146,-0.7771,0.1058,-0.1691,-5.1625,-16.1087,58.5288,0.9617514848930211,-1.1776120724911616,12.369751196711322,7.776201833492182
-0.0004,1.0815,-0.0608,-0.7771,0.1058,-0.1691,-5.7137,-24.6138,50.54,-3.2059784511359144,-0.0692942723713988,11.838576339678285,7.777456462258325
0.2053,0.927,-0.0976,-0.7878,0.1111,-0.1705,-11.3662,-26.4425,64.89,-6.002315485581968,11.937938723501004,12.019471040571178,7.778703658808928
-0.044,1.0068,-0.0502,-0.7878,0.1111,-0.1705,-15.3475,-33.3812,62.2562,-2.86351508753917,-2.059025708051415,11.747782171088842,7.779964658045533
0.0216,1.0928,-0.0049,-0.7969,0.1166,-0.1711,-22.9075,-45.01,72.6775,-0.26457323494978036,1.0604906278219028,12.118073956446583,7.781203360635518
-0.0673,1.0973,0.0435,-0.8059,0.1245,-0.1786,-28.2712,-56.8312,77.9013,2.2625992163339337,-3.4257309168529027,12.732990018815979,7.782458343316686
0.0089,1.0011,0.0207,-0.8059,0.1245,-0.1786,-33.0838,-69.3175,85.155,1.187819305165656,0.45199562328747006,12.684262561641258,7.783689613691132
0.1393,0.9221,-0.0687,-0.8139,0.1356,-0.1894,-35.5775,-78.1025,89.1625,-4.24423757680727,8.462527907896652,12.869796813355917,7.784928670196144
0.2583,0.8388,-0.1667,-0.8207,0.1411,-0.1911,-31.5875,-78.4613,87.3163,-11.21917880034754,16.698910339390046,12.278377221238468,7.786167372786129
0.2632,0.9135,-0.2624,-0.8207,0.1411,-0.1911,-29.05,-72.8175,84.9975,-16.012145589089425,15.495602276552075,11.05649222005179,7.787417400656937
0.4141,0.8599,-0.2779,-0.8277,0.1487,-0.1962,-26.2675,-64.0325,86.7563,-17.904008543088196,24.474972241105654,11.908853570871566,7.788656103246923
0.522,0.8223,-0.2671,-0.8277,0.1487,-0.1962,-21.6825,-55.685,89.075,-17.994599260515415,31.000960999559673,13.106038410212031,7.789886665791317
0.6209,0.7837,-0.2715,-0.8381,0.1603,-0.1999,-16.0825,-47.985,90.8513,-19.104593786476315,36.69639074460375,14.1530403935103,7.7911331545118685
0.6671,0.2957,-0.1939,-0.8451,0.1763,-0.213,26.3812,-43.8987,67.7863,-33.217796319294365,61.48771647456538,26.63637497880956,7.792379997147445
0.1881,0.336,-0.1213,-0.8451,0.1763,-0.213,37.4588,-27.9125,83.7988,-19.883575098671027,29.003500493321365,12.448928793793936,7.793603481391325
0.0177,0.5151,-0.0737,-0.8575,0.1965,-0.2189,64.7763,-41.8075,77.315,-8.170013191075558,2.604604904767451,12.536465322339861,7.794927123587481
0.2165,0.5343,-0.1712,-0.8575,0.216,-0.2482,93.8613,-58.03,57.5838,-17.745448547986445,20.77851431583662,13.709439580763261,7.796166887922544
-0.7341,1.2923,-0.0622,-0.8594,0.216,-0.2482,135.3712,-45.115,28.8838,-2.7856741666293865,-28.439793900781343,15.441875717450104,7.797411960982992
0.2251,0.4791,-0.4748,-0.8666,0.2469,-0.2702,176.5312,-42.3937,73.2725,-44.66394458494085,17.333159779157924,1.4785907642412266,7.79866446625898
0.5966,0.8457,-0.0634,-0.8666,0.2469,-0.2702,101.045,-61.5825,79.94,-4.3743300476728875,34.833796886183165,24.30009744488315,7.799914848044814
0.6379,0.7188,-0.6978,-0.8698,0.2655,-0.2809,34.4575,-57.0237,82.9763,-44.05059372071263,32.52874824536585,1.822253187707243,7.801149303654491
0.5385,0.4526,-0.4538,-0.877,0.2817,-0.2859,28.1837,-28.7437,84.6738,-45.07323330836247,39.77015572340939,0.33898546867028245,7.802363586107703
0.5497,1.2205,-0.177,-0.877,0.2817,-0.2859,-23.1262,-11.8912,64.4175,-8.36002328075961,25.417044646862614,19.86308201696502,7.803607597423074
0.571,0.5161,-0.659,-0.8829,0.2946,-0.2885,-12.6437,-44.8087,73.6663,-51.80909937212791,34.099495027491784,6.166328294703989,7.804862226189217
0.4804,0.4979,-0.1776,-0.8829,0.2946,-0.2885,53.0775,-37.5812,23.7388,-19.708577775830772,42.04291601275325,23.257068696302674,7.806097035713919
0.6945,0.8653,-0.7296,-0.8762,0.308,-0.2991,78.3825,-61.495,-21.3237,-40.090482561253694,31.705956926423248,3.3107055873223756,7.807352018395088
0.5449,1.2142,-0.4925,-0.8726,0.3186,-0.3104,71.9775,-43.8725,-3.255,-22.119723659130656,22.791533281902506,14.527490325248806,7.808597799285588
0.4643,1.1412,-0.4067,-0.8726,0.3186,-0.3104,63.945,-43.5488,-3.3338,-19.62088046533359,21.011385884086508,15.466996268598713,7.809828715745008
0.4641,1.3765,-0.4563,-0.8621,0.3258,-0.3185,60.9,-58.7913,-32.5237,-18.34301559748021,17.802525836267815,16.011473315234273,7.8110744966355075
0.5138,1.2141,-0.4085,-0.8488,0.3269,-0.3304,49.595,-59.395,-32.4888,-18.595579779432434,21.786747329078413,18.256286071397465,7.812317800120827
0.5013,1.1497,-0.3814,-0.8488,0.3269,-0.3304,41.09,-58.2663,-41.0025,-18.353282337825537,22.470106114869925,18.60300770256137,7.813560395776095
0.643,1.1078,-0.5289,-0.8354,0.3188,-0.3402,33.81,-54.005,-88.8213,-25.50326866679491,27.548401110537014,17.486552990756,7.814808654071775
0.6364,1.2055,-0.5456,-0.8354,0.3188,-0.3402,34.5187,-49.1138,-106.3213,-24.354039654807764,25.723542599399437,17.497311007526726,7.8160802707591515
0.5663,1.2764,-0.5348,-0.8054,0.3094,-0.3522,29.89,-44.4412,-114.3188,-22.73736746804308,22.33362264508774,19.31042432662398,7.817333483865191
0.4218,1.288,-0.522,-0.7821,0.2961,-0.3514,22.7062,-43.7062,-117.635,-22.063456084059933,17.009766452643625,18.78912813473138,7.818589528291437
0.1818,1.1642,-0.5467,-0.7821,0.2961,-0.3514,16.3275,-49.9362,-123.9788,-25.146263771344735,8.227090357633195,15.030103406130994,7.81985972931871
0.2435,1.0699,-0.5888,-0.7514,0.2804,-0.3609,15.3037,-59.5175,-131.7837,-28.815659616782725,11.224644132535095,15.449976169692151,7.821123559875521
0.2112,1.0344,-0.6439,-0.7188,0.2649,-0.3647,19.6087,-67.97,-143.045,-31.89363695022841,9.85439443173791,14.913371603125109,7.82242632108516
0.2665,0.9587,-0.6833,-0.7188,0.2649,-0.3647,33.915,-78.5925,-165.0075,-35.4698047934521,12.717775831813832,13.285018228129177,7.823759165071985
0.3475,1.1775,-0.8,-0.68,0.2553,-0.3745,40.88,-80.8413,-158.97,-34.19556802620962,13.705577114451144,16.51979849963688,7.825046000105467
0.1305,1.1258,-0.614,-0.68,0.2553,-0.3745,38.0537,-77.3763,-150.15,-28.62154372634546,5.9135885110025095,17.999144992975033,7.826319032452947
-0.0672,1.2163,-0.5933,-0.648,0.2487,-0.3834,35.7262,-88.1913,-161.6212,-26.00926589618067,-2.742834000903333,19.46012862014727,7.827603743996274
-0.0276,1.2393,-0.6223,-0.6074,0.2413,-0.3904,38.9287,-99.0413,-171.0012,-26.661353093495347,-1.1564522172683915,21.363543475900457,7.828888101624576
0.0642,1.1144,-0.7188,-0.6074,0.2413,-0.3904,40.7225,-105.1925,-176.1812,-32.80718717634168,2.734107890822836,18.588949899935997,7.8301526400114385
0.0641,1.1348,-0.7191,-0.5629,0.2374,-0.3937,44.0475,-106.75,-187.7137,-32.3627101671423,2.7316900266110613,20.73792477205063,7.831444075940255
0.0275,1.1325,-0.7061,-0.5109,0.2368,-0.4014,45.71,-108.7625,-200.41,-31.944065512578955,1.1947850693509197,23.203587450497306,7.832744005829689
-0.0113,1.0294,-0.6549,-0.5109,0.2368,-0.4014,47.0225,-109.2525,-199.3775,-32.46307970785746,-0.5147682968696577,22.344420181958164,7.834049244444508
0.0945,1.0392,-0.6578,-0.4645,0.2382,-0.4062,49.0962,-109.41,-196.5075,-32.333590144097684,4.348635421186949,26.59200898917655,7.835325462027218
-0.0245,1.0128,-0.6255,-0.4645,0.2382,-0.4062,48.895,-104.8075,-187.9675,-31.70080209587696,-1.1260322349916672,24.9903251239358,7.836627869321832
-0.1305,0.9597,-0.5776,-0.4205,0.2445,-0.409,48.3175,-101.255,-181.8075,-31.043434162064166,-6.590539516132935,25.691606423650555,7.838013446647487
-0.129,0.8225,-0.606,-0.3797,0.255,-0.4094,50.435,-100.275,-180.3638,-36.36905967957795,-7.190455770784914,22.39514091954916,7.839395838737911
-0.1579,0.7679,-0.6129,-0.3797,0.255,-0.4094,54.6875,-96.8275,-179.025,-38.58981464172101,-9.1098719756369,19.79741369291084,7.840708863483296
-0.2308,0.6862,-0.5383,-0.3437,0.2646,-0.4128,61.4687,-91.2888,-178.8937,-38.114072557569415,-14.759688883918999,19.71123445509259,7.8420594032214055
-0.4516,0.5988,-0.5538,-0.3086,0.2774,-0.4074,66.0363,-91.7613,-179.235,-42.7533431471418,-28.816573445713193,12.431171587933713,7.843343053019656
-0.2816,0.599,-0.5567,-0.3086,0.2774,-0.4074,72.9488,-92.3213,-171.92,-42.903496455461735,-19.108619498761875,13.735620771111021,7.844641567248987
-0.3204,0.556,-0.4973,-0.2786,0.2969,-0.4144,74.4538,-88.0775,-160.965,-41.81272772797724,-23.197153623025795,13.780233537252032,7.845912122191287
-0.3335,0.626,-0.5012,-0.2496,0.3151,-0.4057,74.5675,-86.45,-156.4588,-38.689281143841555,-22.588442813131014,15.832198590196585,7.847188339773997
-0.1856,0.6537,-0.4632,-0.2496,0.3151,-0.4057,73.2025,-82.88,-146.6675,-35.32842093689451,-13.159079947290516,22.79337964819371,7.8484680965069655
-0.2015,0.7951,-0.4454,-0.2248,0.3315,-0.4014,52.85,-67.6288,-135.415,-29.271329524787646,-12.47782103512969,30.12148276333656,7.849748207154959
-0.2922,0.8816,-0.3714,-0.2094,0.3392,-0.3987,32.6375,-56.5163,-119.525,-22.86094200742162,-16.904420704199822,34.98604625404015,7.851018762097258
-0.2436,0.8103,-0.3422,-0.2094,0.3392,-0.3987,8.0937,-48.7988,-111.5538,-22.894860651249306,-15.509392701951535,35.77328286031082,7.8522840083141725
-0.4573,0.8769,-0.3053,-0.1996,0.342,-0.3894,-13.1162,-35.5075,-98.4813,-19.20656042587871,-25.913535602011034,34.01276885215065,7.853566950282372
-0.688,0.8847,-0.2438,-0.1996,0.342,-0.31834,-0.2298,0.1354,0.0758,-15.417280377550846,-32.84223635168189,27.89344562885057,7.855148950447296
0.1536,0.9526,0.1834,-0.2298,0.1354,0.0758,-8.19,-5.5563,-12.5212,10.823385600588358,0.5737548068452388,13.439208026992905,7.8572473126347315
0.1565,0.9418,0.1829,-0.2298,0.1344,0.0793,-8.1725,-5.0138,-11.5937,10.989717657609718,7.300415540467771,14.417674368588452,7.858444253251683
0.1565,0.9418,0.1829,-0.2298,0.1344,0.0793,-8.1725,-5.0138,-11.5937,10.990186561851091,8.820736646496155,14.418319513641697,7.86080486647317
0.1427,0.9194,0.1785,-0.2298,0.1344,0.0793,-7.525,-5.46,-10.6225,10.98720188107304,8.695572437244055,14.292228563386494,7.862030474207204
0.1352,0.8885,0.1857,-0.2326,0.1344,0.0826,-6.755,-5.9763,-9.555,11.802812022778456,8.51335114204361,14.374787811083234,7.8632196286935905
0.1291,0.8869,0.1848,-0.2326,0.1344,0.0826,-5.3113,-7.4637,-10.8325,11.770186269509882,8.1688392737854,14.322894275462021,7.864428956336442
0.1267,0.9154,0.1962,-0.2316,0.1356,0.0846,-2.4237,-9.1787,-11.7862,12.096414240527366,7.76107036635529,14.541439068349103,7.865635806574113
0.1386,0.9446,0.2001,-0.2326,0.1354,0.0841,-0.7525,-10.5087,-13.5187,11.960852505616181,8.127544968021544,14.545765100251904,7.8668486733672225
0.1534,0.9754,0.1952,-0.2326,0.1354,0.0841,-0.4987,-11.0775,-14.8837,11.318487539413772,8.705658342875337,15.101295730700583,7.868069326290897
0.1757,0.969,0.2048,-0.2307,0.1356,0.0829,-1.295,-11.27,-15.8025,11.932243924535472,9.93294850433766,14.79110138326788,7.869400046787566
0.1797,0.9554,0.2042,-0.2307,0.1356,0.0829,-2.3363,-11.4012,-16.4675,12.064079962292576,10.376927536078425,14.785310108248927,7.870621407541292
0.1853,0.9364,0.2048,-0.2326,0.1336,0.0892,-3.5175,-10.8675,-17.6312,12.336138385178373,10.886324553589793,16.329667489208916,7.871839583059787
0.1847,0.9195,0.2094,-0.2331,0.1345,0.0847,-3.92,-9.8612,-17.8412,12.827936924886568,11.060380342843924,14.773064098309895,7.873047848957562
0.1909,0.9136,0.2029,-0.2331,0.1345,0.0847,-3.5438,-8.7062,-18.2525,12.522355867352804,11.47146479510853,15.091711798545157,7.874302123808678
0.1864,0.8966,0.2068,-0.2321,0.1342,0.0858,-2.4063,-6.5975,-17.255,12.986790755032988,11.45514035096255,15.127939065770441,7.875563123045284
0.1818,0.8879,0.2019,-0.2321,0.1342,0.0858,-1.715,-5.0313,-17.6837,12.811168415658893,11.327939836615643,15.211123325753727,7.876788022949266
0.1771,0.8833,0.2052,-0.2301,0.135,0.0801,-0.63,-3.8325,-18.725,13.077702183917204,11.136132453734227,13.539931007304014,7.878060347466694
0.1716,0.8826,0.2034,-0.2325,0.1354,0.0871,0.6475,-2.9488,-19.2237,12.977823037790987,10.901019457636105,15.21650320102861,7.8792594115738
0.1629,0.8895,0.2018,-0.2325,0.1354,0.0871,1.4262,-2.2838,-19.0925,12.782806678535641,10.583435570983463,15.207349720381014,7.880457413935829
0.1597,0.896,0.2009,-0.2307,0.1338,0.0845,2.345,-1.1375,-19.2413,12.63816803652618,10.360202728008122,14.766995358882202,7.881666387663655
0.1574,0.9015,0.1978,-0.2307,0.1338,0.0845,3.325,-0.98,-18.8913,12.376002757401174,10.10197833996216,14.901665209072329,7.882843509039167
0.1544,0.9119,0.1825,-0.2307,0.1362,0.0796,3.5,-0.6475,-18.8563,11.320071859645987,9.774373830703937,14.178941000432129,7.884023107819859
0.1522,0.929,0.1794,-0.2307,0.1362,0.0778,3.99,-0.1663,-18.4275,10.9309615237149,9.400828601120276,13.908665378904812,7.885298617572518
0.1595,0.9455,0.1773,-0.2313,0.1346,0.0778,3.85,0.4812,-18.2262,10.621598740502463,9.40985630131527,14.196882924705774,7.8864952042744445
0.1538,0.961,0.1726,-0.2277,0.1344,0.0819,2.8963,0.7875,-17.7275,10.183228939173109,9.087406407221435,15.711213275247232,7.887667724754622
0.1432,0.971,0.1667,-0.2277,0.1344,0.0819,1.4962,2.1613,-16.6863,9.742711359150872,8.442102078545165,15.844347024664538,7.888848739195417
0.1397,0.9679,0.1701,-0.2297,0.1346,0.0819,0.8225,2.1525,-16.8875,9.966833441141628,8.164766860854986,15.506962802750508,7.890029399721186
0.1274,0.9636,0.1679,-0.2297,0.1346,0.0819,-0.315,2.3625,-16.4412,9.88435211956173,7.571203695990253,15.414627986737234,7.891223509017932
0.1169,0.9659,0.1715,-0.2261,0.1354,0.083,-0.8487,1.5575,-15.89,10.067694997402626,6.982566061781213,15.664033081137665,7.892418680059755
0.1232,0.9718,0.1747,-0.2278,0.1357,0.0776,-1.47,0.2975,-14.385,10.190839330664078,7.0673710961345915,14.144421245791236,7.893615266761682
0.1249,0.9642,0.1679,-0.2278,0.1357,0.0776,-2.835,-1.0412,-13.825,9.878963117901481,7.140034344579827,14.381514469394583,7.894823532659456
0.1306,0.9541,0.1646,-0.2303,0.1355,0.0818,-3.465,-3.43,-13.6763,9.788491196024845,7.491392004782101,15.434071764532632,7.896020827191434
0.146,0.9562,0.1665,-0.2303,0.1355,0.0818,-5.1887,-4.1475,-13.265,9.87744225482596,8.255752047059342,15.570048115775009,7.897222368703719
0.1566,0.9572,0.1703,-0.2333,0.1349,0.0787,-5.7225,-4.41,-13.0725,10.087615295525248,8.916092298367603,14.582335371739589,7.90109738432022
0.1617,0.954,0.1727,-0.2322,0.1334,0.0862,-6.58,-3.605,-13.4488,10.260487136475495,9.285640838540383,16.591158572390974,7.913335058079226
0.16,0.945,0.1824,-0.2322,0.1334,0.0862,-7.8225,-3.5,-13.4137,10.9227801210293,9.386144714801214,16.155931527082718,7.925541941230994
0.151,0.9221,0.1849,-0.2302,0.134,0.085,-7.7525,-3.5788,-13.265,11.337436974494691,9.21008276665318,15.62396822582986,7.93485910819784
0.1541,0.9195,0.1895,-0.2302,0.134,0.085,-7.6563,-4.8038,-13.6763,11.644195724488728,9.295059518275211,15.466478916980297,7.947128280394134
0.1609,0.92,0.1883,-0.2311,0.1345,0.0837,-7.5163,-5.4513,-13.6325,11.567411843209284,9.634672533220911,15.189630303393708,7.959255532665119
0.1637,0.9307,0.1846,-0.2311,0.1345,0.0837,-6.8863,-6.685,-13.1862,11.219723749686201,9.763490188333177,15.437970488982458,7.97138384668118
0.1688,0.9359,0.1876,-0.2311,0.1342,0.0818,-7.0,-7.5862,-12.355,11.334330862391836,9.990789909713644,14.931995072875429,7.9834498716527165
0.1667,0.9378,0.1837,-0.2302,0.1333,0.087,-6.8775,-7.6912,-12.285,11.08370003243326,9.90864250970843,16.522291679756318,7.995607914530937
0.1893,0.9371,0.1927,-0.2302,0.1333,0.087,-7.1312,-8.2512,-12.9062,11.618497130239954,11.024781082898405,16.497565244714043,8.007834970839172
0.2059,0.9316,0.1947,-0.2326,0.1342,0.0867,-7.6825,-8.4525,-14.1138,11.80410904495935,12.057020924858548,16.341203283634044,8.016981196848599
0.2149,0.9174,0.1965,-0.2326,0.1342,0.0867,-8.05,-7.42,-13.7987,12.088834100013123,12.777659036295395,16.33358461426356,8.029083321152758
0.2099,0.8955,0.2002,-0.2326,0.1343,0.0854,-6.3525,-4.5938,-12.6,12.600512942852014,12.857885318225746,15.615230325688724,8.041219421299385
0.2033,0.8833,0.1922,-0.2335,0.1328,0.0898,-4.9612,-3.185,-12.7662,12.276721606979518,12.745317483045998,16.958368623491246,8.05336967804704
0.2099,0.8847,0.1923,-0.2335,0.1328,0.0898,-2.9313,-2.275,-12.1363,12.263198162674415,12.870457744912189,17.075039778349574,8.065478880651714
0.2151,0.8967,0.195,-0.2338,0.1336,0.0902,-1.3037,-1.1812,-12.005,12.268737405807984,12.963656252913994,17.16307429055392,8.077624182589009
0.2228,0.9011,0.1929,-0.2338,0.1336,0.0902,-0.3063,-0.2362,-12.39,12.0835444065125,13.324905267290125,17.408094527281126,8.089713919867268
0.2282,0.9054,0.1879,-0.2354,0.1333,0.0926,1.3475,1.33,-12.6612,11.725296967123034,13.725507980889345,18.254102241798826,8.098844219700538
0.227,0.9085,0.186,-0.2359,0.1334,0.0874,1.8987,2.3712,-13.3437,11.570873135777557,13.74879467206498,16.88957601343612,8.110875560999556
0.2264,0.908,0.1859,-0.2359,0.1334,0.0874,1.715,3.9463,-14.7,11.570592751471567,13.730297863817134,16.880638602221058,8.122906902298572
0.2222,0.9129,0.1757,-0.2351,0.1345,0.0885,2.205,4.9875,-15.75,10.895992621242652,13.480295938371006,17.578947789078786,8.1349067451603
0.218,0.916,0.1771,-0.2351,0.1345,0.0885,2.275,6.0113,-17.08,10.942459786805642,13.190165144095516,17.461599346134097,8.14695684395568
0.2028,0.9227,0.175,-0.237,0.1326,0.0893,1.7587,6.3088,-18.2875,10.739764515645328,12.298285323266125,17.438386902809633,8.156106609115366
0.1864,0.9286,0.1742,-0.237,0.1326,0.0893,1.8025,7.2188,-18.27,10.62518572544155,11.276594614328706,17.235838429882357,8.168113884192634
0.1742,0.9349,0.172,-0.233,0.133,0.085,0.49,7.385,-17.8237,10.425080290748024,10.473930511218354,16.357642264072823,8.180215300666742
0.1604,0.9406,0.1666,-0.2355,0.1333,0.0841,-0.9538,6.3175,-16.1963,10.045167953364627,9.637707863671928,15.973693862062404,8.192228238384422
0.1572,0.9351,0.1673,-0.2355,0.1333,0.0841,-1.4525,5.1275,-14.56,10.143272374827596,9.427590848776696,15.878902251585169,8.204291078120725
0.1604,0.9348,0.1698,-0.235,0.1315,0.0847,-2.065,4.655,-14.3238,10.29471663956642,9.561202678591624,16.0733959138021,8.214142302861369
0.1697,0.9341,0.1727,-0.235,0.1315,0.0847,-2.9313,3.8238,-12.495,10.474282846861673,10.040240347065202,16.08830918982085,8.225759563580304
0.1713,0.9402,0.1787,-0.2344,0.1338,0.0921,-2.8263,2.9225,-11.9087,10.760815696792568,10.1284189231335,17.754438150206834,8.23761607085662
0.1618,0.9442,0.1746,-0.2342,0.1318,0.0877,-3.29,2.1263,-10.1937,10.477490273100049,9.68431070882153,16.76196669752649,8.2496785566779
0.1612,0.9456,0.181,-0.2342,0.1318,0.0877,-4.4975,0.4288,-9.1787,10.83507666392096,9.56447687026912,16.519421981478825,8.261738565093998
0.1546,0.9382,0.187,-0.2338,0.133,0.0862,-5.39,-0.1488,-9.2662,11.271122966634884,9.337485860569291,15.768969846412409,8.270918059115843
0.1573,0.9346,0.1881,-0.2338,0.133,0.0862,-5.6,-1.3387,-9.45,11.37917005528973,9.3438634170033,15.742917515884658,8.283030093040722
0.1637,0.9245,0.19,-0.239,0.1318,0.0838,-5.5738,-2.8963,-9.3275,11.612866998394912,9.62477448070496,14.781584412175643,8.2951916750692
0.1741,0.924,0.1839,-0.239,0.1318,0.0838,-4.6988,-3.6488,-9.0037,11.25725685699463,10.19366079278326,15.147785331233827,8.307133829781737
0.1848,0.9294,0.1892,-0.2386,0.1306,0.0826,-4.795,-4.2088,-8.6625,11.505900146141933,10.795656044439639,14.880391696903533,8.319240201066204
0.19,0.9311,0.1918,-0.2398,0.1295,0.0876,-4.7688,-4.2,-8.6887,11.639337185496299,11.162058134965076,16.092417628244736,8.3313359548999
0.1774,0.923,0.1887,-0.2398,0.1295,0.0876,-5.5563,-4.375,-8.3387,11.554680807623027,10.7956895753056,15.99386759435651,8.340464131243017
0.1786,0.9131,0.1893,-0.2418,0.1318,0.0885,-6.3787,-4.6813,-7.56,11.711956558000916,10.830884865592045,15.933110082558338,8.352610848840415
0.1818,0.9054,0.1833,-0.2418,0.1318,0.0885,-5.9237,-5.18,-7.4637,11.445699861414619,11.067715252410858,16.172666706669055,8.364625202218198
0.1905,0.9001,0.1838,-0.2416,0.1312,0.0898,-5.635,-5.8275,-7.8663,11.54083857098009,11.591471735397402,16.62000159985063,8.376712816006302
0.2016,0.898,0.1834,-0.2437,0.131,0.0875,-4.27,-7.0525,-8.1812,11.542865099241482,12.279254272161394,16.065306154347255,8.3887466347105
0.2109,0.8952,0.1769,-0.2437,0.131,0.0875,-2.8,-8.0062,-8.4875,11.179185737153796,12.914695394238487,16.452088612302664,8.400804519636445
0.2347,0.9014,0.1787,-0.2438,0.1288,0.0891,-2.1088,-7.805,-9.3187,11.213238338126954,14.131435485724143,17.260918343968985,8.410028606951528
0.2439,0.9127,0.1727,-0.2438,0.1288,0.0891,-1.925,-8.1462,-10.5787,10.716141965974733,14.635220164731646,17.685193079645188,8.422163645353079
0.2417,0.9201,0.1713,-0.2466,0.1297,0.0926,-1.3737,-7.3238,-12.1187,10.546791867274226,14.503327356089214,18.370428076722646,8.434293021114216
0.2399,0.9238,0.1709,-0.2261,0.1304,0.0895,-1.19,-6.5713,-13.125,10.481220022603123,14.354535204737624,19.324080784422538,8.44641956555515
0.2353,0.9256,0.166,-0.2451,0.1304,0.0895,-2.0475,-4.6638,-14.91,10.168384089491365,14.123364877942041,17.793407961104933,8.458544694335979
0.2305,0.9301,0.1641,-0.2466,0.132,0.0909,-3.1412,-3.71,-15.365,10.00632300206421,13.845942093195147,17.993005047556654,8.47068964235825
0.23,0.929,0.1679,-0.2466,0.132,0.0909,-3.6138,-2.4325,-15.6187,10.243927966975722,13.775648124420407,17.83822292485621,8.482806277178462
0.2295,0.9239,0.1688,-0.2464,0.1302,0.0914,-4.7775,-1.75,-16.0562,10.353647551902034,13.769553063010877,17.970722706460197,8.492078496937042
0.2288,0.9169,0.1708,-0.2464,0.1302,0.0914,-5.495,-1.1025,-15.61,10.551550271566311,13.774089182911842,17.86346703020238,8.504291396644248
0.2277,0.9137,0.17,-0.245,0.1291,0.0918,-5.5825,-0.84,-15.9162,10.539780568954304,13.770798708533057,18.109073437483627,8.516270004604435
0.2216,0.9118,0.1719,-0.2465,0.13,0.0914,-5.4775,-0.4462,-16.17,10.676171967504931,13.590221131915639,17.685941534677035,8.528423092672297
0.214,0.9076,0.1794,-0.2465,0.13,0.0914,-4.8213,-0.6038,-16.3625,11.179778685369323,13.309225447654544,17.262802080529667,8.54063953152976
0.2075,0.9049,0.1785,-0.2458,0.1286,0.0928,-4.5938,-0.6125,-16.9487,11.1589242826221,12.997737477543922,17.630133366265877,8.552624509960408
0.2051,0.9101,0.1806,-0.2458,0.1286,0.0928,-4.7337,-0.1925,-17.8587,11.223766751005696,12.687134405234437,17.53342883978469,8.56482785396192
0.2061,0.9116,0.1838,-0.2451,0.1319,0.095,-3.9463,-0.105,-18.4888,11.398858404060505,12.573089661277404,17.92858782157526,8.574013718454227
0.2008,0.9162,0.1798,-0.245,0.1312,0.0911,-2.87,-0.2888,-18.445,11.103754947192122,12.326779000721508,17.07668374170094,8.586153711666137
0.1859,0.9252,0.176,-0.245,0.1312,0.0911,-3.15,-0.3763,-17.325,10.771563831134785,11.690559258303002,17.032024479848694,8.598210888762031
0.1715,0.9302,0.1721,-0.2452,0.1305,0.0915,-3.4388,-0.1138,-16.1963,10.48279795685052,10.84722886076626,17.091160382798602,8.610355482869274
0.1735,0.937,0.1737,-0.2452,0.1305,0.0915,-3.5788,-2.0125,-14.6212,10.502151930586272,10.689992902542262,17.089484958351235,8.62249335259103
0.1763,0.9378,0.171,-0.2461,0.1293,0.0926,-4.9437,-2.6338,-13.8687,10.334346689476453,10.581741863375994,17.46324056590661,8.634632284057863
0.1847,0.9354,0.1748,-0.247,0.1303,0.0935,-5.8187,-3.3338,-13.405,10.584185885990872,10.837612810765505,17.560219508184872,8.646730515296738
0.1996,0.9334,0.183,-0.247,0.1303,0.0935,-6.1863,-3.9375,-14.3325,11.091138780471098,11.548594482879349,17.47794125722224,8.658838656156334
0.2141,0.927,0.1794,-0.2463,0.1322,0.0926,-6.0988,-4.2875,-14.805,10.95329697076051,12.444062587596777,17.584207969368066,8.668110168084864
0.2128,0.9237,0.1846,-0.2463,0.1322,0.0926,-6.4488,-4.4012,-15.6012,11.300605134572246,12.655013953450027,17.353323288655957,8.680335100902944
0.212,0.9221,0.1859,-0.2453,0.1313,0.0969,-5.9763,-4.0075,-17.2375,11.398055896566971,12.687445872773543,18.461762568960204,8.69245385921331
0.2071,0.9223,0.1864,-0.2458,0.1321,0.093,-6.6238,-3.64,-17.535,11.425690431714777,12.502783695110086,17.331306150550564,8.704462549950682
0.2089,0.917,0.1796,-0.2458,0.1321,0.093,-6.6325,-3.6488,-17.1325,11.082419085276191,12.569477013366237,17.597574809898475,8.71661103712321
0.21,0.9082,0.1858,-0.2463,0.1306,0.0948,-6.2825,-3.5175,-17.3337,11.560712513773636,12.697598773747341,17.799892681568757,8.728743952034606
0.2139,0.9024,0.1849,-0.2463,0.1306,0.0948,-5.8975,-3.0538,-16.9837,11.57946768570781,12.920664811432744,17.87533285543189,8.74089916359262
0.2164,0.9004,0.1847,-0.245,0.131,0.1006,-5.3375,-2.6688,-16.5987,11.592296007210827,13.090684033327642,19.456258135848568,8.750119003927395
0.2278,0.9028,0.1912,-0.2441,0.1295,0.0966,-4.3663,-2.0475,-16.66,11.956708345661202,13.334399254307725,18.536900719605473,8.762502136761968
0.233,0.9026,0.1893,-0.2441,0.1295,0.0966,-4.0338,-1.7675,-16.555,11.845133913214644,13.462123425508594,18.70188897106512,8.774322190790636
0.2444,0.8997,0.1903,-0.2446,0.1304,0.0976,-3.57,0.2187,-16.3187,11.942615691698078,14.377141819263429,19.044967740159972,8.786432455140385
0.2437,0.8989,0.1864,-0.2446,0.1304,0.0976,-2.765,1.47,-17.4913,11.715712586156897,14.746283413152986,19.184877377260136,8.798528916804134
0.243,0.8999,0.1835,-0.2439,0.1318,0.0966,-2.5638,2.2575,-18.1212,11.525793265508524,14.804809459412569,19.053073002695637,8.810572999044076
0.2419,0.8983,0.1842,-0.2439,0.1318,0.0966,-1.9075,3.64,-19.145,11.587922297765997,14.782164603671198,18.99906699123444,8.819741875615149
0.241,0.9021,0.1761,-0.2437,0.1322,0.0949,-1.015,4.4363,-20.895,11.04736257329671,14.705260907098255,18.887230758857775,8.831843646004282
0.2425,0.9019,0.1781,-0.2405,0.1312,0.0958,-0.49,5.2063,-22.6625,11.170252354465209,14.767838337657205,19.374440389394273,8.844066101417182
0.2447,0.9055,0.1831,-0.2405,0.1312,0.0958,-0.7525,6.72,-24.7887,11.430842321059416,14.828334817053115,19.22537829021999,8.855961893261352
0.2476,0.9111,0.1907,-0.2388,0.133,0.0961,0.5075,7.3938,-26.8187,11.820692827826912,14.888770380976014,19.16423542355724,8.867986156259855
0.2489,0.9139,0.1915,-0.2388,0.133,0.0961,0.42,8.9775,-29.2863,11.834579330218508,14.922523504289577,19.165667528967386,8.879986706951634
0.247,0.9096,0.1876,-0.2361,0.1345,0.1027,0.5513,10.8062,-31.745,11.654036605366759,14.895297492835507,21.228689885093534,8.889229197848055
0.2357,0.9077,0.187,-0.2334,0.1331,0.0974,1.2425,12.5825,-34.65,11.640972022685345,14.310562068647604,19.91215159855855,8.901355034458938
0.227,0.9076,0.1892,-0.2334,0.1331,0.0974,1.4437,13.4137,-37.2313,11.774978604450853,13.792541248200367,19.648078376919198,8.91335700081082
0.2095,0.9059,0.1857,-0.2281,0.135,0.0926,2.7825,14.4025,-40.53,11.585070359250915,12.825404994814415,18.588074182418456,8.92545983294503
0.206,0.903,0.1872,-0.2281,0.135,0.0926,3.6837,15.2775,-43.75,11.711680844282501,12.60501167268275,18.444696738211675,8.937544261497903
0.1939,0.9005,0.1767,-0.2228,0.134,0.087,4.2,15.4525,-45.5088,11.103433547210349,11.968212612343324,17.640016147517375,8.9467120763239
0.1797,0.8999,0.178,-0.2228,0.134,0.087,4.9963,15.9075,-47.7663,11.188433590213407,11.131347674013947,17.334976580127634,8.958830480719241
0.1609,0.9018,0.1807,-0.2154,0.1381,0.0861,5.8888,16.905,-50.4875,11.330316220005495,9.985079873624121,17.125531029716367,8.970867484658669
0.124,0.9052,0.1675,-0.2087,0.1414,0.0856,7.2362,17.4037,-54.6613,10.485831536419324,7.787261767777538,17.42610938029862,8.982929970479947
0.0741,0.9465,0.1621,-0.2087,0.1414,0.0856,8.3737,15.015,-57.505,9.720404530253779,4.604184040389994,17.13462971752554,8.99501616860795
0.0658,0.9648,0.1663,-0.2012,0.1435,0.0843,7.3763,12.88,-58.2663,9.779661256232327,3.89411551644854,17.14249628528828,9.007100243245798
0.0607,0.9736,0.1624,-0.2012,0.1435,0.0843,6.4575,10.2637,-57.9337,9.4707950571269,3.5482273177575525,17.289952392610523,9.016245053595123
0.0633,0.9718,0.167,-0.1949,0.1482,0.0792,5.495,8.0675,-55.1075,9.750054197043813,3.661393369169778,16.033548976233067,9.028286658429884
0.0638,0.9694,0.1652,-0.189,0.1475,0.0812,4.27,6.6937,-50.715,9.6713512521716,3.7066072926370377,17.22029960960659,9.040303489212848
0.0564,0.9622,0.1666,-0.189,0.1475,0.0812,2.3187,5.7225,-46.1562,9.822665340499823,3.353776301356057,16.9897718563021,9.052393226491107
0.0363,0.9543,0.167,-0.1854,0.1448,0.0798,2.135,5.4775,-39.9087,9.925816510766726,2.295554592706517,16.646969022866475,9.064326533328002
0.0294,0.9533,0.1688,-0.1854,0.1448,0.0798,1.5925,4.515,-33.5737,10.040917834881908,1.8176969062064403,16.454960131658186,9.073521953526003
0.0271,0.9513,0.1668,-0.1825,0.1491,0.0768,1.5837,3.1675,-28.6737,9.945353984628525,1.643811414703247,15.664688348697577,9.085572406236407
0.0324,0.955,0.1662,-0.1825,0.1491,0.0768,1.2687,1.7675,-25.305,9.872590172382187,1.8522617004577826,15.799447064080011,9.097577911738547
0.0476,0.9569,0.1676,-0.1806,0.1504,0.0798,1.2775,-0.3938,-23.2925,9.934354085590414,2.3711256551201703,16.97788778613562,9.109662694206447
0.0605,0.96,0.1637,-0.1811,0.1508,0.0769,0.77,-1.1638,-23.59,9.677753709012825,2.7244666782484424,16.46447778736801,9.121658290087867
0.0733,0.9565,0.1629,-0.1811,0.1508,0.0769,1.0325,-1.2163,-23.94,9.665253478071138,3.1579893718196814,16.688558880192883,9.131034560864006
0.0705,0.9569,0.169,-0.1789,0.1505,0.078,0.525,-0.8225,-24.4737,10.014871215417685,3.588390416940842,16.89400569606442,9.143007860098807
0.0647,0.9608,0.166,-0.1789,0.1505,0.078,0.49,-0.9975,-25.97,9.802960211990055,3.6657199652922365,16.97941305240323,9.1550650371947
0.055,0.9603,0.1617,-0.1763,0.1502,0.0835,0.665,-0.735,-26.5562,9.55875463626358,3.466155679780364,18.97938802868869,9.16708363755279
0.0508,0.9659,0.1626,-0.173,0.1491,0.0786,0.665,-0.455,-26.0225,9.555611938519348,3.201888918735813,17.785147088131907,9.179201688033107
0.0518,0.9673,0.1579,-0.173,0.1491,0.0786,-0.2275,-0.9013,-25.4888,9.271855664454192,3.1299381031064786,18.050354548427396,9.191251432913461
0.0604,0.9681,0.156,-0.1734,0.1546,0.0774,-0.6737,-1.295,-23.8087,9.154298929702286,3.2197039755532937,17.6431917978579,9.200566476390152
0.0615,0.9712,0.1549,-0.1734,0.1546,0.0774,-1.4262,-1.715,-19.2938,9.062229149006535,3.259739249537592,17.74356468772502,9.212664707629028
0.0626,0.9673,0.1575,-0.1731,0.1534,0.0769,-1.5487,-1.2163,-17.57,9.247477373787376,3.367065921763418,17.523292190443193,9.224768955423341
0.0653,0.968,0.1562,-0.1731,0.1527,0.0785,-3.1325,-0.665,-16.7038,9.166666311442086,3.5798749574235247,18.1842666341276,9.236927352216588
0.06,0.9686,0.1549,-0.1736,0.1527,0.0785,-3.22,-0.1312,-16.7125,9.08611801074542,3.532671097757044,18.107146061885814,9.249122910087534
0.0609,0.9662,0.1568,-0.1715,0.1522,0.0752,-3.2813,0.455,-16.485,9.21753117918549,3.551125182654901,17.19467820635002,9.261132662569983
0.0516,0.9611,0.1547,-0.1715,0.1522,0.0752,-2.8263,0.2713,-16.555,9.144182242080378,3.2149005170254887,17.104103251648066,9.270363474270555
0.0518,0.9593,0.1534,-0.175,0.1529,0.0822,-3.6225,0.5688,-16.7562,9.085316399079954,3.103675734832674,18.95547147894095,9.282379951138491
0.0505,0.9598,0.1543,-0.175,0.1529,0.0822,-3.6925,0.7437,-16.5462,9.132745846931579,3.012721109434124,18.889812454986973,9.294465087521417
0.0533,0.9644,0.159,-0.1715,0.1542,0.077,-4.2788,0.7875,-15.9162,9.361458038685942,3.0891634268037427,17.4122121352437,9.306535005558235
0.06,0.961,0.1579,-0.172,0.1534,0.0766,-3.955,0.5862,-15.0237,9.33086911297031,3.3880738174497744,17.42320682894077,9.318651994293475
0.0756,0.9535,0.1596,-0.172,0.1534,0.0766,-4.0338,1.2775,-15.1025,9.501791645015661,4.191217048035821,17.56168351651197,9.330691475638083
0.0662,0.9542,0.1606,-0.1713,0.155,0.0769,-4.2788,1.3475,-14.2712,9.553682064091708,3.9842715385896703,17.43045935325193,9.339956263181124
0.0687,0.9544,0.1619,-0.1713,0.155,0.0769,-4.2788,1.9337,-13.9125,9.627532807124721,4.042783270179351,17.40713343338238,9.35197026264388
0.0757,0.9541,0.1643,-0.1726,0.1539,0.0794,-4.2,2.5375,-13.8075,9.770343658926057,4.38740443574998,18.130544551222577,9.364038057190545
0.0717,0.9529,0.1662,-0.1714,0.1524,0.0781,-4.7512,3.3075,-13.72,9.893372636195995,4.264412218234203,17.720038342955238,9.376203532284306
0.0742,0.9488,0.1721,-0.1714,0.1524,0.0781,-4.1563,3.9813,-13.8775,10.279850826459532,4.379491717430237,17.410682619214967,9.388170461048643
0.0673,0.9378,0.1663,-0.1727,0.1522,0.0785,-4.13,3.8413,-14.3675,10.056346636384543,4.094377440960763,17.512117845291062,9.40025949049685
0.0631,0.9343,0.1691,-0.1727,0.1522,0.0785,-2.3888,4.0862,-14.7875,10.258406789710241,3.8459187490664775,17.25127162598741,9.409479684746652
0.0606,0.9379,0.161,-0.1734,0.1539,0.0791,-1.1987,4.0338,-15.2337,9.741896456482847,3.6742595699861664,17.713378494983413,9.421540754907829
0.0612,0.9459,0.1635,-0.1734,0.1539,0.0791,-0.6125,3.535,-15.0762,9.806567264575936,3.652244284673905,17.654324636124723,9.433563602246227
0.0649,0.9524,0.1608,-0.1718,0.1541,0.0778,-0.5862,3.2813,-15.6625,9.583864950770826,3.811401422726431,17.661983583510867,9.445663603060233
0.0633,0.9587,0.1632,-0.1757,0.1539,0.0766,-0.385,3.395,-16.5287,9.660669240432286,3.738737920356054,16.793922753223335,9.4577452002929
0.0404,0.972,0.156,-0.1757,0.1539,0.0766,-1.19,3.5613,-16.5025,9.119363431792891,2.575805902588246,16.884915952681553,9.469780080742174
0.0377,0.976,0.154,-0.1724,0.1526,0.075,-2.0213,2.73,-16.6338,8.967020704019454,2.2585186911429647,16.849446449947592,9.479004521972284
0.0301,0.9765,0.1518,-0.1724,0.1526,0.075,-3.0275,1.4875,-16.3187,8.836449471459348,1.87066435113227,16.84224561450238,9.491040464166636
0.0332,0.9712,0.1572,-0.1717,0.1538,0.0762,-3.9288,-0.1663,-16.1262,9.193250121807027,1.9071154538389905,16.959983751853823,9.503190366999265
0.0349,0.9584,0.1554,-0.1706,0.1533,0.0782,-4.6813,-0.7962,-16.4412,9.210034940581517,1.9741328879025826,17.73848302209815,9.515337084596663
0.0466,0.9539,0.1666,-0.1706,0.1533,0.0782,-4.83,-1.9687,-17.0362,9.90492019036496,2.188950920724295,17.315348772112507,9.527481324788882
0.0614,0.951,0.1675,-0.1703,0.1543,0.0774,-5.25,-2.6075,-17.5438,9.988840106505664,2.920134178709014,17.232853017618407,9.539575309047448
0.0706,0.9492,0.172,-0.1703,0.1543,0.0774,-5.0575,-2.8,-18.27,10.270058745640354,3.6132923275894258,17.13841593211172,9.548978831280568
0.0723,0.9465,0.1701,-0.1707,0.1545,0.0796,-5.425,-2.4237,-18.2525,10.188370747359745,3.92543910948817,17.919368650990485,9.560959208815882
0.0741,0.9437,0.1734,-0.1706,0.1535,0.0782,-4.8738,-2.0038,-18.1737,10.411043031145764,4.069210171543526,17.35125605251816,9.573156182346931
0.0702,0.9428,0.1724,-0.1706,0.1535,0.0782,-4.2263,-0.8225,-17.9725,10.362728591919176,4.121253333093128,17.324756326990954,9.585147531248042
0.0735,0.9543,0.1663,-0.1699,0.1541,0.0788,-3.6575,-0.0438,-17.4913,9.886644851165016,4.253505925514416,18.063450774079417,9.597298849740776
0.0677,0.9573,0.1634,-0.1699,0.1541,0.0788,-3.7362,0.9713,-17.0275,9.686932791188692,4.062369524763423,18.13441075514037,9.60944910648843
0.0684,0.9503,0.1712,-0.1705,0.1545,0.0787,-4.095,1.7325,-17.1238,10.211035132989105,4.054313986717814,17.5447294376169,9.621463813781238
0.064,0.9423,0.1665,-0.1705,0.1538,0.0791,-3.64,1.8375,-16.8,10.020997073567578,3.877890473523857,17.816984886194902,9.630687901096323
0.0618,0.9377,0.1707,-0.1702,0.1538,0.0791,-3.15,2.4063,-16.5812,10.31638972186772,3.743514630222281,17.533064216570516,9.642725966780828
0.0635,0.9337,0.1698,-0.1694,0.1558,0.0798,-2.2138,3.4825,-16.415,10.307032489946637,3.814121622583389,17.78694430296141,9.654776419491233
0.0662,0.9365,0.1731,-0.1694,0.1558,0.0798,-1.0675,3.8238,-16.7825,10.471740101528086,3.95101764370525,17.67760693356942,9.666898009121807
0.0673,0.9374,0.1711,-0.168,0.1554,0.0754,-0.4025,4.5325,-16.6513,10.344458453044295,4.027459931156648,16.535765304025816,9.678953770557596
0.0611,0.9423,0.161,-0.168,0.1554,0.0754,-0.1837,5.495,-16.2225,9.697635646167718,3.702905890592399,17.042173748720494,9.690958922144711
0.0559,0.9502,0.1675,-0.1698,0.1546,0.0809,0.7525,5.9412,-16.45,9.99649180790481,3.3611852129190183,18.28360244391187,9.700174869414203
0.0481,0.9587,0.1578,-0.1705,0.1542,0.0774,0.7175,6.3612,-16.03,9.348741558066488,2.893050474711973,17.56592461473872,9.712228507359841
0.042,0.97,0.1585,-0.1705,0.1542,0.0774,0.77,6.3525,-15.61,9.280422080394851,2.4967849156210598,17.508737559524505,9.724215963195668
0.0365,0.9753,0.1555,-0.1687,0.1541,0.0768,0.4462,5.6963,-15.8987,9.059494206526853,2.162441599446709,17.608057709206676,9.73627667944182
0.0375,0.9731,0.1602,-0.1687,0.1541,0.0768,-0.4375,5.0925,-16.6775,9.347865200837953,2.1756364589095134,17.360816531420944,9.745398131399448
0.0351,0.9698,0.1599,-0.1691,0.157,0.0737,-1.5487,4.375,-16.31,9.36261487632315,2.0639409792015253,16.139424953869128,9.75762447987763
0.0375,0.9661,0.1652,-0.1691,0.157,0.0758,-2.3275,3.7538,-16.4937,9.702598386340869,2.1710511744172076,16.531269086197916,9.769572651145605
0.0438,0.959,0.162,-0.1681,0.1547,0.0758,-2.2138,3.15,-16.8,9.588542610261197,2.507546027202749,16.968293504581794,9.78167017455443
0.0419,0.9577,0.1606,-0.1682,0.1547,0.0763,-3.1238,2.6863,-16.625,9.519743769816795,2.477664493909429,17.15128083704506,9.793714610709399
0.0347,0.9603,0.1606,-0.1682,0.1547,0.0763,-2.3187,1.8812,-16.2925,9.494318496148859,2.1387804401376864,17.04675631329034,9.805814611523402
0.0318,0.9587,0.1637,-0.1671,0.1537,0.0747,-3.2288,0.9887,-15.75,9.689375817957762,1.9470764423874887,16.46178639312751,9.814994105545248
0.0293,0.9605,0.1601,-0.1671,0.1537,0.0747,-3.115,0.7,-15.5925,9.463917932706726,1.791470119971862,16.629117955659822,9.82709021329397
0.0306,0.9581,0.1665,-0.1681,0.1543,0.0744,-2.7738,0.175,-16.0737,9.857392308184785,1.7983877657986655,16.062352490544587,9.839143143409554
0.0354,0.9525,0.1632,-0.1681,0.1567,0.0759,-3.2375,-0.3588,-15.7762,9.72294455874641,1.9636170032107223,16.629824588331243,9.851216246681604
0.0385,0.9533,0.1692,-0.1681,0.1567,0.0759,-2.6425,-1.1812,-16.4325,10.063594770570283,2.054483533687936,16.35815069916716,9.863387030500752
0.0483,0.9499,0.1657,-0.1671,0.1553,0.0753,-2.3363,-1.505,-16.5462,9.895545164475413,2.1177008180187475,16.67103389626973,9.87550154183081
0.0533,0.9509,0.1688,-0.1671,0.1553,0.0753,-2.6338,-1.6975,-16.5812,10.065586855625456,2.2193602986626138,16.595441470300553,9.88765710730385
0.0504,0.9519,0.1622,-0.1678,0.1556,0.0719,-2.0213,-1.7062,-17.22,9.671194398774128,2.299789795836151,15.72177211582449,9.896839786560927
0.0475,0.9553,0.1664,-0.1681,0.1549,0.0775,-2.0388,-1.47,-17.3337,9.880411626339841,2.3535727535714326,17.299846257024825,9.90900349207956
0.039,0.9564,0.1623,-0.1681,0.1549,0.0775,-1.785,-1.505,-17.5875,9.631965579064715,2.3495811213985234,17.380763054532324,9.921115526004439
0.0407,0.9591,0.1543,-0.167,0.1557,0.0763,-1.4612,-1.47,-16.8787,9.14079415346931,2.3548602994123122,17.558675670042323,9.933296219444305
0.0449,0.964,0.1585,-0.167,0.1557,0.0763,-2.1263,-1.89,-16.8175,9.336436560971178,2.4188017614966357,17.445086120646668,9.94533428512881
0.0508,0.9628,0.1584,-0.1671,0.1557,0.077,-2.8263,-1.8375,-16.4062,9.34260113234368,2.5304522476632543,17.766468206535958,9.95750471503293
0.0508,0.9652,0.155,-0.167,0.1569,0.0778,-2.87,-1.4088,-14.7875,9.1237591881758,2.5983850557773494,18.18634921113132,9.969646123904942
0.0561,0.965,0.1625,-0.167,0.1569,0.0778,-3.57,-0.6475,-14.1138,9.557367013905013,2.9294811960287137,17.87166655890966,9.978865610324693
0.055,0.9593,0.1606,-0.1677,0.1563,0.076,-3.78,-0.3063,-14.0437,9.504113095677424,3.101980556923948,17.277633502531014,9.990992862595677
0.0556,0.9542,0.1556,-0.1677,0.1563,0.076,-3.9988,0.3325,-13.9387,9.262295881793607,3.2265725421029177,17.52607423341622,10.003034821345464
0.0489,0.9524,0.1582,-0.166,0.1555,0.0797,-3.7188,0.9887,-14.0437,9.430631566378215,2.990949562134562,18.658869942962966,10.01513057517916
0.0516,0.954,0.1625,-0.166,0.1555,0.0797,-3.3163,0.8312,-13.475,9.666066596641324,3.0342395796741344,18.487834207457485,10.027156961667817
0.0465,0.9548,0.1548,-0.1665,0.1562,0.0748,-3.1063,1.12,-13.4663,9.210400192153262,2.8283045349647438,17.143657260919003,10.039301201860036
0.0497,0.9572,0.1607,-0.1683,0.1561,0.0777,-2.5813,1.1725,-13.0375,9.529367607977528,2.9039265013258238,17.65522657491242,10.048416991177252
0.0486,0.9607,0.1633,-0.1683,0.1561,0.0777,-3.01,0.8312,-12.9325,9.64661728491282,2.8693976384481292,17.52130638353702,10.060580696695885
0.0539,0.9601,0.1597,-0.167,0.1551,0.0774,-2.8788,0.8838,-13.195,9.444497271391576,3.0832710580441236,17.901091003434544,10.072583370877819
0.0551,0.9601,0.1606,-0.167,0.1551,0.0774,-3.535,1.365,-13.2737,9.496045688710954,3.2001258362944194,17.874520877244905,10.084693281312544
0.0573,0.9547,0.1602,-0.169,0.1557,0.075,-3.3425,1.0675,-13.3437,9.525486890270237,3.33623067724139,16.875066672301283,10.096780187270596
0.0574,0.9515,0.1561,-0.1682,0.155,0.0757,-3.4738,1.0062,-13.5275,9.317346104156755,3.387171126480676,17.421801438713146,10.108818606870129
0.06,0.9508,0.163,-0.1682,0.155,0.0757,-3.2288,0.77,-13.6062,9.72677155240028,3.507894114043213,17.079564635902592,10.118025706263978
0.0585,0.9521,0.1565,-0.1685,0.155,0.0763,-2.4675,1.2687,-14.2275,9.335525111810112,3.4795025765734753,17.589647887821666,10.130230465925592
0.0543,0.9578,0.1614,-0.1685,0.155,0.0763,-2.3625,1.8812,-13.7987,9.56448059979983,3.2623250056128397,17.287283561546353,10.142163418847462
0.0544,0.9565,0.1546,-0.1675,0.1542,0.075,-2.2925,1.435,-14.4375,9.182429902546524,3.225646400393992,17.37040860911316,10.154219888113303
0.0537,0.9561,0.1623,-0.1683,0.1562,0.0786,-2.4938,1.015,-15.155,9.632987458128527,3.1850287961655144,17.91884989541042,10.166312102796743
0.0584,0.9553,0.1588,-0.1683,0.1562,0.0786,-3.3425,0.6212,-15.0412,9.438547881698648,3.3681895922689717,18.19755042352754,10.178346275415965
0.0572,0.9573,0.1598,-0.1693,0.1553,0.0777,-3.4563,1.2512,-15.4088,9.47677340479087,3.3716565052241414,17.781519634273828,10.18761000121393
0.0665,0.9523,0.1603,-0.1693,0.1553,0.0777,-3.6312,1.4175,-16.135,9.554767119302381,3.7976239233968676,17.89147505176507,10.19965656085905
0.0658,0.9504,0.1627,-0.1686,0.155,0.0773,-3.5,1.75,-15.9862,9.713915046052652,3.879396616631213,17.68626865071807,10.211699581353917
0.0647,0.9499,0.1606,-0.1686,0.155,0.0773,-3.3163,1.89,-15.8638,9.596600012311134,3.850485790022403,17.77828085925728,10.223813384853925
0.059,0.9509,0.1612,-0.1677,0.1544,0.0809,-3.605,2.8612,-16.135,9.621445378258679,3.564819651059257,18.935551474458144,10.23589604383167
0.0598,0.9511,0.1652,-0.1682,0.1554,0.0769,-2.8438,3.115,-16.3887,9.852958636230673,3.548289076409851,17.32937173944044,10.245147382603731
0.0633,0.956,0.1677,-0.1682,0.1554,0.0769,-2.7037,2.8263,-16.66,9.949236582378765,3.6975939650335943,17.295998896925557,10.257130591459251
0.0626,0.9476,0.1734,-0.1696,0.1545,0.0773,-3.43,3.1588,-15.6012,10.368577511947061,3.7144519780884133,16.92533528516838,10.269178566764477
0.0702,0.9404,0.1768,-0.1696,0.1545,0.0773,-2.7388,4.0163,-14.8575,10.646835427175855,4.123030817266952,16.808139124088704,10.281294139839613
0.0698,0.9324,0.1748,-0.1676,0.1558,0.0755,-2.0563,4.865,-13.9387,10.618250635907792,4.196746578850106,16.370429504527674,10.293389185843258
0.0619,0.9321,0.1753,-0.1666,0.1563,0.0745,-0.7088,5.6087,-12.9412,10.651107690893772,3.7905452754986,15.926273674014626,10.305423712377506
0.0459,0.9343,0.1707,-0.1666,0.1563,0.0745,-0.0088,6.51,-12.3025,10.354766594473151,2.8793267375187903,15.93067492512248,10.31460886903976
0.033,0.9591,0.1623,-0.1694,0.1554,0.0746,1.12,6.86,-11.2262,9.606728680366468,2.0420996829934492,16.222690533495513,10.326712409004024
0.0294,0.9675,0.1545,-0.1694,0.1554,0.0746,1.5487,6.405,-10.4562,9.07441803079198,1.7547285088597449,16.651249056503527,10.3389854742656
0.031,0.9761,0.1559,-0.1694,0.1534,0.0782,1.54,6.0988,-10.5087,9.074479608861864,1.791511304186782,17.898544288899764,10.350715987792764
0.0406,0.9772,0.1558,-0.1694,0.1534,0.0782,1.1375,4.9875,-11.27,9.05876011385688,2.2758342250247336,18.082423570325997,10.36266238948561
0.0431,0.9783,0.1533,-0.1714,0.1539,0.0718,0.1663,5.005,-11.9087,8.906269517844601,2.463725873988412,16.014802677235966,10.371846838317813
0.0509,0.9753,0.1558,-0.1705,0.153,0.0746,-0.5775,4.6375,-12.4775,9.07560215673045,2.8828548519499715,17.01080324463051,10.384054075384608
0.0531,0.9708,0.1516,-0.1705,0.153,0.0746,-1.68,3.255,-13.37,8.876171619599253,3.0573580244010117,17.237447731168988,10.396016049338586
0.0519,0.9623,0.1557,-0.1722,0.153,0.0734,-2.415,3.395,-13.965,9.189925786107326,3.0492311375107,16.38679206481338,10.408121358877976
0.0478,0.9603,0.1487,-0.1722,0.153,0.0734,-2.38,3.2113,-14.6562,8.803272496028606,2.856292793085734,16.67320879385721,10.420157654987353
0.0414,0.9621,0.1602,-0.1705,0.1557,0.0742,-2.7913,2.9313,-15.68,9.451824476747932,2.5076640918998643,16.255528397984715,10.429321576748066
0.0357,0.9664,0.1504,-0.1705,0.1543,0.0775,-2.8525,2.0038,-15.3825,8.84761375928625,2.1813024960048635,17.82116979134772,10.441414499261557
0.0324,0.9674,0.1504,-0.1705,0.1543,0.0775,-3.7362,1.12,-15.2687,8.8369610450412,1.9725285385085556,17.771698615383368,10.453502466964688
0.0397,0.969,0.1686,-0.1723,0.1531,0.0739,-4.3313,-0.2713,-15.155,9.867416638982252,2.1652154294974006,15.708929625102394,10.465594681648126
0.0545,0.9673,0.1599,-0.1723,0.1531,0.0739,-4.725,-0.9887,-15.4875,9.387766531524685,2.5466294367255276,16.39080207172091,10.477737860095267
0.059,0.9604,0.1615,-0.1699,0.1516,0.0768,-5.32,-1.7237,-16.3275,9.545059966497265,2.655655865903183,17.57054270483095,10.489909351744465
0.0569,0.9519,0.1604,-0.1699,0.1516,0.0768,-5.5125,-1.9775,-17.0625,9.564723697172397,2.8563542063717353,17.52474904765629,10.502045097976067
0.0493,0.9443,0.1663,-0.1718,0.1526,0.0756,-5.8538,-1.9337,-17.7712,9.986717510420174,2.878645449086023,16.3877926138255,10.511286881042436
0.0418,0.9402,0.1689,-0.171,0.1546,0.0753,-5.2588,-2.3888,-18.83,10.1835872322202,2.712887116911008,15.956977273739435,10.523356091249203
0.0395,0.9399,0.1706,-0.171,0.1546,0.0753,-4.2438,-3.29,-19.1887,10.287389125093622,2.4956010843360095,15.822110568865448,10.535442997207257
0.0472,0.9421,0.1754,-0.1686,0.1538,0.0758,-3.605,-4.3925,-19.46,10.545844179689599,2.734551719099187,16.135344368930284,10.547630415032613
0.0504,0.9436,0.1744,-0.1686,0.1538,0.0758,-3.5963,-5.1275,-20.0725,10.4716787989536,2.9466366940281885,16.260838333802646,10.559783149185447
0.0582,0.941,0.1756,-0.1687,0.1545,0.0763,-3.325,-6.0113,-20.055,10.570110848693425,3.381037586422043,16.42199547719239,10.571835017555955
0.0581,0.9442,0.1671,-0.1686,0.1547,0.0776,-3.0188,-6.0462,-19.6875,10.037501361596146,3.4515959669855745,17.35246579903361,10.58397465685284
0.0633,0.9504,0.1698,-0.1686,0.1547,0.0776,-2.45,-6.1075,-19.1537,10.129423529862809,3.696945277757822,17.35411206857691,10.593246168781368
0.0657,0.9542,0.161,-0.1676,0.155,0.077,-2.3625,-5.4688,-18.9875,9.578713996467474,3.8457205123254528,17.817753278205295,10.605341922615064
0.0703,0.9575,0.1655,-0.1676,0.155,0.077,-2.2838,-5.005,-18.3225,9.805819893790165,4.07181099032029,17.68201225800924,10.617527924780317
0.0737,0.9543,0.1621,-0.1676,0.1582,0.0744,-2.0825,-3.6663,-17.9813,9.640859335319558,4.262310608008207,16.889517416346948,10.629553603438922
0.065,0.9524,0.1611,-0.1671,0.1554,0.0779,-1.7937,-3.0188,-17.6925,9.600906220481116,4.019583660431847,18.114186187755756,10.641724741173094
0.0634,0.9509,0.1657,-0.1671,0.1554,0.0779,-1.5662,-2.1875,-17.675,9.884091240335472,3.9216780774199824,17.81173643796645,10.653864026554952
0.0608,0.954,0.1681,-0.1665,0.1545,0.0771,-1.435,-2.2138,-18.0425,9.992944687124426,3.794727210461632,17.49848427368564,10.66599269448604
0.0635,0.957,0.1615,-0.1665,0.1545,0.0771,-1.1112,-1.26,-18.34,9.579931505727023,3.7820163767848243,17.9449579268161,10.678017311399568
0.0628,0.9581,0.1626,-0.1662,0.1573,0.073,-0.7962,-0.6475,-18.2525,9.631801181780059,3.740999754194939,16.40560297599893,10.687294839883535
0.0637,0.9574,0.1636,-0.1654,0.1557,0.0766,-0.6737,0.0525,-18.1212,9.69683244667992,3.748021095346099,17.72676089521455,10.699457129742063
0.063,0.9568,0.1599,-0.1654,0.1557,0.0766,-1.05,0.6038,-17.6225,9.4881465203497,3.7258830630083337,17.918717692907755,10.711474314440052
0.0572,0.9561,0.1591,-0.165,0.1557,0.0757,-1.0237,1.8375,-16.6688,9.447856506283193,3.4561104508671345,17.58934793838925,10.723517334934916
0.0506,0.9539,0.1586,-0.165,0.1557,0.0757,-1.1025,2.275,-16.0475,9.439940156544658,3.0901028278180314,17.473347250893976,10.73561415051369
0.0478,0.9525,0.1634,-0.1661,0.1556,0.0738,0.0613,3.7362,-15.4175,9.733445908127708,2.872476014004405,16.405324753352488,10.744822665567643
0.0396,0.9503,0.1564,-0.1661,0.1556,0.0738,0.1663,3.99,-15.1462,9.347002455354371,2.4332755937021346,16.63427301564923,10.756848698141274
0.0356,0.9542,0.1579,-0.1678,0.1555,0.0745,0.455,4.0163,-15.0937,9.395961612319589,2.1572438280084416,16.58045032118328,10.768835446147051
0.034,0.9548,0.1532,-0.1685,0.1554,0.0758,0.595,3.8763,-14.8925,9.116323010868003,2.0358847091041277,17.166036692070264,10.780820070662674
0.0364,0.9581,0.152,-0.1685,0.1554,0.0758,0.42,3.4563,-15.2775,9.014972594148718,2.1301878002656336,17.30011429643393,10.792877247758568
0.0443,0.9592,0.1527,-0.1667,0.1559,0.0762,0.6563,2.9663,-15.0762,9.045225102944675,2.5248234378559595,17.70298343002608,10.802066297486107
0.0478,0.9593,0.1473,-0.1667,0.1559,0.0762,0.7788,2.5725,-14.525,8.730423437422425,2.7624793417043607,18.066970173525966,10.814015176584133
0.0497,0.959,0.1498,-0.1651,0.1558,0.0761,-0.035,2.485,-14.7875,8.87770057076657,2.8979559150304652,18.106573955604237,10.826114469568086
0.0487,0.959,0.1494,-0.166,0.1553,0.0759,0.4288,2.9663,-15.6712,8.854840264543009,2.8770913131542843,17.970450453928457,10.838121744645354
0.0443,0.9615,0.1478,-0.166,0.1553,0.0759,0.4638,2.8612,-15.925,8.739316356037817,2.656870878007332,17.994111805593008,10.850148838964063
0.0462,0.9597,0.1521,-0.1662,0.156,0.073,-0.1312,2.205,-16.17,9.004999458647857,2.7085496640493307,16.778207861352342,10.859351337462579
0.047,0.9612,0.1432,-0.1662,0.156,0.073,-0.3325,1.8112,-15.8725,8.475091703195874,2.7551573861280763,17.297727110552664,10.871467972282792
0.0519,0.9642,0.1486,-0.1662,0.1561,0.078,-0.385,1.8463,-15.4,8.76055410360165,2.979812581055722,18.739753060637607,10.88345295071344
0.0558,0.9634,0.1455,-0.1662,0.1561,0.078,-0.9538,1.9687,-15.0412,8.588814866467267,3.2124011473460983,18.983062556621107,10.895552951527444
0.0574,0.9617,0.1455,-0.163,0.1558,0.078,-1.4525,2.0825,-15.5925,8.603253659677112,3.3420484577008898,19.38378623895148,10.907642688805703
0.055,0.9609,0.1488,-0.1643,0.1577,0.0721,-1.5662,2.6163,-15.8112,8.802058236821853,3.2575180876182346,16.949962920603323,10.919694203261185
0.0535,0.9623,0.149,-0.1643,0.1577,0.0721,-1.96,2.5288,-15.3125,8.801634472914623,3.1667762031955133,16.920002376060648,10.928880067753493
0.0479,0.9627,0.1499,-0.1658,0.1563,0.0714,-1.75,2.4938,-16.1788,8.850202250005038,2.883878731953964,16.45203157040853,10.940945030979952
0.0468,0.9649,0.1467,-0.1658,0.1563,0.0714,-1.295,2.9225,-16.3362,8.645413451975168,2.7704504279248603,16.628147612385277,10.953153329791824
0.0456,0.9639,0.1418,-0.1651,0.1558,0.0719,-1.9687,2.73,-15.8375,8.369561675421885,2.6967767252497468,17.129719843866468,10.965134061242164
0.0464,0.9656,0.1501,-0.1652,0.1564,0.0711,-2.0388,3.4475,-15.6625,8.834471539636919,2.714918333532311,16.39252164482026,10.977235123801245
0.0494,0.963,0.1456,-0.1652,0.1564,0.0711,-2.625,3.22,-15.0062,8.598327281482556,2.8711565005192248,16.67731165271039,10.986363654059389
0.0439,0.9617,0.1523,-0.165,0.1554,0.0707,-3.5875,3.7188,-15.0762,8.997820525068017,2.6274311635537244,16.129046058144493,10.998453745252673
0.0383,0.96,0.1472,-0.165,0.1554,0.0707,-3.2813,3.5963,-15.0587,8.71823658342792,2.3179640449040706,16.303889859893598,11.010676908495624
0.0353,0.9583,0.1521,-0.1657,0.1562,0.077,-2.7562,3.0713,-14.9975,9.017840212483444,2.1249532743780044,17.909268353104668,11.022608091842365
0.0345,0.9584,0.1537,-0.1657,0.1562,0.077,-2.835,2.4237,-15.4,9.110768329479393,2.053444926339175,17.808403263934014,11.034657482807694
0.0383,0.9578,0.1512,-0.1653,0.1586,0.0716,-2.6338,2.4063,-15.5312,8.971172059064761,2.2201823450136335,16.17815939744291,11.046732001739846
0.0376,0.9551,0.1502,-0.167,0.1571,0.0694,-2.59,2.24,-15.8025,8.937291341947944,2.2256601299932424,15.388412540448,11.055932730663233
0.0386,0.9532,0.1562,-0.167,0.1571,0.0694,-2.2662,1.7413,-14.7262,9.305270435145523,2.2739480304777335,15.049773348124532,11.068009727000566
0.0368,0.949,0.1496,-0.1665,0.1562,0.0706,-2.7562,1.8725,-14.2625,8.959327773834938,2.211624934612452,15.841196515228244,11.080123530500574
0.0331,0.9495,0.153,-0.1665,0.1562,0.0706,-2.4763,1.26,-14.3937,9.153269858282233,2.0336165568976776,15.59370674851494,11.092134698643125
0.0282,0.9553,0.1498,-0.1645,0.156,0.0694,-1.0675,1.4875,-14.525,8.912609687009265,1.7595327986422875,15.542541304814126,11.10425699610375
0.0278,0.9596,0.1449,-0.1661,0.1558,0.0723,-1.2687,0.5775,-14.5513,8.587716623111943,1.6783115886470787,16.644383248994313,11.116291168722972
0.0289,0.9578,0.1432,-0.1661,0.1558,0.0723,-1.61,-0.4112,-14.1837,8.503500567546975,1.6950685584189078,16.743030631956273,11.125556310181038
0.0521,0.9632,0.1502,-0.1651,0.1562,0.071,-1.61,-1.2337,-14.805,8.862242463718106,2.0529173710660373,16.45394071652902,11.137619503832369
0.0533,0.9622,0.1478,-0.1651,0.1562,0.071,-2.1175,-1.2337,-14.6387,8.73309692629033,2.336483523298619,16.602874578804318,11.149773299730281
0.0512,0.9643,0.1489,-0.167,0.1557,0.0694,-2.73,-0.875,-14.9275,8.777735773455422,2.614519593026692,15.825379432880553,11.161919309497629
0.0496,0.9642,0.1496,-0.167,0.1572,0.0706,-2.2575,-0.5775,-15.12,8.81926363125007,2.7631435068228716,16.085907291756087,11.174071335820413
0.0478,0.9604,0.1453,-0.1661,0.1572,0.0706,-1.9775,-1.12,-15.26,8.603699180427798,2.780442985659694,16.35458915197464,11.186136299046872
0.0436,0.9532,0.1476,-0.1666,0.1552,0.0703,-1.9775,-0.945,-15.47,8.80161290337461,2.705083298472195,16.041813300617164,11.19829540367017
0.0464,0.9572,0.1454,-0.1666,0.1552,0.0703,-1.5925,-1.0937,-16.7562,8.63773436864703,2.7179124603464033,16.243012395516846,11.207505688299252
0.0502,0.9614,0.1472,-0.1651,0.1542,0.0758,-0.945,-1.015,-16.8525,8.704771383858676,2.804271668974301,18.250505496252785,11.21967470254327
0.0492,0.9694,0.1382,-0.1651,0.1542,0.0758,-0.9538,-0.7263,-16.2575,8.11518590271448,2.837687796212704,18.77834893649945,11.231796646088867
0.0528,0.9719,0.1419,-0.1646,0.1562,0.0673,-1.9687,-0.4288,-16.2663,8.30611479870679,2.9662688326923243,15.806421999311302,11.244039982488285
0.0536,0.9704,0.1417,-0.1664,0.1558,0.0699,-2.4237,0.5513,-15.96,8.307739382496228,3.0767807607097497,16.530985990625318,11.255966564939692
0.0468,0.9614,0.1428,-0.1664,0.1558,0.0699,-2.0125,0.5862,-15.68,8.448176207477326,2.857500900985281,16.286973147459417,11.26807364405421
0.0482,0.9547,0.1487,-0.1653,0.1562,0.0701,-2.835,1.0675,-15.8725,8.851888319255412,2.856312980040071,16.082666785277606,11.280129759405026
0.0407,0.952,0.1442,-0.1653,0.1562,0.0701,-3.2813,1.0325,-15.6975,8.613816043525864,2.5407932087563396,16.186237977967554,11.289365172000933
0.0385,0.9528,0.1465,-0.17,0.1562,0.0731,-2.4763,1.3912,-15.2862,8.740838165873503,2.3508017091852236,16.549137511344515,11.301413147306159
0.0442,0.9545,0.1557,-0.1638,0.1554,0.0706,-2.8525,1.47,-15.3737,9.263152191596465,2.5512439117239403,15.96555163401386,11.313487312323286
0.0471,0.9543,0.1539,-0.1638,0.1554,0.0706,-1.8025,1.7937,-15.2512,9.161496751190654,2.7352078943547338,16.11633604066259,11.325571033046108
0.042,0.9524,0.1535,-0.1651,0.1561,0.0701,-1.68,1.68,-14.4812,9.155742924857298,2.549677112670925,15.708847017718222,11.337645198063235
0.0411,0.9515,0.1532,-0.1651,0.1561,0.0701,-2.0213,1.5662,-13.2388,9.146657958886106,2.4678665337963754,15.702879706657676,11.34676700393589
0.0335,0.9509,0.1515,-0.1655,0.1564,0.0674,-1.2425,1.4612,-13.3175,9.052698287785155,2.1099149580974927,14.722986387670465,11.35887974569082
0.0343,0.9542,0.1524,-0.1666,0.1564,0.0751,-1.015,0.9187,-13.5975,9.074291573750694,2.0548852540585485,17.126906085491203,11.370968067308976
0.0379,0.9594,0.1465,-0.1666,0.1564,0.0751,-0.91,0.2275,-13.7112,8.683061436284676,2.1719164171080956,17.55956508340202,11.38304824888154
0.0407,0.9583,0.1457,-0.1666,0.156,0.0689,-0.385,0.0,-14.3238,8.645151481788416,2.31458425833887,15.641769165628247,11.395110026872768
0.0479,0.9646,0.143,-0.1666,0.156,0.0689,-0.6388,-0.595,-15.3912,8.43315278562583,2.562665148339985,15.95874826968344,11.407217813817338
0.056,0.9694,0.1446,-0.1669,0.1562,0.069,-0.7525,-0.63,-15.1988,8.483798575388192,2.9090206373975316,16.038327876288662,11.41647021433448
0.0541,0.9705,0.1404,-0.1669,0.1562,0.069,-1.7587,-0.2362,-15.015,8.232436815261224,3.0520841653124817,16.24736019679644,11.428777963268576
0.0558,0.9633,0.1407,-0.1663,0.1555,0.0714,-2.0825,-0.6125,-14.8837,8.309669917257171,3.1649386084247944,17.09612921663883,11.440720825811164
0.055,0.9541,0.1441,-0.1686,0.1582,0.0693,-2.03,-0.6475,-15.4787,8.587833640588833,3.212160999286284,15.784637908414599,11.452801361298755
0.0498,0.9512,0.1437,-0.1686,0.1582,0.0693,-1.6187,0.2187,-15.3562,8.590835789862767,3.0519995214451194,15.695600087852085,11.464861369714855
0.0498,0.957,0.1438,-0.1678,0.1558,0.0688,-1.1112,-0.0613,-15.925,8.545528817320596,2.987832050889003,15.75153830624163,11.477062944141238
0.0483,0.9653,0.1391,-0.1678,0.1558,0.0688,-1.5662,-0.2625,-16.2313,8.200848702826026,2.9008205162494534,16.0478417275292,11.489253193286798
0.0452,0.9682,0.1419,-0.1656,0.1562,0.0703,-1.33,0.14,-16.1175,8.337564694880799,2.7385258533065464,16.552089644626445,11.498339607656881
0.0469,0.9676,0.1415,-0.165,0.1564,0.0677,-1.4787,-0.14,-16.1087,8.31990197185715,2.742842071482665,15.783772874148374,11.510502605345462
0.0439,0.9669,0.1364,-0.165,0.1564,0.0677,-1.7413,0.0788,-16.9487,8.030499190399466,2.637377328783602,16.013394618336495,11.522539255369864
0.0521,0.9651,0.143,-0.1656,0.1559,0.07,-2.1088,-0.4288,-17.0012,8.427157490388396,2.86264086165409,16.502514666137532,11.534694820842905
0.0504,0.9647,0.1351,-0.1656,0.1559,0.07,-2.7913,0.0613,-15.925,7.973320701064579,2.924392352585445,16.910416064525062,11.546769339775059
0.0498,0.9637,0.1378,-0.1656,0.1568,0.0642,-3.045,-0.0438,-16.2225,8.137136912801097,2.9268511264602233,14.760480926804217,11.558871110164192
0.0467,0.9606,0.1406,-0.1645,0.1574,0.0661,-2.8438,0.35,-16.9837,8.326547073463667,2.812788029522656,15.24193922817458,11.570901035803105
0.0415,0.9547,0.1445,-0.1645,0.1574,0.0661,-2.4763,0.4112,-17.2287,8.605981486730778,2.578267837622488,14.887251389079452,11.58015485198035
0.0367,0.9531,0.144,-0.1638,0.1571,0.0677,-1.9775,0.5775,-17.2112,8.591645811011842,2.3060483460315173,15.440077085978185,11.59291525823233
0.0401,0.9547,0.1435,-0.1638,0.1571,0.0677,-1.3475,0.3588,-16.87,8.548200000888418,2.3539097893140584,15.538576295974355,11.604247971270594
0.0431,0.9556,0.1393,-0.1657,0.1569,0.0677,-1.5225,0.1488,-16.4325,8.294424428349537,2.4818528106173274,15.665617464186665,11.616354696470088
0.0426,0.9559,0.1401,-0.1657,0.1569,0.0677,-1.4875,0.4025,-16.7388,8.337981191885184,2.5104312744474546,15.614277746995255,11.628450450303783
0.0485,0.9562,0.1412,-0.1622,0.1562,0.0747,-1.1638,1.2337,-15.8725,8.399867655029823,2.7778277647763963,18.381175668472288,11.637746382369086
0.052,0.9546,0.1446,-0.163,0.1569,0.0679,-0.4725,1.1812,-15.4,8.612925088201349,3.0019871161867426,15.833904900364246,11.649728175564503
0.0539,0.9609,0.1468,-0.163,0.1569,0.0679,-0.0438,1.68,-15.5312,8.685910103558946,3.133551810685066,15.787233351126726,11.661746775922595
0.0544,0.9545,0.1455,-0.1671,0.1577,0.0676,-0.3237,2.275,-15.2862,8.667259907431173,3.206016737465631,15.292993208414284,11.673835805370802
0.0464,0.9521,0.1377,-0.1671,0.1577,0.0676,-0.5862,3.08,-15.0675,8.230700468818688,2.83980981273681,15.586276000347391,11.6859701359423
0.0398,0.9515,0.1407,-0.1631,0.1562,0.0671,-0.1138,3.8238,-14.7875,8.41097553050669,2.442815204275808,15.575042656175127,11.698031206103478
0.0351,0.9532,0.1393,-0.1664,0.158,0.0659,1.3825,4.3225,-14.6037,8.314576242862959,2.1382429165284886,14.807245351660256,11.707101694297403
0.0319,0.9565,0.1346,-0.1664,0.158,0.0659,1.19,4.655,-14.3587,8.010980020617929,1.9255833387571566,15.047200100450096,11.719130912106266
0.0323,0.9648,0.1338,-0.1638,0.1554,0.0651,1.3562,3.5788,-13.3875,7.8958269213644945,1.9035557724654266,15.24152597374351,11.73118808920216
0.0365,0.9665,0.1323,-0.1638,0.1554,0.0651,0.9625,3.2113,-13.2562,7.794806654607073,2.1015481999486574,15.404332437347003,11.743249159363335
0.0329,0.9739,0.1301,-0.1632,0.1566,0.067,1.2163,3.3688,-13.7287,7.609411700025595,1.9486316660418552,16.160133057479086,11.755211487232339
0.034,0.9758,0.1307,-0.1632,0.1566,0.067,0.9713,2.5988,-13.9038,7.628817215423688,1.9722684443297722,16.15879321395097,11.764315597353708
0.0323,0.9752,0.1233,-0.1644,0.1562,0.0666,0.8487,1.5312,-14.035,7.207152954229008,1.9039457203832992,16.300305161307495,11.776418075572892
0.0273,0.974,0.1221,-0.1662,0.1559,0.0635,-0.5513,0.4987,-14.2975,7.145458268401761,1.6937263305162402,15.103377886478823,11.788481623139248
0.0279,0.9723,0.1257,-0.1662,0.1559,0.0635,-0.735,-0.21,-14.2362,7.365792164802657,1.656832453308346,14.9050086604025,11.80061312239054
0.0383,0.9679,0.1215,-0.1646,0.1562,0.0622,-1.0587,-0.5862,-14.6562,7.155468471283581,1.9530721164814855,14.966408615975205,11.812706044904031
0.0467,0.9677,0.1216,-0.1646,0.1562,0.0622,-1.9337,-1.6625,-15.0412,7.162159277704919,2.0068386765192616,15.092529564846755,11.821955968015992
0.0513,0.9666,0.1269,-0.168,0.1558,0.0671,-2.3275,-2.2225,-15.7237,7.478417424343177,2.396617645828619,16.199111780201836,11.834093129907696
0.0544,0.9667,0.1165,-0.164,0.1566,0.0594,-2.3712,-2.31,-16.2838,6.873434704558623,2.732174137387826,14.582544795569968,11.8462302917994
0.06,0.9639,0.1205,-0.164,0.1566,0.0594,-2.0913,-1.4962,-16.4325,7.125048632891414,2.800505365601649,14.422389882955033,11.858540872053702
0.062,0.9572,0.126,-0.1648,0.1546,0.0638,-2.6425,-0.98,-17.15,7.497916515604135,3.1313685671580656,15.6167971821755,11.870435248237769
0.0619,0.957,0.124,-0.1648,0.1546,0.0638,-1.7413,-0.3325,-17.185,7.383090794904503,3.4314487044901236,15.72866755035523,11.882570640554345
0.0613,0.9545,0.1241,-0.1618,0.157,0.0649,-1.4525,-0.2275,-18.3137,7.4077292123331056,3.5540175219588,16.281226851281744,11.894724436452258
0.0532,0.9605,0.1209,-0.1623,0.1557,0.0638,-1.6887,0.7263,-18.2962,7.174847562704461,3.2686962562016526,15.98049579286224,11.906740913320194
0.0486,0.9682,0.1223,-0.1623,0.1557,0.0638,-1.6275,0.7875,-18.515,7.199227281605635,2.974698293086086,15.869552264747147,11.915954737099533
0.0454,0.9681,0.1236,-0.1644,0.1572,0.0637,-1.9775,1.4175,-17.9725,7.275536361476601,2.741082664470152,15.448993075725486,11.928017930750864
0.0315,0.9629,0.124,-0.1644,0.1572,0.0637,-1.925,1.2163,-18.165,7.3378567534768155,2.090308106206532,15.167501978450069,11.940112976754508
0.0337,0.9595,0.1302,-0.1628,0.1564,0.0589,-2.135,1.2775,-17.8675,7.726509648965264,2.0183792496677113,13.374914661456453,11.952220055869025
0.0291,0.9601,0.1299,-0.1628,0.1564,0.0589,-2.0563,1.0325,-17.4562,7.705297458732746,1.8026740635809717,13.330149543166488,11.964235824906911
0.0291,0.959,0.124,-0.163,0.1575,0.059,-1.9425,1.0237,-17.6138,7.3684802159720855,1.7455693463343205,13.631244363604214,11.973443278215788
0.0319,0.965,0.1282,-0.1622,0.157,0.0625,-2.1613,0.735,-17.255,7.566866344675827,1.8373649552563498,14.753384532261512,11.98557902444739
0.0354,0.9724,0.1246,-0.1622,0.157,0.0625,-2.5113,0.5425,-16.7825,7.302630128754442,1.9943744533864436,15.06424329911061,11.997763257037512
0.0316,0.9729,0.1296,-0.1618,0.1582,0.0629,-2.2925,0.9625,-16.9837,7.5869091567861915,1.8863715039110678,14.846892606432483,12.009678868123121
0.0281,0.9681,0.1331,-0.1618,0.1582,0.0629,-2.7738,0.595,-16.555,7.827607593827883,1.7222483543585205,14.557631008705938,12.021742415689479
0.0234,0.9654,0.1292,-0.1621,0.1571,0.0682,-2.9488,0.0088,-16.3625,7.6232010481956305,1.509414854410588,16.474783462691924,12.033812687641323
0.0231,0.963,0.1307,-0.1616,0.159,0.0606,-2.6338,-0.1312,-16.625,7.728760467930178,1.4217588354527773,13.78510911920391,12.043083137824775
0.0257,0.9615,0.1302,-0.1616,0.159,0.0606,-2.8788,-0.8138,-16.905,7.711756908382428,1.4634704699233845,13.839387364780869,12.055363635301891
0.0346,0.9692,0.1278,-0.163,0.1584,0.0625,-2.52,-1.5137,-17.0275,7.5123159475327155,1.5030812510761553,14.71771723061306,12.067347198072438
0.04,0.9701,0.1265,-0.163,0.1584,0.0625,-2.6075,-0.945,-16.1788,7.429618176950099,1.8315401053118017,14.884117914356802,12.079415700449154
0.0442,0.9719,0.1236,-0.1612,0.1583,0.0637,-3.1937,-0.735,-15.68,7.248110245809718,2.177804063854935,15.715438620821862,12.091678856090011
0.0447,0.9703,0.1328,-0.1602,0.1579,0.06,-3.15,-0.63,-15.995,7.791843742613611,2.3910393358100555,14.002759131843197,12.103687900742408
0.0509,0.9639,0.1296,-0.1602,0.1579,0.06,-3.0363,0.7962,-15.5662,7.6580824320054734,2.8172115859236904,14.241760412143067,12.115770559720152
0.0431,0.9612,0.1307,-0.1622,0.1571,0.0636,-3.6138,1.015,-14.9187,7.743115402473272,2.619823712356425,15.13331372460541,12.124967041663231
0.0369,0.9554,0.1305,-0.1622,0.1571,0.0636,-3.0013,1.2687,-14.805,7.777914264702367,2.3025086218265485,15.002548046513214,12.136996967302146
0.0306,0.9552,0.1256,-0.161,0.1567,0.0626,-2.3187,1.6275,-14.6912,7.491688348127339,1.9338181225744244,14.969083501086573,12.14908210368507
0.0301,0.959,0.1351,-0.161,0.1567,0.0626,-2.1788,1.7413,-14.1312,8.017364455627384,1.81565581893522,14.44103516533805,12.161178919263843
0.0319,0.9597,0.1334,-0.1609,0.1584,0.0693,-2.2225,1.5487,-13.2037,7.913795845176865,1.8687491927684325,16.775819524387593,12.173225832823992
0.0322,0.9651,0.1287,-0.1606,0.1574,0.0638,-2.345,1.5575,-12.9237,7.596691920402122,1.888044126502748,15.304508367242043,12.18525540454788
0.039,0.9705,0.1283,-0.1606,0.1574,0.0638,-2.1175,1.715,-11.9087,7.531009703581814,2.190006819219222,15.476668421789018,12.194515945110611
0.0412,0.9696,0.1267,-0.1611,0.1574,0.0635,-2.7738,1.9337,-11.795,7.44503606340542,2.363423480206045,15.448530861445825,12.20657276829148
0.0391,0.9639,0.126,-0.1611,0.1574,0.0635,-3.2462,2.1263,-11.655,7.447410230486602,2.3160654366510456,15.414889393109709,12.218692234431897
0.0348,0.9584,0.1294,-0.1609,0.157,0.0593,-3.5963,2.2925,-11.9525,7.6887137056249095,2.11312332450937,13.699535393904476,12.23071154262004
0.0361,0.9578,0.1237,-0.1637,0.157,0.0647,-3.0888,1.5837,-12.0575,7.359938842533117,2.1341101984412774,15.630422288480496,12.242812959094147
0.0398,0.9625,0.1253,-0.1637,0.157,0.0647,-2.9663,0.8925,-13.02,7.4169972088825045,2.286624762794902,15.633903713391772,12.251989621795786
0.0526,0.9696,0.1245,-0.1619,0.157,0.0643,-2.8175,0.7875,-13.3787,7.317217248664201,2.845028394621834,15.982284883597764,12.26421349286879
0.0556,0.9683,0.1235,-0.1619,0.157,0.0643,-2.59,0.7,-14.2887,7.268574706037967,3.1338259071266474,16.084410690210525,12.276097251602085
0.0566,0.9631,0.1269,-0.1649,0.1572,0.0636,-3.0013,0.56,-14.5513,7.505507916448083,3.270825054792419,15.333684189123122,12.288211055102092
0.0528,0.9568,0.1281,-0.1649,0.1572,0.0636,-3.6925,1.4,-14.3937,7.62529406711189,3.165844394026777,15.158590111456421,12.300307162850814
0.0539,0.9555,0.1265,-0.165,0.1573,0.0592,-3.57,1.4875,-15.4175,7.541844627065316,3.192208935387479,13.739590995780674,12.312398315789176
0.0495,0.954,0.1292,-0.1635,0.1565,0.0634,-2.6688,0.9625,-15.575,7.712155521901327,3.013457468404944,15.110319840875427,12.321573916745738
0.0447,0.9626,0.1261,-0.1635,0.1565,0.0634,-2.5288,0.9275,-16.345,7.463904169326666,2.7434925253742386,15.269136402543268,12.333634279076863
0.0447,0.9673,0.1271,-0.1633,0.1554,0.0626,-2.6775,0.9975,-16.6425,7.4855312680097965,2.6568110823452615,15.034757926566144,12.345680130891934
0.045,0.9692,0.1224,-0.1633,0.1554,0.0626,-3.045,0.9887,-15.7675,7.19856329970266,2.6428376777096765,15.31658121592337,12.35777588472563
0.0426,0.9645,0.1279,-0.1625,0.157,0.063,-3.1937,1.2337,-16.6163,7.5527950517116995,2.5425874061107443,15.081347530688538,12.369909507467076
0.0448,0.9678,0.1296,-0.1644,0.1557,0.0595,-3.045,1.155,-16.6688,7.627008163226291,2.604415904391,13.730597212527979,12.38185201609464
0.0468,0.9662,0.1276,-0.1644,0.1557,0.0595,-3.3425,1.1987,-16.975,7.523449447602095,2.7110110630018958,13.861659696165042,12.391073272089518
0.04,0.9576,0.1296,-0.1625,0.157,0.0642,-2.625,1.6712,-17.3512,7.706974897755277,2.4502944817560524,15.300633509042227,12.403149206681775
0.0415,0.9542,0.1331,-0.1625,0.157,0.0642,-3.4738,1.855,-17.01,7.940218526674031,2.462841931534681,15.099440934074954,12.414999697402653
0.039,0.9529,0.132,-0.1614,0.1582,0.0677,-2.87,1.715,-17.1063,7.886827799968613,2.354362391584358,16.35402045341105,12.427160925516105
0.0343,0.9501,0.1339,-0.1614,0.1582,0.0652,-2.4063,1.82,-16.8175,8.021631812820296,2.1169774392812757,15.293400319349788,12.439281453401602
0.0315,0.9492,0.1311,-0.1627,0.1565,0.0652,-2.415,1.2425,-16.3275,7.8641682989898705,1.943951326285963,15.35518215051199,12.448081196600858
0.0243,0.9528,0.1261,-0.1614,0.158,0.0621,-1.68,0.9363,-16.8787,7.539997429823085,1.5888996576994643,14.562937921813422,12.460248441269748
0.0223,0.9652,0.1225,-0.1614,0.158,0.0621,-1.6712,0.4462,-17.2637,7.233969630003646,1.4038900369080036,14.82575908410421,12.472418517258843
0.0217,0.9695,0.1172,-0.1622,0.1578,0.0634,-1.05,-0.49,-16.8962,6.893813835348643,1.3353253163501353,15.514565997164144,12.48456948183655
0.0227,0.9745,0.12,-0.1622,0.1578,0.0634,-2.0563,-1.1638,-17.64,7.019716002228565,1.332066131123739,15.406769406684413,12.496818480876378
0.032,0.9741,0.1194,-0.1605,0.1584,0.0638,-2.1438,-1.7413,-18.1212,6.988240745925073,1.4027229261608218,15.862340620697289,12.508980062904858
0.035,0.9734,0.1172,-0.1617,0.1586,0.063,-2.03,-2.2925,-18.1125,6.865858564970777,1.667698199343333,15.63908432036912,12.521169250305341
0.037,0.9689,0.1237,-0.1617,0.1586,0.063,-3.0275,-2.5725,-17.8587,7.274485315115933,1.9163925426793804,15.270927230956195,12.529996598876604
0.0453,0.9658,0.1229,-0.1618,0.1587,0.0638,-3.71,-1.9862,-17.4913,7.252089554146731,2.1288064431466105,15.69540129128706,12.54217729231647
0.0404,0.9594,0.1248,-0.1618,0.1587,0.0638,-3.6837,-1.715,-17.3075,7.411049103106494,2.1581017103388027,15.458755243467133,12.554368957122133
0.0438,0.9536,0.1274,-0.1597,0.1595,0.0641,-3.7362,-1.47,-16.8175,7.60904535653369,2.2059140781976216,15.595192385933446,12.566559914097745
0.0431,0.9521,0.1216,-0.1602,0.1583,0.0644,-3.01,-0.84,-16.4937,7.279199642942301,2.3623216949930606,16.020760122248305,12.57909876954363
0.038,0.9583,0.1246,-0.1602,0.1583,0.0644,-2.4588,-0.4025,-16.1087,7.4077890764860435,2.302371023065038,15.797542177037865,12.591198770357636
0.0398,0.9654,0.1238,-0.1603,0.1579,0.0646,-1.9512,0.3325,-15.6887,7.307833822260743,2.328180531246774,15.998274380267505,12.603228342081524
0.0412,0.9697,0.1221,-0.1603,0.1579,0.0646,-1.8375,0.4288,-15.1025,7.177006020268388,2.385462310638958,16.14927245116815,12.61251825759139
0.0435,0.9683,0.1268,-0.1603,0.1585,0.0694,-2.4237,0.5513,-14.7437,7.459710431946276,2.4979403524453745,17.523514342362418,12.624619674065496
0.0451,0.9663,0.1233,-0.1594,0.1594,0.0658,-2.3888,0.875,-14.595,7.2721749477396225,2.606646011013725,16.573319666762803,12.636745864591404
0.0436,0.9693,0.1305,-0.1594,0.1594,0.0658,-2.5288,1.365,-14.315,7.666711256567305,2.5661794757744345,16.14336611820166,12.648631038984803
0.0436,0.954,0.1238,-0.1603,0.1577,0.0643,-2.5638,1.8812,-14.14,7.394675524827432,2.5885529680912094,15.892781840421938,12.660726792818497
0.0418,0.9661,0.1274,-0.1603,0.1577,0.0643,-2.5988,2.9838,-14.4637,7.511945831946593,2.4799636535866396,15.734227157677326,12.67276592024808
0.0399,0.9646,0.1286,-0.161,0.1579,0.0574,-2.2313,3.5963,-14.7262,7.593638087543243,2.369249217643698,13.158131166325605,12.68225933689773
0.0343,0.9648,0.1231,-0.161,0.1579,0.0574,-2.5375,3.4038,-14.6212,7.272045678595811,2.0780487768560914,13.39917065475445,12.694154774826874
0.0331,0.9673,0.1267,-0.1589,0.1582,0.0623,-2.94,3.4388,-14.7087,7.461770731241575,1.965612803394207,15.059049081127991,12.706169128204657
0.0325,0.9656,0.1266,-0.1606,0.1592,0.0612,-2.3625,2.9663,-14.6475,7.469434015424847,1.9211401503000383,14.467253642080793,12.718610303103446
0.0317,0.9667,0.1279,-0.1606,0.1592,0.0612,-2.94,2.625,-15.085,7.536602529130116,1.8733049851600068,14.386356369164746,12.730281004991264
0.0353,0.9648,0.1297,-0.1579,0.1583,0.063,-2.4325,2.4588,-15.2512,7.656151659911548,2.0364346622872,15.235450264693593,12.739602065023393
0.0353,0.9631,0.1266,-0.1579,0.1583,0.063,-3.0888,3.0188,-14.9975,7.489090245713639,2.073221601272294,15.406698355565164,12.751609694015686
0.0309,0.9624,0.1316,-0.1606,0.1589,0.0535,-3.4213,3.08,-15.3562,7.785591439912276,1.8663399895793877,11.462291016718304,12.763661208471168
0.0309,0.9638,0.1314,-0.1609,0.1579,0.0683,-3.4125,2.8963,-14.6737,7.763635553195194,1.8280283520522342,16.586443565862663,12.77570706028624
0.026,0.9645,0.1256,-0.1609,0.1579,0.0683,-2.7213,3.1063,-14.6387,7.420427052890294,1.5833354545142966,16.83717957943724,12.78779502798937
0.0209,0.9625,0.1319,-0.1594,0.1589,0.0622,-2.73,2.8963,-14.3587,7.802086841417854,1.296395679126016,14.41840458171731,12.79981858315782
0.021,0.9611,0.1259,-0.1594,0.1589,0.0622,-3.0625,2.555,-13.7025,7.463950501450648,1.2518581973296117,14.757364099515836,12.809149906725695
0.0196,0.962,0.1306,-0.1599,0.1596,0.0677,-2.8175,2.2488,-13.6062,7.730401309971389,1.1762802132416483,16.249482761129073,12.821214516037129
0.0262,0.9597,0.1325,-0.1599,0.1596,0.0677,-2.5988,1.7237,-13.4575,7.860426193423645,1.4626670073550927,16.238124303083396,12.833314162936107
0.032,0.9643,0.1273,-0.1608,0.1585,0.061,-2.8875,1.5662,-13.4837,7.521239260792432,1.7828429716792131,14.353183389296223,12.845269766419623
0.0388,0.9663,0.1304,-0.1598,0.158,0.0641,-3.3338,1.2163,-12.7925,7.685050145430118,2.148431514002305,15.476202943228555,12.857315618234693
0.0484,0.9645,0.1265,-0.1598,0.158,0.0641,-2.835,1.12,-12.4862,7.472629464136889,2.65970900922616,15.857952211864344,12.869360762219713
0.0511,0.9636,0.1324,-0.1635,0.1581,0.0628,-3.2025,1.3212,-13.09,7.822556981183779,2.9184626903667525,14.747046218903524,12.879064404394635
0.0489,0.9665,0.1281,-0.1635,0.1581,0.0628,-3.1675,1.435,-15.6363,7.5507410121992296,2.8830482923161016,14.979980409231695,12.890767312549793
0.048,0.9673,0.1285,-0.1632,0.1581,0.0628,-3.5525,2.6338,-14.2625,7.56704901548359,2.828949171620509,14.975476565543845,12.902740257869567
0.0468,0.9703,0.1277,-0.161,0.157,0.0648,-3.4825,2.8175,-14.5862,7.497731273132005,2.754663601314942,15.962842240091181,12.9148172542069
0.0417,0.9709,0.132,-0.161,0.157,0.0648,-3.6312,2.8612,-14.8925,7.7415732013372125,2.4952335872611804,15.634024521950458,12.926923979406393
0.0374,0.9631,0.1321,-0.1627,0.1586,0.0634,-4.0163,2.9138,-14.6387,7.809836101575907,2.2562982770374176,14.796451601910617,12.938901171706476
0.036,0.9562,0.1355,-0.1627,0.1586,0.0634,-3.7188,3.0363,-14.8837,8.064786110545386,2.156400929154317,14.524589113450117,12.948297969554107
0.0362,0.9548,0.1308,-0.1618,0.1575,0.0647,-3.7362,2.4063,-14.665,7.80124645189172,2.1522271312961716,15.362839364135503,12.960303121141221
0.0323,0.9562,0.1327,-0.1618,0.1575,0.0653,-3.4738,1.8463,-14.3238,7.900679970868122,1.9695186819924744,15.402499981598696,12.972308272728334
0.0392,0.9604,0.1324,-0.1622,0.1577,0.0653,-2.5638,1.75,-15.1637,7.8494183725296685,2.235714855834985,15.519238882643457,12.984353416713354
0.0407,0.9641,0.128,-0.1622,0.1552,0.0629,-2.5725,1.8375,-15.4612,7.563516129105013,2.3600506021901806,15.110311492351016,12.996475714173979
0.0451,0.9669,0.1301,-0.1622,0.1552,0.0629,-2.9575,1.7413,-15.12,7.663057150451173,2.580544022500458,15.080927200515616,13.005713604175066
0.0398,0.9636,0.1325,-0.1628,0.1564,0.0648,-2.6163,1.1987,-15.0412,7.828906679126936,2.40581683147159,15.375825153297544,13.017773258676138
0.0386,0.9553,0.1319,-0.1628,0.1564,0.0648,-3.1238,1.5837,-15.12,7.861138562094918,2.319367219056499,15.330832608906556,13.02991148231292
0.0348,0.9552,0.1294,-0.1614,0.1563,0.0636,-2.9138,2.0913,-15.47,7.7152439461474875,2.1214027430361004,15.138735390034931,13.041882658057567
0.0367,0.9566,0.1324,-0.1607,0.1573,0.0632,-2.765,1.4175,-15.75,7.879607578391368,2.162637287525043,14.890198311085483,13.05392744812756
0.0398,0.9579,0.1308,-0.1607,0.1573,0.0632,-2.8612,1.3212,-15.5312,7.775864519670277,2.307576946841938,15.04377395958773,13.065976485177861
0.0495,0.9637,0.1286,-0.1637,0.1577,0.0638,-3.36,1.4262,-14.91,7.601360970075194,2.7634269847059802,15.281504636685929,13.075279495543679
0.0453,0.9642,0.1244,-0.1637,0.1577,0.0638,-3.0975,1.4612,-14.6562,7.352319261564109,2.6914159770802133,15.45616451020124,13.087349059665472
0.049,0.9644,0.1331,-0.1628,0.1577,0.0638,-2.835,1.6013,-14.875,7.856532921491911,2.836035865275591,15.102479526750221,13.099603013515662
0.0492,0.9617,0.127,-0.1646,0.157,0.0687,-2.9313,2.2138,-15.1988,7.523753137074797,2.8894543584557026,16.946763920986417,13.111412804008584
0.0489,0.9606,0.1277,-0.1646,0.157,0.0687,-3.395,2.4763,-14.6825,7.572237463231474,2.8889249320328463,16.895850200466864,13.12361331668989
0.0536,0.9618,0.1279,-0.1645,0.1572,0.0634,-3.2813,2.7475,-14.6912,7.5747349914493265,3.1107913761320583,15.187254036490828,13.135468762221128
0.0586,0.9654,0.1225,-0.1645,0.1572,0.0634,-3.4475,3.4038,-14.8925,7.232591987811853,3.3901012255351466,15.6039168010548,13.144815658050133
0.0595,0.9637,0.1242,-0.1638,0.1573,0.0662,-3.2113,3.8413,-15.1287,7.343392561615226,3.486387427122614,16.533486055901502,13.156841690623764
0.0632,0.9677,0.1268,-0.1638,0.1573,0.0662,-3.2813,4.655,-16.3887,7.464732069388551,3.674882755035933,16.477260114239417,13.168901699039864
0.0714,0.9669,0.1247,-0.1634,0.1577,0.0657,-2.8788,5.3725,-16.1,7.349128914572861,4.124192078611371,16.59856905535726,13.181033906121208
0.0702,0.9664,0.1235,-0.1623,0.1566,0.0628,-3.2813,6.7813,-16.5112,7.282761311078927,4.121617385780187,15.784898270729869,13.193051798649249
0.0807,0.966,0.1201,-0.1623,0.1566,0.0628,-4.0862,8.5837,-16.4237,7.087598708210487,4.683838029207192,16.17270491997056,13.202723588471855
0.1069,0.9557,0.1288,-0.1642,0.1574,0.0614,-3.64,10.3337,-15.7675,7.673887029567361,6.198542516160822,15.348088075298216,13.214432159267425
0.134,0.9482,0.1229,-0.1642,0.1574,0.0614,-3.6837,13.6675,-15.26,7.3859665133111365,7.8684759363929135,16.21009281123751,13.226567905499026
0.1647,0.9395,0.1308,-0.1631,0.1577,0.0664,-3.6225,18.1475,-13.6675,7.924439250732071,9.754576877694085,18.388174192845668,13.238692326449804
0.1906,0.93,0.1341,-0.163,0.1558,0.0587,-2.4063,24.6312,-11.5675,8.204348636472263,11.403864143824256,15.720976666595252,13.250771800192318
0.2112,0.9222,0.1359,-0.163,0.1558,0.0587,-0.77,32.13,-9.5113,8.382562958737982,12.726775575331407,16.03555972336912,13.262819421582517
0.2513,0.9016,0.1411,-0.1639,0.1567,0.0548,1.3475,41.755,-7.4988,8.893210584681796,15.336018654147132,14.621571232399859,13.274737510073306
0.2794,0.8916,0.1411,-0.1639,0.1567,0.0548,3.6312,51.5812,-5.6525,8.992483470487569,17.163825824100407,15.30536745769657,13.284059985765538
0.3027,0.8804,0.1387,-0.1655,0.1558,0.055,6.8863,62.0988,-1.505,8.953015310199536,18.734473414063995,16.065243582529675,13.296063013862497
0.3172,0.8694,0.1314,-0.1655,0.1558,0.055,14.8662,88.3488,2.0388,8.595511768441074,19.82489980835359,17.175456493206493,13.30806427238433
0.3172,0.8685,0.1133,-0.1676,0.1542,0.0402,18.8475,102.6463,4.7425,7.435582568803013,19.907503134783422,10.870356507431325,13.320061283925853
0.311,0.8691,0.0976,-0.1732,0.1529,0.0329,23.7388,116.0863,7.42,6.4101342051679575,19.57849474672519,8.014050090465002,13.332085900839381
0.3211,0.8542,0.0584,-0.1732,0.1529,0.0329,28.5687,129.9987,10.9812,3.917499052715349,20.550258590314737,11.731446557729056,13.34150251792845
0.3353,0.8648,0.0517,-0.1784,0.1499,0.0182,34.3525,143.745,15.995,3.4224685647270685,21.153715865388868,4.71278864379006,13.353699137544474
0.3365,0.8733,0.014,-0.1784,0.1499,0.0182,38.6487,159.2937,21.49,0.9246743165238698,21.070720370987978,7.991075345502427,13.365679161164763
0.3213,0.8869,-0.0006,-0.1868,0.1506,0.0039,43.9513,175.5775,29.6887,-0.03639333026154196,19.920576297767827,1.8474460555931531,13.377871533800478
0.3015,0.8937,-0.0315,-0.198,0.1454,-0.0138,49.1662,190.6275,37.135,-2.0138424688509544,18.63831642125877,3.514024995765441,13.39010460666415
0.245,0.9008,-0.0746,-0.198,0.1454,-0.0138,54.1975,203.1138,42.9712,-4.727640534746246,15.18265117842128,0.6585690251205994,13.402318568116433
0.2285,0.9074,-0.1122,-0.2158,0.1455,-0.0318,58.52,212.9225,47.2762,-7.04333571785608,14.037006540022377,4.516394056127254,13.414488998020554
0.2152,0.9177,-0.1221,-0.2158,0.1455,-0.0318,62.37,220.8762,49.9012,-7.577434579957277,13.090317038516977,3.995200783639452,13.42675463106659
0.2147,0.9461,-0.1408,-0.235,0.1431,-0.0578,66.2638,227.1763,51.065,-8.462648251918031,12.652820729737032,10.411143605588752,13.438991243080519
0.2169,0.978,-0.1692,-0.2552,0.1416,-0.0697,69.5538,231.875,52.1063,-9.812234678616923,12.328598481227493,11.598939648275397,13.451196002742133
0.2069,0.9815,-0.1931,-0.2552,0.1416,-0.0697,71.8638,240.1262,52.99,-11.127171268018847,11.688627818472439,10.616222680592715,13.463423059050369
0.1865,0.9714,-0.2027,-0.2802,0.143,-0.0906,73.6488,242.8475,53.97,-11.785148986483511,10.648418174319426,13.585048702427533,13.475601629000082
0.1801,0.9678,-0.2038,-0.2802,0.1442,-0.107,74.9088,244.055,55.1075,-11.891398424914607,10.32172021919942,16.922627403941956,13.487837179268933
0.1706,0.97,-0.2156,-0.3012,0.1442,-0.107,76.9213,243.8363,56.3325,-12.529854438272816,9.744286546673841,15.210617160751738,13.499987436016587
0.1613,0.9947,-0.2247,-0.3282,0.1468,-0.1174,78.435,243.04,56.9188,-12.728853928540145,8.99130895339627,15.427019927604261,13.509541018220608
0.1479,1.0027,-0.2236,-0.3282,0.1468,-0.1174,79.3888,241.3687,57.785,-12.571509238374245,8.195607875695554,15.361454862604635,13.521708616804522
0.1235,0.9996,-0.2125,-0.3602,0.1494,-0.1334,79.5463,238.6825,58.31,-12.002849000120905,6.896123151715263,16.447983215212986,13.533954784524145
0.087,0.9811,-0.2089,-0.384,0.1516,-0.1415,80.5,234.255,58.6512,-12.020116804515137,4.965143444094883,16.220705946969762,13.546188211302843
0.057,0.9575,-0.1909,-0.384,0.1516,-0.1415,81.1738,226.8525,59.4038,-11.277082863090437,3.348271225210982,16.30475650712099,13.558417745016257
0.0572,1.0,-0.1637,-0.4128,0.1573,-0.1494,81.935,210.9362,61.88,-9.3013111891242,3.2313908398797357,16.88375298441084,13.57063418387372
0.0792,1.0314,-0.1688,-0.4128,0.1573,-0.1494,80.1675,203.5337,62.9738,-9.29470070882116,4.328280859527459,17.04352867869718,13.582850268816157
0.0732,1.0333,-0.1603,-0.4412,0.1621,-0.1573,76.965,196.105,63.5425,-8.819315608509736,4.006010025916782,16.995905468512778,13.59506847724875
0.059,1.0183,-0.1473,-0.4676,0.169,-0.1633,74.3313,187.0575,62.2038,-8.23225154777902,3.285728838854182,16.77401457720226,13.607280669125904
0.0512,1.0224,-0.1522,-0.4676,0.169,-0.1633,71.0238,176.8112,58.6512,-8.466637169918293,2.8381892770349935,16.626425939132012,13.619561520518047
0.0641,1.0573,-0.1389,-0.4938,0.1741,-0.1654,68.2675,164.8762,54.7837,-7.4865008974741825,3.436296435900675,16.364134539994733,13.631717085991088
0.078,1.0949,-0.127,-0.4938,0.1741,-0.1654,64.1463,153.4575,49.7875,-6.618341886869184,4.0438655246099655,16.757580527918517,13.643965377200866
0.082,1.1143,-0.1083,-0.517,0.1803,-0.1655,58.3362,141.5225,46.2788,-5.553735743102029,4.188065844381832,16.37183549978491,13.656701717231096
0.0816,1.1183,-0.0916,-0.5327,0.1857,-0.1686,51.6162,127.6975,41.3787,-4.684747497343319,4.159694728273101,16.476716835291196,13.668389760955174
0.0797,1.0691,-0.0874,-0.5327,0.1857,-0.1686,44.6162,112.6913,35.0438,-4.67362188208645,4.248537558562218,16.491152645947924,13.680567269159809
0.1012,1.058,-0.0819,-0.545,0.1886,-0.1706,29.7938,79.3013,14.9888,-4.427080119620305,5.433000826211089,16.54886222003721,13.692744423449419
0.1376,1.0763,-0.0907,-0.545,0.1886,-0.1706,22.5487,63.0962,3.675,-4.815933528578572,7.232209282981774,16.66232661273583,13.704806555355672
0.1796,1.0851,-0.0985,-0.5539,0.1948,-0.1672,14.105,49.9712,-5.145,-5.1858276797273195,9.319802443584356,16.200905498804527,13.714286523234344
0.2161,1.0931,-0.0644,-0.5584,0.1942,-0.1674,5.5388,39.7163,-11.97,-3.376608047331843,11.12040572385145,17.026023621788582,13.726677796114508
0.2551,1.0633,-0.0622,-0.5584,0.1942,-0.1674,-2.66,32.4538,-16.45,-3.3479034799151335,13.40184557466937,17.448007606585136,13.738686840766906
0.2588,1.0187,-0.0523,-0.5609,0.1922,-0.1678,-10.2462,25.9787,-18.7162,-2.9401412553300097,14.207194448710442,17.69522548821393,13.750939732872018
0.2584,0.9759,-0.0344,-0.5589,0.1877,-0.1597,-15.8375,20.1775,-21.4813,-2.021467140471218,14.794722478436608,17.310589713507238,13.76322306166934
0.2563,0.9308,-0.0276,-0.5589,0.1877,-0.1597,-19.8275,14.2275,-24.0713,-1.699373375698336,15.353371794545305,17.527406458968485,13.77551736183246
0.3007,0.9245,-0.0094,-0.5592,0.1883,-0.1618,-21.1138,8.6625,-26.3025,-0.5858114779903583,17.77990865068798,18.673543050139383,13.78770336399771
0.323,0.9403,-0.0091,-0.5592,0.1883,-0.1618,-21.6125,5.9063,-28.0,-0.5545694427705229,18.8185802002469,18.90141908218976,13.7999201567702
0.3298,0.9425,0.0076,-0.5585,0.1859,-0.1547,-22.3825,5.1363,-25.3137,0.45901830038951885,19.224978126317858,18.523866884468163,13.81210297370022
0.3163,0.9327,0.0121,-0.5586,0.1843,-0.1557,-23.2313,5.3812,-22.6275,0.7424247137002812,18.793423676658623,18.571855993957243,13.824261370493467
0.3021,0.9024,0.0273,-0.5586,0.1843,-0.1557,-23.3275,4.2613,-20.755,1.7299045825960555,18.54395506695438,18.827930973818194,13.836362079137524
0.2924,0.8747,0.0179,-0.557,0.183,-0.1538,-22.3213,2.8263,-20.615,1.173983418704012,18.49218117769714,18.481024230148392,13.848528615976361
0.3083,0.8898,0.0274,-0.557,0.183,-0.1538,-20.7987,1.3125,-20.7025,1.7620525666318039,18.945634474669664,18.80331694456808,13.860856184151897
0.3225,0.9041,0.0321,-0.555,0.1827,-0.1507,-20.2388,1.26,-20.2737,2.0326360545896542,19.445047227839932,18.731362966993206,13.872893895921377
0.3204,0.9031,0.0454,-0.5533,0.1799,-0.1492,-19.7575,1.7587,-18.5937,2.8754465491570453,19.49567030904948,18.808584021439046,13.882252117031205
0.311,0.8688,0.0533,-0.5533,0.1799,-0.1492,-18.7512,2.3888,-17.045,3.5087924207937062,19.628161591543435,19.029853078978153,13.894438473111483
0.3176,0.8557,0.0513,-0.554,0.1805,-0.1479,-17.3687,2.0213,-17.1937,3.4310538521794887,20.17723764604807,19.0062507681441,13.906705167902597
0.3429,0.8736,0.0557,-0.554,0.1805,-0.1479,-15.4787,1.5925,-17.4825,3.647567392583337,21.10089520713122,19.327736683974674,13.918787826880342
0.3528,0.8909,0.051,-0.5579,0.1794,-0.1444,-14.2275,1.7325,-17.6138,3.2774133987055483,21.462762993708303,18.707998948247454,13.930977368195851
0.3431,0.8873,0.0647,-0.5573,0.1774,-0.1435,-15.54,4.8913,-15.1988,4.167932335224229,21.13928628721634,18.73332398697007,13.943058611513493
0.3185,0.8521,0.0769,-0.5573,0.1774,-0.1435,-11.9525,5.46,-14.8225,5.1540201946445245,20.508277431124085,18.8569404861367,13.955248506744027
0.3188,0.8428,0.0788,-0.5576,0.1776,-0.1449,-10.3863,5.0313,-14.9275,5.340972404489396,20.620451248837785,19.104598109159518,13.967427784523792
0.337,0.8469,0.0746,-0.5576,0.1776,-0.1449,-7.8225,5.0662,-16.3975,5.034825513554363,21.491807772913987,19.253768756870947,13.979563176840367
0.348,0.8642,0.0673,-0.5554,0.176,-0.1412,-6.0637,5.4163,-17.7537,4.454580407047794,21.8262002578973,18.782407735463,13.991616814786004
0.3471,0.8827,0.0694,-0.5553,0.1766,-0.1412,-5.6438,6.9212,-18.5587,4.495369986664095,21.45014085076727,18.699711631973535,14.000998040372503
0.3323,0.8849,0.0758,-0.5553,0.1766,-0.1412,-5.3638,7.5338,-18.1562,4.894850003159024,20.60599017839408,18.60646560140947,14.013123169153333
0.2876,0.8644,0.0776,-0.5572,0.1756,-0.1408,-5.4513,7.6563,-18.5062,5.129219527673815,18.556071402787893,18.073115127122975,14.025242635293752
0.2834,0.8452,0.0669,-0.5572,0.1756,-0.1408,-4.8387,6.79,-18.515,4.527374887004848,18.490531081403677,17.934489474352144,14.03729521149431
0.3024,0.8505,0.0608,-0.5562,0.1746,-0.146,-4.0075,6.0025,-19.3463,4.090189589609171,19.406433084963414,18.608511939912162,14.049402644523855
0.3259,0.8792,0.0622,-0.5572,0.1738,-0.1414,-2.9663,5.2238,-19.11,4.046833322895961,20.178709932477272,18.21295920046705,14.06153732901038
0.3356,0.9069,0.0631,-0.5572,0.1738,-0.1414,-2.9488,6.3263,-18.865,3.980278609964595,20.252743158681323,18.18726612941097,14.073629189778792
0.3223,0.9248,0.0722,-0.5554,0.1754,-0.1398,-3.92,7.385,-17.815,4.462732380985015,19.269385012193585,18.005778607107572,14.08570830960628
0.3019,0.9145,0.0709,-0.5554,0.1754,-0.1398,-4.4538,7.2975,-18.935,4.4332819157203245,18.324650476027234,17.80316447519435,14.095065115056006
0.293,0.9045,0.0758,-0.5558,0.1749,-0.1359,-4.5237,5.9938,-20.5975,4.78938028262409,17.940909193508496,17.39616397089931,14.10719979954253
0.2973,0.8996,0.0721,-0.5563,0.1749,-0.1391,-4.1125,4.9788,-21.3762,4.582852057662552,18.19450679345111,17.732802307551903,14.11931254129746
0.3081,0.9023,0.0772,-0.5563,0.1749,-0.1391,-3.7975,4.3575,-21.07,4.889411145755633,18.7036056035298,17.932006837587895,14.131435546588136
0.3071,0.9138,0.08,-0.5562,0.1735,-0.1392,-3.64,4.3838,-21.7612,5.002972132415066,18.537730731967546,17.891840163538273,14.143510773350341
0.2971,0.9134,0.0826,-0.5562,0.1735,-0.1392,-3.78,4.55,-21.9363,5.166822341097822,18.03192917954607,17.8252149914323,14.155636609961222
0.284,0.8975,0.0747,-0.5526,0.1722,-0.1411,-4.095,3.9375,-21.7612,4.758969944529703,17.583501563086248,17.92242297950614,14.167730948134816
0.2807,0.8925,0.0785,-0.5517,0.1703,-0.1402,-4.41,3.5525,-21.84,5.025779081218329,17.42635138074648,17.871188563509914,14.177142256498499
0.2882,0.8966,0.0739,-0.5517,0.1703,-0.1402,-4.9875,2.7125,-21.0525,4.712687174161082,17.69939975501161,17.85709994487031,14.189251105188147
0.3021,0.9096,0.0752,-0.5518,0.1722,-0.1381,-3.9025,2.5725,-19.8537,4.726068866289568,18.195153564996776,17.777514835352385,14.201307220538963
0.3092,0.9123,0.0737,-0.5518,0.1722,-0.1381,-4.0862,2.9575,-18.97,4.618899436900022,18.581239666761064,17.818437734188223,14.21338810994158
0.3009,0.9089,0.0762,-0.5521,0.171,-0.1389,-4.7075,3.5613,-17.745,4.7918497237359645,18.310415303069007,17.836933696430286,14.225515008297538
0.2955,0.8981,0.0824,-0.5521,0.171,-0.1389,-5.1712,4.2263,-17.2375,5.240909354740481,18.16626163129695,17.936186095414538,14.2376433223136
0.289,0.8951,0.0795,-0.5496,0.169,-0.1315,-4.2175,3.7713,-17.4562,5.075976171710771,17.881134560765865,17.071397150123097,14.249777298970072
0.29,0.895,0.0814,-0.5522,0.1702,-0.1377,-3.5613,3.3513,-18.1212,5.196401663408574,17.883846906378455,17.724202926934552,14.259072523205324
0.2833,0.9008,0.0831,-0.5522,0.1702,-0.1377,-4.0425,2.2225,-17.3512,5.270486998099638,17.491769643672495,17.649689471010333,14.271182079725023
0.2857,0.9011,0.0844,-0.5518,0.1689,-0.1351,-3.9725,2.3363,-16.2838,5.350676721519479,17.51396447534054,17.40400997130416,14.283344369583553
0.2788,0.9011,0.0759,-0.5518,0.1689,-0.1351,-4.375,2.2662,-15.6538,4.816175717138178,17.21300264568745,17.18775138253303,14.295550190990244
0.2763,0.8988,0.08,-0.5517,0.169,-0.1362,-4.7075,1.8112,-14.9362,5.085599873771778,17.06737901521403,17.363902858266222,14.307478189101753
0.274,0.9008,0.0769,-0.5509,0.1706,-0.1362,-5.1363,1.05,-14.385,4.880004079909158,16.91739781469917,17.334358561392655,14.31960119439243
0.28,0.8981,0.0793,-0.5509,0.1706,-0.1362,-4.4538,0.4025,-14.0175,5.0455255456783386,17.14066393861299,17.452717298191857,14.331740479774288
0.2843,0.901,0.0793,-0.5514,0.1686,-0.1359,-4.4363,-0.0438,-13.1775,5.029874596375005,17.32795738432663,17.39726885539879,14.343932852410003
0.2888,0.9023,0.0769,-0.5514,0.1686,-0.1359,-4.235,0.2275,-11.3487,4.871797186003849,17.560342623564505,17.39935727780251,14.353337790303224
0.2956,0.8976,0.0804,-0.5517,0.1699,-0.1354,-3.955,0.5688,-10.1237,5.117761853095787,17.970105927057826,17.519020739625265,14.365322060903821
0.3022,0.8947,0.0788,-0.5537,0.1694,-0.136,-3.15,0.63,-8.7237,5.0335278746500425,18.401755211594466,17.570110223053227,14.37741179818208
0.3151,0.8924,0.0786,-0.5537,0.1694,-0.136,-3.6138,1.0762,-9.1262,5.033457050875948,19.11192883805875,17.727133433308104,14.389468621362948
0.3232,0.893,0.0797,-0.5558,0.171,-0.1356,-3.6575,1.19,-9.8612,5.099933673899804,19.63550394427415,17.758368126874796,14.401476604270268
0.3325,0.8935,0.0798,-0.5558,0.171,-0.1356,-3.5,1.785,-11.1037,5.10363177566575,20.177066496954424,17.86788093328492,14.413599963475969
0.3345,0.8963,0.0777,-0.5545,0.1713,-0.1346,-4.165,1.6712,-13.4225,4.954984265293999,20.34419983364625,17.779512278768227,14.425667050192583
0.3357,0.8965,0.0777,-0.5542,0.1694,-0.1375,-3.3425,2.2662,-14.6912,4.953473139123233,20.43489340063993,18.08001210066387,14.435094284732426
0.3327,0.8941,0.0777,-0.5542,0.1694,-0.1375,-1.9862,2.8087,-16.5987,4.9666622741997735,20.357732936827478,18.05829833857012,14.447216228278023
0.3303,0.8985,0.0787,-0.5531,0.1706,-0.1351,-2.5463,2.8263,-17.4562,5.005677789066859,20.158406231666827,17.82043637189733,14.459250754812272
0.3293,0.8965,0.0759,-0.5531,0.1706,-0.1351,-2.6513,3.3775,-17.9638,4.839730053087952,20.112309056588543,17.77206229255131,14.47137022095269
0.3235,0.8966,0.0755,-0.553,0.1698,-0.136,-2.9313,3.7888,-18.4538,4.813423797816839,19.82812958357905,17.78110311220096,14.483492164498289
0.3228,0.8924,0.0794,-0.5545,0.1704,-0.1364,-2.485,3.535,-19.355,5.083668867872348,19.816294657011014,17.869821527162777,14.495618708939222
0.3184,0.8949,0.0737,-0.5545,0.1704,-0.1364,-1.5925,3.465,-19.3375,4.7090416264145905,19.57242425877452,17.706393484948812,14.507666684244446
0.3134,0.9037,0.0754,-0.5529,0.1693,-0.1354,-0.9187,3.6663,-19.5912,4.769246566813528,19.14605516930862,17.550681399845047,14.517043308935612
0.3015,0.9057,0.0742,-0.5529,0.1693,-0.1354,-0.8838,3.85,-19.0837,4.683767263027355,18.47769476211846,17.386786480614084,14.529170561206596
