AcclX,AcclY,AcclZ,MagX,MagY,MagZ,GyroX,GyroY,GyroZ,Roll,Pitch,Yaw,Time(s)
-0.1454,0.9787,0.0121,-0.709,0.0545,0.0222,-2.5463,1.05,-15.6887,0,0,0,1.6204360445465766
-0.144,0.9547,0.0012,-0.7085,0.0534,0.0214,-2.7825,1.05,-15.6887,0,0,0,1.6325208270144755
-0.1476,0.9773,0.0143,-0.7085,0.0534,0.0214,-1.995,1.3125,-15.47,0,0,0,1.6419367362734942
-0.1432,0.9773,0.0148,-0.7077,0.0535,0.0213,-2.9488,1.3475,-14.5075,0,0,0,1.6540066543103136
-0.1454,0.9778,0.0108,-0.7077,0.0535,0.0213,-2.1963,1.33,-15.1988,0,0,0,1.666147001437249
-0.1451,0.9789,0.0137,-0.7106,0.0541,0.0226,-2.5988,0.9625,-15.2425,0,0,0,1.6782055941932454
-0.1445,0.9778,0.01,-0.7105,0.0534,0.0229,-3.0363,1.2337,-15.4437,0,0,0,1.690334969954384
-0.1432,0.9773,0.0166,-0.7105,0.0534,0.0229,-2.4413,0.7788,-15.2775,0,0,0,1.7024155054419745
-0.1468,0.9786,0.0106,-0.7104,0.0526,0.0226,-3.1325,0.945,-14.6387,0,0,0,1.7144882547989995
-0.1458,0.9778,0.0107,-0.7104,0.0526,0.0226,-2.8175,1.2075,-14.9275,0,0,0,1.7240524544537907
-0.1432,0.978,0.0108,-0.7098,0.0533,0.0235,-2.6513,1.085,-15.3475,0,0,0,1.7360430955248507
-0.1434,0.9777,0.0098,-0.7098,0.0533,0.0261,-2.3888,0.735,-15.2862,0,0,0,1.7480822229544333
-0.1473,0.9792,0.0117,-0.7099,0.0538,0.0261,-3.0363,0.9887,-15.2862,0,0,0,1.760181869853412
-0.1427,0.98,0.0137,-0.7102,0.0546,0.0213,-2.4237,1.0762,-15.2687,0,0,0,1.772300982078805
-0.1466,0.9779,0.0109,-0.7102,0.0546,0.0213,-2.3625,1.2775,-15.0587,0,0,0,1.7844324813300978
-0.1471,0.9787,0.0104,-0.7098,0.0543,0.0255,-2.3013,0.8487,-15.155,0,0,0,1.796573182372059
-0.1421,0.9801,0.0117,-0.7098,0.0543,0.0255,-2.2138,1.0587,-14.6825,0,0,0,1.8058623900518733
-0.1427,0.9792,0.0099,-0.7079,0.0542,0.0215,-2.695,0.6388,-14.945,0,0,0,1.818052639197434
-0.1472,0.98,0.0099,-0.7119,0.053,0.0229,-2.3187,1.0412,-15.4787,0,0,0,1.8301402529855388
-0.1452,0.9784,0.0081,-0.7119,0.053,0.0229,-2.87,0.945,-15.0762,0,0,0,1.8422126484275378
-0.1473,0.9789,0.0068,-0.7085,0.0534,0.0216,-3.1412,0.6212,-15.3125,0,0,0,1.8542811508042543
-0.1423,0.9775,0.0101,-0.7085,0.0534,0.0216,-2.345,0.7175,-14.9888,0,0,0,1.8663999091146215
-0.1406,0.9778,0.0097,-0.7103,0.0537,0.0208,-2.5988,0.875,-14.945,0,0,0,1.8785455649669427
-0.1457,0.979,0.0112,-0.7116,0.053,0.022,-2.9838,1.4,-15.4612,0,0,0,1.8906575988918213
-0.1471,0.9792,0.0112,-0.7116,0.053,0.022,-2.835,1.33,-15.6712,0,0,0,1.9000681994254545
-0.1462,0.977,0.0071,-0.7088,0.0544,0.0206,-2.975,0.9275,-15.2337,0,0,0,1.9121876655658732
-0.1459,0.9775,0.0116,-0.7088,0.0544,0.0206,-2.7037,1.1375,-15.0937,0,0,0,1.9242037885187844
-0.144,0.9786,0.0161,-0.7098,0.0532,0.021,-2.8175,0.7437,-15.575,0,0,0,1.9363112215483287
-0.1431,0.9809,0.01,-0.7091,0.0534,0.0222,-3.3688,1.225,-15.5225,0,0,0,1.948428918113619
-0.1441,0.9786,0.0083,-0.7091,0.0534,0.0222,-2.9488,1.3475,-15.0675,0,0,0,1.9604928195950009
-0.1451,0.9781,0.0148,-0.7128,0.0535,0.0214,-2.625,1.2075,-15.0062,0,0,0,1.972639891107425
-0.1464,0.9764,0.0113,-0.7128,0.0535,0.0214,-2.6163,1.05,-15.8025,0,0,0,1.9819896182566359
-0.144,0.9784,0.0106,-0.7106,0.0526,0.0238,-2.6688,0.9713,-15.19,0,0,0,1.9941175783576717
-0.1443,0.9781,0.0118,-0.709,0.0549,0.0255,-2.5463,1.1462,-14.7962,0,0,0,2.006253324589273
-0.1419,0.9795,0.0085,-0.709,0.0549,0.0255,-3.1412,1.505,-15.1287,0,0,0,2.018283958058238
-0.146,0.9786,0.0121,-0.7099,0.0512,0.0219,-2.485,1.3737,-14.8925,0,0,0,2.030415103394505
-0.1451,0.9771,0.009,-0.7099,0.0512,0.0219,-3.0275,1.0937,-15.1812,0,0,0,2.0425735001877516
-0.1471,0.9776,0.0123,-0.7092,0.0526,0.0218,-2.3013,1.2425,-14.8137,0,0,0,2.054670669681551
-0.1442,0.9792,0.0145,-0.71,0.0524,0.0253,-2.38,0.875,-14.6125,0,0,0,2.0666510472168653
-0.1437,0.9796,0.0121,-0.71,0.0524,0.0253,-2.8263,1.3125,-14.6037,0,0,0,2.076089960952555
-0.1465,0.9791,0.0106,-0.7123,0.0542,0.0218,-3.0188,0.8312,-15.1462,0,0,0,2.0882147358183594
-0.1446,0.9787,0.01,-0.7123,0.0542,0.0218,-3.1588,1.1112,-15.1025,0,0,0,2.100336679363958
-0.1473,0.9779,0.0091,-0.7105,0.0528,0.0222,-3.5263,0.98,-14.7613,0,0,0,2.1123832390090804
-0.1472,0.979,0.0073,-0.7105,0.0528,0.0017,-3.1763,1.2775,-14.9187,0,0,0,2.12450836778991
-0.1429,0.9793,0.0118,-0.7082,0.0538,0.02,-2.9838,1.3562,-14.8575,0,0,0,2.136615446904429
-0.1422,0.9784,0.011,-0.7094,0.0537,0.022,-2.7738,0.7437,-15.155,0,0,0,2.1487448226655674
-0.1441,0.9798,0.0138,-0.7094,0.0537,0.022,-3.0975,0.9013,-14.875,0,0,0,2.1581164925463723
-0.1426,0.9783,0.0129,-0.7097,0.0543,0.0194,-2.45,0.8225,-15.3037,0,0,0,2.170238436091971
-0.1457,0.9784,0.0078,-0.7097,0.0543,0.0194,-2.905,0.7263,-15.05,0,0,0,2.1822970288479677
-0.1463,0.9797,0.0119,-0.7082,0.053,0.0232,-2.0038,0.63,-14.9625,0,0,0,2.1943931365966893
-0.1427,0.9782,0.0122,-0.7118,0.0549,0.0217,-2.4675,0.8838,-14.9537,0,0,0,2.2065094175018767
-0.1433,0.9795,0.0113,-0.7118,0.0549,0.0217,-3.1588,1.0325,-14.9275,0,0,0,2.2185938460547496
-0.1436,0.9781,0.0107,-0.7102,0.0546,0.0218,-2.415,1.0412,-14.9362,0,0,0,2.2307154356853225
-0.1454,0.9794,0.0094,-0.7102,0.0546,0.0218,-2.5113,1.1287,-15.085,0,0,0,2.2427736745262936
-0.1449,0.9787,0.0111,-0.7091,0.0544,0.0183,-2.765,1.0412,-15.3475,0,0,0,2.2521917072754665
-0.1428,0.9774,0.0104,-0.7107,0.0508,0.023,-2.5113,1.0762,-15.2687,0,0,0,2.264378771185796
-0.1448,0.9806,0.0119,-0.7107,0.0508,0.023,-2.5288,1.1375,-14.8662,0,0,0,2.2763566713159302
-0.1439,0.977,0.0113,-0.7094,0.0526,0.0225,-2.8612,0.9975,-14.9362,0,0,0,2.288485693162043
-0.1438,0.9807,0.0109,-0.7094,0.0526,0.0225,-2.9575,0.77,-15.12,0,0,0,2.30062427071385
-0.1469,0.9774,0.0064,-0.7104,0.0545,0.0261,-2.3712,1.54,-15.33,0,0,0,2.312745506429397
-0.1462,0.9791,0.0113,-0.7102,0.0549,0.0217,-2.6513,1.05,-15.6275,0,0,0,2.324807284420625
-0.1444,0.9785,0.0079,-0.7102,0.0549,0.0217,-2.38,0.455,-15.5662,0,0,0,2.3341693985957357
-0.1465,0.9792,0.0096,-0.7105,0.0537,0.0229,-2.2313,1.015,-15.12,0,0,0,2.3462647985144063
-0.1443,0.9779,0.0094,-0.7105,0.0537,0.0229,-2.7037,1.0675,-14.8837,0,0,0,2.358434520588476
-0.1462,0.9789,0.0137,-0.709,0.0516,0.0186,-2.9313,1.4175,-15.225,0,0,0,2.3704566600968238
-0.146,0.9806,0.0093,-0.7095,0.0529,0.0232,-2.6425,1.1025,-15.4612,0,0,0,2.3826423083470503
-0.1446,0.9787,0.0117,-0.7095,0.0529,0.0232,-2.2575,0.7613,-15.1725,0,0,0,2.394843528858408
-0.1435,0.9796,0.0097,-0.7104,0.055,0.021,-2.17,0.63,-14.7087,0,0,0,2.406844433465214
-0.1439,0.9801,0.0108,-0.7104,0.055,0.021,-2.6338,1.225,-14.9975,0,0,0,2.4189051497113643
-0.1466,0.9786,0.0096,-0.711,0.0537,0.0222,-2.45,0.91,-15.2075,0,0,0,2.4282998240688407
-0.148,0.9784,0.0079,-0.7105,0.0532,0.0206,-2.8963,1.085,-14.6037,0,0,0,2.4403931004973565
-0.1454,0.9777,0.011,-0.7105,0.0532,0.0206,-2.8875,1.3387,-14.805,0,0,0,2.4524817760305386
-0.1469,0.9781,0.0073,-0.7106,0.0526,0.0228,-2.7475,0.8575,-15.1462,0,0,0,2.464598764765777
-0.1435,0.9786,0.0098,-0.7106,0.0526,0.0228,-3.1238,0.77,-15.0412,0,0,0,2.4766743454430076
-0.1445,0.9805,0.0097,-0.7121,0.0549,0.028,-2.975,1.1287,-15.12,0,0,0,2.488819647380303
-0.1449,0.9791,0.006,-0.7121,0.0549,0.028,-3.045,1.4175,-15.1462,0,0,0,2.5009012446129706
-0.1438,0.978,0.0098,-0.7101,0.0538,0.0255,-3.4388,1.2425,-15.2337,0,0,0,2.5104360693206282
-0.144,0.9794,0.0124,-0.7108,0.0565,0.0212,-3.1937,1.12,-15.225,0,0,0,2.5224323730320997
-0.146,0.9805,0.0088,-0.7108,0.0565,0.0212,-2.6075,1.19,-15.225,0,0,0,2.534485303147685
-0.1436,0.9787,0.0129,-0.7082,0.053,0.0231,-2.7125,1.1462,-15.3912,0,0,0,2.5466281276798
-0.1421,0.9791,0.0128,-0.7082,0.053,0.0231,-2.5025,1.3562,-15.47,0,0,0,2.5587001692067735
-0.1432,0.9784,0.011,-0.7114,0.0517,0.0263,-2.5288,0.805,-15.3912,0,0,0,2.5708242362425264
-0.1465,0.9783,0.0084,-0.7089,0.0513,0.0222,-2.5463,0.8312,-14.805,0,0,0,2.582868318482469
-0.1432,0.9788,0.0093,-0.7089,0.0513,0.0222,-3.0188,1.1987,-14.7875,0,0,0,2.5924102214906406
-0.1452,0.9805,0.0113,-0.71,0.0536,0.0211,-2.7037,0.9363,-15.2862,0,0,0,2.6043753806798495
-0.143,0.9806,0.016,-0.71,0.0536,0.0211,-2.2225,0.98,-15.4088,0,0,0,2.6165334235580704
-0.1419,0.9775,0.0148,-0.7109,0.0536,0.0275,-1.7587,1.1375,-15.6187,0,0,0,2.628574320562781
-0.1459,0.9802,0.0103,-0.7093,0.0539,0.021,-2.94,1.0762,-15.3125,0,0,0,2.6407274086306423
-0.1437,0.9789,0.0097,-0.7093,0.0539,0.021,-2.6075,1.2687,-14.77,0,0,0,2.6527898944519217
-0.1472,0.9794,0.0082,-0.7099,0.0534,0.022,-2.6688,0.875,-14.6037,0,0,0,2.664927056343626
-0.1472,0.9786,0.014,-0.7099,0.0534,0.022,-3.4738,0.6825,-14.6562,0,0,0,2.6770359050332733
-0.1444,0.9789,0.0131,-0.7086,0.0546,0.02,-2.8263,0.4725,-14.8487,0,0,0,2.6863633355358645
-0.1465,0.978,0.0073,-0.7096,0.0526,0.0201,-2.7213,1.3825,-15.0237,0,0,0,2.698472892055563
-0.146,0.9768,0.0128,-0.7096,0.0526,0.0201,-3.2288,1.0237,-14.385,0,0,0,2.710572185039516
-0.1421,0.9792,0.0143,-0.7106,0.0527,0.0217,-2.73,0.8575,-14.5775,0,0,0,2.723167666889515
-0.1448,0.9783,0.0098,-0.7106,0.0527,0.0217,-2.7125,1.0762,-15.4,0,0,0,2.7347682936022424
-0.1446,0.9783,0.0159,-0.7109,0.0547,0.0161,-2.73,1.6187,-15.1025,0,0,0,2.7468909449778924
-0.1438,0.9792,0.0124,-0.7098,0.0521,0.0245,-2.3888,0.9275,-14.91,0,0,0,2.759020320739031
-0.1439,0.9767,0.0093,-0.7098,0.0521,0.0245,-2.4588,0.8487,-15.2862,0,0,0,2.7683661548229592
-0.1455,0.9798,0.0098,-0.7089,0.0538,0.0229,-2.5725,1.3562,-15.3125,0,0,0,2.780506148034869
-0.1443,0.9789,0.011,-0.7089,0.0538,0.0229,-2.8087,1.4,-15.4612,0.6419922958474871,-6.760818656747953,1.7993190498193496,8.749438071417929
-0.1448,0.9792,0.0106,-0.7106,0.0535,0.0254,-2.625,0.7263,-15.5137,0.6202734610387509,-8.0435364597932,1.9996207212637267,8.754850493906115
-0.146,0.9792,0.0095,-0.7102,0.0542,0.021,-2.6863,1.1112,-15.19,0.5560365655255625,-8.39044922847187,1.6508622182232002,8.759371050529511
-0.1445,0.978,0.0087,-0.7102,0.0542,0.021,-2.9313,1.1812,-15.1025,0.5098039903692507,-8.401535209664878,1.6540116186809266,8.763882405362239
-0.1468,0.9801,0.014,-0.7081,0.0542,0.0221,-2.6425,1.0237,-14.9625,0.8175004751160334,-8.493362981052865,1.7241871674013756,8.768542050590739
-0.1403,0.9778,0.0064,-0.7081,0.0542,0.0221,-2.7738,1.54,-15.33,0.3762632258624157,-8.227091037915141,1.7575601579879383,8.773083488200651
-0.1435,0.9788,0.0047,-0.709,0.0544,0.0145,-2.4675,0.9275,-15.12,0.27540616838920806,-8.316327375923242,1.1502494373143917,8.77619298561654
-0.1476,0.98,0.0117,-0.709,0.0544,0.0145,-2.8612,1.68,-15.6363,0.6828542194496316,-8.518874332582218,1.118741586020021,8.778372040429838
-0.1433,0.9781,0.0113,-0.7093,0.0542,0.0184,-2.5988,1.6975,-15.715,0.6619684672733706,-8.368247271354468,1.4343270854591281,8.780578700615141
-0.1424,0.9781,0.0085,-0.7086,0.0518,0.0224,-2.94,1.575,-15.4088,0.4983697603139207,-8.299047952062649,1.773707965485783,8.782765541559003
-0.1449,0.9801,0.0116,-0.7086,0.0518,0.0224,-2.4325,1.26,-15.19,0.6775867877246636,-8.387289179883345,1.760982730285546,8.784979987874872
-0.1438,0.9794,0.012,-0.7083,0.0539,0.0214,-3.0975,1.4,-14.9888,0.7019066801297343,-8.358941381864682,1.6762792189384015,8.787154441792834
-0.1468,0.9766,0.0084,-0.7083,0.0539,0.0214,-2.345,0.9187,-14.6212,0.4933943737373424,-8.507801330894086,1.6926124598723868,8.789352961932547
-0.1463,0.9782,0.0098,-0.7104,0.0545,0.0234,-2.38,0.9013,-15.3212,0.5737654336980377,-8.506159527835527,1.8416831326066274,8.791521045380048
-0.1452,0.979,0.0101,-0.71,0.053,0.0218,-2.87,1.2337,-15.1725,0.5910305819405285,-8.449929989499166,1.7142753781671145,8.793790702439926
-0.146,0.9775,0.0108,-0.71,0.053,0.0218,-2.73,0.9975,-15.295,0.6328934140736548,-8.48507582520016,1.7111745289865554,8.796019659271849
-0.1471,0.9799,0.0083,-0.7089,0.0541,0.0226,-2.7825,1.3475,-15.2163,0.48571510846536115,-8.52687066646094,1.7883614542995134,8.798212870686175
-0.1466,0.9801,0.013,-0.7089,0.0541,0.0226,-2.0213,1.225,-15.7062,0.7591508504783531,-8.51042466159053,1.7672935490472221,8.80040855950568
-0.1439,0.9775,0.009,-0.7087,0.0532,0.0207,-2.5113,1.1112,-14.9975,0.5281705318569416,-8.402105530137678,1.6329908733203036,8.80262866846196
-0.1457,0.9781,0.0071,-0.7082,0.0526,0.0218,-2.3538,1.4088,-15.05,0.41621794916775934,-8.458796723635846,1.7320556353786118,8.804826834686645
-0.1419,0.9792,0.0138,-0.7082,0.0526,0.0218,-3.01,1.0675,-15.4612,0.8063177983640527,-8.289079559617901,1.702428444317041,8.80711100226258
-0.1418,0.9787,0.0127,-0.7099,0.0549,0.021,-2.695,0.8575,-15.12,0.7436286503690671,-8.253216700865003,1.635541434187471,8.809451796242627
-0.1451,0.979,0.0083,-0.7099,0.0549,0.021,-2.8963,1.4962,-15.3212,0.48647307212463436,-8.396605680937375,1.6558599262204454,8.811668012133623
-0.1469,0.9783,0.0067,-0.7116,0.0538,0.0255,-2.8525,1.1112,-14.7262,0.39265647251346203,-8.510137141113107,2.022024282912778,8.813869363593541
-0.1471,0.9795,0.0068,-0.7118,0.0549,0.023,-3.465,1.0675,-14.5775,0.39774465833179323,-8.534272188330055,1.8194420205102344,8.816033907890784
-0.1445,0.9782,0.006,-0.7118,0.0549,0.023,-2.7475,0.9625,-14.8925,0.35156241543180744,-8.430644666857027,1.8225800355314077,8.818232428030495
-0.1455,0.9794,0.0099,-0.7105,0.0536,0.0224,-2.345,0.5513,-15.1988,0.5784969591605402,-8.445245746389135,1.7615853145629057,8.820434487320464
-0.1439,0.978,0.0108,-0.7105,0.0536,0.0224,-2.9225,0.8838,-15.365,0.6325352379420022,-8.386013170124903,1.7573132805037501,8.822726794941989
-0.144,0.9789,0.0121,-0.7095,0.0536,0.021,-2.7562,0.8312,-15.3125,0.7079726282915201,-8.371751998185344,1.6411996926836394,8.824926022911752
-0.1471,0.9797,0.0096,-0.7094,0.0502,0.0224,-2.38,0.8663,-15.1988,0.5618322854659936,-8.502596693421488,1.769649024089239,8.827104369894998
-0.1446,0.9798,0.0106,-0.7094,0.0502,0.0224,-3.0188,1.1638,-15.155,0.6196681964622265,-8.416596761808911,1.765237403368814,8.829345359837795
-0.1443,0.9785,0.0098,-0.7087,0.0543,0.0207,-3.01,1.2425,-14.9625,0.5739465628971095,-8.394165612413268,1.6282738054234867,8.831529723376477
-0.1457,0.9773,0.0102,-0.7087,0.0543,0.0207,-2.345,1.365,-15.0675,0.5979018517025212,-8.462444597568844,1.626506867749942,8.83372081130065
-0.1435,0.9808,0.0173,-0.7107,0.053,0.0226,-2.7213,1.2687,-15.0587,1.00935050898234,-8.350364354902496,1.7451297343558392,8.83593419587144
-0.1453,0.9786,0.0088,-0.7107,0.0534,0.0208,-2.4588,1.1462,-15.4,0.5166097348280995,-8.425793816678198,1.6373410745046029,8.837734915522253
-0.1464,0.9795,0.0073,-0.7072,0.0534,0.0208,-3.6225,1.155,-15.1112,0.4272588238178839,-8.485305046258784,1.6520687738823248,8.838964770236597
-0.1454,0.9792,0.0101,-0.7116,0.053,0.0219,-2.9663,1.085,-14.8575,0.5904960330695767,-8.453799495682148,1.7184096281776615,8.840158525618317
-0.1453,0.9792,0.0104,-0.7116,0.053,0.0219,-2.7562,0.84,-14.9012,0.608459830485926,-8.44288810642972,1.7171282249888271,8.84135935930055
-0.1459,0.9782,0.0146,-0.7083,0.0534,0.0238,-2.6075,0.98,-15.1287,0.8544008849974958,-8.47397618802967,1.8593279183663445,8.842560546897811
-0.1478,0.9783,0.0064,-0.7083,0.0534,0.0238,-2.5638,0.77,-14.5775,0.3761755604419898,-8.56518306118017,1.896071188267347,8.843762088410097
-0.146,0.9765,0.0112,-0.7101,0.0528,0.0206,-2.9225,0.5862,-15.3212,0.6563329587550469,-8.517265225644644,1.6128611295611415,8.84494911940633
-0.1444,0.9794,0.0091,-0.7088,0.0536,0.021,-3.5088,0.8575,-15.3212,0.5326938981621536,-8.414999819097076,1.6560921508531306,8.846155615728975
-0.1462,0.98,0.0125,-0.7088,0.0536,0.021,-3.0625,1.0062,-15.4088,0.7302137823821883,-8.469796789594147,1.6412554038529314,8.847351140685824
-0.1445,0.979,0.0121,-0.7097,0.0546,0.0223,-2.4325,0.7175,-15.5487,0.7081764080127669,-8.41214624172712,1.7441123931542082,8.848539233427134
-0.1437,0.9784,0.0129,-0.7097,0.0546,0.0223,-2.73,1.1987,-15.0587,0.7552557603816122,-8.366293130698228,1.7404408728296343,8.84973829753424
-0.1466,0.9781,0.0106,-0.7106,0.0529,0.0197,-1.9425,1.12,-14.9888,0.6212880903481839,-8.491447635876046,1.5418080736606266,8.850953641732527
-0.1454,0.9786,0.0097,-0.7081,0.054,0.0214,-2.31,0.7962,-15.33,0.568054638202462,-8.45967612229869,1.686936353280379,8.852154829329788
-0.1455,0.9778,0.0099,-0.7081,0.054,0.0214,-3.0888,0.8312,-15.2512,0.580052736823721,-8.462493059060263,1.6861265746624232,8.853542176230572
-0.1462,0.9789,0.0111,-0.7105,0.0538,0.021,-2.6338,1.3562,-15.505,0.6494672047940383,-8.48774394570517,1.6433126529164737,8.854881744602885
-0.1453,0.9769,0.0088,-0.7105,0.0538,0.021,-2.4413,1.4,-15.1725,0.516487819463417,-8.465031270157935,1.6533637294554957,8.856099566206353
-0.1444,0.9782,0.009,-0.7116,0.0547,0.0172,-2.9225,1.0675,-15.2337,0.5271089920595378,-8.411004294881067,1.343548585283102,8.857326235685465
-0.1454,0.9778,0.0071,-0.7112,0.0531,0.0224,-2.4588,1.1812,-15.5312,0.41634228496644465,-8.448295697171302,1.7723844296178386,8.858532732008111
-0.1429,0.9801,0.009,-0.7112,0.0531,0.0224,-3.0013,0.7263,-15.2337,0.5258069030640863,-8.329160253340625,1.7640628971199208,8.859781344218817
-0.1449,0.9796,0.0123,-0.7099,0.0551,0.0226,-3.1325,1.1462,-15.3037,0.7188288760668122,-8.396226007823728,1.7663466052688683,8.860992441436796
-0.1445,0.9799,0.0113,-0.7099,0.0551,0.0226,-2.9663,1.1462,-15.435,0.6608578940293734,-8.389723619076417,1.7708689883735855,8.862197876014365
-0.1454,0.9793,0.0112,-0.7077,0.0531,0.0205,-2.94,1.1987,-15.5837,0.6552642523377179,-8.433585903905646,1.6097408748922615,8.863392339226138
-0.1477,0.9797,0.009,-0.7101,0.0539,0.0214,-3.1063,0.7263,-15.645,0.5266966728545973,-8.541953191835029,1.6858313748043074,8.86460980691458
-0.1462,0.98,0.0096,-0.7101,0.0539,0.0214,-2.695,0.875,-15.47,0.5611492322434474,-8.496980186505532,1.6830327654315196,8.865822319792663
-0.1443,0.9801,0.011,-0.7094,0.0538,0.021,-3.1763,1.2775,-15.5837,0.6427916903263993,-8.399169996025568,1.6460893345320218,8.867029170030335
-0.1465,0.9803,0.0109,-0.7094,0.0538,0.021,-2.8788,1.3212,-15.1375,0.6370643415251909,-8.479436722653116,1.6467739906244898,8.86841970216635
-0.1463,0.9796,0.0133,-0.7099,0.0538,0.0173,-2.87,1.3125,-14.8837,0.7774574053368697,-8.490633728429907,1.33679741622168,8.869791122890977
-0.1446,0.9804,0.0099,-0.7083,0.0519,0.0254,-3.0188,1.1462,-15.1812,0.5791108665048686,-8.410255145839695,2.010800383780501,8.871049998637428
-0.1444,0.9758,0.0117,-0.7083,0.0519,0.0254,-3.2725,0.7088,-15.3737,0.6866476337070321,-8.415498711389436,2.0033284006668532,8.87225012448961
-0.1412,0.9788,0.0085,-0.7086,0.0538,0.0226,-4.0687,1.3912,-15.3125,0.49808617251290865,-8.24862956965965,1.7879679922110956,8.873447772936615
-0.1443,0.9794,0.0099,-0.7086,0.0538,0.0226,-3.395,1.5925,-14.385,0.5789097600267437,-8.356246344762342,1.781977448844779,8.874637281338027
-0.1455,0.98,0.0091,-0.7108,0.0544,0.0214,-2.7562,1.2337,-14.7437,0.5321494299493589,-8.426931277780598,1.6830527781007711,8.875827497569489
-0.1443,0.9783,0.0102,-0.7108,0.0548,0.024,-3.1675,1.1725,-15.1375,0.5971740104273309,-8.39765948813602,1.8864756448315088,8.877016652055875
-0.1488,0.976,0.0104,-0.7083,0.0548,0.024,-3.2113,1.2075,-14.7788,0.6104679788756819,-8.613622013922404,1.8928180035376871,8.878206514372312
-0.1485,0.9797,0.0092,-0.7105,0.0545,0.0204,-3.01,1.4612,-14.7613,0.5382324451807323,-8.617759192728698,1.6031296928703396,8.879392483623468
-0.1405,0.9787,0.0146,-0.7105,0.0545,0.0204,-2.9488,1.3475,-14.6825,0.8537661434468751,-8.25645364864607,1.5776829980194829,8.880586946835239
-0.1412,0.9814,0.0098,-0.7105,0.0541,0.0238,-3.3775,0.7437,-14.7437,0.5729185414988316,-8.202339788456982,1.873434446556486,8.881780348301934
-0.1468,0.9822,0.0108,-0.7105,0.0541,0.0238,-2.6863,0.8925,-15.4875,0.629821994573202,-8.436070240064401,1.8699147577879496,8.882966671468115
-0.1469,0.9761,0.0088,-0.7095,0.053,0.0234,-3.2638,1.1638,-15.5137,0.516854892965095,-8.533458600817541,1.8503313893052507,8.88416007293481
-0.1479,0.9798,0.0082,-0.7103,0.052,0.0204,-2.9575,1.3212,-15.3737,0.4796059247941806,-8.573775986621571,1.6105090008935141,8.885370462322738
-0.1419,0.9797,0.0137,-0.7103,0.052,0.0204,-3.1763,0.9713,-14.5338,0.8002551107845525,-8.311006156813788,1.5859937121935574,8.88656244812933
-0.1378,0.9796,0.0043,-0.709,0.054,0.024,-2.905,0.3675,-15.0325,0.2530518877474115,-8.080733773312081,1.9176898740323616,8.887749833040587
-0.1394,0.9805,0.0129,-0.709,0.054,0.024,-2.7475,0.6038,-15.1025,0.7523568527478958,-8.088615798918742,1.8797093086416956,8.88894181884718
-0.1468,0.9778,0.01,-0.7105,0.0554,0.0158,-2.905,0.9625,-15.6275,0.5864161623715627,-8.442713235002037,1.227979668475095,8.890133804653772
-0.1476,0.9751,0.0072,-0.7091,0.0538,0.0214,-2.7388,0.9887,-15.5662,0.42351771938155813,-8.572607651180528,1.6959709265019343,8.891322605225131
-0.1444,0.9801,0.0133,-0.7091,0.0538,0.0214,-1.9512,1.0762,-15.5137,0.7764608326604491,-8.420155629903032,1.668805121483761,8.892530163292854
-0.1415,0.9793,0.0136,-0.7101,0.0536,0.0216,-2.975,0.7175,-14.5687,0.7955880835726002,-8.265485035120141,1.6811539783618208,8.893717194289087
-0.1424,0.9796,0.0072,-0.7101,0.0536,0.0216,-3.0713,1.2425,-14.84,0.42217180233359203,-8.269637004920789,1.7096403377871132,8.894908826180652
-0.1447,0.978,0.009,-0.7114,0.0547,0.0224,-2.205,0.98,-14.945,0.5269504936321695,-8.384970971569789,1.761948094364768,8.89609691892196
-0.1448,0.9766,0.0096,-0.7112,0.0547,0.0215,-3.115,1.1025,-15.2512,0.5630981448160838,-8.4234224165628,1.6873863565572447,8.897281118597988
-0.1466,0.9772,0.0086,-0.7112,0.0547,0.0215,-2.555,1.0325,-15.1988,0.5043935951734163,-8.509028689008668,1.6920933176341388,8.898465318274013
-0.1416,0.9799,0.0132,-0.7087,0.0546,0.0209,-2.555,1.3125,-15.1287,0.7710161783084777,-8.278435159135569,1.6283859159399843,8.89966438238112
-0.1425,0.9796,0.0129,-0.7087,0.0546,0.0209,-2.73,1.1287,-15.2512,0.7545106598791235,-8.27642961979882,1.6297852398025434,8.900851767292377
-0.1441,0.9805,0.0073,-0.7096,0.0538,0.0222,-2.7738,0.5513,-15.085,0.42749611896585754,-8.340966658437111,1.758725422208158,8.902040921778763
-0.1456,0.9776,0.0144,-0.709,0.054,0.0246,-2.835,1.1638,-15.7325,0.8427262878173212,-8.443997293654823,1.9219193511195791,8.903226891029918
-0.1479,0.9777,0.0049,-0.709,0.054,0.0246,-2.73,0.735,-15.0062,0.28871992797628143,-8.566868461863471,1.964951212823182,8.904416045516305
-0.1407,0.9787,0.0142,-0.7096,0.0536,0.023,-2.7825,0.6388,-15.4525,0.8297157067180361,-8.267948357485162,1.7925085059116634,8.905760214783951
-0.1454,0.9787,0.0099,-0.7096,0.0536,0.023,-3.0625,0.8575,-15.575,0.5802607324373451,-8.410500061448424,1.8120890168478367,8.907079256084772
-0.1444,0.9794,0.0096,-0.7114,0.0525,0.0248,-2.7562,0.84,-15.6275,0.5616433829616141,-8.39187798855409,1.9547523248639398,8.908415993136881
-0.146,0.979,0.0167,-0.7123,0.0543,0.0221,-2.7388,1.0325,-15.505,0.9760952084816154,-8.46232780033454,1.7019328213025673,8.90967345322323
-0.1462,0.9755,0.0107,-0.7123,0.0543,0.0221,-2.6338,1.1462,-15.1287,0.6294188309167046,-8.510703322887812,1.7285920963587411,8.91087287124536
-0.1462,0.9786,0.0096,-0.7106,0.0544,0.0206,-2.6163,1.1638,-15.0237,0.562239960690756,-8.499443917010334,1.6169088926427018,8.912065564882004
-0.1454,0.9805,0.0112,-0.7106,0.0544,0.0206,-3.0713,0.9713,-15.12,0.6541857946456501,-8.448199071611134,1.6096114852347263,8.913255427198441
-0.1433,0.9783,0.0165,-0.711,0.0529,0.0229,-2.6075,0.8312,-14.805,0.9653772441842466,-8.357431663318238,1.7720293751219895,8.914447059090007
-0.1444,0.9797,0.0131,-0.711,0.0529,0.0216,-3.1412,0.8225,-15.1112,0.766645102865639,-8.37807641477888,1.682684588457928,8.915654617157731
-0.1454,0.9763,0.0099,-0.7102,0.0542,0.0216,-3.3513,0.875,-15.12,0.5815033867244453,-8.450451523812387,1.697016811465745,8.916888718852382
-0.1475,0.9795,0.0102,-0.7138,0.0524,0.022,-2.7037,1.085,-15.2425,0.5965839542272788,-8.53994028599414,1.7217751221230297,8.91811892748175
-0.1441,0.9778,0.0079,-0.7138,0.0524,0.022,-2.45,0.735,-15.4787,0.4632806122876453,-8.418020105832039,1.731245370323296,8.919323654229268
-0.1453,0.9808,0.0098,-0.7125,0.0553,0.0249,-2.5375,0.805,-15.26,0.5721631083691832,-8.424520547804594,1.9556656910058081,8.92052625748663
-0.1407,0.9793,0.0128,-0.7125,0.0553,0.0249,-2.9575,0.875,-14.9362,0.748345867242795,-8.22902388971882,1.9414895841165034,8.92171682763312
-0.1449,0.9759,0.0078,-0.7112,0.0551,0.0216,-2.3275,1.1725,-15.1988,0.4587532517005463,-8.401405500783293,1.7032933538566837,8.92290987518479
-0.1481,0.9798,0.0071,-0.711,0.053,0.0215,-2.9925,1.2163,-14.9275,0.4153027284373713,-8.556241176428493,1.7011788561845045,8.924102568821432
-0.1445,0.9781,0.01,-0.711,0.053,0.0215,-3.08,1.015,-15.1988,0.585284074306008,-8.435387951139592,1.6879972883577652,8.92529490854305
-0.1429,0.978,0.0087,-0.7079,0.0531,0.0218,-2.695,0.7875,-15.575,0.5098865190781905,-8.339583299845351,1.724943364904379,8.92648937175482
-0.1469,0.9792,0.0096,-0.7079,0.0531,0.0218,-2.7913,1.0325,-15.4,0.5615589188150695,-8.491479690858906,1.7215235345158642,8.927695868077468
-0.1428,0.9781,0.0143,-0.7102,0.0533,0.023,-3.2725,0.8663,-14.7613,0.8368339899822433,-8.345656824281143,1.7910965935736878,8.92889351652447
-0.1448,0.9775,0.0116,-0.7119,0.0529,0.021,-3.1412,0.98,-14.8837,0.6803414023993392,-8.408691257293112,1.6389166671315356,8.930085502331062
-0.1463,0.978,0.0151,-0.7119,0.0529,0.021,-3.1412,1.2425,-14.945,0.883980221808371,-8.487235063477101,1.6236958926776919,8.931369152129314
-0.143,0.9773,0.0117,-0.7097,0.0528,0.0211,-2.9575,1.0412,-14.7087,0.6864584345116783,-8.35793609223654,1.6513541310402362,8.932580603262318
-0.1437,0.9792,0.0132,-0.7097,0.0528,0.0211,-3.0888,1.05,-14.5862,0.7720799832665142,-8.350029295013002,1.6449605775042453,8.933779667369425
-0.1465,0.9814,0.0081,-0.7099,0.0542,0.0244,-2.3888,1.26,-15.0937,0.47372528536302355,-8.462080654681435,1.9315358906336504,8.934975546241299
-0.1449,0.9789,0.0129,-0.7086,0.0511,0.0216,-2.625,0.7875,-15.6187,0.754208969302474,-8.428662159054037,1.6918692011592484,8.936168239877942
-0.1459,0.9783,0.0107,-0.7086,0.0511,0.0216,-2.975,0.4112,-14.7962,0.6269990878163602,-8.469113511250216,1.701156846545383,8.93736234917469
-0.1462,0.9773,0.0109,-0.7098,0.0518,0.0218,-2.94,1.0325,-14.7,0.6389695495212382,-8.499569460081815,1.7127278045927914,8.938553981066255
-0.1451,0.9822,0.0112,-0.7098,0.0518,0.0218,-2.905,0.7962,-14.6737,0.6532733638387921,-8.424154622712242,1.7114532076069708,8.939748798193053
-0.148,0.9581,-0.0018,-0.7097,0.0549,0.0167,-2.2138,1.155,-15.0412,-0.10549604178889517,-8.70858741984951,1.3564280251373464,8.940955648430723
-0.1388,0.9974,0.009,-0.71,0.0518,0.0274,-1.8987,1.8112,-15.89,0.5152377883044507,-8.06327965906855,2.1705286459895,8.942146926407265
-0.1604,0.98,0.0127,-0.71,0.0518,0.0274,-3.185,1.61,-13.9562,0.7418222249440114,-9.065416315698803,2.158500054517371,8.943342805279139
-0.1222,0.9916,0.0066,-0.7105,0.0543,0.0214,-2.4938,1.47,-14.7962,0.38236755690327423,-7.415184025355457,1.6932052771393298,8.944532667595576
-0.1457,0.9881,0.0106,-0.7105,0.0543,0.0214,-2.5988,1.8025,-15.1988,0.613970127955437,-8.212868578856252,1.677351599351379,8.945721822081962
-0.1481,0.9651,0.014,-0.7086,0.0546,0.023,-2.8087,1.68,-15.0237,0.8304761847755832,-8.629591767919829,1.7944926450961454,8.946979636083336
-0.163,0.985,0.0038,-0.7104,0.0538,0.0213,-2.4675,0.735,-15.7412,0.2227588476239546,-9.225753454718102,1.702474294528538,8.948186132405983
-0.146,0.9713,0.0005,-0.7104,0.0538,0.0213,-2.9488,0.9538,-14.3325,0.030040686552215177,-8.691990686564457,1.7148935357219004,8.949386966088216
-0.1397,0.9783,0.0187,-0.7091,0.0526,0.0234,-3.01,0.8925,-14.9362,1.0920524155088864,-8.247086338728485,1.8075410137849592,8.950582844960092
-0.1427,0.9709,0.0061,-0.7091,0.0526,0.0234,-2.835,0.9013,-14.1662,0.36204366279097444,-8.33668143892359,1.8629537192683685,8.951889145319988
-0.1539,0.9808,0.0131,-0.71,0.0549,0.021,-2.8875,0.7088,-14.9362,0.7640828640138578,-8.78716247114082,1.6351180250553266,8.953097765132789
-0.1572,0.9579,0.0009,-0.71,0.0549,0.0201,-3.4913,2.3625,-12.4425,0.0558433212903189,-9.232733414632454,1.618542876612621,8.954297537069944
-0.196,0.9854,0.0137,-0.7101,0.0534,0.0201,-3.1325,5.565,-10.92,0.7944361339063801,-11.032369222076891,1.5683988427561677,8.95549093853664
-0.2405,0.9867,0.0881,-0.7135,0.0548,0.0231,-4.1038,3.9638,-9.38,5.090051064912197,-13.307741215022505,1.4699874298362614,8.956673014722512
-0.3095,0.921,0.0902,-0.7135,0.0548,0.0231,-4.7512,-1.9512,-7.8575,5.592109397391564,-15.629841232489486,1.45533524989309,8.95786535444413
-0.1693,0.9496,0.0457,-0.7122,0.054,0.0201,-2.835,-10.64,-8.7062,2.76328022555882,-10.720550637608085,1.4088553204583727,8.959070081191646
-0.0295,1.0001,0.0058,-0.7122,0.054,0.0201,-0.7,-14.0262,-11.025,0.33910699969925556,-2.4259341241804115,1.5884089960308287,8.96029002628527
0.0095,0.9772,0.0393,-0.7155,0.0553,0.015,0.4462,-11.2788,-13.23,2.297521464992912,0.2431384598065461,1.023340380764285,8.961499000013095
-0.0379,1.0095,-0.011,-0.7138,0.0558,0.0166,1.295,-8.2862,-11.3925,-0.6161364496548724,-1.7831151250179904,1.3776245464999424,8.962738410433133
-0.2078,0.9119,0.0642,-0.7138,0.0558,0.0166,5.3375,-5.95,-6.1512,4.014293982288761,-10.174091559423747,1.022130870406194,8.963958355526756
-0.2413,0.9582,0.0407,-0.7194,0.0567,0.0123,10.3512,-8.3912,-4.9788,2.4365135798279223,-13.526824565243354,0.7958170127267901,8.965161312699145
-0.2053,0.9116,0.0304,-0.7194,0.0567,0.0123,12.04,-9.5375,-3.2987,1.9114173828869616,-12.793207696288414,0.8343096534341558,8.966351528930607
-0.1768,0.9705,-0.0011,-0.7208,0.0608,0.0076,12.1538,-10.64,-3.8763,-0.05958315472041128,-10.602654517251494,0.6103764211091681,8.967571120109206
-0.1177,0.9675,-0.0341,-0.723,0.059,0.0066,11.3312,-9.1437,-1.6712,-2.013258813625401,-7.429204954603467,0.6856060332122068,8.96879248086293
-0.177,1.0547,0.0143,-0.723,0.059,0.0066,12.1187,-3.8413,6.3612,0.7692245018849676,-8.517266905766938,0.4598562164287877,8.969977742284033
-0.2175,1.0448,0.0729,-0.7289,0.063,0.0034,13.6937,-5.6963,12.0487,3.9825950781139587,-10.914663060518246,0.07799012349044973,8.971205119593197
-0.2381,1.0228,0.0755,-0.7289,0.063,0.0034,12.8275,-10.6225,15.0675,4.221096948009233,-12.826991132973475,0.0986389412558782,8.972535132259816
-0.2238,0.9239,0.0615,-0.7358,0.0662,-0.0037,11.7425,-16.8525,16.0387,3.809432642351103,-13.537333587567824,0.6339107354723112,8.973784098385547
-0.1853,0.8543,0.0197,-0.7418,0.0689,-0.0078,13.2825,-22.6537,11.4888,1.3277215732966707,-12.297230328839547,0.7271333179839314,8.975008290459478
-0.1013,0.8386,0.0049,-0.7418,0.0689,-0.0078,18.2525,-25.5587,7.3238,0.33742764104471046,-7.114973541499347,0.6311147388903048,8.976226112062946
-0.0981,0.9384,0.0167,-0.7461,0.0729,-0.019,23.2925,-26.5125,5.7925,1.0177473134833839,-6.013444715667134,1.5502043044233142,8.977484279979347
-0.0347,1.1113,0.0506,-0.7461,0.0729,-0.019,28.5338,-25.9525,8.5662,2.6028803804628744,-1.9613461243016967,1.7072940238822585,8.978739262660515
0.0052,1.1283,-0.0051,-0.7504,0.0754,-0.0282,33.5737,-23.4062,12.0575,-0.2516466892314546,0.16123536407160458,2.1268867698575424,8.979960269499214
0.065,1.1065,-0.0692,-0.7626,0.0831,-0.0345,38.85,-15.2075,28.805,-3.570180293827094,3.1177986893900598,2.2144093468208035,8.981199679919252
-0.0734,0.918,-0.017,-0.7626,0.0831,-0.0345,45.4388,-7.5775,54.3112,-1.0671513159853518,-3.248506038782115,2.4606323058416546,8.982429534633594
0.0367,0.7807,-0.1797,-0.7747,0.0945,-0.0474,47.1975,-20.825,45.92,-12.933002415545968,2.314943719410632,1.8615426785855638,8.98365585019768
0.0281,0.8056,-0.2127,-0.7852,0.1019,-0.0572,56.8312,-14.6562,38.185,-14.785623009516263,1.961308972343719,2.1478861727965133,8.984892783212537
0.2891,1.3084,-0.2163,-0.7852,0.1019,-0.0572,51.6775,-11.4975,22.155,-9.400252295066439,11.23617385697122,3.0634679374256546,8.986133963207703
-0.1318,0.9279,-0.029,-0.7945,0.1083,-0.0665,48.7638,-11.935,27.8162,-1.8088718374181698,-6.181505625306656,4.495970566890898,8.987371957967637
0.0245,0.9647,-0.1323,-0.7945,0.1083,-0.0665,44.5812,-20.5275,23.555,-7.793940800452551,1.0350911014449735,3.700237846210994,8.988605705747263
0.1072,1.1298,-0.1904,-0.7986,0.1141,-0.0756,50.2687,-26.8625,8.9775,-9.561556343269793,5.173579417050361,4.058089321646235,8.989824589095807
0.0677,1.0957,-0.2352,-0.803,0.122,-0.0906,65.59,-15.82,12.6,-12.109064189256502,3.579190234628313,4.539245983747981,8.991040641124147
-0.1791,0.9691,-0.0956,-0.803,0.122,-0.0906,78.5575,-4.8913,19.67,-5.648775290457825,-5.946699903971267,5.490391627974437,8.992261294047822
0.2568,1.0967,-0.2685,-0.8094,0.1303,-0.1047,72.9575,-15.6538,21.9275,-13.737991608858986,11.46289213950946,5.346024239679624,8.993565470917565
0.2486,0.9414,-0.2868,-0.8094,0.1303,-0.1047,67.6288,-21.3237,28.63,-16.935941875318818,14.038259973754279,4.760447719204675,8.994793909971804
0.1025,0.8891,-0.2106,-0.8199,0.1445,-0.117,86.975,-2.625,37.6775,-13.334112748328664,13.115633301868153,5.776418475020558,8.996083222410466
-0.0511,1.166,-0.113,-0.8273,0.1557,-0.1317,68.6175,-11.1737,43.05,-5.553727843622741,-0.8386990837835278,7.923209627897253,8.997381382724772
-0.0834,1.0951,-0.2231,-0.8273,0.1557,-0.1317,41.9038,-22.7062,55.5537,-11.50008550988032,-4.104034912435792,6.666281107955619,8.998626101870194
0.0654,0.9666,-0.2754,-0.8406,0.1697,-0.142,30.345,-23.2838,61.7225,-15.891735539772672,3.3593160945470437,6.225340979176455,8.999851709604227
0.1045,0.852,-0.2913,-0.8406,0.1697,-0.142,25.4888,-20.8862,62.6675,-18.86782331557333,6.449442383710515,5.595186065468933,9.0010709468678
0.1116,0.9279,-0.2793,-0.853,0.183,-0.1545,38.3862,-11.5937,61.7575,-16.757268995326985,6.5574372959431875,6.603443231666894,9.002296200686809
0.1169,1.0068,-0.2265,-0.8608,0.1958,-0.1564,39.4712,-12.2325,64.0238,-12.689052997263193,6.471902441779437,7.522790489680781,9.003511898800122
0.2485,1.0129,-0.4231,-0.8608,0.1958,-0.1564,31.8062,-18.6812,67.9525,-22.645163899199517,12.384172647339794,5.005196937727278,9.004733613468874
0.2338,0.999,-0.4297,-0.8745,0.2124,-0.1675,41.4575,-13.7812,74.8825,-23.27241763761398,12.154188205512028,4.9964394819176965,9.005949311582189
0.1583,0.8899,-0.409,-0.8867,0.231,-0.1727,41.6587,-18.1737,89.74,-24.680073373204316,9.362534341521137,4.164569024834977,9.007166779270632
0.1647,0.8045,-0.4037,-0.8867,0.231,-0.1727,37.3625,-22.8725,88.0425,-26.642612981362557,10.321480050234289,3.5372740086599035,9.00837787648861
0.1976,1.084,-0.3794,-0.8968,0.2516,-0.184,29.3913,-19.6087,87.1325,-19.309089238181524,9.79370853570817,6.200714697305855,9.009629673934548
0.519,0.4879,-0.4817,-0.8968,0.2516,-0.184,-21.0438,-28.665,111.6238,-44.55818822901147,36.10884221980093,4.945042265385828,9.010881825295511
0.5784,1.3451,-0.5377,-0.9118,0.2682,-0.1752,-103.8975,-35.1138,126.4463,-21.8789866211086,22.196115396582307,4.934427795366644,9.012141408872013
-0.1986,0.9682,0.1164,-0.0682,0.2123,0.057,-3.9113,-5.67,-13.9912,6.773927486338935,-2.88513010933256,15.812244487826206,9.015196403373944
-0.1901,0.9634,0.1197,-0.0682,0.2123,0.057,-4.1213,-6.2038,-13.3962,7.0816829050589725,-9.234317444561176,15.610308678230084,9.016396529226126
-0.1728,0.9637,0.1246,-0.065,0.2117,0.0598,-4.4012,-5.9063,-14.175,7.36628315993898,-9.878521050316381,17.48329573078526,9.017605149038927
-0.1635,0.9655,0.1222,-0.0666,0.2131,0.0597,-4.27,-5.8275,-14.2187,7.213808692909565,-9.620823853111684,17.66605834187108,9.018813414936702
-0.151,0.9692,0.1279,-0.0666,0.2131,0.0597,-4.445,-4.6025,-15.0937,7.516709223514309,-9.07637001334003,17.50527408816389,9.02002132691945
-0.1517,0.9614,0.1273,-0.0684,0.213,0.0592,-5.3025,-3.5613,-15.925,7.542644142151727,-8.993810551180314,16.857345841882182,9.021223930176813
-0.1607,0.9594,0.1261,-0.0684,0.213,0.0592,-5.7225,-2.4413,-17.325,7.487980487831749,-9.099628714104544,16.667165169521653,9.022426887349202
-0.1681,0.9601,0.1359,-0.0674,0.2137,0.0566,-5.5125,-1.6187,-17.9112,8.05494800351704,-9.49192345355442,14.097406879938655,9.02362984452159
-0.169,0.9603,0.1327,-0.0672,0.2111,0.0611,-4.8125,-0.98,-18.095,7.868179849349709,-9.746289264589032,16.98273298338868,9.025009759206835
-0.1729,0.9547,0.134,-0.0672,0.2111,0.0611,-4.7425,-0.42,-18.5062,7.989394413170004,-10.041602771771643,16.59921663429134,9.030373341421472
-0.1696,0.9547,0.1358,-0.0662,0.2132,0.0606,-4.34,-0.2275,-19.4162,8.095349567316614,-9.993839074191186,16.18904598111212,9.031592578685043
-0.167,0.9612,0.1343,-0.0662,0.2132,0.0606,-4.13,1.3737,-18.1737,7.954342848817941,-9.808153881344289,16.58308973947024,9.03278916538697
-0.1676,0.964,0.1385,-0.0675,0.2127,0.0637,-4.6813,2.8438,-17.5525,8.175233161274665,-9.771102156369114,17.543013733106143,9.033989645154179
-0.1631,0.9614,0.1473,-0.067,0.2145,0.0621,-4.3925,3.6837,-16.555,8.709260063860015,-9.553246627288754,15.717358118532978,9.035208174587698
-0.1718,0.9578,0.1475,-0.067,0.2145,0.0621,-4.4538,4.13,-16.3362,8.754573864192018,-9.989613088552002,15.354091450668363,9.036409008269933
-0.1773,0.9514,0.1466,-0.0662,0.2134,0.0607,-4.7075,5.0925,-16.3537,8.75972328942431,-10.38555481611082,14.675541802028585,9.037651957840227
-0.1863,0.9479,0.1459,-0.0662,0.2134,0.0607,-3.4475,5.2762,-17.3687,8.75027693007516,-10.925727568956397,14.433041954010177,9.038890306515187
-0.1987,0.9475,0.1402,-0.0658,0.2139,0.0617,-2.9488,5.3812,-17.0275,8.41783004875826,-11.632982861143555,15.221513445707322,9.040109897693783
-0.2014,0.9518,0.1428,-0.0661,0.2144,0.0609,-2.2838,4.7688,-16.45,8.532208156394685,-11.797198405727674,14.48743098284984,9.041315686186378
-0.2046,0.9578,0.1387,-0.0661,0.2144,0.0609,-1.7237,4.0513,-16.2138,8.240606211488572,-11.919193654754185,14.986287647852421,9.042520059018871
-0.197,0.9644,0.1447,-0.0666,0.2135,0.0611,-1.0937,3.605,-15.5925,8.532267269378874,-11.488338017609056,14.788343415855536,9.043722308361207
-0.1918,0.9649,0.1449,-0.0666,0.2135,0.0611,-1.6712,2.8788,-15.4263,8.540324716561013,-11.176316102796344,14.913302649342,9.044916063742928
-0.1948,0.9629,0.139,-0.0638,0.214,0.0602,-1.9862,2.8525,-15.2862,8.215141698181837,-11.300490270596159,15.327471962742274,9.04613282360132
-0.2,0.964,0.1426,-0.0663,0.2156,0.0597,-1.4787,2.2925,-15.4437,8.413914070921617,-11.548929626960804,14.09247714722296,9.047342151244171
-0.1955,0.964,0.1387,-0.0663,0.2156,0.0597,-1.3912,2.3538,-16.1788,8.188145953594017,-11.382817951107326,14.638772792181747,9.048538030116045
-0.1953,0.9633,0.1397,-0.0666,0.2131,0.0586,-1.8375,0.84,-16.3187,8.251460763913633,-11.353435117084109,14.185102048086144,9.049894940324618
-0.1871,0.9624,0.1376,-0.0666,0.2131,0.0586,-1.8987,0.6475,-16.4062,8.137093323905928,-10.997825707569401,14.609923761259461,9.0621074861168
-0.1868,0.9589,0.1329,-0.0644,0.2138,0.0558,-2.1525,0.3413,-16.2488,7.8914105502182395,-10.940234189348155,13.891530758965141,9.070618434655078
-0.189,0.9584,0.1352,-0.0657,0.2154,0.0613,-2.31,0.07,-16.1,8.02925225175621,-11.020712960705472,15.963495556257099,9.082868849355009
-0.1854,0.9547,0.1366,-0.0657,0.2154,0.0613,-2.7738,0.6475,-15.7237,8.14238444474699,-10.913260386626916,15.830740610072787,9.09514970074715
-0.1863,0.9616,0.1338,-0.0649,0.2171,0.0601,-1.8112,1.1725,-16.2138,7.922074014688385,-10.872784294015476,15.630831660086754,9.107981597834325
-0.188,0.9662,0.1344,-0.0649,0.2171,0.0601,-1.8288,0.8838,-15.7412,7.919129460286541,-10.900709439851195,15.612045172133994,9.120108850105309
-0.1898,0.9687,0.1322,-0.0642,0.2152,0.0614,-1.5837,0.9275,-15.5487,7.771653054391113,-10.96809526365545,16.780802269163935,9.132232917141062
-0.1944,0.9687,0.1311,-0.0642,0.2149,0.0583,-1.645,0.7788,-15.2337,7.707535796256249,-11.186031853261383,15.273855514995704,9.144371140777842
-0.1896,0.9667,0.1308,-0.0656,0.2149,0.0583,-2.1088,0.805,-15.4962,7.705653038260421,-11.039858945193888,15.209520616637738,9.15365999454263
-0.189,0.966,0.128,-0.0644,0.2154,0.0582,-1.645,0.175,-15.1375,7.548461180112283,-10.992681316067452,15.595223350723241,9.16584139581255
-0.1777,0.9687,0.1312,-0.0644,0.2154,0.0582,-2.8,0.3063,-14.875,7.712697577149494,-10.472388850994134,15.612330664295063,9.177925470450397
-0.1731,0.9653,0.1268,-0.0644,0.2153,0.0646,-2.625,0.1837,-14.5075,7.484068044487004,-10.180602979899282,19.39891914446865,9.1900240556043
-0.1732,0.9617,0.1302,-0.0644,0.2153,0.0646,-3.3338,0.5075,-14.5513,7.70948537061322,-10.133439442425974,18.935214981256877,9.202138920849382
-0.1749,0.956,0.1294,-0.0665,0.2146,0.0604,-2.9488,2.2138,-15.3737,7.708462159524614,-10.252072670510637,16.512560391658447,9.214212024121434
-0.1826,0.9582,0.1277,-0.0645,0.2158,0.0587,-2.3888,2.3363,-15.9425,7.591449471739951,-10.623943770927326,15.851597925062954,9.226346708607958
-0.1847,0.9562,0.1349,-0.0645,0.2158,0.0587,-2.2488,2.1525,-16.0912,8.029012469951963,-10.793485608592068,14.916100814175609,9.238458034702784
-0.1856,0.9604,0.1307,-0.0636,0.2151,0.0586,-2.6863,1.9162,-15.89,7.750513386011316,-10.83198690153238,15.60570542308884,9.247813424492406
-0.189,0.9664,0.1259,-0.0636,0.2151,0.0586,-2.3712,2.24,-15.19,7.423462252123157,-10.951397655474786,16.1818819138512,9.259887235594508
-0.1853,0.9688,0.1313,-0.0634,0.2161,0.0586,-2.555,2.1613,-14.5862,7.717351707052534,-10.769235640467807,15.657571103069522,9.272014487865492
-0.1835,0.9677,0.1291,-0.0672,0.2147,0.0589,-2.5638,1.9775,-14.6562,7.599243862574256,-10.66672056643785,15.686449750839502,9.284120505234934
-0.1765,0.9659,0.1305,-0.0672,0.2147,0.0589,-2.5463,2.3538,-14.9275,7.694208368928177,-10.330032190303374,15.692374340716873,9.29623607831007
-0.1732,0.9662,0.128,-0.0653,0.2152,0.0585,-2.7213,2.6425,-15.365,7.546890158144423,-10.116193582213233,16.105986966902424,9.308429866605888
-0.1729,0.9662,0.1272,-0.0653,0.2152,0.0585,-3.0275,3.4825,-16.1963,7.49997894205569,-10.068266465553615,16.207772760367376,9.32044421998367
-0.1767,0.9619,0.1315,-0.0656,0.216,0.0566,-3.0363,3.955,-16.7038,7.783764459546924,-10.283259026939112,14.431466210996717,9.329793947132883
-0.1843,0.9571,0.1339,-0.0633,0.2158,0.0584,-3.1238,4.1563,-17.0012,7.9635812909370305,-10.732011614867766,15.07303060435802,9.341909874123044
-0.1825,0.9524,0.1308,-0.0633,0.2158,0.0584,-3.6575,4.585,-17.2375,7.820331528324838,-10.747030696345675,15.386405567956487,9.354037480309053
-0.1931,0.9528,0.134,-0.0613,0.2154,0.0574,-2.905,4.62,-18.8213,8.004942691553877,-11.276292901231178,14.520223759183924,9.366087225189407
-0.2001,0.9572,0.1331,-0.0613,0.2154,0.0574,-1.8112,4.375,-18.0687,7.916547256515044,-11.646245514804246,14.531320058703663,9.378221909675931
-0.2098,0.9599,0.1302,-0.0645,0.2167,0.0562,-2.205,4.0775,-17.2287,7.724950662029455,-12.147203951267787,13.566211725938789,9.390339960156247
-0.217,0.9654,0.1265,-0.0643,0.2155,0.0595,-2.0913,4.095,-16.9137,7.465883231002089,-12.511204298588977,15.611537971766097,9.40247145940754
-0.2158,0.9679,0.1251,-0.0643,0.2155,0.0595,-1.8987,2.9838,-15.8375,7.364873303787174,-12.474816987134481,15.846225339998963,9.414481211889989
-0.2123,0.9647,0.1214,-0.0616,0.2169,0.0569,-1.5225,2.345,-15.3212,7.173066813063346,-12.342850315538161,15.268585949517831,9.423900306384239
-0.2081,0.97,0.1225,-0.0616,0.2169,0.0569,-1.7413,1.61,-15.0412,7.197634224032363,-12.0767063200739,15.365576018975663,9.436022249929836
-0.2,0.9712,0.1256,-0.0634,0.2178,0.0558,-2.8,0.735,-14.35,7.368367624336049,-11.661501295306802,14.395917482809574,9.448139238665076
-0.1957,0.9711,0.1232,-0.0638,0.216,0.0566,-3.5613,0.5338,-14.84,7.230676971895242,-11.388450593991534,15.287041974353444,9.460210572361998
-0.1938,0.9691,0.1255,-0.0638,0.216,0.0566,-2.8963,0.6038,-14.945,7.378409946013526,-11.25667492398796,15.039251110971056,9.472290046104511
-0.1901,0.9593,0.1272,-0.0654,0.2166,0.0555,-3.0538,0.2713,-15.1025,7.552675625657728,-11.149368488225502,13.93852643928563,9.484423668845958
-0.1936,0.9568,0.1255,-0.0654,0.2166,0.0555,-2.9925,0.5688,-15.2862,7.472847090341585,-11.299242131083176,13.992554497411284,9.496539949751146
-0.1937,0.9557,0.1285,-0.0638,0.2166,0.0555,-3.5875,0.6388,-14.4112,7.657334222195714,-11.3445827826361,13.818333269790504,9.505933562363545
-0.1926,0.9588,0.1246,-0.0638,0.2166,0.0636,-3.7888,0.6475,-14.245,7.4050433599302625,-11.28375108348398,18.324091207282176,9.518047365863552
-0.1942,0.9591,0.1278,-0.0642,0.2148,0.0636,-3.0013,0.1138,-13.125,7.5894249105894245,-11.332096070714423,18.033605768451412,9.530101357724213
-0.1953,0.9593,0.1274,-0.0641,0.2156,0.0565,-3.1325,0.4288,-13.0637,7.564977732336983,-11.391286911947917,14.532548886714059,9.542186848022164
-0.1932,0.9556,0.1293,-0.0641,0.2156,0.0565,-3.1325,0.9625,-13.1337,7.7053610147543345,-11.342391437530306,14.291367782194786,9.554308437652738
-0.1932,0.9577,0.1307,-0.0629,0.2155,0.0569,-2.9225,0.7263,-13.02,7.77111993259455,-11.312048361660867,14.537026665595596,9.566476390151678
-0.1894,0.9577,0.1337,-0.0629,0.2155,0.0569,-2.345,0.9975,-12.8362,7.94693198709998,-11.130332362761894,14.290396018909114,9.578520118476595
-0.1878,0.9575,0.1283,-0.0656,0.2155,0.0507,-1.505,0.8225,-12.5037,7.632763119845049,-11.029205727163252,11.489304110545634,9.590574464252283
-0.1856,0.9594,0.1272,-0.0633,0.2153,0.0562,-2.2225,0.7788,-12.53,7.552618307523946,-10.89425741606208,14.798436255824555,9.599993912661558
-0.174,0.9636,0.1307,-0.0633,0.2153,0.0562,-1.645,1.2337,-12.7925,7.723816277638169,-10.29482739491567,14.80482875166632,9.61225175957703
-0.1774,0.9645,0.1266,-0.0662,0.2149,0.0567,-1.9337,1.155,-13.02,7.478571011161059,-10.326976329871254,15.102930717212045,9.624174095048128
-0.1818,0.9614,0.1304,-0.0662,0.2149,0.0567,-2.9838,1.4175,-13.3,7.72351185347453,-10.557946240110443,14.484240764183172,9.636281528077673
-0.1843,0.9574,0.1274,-0.0657,0.2154,0.0594,-2.3363,1.26,-13.615,7.5801525751344,-10.75438621173163,16.0320097951327,9.648418689969377
-0.1838,0.9597,0.1261,-0.066,0.2126,0.0558,-2.3013,1.4088,-14.3675,7.485777214411498,-10.752190980368265,14.673008364765726,9.660559391011338
-0.1767,0.9677,0.1244,-0.066,0.2126,0.0558,-1.89,1.1287,-14.7613,7.325777163072063,-10.364949753148162,15.219424257832337,9.672610197636768
-0.1717,0.9714,0.1269,-0.0662,0.2145,0.0564,-2.4588,0.945,-14.9362,7.442424509313861,-10.03108584519736,15.254041687947952,9.68197478921706
-0.1707,0.9698,0.1263,-0.0662,0.2145,0.0564,-3.2113,1.505,-15.12,7.420105233064579,-9.925507342863046,15.319772051290235,9.6943918978941
-0.1715,0.9656,0.1286,-0.0655,0.2144,0.0539,-3.3425,2.1088,-15.435,7.585622728434587,-9.974784635129438,13.761702838311509,9.706216552818102
-0.1728,0.9634,0.1313,-0.0656,0.215,0.0558,-3.6225,2.0038,-16.31,7.760423198709475,-10.059677531712328,14.275898645297048,9.71835017555955
-0.183,0.9561,0.1288,-0.0656,0.215,0.0558,-3.815,1.96,-16.5287,7.672600177086478,-10.621750165180638,14.143058665968097,9.730385763838875
-0.1842,0.9595,0.1267,-0.0618,0.2154,0.0554,-2.8438,1.7937,-16.7125,7.522694939998341,-10.748090177001265,14.682670469073821,9.742803934260992
-0.186,0.9626,0.1263,-0.0618,0.2154,0.0554,-2.7738,2.0125,-15.8287,7.475051585489681,-10.828690251401557,14.744895119507664,9.754650178001564
-0.1832,0.9662,0.1299,-0.0658,0.2154,0.0522,-3.5263,2.1438,-15.7675,7.656655625098059,-10.67426755070239,12.331242342869045,9.766682581045657
-0.182,0.9641,0.1261,-0.0645,0.2166,0.0514,-3.2375,2.6163,-15.8725,7.452312029869117,-10.613410374029604,12.388458203547065,9.776064868377233
-0.1826,0.9633,0.1267,-0.0645,0.2166,0.0514,-2.8175,3.0013,-15.9075,7.492819512845747,-10.639393879160664,12.287436617794008,9.788205569419194
-0.1867,0.959,0.1291,-0.0648,0.2148,0.0556,-2.6338,3.0713,-16.5025,7.666537949842485,-10.87940229510344,14.088702482198713,9.800304508488122
-0.1894,0.9603,0.128,-0.0648,0.2148,0.0556,-3.71,3.4388,-16.3275,7.592508773558525,-11.036521852077248,14.172687013591448,9.81241406500782
-0.1952,0.9589,0.1328,-0.064,0.216,0.0567,-3.9638,3.7625,-16.7475,7.884024276429802,-11.352014127335202,13.981137364857295,9.824557243454962
-0.2014,0.9597,0.1333,-0.0641,0.2162,0.0523,-3.4388,3.5613,-16.7562,7.90758392259527,-11.689086841657158,11.56572645251269,9.836594955224442
-0.2045,0.9595,0.1316,-0.0641,0.2162,0.0523,-3.325,3.9988,-15.68,7.809939403430939,-11.892989667845821,11.690133309211928,9.848697433443625
-0.203,0.9633,0.13,-0.0638,0.216,0.0554,-3.4563,3.15,-14.3762,7.686141357992428,-11.81016089363832,13.574801582717335,9.858286761065242
-0.2028,0.9628,0.129,-0.0638,0.216,0.0554,-3.465,2.4675,-14.1925,7.6314367829901535,-11.795141728555695,13.684121311408,9.870195293850339
-0.1979,0.9634,0.1316,-0.0656,0.2156,0.0564,-3.6575,1.7325,-14.4462,7.778018956516083,-11.557129000016136,13.836589317312598,9.882341303617684
-0.1955,0.9629,0.1354,-0.0656,0.2156,0.0528,-3.5875,1.3737,-14.8837,8.003632280674436,-11.404835765279975,11.665935589983834,9.894393525903219
-0.1995,0.9595,0.1379,-0.0635,0.2157,0.0528,-3.4388,1.4262,-15.26,8.178089183330464,-11.586155335554118,11.427630840907135,9.906493172802197
-0.1993,0.9548,0.1379,-0.0678,0.2156,0.0556,-3.5788,1.19,-15.4175,8.21818101031659,-11.65513944716926,12.284373585058384,9.918579017015173
-0.2017,0.955,0.1374,-0.0678,0.2156,0.0556,-3.1588,1.2425,-15.54,8.187297594787065,-11.777238010951475,12.292998035336332,9.930731397252982
-0.1986,0.9575,0.1376,-0.0655,0.2144,0.0549,-2.7475,0.4725,-15.7325,8.177874824102616,-11.643341838063591,12.404060832015784,9.940075107846758
-0.1982,0.9612,0.1307,-0.0655,0.2144,0.0549,-2.9138,-0.1837,-15.3562,7.744580901347678,-11.574461800064933,13.268621029794053,9.952530439346575
-0.1976,0.9647,0.1294,-0.064,0.2158,0.0582,-2.8263,-0.5688,-15.2775,7.640062598185573,-11.506688173733203,15.185502512582618,9.964401103223919
-0.1913,0.9684,0.1336,-0.0653,0.2176,0.0558,-2.6075,-0.6737,-14.7262,7.854308224064319,-11.212888487552698,13.431551450238317,9.976612233355997
-0.1886,0.9576,0.1349,-0.0653,0.2176,0.0558,-3.1325,-0.3588,-14.9713,8.018198247324552,-11.087683057268036,13.120825419154684,9.988693476673639
-0.1884,0.9544,0.1341,-0.0639,0.2157,0.0586,-3.255,-0.6913,-15.6012,7.998162816760984,-11.069535972943509,14.904268070732124,10.000867799643043
-0.1885,0.9549,0.1342,-0.0639,0.2157,0.0586,-2.5638,-0.4375,-15.89,7.999851469527373,-11.063428816193513,14.901976114732525,10.013043538272548
-0.183,0.9588,0.1349,-0.0665,0.2144,0.058,-1.925,-0.7,-16.1175,8.008732395056109,-10.82054044418493,14.540244147675542,10.025238034398418
-0.1848,0.9644,0.1325,-0.0632,0.2154,0.0562,-2.345,-0.105,-15.7762,7.8234782915578105,-10.768581971613916,14.312139473389623,10.037377319780276
-0.1892,0.9676,0.131,-0.0632,0.2154,0.0562,-2.695,0.735,-15.2075,7.7105164120107625,-10.922234071567685,14.435423204719218,10.049491831110334
-0.1967,0.965,0.1284,-0.0648,0.2161,0.0577,-2.4588,0.875,-15.6538,7.5794573410189425,-11.315028781146612,14.951255167034965,10.058848282645034
-0.198,0.9595,0.1321,-0.0648,0.2161,0.0577,-2.2138,1.2425,-15.0237,7.838234022523367,-11.506039293951613,14.386737479092876,10.070917138936776
-0.1991,0.9536,0.1343,-0.0627,0.2178,0.0597,-2.17,0.63,-14.315,8.016009379976111,-11.641304341968798,15.068688166572906,10.083101725441926
-0.1977,0.9582,0.1284,-0.0646,0.2144,0.0552,-2.1613,0.0963,-14.875,7.633322970699427,-11.57917366855417,13.736416091818409,10.095127050185505
-0.189,0.9636,0.1306,-0.0646,0.2144,0.0552,-2.2575,-0.0438,-15.1112,7.718220923357504,-11.15502956506366,13.812848263628508,10.10730137315491
-0.1857,0.9628,0.1293,-0.065,0.217,0.0554,-1.6013,-0.14,-14.6737,7.649014221265034,-10.913962785259876,13.842927914716144,10.119482774424826
-0.1819,0.9603,0.1316,-0.065,0.217,0.0554,-1.89,-0.0875,-15.0325,7.802801827921256,-10.706427845911344,13.620901867234567,10.131677270550696
-0.1823,0.9611,0.1296,-0.0662,0.2151,0.0566,-1.925,0.4375,-15.785,7.680100073291423,-10.66043688180371,14.486896071054634,10.143750373822746
-0.187,0.9612,0.1272,-0.0638,0.2157,0.0566,-2.5113,0.1663,-14.945,7.538811354432908,-10.85126898240581,14.897205705171036,10.155798703042997
-0.1902,0.9603,0.1232,-0.0638,0.2157,0.0566,-2.4938,0.4987,-15.1988,7.311370282113969,-11.052638150240352,15.250746651949527,10.165256728190077
-0.1954,0.9645,0.126,-0.0648,0.2168,0.0562,-1.8725,0.7788,-15.505,7.442465397134413,-11.291292386257496,14.446598522435584,10.177359914239311
-0.1977,0.9659,0.127,-0.0648,0.2168,0.0562,-1.7325,0.1575,-15.1375,7.490351724313889,-11.425470146472513,14.301428726493313,10.189470886419114
-0.1964,0.9643,0.1175,-0.0646,0.2173,0.0576,-2.38,0.2275,-14.9275,6.948778330544296,-11.428674021384712,16.040306848644327,10.201536911390649
-0.1926,0.9681,0.1211,-0.0658,0.2162,0.0558,-2.7125,0.14,-14.0175,7.129602946873264,-11.23409746172604,14.873202696426194,10.213621339943524
-0.1765,0.9728,0.1178,-0.0658,0.2162,0.0558,-2.275,0.0263,-14.3238,6.905178036129672,-10.48073790732359,15.787837929893003,10.225814066494264
-0.1679,0.974,0.1279,-0.0666,0.2153,0.0541,-2.3538,0.2187,-14.6562,7.479319775256174,-9.89534083815298,13.989554033380692,10.237870535760106
-0.1646,0.9702,0.1223,-0.0666,0.2153,0.0541,-2.94,0.7875,-14.8137,7.185442397670282,-9.629544481325569,14.658663022782937,10.247189118387054
-0.1678,0.9632,0.1219,-0.0654,0.2156,0.0597,-3.9025,1.7587,-15.5662,7.212776253980475,-9.773789969856143,17.472781836741536,10.259293366181367
-0.1743,0.9628,0.128,-0.0669,0.2162,0.0566,-4.3313,2.415,-16.52,7.5717917072250245,-10.109007852597843,14.733724032183106,10.271456363869948
-0.1834,0.9582,0.1271,-0.0669,0.2162,0.0566,-4.2525,2.8788,-17.3075,7.555909561731138,-10.64797233633877,14.495311757576701,10.283520973181382
-0.1959,0.9537,0.134,-0.0626,0.2166,0.0562,-4.1125,2.8,-17.3337,7.996755226839802,-11.36830727047905,13.57738569221412,10.295597969518715
-0.1967,0.9503,0.1344,-0.0626,0.2166,0.0562,-3.605,2.7825,-17.2987,8.049747102616552,-11.549562694457892,13.436015659190577,10.307722390469493
-0.1993,0.9511,0.1377,-0.0648,0.2158,0.0594,-3.5963,2.0738,-17.1413,8.237492918941228,-11.687632602354697,14.397281848799024,10.319849642740477
-0.1961,0.9551,0.1342,-0.0635,0.2179,0.0506,-2.1788,1.6538,-16.7912,7.998877689201143,-11.528777800274975,10.51680461554209,10.331907173751397
-0.1997,0.9553,0.1304,-0.0635,0.2179,0.0506,-2.3275,1.6712,-16.5637,7.773565155929464,-11.66999026830099,10.895161381438589,10.341366614558579
-0.2045,0.9634,0.1336,-0.0629,0.216,0.0549,-2.3625,0.7875,-15.9075,7.8948256396460526,-11.829067480524762,12.986992052374188,10.353406095903187
-0.2033,0.9667,0.1299,-0.0629,0.216,0.0549,-2.3975,1.2075,-15.9162,7.653939547795958,-11.78474735501485,13.507908268143037,10.36550538888714
-0.2041,0.9659,0.1335,-0.0623,0.2187,0.0554,-2.5113,1.0412,-15.7325,7.868562544547121,-11.814421552062791,13.128426934969973,10.377664493510437
-0.2024,0.9654,0.1281,-0.0608,0.2178,0.0575,-2.1,0.7437,-15.3125,7.559360932074191,-11.757120261080935,15.1088525780963,10.38975069163844
-0.2005,0.9665,0.1305,-0.0608,0.2178,0.0575,-2.66,0.3413,-15.3037,7.689389431639768,-11.651321450880811,14.908221617576311,10.401825210570593
-0.202,0.9625,0.1278,-0.0647,0.2168,0.0549,-2.835,0.5425,-15.2075,7.563803244584387,-11.728928545946212,13.40924946259761,10.41393335143019
-0.1987,0.9657,0.1352,-0.0647,0.2168,0.0549,-3.1675,0.2187,-15.0587,7.968578619912502,-11.570598649106532,12.710412959400156,10.423309976121354
-0.1942,0.9639,0.1295,-0.0617,0.2195,0.0538,-2.8525,-0.2013,-14.77,7.65276601119005,-11.370417079204817,12.982345954039353,10.435516505358096
-0.194,0.9612,0.1265,-0.0617,0.2165,0.0599,-2.59,-0.245,-15.1287,7.49783832299418,-11.331289884650385,16.642901265973247,10.447700030118169
-0.191,0.9598,0.133,-0.0634,0.2165,0.0599,-3.1325,0.2625,-15.0412,7.8881597758946915,-11.19577521188141,15.71439335933499,10.459713321750876
-0.1887,0.9595,0.1285,-0.0607,0.2186,0.0566,-2.7388,0.3763,-14.6387,7.628623072427331,-11.070092766711802,14.805233881449297,10.47183066440114
-0.19,0.9618,0.1265,-0.0607,0.2186,0.0566,-2.835,0.4987,-15.155,7.4931595225747305,-11.078931654006114,15.055786766161587,10.483952961861764
-0.1879,0.9655,0.1253,-0.0622,0.217,0.057,-2.3712,1.015,-15.0412,7.394643853364632,-10.956065384858174,15.482630229298808,10.496080568047773
-0.1893,0.9672,0.1288,-0.0622,0.217,0.057,-3.29,1.2337,-14.7087,7.584790970798412,-10.974717082912454,15.069569918461163,10.508126773777871
-0.1891,0.9672,0.1318,-0.0639,0.2178,0.0553,-2.8,1.645,-14.4287,7.759384195808947,-10.965716710536014,13.568064106039028,10.517511538514626
-0.193,0.9625,0.1327,-0.0622,0.2154,0.0562,-2.7388,1.8112,-14.6475,7.849633163701555,-11.186697133753942,14.157580939241731,10.529635605550379
-0.1972,0.954,0.1291,-0.0622,0.2154,0.0562,-2.6688,1.1287,-14.4987,7.707135492042234,-11.496732248961424,14.284902247342934,10.541780199657623
-0.1962,0.9547,0.1316,-0.0632,0.2177,0.0554,-1.9687,0.7088,-14.0437,7.848040933331977,-11.504916777998707,13.294037749423028,10.553765178088272
-0.1903,0.9606,0.1288,-0.0632,0.2177,0.0554,-1.7237,1.2862,-14.63,7.637429050282824,-11.187106421510874,13.895083478367237,10.565934900162341
-0.1876,0.9675,0.1269,-0.0638,0.2164,0.0487,-1.925,1.0412,-14.9625,7.472883244050616,-10.946008646168856,10.92728149352872,10.578034193146294
-0.1806,0.972,0.1269,-0.0632,0.2167,0.0554,-2.1525,0.6913,-15.2163,7.438309674696754,-10.552878985710619,14.707868920892954,10.5902470928535
-0.1799,0.9686,0.1263,-0.0632,0.2167,0.0554,-2.8875,1.505,-15.5925,7.429157929472835,-10.45769362048742,14.730713601646746,10.602238441754613
-0.1839,0.9637,0.1246,-0.0634,0.2174,0.056,-2.7037,1.8987,-15.05,7.367268590174031,-10.67085165798004,14.932472667293691,10.611612235125572
-0.1857,0.9585,0.1238,-0.0634,0.2174,0.056,-3.465,1.9512,-15.0937,7.359608432861166,-10.840499109979348,14.868688238052547,10.623733470841119
-0.1881,0.9555,0.125,-0.0639,0.217,0.0601,-3.78,2.065,-15.54,7.452931674684185,-11.009977104349181,16.605433101457244,10.635799495812655
-0.1871,0.9532,0.1301,-0.0652,0.2151,0.0538,-3.535,2.345,-15.3125,7.771236174774013,-11.006377192408099,12.862565499233726,10.647932764639076
-0.1879,0.9562,0.1302,-0.0652,0.2151,0.0538,-3.4213,2.5113,-15.2862,7.753984193103433,-11.01632894596748,12.8909334057102,10.660005160081075
-0.1892,0.9597,0.1341,-0.0643,0.2165,0.0554,-2.7562,2.6425,-15.4175,7.953936370998689,-11.042971499040702,13.26268013098872,10.672128873201803
-0.1914,0.9603,0.1303,-0.0643,0.2165,0.0554,-3.01,2.1613,-15.155,7.727730014735191,-11.150464612926951,13.661425676985118,10.684260372453096
-0.1922,0.9606,0.1333,-0.0664,0.2179,0.0477,-3.045,2.3625,-15.2337,7.899847557911743,-11.200164846859971,9.071799828121582,10.693617177902821
-0.1939,0.9614,0.1394,-0.062,0.2193,0.0589,-3.08,2.0563,-15.1637,8.249221360683835,-11.27271531768288,14.334369442740062,10.705743368428728
-0.1965,0.9604,0.1316,-0.062,0.2193,0.0589,-2.52,2.485,-15.3562,7.803695412889443,-11.429221520324008,15.156299838367588,10.717839830092474
-0.1955,0.9618,0.1366,-0.0626,0.2169,0.0544,-2.835,2.4938,-15.2163,8.082602560661176,-11.386619878597084,12.516206457350908,10.72989276020806
-0.196,0.9598,0.1307,-0.0626,0.2169,0.0544,-2.9575,1.8112,-15.1025,7.755437613611494,-11.429509723341184,13.151596862929235,10.742028506439661
-0.1932,0.9576,0.1282,-0.0638,0.2172,0.0522,-2.8525,1.26,-15.7675,7.625578748046199,-11.332431793482348,12.185556333585982,10.754155758710645
-0.1952,0.9597,0.1354,-0.0637,0.2156,0.0574,-2.625,1.0675,-15.96,8.029470759766436,-11.375834449791514,14.122501758140926,10.766232047217928
-0.1937,0.9626,0.1332,-0.0637,0.2156,0.0574,-1.61,1.12,-16.4937,7.878713128621442,-11.293924799295716,14.477163039048925,10.775591683987859
-0.1942,0.962,0.1364,-0.0634,0.2167,0.0552,-2.0475,1.155,-16.0037,8.06951838397932,-11.30105945034325,12.90841400251286,10.787785118368651
-0.192,0.9597,0.1347,-0.0634,0.2167,0.0552,-2.7562,1.2512,-15.47,7.989860603793583,-11.225242736951003,13.110037767281936,10.79985751381065
-0.1964,0.9543,0.1333,-0.061,0.2175,0.0551,-2.6863,1.26,-15.1812,7.951933655036241,-11.461778027101406,13.20739663262014,10.811883546384282
-0.2051,0.9566,0.1331,-0.0815,0.2167,0.0542,-2.0738,0.945,-14.8575,7.921286407888962,-11.877154165423445,10.718328193105298,10.824006197759932
-0.2037,0.9612,0.1285,-0.0626,0.2167,0.0542,-2.4237,0.5075,-14.9012,7.6154211268425325,-11.866111037933646,13.16584162959793,10.836250595904426
-0.204,0.9792,0.127,-0.0623,0.2168,0.0551,-2.0738,0.1663,-14.9537,7.390515485518014,-11.722328080562132,14.173370292232114,10.848296447719497
-0.1975,0.9725,0.1273,-0.0623,0.2168,0.0551,-1.925,-0.56,-15.2862,7.457411929563612,-11.490488798503092,14.17217460252915,10.86044281140187
-0.1911,0.9702,0.1283,-0.0622,0.217,0.0609,-2.0825,-0.8838,-15.7237,7.5329155331546005,-11.202431023521067,17.093433907406553,10.869756439218458
-0.1953,0.9676,0.1222,-0.0622,0.217,0.0533,-2.1088,-0.4288,-15.6712,7.1988286993022905,-11.28728595086187,13.804794071383194,10.881983141611666
-0.1904,0.9632,0.1279,-0.0627,0.216,0.0533,-3.2288,-0.49,-15.8375,7.562827050303073,-11.148121193586165,13.19952141780633,10.894146493215272
-0.1903,0.9574,0.1286,-0.0638,0.2167,0.0551,-3.3863,-0.385,-16.1,7.650052432485643,-11.145548350804727,13.718344135242942,10.90637248777843
-0.1903,0.9587,0.134,-0.0638,0.2167,0.0551,-3.1412,-0.21,-16.5812,7.955964225698402,-11.128469261784256,13.115109785766064,10.91847708948777
-0.1953,0.958,0.1324,-0.0623,0.2182,0.053,-2.0825,0.5163,-16.4762,7.868939938750216,-11.349505633886832,12.130148947419505,10.930527542198174
-0.2009,0.9626,0.124,-0.0623,0.2182,0.0537,-2.6688,0.4112,-16.17,7.341785057086874,-11.61205937219944,13.433132007038182,10.942687708566549
-0.1995,0.9626,0.1281,-0.0621,0.2187,0.0537,-2.485,0.7437,-15.1025,7.579544165378692,-11.609928440346497,12.967693331252264,10.954819915647894
-0.2012,0.9655,0.1239,-0.0639,0.2167,0.0546,-3.0275,0.3675,-14.735,7.313400309086121,-11.661718818628344,13.885477163344875,10.966840285581114
-0.205,0.9709,0.1241,-0.0639,0.2167,0.0546,-3.0013,0.4725,-14.0175,7.284106707260855,-11.78954775780413,13.87541610077692,10.976301849878448
-0.2056,0.9672,0.1219,-0.0626,0.2177,0.058,-3.2462,0.21,-13.6412,7.18362144618494,-11.879208714929604,15.775721494750533,10.988367167019934
-0.2064,0.9684,0.1228,-0.0626,0.2177,0.058,-3.9463,-0.105,-13.3875,7.226817321144997,-11.922563902235108,15.67765479557217,11.000545736969645
-0.2029,0.966,0.1243,-0.0613,0.2164,0.0545,-3.3425,0.2888,-13.6588,7.331943031590725,-11.805978184723486,14.106988461283134,11.012636182077957
-0.2037,0.9659,0.1214,-0.0622,0.2171,0.0554,-2.9225,-0.1225,-14.0,7.164182544114385,-11.814951189577153,14.688066849110827,11.025454276479127
-0.1947,0.9717,0.1225,-0.0622,0.2171,0.0554,-3.1325,0.0263,-13.9562,7.185183327154637,-11.394433060510387,14.922283519781432,11.038516218333012
-0.1905,0.9713,0.1163,-0.0615,0.2166,0.053,-3.2987,0.0788,-14.4112,6.828897186633109,-11.117286980424216,14.666609202703595,11.048992103094031
-0.1893,0.9697,0.1206,-0.0615,0.2166,0.053,-4.3225,0.7263,-14.5162,7.0886409359536025,-10.99790201013021,14.16135679014343,11.061186245304876
-0.1887,0.967,0.1272,-0.0628,0.2169,0.055,-4.8738,1.12,-14.0262,7.492560545380394,-10.959729014302017,14.179351932105133,11.070411394365037
-0.1896,0.9633,0.1212,-0.0629,0.2178,0.0563,-4.3137,0.8663,-13.5712,7.1720426481872295,-11.030398588688282,15.341716582668097,11.082559881537563
-0.1972,0.9593,0.1297,-0.0629,0.2178,0.0563,-4.4888,0.9887,-13.3175,7.6983578481330275,-11.412486513652798,14.064914090635606,11.094696335599217
-0.1962,0.954,0.1302,-0.0635,0.2168,0.0576,-4.6375,1.7237,-12.2587,7.771390120248368,-11.498402840123292,14.584370229143225,11.106771208446395
-0.1895,0.9537,0.1315,-0.0635,0.2168,0.0576,-4.2438,1.6712,-12.355,7.850445512884627,-11.202367601884253,14.609063785800297,11.118916864298717
-0.1898,0.9562,0.1271,-0.0633,0.2178,0.062,-4.3313,1.6887,-12.6087,7.572276800139019,-11.144510276114307,17.26987999448953,11.130969794414302
-0.1828,0.9575,0.1369,-0.0649,0.2176,0.0557,-4.4275,1.3562,-12.88,8.135201725556689,-10.788619831787376,13.02595126674312,11.143088906639694
-0.1789,0.9567,0.132,-0.0649,0.2176,0.0557,-4.095,1.9775,-13.475,7.8565377074548595,-10.545846836910787,13.68422861872099,11.155160594251642
-0.1823,0.9559,0.1374,-0.0632,0.2145,0.056,-3.4738,1.8463,-13.93,8.17869133115678,-10.66425345669803,13.601189047627782,11.164605170627743
-0.1817,0.9556,0.1385,-0.0632,0.2145,0.056,-3.5263,2.205,-14.0,8.246553664366058,-10.658278774082714,13.479570715851853,11.176646775462507
-0.1864,0.9551,0.1352,-0.0651,0.2154,0.055,-3.0538,2.1263,-14.56,8.057558031562587,-10.889527324518605,12.913473154990285,11.188740759721073
-0.1871,0.9561,0.1354,-0.0647,0.2171,0.057,-3.2025,1.9162,-14.6562,8.060447442307554,-10.952214060508805,13.787800290119202,11.200871551142315
-0.1878,0.9573,0.1393,-0.0647,0.2171,0.057,-2.8175,2.0038,-13.8687,8.278578231108455,-10.98039067824064,13.342228424065558,11.212999157328325
-0.1889,0.9553,0.1379,-0.0653,0.2161,0.0571,-2.8,1.8112,-14.3238,8.214234476704648,-11.056724014622793,13.507924246212752,11.225070844940273
-0.184,0.958,0.1382,-0.0653,0.2161,0.0571,-2.8788,2.1613,-14.77,8.208809175692851,-10.812949448836159,13.65543209514394,11.23719031108069
-0.1839,0.9572,0.1307,-0.0649,0.2162,0.0558,-2.8525,2.03,-14.14,7.776541126994831,-10.783769994331672,13.898397246267395,11.246553840915904
-0.1832,0.9617,0.1319,-0.0649,0.2162,0.0539,-2.555,2.0125,-14.7262,7.809467295147544,-10.70431520752909,12.904509901307263,11.258682862762017
-0.1801,0.9588,0.1375,-0.0649,0.2162,0.0539,-2.52,1.3912,-15.4,8.1600618564756,-10.56632483786204,12.256528226516382,11.270803390647513
-0.181,0.9648,0.1288,-0.0646,0.215,0.0562,-2.5463,1.3037,-16.24,7.605549105209353,-10.540425940311973,14.706731724411245,11.282919671552701
-0.1811,0.9624,0.133,-0.0646,0.215,0.0562,-3.2987,1.8987,-16.5462,7.867477405070116,-10.555694423580919,14.16760118368706,11.294971186008183
-0.1806,0.9578,0.1277,-0.0658,0.2147,0.0569,-2.7913,1.225,-16.6075,7.595023531006149,-10.58042009312649,14.922773607613978,11.307117195775529
-0.1806,0.9603,0.1272,-0.0649,0.2173,0.0534,-3.1675,1.8987,-16.3975,7.54553539244539,-10.564307551594231,13.137536584869807,11.31923489234082
-0.1757,0.9633,0.1293,-0.0649,0.2173,0.0534,-2.9925,2.4325,-16.695,7.644614733981737,-10.298094195131712,13.071638976044367,11.328581788169824
-0.1732,0.9649,0.1212,-0.0648,0.2166,0.057,-3.7275,2.3975,-16.6775,7.160737540407326,-10.130941415759938,16.05212867977094,11.340649936631515
-0.1687,0.973,0.128,-0.0648,0.2166,0.057,-4.1038,3.4388,-16.1437,7.493388298551364,-9.806197066557196,15.55933415601892,11.352743566975057
-0.1675,0.9733,0.1251,-0.0643,0.2164,0.0576,-4.9,4.935,-15.7937,7.324653950534087,-9.700268909191273,16.344750347866484,11.364851000004602
-0.1603,0.9748,0.125,-0.0643,0.2164,0.0576,-4.6988,6.5713,-15.0762,7.307291722139389,-9.30607980290373,16.619565080056706,11.37697542095538
-0.1545,0.9699,0.1277,-0.0648,0.2157,0.0539,-4.97,8.4525,-13.3875,7.500045200709405,-9.001826134193267,14.40175945218179,11.38906515823364
-0.1535,0.9624,0.1217,-0.0642,0.2153,0.0546,-5.0225,10.5262,-12.18,7.207900360209605,-8.992460359072519,15.508789857074545,11.401250806483866
-0.1458,0.9598,0.128,-0.0642,0.2153,0.0546,-5.3375,12.5212,-12.18,7.595102328370749,-8.589282070303668,14.915642888054641,11.413414512002499
-0.1269,0.95,0.1269,-0.0675,0.2149,0.0556,-5.3288,14.9187,-11.4537,7.608431718246536,-7.598306319985539,15.54287751354937,11.425578571436157
-0.1078,0.9528,0.1251,-0.0675,0.2149,0.0556,-4.1388,22.4263,-7.8575,7.480354796036791,-6.4462718145468125,16.503102002962237,11.434901401043414
-0.0855,0.9533,0.1365,-0.0648,0.2149,0.0558,-3.5088,28.4375,-5.1013,8.146721095057329,-5.116214787513231,16.423086803078668,11.44712668777652
-0.0688,0.9446,0.1384,-0.0674,0.2142,0.0493,-2.1525,35.4113,-2.0825,8.334966766183951,-4.147312839544089,12.062503684530435,11.459135732428916
-0.0672,0.9513,0.1198,-0.0674,0.2142,0.0493,-0.3063,43.1813,0.665,7.180888325907017,-4.012054942584408,15.02261681644754,11.471177691178704
-0.0856,0.9515,0.0967,-0.0704,0.2103,0.0454,1.4175,50.3387,3.465,5.806836751742269,-5.094093324161531,15.005120423957218,11.483222481248697
-0.0972,0.9558,0.1024,-0.0704,0.2103,0.0454,3.78,57.2075,9.7212,6.114225180284871,-5.762760117240397,13.947286452883652,11.495102700831737
-0.0941,0.9333,0.1002,-0.0752,0.2084,0.0368,6.5363,64.8725,19.5125,6.127821269173274,-5.725268602419395,8.511323746489317,11.504459506281462
-0.0484,0.8936,0.105,-0.0819,0.2033,0.0304,10.5875,75.4163,31.9988,6.700090035498354,-3.112555685204213,3.988684453255564,11.516594190767986
0.0182,0.8861,0.0919,-0.0819,0.2033,0.0304,16.485,89.39,44.2225,5.92322920396811,1.1244042414525421,6.7994227702450045,11.52865207569393
0.091,0.9443,0.0558,-0.0939,0.1977,0.0181,19.9237,105.7175,55.02,3.3885026453240386,5.4550165521713865,4.918230819029611,11.540678108267562
0.0734,0.9853,0.0345,-0.0939,0.1977,0.0181,23.94,121.5638,60.8125,2.0090097585355076,4.267337393078163,8.053956356367928,11.552831550250449
0.0298,0.985,0.0137,-0.1054,0.1905,0.0071,26.0312,134.82,62.5537,0.800021407141652,1.7510090133262988,2.561934592817081,11.56495490945615
-0.0097,0.973,0.0082,-0.1204,0.183,-0.012,27.2912,144.8387,63.1837,0.4836772111483909,-0.5555252128882224,6.317019160390269,11.577183027509461
-0.02,0.9709,-0.0049,-0.1204,0.183,-0.012,29.295,151.6725,63.6388,-0.28715939855980804,-1.1760611591302224,5.099249164766911,11.589487237293302
0.0051,0.9756,-0.0216,-0.1389,0.1782,-0.0282,34.0988,164.255,70.2275,-1.2658234147998146,0.29065873445902496,9.96549406641596,11.60159431640782
0.0161,0.9816,-0.0338,-0.1389,0.1782,-0.0282,35.3587,170.415,74.5413,-1.9703180489109589,0.9353898314348953,9.21375300098103,11.611122770645014
0.0215,0.9773,-0.049,-0.1588,0.1698,-0.0425,37.4238,175.6825,76.2475,-2.86801659307103,1.256886466777742,12.35119995047343,11.623363983554277
0.0137,0.9713,-0.0651,-0.1801,0.1647,-0.0594,40.4425,178.7012,75.9063,-3.8319999487713114,0.808753222908997,15.18896751899,11.635590685947486
0.0117,0.9625,-0.085,-0.1801,0.1647,-0.0594,43.33,180.4337,74.76,-5.043757621492932,0.6943689248530035,14.08898659384682,11.647776334197713
0.0239,0.9808,-0.0992,-0.2022,0.1615,-0.0746,45.4825,181.4487,73.6663,-5.773546429195541,1.3850672516066664,16.312404832260178,11.660076650916269
0.0434,1.0,-0.1019,-0.2022,0.1615,-0.0746,46.83,183.1375,73.2113,-5.818245834774924,2.466473710781343,16.541651275124686,11.672253097375828
0.0488,1.0128,-0.1124,-0.2238,0.1591,-0.0915,48.0812,184.205,72.8175,-6.331469728713404,2.7402923751480386,18.80606251845493,11.684505989480938
0.0572,1.0158,-0.1268,-0.2484,0.1577,-0.1034,47.8362,184.38,71.6188,-7.113359659350406,3.195736648674338,19.197974862870424,11.696826125440934
0.0825,1.0013,-0.1327,-0.2484,0.1577,-0.1034,47.5475,183.8725,69.2563,-7.548207930942938,4.661626320082473,19.284587982211452,11.708844725799025
0.0999,1.0172,-0.1386,-0.2738,0.155,-0.1175,48.965,182.8575,64.8638,-7.7586134143743015,5.553240283863192,20.4492866034567,11.721078152577723
0.1114,1.0248,-0.1365,-0.2738,0.155,-0.138,47.6175,183.4962,64.12,-7.58737721688475,6.146847932741764,24.620296561592863,11.733329982937757
0.1117,1.0232,-0.1435,-0.2965,0.1545,-0.1231,47.0138,183.6625,63.3937,-7.98246877735751,6.170117408277084,19.968402114004515,11.745533326939269
0.1034,0.9789,-0.1391,-0.323,0.1564,-0.1373,46.165,182.35,62.4663,-8.087226755518374,5.971263790543867,20.59810284399512,11.757727823065139
0.12,0.9708,-0.1382,-0.323,0.1564,-0.1373,47.4337,179.6463,61.5913,-8.10197070633209,6.971432830715616,20.822758892092818,11.76996089592881
0.1321,0.9696,-0.1285,-0.347,0.1573,-0.1411,48.1162,177.4062,59.8413,-7.550716872953291,7.687893179422763,20.401620789745913,11.782197861857764
0.1422,0.9634,-0.1183,-0.3726,0.1596,-0.1504,49.2363,175.4987,59.6138,-7.001903313284392,8.331039888765156,20.72914493782229,11.794436951276873
0.153,0.9602,-0.1128,-0.3726,0.1596,-0.1504,50.89,172.7425,59.2638,-6.70088300845808,8.988935686446704,21.006534074194015,11.806608796841097
0.1679,0.9572,-0.1196,-0.3976,0.1626,-0.1598,52.8237,169.0937,58.1,-7.1210410403956494,9.868529852254033,20.99557723430684,11.818819219143123
0.1905,0.9607,-0.128,-0.3976,0.1626,-0.1598,54.5213,165.0162,53.3575,-7.588035799185633,11.11265315676029,21.092998441076713,11.83110714883578
0.2179,0.9871,-0.1304,-0.4216,0.1654,-0.1595,54.775,157.5,49.0175,-7.525587171103442,12.33671522038607,20.129176252507985,11.843231569786559
0.234,1.0133,-0.1316,-0.4431,0.169,-0.1693,52.9375,154.5425,47.915,-7.400046300098537,12.89508086613468,20.556947023984325,11.85278585982063
0.2083,1.0148,-0.1347,-0.4431,0.169,-0.1693,49.0875,150.7362,45.71,-7.560589930356287,11.510404049763393,20.169676120171275,11.864959828875007
0.2183,1.0188,-0.1293,-0.4652,0.1729,-0.1717,45.9813,146.4837,42.9538,-7.233782278250896,11.997288425530442,19.702512972726392,11.877247758567664
0.2128,1.0107,-0.1329,-0.4652,0.1729,-0.1717,42.8488,141.3475,40.4687,-7.490374560133219,11.792598069192005,19.556173115353943,11.889427390262453
0.2175,1.0086,-0.1282,-0.4872,0.1773,-0.1734,38.5962,135.345,36.68,-7.244467228039354,12.072926102633955,18.98376565214203,11.901573046114775
0.2237,1.0138,-0.1152,-0.5026,0.1807,-0.1744,34.0988,129.675,33.0925,-6.484768968700775,12.3639011463304,18.832022261299798,11.913831954775324
0.2355,1.0048,-0.1007,-0.5026,0.1807,-0.1744,28.3762,123.3575,29.6625,-5.724991651696693,13.121141430149876,19.275155203482633,11.926078476409971
0.2533,0.9971,-0.09,-0.5211,0.1851,-0.1714,23.4237,117.6875,26.0662,-5.159133891628518,14.189474324795736,18.661638180580233,11.938269433385583
0.2618,0.9876,-0.0847,-0.5211,0.1851,-0.1714,19.1275,105.4638,19.0137,-4.902574222463242,14.789428492714777,18.884409889345914,11.95050462973941
0.2627,0.9802,-0.0705,-0.5355,0.1854,-0.1695,11.5587,101.3425,15.1025,-4.116004857307526,14.96446420495988,18.46652864097714,11.962671874408299
0.2575,0.9443,-0.0554,-0.5478,0.1886,-0.1663,7.8838,95.69,10.7012,-3.359648711115901,15.225448576021797,18.01410010586406,11.974788863143537
0.2679,0.9432,-0.0429,-0.5478,0.1886,-0.1663,4.8738,90.7988,5.8187,-2.6063047222219913,15.834239661852836,18.40457412056178,11.986895234428005
0.2743,0.9468,-0.0323,-0.5559,0.189,-0.1604,1.5925,86.7738,2.3712,-1.9557036572795767,16.14460423509797,17.77657354470383,11.99888127460373
0.264,0.9371,-0.0294,-0.5559,0.189,-0.1604,-1.9775,83.1863,0.6563,-1.797420642863266,15.7310573960247,17.743185396766584,12.008278426366386
0.2461,0.9244,-0.0118,-0.5663,0.1887,-0.1601,-3.745,79.3888,-0.8925,-0.7343633462735424,14.916635493135107,17.563239386538,12.02042231264358
0.2412,0.9204,-0.0009,-0.574,0.1893,-0.1523,-5.6788,75.5125,-1.5575,-0.05795824651600697,14.687633854971477,16.694347909747083,12.032605837403652
0.2373,0.9318,0.024,-0.574,0.1893,-0.1523,-7.5163,70.5688,-1.6362,1.4710271038706206,14.288608646986681,17.106090138293688,12.044757863726435
0.241,0.9299,0.0313,-0.5822,0.1888,-0.1446,-9.2837,65.6863,-2.0038,1.9265065782036197,14.518305152648407,16.253644479966127,12.05678035714981
0.2323,0.9204,0.0364,-0.5822,0.1888,-0.1446,-11.8475,60.2962,-2.485,2.2637737332533026,14.160127412551748,16.294981374896533,12.068980162001065
0.2192,0.9174,0.0519,-0.5885,0.1904,-0.1442,-12.4075,55.1338,-2.9575,3.2351089855245125,13.430017802596677,16.26794952171029,12.081134665729028
0.2169,0.9195,0.058,-0.5937,0.1892,-0.1402,-12.7312,49.28,-3.885,3.6082197205300104,13.250860885706247,15.797831129254767,12.093323145299461
0.226,0.9294,0.0751,-0.5937,0.1892,-0.1402,-14.525,36.925,-3.0538,4.616781839316095,13.61528989229256,16.14883595276285,12.10548295775281
0.2406,0.9228,0.0792,-0.5983,0.1887,-0.1346,-15.7675,31.1413,-3.6488,4.9045854985173944,14.53492003976898,15.694803058846276,12.114848611078179
0.2515,0.9112,0.0663,-0.5983,0.1887,-0.1346,-16.6513,25.1825,-5.0575,4.163760545659791,15.36168199042756,15.610522531587877,12.12703638281856
0.2749,0.9046,0.0662,-0.6017,0.1886,-0.1302,-16.6688,20.2388,-8.1375,4.18546674600568,16.79857448536825,15.326534926885017,12.139218845833554
0.294,0.913,0.0684,-0.6046,0.1866,-0.1309,-17.3512,15.8987,-10.2987,4.284181220394543,17.75155817816803,15.477608799182706,12.1514515647822
0.2904,0.9238,0.0892,-0.6046,0.1866,-0.1309,-19.11,11.725,-10.92,5.511604105808046,17.39914869787943,15.757581897116467,12.163615624215858
0.2793,0.9016,0.1089,-0.6031,0.1874,-0.1337,-19.9675,8.19,-9.8525,6.8830385194351145,17.12057467343486,16.42526493593729,12.175703238003962
0.2799,0.8735,0.1244,-0.6031,0.1874,-0.1224,-20.195,4.0775,-8.8812,8.101674424602418,17.539547152772993,15.732269223233523,12.187825181549561
0.2869,0.8358,0.1329,-0.6045,0.1869,-0.1224,-20.2213,-0.8487,-10.2637,9.032150641672821,18.319403346726396,16.131523445062733,12.20006250139354
0.3134,0.8143,0.1341,-0.6042,0.1858,-0.1235,-18.0163,-5.7488,-13.1862,9.350665968957832,20.17364829528532,16.697368207905786,12.212266553225104
0.3797,0.8459,0.1337,-0.6042,0.1858,-0.1235,-15.3475,-8.6625,-16.9312,8.982750674815957,23.369297559424695,17.266297847202186,12.224483345997593
0.3853,0.8555,0.139,-0.604,0.1854,-0.125,-12.985,-10.9637,-20.0375,9.227947364850017,23.902532637444875,17.496285536891243,12.236769152200095
0.3809,0.841,0.1412,-0.603,0.1858,-0.1246,-12.8887,-10.9725,-21.7,9.529924093862254,24.05045940577226,17.60296380518395,12.249052834912444
0.3773,0.8122,0.1265,-0.603,0.1858,-0.1246,-11.4012,-10.675,-22.7938,8.854642798736032,24.587565717523443,17.558960168674645,12.261331562814432
0.4194,0.8297,0.1131,-0.6012,0.1834,-0.1237,-9.0125,-9.2925,-24.6138,7.765533918914208,26.336295934826982,17.629023705684528,12.273473679516496
0.4147,0.8562,0.1138,-0.6012,0.1834,-0.1237,-7.385,-6.7463,-23.8612,7.571529099842211,25.78524373255171,17.33265294854274,12.285543597553316
0.3993,0.8621,0.1254,-0.5982,0.1834,-0.1243,-7.1138,-3.3075,-21.175,8.274114035593454,25.37565333222738,17.438331372015554,12.295056125614353
0.3788,0.849,0.1265,-0.6005,0.1831,-0.1246,-6.9038,-1.2075,-19.2675,8.474083100826693,24.423949100667347,17.254088857336697,12.307213106747497
0.3665,0.828,0.1197,-0.6005,0.1831,-0.1246,-6.02,-0.9363,-18.3838,8.22669493472165,23.92851419914149,17.151056759930754,12.319593054346837
0.3831,0.8267,0.1127,-0.5966,0.1818,-0.1244,-3.2987,-0.5775,-19.3987,7.764313099494632,24.43223119496299,17.31913438807367,12.331533793399274
0.3792,0.8411,0.1086,-0.5966,0.1818,-0.1244,-1.3475,-0.035,-21.5075,7.358280271978077,24.182317051008454,17.072193227258552,12.343791640314745
0.3707,0.8581,0.1101,-0.5966,0.1818,-0.1229,-0.8663,2.345,-21.63,7.311617849607644,23.35629710386646,16.697514893265787,12.355816611143299
0.3647,0.8691,0.1135,-0.5961,0.1806,-0.1245,-0.5688,3.6225,-19.88,7.440064901881513,22.69550404928397,16.754379899191015,12.367855738572882
0.3589,0.868,0.0979,-0.5961,0.1806,-0.1245,-0.6125,4.6287,-17.9375,6.437904401553808,22.37927717697378,16.420886907016495,12.380019090176487
0.3738,0.8596,0.107,-0.5943,0.1823,-0.124,-0.3675,4.8387,-17.6925,7.093636255987423,23.22946630305327,16.86871249342743,12.392062110671352
0.3788,0.8672,0.1003,-0.5943,0.1823,-0.124,0.455,5.53,-18.1037,6.598881396399819,23.43230747499914,16.753321566709396,12.401381401128353
0.371,0.877,0.0997,-0.5943,0.181,-0.1199,-0.07,6.2913,-18.1387,6.486029580131766,22.86133134280661,16.10504712821264,12.413578020744376
0.3685,0.8889,0.1013,-0.5948,0.181,-0.1229,-0.3325,6.4837,-18.1737,6.5013972160441025,22.43269532928042,16.327880533520627,12.425614316853753
0.362,0.8894,0.1024,-0.5948,0.181,-0.1229,-0.3938,6.7638,-17.78,6.567576037296233,22.055307225699195,16.269467159094685,12.437723873373452
0.3647,0.8811,0.1022,-0.5963,0.1818,-0.1238,-0.5163,7.1138,-18.025,6.616113599479231,22.32326531048335,16.42376881717572,12.449846170834077
0.373,0.8794,0.098,-0.5963,0.1818,-0.1238,-1.5837,6.3088,-19.7575,6.35950820343492,22.804484425754673,16.459041649481527,12.461967052634597
0.3709,0.8821,0.0935,-0.5955,0.1806,-0.1227,-2.0475,6.6763,-21.21,6.051462037183971,22.70217976373598,16.212603807338173,12.473981759927407
0.3658,0.892,0.0981,-0.595,0.1803,-0.1178,-1.6712,7.2013,-21.8487,6.275396674944676,22.225245010505017,15.654633061316538,12.483423858898327
0.3603,0.8983,0.1,-0.595,0.1803,-0.1178,-1.8375,7.9538,-21.945,6.3518762231033685,21.7755977516969,15.58768268814828,12.495567391260494
0.358,0.8908,0.1042,-0.5944,0.1806,-0.1237,-3.5613,8.0325,-22.1112,6.670863181877143,21.761435792837332,16.33207068070378,12.507632000571927
0.368,0.8753,0.1064,-0.5944,0.1806,-0.1237,-4.2962,7.7175,-23.66,6.930037471363801,22.575761598210036,16.592504263817492,12.51973058572583
0.3819,0.8658,0.1064,-0.593,0.1802,-0.1184,-4.13,7.7525,-25.62,7.005855588895722,23.551111307389796,16.29227387323418,12.531817137768856
0.3878,0.8628,0.108,-0.593,0.1802,-0.1184,-3.9113,7.245,-27.7812,7.134458355146607,23.992153006869128,16.415603932512102,12.543942266549687
0.3789,0.8551,0.1068,-0.5919,0.1776,-0.1194,-4.41,7.9625,-29.925,7.119286744344238,23.756572273524966,16.415783269189802,12.556209315255826
0.3649,0.8545,0.1116,-0.5902,0.1767,-0.1214,-3.78,8.12,-31.1763,7.43995613902212,23.017524807407046,16.575873758947836,12.565421015545011
0.3345,0.8628,0.1169,-0.5902,0.1767,-0.1214,-3.2288,7.8838,-31.8062,7.715187223967174,21.187702900673166,16.25447332803656,12.577524909424298
0.326,0.8611,0.1265,-0.5876,0.175,-0.1219,-2.4675,8.0062,-31.6925,8.355453336527088,20.58973675888841,16.414182439081415,12.589617124107736
0.3156,0.8646,0.1194,-0.5876,0.175,-0.1219,-1.8812,7.3938,-31.6138,7.864120029662644,19.943266688444375,16.161225496604015,12.601729158032615
0.3138,0.8702,0.1188,-0.5862,0.1742,-0.1295,-0.8575,7.42,-31.6837,7.774233697020615,19.68663400149042,16.90044049311968,12.613839776297391
0.3132,0.8756,0.1184,-0.5824,0.1731,-0.1217,0.1138,6.4663,-31.8937,7.701120249200048,19.534456930749865,16.135209922849313,12.625918542209853
0.3023,0.88,0.1063,-0.5824,0.1731,-0.1217,-0.1225,6.1687,-31.8325,6.889979501167504,18.902384287216915,15.79633826667022,12.637984213266364
0.298,0.8874,0.1072,-0.5804,0.1724,-0.1213,0.07,5.5388,-31.8675,6.888092741995772,18.48775188306027,15.727018780507782,12.647299964573106
0.2915,0.8952,0.1029,-0.5804,0.1724,-0.1213,0.7263,5.215,-31.3075,6.558090155833948,17.988714732762517,15.55137809559076,12.659365635629618
0.2871,0.8994,0.0981,-0.5794,0.1726,-0.1198,1.4437,5.25,-29.575,6.225729463210579,17.648318338180296,15.284321604406303,12.671406532634329
0.2912,0.9049,0.0996,-0.5774,0.1708,-0.1248,0.8663,5.1275,-28.4025,6.280959748374036,17.727917094647886,15.860488696397532,12.683416285116778
0.2939,0.9019,0.0952,-0.5774,0.1708,-0.1248,0.2713,4.6725,-26.285,6.026255599270634,17.928793771990748,15.830141691684872,12.695502483244779
0.2915,0.9051,0.0933,-0.5743,0.1706,-0.1229,0.0788,4.34,-25.7512,5.885801425883288,17.784080297497137,15.645386634461058,12.707562491660878
0.2926,0.9076,0.0935,-0.5743,0.1706,-0.1229,-0.1138,4.3488,-25.7512,5.8818132178281095,17.781031611876735,15.647147009154386,12.716922482345835
0.2844,0.9072,0.088,-0.5728,0.1694,-0.1199,-0.595,4.095,-25.2087,5.541416247988466,17.386842151148304,15.183376505211882,12.729056812917333
0.2778,0.9077,0.0895,-0.5731,0.171,-0.1221,-1.295,3.6225,-24.8675,5.630958400280853,16.9998423896436,15.397355965002768,12.741117175248458
0.2778,0.9079,0.0888,-0.5731,0.171,-0.1221,-1.5662,3.5613,-24.465,5.586350739258041,16.945532247087687,15.384880962205177,12.753211159507025
0.2822,0.9096,0.0861,-0.571,0.1694,-0.1226,-2.0825,2.9925,-24.1238,5.407839543122789,17.131761277437892,15.454626109214772,12.765331333477496
0.2844,0.9141,0.0885,-0.571,0.1694,-0.1226,-2.52,3.5,-24.7012,5.529599210826064,17.196284487365144,15.494846054400591,12.77744619872258
0.2743,0.9168,0.0927,-0.5698,0.1682,-0.1277,-2.4237,3.0363,-24.465,5.77301133257963,16.668049950092566,16.001334590796006,12.789539829066122
0.2668,0.9185,0.0917,-0.5698,0.1682,-0.1277,-2.0563,2.9313,-24.0538,5.701530791032847,16.20292571000231,15.908830895196633,12.798888494470255
0.2613,0.9197,0.094,-0.5685,0.1686,-0.122,-2.6338,2.625,-23.4062,5.8353999182642875,15.8483354327189,15.343312320574794,12.811007606695648
0.2645,0.9223,0.0928,-0.5674,0.1671,-0.1222,-3.0013,1.1462,-22.7763,5.745904079109591,15.909929574171386,15.36472397781587,12.823131319816376
0.2779,0.9281,0.0914,-0.5674,0.1671,-0.1222,-2.135,0.1925,-22.6275,5.624739128546608,16.420579759304644,15.437041948095615,12.835163015030417
0.285,0.9275,0.0925,-0.5649,0.1668,-0.1209,-3.3513,-0.0088,-22.33,5.695102339410892,16.846794471646188,15.449276127646593,12.847397503554193
0.2859,0.9209,0.0925,-0.5649,0.1668,-0.1209,-3.6225,0.245,-20.44,5.735733093062979,17.08639386978673,15.486884866517958,12.859495734793068
0.2836,0.9145,0.09,-0.5643,0.1666,-0.1286,-3.955,0.315,-20.2038,5.620958612574445,17.135512302085985,16.281912511092457,12.87162900361949
0.2902,0.9139,0.095,-0.5642,0.1647,-0.1214,-4.0513,0.8575,-19.3375,5.933698518528088,17.443135367494417,15.631150513747718,12.883746346269755
0.293,0.9164,0.094,-0.5642,0.1647,-0.1214,-3.5525,1.96,-19.3725,5.856866342042051,17.608742836396285,15.629394894005582,12.893121555300816
0.2967,0.9147,0.0964,-0.5643,0.166,-0.1217,-4.0862,2.4763,-18.8825,6.0157275104693815,17.835490589574597,15.766576823574638,12.905153250514859
0.3007,0.9071,0.0949,-0.5643,0.166,-0.1217,-3.9375,2.8525,-18.9875,5.972629534278588,18.18497041000004,15.81812013368151,12.917301029857335
0.3061,0.9084,0.0997,-0.5621,0.1642,-0.1198,-4.2,3.2113,-19.5912,6.26251392889706,18.47068821984892,15.764084376651795,12.929392890625747
0.3146,0.9109,0.1045,-0.5626,0.1632,-0.1214,-4.4187,4.13,-20.6937,6.54365851584746,18.878991010109207,16.045779596953096,12.941472364368261
0.3187,0.9011,0.0983,-0.5626,0.1632,-0.1214,-4.2263,4.9963,-22.33,6.226616821598259,19.315106351185623,16.0407346160804,12.953690218885827
0.3193,0.8943,0.1047,-0.561,0.1638,-0.1211,-4.3137,5.46,-24.885,6.676215211697128,19.502572967792652,16.215581780152476,12.965698201793147
0.3236,0.8896,0.1014,-0.561,0.1638,-0.1211,-4.5062,5.6,-28.0175,6.503219092193568,19.83147428908173,16.233945360798455,12.97774546926832
0.3257,0.891,0.1046,-0.558,0.1641,-0.1216,-4.1213,5.4163,-31.3687,6.695112775680323,19.94019284810402,16.453221781404597,12.987205971820579
0.3185,0.8954,0.1058,-0.5583,0.1621,-0.1198,-3.8063,5.6963,-34.1425,6.738670166570234,19.506960471408032,16.119613169118033,12.999257132361036
0.3152,0.8939,0.1145,-0.5583,0.1621,-0.1198,-3.8413,7.0088,-36.2337,7.297703009139464,19.29881995824155,16.230779357405844,13.011351470534628
0.309,0.8987,0.1151,-0.5531,0.1594,-0.1199,-3.7713,8.2512,-40.915,7.298359434775651,18.87053644248426,16.253998236741737,13.023461380969353
0.3168,0.8941,0.1249,-0.5531,0.1594,-0.1199,-3.1412,8.33,-43.3825,7.950538928885004,19.298202459737578,16.506859641901457,13.035629333468293
0.3186,0.8914,0.1195,-0.5466,0.1599,-0.1213,-2.205,8.4175,-47.2938,7.636367436377686,19.489398837530096,16.829713783366874,13.047674477453313
0.3116,0.8943,0.1197,-0.5417,0.1545,-0.1197,-1.3125,8.7237,-51.975,7.623633725580856,19.08731647377791,16.583690912052894,13.059788634868346
0.295,0.8938,0.1281,-0.5417,0.1545,-0.1197,-0.3413,8.4,-56.2975,8.154632504777284,18.174652802568428,16.54350165875375,13.069194634506646
0.2306,0.8741,0.1205,-0.5355,0.1545,-0.1202,-0.0175,7.0875,-61.0838,7.849955463016151,14.97144776578573,16.166241907983203,13.081281186549672
0.2156,0.8799,0.1167,-0.5355,0.1545,-0.1202,1.4962,5.4163,-65.1263,7.555796328800846,13.796447073515994,15.951636291756394,13.093268996300527
0.2147,0.9051,0.1083,-0.5272,0.1503,-0.1238,2.765,3.8413,-68.6263,6.82534004158302,13.324813053827512,16.27138981730333,13.105331836036832
0.2052,0.9331,0.1053,-0.5272,0.1488,-0.1258,2.0738,4.235,-68.8538,6.439646542433706,12.45158094486399,16.23845669097003,13.117414848929602
0.1801,0.944,0.1125,-0.5188,0.1488,-0.1258,0.7437,4.76,-67.1038,6.795101859897529,10.929519686716816,16.376034726520068,13.129467779045187
0.1434,0.9428,0.1168,-0.5122,0.1458,-0.1217,0.5862,5.635,-64.5313,7.061431439213038,8.833394066022151,15.894707802545653,13.138933590322832
0.0768,0.9202,0.1254,-0.5122,0.1458,-0.1217,0.3588,5.145,-61.3638,7.758207743240905,5.188331475452293,15.674140463049756,13.150799653304842
0.0613,0.908,0.1215,-0.5025,0.145,-0.1238,1.05,3.43,-58.7388,7.621889964433832,4.017322081055575,16.064859792786184,13.162841965969655
0.0628,0.9195,0.1013,-0.5025,0.145,-0.1238,2.7562,1.4875,-56.7962,6.290555146552665,3.909147578638173,15.75385980263101,13.174915777071757
0.0767,0.9515,0.0993,-0.4984,0.1434,-0.1282,5.04,-0.1138,-53.9875,5.958827628455749,4.3989185135813225,16.314594262262162,13.18704161368264
0.0774,0.9805,0.0927,-0.4934,0.142,-0.1252,4.1475,-0.07,-44.8875,5.402441616921222,4.467939062159995,15.98656191847541,13.199148692797158
0.0664,0.9921,0.1026,-0.4934,0.142,-0.1252,2.0038,1.7062,-39.4538,5.902968549464209,3.9293075291962705,16.04596837879047,13.208423036045891
0.047,0.9703,0.0981,-0.4869,0.1417,-0.1247,0.945,1.89,-35.0262,5.7735067157246,2.9661429194554865,16.070468394997754,13.220481628801888
0.0483,0.9483,0.0924,-0.4869,0.1417,-0.1247,1.1812,0.98,-32.13,5.565772975593536,2.915541842214041,16.031871692672773,13.232527834531986
0.0605,0.9472,0.0824,-0.483,0.1407,-0.1303,2.3625,-0.1138,-31.2112,4.9734830173134315,3.442127663233348,16.68231751231868,13.244658979868252
0.0737,0.9799,0.08,-0.4804,0.1399,-0.1287,3.08,-0.7962,-30.8787,4.668183436453613,4.002172196262362,16.568469168712408,13.256727128329944
0.0827,1.0049,0.0817,-0.4804,0.1399,-0.1287,2.52,0.35,-28.6825,4.648072880200046,4.522176230621031,16.602617578917688,13.268797046366762
0.0597,0.9909,0.0818,-0.479,0.141,-0.1277,1.3125,1.4262,-26.075,4.718937362366894,3.645454588550428,16.449073273746578,13.278109612438273
0.0554,0.9857,0.0796,-0.479,0.141,-0.1277,-0.0175,1.3912,-22.1987,4.617176232651538,3.291621946354351,16.402591804503903,13.290200765376635
0.061,0.9882,0.0783,-0.4775,0.1413,-0.1291,-0.1663,1.5575,-20.1425,4.530608008953807,3.478115369423656,16.61891888327531,13.3022933339751
0.0607,1.0028,0.07,-0.4775,0.1397,-0.1263,-0.2975,1.1725,-17.675,3.994537077256961,3.460105431729522,16.14771209786325,13.314389087808797
0.0661,1.0137,0.0833,-0.478,0.1397,-0.1263,-0.9887,1.6625,-14.42,4.6957040632094245,3.6706955710561355,16.33122044934681,13.326569427333636
0.0592,1.0148,0.0884,-0.4767,0.1406,-0.1286,-2.4588,1.4262,-12.4075,4.977713213520159,3.3925064986959965,16.675564114017785,13.338641114945585
0.0572,0.9715,0.0844,-0.4767,0.1406,-0.1286,-4.4888,1.2163,-11.2437,4.965195414224672,3.3640972118310026,16.675319093914027,13.350688028505733
0.0692,0.9642,0.0785,-0.4791,0.1395,-0.1293,-4.4975,0.14,-10.815,4.655332118853633,3.905138685043879,16.652300839710115,13.362773164888658
0.0794,0.983,0.0798,-0.4791,0.1395,-0.1293,-3.6225,-1.1725,-10.71,4.641137790975319,4.333457966469202,16.69838033814479,13.37228604686472
0.0812,0.9932,0.0833,-0.4791,0.1417,-0.1306,-4.9875,-1.75,-9.38,4.79375994561766,4.496525174121862,16.913248710262806,13.3844104678155
0.0723,0.99,0.0895,-0.4828,0.1426,-0.1284,-5.285,-2.2225,-8.1375,5.164669081459595,4.378539763141661,16.599016978082542,13.396508699054376
0.0795,0.9481,0.0947,-0.4828,0.1426,-0.1284,-5.6963,-2.87,-7.945,5.7024748157354574,4.416522804024334,16.79068854056929,13.408515266301592
0.0913,0.9373,0.0902,-0.4846,0.141,-0.1277,-5.0575,-4.3137,-8.05,5.497451850670813,5.098465265549615,16.657631484688906,13.420650658618168
0.1153,0.9448,0.0902,-0.4846,0.141,-0.1277,-3.6488,-4.76,-8.9425,5.453620604480753,6.3167207835955255,16.79421901166113,13.432776849144075
0.1258,0.9517,0.0871,-0.4821,0.1398,-0.1238,-2.8263,-4.8475,-9.5812,5.2298016886240655,7.115763794843379,16.430409431950853,13.444900562264802
0.1272,0.9576,0.0933,-0.4854,0.1413,-0.1283,-2.66,-4.1912,-9.5375,5.563879024848837,7.360138901269171,16.93338338934383,13.454286388746635
0.1305,0.9376,0.1022,-0.4854,0.1413,-0.1283,-2.4938,-4.0513,-9.625,6.218923686135302,7.651607766495243,17.130710926943923,13.4664037313969
0.1343,0.9198,0.0979,-0.4843,0.143,-0.1291,-2.5813,-4.3925,-11.0862,6.075875673684516,8.029328117563926,17.298129229546966,13.478517180981882
0.1505,0.9152,0.0936,-0.4843,0.143,-0.1291,-2.2488,-4.375,-12.88,5.840159189100878,8.807964873272994,17.369426575363068,13.490714508427956
0.1633,0.9422,0.0822,-0.4884,0.1428,-0.1278,-1.1725,-3.92,-14.8487,4.988412143499029,9.33818173229231,16.932697527004866,13.502891308802539
0.1603,0.9768,0.0824,-0.4874,0.1425,-0.1299,-0.7875,-2.0738,-15.1637,4.822356682045563,9.317382343980777,17.09396649109905,13.51496122683936
0.1183,0.9428,0.0908,-0.4874,0.1425,-0.1299,-2.695,0.6212,-12.495,5.49920777722506,7.620764482885863,17.000177518073972,13.527086709535215
0.1057,0.9243,0.0952,-0.4863,0.1404,-0.1297,-2.9575,2.1088,-12.5738,5.87947172144118,6.682417368797296,17.00501443050992,13.539218562701533
0.1144,0.9176,0.0922,-0.4863,0.1404,-0.1297,-2.135,1.54,-12.7925,5.738193394005328,6.997981694450292,17.034823224590447,13.55134723063262
0.1244,0.9353,0.0874,-0.4844,0.1417,-0.1272,-1.8288,0.8225,-13.615,5.339681843407173,7.4246754383697455,16.796977132825713,13.56064599401813
0.1294,0.9598,0.0881,-0.4846,0.1419,-0.1316,-1.4962,1.155,-14.2625,5.244749106569559,7.601423911833616,17.275248152529397,13.572773600204139
0.1288,0.9611,0.0878,-0.4846,0.1419,-0.1316,-2.17,0.9013,-14.6387,5.219761562298394,7.601583176950509,17.26426088013786,13.584938013552822
0.1175,0.9602,0.0871,-0.484,0.1432,-0.129,-2.0563,0.875,-15.6887,5.18323369253287,7.089228029854291,16.928685307993327,13.596994482818666
0.115,0.9668,0.0918,-0.484,0.1432,-0.129,-2.8,0.6563,-16.5812,5.423430143326671,6.829336691249839,16.96603326759628,13.609061569535278
0.1094,0.9674,0.0863,-0.4853,0.1444,-0.1224,-4.0075,0.0788,-16.9312,5.098681717603878,6.531497608693841,16.08332974870995,13.621256773491199
0.1058,0.9658,0.0913,-0.4858,0.1425,-0.1277,-5.1887,-0.0875,-17.1675,5.399437191071365,6.307743492752661,16.68615227951164,13.633379424866849
0.1125,0.9623,0.0967,-0.4858,0.1425,-0.1277,-5.7488,-0.2013,-17.4212,5.737333220233257,6.543043328419471,16.81330979045894,13.645528619869427
0.1149,0.9513,0.0978,-0.4846,0.1412,-0.1294,-6.1863,-0.595,-17.115,5.869389726479919,6.753895407311773,17.078802860974772,13.657640299879281
0.1193,0.9498,0.1025,-0.4846,0.1412,-0.1294,-5.6613,-1.05,-16.8525,6.158551466708965,6.983929501621568,17.177775195251638,13.667120621672979
0.1231,0.9514,0.096,-0.4838,0.1412,-0.1239,-5.285,-1.61,-16.5637,5.7629959649109574,7.17221558802372,16.51832441004507,13.679276894976072
0.1202,0.9517,0.1017,-0.4839,0.1438,-0.1284,-4.795,-2.6075,-16.6688,6.098603767315557,7.170313307101646,17.122623072333326,13.691456880585886
0.1197,0.952,0.1001,-0.4839,0.1438,-0.1284,-4.935,-2.415,-17.7625,6.002700193190995,7.159302694870364,17.095857440700335,13.703597581627847
0.117,0.9475,0.1107,-0.4831,0.141,-0.1284,-4.3488,-2.3013,-18.8913,6.661994396295415,7.106607404100042,17.220031542934418,13.715946030789901
0.1165,0.9403,0.0941,-0.4831,0.141,-0.1284,-5.6175,-2.3013,-18.795,5.717514010221752,7.081803606599429,16.99827416243038,13.727910836064083
0.0967,0.9326,0.0865,-0.4832,0.1426,-0.1255,-7.3063,-0.5163,-18.4713,5.3003029114229285,6.260362416468814,16.469550109698556,13.74006427804697
0.0795,0.9252,0.0819,-0.4827,0.14,-0.1257,-7.7263,-0.1575,-17.185,5.0594089794942505,5.271710475338893,16.313496733835866,13.752269745538637
0.0723,0.946,0.085,-0.4827,0.14,-0.1257,-8.6712,-0.63,-13.9038,5.134137954232135,4.646281492131686,16.280478832932562,13.764429911907012
0.1152,0.9617,0.0895,-0.4834,0.1406,-0.1269,-9.4325,-0.98,-10.045,5.316354634331057,6.027024183338451,16.69211985427629,13.776544069322044
0.1474,0.9619,0.0881,-0.4834,0.1406,-0.1269,-10.5175,-1.0937,-5.7925,5.233335594328299,7.683629830812685,16.887767581922574,13.785977674332349
0.1776,0.9718,0.1084,-0.4836,0.1414,-0.122,-11.97,0.525,-1.7937,6.361498533630472,9.685347952200832,16.813782635216583,13.798151997301753
0.1879,0.9731,0.1102,-0.4862,0.1383,-0.1234,-11.8387,1.68,-0.3325,6.460721581774294,10.645163593864709,16.9205329956315,13.810219084018366
0.1824,0.9414,0.121,-0.4862,0.1383,-0.1234,-13.055,4.3137,-3.92,7.321670241200547,10.849248407588247,17.121478183696123,13.822249717487331
0.1623,0.9306,0.1185,-0.4894,0.1395,-0.1228,-12.0662,3.9988,-8.47,7.257017953763634,9.948598300396194,16.819090950058676,13.834385463718933
0.1574,0.943,0.1143,-0.4894,0.1395,-0.1228,-10.4912,3.29,-13.9475,6.91204494968193,9.485082862671295,16.689731199270785,13.846566511073824
0.1582,0.9612,0.1216,-0.4898,0.1386,-0.1158,-9.5375,2.8,-18.1825,7.209244691688023,9.305887575432138,15.926234985388035,13.858632536045361
0.1502,0.98,0.1179,-0.4882,0.1403,-0.1202,-8.7325,2.5813,-20.0025,6.861066781243348,8.755256746235672,16.35189583788271,13.870793056328763
0.1432,0.9837,0.1149,-0.4882,0.1403,-0.1202,-8.0412,2.4763,-19.18,6.662752841558452,8.311984716251708,16.257244653027797,13.880109869380583
0.1383,0.9605,0.1202,-0.4867,0.139,-0.1194,-7.9975,2.6775,-18.0687,7.13174339265702,8.159102184042167,16.29281953982549,13.892243492122029
0.1391,0.9485,0.1232,-0.4867,0.139,-0.1194,-6.4225,2.1525,-17.01,7.399907003413273,8.255047168473705,16.370888961806333,13.904365081752601
0.1465,0.9367,0.1208,-0.4863,0.1393,-0.1158,-5.985,1.6712,-16.5462,7.348644229887697,8.713739384335126,16.03358100829901,13.916452695540707
0.1561,0.9406,0.1138,-0.4866,0.137,-0.1147,-4.48,1.75,-17.8675,6.899770700789716,9.239324199041736,15.80997961903434,13.928538893668708
0.1615,0.9517,0.1017,-0.4866,0.137,-0.1147,-2.9488,2.0475,-19.8887,6.101822138700967,9.519395007565647,15.646693166756963,13.94066048329928
0.157,0.9792,0.0868,-0.4847,0.1365,-0.1167,-3.08,2.8525,-21.665,5.068604582690876,9.141335262757465,15.622382025606594,13.952801538256269
0.1389,0.9812,0.0882,-0.4847,0.1365,-0.1167,-4.6112,4.375,-23.205,5.136315807927649,8.162533702699566,15.524057707648861,13.96483500304544
0.1178,0.9679,0.0991,-0.4849,0.1367,-0.1149,-6.1863,5.46,-24.1063,5.843925217792615,7.039946320966142,15.371019394114217,13.974276040271283
0.104,0.9468,0.1053,-0.4846,0.1361,-0.1158,-8.8987,4.5763,-22.33,6.344725389988947,6.327430597379697,15.525150699733906,13.986376395000313
0.1009,0.9291,0.1244,-0.4846,0.1361,-0.1158,-8.4612,3.3775,-21.4463,7.622468708191115,6.16936040278466,15.813015837992431,13.998498338545913
0.121,0.9348,0.1267,-0.4834,0.1375,-0.1158,-7.8663,2.6338,-21.175,7.718387736757192,7.131018190117904,16.01529003817463,14.010614265536073
0.1217,0.9429,0.1368,-0.4834,0.1375,-0.1158,-7.6125,2.065,-21.4638,8.253581077735609,7.253704086226338,16.13512280076954,14.022689138383253
0.1247,0.9482,0.1332,-0.4801,0.1358,-0.1162,-7.9625,1.6538,-22.365,7.997133533659873,7.389357547444214,16.209881023607803,14.034764365145458
0.1185,0.945,0.1358,-0.4801,0.1358,-0.1162,-8.9425,1.855,-22.5487,8.177111971504512,7.13134467836687,16.215331442602768,14.04685551808382
0.1125,0.9445,0.144,-0.4807,0.1349,-0.112,-9.1175,2.3538,-22.6887,8.667238280909606,6.7836188180164765,15.779244945693337,14.056248422866167
0.111,0.9486,0.1552,-0.4804,0.1331,-0.1146,-8.9512,3.255,-21.9188,9.290015238305175,6.615268616287099,16.16564170188579,14.068372135986895
0.0942,0.9245,0.168,-0.4804,0.1331,-0.1146,-9.065,3.675,-20.4312,10.296489127380324,5.8445611556353345,16.299311035081818,14.08042506610248
0.0907,0.9113,0.1611,-0.4795,0.1323,-0.1117,-7.6912,3.4913,-19.5562,10.025972304553365,5.631642034230408,15.919247302561391,14.092504893760019
0.0875,0.9123,0.1608,-0.4795,0.1323,-0.1117,-4.8387,2.2225,-19.3113,9.996241001058761,5.435280283659013,15.89503305423902,14.104638516501465
0.0883,0.9193,0.1621,-0.4785,0.133,-0.1107,-2.9313,1.0325,-19.1187,10.000146490231941,5.410244696160539,15.833250440876506,14.116761875707168
0.0952,0.9258,0.1548,-0.4769,0.1318,-0.1121,-1.855,0.525,-19.5737,9.493857948376338,5.702382393443759,15.940087682020696,14.128831085913935
0.0964,0.9343,0.157,-0.4769,0.1318,-0.1121,-0.6737,0.5075,-19.6963,9.538751815994528,5.784778988808783,15.9518294686813,14.138214081075562
0.0907,0.9319,0.158,-0.479,0.1334,-0.1138,1.015,1.365,-19.4075,9.62253185558321,5.540439625270417,16.09713556044005,14.15028329128233
0.0865,0.9266,0.162,-0.479,0.1334,-0.1138,1.9512,1.3825,-18.55,9.916124839755621,5.309661629307292,16.140035780022963,14.162352855404125
0.0886,0.9215,0.1629,-0.4756,0.1325,-0.1094,4.6375,0.1138,-19.1012,10.024703145515769,5.383088883722017,15.77561873828803,14.174372517507292
0.0866,0.9153,0.1533,-0.4754,0.1326,-0.1154,6.2562,-0.3675,-19.1537,9.509419178224093,5.346387579164997,16.338163700159527,14.186443497289188
0.0846,0.9099,0.1507,-0.4754,0.1326,-0.1154,7.1663,-0.8225,-19.39,9.404397715190187,5.276809453528586,16.30806170312342,14.198622067238901
0.0838,0.9148,0.144,-0.4754,0.1343,-0.1182,8.82,-0.6913,-19.005,8.946863324510781,5.205210447286501,16.550950417526693,14.21068703046536
0.0853,0.9329,0.139,-0.4754,0.1343,-0.1182,10.4475,-0.1138,-17.675,8.475882513224635,5.177906798262039,16.44693574685346,14.220148948677721
0.091,0.9459,0.1304,-0.4766,0.1344,-0.1201,11.2175,0.175,-16.1875,7.850917052852863,5.376445636602989,16.508081038515957,14.232189845682433
0.0955,0.9506,0.1153,-0.4756,0.1359,-0.1227,12.2062,0.735,-16.0475,6.918262071485459,5.6244690532444395,16.67314517940107,14.244313204888133
0.1045,0.967,0.1017,-0.4756,0.1359,-0.1227,12.46,1.295,-17.465,6.006239759322228,6.033434281426302,16.504761234541927,14.256397987356033
0.1055,1.0133,0.0753,-0.4739,0.1351,-0.1229,11.1387,1.9862,-18.7775,4.254707177004032,5.946111187007252,16.130900925482614,14.2685786807959
0.0936,1.02,0.0767,-0.4739,0.1351,-0.1229,8.9425,2.905,-19.5387,4.300200035322497,5.336017346369981,16.073653045278004,14.280607544689737
0.0817,1.0078,0.0863,-0.4718,0.1336,-0.1215,6.5275,2.9838,-19.705,4.89278027454197,4.72432510622908,16.05084093142651,14.292605617976335
0.0686,0.9836,0.0856,-0.4722,0.1346,-0.125,3.0625,3.2288,-18.2787,4.97353745100489,4.081830287254357,16.407941824745073,14.301933048478928
0.0657,0.9706,0.0888,-0.4722,0.1346,-0.125,1.8025,2.9925,-14.595,5.226718470103557,3.8897659894575094,16.45803430970462,14.313975007228715
0.0761,0.9714,0.0859,-0.4712,0.1375,-0.1253,1.1812,2.4063,-15.0325,5.053951819139871,4.369312990731696,16.577072104724476,14.32605766620646
0.0983,0.9953,0.0806,-0.4712,0.1375,-0.1253,0.8575,2.3013,-14.8225,4.630930708954808,5.415573185003166,16.588679930807015,14.338038751571826
0.0994,0.9969,0.0809,-0.471,0.1361,-0.1286,-1.3475,2.6688,-14.595,4.639451690554979,5.635129841207053,16.963107866508675,14.350169189078041
0.0882,0.9907,0.0809,-0.471,0.1361,-0.1286,-1.8463,3.5875,-15.0237,4.668301046316566,5.147514566462719,16.90819119395397,14.362309536204977
0.0716,0.9828,0.087,-0.4723,0.1372,-0.1322,-3.0888,3.2638,-15.3125,5.057680013934367,4.292518071650882,17.286400115030997,14.371672004295114
0.0615,0.9708,0.092,-0.473,0.1354,-0.1256,-3.3688,2.3712,-16.065,5.412585911330389,3.7201937399509077,16.531705252004556,14.38378085298476
0.0666,0.9612,0.0804,-0.473,0.1354,-0.1256,-3.5175,1.3562,-16.2838,4.7831875587667945,3.9049811976723134,16.410494265484786,14.39594314284329
0.0769,0.9781,0.0844,-0.4707,0.1371,-0.1254,-3.4475,0.665,-16.3187,4.931401042863931,4.349251938988662,16.572162687348566,14.407952187495688
0.0877,0.9844,0.0877,-0.4707,0.1371,-0.1254,-3.01,0.3675,-14.9975,5.090577519871015,4.896275884050695,16.669335415895578,14.420114123439191
0.0874,0.9828,0.0924,-0.4706,0.1393,-0.131,-4.27,0.665,-13.2562,5.370199054226335,5.0228076004193145,17.40586210719855,14.432244560945406
0.083,0.974,0.0924,-0.4727,0.1365,-0.1253,-5.7225,0.4725,-12.04,5.419093818510187,4.8900881801386085,16.63979685225867,14.444303153701403
0.0823,0.9514,0.0934,-0.4727,0.1365,-0.1253,-5.5563,0.7875,-12.2325,5.606290029942141,4.913796796971781,16.6912151134,14.45633944981078
0.0861,0.9468,0.0878,-0.4736,0.1355,-0.124,-5.0225,0.2975,-13.5362,5.298957572604923,5.109899806859249,16.450403412568765,14.465792874062524
0.0977,0.9639,0.0743,-0.4736,0.1355,-0.124,-4.8038,-0.21,-14.7875,4.410328686277466,5.584668882471345,16.294411239209726,14.477938529914844
0.1071,0.9795,0.0739,-0.4732,0.1352,-0.1252,-5.6438,1.365,-13.2825,4.314873538283207,6.0980811340743974,16.46532294921919,14.49007321440137
0.1066,0.9822,0.077,-0.4749,0.1356,-0.1235,-7.245,2.8263,-10.5875,4.482079905262101,6.163641873873602,16.254588435122105,14.50210844876567
0.1011,0.9823,0.0822,-0.4749,0.1356,-0.1235,-8.0937,3.5875,-9.5288,4.7825680574127,5.897826062733128,16.29492017093461,14.514172704162076
0.102,0.9818,0.0992,-0.4726,0.1367,-0.1238,-8.8025,3.115,-8.5225,5.76668593229885,5.900875126453819,16.664239575451905,14.526235189983357
0.1042,0.9703,0.0929,-0.4726,0.1367,-0.1238,-9.1437,2.5813,-9.1612,5.469889110484144,6.070111090405861,16.613069009185434,14.538259452981858
0.1041,0.9597,0.0945,-0.4753,0.1362,-0.1262,-8.9337,2.1175,-10.815,5.623245131950297,6.145693683644223,16.82936458200777,14.547630415032613
0.0998,0.9641,0.0898,-0.4762,0.1367,-0.1199,-9.9225,1.5925,-12.1887,5.322267100602926,5.933440327545779,15.989894738354087,14.559771823904624
0.0945,0.9687,0.1001,-0.4762,0.1367,-0.1199,-10.6312,0.3588,-12.5913,5.898015123173649,5.637316740892521,16.095066306189786,14.57190650839115
0.0978,0.9531,0.1114,-0.4763,0.135,-0.1196,-10.7275,-1.4175,-13.9912,6.664361475929145,5.741759675904627,16.23878086950481,14.584117992438252
0.1027,0.9454,0.1234,-0.4763,0.135,-0.1196,-10.2812,-2.87,-15.0675,7.434360633138239,5.781230010097035,16.44813157161134,14.59629125366258
0.113,0.9395,0.133,-0.4779,0.1329,-0.1238,-9.8787,-4.13,-16.8262,8.055719934261653,6.36469681879933,17.0283148422766,14.608471947102446
0.1175,0.9285,0.1242,-0.4747,0.1349,-0.121,-9.1962,-5.215,-18.5237,7.620151006178703,6.92207159274067,16.803895823075294,14.620659011012775
0.1317,0.9324,0.1226,-0.4747,0.1349,-0.121,-8.4612,-5.775,-20.6763,7.49114244132789,7.710360490153158,16.864559092340272,14.632831918322076
0.1396,0.9489,0.1176,-0.4724,0.1338,-0.1184,-7.8225,-2.5813,-22.8113,7.0660349535792175,7.801773228237538,16.564888526590718,14.645012965676967
0.1289,0.9388,0.1254,-0.4724,0.1338,-0.1184,-7.6213,-0.875,-22.4437,7.606681786571028,7.76793696926482,16.626915828284353,14.65712216828164
0.1222,0.9263,0.137,-0.4723,0.1347,-0.1137,-7.6563,0.28,-21.5513,8.410759750195645,7.5175536415588065,16.25926295381073,14.666511179998706
0.1107,0.9209,0.1432,-0.4729,0.1333,-0.1149,-6.3263,1.4787,-20.72,8.837488306746163,6.915797706524324,16.372960653995786,14.678624629583688
0.1047,0.9141,0.1488,-0.4729,0.1333,-0.1149,-4.5763,2.2138,-19.3113,9.244527523747475,6.527902159343104,16.430271425579576,14.690746573129285
0.091,0.9174,0.1513,-0.4708,0.1321,-0.1171,-2.9138,2.7475,-19.2237,9.364727589982442,5.733911311418613,16.66677578891257,14.702823923381645
0.0945,0.9315,0.1567,-0.4708,0.1321,-0.1171,-1.365,2.205,-19.3113,9.54855923521967,5.71655868204537,16.718009996349732,14.714913660659903
0.0945,0.9389,0.1571,-0.4686,0.1318,-0.1176,-0.1312,2.2138,-18.5325,9.499072097587339,5.677090258510831,16.82873535415588,14.727042682506017
0.0836,0.9353,0.1515,-0.4684,0.1335,-0.1206,1.7062,2.3888,-18.7687,9.201694896063653,5.145518414809565,17.087829649093692,14.739122864078581
0.0745,0.9196,0.1476,-0.4684,0.1335,-0.1206,2.3187,2.2925,-19.2763,9.118694484387968,4.667834114719315,17.02653610570702,14.748423750954244
0.0652,0.9108,0.1469,-0.4683,0.1342,-0.1183,3.8588,1.75,-19.2588,9.16202874795561,4.155935113689815,16.747772761121595,14.760390325803556
0.0775,0.9337,0.1391,-0.4683,0.1342,-0.1183,5.2325,1.1812,-19.3025,8.475346201372949,4.584593027914987,16.65268961532718,14.772467676055916
0.0883,0.9475,0.1297,-0.468,0.1333,-0.1226,5.2238,1.12,-18.4625,7.796458298988312,5.133793741944256,17.035940806009258,14.784553520268892
0.0966,0.954,0.1231,-0.468,0.1333,-0.1226,6.3612,1.6887,-17.2987,7.353792511503022,5.624477811175906,16.98208927419766,14.79662273047566
0.0913,0.9544,0.1216,-0.4702,0.1334,-0.1209,5.95,2.8788,-13.8687,7.261184175646478,5.451514728630422,16.662516029714315,14.808563115613069
0.0874,0.9547,0.1177,-0.4692,0.1333,-0.1222,7.5687,3.29,-12.7925,7.028873757213127,5.2284492589940825,16.767648408584694,14.817928768938437
0.0869,0.9678,0.0915,-0.4692,0.1333,-0.1222,7.14,3.3863,-12.8275,5.405410965434065,5.125058439264097,16.381304531454045,14.830008950511
0.1155,0.9819,0.0851,-0.4702,0.1354,-0.1241,7.2362,3.7362,-13.5275,4.954615351141958,6.4760960552482665,16.648233329245695,14.84204913968566
0.1243,1.0002,0.0714,-0.4702,0.1354,-0.1241,6.02,4.6725,-13.6325,4.085576632320672,6.996346990586111,16.477203794061943,14.854122242957711
0.1121,1.015,0.0759,-0.4696,0.1355,-0.1243,3.0538,6.055,-13.125,4.275992376384454,6.35744787113706,16.485284484377814,14.866180127883656
0.0953,1.0098,0.0786,-0.4708,0.1368,-0.1257,2.0388,6.8513,-13.1075,4.450281566921591,5.4677136314398025,16.569870940380262,14.875451639812185
0.082,0.9967,0.0812,-0.4708,0.1368,-0.1257,-0.0438,6.6238,-13.1162,4.65695390971377,4.762851340686324,16.55232546134095,14.88765215249349
0.0803,0.9767,0.0895,-0.4713,0.1352,-0.126,-1.61,4.2875,-13.4575,5.234052615466844,4.6907433259815186,16.688585440921997,14.899687740772817
0.095,0.9738,0.0766,-0.4713,0.1352,-0.126,-3.5,2.94,-15.1725,4.499762036439437,5.425935544023756,16.59748995315321,14.911713065516397
0.1071,0.9902,0.0832,-0.4706,0.1341,-0.124,-3.745,2.0038,-16.5462,4.802047512508488,6.02575402430125,16.51271597707074,14.923867215329334
0.1133,0.9948,0.0897,-0.4706,0.1322,-0.1199,-4.69,2.24,-16.6688,5.151367521190323,6.397252231735492,16.129905794348797,14.935986681469753
0.1061,0.9865,0.0881,-0.471,0.1322,-0.1199,-5.8625,2.7213,-16.0562,5.103434093499238,6.1581321860036855,16.068767054379702,14.948077126578063
0.0967,0.9713,0.1063,-0.4698,0.1358,-0.1249,-6.9475,3.2638,-15.435,6.242382944880039,5.723993454071644,16.95960944813096,14.960083339910256
0.0932,0.9392,0.1103,-0.4698,0.1358,-0.1249,-7.6475,3.115,-14.6912,6.696850371991922,5.642529632892536,17.06369568632478,14.969546319867693
0.1009,0.9354,0.12,-0.4714,0.1367,-0.1256,-6.3175,3.2987,-13.93,7.308644026536448,6.041159491596071,17.293549978596964,14.981668617328317
0.1133,0.9378,0.1128,-0.4714,0.1367,-0.1256,-4.165,3.7538,-14.0,6.859949591358325,6.733677984486185,17.268278155960804,14.993824182801358
0.113,0.9457,0.1122,-0.4721,0.1344,-0.1248,-3.5788,4.06,-14.6037,6.766339398200352,6.76260983590726,17.08229193820895,15.005925953190491
0.1145,0.9509,0.1107,-0.4743,0.133,-0.1226,-3.4125,4.2962,-14.595,6.640613748770493,6.81325753093193,16.708185403419783,15.017950924019045
0.1011,0.9556,0.1205,-0.4743,0.133,-0.1226,-3.2813,5.0838,-15.1637,7.185449260524747,6.084993098407377,16.74676294428931,15.030097641616443
0.095,0.9448,0.1163,-0.4711,0.1342,-0.1228,-2.8875,4.7863,-15.5225,7.017987332438253,5.744227461910199,16.833118538725873,15.04220825988122
0.0972,0.9419,0.1242,-0.4711,0.1342,-0.1228,-2.555,4.3838,-16.205,7.5103556886443315,5.829654454110677,16.959613416667434,15.051571435801408
0.1024,0.9431,0.1124,-0.4723,0.134,-0.1194,-1.7062,3.9463,-16.7125,6.798544457993521,6.111558548126376,16.39651330515776,15.063643477328382
0.1086,0.9492,0.104,-0.4711,0.1345,-0.1226,-0.5688,4.1125,-17.2987,6.254258018752428,6.440595407587802,16.719240735429448,15.075763651298852
0.1171,0.9763,0.0977,-0.4711,0.1345,-0.1226,-0.665,5.285,-17.1763,5.716176024984282,6.765489082109273,16.626612819871564,15.087838524146031
0.1031,0.9751,0.0938,-0.4736,0.1351,-0.1243,-1.4875,7.1663,-16.1612,5.495299314714469,6.077389542620053,16.609099402134007,15.099959405946551
0.0892,0.9726,0.0938,-0.4736,0.1351,-0.1243,-2.94,8.2775,-14.9888,5.508674759538768,5.287579304353386,16.53314316430162,15.11211355575949
0.0798,0.9711,0.0957,-0.4745,0.135,-0.1214,-3.9638,8.5225,-14.595,5.627874871120714,4.725021628717832,16.149764047862334,15.12416860936523
0.0652,0.9725,0.0935,-0.4722,0.1337,-0.1225,-4.4625,8.4875,-15.3387,5.492149653720236,3.8920688789572027,16.222619510265595,15.136226494291174
0.0617,0.9638,0.1059,-0.4722,0.1337,-0.1225,-4.8475,7.3938,-17.0012,6.268155723833712,3.663574194701984,16.389465759438437,15.14566080713153
0.0624,0.9625,0.1105,-0.471,0.1322,-0.121,-5.4163,4.1475,-17.955,6.548380359372605,3.6824852651343853,16.30604586145254,15.15776363926574
0.0653,0.962,0.1118,-0.471,0.1322,-0.121,-5.0662,3.5438,-18.9175,6.628732234346651,3.8334288976498962,16.33910449188177,15.16984842173364
0.0716,0.9667,0.1191,-0.4706,0.1342,-0.1196,-4.55,2.0475,-18.4013,7.022476402731896,4.140453586502709,16.34711967619182,15.18193638943677
0.0691,0.9597,0.1199,-0.4712,0.133,-0.119,-4.06,1.5225,-18.1125,7.1210620148039645,4.096809244895289,16.25143503395844,15.19406222604765
0.0619,0.9521,0.1181,-0.4712,0.133,-0.119,-4.0775,1.0325,-17.7187,7.071084209620526,3.7761008744247553,16.205709974005114,15.206183815678225
0.0789,0.959,0.1103,-0.471,0.1334,-0.1212,-3.5525,0.1138,-18.0338,6.562524999141363,4.441352059464305,16.437923951623134,15.218230375323346
0.0862,0.9703,0.1072,-0.471,0.1334,-0.1212,-3.3338,0.0875,-18.515,6.305273564807101,4.889092366195942,16.413640311951973,15.227656194203085
0.0883,0.9681,0.1066,-0.4706,0.1328,-0.1209,-3.4563,1.0412,-17.9112,6.283733464194099,5.119729095336916,16.391446196098833,15.239760088082372
0.0858,0.9565,0.1157,-0.4709,0.1305,-0.1194,-3.8763,1.9337,-16.9137,6.895355904183265,5.0943382237401,16.30440229585125,15.251959892933627
0.0777,0.9473,0.1134,-0.4709,0.1305,-0.1194,-4.0862,2.6775,-16.6163,6.826512228949826,4.724030188307516,16.249212618148114,15.263973892396384
0.0851,0.946,0.1134,-0.4682,0.133,-0.1206,-3.6663,2.6163,-16.5637,6.835582749361655,5.04444492987409,16.56181940177848,15.276035670387612
0.0883,0.9522,0.1169,-0.4682,0.133,-0.1206,-3.2375,2.6513,-15.925,6.998621067188331,5.225359641352955,16.614313463090987,15.288157967848237
0.0949,0.9694,0.1055,-0.4702,0.1329,-0.1208,-2.3363,3.4038,-15.8463,6.2132894103260305,5.512077356985648,16.414783959033674,15.300300438465326
0.0866,0.9972,0.0992,-0.4702,0.1324,-0.1218,-2.8525,4.5588,-16.765,5.682514179506977,5.007902672944342,16.33873922642517,15.312329656274189
0.069,1.0015,0.1039,-0.4722,0.1324,-0.1218,-6.3963,7.3325,-15.0937,5.922240406793406,4.018313755746856,16.235737368666864,15.32178414227101
0.0412,0.9847,0.1086,-0.4736,0.1301,-0.12,-7.49,7.035,-13.72,6.292504462128065,2.5330427572848224,15.913977215412608,15.333826454935824
0.0298,0.9439,0.1056,-0.4736,0.1301,-0.12,-7.0262,4.725,-12.3112,6.383232961237495,1.8837998404488099,15.890370379422093,15.345938134945676
0.0505,0.9533,0.103,-0.4704,0.1322,-0.1203,-5.81,1.9687,-11.9612,6.16725992859045,2.8174818348212285,16.101905028729714,15.358067510706816
0.0745,0.9719,0.1017,-0.4704,0.1322,-0.1203,-5.39,0.8138,-11.1475,5.97426393693929,4.022665430950579,16.172837963167172,15.370184145527029
0.087,0.9788,0.108,-0.4734,0.1315,-0.1154,-5.425,0.5513,-11.1562,6.295582341245147,4.810974338049194,15.642274040109225,15.382242384367999
0.0949,0.98,0.1127,-0.4731,0.1321,-0.1192,-6.2913,0.875,-11.6725,6.559441267424591,5.34757419103881,16.19585980646678,15.394367159233804
0.0905,0.9539,0.1209,-0.4731,0.1321,-0.1192,-7.3238,1.68,-12.18,7.221416457296765,5.371495349296334,16.335322553819374,15.403878625549764
0.0895,0.9409,0.1175,-0.4746,0.1318,-0.1162,-7.2625,1.6975,-13.5012,7.118566161564427,5.388317787860935,15.918308971773165,15.415873867516158
0.093,0.9417,0.1159,-0.4746,0.1318,-0.1162,-6.8075,1.365,-14.9275,7.016701492948566,5.557214087746886,15.913990666410948,15.427914056690817
0.1039,0.9609,0.1185,-0.4742,0.1316,-0.111,-6.1687,1.505,-15.6012,7.030288356125301,6.017406344474437,15.381935789763242,15.439979373832303
0.106,0.9702,0.1128,-0.4721,0.1277,-0.1165,-5.8888,2.4938,-14.8925,6.632837722733146,6.1655819923817585,15.929412790301384,15.452166437742632
0.0885,0.9623,0.1269,-0.4721,0.1277,-0.1165,-6.6763,4.1825,-13.615,7.509824434194558,5.330011542876812,16.032381829546434,15.464342884202189
0.0822,0.9575,0.1373,-0.4743,0.1314,-0.1175,-6.9738,4.8213,-11.6812,8.158399129655821,4.912359978417163,16.25107540175063,15.476340603573764
0.082,0.9514,0.1365,-0.4743,0.1314,-0.1175,-7.2975,5.2063,-11.0425,8.16464920335181,4.880401081939477,16.253882976127542,15.48572218307529
0.0852,0.9404,0.138,-0.4751,0.131,-0.1159,-6.5275,4.5675,-10.2987,8.347820384590364,5.093248763467757,16.10186173419332,15.497843064875811
0.0879,0.9418,0.1434,-0.4762,0.1296,-0.1142,-5.0225,4.725,-10.71,8.65657318672674,5.2506469365605435,15.926959173272191,15.509957930120894
0.0913,0.9355,0.1433,-0.4762,0.1296,-0.1142,-3.9025,4.4275,-10.6138,8.708731548384733,5.478553850823971,15.958907776069546,15.522043420418845
0.0888,0.9312,0.1473,-0.477,0.1301,-0.1146,-2.8875,4.5237,-9.9225,8.987948461169006,5.392595347845748,16.036246384841554,15.534058127711653
0.0901,0.9335,0.1496,-0.477,0.1301,-0.1146,-2.0475,4.6112,-9.835,9.104310207121527,5.4378484978365185,16.066500958828307,15.546123090938112
0.0966,0.9414,0.1491,-0.4791,0.1306,-0.1115,-1.855,4.795,-10.8325,9.000109695144182,5.746337917462343,15.670173708824894,15.558263084150022
0.0942,0.936,0.1601,-0.4786,0.1302,-0.1169,-1.1725,4.6025,-11.4888,9.704353029232587,5.674922307285257,16.417901729519624,15.567614226959336
0.0831,0.9274,0.1493,-0.4786,0.1302,-0.1169,0.0613,4.48,-13.9212,9.147013856426577,5.130724174042901,16.24741203621029,15.579627872507068
0.085,0.9347,0.1342,-0.4802,0.1314,-0.1166,1.3037,3.7275,-15.3737,8.173160517796305,5.141906472613147,15.98522460907169,15.591680448707628
0.0898,0.9572,0.129,-0.4802,0.1314,-0.1166,1.4875,3.15,-16.6338,7.676786436613115,5.287214607209778,15.891838916239852,15.603708250856387
0.0854,0.964,0.1277,-0.4793,0.1305,-0.113,1.855,3.36,-16.1612,7.546338288737528,5.056618217598615,15.446285046580675,15.615820284781265
0.0782,0.954,0.1333,-0.4793,0.1305,-0.113,1.4875,3.5613,-15.1637,7.953155884530748,4.697928813916882,15.503974374916853,15.627883478432596
0.0786,0.946,0.1337,-0.4802,0.1335,-0.1122,1.4437,3.64,-14.945,8.044188407558707,4.702384469421331,15.466432776583583,15.637197106249184
0.0789,0.9421,0.1288,-0.4803,0.1311,-0.1172,1.3125,2.4675,-14.7262,7.78570090344473,4.736796399683128,15.924013756443621,15.649215706607276
0.106,0.9501,0.1252,-0.4803,0.1311,-0.1172,2.0388,1.1812,-16.3712,7.507710168014789,5.9932721816575585,16.00553163555395,15.661245986161216
0.1152,0.9632,0.1157,-0.4799,0.1327,-0.1185,2.275,0.7962,-16.9837,6.851408913830536,6.601197197811488,16.0924089648219,15.673329706884036
0.1235,0.9693,0.1156,-0.4799,0.1327,-0.1185,1.4525,1.7325,-17.4737,6.801188087629786,7.09958790590446,16.125815040540264,15.685277524236987
0.1232,0.9687,0.1187,-0.4786,0.1336,-0.1229,0.875,2.7213,-16.8175,6.985416644631666,7.180086499419824,16.72262351538973,15.697345672698678
0.119,0.9603,0.1215,-0.4777,0.1324,-0.1208,1.2687,3.5088,-16.6688,7.210287079693,7.032309887493681,16.525263024252872,15.706709556448917
0.1089,0.9515,0.1236,-0.4777,0.1324,-0.1208,1.47,4.83,-17.4562,7.400753334209517,6.54004371306864,16.513317438215054,15.718778412740658
0.0981,0.9351,0.1193,-0.4758,0.1326,-0.1189,1.89,5.67,-18.0775,7.270878429097665,6.004602474778194,16.284640928316488,15.730803029654187
0.0947,0.9448,0.1207,-0.4758,0.1326,-0.1189,3.1763,5.4688,-18.7075,7.280184295978222,5.71334572856969,16.261525629972088,15.742843926658898
0.0992,0.9595,0.1098,-0.4786,0.133,-0.1193,3.4125,5.6,-17.8412,6.530310290422361,5.848508973259957,16.068987310373576,15.754914198610743
0.0882,0.9714,0.1075,-0.4786,0.133,-0.1181,3.4738,5.6438,-17.3512,6.315540979503764,5.2302820097396845,15.818643214425201,15.764275251040777
0.0831,0.9735,0.1079,-0.4791,0.1338,-0.1181,2.8087,5.8538,-17.675,6.324662451633652,4.889103403113695,15.789198700075195,15.776496290793574
