AcclX,AcclY,AcclZ,MagX,MagY,MagZ,GyroX,GyroY,GyroZ,Roll,Pitch,Yaw,Time(s)
-0.1019,0.9808,-0.0378,-0.7212,0.0922,0.0639,-2.8788,1.3912,-14.8225,0,0,0,1.6202187407207904
-0.1007,0.955,-0.0461,-0.7201,0.0913,0.0681,-2.73,1.47,-15.2337,0,0,0,1.6322982144633038
-0.1002,0.955,-0.0426,-0.7201,0.0913,0.0681,-2.9313,0.8487,-15.2337,0,0,0,1.6444927105891731
-0.1014,0.982,-0.0428,-0.7212,0.0927,0.066,-2.4938,0.9538,-14.8662,0,0,0,1.6566854371399138
-0.0997,0.9818,-0.0356,-0.7212,0.0927,0.066,-2.065,1.0412,-15.1025,0,0,0,1.668860114024343
-0.1008,0.9819,-0.0443,-0.7214,0.0909,0.0686,-2.6338,0.8138,-15.365,0,0,0,1.680951266962705
-0.1008,0.983,-0.0398,-0.7214,0.0909,0.0686,-2.59,1.4262,-15.6275,0,0,0,1.6904450375273798
-0.1031,0.9828,-0.0374,-0.7216,0.0917,0.0678,-3.185,0.9363,-15.5925,0,0,0,1.7025889238045724
-0.1013,0.9818,-0.0382,-0.7203,0.0908,0.0658,-3.3513,1.1987,-15.19,0,0,0,1.7147777572900302
-0.1053,0.9806,-0.0356,-0.7203,0.0908,0.0658,-2.1088,1.0762,-15.1287,0,0,0,1.7268837746594718
-0.1005,0.9828,-0.0384,-0.7232,0.0918,0.0678,-2.415,1.0675,-15.6975,0,0,0,1.7390517271584127
-0.1031,0.9836,-0.0397,-0.7232,0.0918,0.0678,-3.3513,0.63,-15.2512,0,0,0,1.7512044613112483
-0.0988,0.9818,-0.0368,-0.7214,0.0934,0.071,-2.7388,1.0587,-15.1812,0,0,0,1.7633617963594177
-0.1037,0.9809,-0.0448,-0.7214,0.0912,0.0674,-2.3187,1.1112,-15.19,0,0,0,1.775589206582678
-0.1006,0.9819,-0.0374,-0.7214,0.0912,0.0674,-2.555,0.91,-15.12,0,0,0,1.7877104422982253
-0.101,0.98,-0.0373,-0.7201,0.0897,0.0683,-3.15,1.365,-15.5662,0,0,0,1.7998638842811119
-0.1034,0.9834,-0.039,-0.7201,0.0897,0.0683,-2.8087,1.085,-15.1988,0,0,0,1.8119978609375846
-0.1001,0.9834,-0.0356,-0.7218,0.0926,0.0626,-2.7562,0.7613,-15.1112,0,0,0,1.8216285966172094
-0.1035,0.983,-0.0418,-0.7221,0.092,0.07,-2.7037,1.085,-14.9713,0,0,0,1.8336503822105321
-0.1019,0.9828,-0.04,-0.7221,0.092,0.07,-2.66,1.2075,-15.155,0,0,0,1.8457677248607964
-0.0994,0.9792,-0.041,-0.7224,0.0934,0.0678,-2.94,1.4,-15.47,0,0,0,1.8579816863130798
-0.105,0.9797,-0.0386,-0.7224,0.0934,0.0678,-2.7213,1.12,-15.4875,0,0,0,1.8700983211332927
-0.1026,0.9817,-0.0382,-0.7218,0.0926,0.0661,-2.7388,1.47,-15.2687,0,0,0,1.8822567179265395
-0.1021,0.9823,-0.0441,-0.7209,0.0922,0.0676,-2.9138,0.8575,-15.3125,0,0,0,1.8943889250078836
-0.1,0.9823,-0.0362,-0.7209,0.0922,0.0676,-3.0275,1.1025,-15.1988,0,0,0,1.9065834211337527
-0.1024,0.9791,-0.0395,-0.7214,0.0922,0.0676,-2.695,0.7437,-14.7962,0,0,0,1.9187446492472051
-0.1052,0.9817,-0.0419,-0.7214,0.0922,0.0676,-3.1325,0.7613,-14.63,0,0,0,1.931101946284901
-0.0992,0.9829,-0.0356,-0.7216,0.0922,0.0672,-3.15,1.0412,-14.9537,0,0,0,1.942993845063788
-0.1001,0.9828,-0.0411,-0.7207,0.0911,0.0678,-3.15,1.0062,-15.0412,0,0,0,1.9524762903476403
-0.1019,0.9814,-0.0379,-0.7207,0.0911,0.0678,-2.6338,1.0762,-14.91,0,0,0,1.9646679551533037
-0.1018,0.9816,-0.0401,-0.7216,0.0934,0.067,-3.2725,1.4088,-14.5162,0,0,0,1.9768270597766018
-0.1027,0.9822,-0.0367,-0.7216,0.0934,0.067,-2.73,1.0587,-14.7962,0,0,0,1.9889387397864549
-0.1021,0.9814,-0.0356,-0.7211,0.0904,0.0624,-3.325,1.295,-14.2712,0,0,0,2.0011346515724266
-0.1012,0.9816,-0.039,-0.7209,0.0902,0.068,-2.7388,1.1375,-14.7087,0,0,0,2.0132682743138735
-0.1035,0.9823,-0.0423,-0.7209,0.0902,0.068,-3.0538,0.8575,-14.5775,0,0,0,2.0254719722304113
-0.1028,0.9819,-0.0396,-0.7206,0.0935,0.067,-2.6338,0.9713,-15.155,0,0,0,2.0375978088412925
-0.1003,0.9817,-0.0411,-0.7206,0.0935,0.067,-2.2313,0.7962,-14.8487,0,0,0,2.049787350156802
-0.1014,0.9811,-0.0395,-0.7198,0.0938,0.0734,-2.5463,1.365,-14.8137,0,0,0,2.061966981851591
-0.103,0.9819,-0.0373,-0.7211,0.0917,0.0673,-2.5375,0.9363,-14.98,0,0,0,2.0740443321039503
-0.1016,0.981,-0.0429,-0.7211,0.0917,0.0673,-3.36,0.9975,-14.6475,0,0,0,2.0835720785110934
-0.0985,0.9823,-0.0351,-0.7221,0.0943,0.0683,-3.0013,0.3938,-14.8312,0,0,0,2.0957074708276693
-0.1016,0.9827,-0.0426,-0.7221,0.0943,0.0683,-3.3075,0.8312,-15.1462,0,0,0,2.1078527727649647
-0.1002,0.9803,-0.0384,-0.7201,0.0922,0.075,-2.9575,0.9887,-15.365,0,0,0,2.1201516738234183
-0.1005,0.984,-0.0392,-0.7215,0.0919,0.0684,-2.8175,0.945,-15.4,0,0,0,2.1324463279015635
-0.1019,0.9825,-0.0415,-0.7215,0.0919,0.0684,-2.87,1.0937,-15.1112,0,0,0,2.144309559563368
-0.1024,0.9826,-0.0386,-0.7246,0.0926,0.0666,-3.045,1.3125,-14.9888,0,0,0,2.156487067768003
-0.1006,0.9816,-0.0421,-0.7246,0.0926,0.0666,-2.3538,0.8225,-14.875,0,0,0,2.168642279326018
-0.1019,0.9816,-0.035,-0.723,0.0918,0.0704,-2.8263,0.7437,-15.0412,0,0,0,2.1812653665480224
-0.1022,0.9799,-0.0375,-0.7219,0.0914,0.0678,-2.205,0.7788,-15.0762,0,0,0,2.1929272205601977
-0.1028,0.983,-0.0428,-0.7219,0.0914,0.0678,-2.8087,1.1375,-15.1812,0,0,0,2.20243691730103
-0.0999,0.9834,-0.037,-0.7213,0.0904,0.0677,-2.835,1.3387,-14.5687,0,0,0,2.2145549677813454
-0.0994,0.9803,-0.0392,-0.7213,0.0904,0.0677,-2.9488,1.19,-14.6912,0,0,0,2.2267791927693743
-0.1026,0.982,-0.0375,-0.7218,0.0922,0.0709,-2.8175,1.155,-15.0937,0,0,0,2.238978997620629
-0.1016,0.9818,-0.0329,-0.7215,0.0912,0.0656,-2.765,1.05,-14.9275,0,0,0,2.2510365286315484
-0.1037,0.9813,-0.0389,-0.7215,0.0912,0.0656,-2.9925,1.3737,-15.015,0,0,0,2.2631662583077126
-0.1003,0.982,-0.0377,-0.7234,0.0928,0.0671,-3.3863,1.3475,-15.12,0,0,0,2.2753271325061393
-0.1013,0.9812,-0.0393,-0.7234,0.0928,0.0671,-2.9488,1.4787,-14.91,0,0,0,2.2875499418340652
-0.1008,0.9815,-0.0425,-0.7221,0.0893,0.0732,-2.7913,1.225,-15.2862,0,0,0,2.299675424529921
-0.1044,0.9815,-0.0403,-0.7212,0.0887,0.0676,-2.9663,1.7762,-15.26,0,0,0,2.3118370065583993
-0.0986,0.9808,-0.0381,-0.7212,0.0887,0.0676,-2.975,1.3037,-15.2512,0,0,0,2.32401486867806
-0.1022,0.9812,-0.0415,-0.7226,0.0918,0.0668,-2.9225,1.5225,-15.0062,0,0,0,2.3334509510935444
-0.1055,0.9839,-0.0403,-0.7226,0.0918,0.0668,-2.9313,1.365,-15.1812,0,0,0,2.345643677644285
-0.1003,0.9824,-0.0348,-0.7215,0.0897,0.0662,-2.2575,1.2337,-15.0587,0,0,0,2.357762435954652
-0.1012,0.982,-0.0412,-0.7225,0.0931,0.0662,-2.87,1.6712,-15.5312,0,0,0,2.369962240805907
-0.1011,0.9813,-0.0362,-0.7225,0.0931,0.0662,-3.0275,1.7062,-15.12,0,0,0,2.382128777644745
-0.0997,0.9803,-0.0397,-0.7246,0.0921,0.0694,-2.5113,1.0062,-14.7,0,0,0,2.3942822196276317
-0.1012,0.9812,-0.0377,-0.7246,0.0921,0.0694,-2.695,0.9275,-14.63,0,0,0,2.406365586435428
-0.1022,0.982,-0.0376,-0.7195,0.0925,0.0659,-2.7825,1.2512,-15.26,0,0,0,2.4185558355809884
-0.1017,0.9836,-0.0423,-0.7206,0.0904,0.0673,-2.5813,0.8225,-14.7525,0,0,0,2.431078410935691
-0.1043,0.9815,-0.0388,-0.7206,0.0904,0.0673,-2.555,0.8838,-14.7962,0,0,0,2.4428991727944105
-0.1032,0.9796,-0.0378,-0.7218,0.0926,0.0656,-2.7913,1.5225,-15.5575,0,0,0,2.4549715682364095
-0.1024,0.98,-0.042,-0.7218,0.0926,0.0656,-3.01,1.2512,-15.1462,0,0,0,2.4644533056902103
-0.0985,0.9815,-0.0416,-0.7214,0.09,0.0631,-3.1412,1.295,-14.7788,0,0,0,2.476630106064794
-0.1005,0.9837,-0.0388,-0.7216,0.093,0.0673,-3.29,1.1112,-14.7788,0,0,0,2.488920867077656
-0.1013,0.9805,-0.0401,-0.7216,0.093,0.0673,-3.3338,0.875,-15.1812,0,0,0,2.5010102504408893
-0.1044,0.9808,-0.0359,-0.721,0.0914,0.0628,-2.8875,0.8225,-15.4875,0,0,0,2.513055394425909
-0.1007,0.9809,-0.0349,-0.721,0.0914,0.0708,-2.6863,0.7088,-14.63,0,0,0,2.5252629854077293
-0.1018,0.9829,-0.0404,-0.7206,0.0914,0.0708,-3.1675,0.9187,-14.9713,0,0,0,2.537574273492083
-0.1025,0.9814,-0.0388,-0.7228,0.0928,0.0674,-2.9225,1.05,-15.3212,0,0,0,2.5496572863848534
-0.0999,0.9813,-0.0374,-0.7228,0.0928,0.0674,-2.5463,1.19,-15.2163,0,0,0,2.561767904649629
-0.1,0.981,-0.0412,-0.7219,0.0905,0.0663,-2.555,0.6388,-15.1112,0,0,0,2.573890909940305
-0.1028,0.983,-0.0403,-0.7219,0.0918,0.0682,-2.31,0.8487,-14.77,0,0,0,2.5860093143356466
-0.1022,0.9804,-0.0393,-0.7226,0.0918,0.0682,-2.6775,0.9625,-14.4025,0,0,0,2.595517949331401
-0.1014,0.9796,-0.0374,-0.7221,0.0918,0.0674,-2.6775,1.0412,-14.9975,0,0,0,2.607691210555728
-0.1025,0.9833,-0.0387,-0.7221,0.0918,0.0674,-2.275,1.2163,-15.2337,0,0,0,2.619794042689938
-0.1003,0.9822,-0.0401,-0.7206,0.09,0.07,-2.6775,1.015,-15.0587,0,0,0,2.6320175598479154
-0.1037,0.9821,-0.0403,-0.7204,0.0918,0.0742,-2.9575,0.91,-15.1287,0,0,0,2.6443107982659577
-0.1056,0.9812,-0.038,-0.7204,0.0918,0.0742,-2.9838,1.0762,-15.5575,0,0,0,2.6563308142841517
-0.1014,0.978,-0.0428,-0.7209,0.0919,0.0678,-2.7388,0.8838,-15.19,0,0,0,2.6684725770711903
-0.1032,0.9818,-0.0395,-0.7209,0.0919,0.0678,-2.6075,1.47,-15.4088,0,0,0,2.680626372969103
-0.0983,0.9808,-0.0345,-0.7222,0.0922,0.0699,-1.7325,1.12,-15.1637,0,0,0,2.6928006959385065
-0.0994,0.9841,-0.0432,-0.7229,0.0917,0.0613,-2.3187,1.015,-14.805,0,0,0,2.7049332569348765
-0.1028,0.9816,-0.0351,-0.7229,0.0917,0.0613,-2.7125,1.0325,-15.2862,0,0,0,2.7143611993047694
-0.1025,0.9824,-0.04,-0.721,0.0913,0.0687,-3.045,1.19,-15.2163,0,0,0,2.726520657843093
-0.1075,0.9816,-0.0401,-0.721,0.0913,0.0687,-2.7738,1.1812,-14.8312,0,0,0,2.7386992277928055
-0.1028,0.9803,-0.0321,-0.7222,0.0914,0.0648,-3.5088,0.9363,-14.7087,0,0,0,2.7508923082585715
-0.101,0.9822,-0.0398,-0.7221,0.0903,0.0669,-2.7738,0.9887,-15.12,0,0,0,2.763018144869453
-0.1038,0.983,-0.0389,-0.7221,0.0903,0.0669,-2.59,1.2425,-14.6737,0,0,0,2.7751538911010543
-0.0996,0.983,-0.0409,-0.7214,0.0922,0.0671,-2.59,1.0237,-15.54,0,0,0,2.787333522795844
-0.102,0.9826,-0.0389,-0.7214,0.0922,0.0671,-2.905,1.3125,-15.295,0,0,0,2.799491211759039
-0.1014,0.9806,-0.0339,-0.7213,0.0926,0.0713,-2.7037,0.9975,-15.1375,-1.9744983587522815,-3.3898252781805156,5.845833958025539,17.802505859948038
-0.101,0.9805,-0.0417,-0.7211,0.0893,0.0622,-2.8087,1.0237,-15.5312,-2.4340104924781696,-4.806231912760846,5.1887940152582654,17.807952612193716
-0.1022,0.9806,-0.0382,-0.7211,0.0893,0.0622,-3.1238,1.1987,-15.4437,-2.2314330550980466,-5.415394900914189,5.163894096519106,17.812623228788013
-0.1021,0.982,-0.0395,-0.7215,0.0926,0.0682,-3.045,0.8838,-14.84,-2.303226586420882,-5.721767219013879,5.64588951899024,17.817140246261154
-0.1026,0.9838,-0.0383,-0.7215,0.0926,0.0682,-2.9488,1.015,-15.2775,-2.2296414970736143,-5.85179241014629,5.637051471584958,17.82178856620883
-0.1027,0.9812,-0.0407,-0.7206,0.0932,0.0682,-3.1325,0.9275,-15.1988,-2.3748544921625654,-5.921257857116181,5.663357629652172,17.826747977464105
-0.1011,0.9825,-0.0354,-0.7212,0.0908,0.07,-2.7037,1.2075,-15.8725,-2.0643645470184215,-5.894651207957946,5.755815983706226,17.831297201204585
-0.0995,0.9804,-0.0384,-0.7212,0.0908,0.07,-2.5725,0.9713,-15.2775,-2.2425035854639472,-5.834412452705959,5.77775709113502,17.83329328194959
-0.1037,0.9826,-0.038,-0.721,0.0914,0.0673,-2.8875,1.4175,-14.91,-2.214767622020261,-5.923864624413272,5.566115887983205,17.835268481708077
-0.1004,0.9822,-0.0417,-0.721,0.0914,0.0673,-2.2662,0.98,-15.365,-2.4304766397216966,-5.870368717803663,5.59265861425955,17.83731694187689
-0.105,0.9828,-0.0361,-0.7224,0.0926,0.061,-2.7125,0.9363,-15.4175,-2.104533044744176,-6.0013425707736445,5.053053880405011,17.83935867766021
-0.1029,0.9814,-0.0382,-0.725,0.0924,0.069,-3.1412,0.7175,-15.0675,-2.2287106332619055,-5.988800851984346,5.671514626220836,17.84142094051502
-0.1005,0.9809,-0.0378,-0.725,0.0924,0.069,-2.6338,1.1025,-15.015,-2.2069206893738107,-5.9093935712953805,5.669471990105313,17.843499129545993
-0.1019,0.9811,-0.0368,-0.7207,0.0909,0.0678,-2.4675,1.1375,-14.4725,-2.148258015793763,-5.91822060387308,5.5983343902788905,17.845638191961385
-0.1005,0.982,-0.0393,-0.7207,0.0909,0.0678,-2.9488,1.0587,-14.595,-2.2913785801677498,-5.8734881694103365,5.615868192403546,17.84768311297994
-0.1006,0.9812,-0.0368,-0.7185,0.0915,0.0719,-3.29,1.015,-14.7788,-2.1482738350335175,-5.8599857711860786,5.937458675863755,17.849668576274173
-0.1019,0.9828,-0.0396,-0.7244,0.0919,0.0675,-3.36,0.8925,-14.7,-2.306932928315754,-5.8924169438207805,5.568743043585333,17.851689431070977
-0.0992,0.9825,-0.0376,-0.7244,0.0919,0.0675,-3.1238,1.0237,-15.3212,-2.1919426692623887,-5.817688256250358,5.554688157542681,17.85387556418479
-0.1033,0.9816,-0.0389,-0.7225,0.0916,0.0682,-3.815,0.9975,-14.9975,-2.269182559500466,-5.924044506975237,5.631881425105804,17.856056388573215
-0.101,0.9797,-0.0399,-0.7225,0.0916,0.0682,-2.87,1.2075,-14.8662,-2.3320081747695918,-5.901189558739811,5.639796614211267,17.858087506905765
-0.1033,0.9813,-0.0404,-0.7224,0.0941,0.0676,-2.7037,1.575,-15.0762,-2.357458345577596,-5.94612041778354,5.6027094515349125,17.86012641136888
-0.103,0.9824,-0.0374,-0.7206,0.0906,0.0686,-2.765,1.3737,-14.6737,-2.1806888182147173,-5.963342885936727,5.664677379797611,17.861790873734797
-0.102,0.9817,-0.0423,-0.7206,0.0906,0.0686,-3.15,1.5312,-14.6037,-2.4664719594460425,-5.946721495450264,5.699443507113491,17.8630504573113
-0.1008,0.9803,-0.0384,-0.7218,0.09,0.0679,-3.4388,1.1375,-15.1462,-2.24384281738554,-5.902726513244608,5.607370280773073,17.864305086077444
-0.0986,0.9816,-0.0384,-0.7218,0.09,0.0679,-2.5638,0.9538,-15.5487,-2.240267249751278,-5.803119600711707,5.607203724083219,17.865531755556553
-0.0998,0.9807,-0.0464,-0.7233,0.0923,0.0714,-3.1763,1.4437,-15.1375,-2.7075280199333536,-5.803632036301615,5.930245811438154,17.8667520545652
-0.1054,0.9825,-0.0395,-0.7212,0.0907,0.0678,-1.9687,0.9363,-15.0762,-2.3033712692727315,-5.987765068708194,5.612607391391437,17.867978724044313
-0.1004,0.9817,-0.0383,-0.7212,0.0907,0.0678,-2.8612,1.295,-14.8925,-2.234392953204502,-5.909427297349281,5.604642536198366,17.86924113894102
-0.1012,0.9817,-0.0379,-0.7244,0.0923,0.0669,-2.2225,1.47,-14.7437,-2.210956271594351,-5.896269545580504,5.511089169447769,17.870469224080235
-0.1005,0.9828,-0.0375,-0.7244,0.0923,0.0669,-2.4675,1.225,-14.56,-2.1852054852152634,-5.863592435730378,5.507962641251437,17.871707926670222
-0.0996,0.9814,-0.0383,-0.7225,0.0922,0.0658,-2.8087,1.015,-14.9537,-2.2347469632989525,-5.821887359665168,5.442433934262382,17.873022720990736
-0.1038,0.9819,-0.0421,-0.7222,0.0913,0.0677,-2.5288,0.9887,-15.3125,-2.4545052301288677,-5.941219256995593,5.616941555471271,17.87426142358072
-0.1016,0.9813,-0.0382,-0.7222,0.0913,0.0677,-2.5725,0.805,-15.26,-2.2299033911970985,-5.92026261434297,5.589864869753093,17.875525254137532
-0.1019,0.9814,-0.0409,-0.7212,0.0897,0.0695,-2.4763,1.0062,-14.5687,-2.385997804588081,-5.9216859267168624,5.753033432059495,17.87676714196275
-0.1002,0.9822,-0.0367,-0.7212,0.0897,0.0695,-2.7037,0.7613,-14.9187,-2.1405465363705813,-5.859862506760348,5.723885161924472,17.877989210546524
-0.1007,0.9833,-0.0365,-0.7231,0.093,0.07,-3.1588,0.9975,-15.0937,-2.125878374071842,-5.85034337886689,5.753209012984866,17.879259057658775
-0.1044,0.9805,-0.0393,-0.7228,0.0928,0.0668,-3.325,1.12,-14.6475,-2.2948088683475034,-5.973001927870844,5.526538047437198,17.88055297099277
-0.1005,0.9825,-0.0384,-0.7228,0.0928,0.0668,-2.9575,1.1287,-15.0237,-2.238363684006439,-5.897765676121113,5.519797881138387,17.88178565702732
-0.1022,0.9817,-0.0429,-0.7222,0.0901,0.0678,-2.5288,1.4437,-14.9275,-2.5014885078457954,-5.916750187174588,5.627511156569088,17.88302966834269
-0.1016,0.9817,-0.0383,-0.7222,0.0901,0.0678,-3.0275,1.2775,-14.91,-2.2349405302206136,-5.910298085358233,5.59556235821175,17.884265893527495
-0.1026,0.9809,-0.0348,-0.7231,0.0919,0.0665,-2.8087,1.1987,-15.575,-2.0324267001370764,-5.940922182903237,5.466686330935592,17.88558068784801
-0.1021,0.981,-0.0403,-0.7217,0.0903,0.0674,-2.5375,1.1462,-15.54,-2.3515351784166842,-5.9386918829689215,5.582661620113625,17.88681903652297
-0.1008,0.9816,-0.0362,-0.7217,0.0903,0.0674,-2.7388,1.0325,-15.4088,-2.112690375688279,-5.8935148102938495,5.553959688177937,17.88805950868808
-0.105,0.9817,-0.0354,-0.7217,0.0942,0.0671,-3.1325,1.54,-14.875,-2.0653163524324274,-5.986253724614562,5.532339913705617,17.88930458174853
-0.1038,0.9831,-0.0407,-0.7217,0.0942,0.0671,-2.835,1.0412,-14.7788,-2.3698282965209527,-6.006552198443423,5.5708414620155535,17.890530189482565
-0.0998,0.9812,-0.0394,-0.7216,0.0913,0.0681,-2.7388,0.9538,-14.8837,-2.299665905973697,-5.88806199916938,5.634319452159642,17.891771015562703
-0.1041,0.9828,-0.0425,-0.7229,0.0913,0.0678,-3.185,0.6212,-14.77,-2.4756562246043696,-5.984735829141722,5.6220482265358305,17.893147745012715
-0.1004,0.9815,-0.0352,-0.7229,0.0913,0.0678,-2.8,1.3037,-15.54,-2.055110078240655,-5.909213903276565,5.571166945401114,17.894507486541496
-0.1008,0.9836,-0.0373,-0.7206,0.0916,0.0678,-2.7213,1.26,-14.8575,-2.1714033145551968,-5.876856150595377,5.603570567853628,17.895810247751136
-0.1042,0.9814,-0.04,-0.7206,0.0916,0.0678,-2.7125,1.3212,-15.2862,-2.333526433323984,-5.96743881254935,5.6230295048066,17.897085757503795
-0.1011,0.9828,-0.0378,-0.7207,0.091,0.0704,-2.1875,1.05,-14.9187,-2.2029591389661762,-5.911846946593834,5.8082125650239265,17.898395950928972
-0.1017,0.9814,-0.0372,-0.7213,0.0921,0.0678,-2.835,1.3825,-15.7675,-2.1708481401727466,-5.911963258946092,5.599235458322731,17.899778696934423
-0.1009,0.9808,-0.0372,-0.7213,0.0921,0.0678,-2.5813,1.3912,-15.5487,-2.172082468609841,-5.891183763854361,5.599344409171837,17.90106199281765
-0.0992,0.9805,-0.0348,-0.7232,0.09,0.0675,-2.3187,1.4612,-15.4437,-2.0330785065808703,-5.835883409926278,5.540471910890494,17.902391297654216
-0.1011,0.9823,-0.0386,-0.7232,0.09,0.0675,-2.31,1.2687,-15.2163,-2.249711163333996,-5.854519338132451,5.566319163367094,17.903674947452465
-0.1026,0.9823,-0.0414,-0.72,0.0908,0.0632,-2.5025,1.1987,-15.3912,-2.41290716268901,-5.909635489767048,5.275746737423751,17.904949395460047
-0.1038,0.983,-0.0353,-0.7219,0.091,0.0675,-2.87,0.9887,-14.875,-2.057619203290621,-5.9755003224707135,5.554498307898204,17.906187744135007
-0.1081,0.9837,-0.0382,-0.7219,0.091,0.0675,-3.0363,0.9887,-15.12,-2.2233889344673727,-6.143122190096707,5.574635634001226,17.907449451201664
-0.1073,0.9805,-0.0401,-0.7223,0.09,0.0718,-2.7913,1.2512,-15.2862,-2.341621655916071,-6.193833416360905,5.918504297065913,17.908686738131546
-0.1014,0.9825,-0.0367,-0.7223,0.09,0.0718,-2.485,0.945,-15.12,-2.1397726920060696,-6.015477528914729,5.895010148396416,17.90991340761066
-0.1002,0.9819,-0.0384,-0.7214,0.0938,0.0678,-2.7388,0.8138,-14.9275,-2.239298009184966,-5.898519426048652,5.6110255272761425,17.911135830109462
-0.1016,0.9821,-0.0392,-0.7242,0.0922,0.0672,-2.9663,0.8225,-14.9187,-2.2855890325482653,-5.900424851573052,5.544799981575892,17.912375594444523
-0.0985,0.9802,-0.0401,-0.7242,0.0922,0.0672,-3.0275,0.91,-14.9275,-2.342507329589427,-5.802036987100269,5.55206385995094,17.913620667504972
-0.1002,0.985,-0.0393,-0.7214,0.093,0.0731,-2.8087,1.1287,-15.3387,-2.2849618494891897,-5.803058915983212,6.027695165785564,17.91486149358511
-0.098,0.9809,-0.035,-0.7214,0.093,0.0622,-2.6863,1.2425,-15.505,-2.0441999175703365,-5.749888493709261,5.14809951450187,17.916093117874585
-0.1032,0.9793,-0.0415,-0.7217,0.0935,0.0622,-2.5113,1.68,-14.9012,-2.425528101488735,-5.85417981119914,5.193644557756367,17.91733075871949
-0.1073,0.9977,-0.0386,-0.7214,0.0916,0.0678,-2.6425,1.1375,-15.1988,-2.216189988694303,-6.007326059732542,5.602081049961195,17.918557074283576
-0.1118,0.9739,-0.0442,-0.7214,0.0916,0.0678,-2.6075,0.8838,-14.8662,-2.5975037995951387,-6.3250027495996015,5.648536650864254,17.919780912442484
-0.1042,0.9855,-0.0361,-0.7216,0.0911,0.0649,-2.59,1.225,-14.6387,-2.099251433869971,-6.169826329356022,5.359334230058503,17.921004396686364
-0.1008,0.9828,-0.0371,-0.7216,0.0922,0.0694,-2.5288,1.295,-14.5338,-2.161675627204212,-6.006761420711536,5.7206504805373175,17.922387142691814
-0.0992,0.9819,-0.0381,-0.7217,0.0922,0.0694,-2.3975,1.1112,-14.805,-2.221927849751335,-5.872888890171044,5.727700570508439,17.92362973834708
-0.0982,0.9706,-0.0373,-0.7211,0.0922,0.0679,-3.1675,0.5338,-14.4025,-2.200842946255907,-5.808485652245705,5.6127088084569,17.924857115656245
-0.105,0.9867,-0.0424,-0.7211,0.0922,0.0679,-2.7475,1.0675,-15.2425,-2.4598558269418054,-5.95460288382999,5.643942049327426,17.92609015560582
-0.1083,0.9859,-0.0423,-0.7233,0.0917,0.0716,-2.66,1.2337,-14.9362,-2.4567748917299013,-6.117137707799852,5.912817242226601,17.927317178999957
-0.0964,0.9877,-0.0368,-0.7196,0.0907,0.0674,-3.36,1.0325,-15.0762,-2.1346485069605627,-5.806654478320874,5.574170957246392,17.928557297250045
-0.0974,0.9778,-0.0315,-0.7196,0.0907,0.0674,-3.395,1.54,-15.2075,-1.8459563548808586,-5.752569388861682,5.538606960691589,17.92982254346696
-0.1045,0.9824,-0.036,-0.7221,0.0928,0.0678,-2.87,1.6887,-15.1725,-2.097963940899983,-5.877799267399924,5.585273466703872,17.93105416775643
-0.0971,0.9872,-0.0403,-0.7221,0.0928,0.0678,-2.8438,1.0587,-14.7,-2.3369985506213005,-5.728588988375845,5.615816567293058,17.93232047571842
-0.0999,0.9836,-0.0388,-0.7227,0.093,0.0649,-2.6513,1.2775,-14.8137,-2.259186771866142,-5.762881525216039,5.37571738671047,17.933600232451386
-0.0997,0.9808,-0.0382,-0.7215,0.0922,0.0741,-1.8463,1.1287,-14.9975,-2.2304963352909053,-5.78322350424726,6.096161642901397,17.93484742900199
-0.1032,0.9792,-0.0345,-0.7215,0.0922,0.0741,-2.2925,1.33,-14.7,-2.018444954936221,-5.898929819314075,6.070113956657193,17.936066312350537
-0.1037,0.9804,-0.0361,-0.7241,0.0922,0.0666,-2.6863,0.875,-14.875,-2.10852621698516,-5.979285873143857,5.477294362524721,17.937322356776782
-0.1008,0.9822,-0.0381,-0.7241,0.0922,0.0666,-2.7825,1.1287,-15.1375,-2.2211047387149536,-5.911113423533377,5.49103805554519,17.93856990724241
-0.1,0.9835,-0.0398,-0.7218,0.0929,0.0635,-2.17,1.085,-14.805,-2.317099579151835,-5.849681425270864,5.279963909278805,17.93978348186557
-0.1031,0.9817,-0.04,-0.7213,0.092,0.0727,-2.9138,1.4525,-14.665,-2.3332181948058768,-5.916153780821858,6.000430798855918,17.941013336579914
-0.1016,0.9834,-0.0376,-0.7213,0.092,0.0727,-2.7213,0.9538,-14.9713,-2.1900166207872727,-5.903434909079715,5.983537324927587,17.942288492417546
-0.1045,0.9824,-0.0402,-0.7222,0.0933,0.0674,-2.7213,1.47,-15.1725,-2.3428240972958037,-5.979803560569463,5.585064929902129,17.943577450941184
-0.1006,0.9814,-0.0392,-0.7222,0.0933,0.0674,-2.6075,1.2337,-14.9713,-2.2874990179661627,-5.9104101242812295,5.578300503662631,17.94491348016324
-0.102,0.9798,-0.0354,-0.7226,0.0911,0.0666,-2.5025,0.7962,-14.9012,-2.069788729456365,-5.928038490620082,5.481171044640544,17.94626295815627
-0.1035,0.9812,-0.0394,-0.7215,0.0932,0.0654,-2.9663,1.0237,-15.1287,-2.298837020728322,-5.978525718555698,5.428460654499651,17.94750803121672
-0.0998,0.9808,-0.0425,-0.7215,0.0932,0.0654,-3.0013,1.1112,-15.1812,-2.480683176632764,-5.882390578246976,5.45139945373957,17.94873222329065
-0.1031,0.9838,-0.0375,-0.7212,0.0919,0.0669,-3.0363,1.2687,-15.3212,-2.1837381607299555,-5.932179835668866,5.530457401511161,17.949961016259916
-0.1019,0.9811,-0.0384,-0.7212,0.0919,0.0669,-2.94,1.19,-14.8225,-2.2412385950248876,-5.928406103236498,5.537776862854096,17.951198657104825
-0.1033,0.9822,-0.0386,-0.7216,0.0906,0.0653,-2.625,1.4,-14.9187,-2.250513487308887,-5.962877088398941,5.407949919692099,17.95248938520359
-0.1053,0.9828,-0.0366,-0.7218,0.0904,0.0698,-2.73,1.015,-15.0062,-2.1330652344056746,-6.047675280313517,5.742514205101834,17.953721363408086
-0.1022,0.9809,-0.0394,-0.7218,0.0904,0.0698,-3.255,0.9363,-15.05,-2.2997120623972815,-5.986657802256088,5.763140999110289,17.95495546510274
-0.1021,0.9822,-0.0389,-0.725,0.0921,0.0668,-2.5988,0.665,-14.84,-2.268099699678901,-5.951108920706558,5.5053983449443855,17.95617894934662
-0.1002,0.9808,-0.0353,-0.725,0.0921,0.0668,-2.6775,0.8312,-14.7087,-2.0618153673722626,-5.877784769087439,5.480134214522295,17.957427561557324
-0.1018,0.982,-0.0409,-0.7248,0.0922,0.068,-2.9838,1.0587,-15.0062,-2.384080355190701,-5.897837080994298,5.614428589365791,17.958658478016744
-0.1032,0.9834,-0.0396,-0.7214,0.0912,0.0707,-2.94,0.7437,-15.3387,-2.3061825357648433,-5.95213970651639,5.838830179075997,17.95987913094042
-0.1008,0.9814,-0.0377,-0.7214,0.0912,0.0707,-3.1937,1.26,-15.1812,-2.200201419573856,-5.904141386377634,5.8263486418176385,17.961099783864093
-0.103,0.9805,-0.0388,-0.7206,0.0918,0.0678,-2.8,1.4787,-15.12,-2.26592400814007,-5.945079120122912,5.615457753422509,17.962382725832292
-0.098,0.9821,-0.0373,-0.7206,0.0918,0.0678,-3.1063,0.9975,-15.1375,-2.1752902935598653,-5.801049315301177,5.604774311054663,17.963767595327894
-0.0985,0.9815,-0.0415,-0.7227,0.0923,0.0679,-2.8875,1.1112,-15.1637,-2.4204715081093724,-5.759411205555397,5.627789137082609,17.964996742212186
-0.1024,0.9824,-0.0387,-0.7198,0.091,0.0689,-2.3275,1.225,-15.2862,-2.2563585675758557,-5.858171589951339,5.704440418718967,17.966225889096478
-0.1008,0.9833,-0.0384,-0.7198,0.091,0.0689,-2.8875,1.0062,-14.8662,-2.236443337683887,-5.852704459061433,5.702305241699249,17.96746069862118
-0.1019,0.9799,-0.0362,-0.7217,0.092,0.0673,-3.115,1.1812,-14.9362,-2.116023586662134,-5.895854644350053,5.5501170603022,17.96870895691686
-0.0991,0.9786,-0.0375,-0.7217,0.092,0.0673,-3.0188,0.7788,-14.875,-2.194286475680543,-5.824030510649523,5.5599987573126795,17.96993845771618
-0.1008,0.9816,-0.039,-0.7225,0.0934,0.0679,-2.5725,1.0675,-14.9975,-2.27500148172451,-5.843402141992156,5.613655439975212,17.971173621155906
-0.101,0.9862,-0.0361,-0.7228,0.0913,0.067,-2.7037,1.1812,-15.0587,-2.0968778180557375,-5.8434961114701425,5.514761218374431,17.97240170629512
-0.1038,0.9822,-0.0432,-0.7228,0.0913,0.067,-2.9663,0.7875,-15.4875,-2.5172464768813736,-5.955270170923304,5.565582757697742,17.97363085317941
-0.1003,0.9812,-0.035,-0.7223,0.093,0.0686,-3.0363,1.6712,-15.8025,-2.0442199356738966,-5.9058946631115585,5.640063803015337,17.974865308789088
-0.0968,0.9769,-0.0381,-0.7223,0.093,0.0686,-2.5813,1.1112,-15.96,-2.232933926672352,-5.766975142612786,5.664140431983965,17.97608525388271
-0.1028,0.9868,-0.0403,-0.7215,0.0918,0.0725,-2.7913,1.1112,-15.1988,-2.338315293940292,-5.863979432953178,5.983757767291846,17.977301305911052
-0.1025,0.9801,-0.0389,-0.7233,0.0916,0.0675,-2.59,1.2862,-15.4787,-2.2730472876472954,-5.916355840542207,5.572082901535763,17.978564074722787
-0.099,0.982,-0.042,-0.7233,0.0916,0.0675,-2.555,1.015,-14.8225,-2.448554024342526,-5.822215044252932,5.593630452407904,17.97980950169826
-0.0985,0.9817,-0.0386,-0.725,0.0915,0.067,-2.94,0.7962,-14.6737,-2.252228137281689,-5.763262183124418,5.517848534384132,17.98103227811209
-0.1014,0.983,-0.0388,-0.725,0.0915,0.067,-2.2662,0.98,-15.1812,-2.260326369907119,-5.83352031798154,5.518535521216122,17.98226885721192
-0.1115,0.9709,-0.0367,-0.7238,0.0934,0.067,-2.6075,1.3912,-14.84,-2.1650124715879393,-6.182162012504429,5.518971674522307,17.983502604991546
-0.1149,0.9586,-0.0281,-0.7226,0.0914,0.0675,-1.435,2.0825,-13.4663,-1.6804007430643368,-6.318434464564844,5.503199028300136,17.98471511786963
-0.121,0.9978,-0.0475,-0.7226,0.0914,0.0675,-1.75,3.0188,-12.8013,-2.722614623243139,-6.554603026206192,5.63061165632859,17.98594001777361
-0.0765,0.9996,-0.0529,-0.721,0.0927,0.0685,-0.9625,3.7538,-12.9587,-3.028490877952995,-5.278132442393015,5.7679556840863295,17.987169872487954
-0.0657,1.0137,-0.0565,-0.721,0.0927,0.0685,-1.6625,1.4875,-13.9912,-3.189715307191152,-4.549496674602337,5.791136102783823,17.98839477239194
-0.1197,1.003,-0.0628,-0.7226,0.0926,0.0698,-2.2838,1.4962,-16.52,-3.5816519509497473,-5.581079954517925,5.917402810844725,17.989629228001615
-0.0946,0.987,-0.0625,-0.7226,0.091,0.0679,-4.9175,0.0875,-16.5287,-3.6231986730547607,-5.499889872442823,5.769911449750183,17.990858374885907
-0.1089,0.9474,-0.0352,-0.7226,0.091,0.0679,-5.2588,0.3938,-17.29,-2.131964909890384,-6.19627891774425,5.588729805138216,17.992082566959837
-0.1251,0.9511,-0.0146,-0.7238,0.0937,0.067,-6.1075,1.61,-16.0387,-0.8829491556243346,-6.746532551542441,5.3575871282684675,17.99332480870008
-0.1024,0.9471,-0.0281,-0.7238,0.0937,0.067,-2.1613,1.4262,-13.9562,-1.697188636294253,-6.46912965224902,5.461822983531227,17.994576606146016
-0.1144,0.9698,-0.0219,-0.7213,0.0928,0.0698,-0.3588,1.6538,-13.3612,-1.2947390830865293,-6.5743490312610575,5.646132770533767,17.99581566265103
-0.0935,0.9831,-0.0475,-0.7216,0.0938,0.0679,0.0,2.2225,-13.3087,-2.762150634632351,-6.446550869154472,5.683725395843423,17.997104267259637
-0.0929,0.9995,-0.067,-0.7216,0.0938,0.0679,-0.56,1.4437,-13.9212,-3.832055583108041,-5.901370337353861,5.815681476900718,17.998444189546976
-0.0883,1.0005,-0.0439,-0.7224,0.0905,0.0677,-1.8987,0.91,-15.12,-2.51605159339851,-5.3926301385236455,5.6228186605904495,17.999697402653016
-0.1034,0.9956,-0.0516,-0.7224,0.0905,0.0677,-2.8875,0.4987,-16.4675,-2.9656282146308275,-5.735819602581261,5.674891352283432,18.00093893656321
-0.099,0.981,-0.0345,-0.7215,0.0925,0.0676,-3.3775,0.8138,-15.89,-2.0167909826470254,-5.749910674666254,5.563884741346238,18.00216560604232
-0.1009,0.9745,-0.0331,-0.7228,0.0931,0.068,-3.5088,0.84,-15.9162,-1.9455660103383006,-5.844945092981498,5.577450165075961,18.003474383807397
-0.1346,0.9633,-0.0355,-0.7228,0.0931,0.068,-3.0013,1.155,-15.015,-2.1100809707566914,-6.989470621481814,5.597238481979893,18.004714502057485
-0.0839,0.9585,-0.0181,-0.7222,0.0933,0.0674,-1.2512,0.7788,-14.2712,-1.0846538137418145,-5.775398470392356,5.430021767929317,18.005945064601878
-0.0957,0.9944,-0.0531,-0.7222,0.0933,0.0674,0.3325,0.175,-13.5625,-3.0512368676338033,-5.579528621915292,5.6740489303997,18.007156161819857
-0.1182,0.977,-0.0457,-0.7238,0.0924,0.0639,0.6038,1.6275,-13.5625,-2.679127279641383,-6.128567868994281,5.3386721156047505,18.0083612424824
-0.14,1.0034,-0.0411,-0.7222,0.0921,0.0668,-1.33,2.31,-14.105,-2.3464834392475966,-6.194414203070371,5.535161423672288,18.00958578847136
-0.1334,0.9939,-0.058,-0.7222,0.0921,0.0668,-3.6225,5.3987,-14.4812,-3.337013800144754,-7.276856685690146,5.656105636603902,18.010876516570125
-0.1606,0.9069,-0.0556,-0.7244,0.0933,0.0678,-4.5325,7.8138,-10.6837,-3.5078090837813485,-9.598952190056583,5.749391087159705,18.01216405943366
-0.11,0.9577,-0.0462,-0.7244,0.0933,0.0678,-1.1725,6.3263,-11.8387,-2.7638912890119816,-7.158149251759808,5.6503430393653495,18.013422581265083
-0.1017,0.9707,-0.0029,-0.7237,0.0934,0.0643,1.295,5.88,-8.8987,-0.178252925778467,-6.240744128323685,5.0594833898019775,18.0146273080126
-0.0842,0.954,-0.0187,-0.726,0.0949,0.0664,3.5525,3.2375,-9.4762,-1.1203855554601005,-5.676775669877498,5.330552335528776,18.015830619100015
-0.0226,0.9936,-0.0428,-0.726,0.0949,0.0664,4.2263,3.1937,-9.8962,-2.46288319476963,-3.671901540314848,5.525888058937268,18.017026144056864
-0.0315,1.0036,-0.0442,-0.7251,0.095,0.0667,3.8413,3.9375,-9.9663,-2.5215999805121783,-2.52037818941032,5.558709357748565,18.01822343858884
-0.0747,1.0103,-0.0485,-0.7251,0.095,0.0667,4.62,4.7775,-13.825,-2.7477912399876243,-3.7271455901592563,5.569885772520735,18.01944126019231
-0.1207,0.9883,-0.0892,-0.727,0.0946,0.0642,2.1088,4.305,-14.735,-5.1507483830988665,-5.8502891065011235,5.649163197386588,18.020677485377114
-0.1385,1.003,-0.0962,-0.7278,0.0935,0.0641,0.7525,3.3863,-15.3737,-5.477712695948632,-6.8570784998495755,5.667840705617933,18.021908401836534
-0.0931,1.0077,-0.081,-0.7278,0.0935,0.0641,-2.0913,1.925,-14.56,-4.598046569339723,-6.382970608817995,5.563888511971177,18.023150289661753
-0.0808,1.0039,-0.0641,-0.7294,0.0941,0.0648,-3.0975,1.4,-15.68,-3.656043084445629,-5.511621629522839,5.49730530523639,18.02439040791184
-0.1071,0.9875,-0.0681,-0.7294,0.0941,0.0648,-4.8825,1.5225,-17.745,-3.9441845037605607,-5.81170338239658,5.528449777896368,18.025605398195104
-0.1002,0.9754,-0.0426,-0.7271,0.0947,0.0696,-6.5887,1.155,-18.1212,-2.5047974620673705,-5.837815819123567,5.741480197461962,18.026824635458674
-0.0957,0.9468,-0.0262,-0.7275,0.0943,0.067,-5.6525,1.4088,-16.3537,-1.587653538050841,-5.804736026007231,5.4222170530354274,18.02806263021861
-0.1097,0.931,-0.011,-0.7275,0.0943,0.067,-2.3625,2.275,-15.3475,-0.6794447235945533,-5.866827129787589,5.30549537572127,18.029359020957784
-0.1218,0.9501,-0.0231,-0.7266,0.0941,0.0655,1.1812,2.6513,-12.4162,-1.3908224953196942,-6.201257139034625,5.286010355879211,18.03057967388146
-0.1028,0.9657,-0.0407,-0.7266,0.0941,0.0655,3.8675,1.7062,-10.5525,-2.410563589644974,-6.150338605156784,5.414901268629832,18.031797849399954
-0.0729,1.0006,-0.0448,-0.7262,0.0951,0.0632,5.565,1.3475,-10.255,-2.5631865238346316,-5.156440037330475,5.267446362312778,18.033008946617933
-0.0465,0.9924,-0.04,-0.7303,0.0967,0.0646,5.285,2.5638,-11.1737,-2.3088221002595843,-4.7166387506943455,5.327854768599869,18.034216504685656
-0.062,0.9862,-0.0406,-0.7303,0.0967,0.0646,4.0862,4.8825,-12.6262,-2.3572965984154903,-3.911802850301629,5.327974683678887,18.035432202798972
-0.1102,0.9525,-0.0685,-0.7278,0.0966,0.0633,3.8413,6.5188,-11.9,-4.108639720919838,-6.066164199641522,5.456225977469626,18.036647193082235
-0.1167,0.9381,-0.0795,-0.7278,0.0966,0.0633,4.6638,7.2625,-10.9637,-4.842010528188132,-6.897053741505139,5.546947409891749,18.037853335489853
-0.0991,0.9406,-0.0679,-0.7293,0.0979,0.0616,7.0875,8.2163,-9.6162,-4.130820683048322,-6.1296646221535465,5.323384396233735,18.039067617943065
-0.0901,0.9463,-0.0606,-0.7308,0.0991,0.063,9.8437,10.0187,-7.4725,-3.665399934922956,-5.508790512561431,5.367970424742538,18.040295349167256
-0.078,0.9216,-0.065,-0.7308,0.0991,0.063,12.2412,12.6087,-1.0062,-4.033384465482608,-4.886444223454023,5.4176413744820096,18.041526973456726
-0.0701,1.3843,-0.1002,-0.7354,0.0995,0.059,20.8162,18.2525,2.38,-4.139752499554971,-3.009408594601225,5.104253377978842,18.042749749870556
0.0866,0.8758,-0.1041,-0.7354,0.0995,0.059,13.02,16.5375,-2.31,-6.771547871057756,5.040574639890593,5.556539346810379,18.04397040279423
-0.1536,1.1092,-0.0323,-0.7373,0.1019,0.0576,18.1387,15.6012,3.5875,-1.6813108281829154,-6.974231174310845,4.652235478589443,18.04521193670442
-0.1214,1.0022,-0.1489,-0.7578,0.1042,0.0561,12.3375,8.6625,1.9337,-8.432849544618868,-6.851884719803725,5.296443209554454,18.04641737128199
-0.1189,1.028,-0.0522,-0.7422,0.1042,0.0561,8.0412,5.2937,0.7,-2.921698014153959,-6.6557597918013185,4.680669364078604,18.047602986618116
-0.0861,0.9722,-0.1078,-0.7442,0.1063,0.0559,3.71,1.995,-1.0675,-6.318015556205859,-6.231866870598779,5.1249926474917356,18.048803820300353
-0.0721,0.9905,-0.0942,-0.7442,0.1063,0.0559,-1.4,-1.0325,-1.9337,-5.435124165834951,-4.62116493615622,5.010584646585698,18.05002164190382
-0.0694,0.9944,-0.1024,-0.7448,0.107,0.0535,-2.9663,-2.2662,-1.0412,-5.878177323014445,-4.087069039315249,4.891063872659505,18.05123875567724
-0.0712,0.9694,-0.0802,-0.7448,0.107,0.0535,-4.2788,-2.3538,-0.42,-4.732585830735088,-4.169009005244264,4.734700019818551,18.05255921263816
-0.0583,0.9706,-0.0766,-0.7523,0.1087,0.061,-3.5,-0.9887,-0.4462,-4.513053768664538,-3.597927174673726,5.23399343017907,18.053783404712096
-0.0687,0.9806,-0.039,-0.7529,0.1085,0.0559,-2.4063,0.3588,-0.2275,-2.283709826510636,-3.8684036671664597,4.536056325339538,18.054992024524896
-0.0445,0.9275,0.2284,-0.1414,0.2143,0.2476,-4.1213,0.2362,-0.0483,13.78935155805908,-3.053303461474499,50.87931255846352,18.05781555860001
-0.0445,0.9275,0.2284,-0.1414,0.2143,0.2476,-4.1213,0.2362,-18.4975,13.833903498262112,-2.7913481311968407,50.90985899588277,18.059026301902964
-0.0486,0.9373,0.2273,-0.1414,0.2143,0.2476,-3.5175,0.6563,-17.8762,13.631929132935895,-2.8500314644617686,50.87609419371508,18.060241646101254
-0.0771,0.9539,0.2278,-0.1386,0.2145,0.2487,-2.7738,1.2163,-17.535,13.43175281758659,-3.7233046886313326,50.37294890087841,18.061456990299543
-0.0772,0.9556,0.2269,-0.1386,0.2145,0.2487,-3.5,-0.7088,-16.3625,13.357303376144007,-4.304239492514848,50.42705497796596,18.06268330586363
-0.0682,0.9487,0.2252,-0.1419,0.2142,0.2485,-3.9288,-1.0762,-15.05,13.353582668520286,-4.069539300565436,50.22236114687871,18.063915991898178
-0.0539,0.9469,0.223,-0.1432,0.2149,0.2485,-3.1937,-1.1462,-15.4437,13.252267174624127,-3.371201747608548,50.6914461135887,18.065148677932726
-0.0408,0.9471,0.2261,-0.1432,0.2149,0.2485,-3.0713,-1.085,-15.8112,13.426360669338994,-2.6186066700006316,51.195312322701675,18.066372162176606
-0.0248,0.9473,0.2296,-0.142,0.2142,0.2486,-3.0275,-0.455,-16.0562,13.623678292383259,-1.7628019541981512,52.11196357925552,18.067590337695098
-0.0222,0.9482,0.2287,-0.142,0.2142,0.2486,-2.3538,1.4,-15.925,13.560566971350347,-1.5394676451468876,52.28843800374643,18.06880214274313
-0.0372,0.9468,0.2309,-0.1405,0.2135,0.2521,-1.9775,1.9687,-15.7062,13.705029415785663,-1.7171940669781143,52.22868398502459,18.070008639065776
-0.0587,0.9482,0.2326,-0.1416,0.2129,0.2505,-1.61,2.6863,-15.3125,13.782673401054845,-2.1530653710219374,50.750310182683094,18.071222213688937
-0.0654,0.9452,0.2331,-0.1416,0.2129,0.2505,-1.505,2.7562,-15.2512,13.85333751957462,-2.643189559996202,50.37807669269179,18.072453837978408
-0.0632,0.9429,0.2294,-0.1414,0.2142,0.2467,-0.4987,2.5813,-14.9713,13.674435376850496,-2.8482148554773103,50.041590035624424,18.073679091797416
-0.0561,0.9439,0.2266,-0.1414,0.2142,0.2467,-0.9975,2.4675,-14.8575,13.499887501086324,-2.8973217947876764,50.503800545800445,18.074916732642325
-0.0493,0.9449,0.2275,-0.1406,0.2126,0.2461,-0.3237,2.45,-15.2687,13.537133723235106,-2.8979278006772855,50.934678107044036,18.0761388012261
-0.0467,0.9484,0.2212,-0.141,0.2141,0.2458,-0.3938,2.2662,-17.0975,13.12979537600395,-2.8864240443512776,51.174935003981126,18.07735591499952
-0.0522,0.9522,0.2272,-0.141,0.2141,0.2458,-0.3763,3.6312,-16.6075,13.419356477606767,-2.9796675547996236,50.7172615666133,18.07860983593561
-0.0614,0.9648,0.2264,-0.1414,0.2138,0.2466,-0.1837,3.57,-15.995,13.206675299313074,-3.2907909472471495,50.52821014770461,18.0798251801339
-0.0812,0.9587,0.2279,-0.1414,0.2138,0.2466,-1.3387,2.9838,-14.5162,13.371572651399953,-3.84275818498111,49.498467450212566,18.081040878247215
-0.0798,0.9492,0.223,-0.1404,0.2131,0.2494,-2.1263,2.275,-13.2475,13.2214196016368,-3.8994919911328654,50.229403159130705,18.08229515309833
-0.0715,0.9462,0.227,-0.1404,0.2131,0.2494,-1.7762,1.8288,-12.4862,13.489953111633575,-4.003043328616959,50.40521694892485,18.083504480741183
-0.0531,0.9432,0.2231,-0.1438,0.2121,0.2482,-1.225,1.8025,-12.1538,13.30838035189022,-3.697038046806293,50.65229546643467,18.084726903239986
-0.0442,0.9466,0.2222,-0.1412,0.2124,0.2458,-1.5575,1.8288,-12.5387,13.21042326811991,-3.323150635070972,51.268559097540496,18.085945786588532
-0.0545,0.9687,0.2128,-0.1412,0.2124,0.2458,-1.715,1.54,-13.7725,12.391962367574676,-3.2436705900119067,51.401031695707154,18.087149805505998
-0.0647,0.9679,0.2191,-0.1399,0.2137,0.2458,-1.96,1.5575,-14.245,12.753876084243496,-3.458436894681848,50.86277422080459,18.092430217689593
-0.0685,0.9603,0.223,-0.1399,0.2137,0.2458,-2.7475,1.6975,-14.9537,13.072580264028417,-3.6618682367263413,50.44251761416113,18.101045571160455
-0.0614,0.9556,0.2223,-0.1416,0.214,0.2474,-3.605,0.5862,-14.9537,13.095665129974227,-3.6102847169830503,50.64606208379738,18.113220248044883
-0.0555,0.9568,0.2191,-0.1426,0.212,0.2473,-3.815,0.6212,-15.3125,12.898473489782818,-3.3733923351531843,50.95195221358754,18.125444473032914
-0.0445,0.9432,0.2228,-0.1426,0.212,0.2473,-4.1912,0.49,-14.8662,13.289533018235845,-2.889449110811519,51.16403837980231,18.138232130741873
-0.0455,0.9378,0.2126,-0.143,0.2134,0.2462,-3.8413,0.63,-14.945,12.774532436279264,-2.7754284129930946,51.176095372635444,18.150355489947575
-0.0533,0.9431,0.2169,-0.143,0.2134,0.2462,-2.6863,0.8487,-14.77,12.951524405309247,-3.001643903705241,50.69696795632622,18.162543261687954
-0.0553,0.9495,0.2199,-0.1413,0.2138,0.2475,-2.3187,0.9538,-14.1225,13.039318059905645,-3.1447719898803266,51.027665756369025,18.174703781971356
-0.0603,0.9529,0.2136,-0.1412,0.2124,0.2474,-2.3363,0.9625,-13.7112,12.635564447149692,-3.3704883283894955,51.14723325062097,18.186850499568752
-0.0598,0.9502,0.2128,-0.1412,0.2124,0.2474,-2.1613,1.0762,-13.545,12.623298450843338,-3.45098323755276,51.17005521172904,18.196054767642398
-0.0405,0.9476,0.2128,-0.1425,0.2137,0.2461,-2.5725,0.5425,-13.615,12.65669313679748,-2.7668597244141075,51.5804517941151,18.20818626689369
-0.037,0.9501,0.2065,-0.1425,0.2137,0.2461,-2.4063,0.5862,-14.7437,12.263358171733776,-2.3920784990042394,52.01829743680419,18.220291930348107
-0.029,0.9542,0.2138,-0.1421,0.2146,0.2474,-2.555,1.4262,-15.33,12.628211979602634,-2.0595348112984264,52.38715258175283,18.23244784973617
-0.0283,0.9561,0.2078,-0.1416,0.2118,0.2465,-2.6863,2.555,-16.1262,12.263047938348976,-1.9904054793035764,52.73546045566243,18.244593151673467
-0.0357,0.9534,0.2133,-0.1416,0.2118,0.2465,-3.1588,2.6863,-16.8525,12.609904426712724,-2.0162873131130983,52.14607474464701,18.256709432578656
-0.0631,0.9425,0.2218,-0.1414,0.2133,0.2452,-3.885,3.9288,-17.43,13.240800465999957,-3.0652043397766957,50.18260453811758,18.268815803863124
-0.0716,0.9424,0.2248,-0.1414,0.2133,0.2452,-2.9838,3.7713,-17.2287,13.416119908676286,-3.7473959996456863,49.66461553453148,18.278065019145032
-0.0767,0.9421,0.2219,-0.1399,0.2121,0.2493,-2.2575,3.57,-17.36,13.254187215837675,-4.178350054417084,50.4399807225061,18.29019934971653
-0.076,0.9452,0.2255,-0.1408,0.2136,0.2445,-1.5837,2.3975,-16.73,13.417993942577752,-4.1922568645794795,49.46389078600638,18.30242605210974
-0.0676,0.9431,0.2228,-0.1408,0.2136,0.2445,-1.2163,1.61,-15.7412,13.292325927829742,-4.106553489743268,49.93200208599277,18.314113741918792
-0.0498,0.9406,0.2194,-0.1426,0.2131,0.2473,-1.33,1.5575,-15.9162,13.130232924617205,-3.596719457566623,50.969704487363934,18.326279924842606
-0.0453,0.9494,0.2156,-0.1426,0.2131,0.2473,-0.6563,1.5662,-15.8725,12.79527580839807,-3.1875428908992203,51.43447580844098,18.33849211671976
-0.0523,0.9643,0.2162,-0.1398,0.2153,0.2463,0.0088,2.2838,-16.2488,12.637404793717327,-3.1780307935730936,51.52692421541015,18.35065015959798
-0.0653,0.9728,0.2115,-0.1398,0.2118,0.2448,-1.085,2.275,-16.6338,12.267017222512548,-3.2170380845367257,51.146872941500284,18.36281881992697
-0.0745,0.9729,0.2117,-0.1408,0.2118,0.2448,-2.94,1.12,-15.5837,12.275995210012058,-3.802391258646453,50.557957871446916,18.371629180577
-0.072,0.9686,0.2109,-0.141,0.2138,0.2457,-2.73,0.4987,-15.2075,12.283660946651867,-4.030738430900583,50.650464948418495,18.383819075807537
-0.0541,0.959,0.2082,-0.141,0.2138,0.2457,-3.1063,-0.5513,-15.5225,12.24899428484505,-3.37993309393844,51.45489890976131,18.39604719386085
-0.0441,0.9523,0.2084,-0.1391,0.2132,0.251,-3.5875,-0.1837,-15.1112,12.343669081002407,-2.8138263442190374,52.93117457903079,18.408289822430213
-0.045,0.9442,0.2167,-0.1391,0.2132,0.251,-3.78,0.3763,-14.9362,12.924292286064727,-2.711485447066454,52.486846261123816,18.420462729739516
-0.0553,0.9457,0.2164,-0.1386,0.2141,0.2475,-3.675,1.2425,-13.8512,12.888917588914454,-3.0007402302193134,51.59645688388272,18.432650501479895
-0.0667,0.9518,0.2167,-0.1416,0.2136,0.2455,-3.8937,1.9162,-12.215,12.826293644214758,-3.2745324472304103,50.3329799597519,18.444805359122885
-0.0636,0.9399,0.2181,-0.1416,0.2136,0.2455,-3.6925,1.7062,-10.78,13.06339176272201,-3.468656897050957,50.269746564898256,18.457022859725424
-0.0553,0.937,0.2197,-0.1439,0.2138,0.2479,-2.6775,2.3888,-9.8525,13.195497864395598,-3.4615648269583943,50.47755324839877,18.465827557735043
-0.0453,0.9407,0.2173,-0.1439,0.2138,0.2479,-1.8987,2.905,-10.64,13.007590518799645,-3.1841766787331753,51.0905055515683,18.47799480240393
-0.042,0.9476,0.217,-0.142,0.2122,0.245,-0.8225,3.2638,-10.6925,12.898612701757441,-2.8445968895605156,51.34073659855213,18.49023070658781
-0.039,0.9547,0.2114,-0.1412,0.2112,0.2465,-0.5338,3.605,-11.2788,12.486723642573514,-2.5323588431163877,52.169361800964126,18.50290086450823
-0.0309,0.9536,0.2219,-0.1412,0.2112,0.2465,-1.155,3.955,-12.215,13.097764236365276,-2.0856288060825228,52.14781452435567,18.51456165677533
-0.0328,0.9425,0.2163,-0.1412,0.2107,0.2447,-2.1175,4.9263,-12.81,12.925811727295796,-1.982631659764656,51.92192529921823,18.526909044192305
-0.0321,0.9374,0.2162,-0.1412,0.2107,0.2447,-1.785,4.8913,-13.545,12.987304419493103,-1.9312994884037482,51.905552323655655,18.538906409648856
-0.0333,0.9372,0.2224,-0.1413,0.2089,0.2394,-1.1725,5.39,-14.8137,13.348516032919884,-1.9679528405224282,50.891744054002025,18.547767026232535
-0.0288,0.9399,0.2177,-0.1432,0.2114,0.2443,-0.9625,4.9963,-16.0212,13.041755161117843,-1.780588559921276,51.58139854032162,18.559968246743892
-0.0308,0.9521,0.2059,-0.1432,0.2114,0.2443,-0.7263,4.9263,-16.73,12.205103180450777,-1.802509069373865,52.06465296778692,18.57212805919724
-0.0307,0.949,0.2086,-0.1395,0.2105,0.2431,-0.0963,5.5388,-17.8325,12.396526154946843,-1.8079763560639157,52.4885030744909,18.584328571878547
-0.0261,0.9575,0.2077,-0.1395,0.2105,0.2431,-0.5075,5.7838,-19.6875,12.239367088947994,-1.5895181261763243,52.8293492383159,18.596529792389905
-0.0237,0.9599,0.2025,-0.1399,0.2089,0.2458,-0.4112,6.1512,-21.0613,11.913317880394802,-1.4267087493744344,53.50647844706719,18.6087232267707
-0.0312,0.9582,0.2083,-0.1378,0.211,0.2401,-0.6913,6.4138,-22.26,12.263561157604416,-1.7443069885380376,52.449095535399266,18.620933649072725
-0.04,0.9519,0.2142,-0.1378,0.211,0.2401,-1.6362,6.5713,-22.7588,12.680521515452613,-2.232095349633651,51.72594725840431,18.629737285337264
-0.0551,0.9429,0.2099,-0.1371,0.2125,0.2415,-1.8375,7.35,-24.045,12.55039754038156,-3.0926135916138286,51.334175920263725,18.641908423071435
-0.0651,0.9468,0.2072,-0.1371,0.2125,0.2415,-1.96,7.5513,-23.7475,12.344708759632953,-3.721777546978022,51.01662823049272,18.654097256556895
-0.0672,0.9502,0.2069,-0.1338,0.2144,0.2446,-1.12,6.9475,-24.1937,12.284215048438575,-3.9117183729910914,51.921695275100475,18.66631086409415
-0.0734,0.9545,0.2067,-0.1326,0.2141,0.2369,-0.7437,6.23,-24.43,12.219090524609138,-4.218950516237742,50.8395250174965,18.678480232253197
-0.0786,0.9553,0.2034,-0.1326,0.2141,0.2369,-0.8663,5.3812,-24.4212,12.020327322087098,-4.506205106060184,50.7419785992052,18.69066375701327
-0.0921,0.9553,0.2126,-0.132,0.2151,0.2394,-1.9862,4.1563,-23.485,12.545137694337436,-5.066371925108115,50.164573982267,18.70288444285104
-0.0886,0.9528,0.2098,-0.132,0.2151,0.2394,-2.52,3.08,-23.0212,12.418322893838843,-5.118207637727496,50.40633362414538,18.715043901389365
-0.0849,0.9524,0.2075,-0.1298,0.2149,0.2394,-3.0713,1.9162,-23.415,12.291347728151099,-5.075906929316432,51.07707709195348,18.723901686652837
-0.0753,0.9484,0.2165,-0.1298,0.2167,0.239,-3.1238,1.435,-23.8262,12.857519452059995,-4.765858059189673,50.964229626580256,18.736016197982895
-0.0686,0.9477,0.2108,-0.1283,0.2167,0.239,-3.0275,1.1638,-23.695,12.541206265254715,-4.3732954792886565,51.80210267776405,18.748262011787492
-0.0644,0.945,0.2148,-0.1278,0.217,0.2402,-2.485,1.12,-24.0275,12.805108191524065,-4.058379458665664,52.06476167307521,18.760458631403516
-0.0795,0.9548,0.2123,-0.1278,0.217,0.2402,-1.7675,1.5925,-24.7012,12.53653835326554,-4.311533607230877,51.552847472295014,18.77263897092836
-0.0934,0.9587,0.2179,-0.1268,0.2182,0.2404,-1.8637,1.4437,-24.9725,12.804301381473262,-4.841105223934737,50.86592211247674,18.784837006204484
-0.1074,0.9586,0.2125,-0.1268,0.2182,0.2404,-1.61,1.0412,-24.675,12.499900013402998,-5.634867144039717,50.44148597444637,18.797028671010146
-0.1175,0.9595,0.2125,-0.1254,0.2182,0.2397,-2.2838,-1.0762,-24.255,12.487737375848498,-6.55061296245783,50.14923360808084,18.80598555248082
-0.1172,0.959,0.2156,-0.1244,0.2188,0.2399,-2.6513,-2.4763,-23.5025,12.66992712655235,-6.756794869836572,50.19903671224803,18.818072458438873
-0.0972,0.9601,0.2159,-0.1244,0.2188,0.2399,-3.2638,-3.0888,-22.4,12.673415467022979,-5.814328816424031,51.13127777116492,18.8302966834269
-0.0882,0.9576,0.2131,-0.1241,0.2205,0.2388,-3.2987,-2.9838,-22.3038,12.546264298774373,-5.244331149672963,51.461074849718734,18.842566209538223
-0.0876,0.9538,0.2243,-0.1241,0.2205,0.2388,-3.43,-2.4325,-21.5425,13.231587211873402,-5.132333886337105,50.957991564375384,18.854737347272394
-0.0844,0.9494,0.2262,-0.1228,0.2202,0.2378,-3.1937,-1.7762,-20.8162,13.400731259848266,-4.979554259128602,51.08615790082737,18.866980329756785
-0.0943,0.9489,0.2186,-0.1233,0.2192,0.2404,-1.9862,-1.3737,-19.9237,12.974185170525287,-5.414498270480182,51.25087177513864,18.879188274653632
-0.1092,0.9467,0.2222,-0.1233,0.2192,0.2404,-1.365,-0.63,-18.69,13.2081610480198,-6.157688668581795,50.34599815295741,18.891404005681043
-0.1084,0.9463,0.2201,-0.1234,0.2192,0.2394,-0.5075,-0.5862,-17.2987,13.093943942196063,-6.31330479119244,50.306011475269905,18.90363990986492
-0.1023,0.9522,0.2172,-0.1234,0.2192,0.2394,-0.105,-0.4375,-15.6625,12.850181131081618,-6.067787179205638,50.811612532222156,18.91583759122602
-0.0931,0.9561,0.2117,-0.1238,0.2199,0.2452,0.0,0.525,-14.8312,12.486019385317675,-5.656526308269094,52.24426253911083,18.92463556485015
-0.0871,0.9598,0.211,-0.1216,0.2178,0.2398,0.4288,1.365,-14.315,12.398775108079498,-5.363320321493427,52.38071496318066,18.936896950915877
-0.0935,0.9683,0.2069,-0.1216,0.2178,0.2398,0.1225,3.8063,-13.755,12.06213751578036,-5.381764042552713,52.352563079464886,18.94902101795163
-0.1021,0.9717,0.2104,-0.1238,0.2177,0.2411,-0.735,4.1912,-12.8537,12.217092496589663,-5.6939912524652225,51.62835379628143,18.961139068431947
-0.1083,0.9639,0.2089,-0.1238,0.2177,0.2411,-0.98,3.9638,-12.5037,12.228214687819799,-6.047567854545481,51.29589232808501,18.97334559766869
-0.1097,0.9539,0.2079,-0.1241,0.2194,0.239,-1.7237,3.5875,-11.9875,12.295008481713777,-6.248777327337663,50.69092203708022,18.985483821305472
-0.1068,0.952,0.2103,-0.1258,0.2174,0.2386,-1.7762,3.7275,-10.9112,12.456332971231934,-6.250343545974764,50.432030880409116,18.99773706732561
-0.091,0.9476,0.2079,-0.1258,0.2174,0.2386,-1.085,3.675,-11.3925,12.374650685300411,-5.741854567034488,51.21203746385892,19.00650601991763
-0.0886,0.9511,0.2072,-0.1242,0.2174,0.2371,-1.6013,3.185,-11.7425,12.29026437771437,-5.4952791252022735,51.489963547306196,19.018716442219656
-0.0866,0.9538,0.2112,-0.1242,0.2174,0.2371,-0.8925,3.3688,-11.1737,12.485012798812555,-5.2783505822185415,51.45591567885281,19.030882271228442
-0.0804,0.952,0.2088,-0.1255,0.2182,0.2438,-0.245,3.6575,-12.18,12.370986952966378,-4.959371018961287,52.49356616127462,19.043101187491086
-0.0825,0.9515,0.2065,-0.1235,0.2158,0.2362,-1.1725,3.4038,-12.9412,12.24511959348067,-4.899732797927833,51.90226862942057,19.05530346974752
-0.0798,0.9518,0.209,-0.1235,0.2158,0.2362,-1.225,3.2462,-12.845,12.38429516279414,-4.7964622482025385,51.934261160445956,19.06749301106303
-0.0763,0.9464,0.2089,-0.1234,0.2179,0.237,-1.155,3.4563,-13.2388,12.44719911439832,-4.6413381199090065,52.075145167938196,19.079686091528796
-0.083,0.9456,0.2043,-0.1234,0.2179,0.237,-1.155,3.745,-13.9212,12.192253714225867,-4.794257490564622,51.92426052828389,19.088487958218206
-0.0791,0.9431,0.2111,-0.125,0.2173,0.2322,-1.0587,3.8413,-14.0787,12.615737382937056,-4.725258510493707,50.81499788669149,19.10066298901766
-0.0767,0.9408,0.212,-0.1235,0.2162,0.2298,-0.6913,5.1975,-14.6125,12.698703013269878,-4.593513952997798,50.84599822751455,19.112871641744558
-0.0773,0.9404,0.2083,-0.1235,0.2162,0.2298,0.42,5.2325,-14.7087,12.490022819813142,-4.589698198437903,50.97210968313435,19.125089496262124
-0.0941,0.9454,0.2065,-0.123,0.215,0.2335,0.42,5.46,-14.6825,12.321835095828758,-5.319569300472111,51.000306186736815,19.13720683891239
-0.105,0.9473,0.2033,-0.123,0.215,0.2335,0.8138,5.8362,-13.8162,12.113089684000352,-5.992354103185887,50.64885956341494,19.149352848679737
-0.112,0.952,0.1982,-0.1238,0.2166,0.2343,1.0762,5.0838,-13.5362,11.761561075207497,-6.415550144301105,50.496458914339705,19.16144718685333
-0.111,0.9586,0.2012,-0.1238,0.2166,0.2329,1.2775,3.9288,-13.055,11.853459279810595,-6.446108862181949,50.304932684165685,19.17029789381629
-0.1045,0.964,0.1992,-0.1271,0.2165,0.2329,0.9887,3.0625,-13.16,11.675704955600187,-6.2850947705439815,50.15978042743131,19.182465138485178
-0.0977,0.9676,0.1959,-0.1262,0.2156,0.233,0.91,2.5375,-13.3087,11.446007504172067,-6.184113581266977,50.87533273697535,19.194609732592422
-0.089,0.9664,0.2011,-0.1262,0.2156,0.233,-0.1575,1.5225,-13.125,11.754182660034004,-5.717459870259448,51.04624527434013,19.206799981737984
-0.092,0.9628,0.1982,-0.125,0.2158,0.232,-0.3237,0.91,-13.44,11.632625052157007,-5.498880647186499,51.049918713795556,19.219012881445188
-0.0939,0.9593,0.1951,-0.125,0.2158,0.232,-0.2888,0.6737,-13.6325,11.496257588101871,-5.486473056214518,51.04474170480605,19.23120985497624
-0.0938,0.9562,0.194,-0.1249,0.2148,0.2336,-0.7962,0.1575,-14.0875,11.468938312618043,-5.489869964020385,51.35195291418771,19.24000676685529
-0.0867,0.9551,0.195,-0.1246,0.2139,0.2335,-0.7788,-0.42,-14.4462,11.539128554494548,-5.19067209530427,51.713545717819144,19.252207279536595
-0.0844,0.9553,0.1901,-0.1246,0.2139,0.2335,-0.6388,-0.9275,-15.05,11.255339886380936,-5.008073186956952,52.023919939905134,19.264447076785757
-0.0792,0.9589,0.1928,-0.125,0.2135,0.232,-0.525,-0.665,-15.435,11.368212339776287,-4.723746732478422,51.931974399904206,19.27665926866291
-0.0787,0.9588,0.1951,-0.125,0.2135,0.232,-0.315,-0.7962,-15.7325,11.501351562750267,-4.628798015144949,51.86128221308817,19.28889517284679
-0.0794,0.9575,0.1951,-0.1256,0.2138,0.2402,-0.9887,-1.0237,-16.0212,11.516873915415175,-4.64155912081748,52.83934447118054,19.3011109038742
-0.08,0.9526,0.1938,-0.1262,0.2149,0.2328,-0.2187,-0.3763,-16.625,11.499547449704963,-4.687634695444483,51.601132341552315,19.313343268907822
-0.0856,0.9506,0.1959,-0.1262,0.2149,0.2328,0.1138,-0.6737,-16.1087,11.644120604962245,-4.952503397410621,51.22245073753656,19.325515822302094
-0.0886,0.9539,0.1929,-0.1258,0.2129,0.2308,0.9275,-0.4462,-16.2313,11.432898669337003,-5.13610140983566,51.126096972584584,19.33779808935434
-0.0874,0.9595,0.1867,-0.1258,0.2129,0.2308,0.91,-0.1663,-16.555,11.012205869464921,-5.116965767264688,51.50436353712243,19.346538728744306
-0.0867,0.9623,0.1845,-0.1258,0.2156,0.2366,0.7875,-0.5075,-16.7737,10.853936567668207,-5.072292109393316,52.35871910130285,19.358710574308528
-0.0848,0.9655,0.1834,-0.1253,0.212,0.2314,0.2975,-0.7788,-16.5025,10.755659521056277,-4.965752931421577,52.047663157469245,19.370873218082085
-0.0845,0.9662,0.1914,-0.1253,0.212,0.2314,0.035,0.0963,-16.4587,11.2037472959374,-4.922534575863426,51.75162767245199,19.383087533449395
-0.0871,0.9622,0.1886,-0.126,0.2137,0.2323,-0.4112,0.2713,-16.5462,11.090212513451325,-5.026345128817102,51.61629435537934,19.395226464916224
-0.0916,0.9644,0.1926,-0.126,0.2137,0.2323,-1.0937,0.0088,-15.8812,11.293376374522671,-5.232959592743394,51.27454119838526,19.40743122457784
-0.0927,0.9635,0.1868,-0.1267,0.2142,0.2338,-1.05,0.28,-15.0237,10.973064540670114,-5.342684148260362,51.508571533793344,19.41962395112858
-0.0935,0.9652,0.187,-0.1262,0.2138,0.2302,-0.7962,0.28,-14.5775,10.964790368757326,-5.403318927290944,51.08028697062513,19.431798274097986
-0.0896,0.9631,0.1851,-0.1262,0.2138,0.2302,-1.5837,0.1312,-13.37,10.879363812005389,-5.277061458505466,51.30931758199361,19.44063128530966
-0.0788,0.9645,0.1813,-0.1272,0.2134,0.2303,-1.9075,0.6913,-13.335,10.64647926228182,-4.849049311022374,51.81919231793695,19.45317049467057
-0.0761,0.967,0.188,-0.1272,0.2134,0.2303,-2.4325,0.8138,-13.2037,11.000974210602086,-4.58771906557313,51.70623192829699,19.465010721855702
-0.0766,0.9643,0.1884,-0.1264,0.2134,0.23,-2.2225,1.2075,-13.2037,11.054751258554752,-4.518537196952942,51.7442733076088,19.47721052670696
-0.085,0.9611,0.1814,-0.1258,0.2126,0.235,-3.0363,2.0125,-13.2037,10.68940046645751,-4.631113999734303,52.45223183969197,19.489413516793444
-0.0849,0.9578,0.1927,-0.1258,0.2126,0.235,-3.115,1.6887,-13.3087,11.373593134263906,-4.764346424369562,51.97193334015099,19.501583946697565
-0.0867,0.957,0.1886,-0.1277,0.2145,0.2314,-3.465,1.2862,-12.985,11.149275525557197,-4.926601540541445,51.08828734532945,19.513784813293896
-0.0826,0.9566,0.1878,-0.1277,0.2145,0.2314,-3.4738,0.9187,-12.7487,11.10718422553931,-4.877480953241444,51.30560930732277,19.522898125205934
-0.0775,0.9561,0.1932,-0.1294,0.2125,0.2308,-2.8,0.3237,-13.6412,11.423102949592092,-4.653440292384326,51.00034332438935,19.534768789083277
-0.0733,0.9559,0.1902,-0.1294,0.2125,0.2296,-2.17,0.6825,-13.5187,11.253908033336762,-4.4332121101215956,51.14043415126274,19.546971779169763
-0.0748,0.9573,0.1916,-0.1277,0.2133,0.2296,-2.7388,1.1638,-13.5887,11.317812226892338,-4.4050509836507885,51.31575163338816,19.559159196995118
-0.0745,0.9554,0.1945,-0.1268,0.2125,0.2305,-3.5,1.505,-13.7637,11.506483074892307,-4.388795212307231,51.52740078120033,19.571436509237003
-0.0824,0.9527,0.1909,-0.1268,0.2125,0.2305,-3.0713,1.12,-14.105,11.331234492180457,-4.641536272661763,51.26945252937761,19.58356199193286
-0.0856,0.9509,0.1895,-0.1261,0.2114,0.2312,-2.3013,0.91,-14.2187,11.270697461247892,-4.8796257527146105,51.43864130610371,19.59577701513022
-0.0854,0.952,0.189,-0.1261,0.2114,0.2312,-2.8525,-1.6712,-14.0787,11.229007293940027,-4.998780448020717,51.48188514342616,19.60789966650587
-0.0843,0.9561,0.1906,-0.1285,0.2114,0.2262,-2.0563,-0.3413,-13.9387,11.27407801543608,-4.957413393517857,50.33200306303311,19.616792135441862
-0.0741,0.9592,0.1917,-0.1296,0.2124,0.2318,-2.3187,-0.4812,-13.895,11.301814572993994,-4.495409980520967,51.367561438645616,19.628999726423682
-0.0681,0.9623,0.1908,-0.1296,0.2124,0.2318,-2.38,-0.7088,-14.5775,11.215105149942975,-4.100204923363135,51.719883650543636,19.641222181836586
-0.0688,0.9566,0.1901,-0.1285,0.211,0.2319,-2.4325,-0.4375,-14.9625,11.239585830300026,-4.052279568748122,51.93284327428751,19.65345596253031
-0.074,0.9558,0.1904,-0.1285,0.211,0.2319,-2.5113,-0.175,-15.61,11.266046334555456,-4.2598628462987005,51.668031535178365,19.66568549624372
-0.0787,0.9603,0.1907,-0.1286,0.2116,0.2274,-3.1412,-0.1837,-14.9888,11.231982936961975,-4.500656944711133,50.78750214820254,19.677912906466982
-0.0762,0.9629,0.1901,-0.1291,0.2087,0.2316,-3.4825,-0.4112,-14.5425,11.168146957623142,-4.455688472518159,51.60253016570818,19.69012297485398
-0.0658,0.9567,0.1957,-0.1291,0.2087,0.2316,-3.2375,-0.3588,-14.6037,11.559698351814129,-4.017001330214088,51.79339388416982,19.702629977947552
-0.0615,0.9506,0.1973,-0.1303,0.2122,0.228,-3.4563,-0.3938,-15.3562,11.724980533610914,-3.729484481518999,50.95320191305458,19.71456717784973
-0.0623,0.946,0.1935,-0.1303,0.2122,0.228,-2.9925,-0.4112,-15.4263,11.560586305944328,-3.701697552117393,51.017767973233255,19.72678821760253
-0.0653,0.9459,0.1926,-0.1299,0.213,0.2354,-3.1675,-0.0263,-15.82,11.509127136699991,-3.820102524991368,52.02826610632254,19.738949091800954
-0.0712,0.9459,0.1938,-0.1274,0.2114,0.2326,-1.7762,0.0,-17.2637,11.578569093423527,-4.09871282411024,51.83922228302022,19.747831297201202
-0.0773,0.9504,0.1918,-0.1274,0.2114,0.2326,-0.9887,0.6737,-16.4587,11.410065713601462,-4.386477854325284,51.684249375686704,19.76060515222416
-0.0809,0.9584,0.1886,-0.1287,0.2116,0.2361,-1.6975,0.315,-16.3013,11.133538140039812,-4.619819355547832,51.98290392712473,19.772873616590402
-0.0776,0.9623,0.1914,-0.1287,0.2116,0.2361,-1.9075,0.1488,-16.7213,11.248915440526106,-4.552687559569739,52.06988350535979,19.784865673321566
-0.0741,0.964,0.1901,-0.128,0.2109,0.2315,-2.0388,-0.1837,-16.625,11.155803423642967,-4.3807201999419165,51.81066937840349,19.796940900083772
-0.0724,0.9639,0.1892,-0.1294,0.2114,0.2325,-1.855,-0.0438,-16.3275,11.105310211549014,-4.264121475688741,51.78151939809224,19.80917928167283
-0.0795,0.9596,0.1845,-0.1294,0.2114,0.2325,-2.4938,0.7613,-16.5375,10.88392505537206,-4.501524398120101,51.59259182952847,19.82119717420087
-0.0836,0.9556,0.1881,-0.1273,0.2129,0.2385,-2.0563,0.5075,-16.59,11.135024623924695,-4.763647718480815,52.38241179420163,19.833239132950656
-0.0886,0.9528,0.1874,-0.1273,0.2129,0.2385,-2.8875,0.63,-16.2663,11.127123193649533,-5.047847204841861,52.14733216825974,19.84268087800655
-0.0862,0.9551,0.1841,-0.1302,0.2135,0.2347,-2.7825,0.35,-15.8025,10.910821446080861,-5.058864877440604,51.325977470788054,19.85482334862364
-0.0814,0.9592,0.1877,-0.1282,0.2102,0.2319,-2.4675,0.3413,-16.135,11.071508905362489,-4.8599185621022505,51.564360017657634,19.866914147646977
-0.0725,0.9601,0.1889,-0.1282,0.2102,0.2319,-2.3538,0.1312,-16.3187,11.130626925572686,-4.430963853226009,51.93724131760382,19.878971678657898
-0.0761,0.9602,0.1903,-0.1282,0.2117,0.232,-2.6425,0.1663,-16.7475,11.209844859404985,-4.440835309751209,51.66580173633907,19.891097161353752
-0.0803,0.9609,0.1878,-0.1282,0.2117,0.232,-2.7562,0.84,-16.0912,11.059009173977165,-4.589840462460019,51.57941001657582,19.903226183199866
-0.0847,0.9571,0.1901,-0.128,0.2132,0.2342,-2.87,1.2512,-15.3387,11.233448023359264,-4.783913850894054,51.52507431425646,19.915354851130953
-0.0839,0.9589,0.19,-0.1298,0.2118,0.2322,-3.2987,1.0587,-14.945,11.207700357455023,-4.852401873515552,51.029979100455165,19.924652906686408
-0.0842,0.9636,0.19,-0.1298,0.2118,0.2322,-3.01,0.8138,-14.8575,11.154484748758627,-4.881208021012352,51.071974326501234,19.9367706032517
-0.0806,0.9623,0.1912,-0.1286,0.2126,0.2326,-2.38,0.9625,-14.8837,11.23754902429731,-4.7738798077881555,51.417547490848655,19.94889325462735
-0.0775,0.9606,0.1929,-0.1286,0.2126,0.2326,-3.3688,1.1638,-14.5162,11.35433591271459,-4.637686754326642,51.472790813709366,19.961105092589477
-0.0781,0.9587,0.191,-0.1283,0.2118,0.2318,-2.9575,1.3825,-14.6387,11.267641952409695,-4.603412201283899,51.47515840292386,19.973048309047094
-0.0753,0.9552,0.1915,-0.128,0.2115,0.232,-3.01,0.9625,-15.1988,11.336270796464293,-4.496783091613205,51.642881352577696,19.9851992736248
-0.0759,0.9506,0.1945,-0.128,0.2115,0.232,-3.1412,1.435,-15.2862,11.562921053502484,-4.485328760689255,51.43869168615115,19.99733183462117
-0.0814,0.9442,0.1936,-0.129,0.2121,0.2311,-2.6513,1.6975,-15.9162,11.587329783619902,-4.620112206359924,50.79276855413215,20.00937697860619
-0.0873,0.9479,0.1941,-0.129,0.2121,0.2311,-1.9687,1.435,-15.925,11.572434219218115,-4.875658704970506,50.544933227395106,20.01878793305485
-0.0847,0.955,0.1918,-0.127,0.2117,0.2343,-1.0587,1.6887,-15.9337,11.356670140766866,-4.9129938612173545,51.698545544500845,20.03088510254865
-0.0856,0.9601,0.1888,-0.1266,0.2116,0.2362,-0.875,2.1438,-15.6887,11.125681347168475,-4.927671288045934,52.18440307820792,20.042993951238294
-0.0859,0.9665,0.1838,-0.1266,0.2116,0.2362,-1.0937,1.2512,-15.6363,10.76839228068647,-4.960265335586088,52.43959540634151,20.05511023214348
-0.0823,0.9672,0.1912,-0.1286,0.212,0.232,-2.0388,0.1488,-15.5575,11.181143886503962,-4.83066817265821,51.338686462359846,20.067235714839338
-0.0836,0.9592,0.1889,-0.1286,0.212,0.232,-2.415,1.1287,-15.9512,11.141083936035711,-4.861983752244754,51.276138694712905,20.079247944726966
-0.0836,0.955,0.1927,-0.1294,0.2137,0.2328,-2.135,1.2425,-16.1175,11.407232806458952,-4.884318677255451,50.96161516351101,20.091388291853903
-0.0874,0.9522,0.192,-0.1294,0.2132,0.229,-1.8025,0.6737,-16.1087,11.400181447511871,-5.045281660152494,50.24800828922828,20.100797830642456
-0.0861,0.9498,0.1967,-0.1294,0.2132,0.229,-1.4262,0.6388,-16.2925,11.69951405406466,-5.062568596281495,50.078890756595655,20.112884382685486
-0.089,0.968,0.1869,-0.1284,0.2112,0.2326,-1.1725,0.4638,-15.995,10.930231506478526,-5.125161933772333,51.37376597552651,20.125043133393756
-0.0916,0.9613,0.1855,-0.1284,0.2112,0.2326,-1.1812,0.3413,-15.68,10.922020865181338,-5.2719618870326155,51.23492070328533,20.137086861718675
-0.0869,0.9607,0.1917,-0.128,0.2125,0.2319,-1.5925,0.2888,-15.4525,11.283699822116324,-5.135495320318891,51.105056330199886,20.14916845895134
-0.0851,0.9557,0.1846,-0.128,0.2125,0.2319,-1.6362,0.0525,-15.4787,10.933404567249994,-5.038740948727675,51.413922418046525,20.161305974758072
-0.0802,0.9556,0.1889,-0.128,0.2129,0.2295,-0.7962,0.3413,-16.3275,11.18120593634619,-4.8171569646715175,51.09935836621952,20.17343287311403
-0.0815,0.9563,0.1841,-0.129,0.2122,0.2313,-1.2687,-0.0263,-16.3975,10.89764183924501,-4.793686706581285,51.34696512260999,20.185444395171608
-0.0865,0.9564,0.1843,-0.129,0.2122,0.2313,-1.4525,-0.5425,-16.4237,10.907274202040295,-5.002756254226662,51.11251287140363,20.195034430623274
-0.0833,0.9557,0.1823,-0.1302,0.212,0.2342,-1.2512,-0.4725,-16.3362,10.799745509997768,-4.922164884423559,51.52950308940996,20.207135493182356
-0.0874,0.9538,0.1804,-0.1302,0.212,0.2342,-2.135,-0.21,-15.6187,10.710548171865554,-5.082278250225333,51.398722333481864,20.21937741392167
-0.0845,0.955,0.1806,-0.1289,0.212,0.2338,-0.6825,-0.4025,-15.785,10.70874460892832,-4.9990893400108725,51.71774326823496,20.231580404008156
-0.083,0.9549,0.181,-0.1294,0.2131,0.2314,-1.295,-0.6038,-16.3362,10.73293854395973,-4.91102358035471,51.28830128835624,20.24361953143774
-0.0797,0.9526,0.1763,-0.1294,0.2131,0.2314,-1.5925,-0.8663,-16.0037,10.48591270577257,-4.752407704005163,51.601318571031534,20.25581331973356
-0.078,0.9555,0.1751,-0.1275,0.2128,0.2308,-0.4375,0.1925,-16.3013,10.384784925343482,-4.641980859041633,52.04213138079404,20.267910489227358
-0.0788,0.9586,0.1799,-0.1275,0.2128,0.2308,-0.8312,0.8312,-16.2663,10.62836688122445,-4.628162999426586,51.84940653154356,20.280056498994703
-0.0874,0.9597,0.1829,-0.1274,0.213,0.2279,-1.7062,0.9187,-15.6712,10.789613707789984,-4.912858126407577,50.936249967321935,20.29209102552895
-0.0944,0.9581,0.1817,-0.1264,0.2102,0.2303,-1.89,0.7,-15.33,10.73854055461134,-5.296406840525664,51.30935367508172,20.30145172404396
-0.0925,0.9573,0.1792,-0.1264,0.2102,0.2303,-0.9975,0.5775,-15.0325,10.60304345424369,-5.378876527281914,51.48517334121078,20.31354960136781
-0.0836,0.9628,0.1861,-0.1295,0.2121,0.2306,-0.5775,0.56,-14.0175,10.938889894719845,-5.054335494332557,51.0577326380824,20.32569950420044
-0.0773,0.9686,0.1828,-0.1295,0.2121,0.2306,-0.7263,0.07,-14.0262,10.688189251145804,-4.6580313087323235,51.54016536698937,20.337763051766796
-0.0752,0.97,0.1793,-0.1281,0.2128,0.2285,-0.42,0.6825,-13.9387,10.473242310001815,-4.471489928764425,51.72114025465533,20.349861990835723
-0.0741,0.9698,0.1778,-0.1304,0.2122,0.2307,-1.1987,0.945,-13.8512,10.389279841541931,-4.370190092786603,51.736418750657414,20.361957744669418
-0.0706,0.9669,0.1849,-0.1304,0.2122,0.2307,-2.0738,1.6887,-14.2187,10.824750098580479,-4.263678426521262,51.58715888218577,20.374274341479158
-0.075,0.9656,0.1823,-0.1295,0.2128,0.2302,-2.275,2.4675,-14.2275,10.691658678105613,-4.2744629028222905,51.5452650690108,20.383511523650192
-0.0775,0.9637,0.1812,-0.1295,0.2128,0.2302,-2.31,2.5988,-14.2362,10.64884725823289,-4.32351413080529,51.453308050301295,20.395574717301525
-0.0811,0.9628,0.1843,-0.1288,0.2119,0.2258,-2.4938,3.08,-14.4725,10.836001284673054,-4.495077518859232,50.67989842464726,20.40773311409477
-0.0827,0.9573,0.1839,-0.1277,0.2096,0.2294,-2.345,2.8788,-14.0787,10.87409984968064,-4.61790679699275,51.394272980255465,20.419944244226848
-0.0781,0.9587,0.1839,-0.1277,0.2096,0.2294,-2.0213,2.1613,-14.315,10.858745723388214,-4.611045202613649,51.621088658879394,20.431890645919694
-0.073,0.9603,0.1787,-0.128,0.2114,0.2297,-1.9162,2.3625,-15.1287,10.542337736085178,-4.6061631557120934,51.99049082244472,20.443953131740976
-0.0777,0.9597,0.182,-0.128,0.2114,0.2297,-1.2337,2.7825,-15.5137,10.737662985891392,-4.5885460576723185,51.63635245236311,20.4561511670171
-0.0815,0.9575,0.1788,-0.1294,0.2114,0.2337,-1.6275,2.8,-15.7762,10.577819542560745,-4.649054707109388,51.871978598223635,20.468195957087094
-0.0874,0.9581,0.1862,-0.1283,0.2121,0.2322,-1.9162,2.9575,-15.1287,10.996781098807945,-4.826299343916536,51.27886787459267,20.47758567663421
-0.0925,0.9537,0.1798,-0.1283,0.2121,0.2322,-2.17,2.2225,-15.9337,10.677476184776774,-4.895135560338821,51.253302426471926,20.48974124210725
-0.0974,0.9507,0.178,-0.1283,0.2083,0.2286,-1.5137,1.5225,-15.9512,10.604935815980605,-5.281819043503687,50.72827747107052,20.501781077366886
-0.0933,0.954,0.1783,-0.1283,0.2083,0.2286,-0.735,0.805,-15.8025,10.586342057868583,-5.408860941011213,50.935568589093236,20.51386621374981
-0.0858,0.9582,0.1737,-0.1277,0.2104,0.2254,-1.0937,-0.2013,-15.3212,10.275706553851718,-5.140449671094944,51.05665945147471,20.526041598464293
-0.079,0.9628,0.1785,-0.1264,0.2098,0.2317,-1.6887,-0.98,-15.5925,10.502570603804946,-4.7344844812070646,52.40200278533355,20.53821556751867
-0.0739,0.9642,0.1752,-0.1264,0.2098,0.2317,-2.6163,-1.0237,-15.6625,10.299134365871888,-4.408999971229267,52.77836202712828,20.55034388153473
-0.0707,0.9598,0.179,-0.1282,0.2113,0.2294,-2.24,-1.0587,-16.1087,10.563408879105783,-4.202367969979975,52.00394915381363,20.56251926624921
-0.0746,0.9595,0.1745,-0.1282,0.2113,0.2294,-2.7562,-1.2687,-16.7038,10.308180608356533,-4.337033739095693,51.99666402612803,20.574678724787535
-0.0761,0.9609,0.1743,-0.1293,0.2101,0.2299,-2.4063,-0.735,-16.975,10.281306671143989,-4.426686106301351,51.86439343680534,20.58412719422892
-0.0767,0.9633,0.1732,-0.129,0.2115,0.2307,-2.5988,-0.2713,-16.66,10.193040902902515,-4.465888411795224,52.01838974894326,20.59623321159836
-0.0753,0.9594,0.1784,-0.129,0.2115,0.2307,-2.45,-0.3938,-15.8463,10.532873890633748,-4.426709060927411,51.83713510646861,20.608466992292083
-0.0785,0.9534,0.1733,-0.1283,0.21,0.2286,-2.975,-0.2187,-15.5137,10.302839570562018,-4.573998426707131,51.71916506795486,20.620605923758916
-0.0739,0.9547,0.1761,-0.1283,0.21,0.2286,-3.1763,-0.0525,-15.6712,10.450659656874084,-4.418060472490266,51.833538675415284,20.632799712054734
-0.0741,0.9552,0.1781,-0.127,0.2112,0.2266,-2.8,-0.0438,-16.6513,10.561391787547777,-4.377822801940547,51.657022545394526,20.644948553142285
-0.0708,0.957,0.1754,-0.1293,0.2095,0.2288,-1.3825,-0.245,-17.6837,10.386444222632296,-4.222088146956789,51.88851551734795,20.657073681923116
-0.0789,0.9616,0.176,-0.1293,0.2095,0.2288,-1.0762,0.105,-18.3137,10.371987183071061,-4.493380047040935,51.5464121453936,20.669168374011736
-0.083,0.9631,0.1804,-0.1285,0.2113,0.2297,-1.2862,1.4175,-17.8412,10.608585889721423,-4.661293299695048,51.406916730204784,20.681332433445395
-0.0874,0.9628,0.176,-0.1285,0.2113,0.2297,-1.9687,1.7413,-16.3537,10.359987048389895,-4.827981368957883,51.38036282571362,20.69336554431954
-0.0895,0.96,0.1812,-0.1278,0.213,0.2238,-1.3562,1.9775,-15.435,10.687922379068407,-4.937793927742407,50.23149313563217,20.70301079051522
-0.0909,0.9594,0.1796,-0.1262,0.2109,0.2294,-1.6975,2.345,-14.6562,10.603301505635258,-4.938862653062603,51.44220694731613,20.714894549248513
-0.0886,0.9567,0.1753,-0.1262,0.2109,0.2294,-1.4,2.765,-14.0875,10.383958373459526,-5.017180627657402,51.68731827023718,20.72705294604176
-0.0821,0.9642,0.1803,-0.1279,0.2089,0.228,-0.3763,3.1937,-13.7987,10.59109796379079,-4.910491177195796,51.43413277294487,20.739093489131445
-0.0808,0.9659,0.1759,-0.1279,0.2089,0.228,-0.5425,3.1937,-13.9212,10.321768973853803,-4.81622331769145,51.683809822453476,20.751169069808675
-0.0854,0.9686,0.1773,-0.1272,0.2106,0.231,-0.9887,2.6513,-14.3937,10.37288263421228,-4.848935060095746,51.94047972004329,20.763266947132525
-0.0871,0.9688,0.1754,-0.1272,0.2106,0.2286,-1.4175,2.52,-14.8925,10.262469176479938,-4.879296811634772,51.59925286941873,20.77538110454756
-0.0891,0.9675,0.1817,-0.1277,0.2074,0.2286,-1.8637,2.415,-13.9737,10.635429354710544,-4.897714578437575,51.294486523286935,20.78475560574857
-0.0877,0.9624,0.175,-0.1273,0.2083,0.2278,-2.0038,2.3888,-13.23,10.306802356733932,-4.906596258623459,51.48169506086563,20.796857022222678
-0.0853,0.9554,0.1792,-0.1273,0.2083,0.2278,-2.2575,2.7125,-13.475,10.622403385593328,-4.935554612183529,51.34329161757424,20.80893649596519
-0.0845,0.954,0.1801,-0.1288,0.2093,0.2274,-2.1088,2.5288,-13.1862,10.690523389439546,-4.941495591248567,50.94436815181745,20.821159305293115
-0.0818,0.9546,0.186,-0.1288,0.2093,0.2274,-1.3475,4.3838,-13.2212,11.024786926344547,-4.851805477639381,50.83447428448169,20.83319100050716
-0.0814,0.9515,0.1824,-0.1286,0.2077,0.2303,-1.7587,2.52,-13.9387,10.852275070215486,-4.844587488873511,51.49045806144259,20.845292063066243
-0.0857,0.9554,0.1753,-0.1258,0.2076,0.2262,-2.065,2.4675,-13.9475,10.39842816013285,-4.865694263747526,51.5616665002189,20.857360211527933
-0.0866,0.97,0.1818,-0.1258,0.2076,0.2262,-1.6887,1.435,-13.9212,10.614778270139734,-4.936888628378164,51.42977055654835,20.866753824140332
-0.0869,0.9684,0.1722,-0.1298,0.2096,0.2278,-1.0587,1.4525,-14.525,10.084353975108371,-4.989827241697514,51.173437971391884,20.878878599006136
-0.0881,0.9673,0.1747,-0.1298,0.2096,0.2278,-1.7762,0.9538,-14.175,10.237169195195204,-5.066576683192427,51.01054567025936,20.891022839198353
-0.0875,0.9635,0.1746,-0.1278,0.2099,0.2262,-1.7237,0.6212,-14.28,10.27125737060092,-5.091764118598245,51.12428995610837,20.903542229317825
-0.0856,0.9578,0.1734,-0.1292,0.2093,0.2264,-2.0738,0.4462,-14.2537,10.26170072572334,-5.048515248414342,50.98715065670591,20.915093307926952
-0.0861,0.9573,0.176,-0.1292,0.2093,0.2264,-2.1788,0.2713,-14.5162,10.417088659734972,-5.052964154614711,50.85498951485713,20.92726656915128
-0.0802,0.9572,0.1784,-0.1274,0.2077,0.2253,-2.0388,0.0963,-15.015,10.557094096336195,-4.814572272471467,51.26849030403552,20.939426027689603
-0.0816,0.9597,0.1753,-0.1274,0.2077,0.2253,-1.6187,0.035,-15.1025,10.352163618494618,-4.791302582277488,51.356808203817096,20.951520365863196
-0.0795,0.9621,0.1747,-0.1284,0.2082,0.2279,-1.365,0.035,-15.155,10.291910504091272,-4.691294424805437,51.66868493619346,20.96078656906634
-0.0816,0.9631,0.1742,-0.1303,0.2076,0.2266,-1.1812,-0.0525,-15.2862,10.25259410282422,-4.743981361851829,51.08831827132309,20.973164747090554
-0.0772,0.964,0.157,-0.1303,0.2076,0.2266,-1.3912,-0.07,-14.84,9.252910044525363,-4.585076162889401,51.95359734932105,20.98519290315434
-0.078,0.9663,0.1676,-0.1286,0.2103,0.2272,-1.3037,0.2975,-15.4437,9.838166707277349,-4.559700528659364,51.833275525169356,20.997306706654346
-0.0803,0.9635,0.1665,-0.1286,0.2103,0.2272,-1.5575,0.385,-14.9975,9.804403790946987,-4.649246074143461,51.74380029893904,21.009353266299467
-0.081,0.9617,0.1704,-0.1283,0.2106,0.2274,-1.89,0.56,-14.77,10.047069632806766,-4.708037152671586,51.6130940030285,21.021535375399438
-0.0816,0.9618,0.1704,-0.1261,0.2083,0.2267,-1.785,0.315,-15.3475,10.046717550784912,-4.753187638417213,51.996188332474674,21.033791806654804
-0.0817,0.9566,0.1709,-0.1261,0.2083,0.2267,-2.3625,0.4375,-15.82,10.129004608669982,-4.787765883701514,51.91609512242422,21.045706709910363
-0.0801,0.9577,0.169,-0.1274,0.209,0.2261,-2.1175,0.35,-16.0037,10.007973058467622,-4.734978320108271,51.71373106561198,21.055095721627428
-0.0827,0.9631,0.169,-0.1274,0.209,0.2261,-2.555,-0.105,-15.7762,9.952804428560226,-4.805577321085938,51.65458457607606,21.067216603427948
-0.0808,0.9614,0.1677,-0.1279,0.2086,0.2279,-1.9162,0.105,-16.1262,9.894887692794757,-4.755346168467628,51.952645200674276,21.07933253041811
-0.0814,0.9615,0.1735,-0.1293,0.21,0.2258,-2.0388,0.1925,-15.8112,10.227871114039106,-4.76025543709578,51.07623542048533,21.091495174191667
-0.0789,0.961,0.1641,-0.1293,0.21,0.2258,-2.5813,-0.1488,-16.1087,9.691824449136156,-4.665034304122395,51.55349246067035,21.103622780377677
-0.0768,0.9625,0.1703,-0.1295,0.209,0.226,-2.5638,0.1138,-16.3362,10.032842778494926,-4.5459210457034676,51.4524065101438,21.115665446957514
-0.0708,0.9633,0.1699,-0.1295,0.209,0.226,-2.3975,0.1925,-15.9425,10.002634352545648,-4.268551956831491,51.74666546599205,21.1277679251767
-0.0748,0.9662,0.1649,-0.1308,0.2091,0.23,-2.8525,0.21,-16.8525,9.686149668455354,-4.333559710268642,52.11157790616488,21.139882790421783
-0.0795,0.9661,0.1642,-0.1285,0.2087,0.2274,-3.1412,0.9625,-17.0975,9.646023834345355,-4.510386994703449,52.00648519769504,21.149312502366804
-0.0843,0.9684,0.1693,-0.1285,0.2087,0.2274,-1.995,1.295,-17.0975,9.915740688545815,-4.71078776496594,51.621927705341086,21.161446125108252
-0.0825,0.9671,0.1693,-0.1289,0.2092,0.2268,-2.7037,1.1462,-17.2375,9.929512700975955,-4.76122955216301,51.50594720471367,21.17348631428291
-0.0866,0.9635,0.1637,-0.1289,0.2092,0.2268,-2.0038,1.3212,-16.8175,9.64334536752689,-4.914500013126792,51.505373995912414,21.18556118713009
-0.0852,0.9615,0.1644,-0.1255,0.2091,0.2268,-2.4763,0.595,-16.8262,9.702603276727785,-4.963702586388114,52.15925792313443,21.197691978551333
-0.0869,0.9647,0.1637,-0.1255,0.2091,0.2268,-3.045,0.245,-16.9137,9.630983402960043,-5.039223511855444,52.14477313758326,21.209805428136313
-0.078,0.9619,0.1714,-0.129,0.2096,0.2298,-3.7362,0.5775,-16.8787,10.10212771210019,-4.735771182761786,51.96407965319168,21.221880300983493
-0.0774,0.9576,0.1715,-0.1279,0.2095,0.226,-3.2288,0.7525,-16.9662,10.15351840177698,-4.620927422418022,51.60695621808984,21.231238876008348
-0.0847,0.9575,0.1724,-0.1279,0.2095,0.226,-3.1588,0.9625,-17.3337,10.206724251851176,-4.826910415896642,51.23978308928325,21.243449298310374
-0.0834,0.9588,0.1682,-0.1255,0.2098,0.2265,-3.1675,1.0325,-17.01,9.950726116459162,-4.866659735778275,51.990847797537484,21.255510014556524
-0.0837,0.959,0.1715,-0.1255,0.2098,0.2265,-2.8963,1.2687,-16.905,10.138625267301453,-4.889430023687047,51.84959088009365,21.267547018495954
-0.0842,0.9593,0.1645,-0.1271,0.2097,0.2262,-2.8,1.8637,-16.7562,9.731524131108491,-4.907337002038964,51.76525167146289,21.279637817519287
-0.0856,0.9597,0.169,-0.127,0.2098,0.2278,-2.3363,1.2337,-17.0888,9.986497849952537,-4.966784261577664,51.773961072102736,21.291783119456582
-0.0895,0.9615,0.1693,-0.127,0.2098,0.2278,-3.2025,0.5513,-17.1325,9.986222760276124,-5.140927267743638,51.608023518004075,21.303898338616694
-0.0913,0.9639,0.1701,-0.1266,0.2102,0.2272,-2.7037,0.42,-16.8262,10.007919730464106,-5.264776475791253,51.49462745947917,21.316026652632754
-0.0888,0.9628,0.1669,-0.1266,0.2102,0.2272,-4.7163,0.2975,-16.4237,9.834893042343312,-5.2162161544690635,51.71945550687389,21.325364700586118
-0.0905,0.9637,0.1726,-0.1258,0.2106,0.226,-4.1825,0.0788,-17.0975,10.153209696218607,-5.261390363499784,51.38781340188674,21.337463639655045
-0.0885,0.9659,0.1776,-0.1273,0.2109,0.2258,-3.5875,0.1488,-17.1937,10.41786739337165,-5.184291251156248,50.97828298651987,21.349633007814088
-0.0877,0.9661,0.1748,-0.1273,0.2109,0.2258,-3.8937,0.1925,-16.94,10.256229697544837,-5.129795405226545,51.12840975811248,21.361700802360755
-0.0833,0.9603,0.1769,-0.1247,0.2113,0.2274,-4.1475,0.4288,-16.3275,10.43712436844277,-4.96294799012584,51.885099019036446,21.37376682733229
-0.0859,0.9597,0.1735,-0.1247,0.2113,0.2274,-4.1825,0.8487,-16.5462,10.248095653697467,-5.005319752710443,51.894854709608204,21.385844885414702
-0.0841,0.9556,0.178,-0.127,0.21,0.2183,-4.165,1.015,-15.9862,10.550740943963234,-4.9707890193204065,50.009225305031386,21.398009298763384
-0.0868,0.9538,0.1797,-0.1279,0.2111,0.2291,-3.4388,1.435,-15.575,10.669369620115443,-5.037423888652098,51.18856177583977,21.407538106915606
-0.0893,0.9542,0.181,-0.1279,0.2111,0.2291,-3.3338,1.6975,-15.0062,10.740498607841152,-5.122523540143668,51.02831038524346,21.41949371039912
-0.0857,0.9541,0.1803,-0.1242,0.211,0.2284,-2.9313,1.7587,-14.455,10.701322292867706,-5.093376103479737,51.81850182515139,21.43157106065148
-0.0895,0.9554,0.1783,-0.1242,0.211,0.2284,-2.6775,1.61,-14.7962,10.571487523143698,-5.164721617106534,51.73956161423338,21.443868192134804
-0.0906,0.9587,0.1804,-0.1251,0.2131,0.227,-1.8812,1.645,-15.47,10.656582153895636,-5.223036668205011,51.175324931620985,21.455799375481543
-0.0866,0.9615,0.1786,-0.125,0.21,0.2253,-1.5837,2.2313,-15.015,10.523209677906216,-5.206077505824814,51.373091740094075,21.46792061119709
-0.0824,0.9606,0.178,-0.125,0.21,0.2253,-0.7,1.7062,-15.9162,10.49795399296861,-5.055628927700467,51.579466718817805,21.47994452028057
-0.0834,0.9638,0.1727,-0.1276,0.2109,0.2262,-0.7613,2.2575,-15.9775,10.159754281559369,-5.040127967294023,51.38195187621007,21.492035319303906
-0.0863,0.9658,0.1737,-0.1276,0.2109,0.2262,-0.6212,2.3013,-16.5812,10.195600175824001,-5.039497692363135,51.234014976266735,21.501473171294517
-0.0878,0.9644,0.1708,-0.1244,0.2127,0.2298,-1.3737,2.2138,-16.345,10.043642893718909,-5.049322707074455,52.30638257713454,21.513550521546875
-0.0903,0.9647,0.1735,-0.1244,0.2117,0.2218,-1.75,2.7738,-15.7587,10.19515597294159,-5.113330083292384,50.96986401700848,21.52562999528939
-0.0924,0.9666,0.1685,-0.1245,0.2117,0.2218,-1.6013,2.8875,-15.6625,9.889413282562668,-5.206743806878313,51.08074194430964,21.537735658743806
-0.0939,0.9613,0.1735,-0.1264,0.2116,0.2266,-1.4787,2.2313,-15.9775,10.229934908677738,-5.236384066380948,51.1025354761072,21.54992413831424
-0.0923,0.9562,0.1709,-0.1264,0.2116,0.2266,-0.805,2.03,-15.5225,10.133646902672217,-5.28261126555899,51.22003074056836,21.56201599908265
-0.0903,0.9561,0.1731,-0.124,0.2117,0.2286,-0.9887,2.1263,-15.6012,10.261771982033984,-5.287496418368995,51.95500678334144,21.574112814661426
-0.0931,0.9612,0.1677,-0.124,0.2117,0.2286,-0.9887,1.6712,-16.0037,9.897748899817849,-5.3532677883544375,52.10106359701016,21.583458294830326
-0.0947,0.9626,0.1698,-0.123,0.2119,0.2264,-0.35,1.7237,-16.9662,10.003613893037231,-5.42262309941481,51.82699792072511,21.595620584688856
-0.096,0.9659,0.1703,-0.1239,0.2102,0.2246,-0.8138,1.6538,-17.185,9.999193484361994,-5.491306411314623,51.43085972036442,21.60768377834019
-0.0951,0.9704,0.1659,-0.1239,0.2102,0.2246,-0.9013,1.925,-17.1413,9.702337475521736,-5.499123728852128,51.69601423768671,21.61976643731793
-0.0967,0.97,0.1627,-0.1248,0.2107,0.2252,-1.2163,1.4962,-16.5987,9.522195730005796,-5.552473231182569,51.6430828730465,21.631844141485317
-0.0966,0.9675,0.1688,-0.1248,0.2107,0.2252,-2.1613,1.9337,-16.0737,9.895761530233667,-5.571514229044935,51.37815182643215,21.643929277868242
-0.0971,0.964,0.1667,-0.1235,0.2115,0.2256,-2.7213,1.89,-16.2138,9.811100757485649,-5.601882727541721,51.66647481436997,21.65611138696821
-0.0974,0.9653,0.169,-0.1245,0.211,0.225,-2.9488,1.6975,-16.0912,9.930091184596813,-5.631073550499888,51.32352674642247,21.668140604777072
-0.0977,0.9663,0.1663,-0.1245,0.211,0.225,-2.5375,1.47,-16.135,9.765388665327638,-5.658764267419387,51.429373311793285,21.677590843793585
-0.0937,0.9645,0.1695,-0.1238,0.2114,0.2242,-2.835,1.2862,-16.1175,9.96675074676811,-5.559277577813034,51.45714035789528,21.689751364076987
-0.0914,0.962,0.1656,-0.1238,0.2114,0.2242,-2.6425,1.3475,-16.3187,9.767799094275041,-5.454219238363182,51.68918455660232,21.701785182781183
-0.0919,0.9604,0.1707,-0.1227,0.2106,0.2223,-3.43,1.3562,-16.5287,10.077553938456381,-5.418314450393739,51.40871045342628,21.713868903504004
-0.0929,0.9575,0.1674,-0.1232,0.2113,0.2266,-3.3425,1.75,-16.1875,9.917254946948706,-5.433684726275336,51.96282982343292,21.72598872355945
-0.0958,0.9574,0.1722,-0.1232,0.2113,0.2266,-3.0975,1.8463,-16.5287,10.195550547245956,-5.497412831678262,51.63769364869672,21.73805545636104
-0.0948,0.9627,0.1731,-0.1238,0.2123,0.2269,-3.1063,1.4612,-16.765,10.193257203485528,-5.51542829525576,51.594235301690574,21.75016642854084
-0.0941,0.9625,0.17,-0.1238,0.2123,0.2269,-2.8788,2.2138,-16.0212,10.016957668412664,-5.51351807844127,51.74797201121319,21.759560395068263
-0.0922,0.9643,0.1707,-0.1238,0.2101,0.2284,-3.2025,1.715,-16.5812,10.038423445200245,-5.461199877512563,52.13646708289112,21.7716526097517
-0.0959,0.9622,0.1697,-0.1213,0.2127,0.2254,-2.905,1.68,-16.31,10.002304928069517,-5.519088201707754,51.91500155125163,21.783803928244435
-0.0907,0.9622,0.1751,-0.1213,0.2127,0.2254,-3.115,1.6712,-16.625,10.312893508072944,-5.4300518329322855,51.93639383183209,21.795822528602528
-0.091,0.963,0.1707,-0.1229,0.2122,0.225,-3.3513,2.03,-17.4737,10.05248050304096,-5.402506516374533,51.76699916488551,21.807965707049668
-0.0937,0.9625,0.1756,-0.1229,0.2122,0.225,-3.115,2.1788,-17.9988,10.33862345374326,-5.412339660568334,51.439179000324955,21.820072432249162
-0.0936,0.9573,0.1698,-0.1231,0.2132,0.223,-3.71,1.715,-17.4475,10.058939388968982,-5.445944068650302,51.24231297535014,21.832215256781275
-0.0936,0.9551,0.1748,-0.122,0.2141,0.227,-3.115,2.1963,-16.66,10.370484997366963,-5.453877629642163,51.76430014353651,21.8415225141274
-0.0924,0.9484,0.1776,-0.122,0.2141,0.227,-3.535,2.2662,-16.59,10.6058702139133,-5.4551026206869855,51.623380333409706,21.8539417462946
-0.0767,0.945,0.177,-0.1214,0.2142,0.2259,-2.9663,2.3275,-16.38,10.608665018106961,-5.437317628709534,52.31273365373025,21.865792944845527
-0.0617,0.9469,0.1745,-0.1214,0.2142,0.2259,-2.1175,2.6163,-16.205,10.442093929352497,-5.062504969002327,53.18221230525011,21.877901085705123
-0.0553,0.948,0.1791,-0.121,0.2121,0.2224,-1.8637,3.99,-15.9337,10.697749764234015,-3.954982387374687,52.98296250558899,21.88994658360517
-0.0676,0.9452,0.1718,-0.121,0.2121,0.2226,-1.4175,5.5388,-15.75,10.30273559475798,-4.008339637060088,52.660922620291274,21.90203278173317
-0.0771,0.9502,0.1684,-0.1206,0.2129,0.2226,-0.07,6.93,-15.365,10.050633539350263,-4.467732423408665,52.435192513530005,21.91418586980103
-0.0831,0.9543,0.1718,-0.1195,0.2139,0.224,-0.28,7.9363,-15.47,10.205061050374603,-4.833019327957141,52.43153502587195,21.92629719589586
-0.0864,0.9616,0.1634,-0.1195,0.2139,0.224,0.0875,8.505,-16.345,9.645413308500045,-5.0300722606558725,52.69617340246202,21.93562639597358
-0.0895,0.9648,0.1671,-0.1202,0.214,0.2247,0.1837,8.75,-16.485,9.825458935084004,-5.1965748527152265,52.39909462649284,21.94767791042906
-0.0925,0.9692,0.1688,-0.1202,0.214,0.2247,0.28,9.3712,-16.7737,9.8796286382555,-5.3496073068660985,52.24112648295153,21.959686601166432
-0.0985,0.9645,0.1651,-0.1162,0.2117,0.2316,0.105,10.045,-18.3225,9.714017967743276,-5.702288023942313,53.89688727879342,21.971820577822903
-0.1105,0.9608,0.1647,-0.1178,0.2129,0.2199,0.0175,9.59,-17.8325,9.727046198989658,-6.374355279458416,51.292566762995854,21.983862536572694
-0.1172,0.9479,0.1674,-0.1178,0.2129,0.2199,0.2888,9.135,-17.7887,10.01443173777555,-6.8691297582983735,50.707991469786215,21.995766468462453
-0.1264,0.9531,0.1654,-0.1186,0.2124,0.2195,1.1638,7.8925,-18.0425,9.845465318576156,-7.356572863369336,50.2664828736703,22.00520325870799
-0.1246,0.9623,0.1611,-0.1186,0.2124,0.2195,1.3562,6.93,-18.515,9.504767368668302,-7.291685025201133,50.64607818271001,22.017455796898076
-0.121,0.972,0.1584,-0.1155,0.2126,0.2114,0.735,5.7663,-18.8825,9.25640887372331,-7.069519848979324,50.38982309405243,22.02925213862002
-0.1215,0.98,0.1582,-0.1159,0.2132,0.2147,0.5163,5.1712,-18.1562,9.170303402833117,-7.001948111337871,50.87472143226602,22.041359571649565
-0.1229,0.9797,0.1569,-0.1159,0.2132,0.2147,-0.1312,4.41,-17.3425,9.098912411794629,-7.041818882416131,50.864063257092454,22.053428781856333
-0.1161,0.973,0.1587,-0.1138,0.2126,0.2175,-0.4375,3.8325,-17.0888,9.263136490515686,-6.847447520421735,51.86554221508709,22.06553692271593
-0.1118,0.9728,0.1584,-0.1138,0.2126,0.2175,-1.2425,3.4563,-16.765,9.24828864289737,-6.649810913340179,52.07110247222765,22.075061129972816
-0.1167,0.9775,0.1569,-0.1139,0.214,0.219,-1.7237,3.4563,-16.8612,9.119206816195074,-6.68821033070966,52.102752254348786,22.087145912440715
-0.1211,0.9775,0.1506,-0.1139,0.2115,0.2148,-1.8987,3.3075,-16.1525,8.759488352750457,-6.831452194518946,51.659341396174774,22.099113195120076
-0.1202,0.9776,0.1552,-0.1141,0.2115,0.2148,-1.995,2.6513,-15.8025,9.020054318286356,-6.8529359846984965,51.472689817861664,22.111230183855316
-0.1242,0.9731,0.1637,-0.1134,0.2136,0.217,-2.3712,2.765,-15.155,9.5477278506184,-6.947392329286776,51.24928306046432,22.12336168310661
-0.1169,0.9642,0.1619,-0.1134,0.2136,0.217,-3.7625,2.38,-14.9012,9.531733104806362,-6.943364968281072,51.54279098956494,22.135461330005587
-0.1127,0.9604,0.1629,-0.1134,0.2132,0.2186,-3.605,2.5725,-15.5487,9.626443513130395,-6.880268405998522,51.90519138442119,22.147524169741892
-0.1121,0.9651,0.1599,-0.1134,0.2132,0.2186,-2.4237,1.6975,-15.9162,9.40804264682947,-6.745043690612557,52.11600174640622,22.15690221009316
-0.1099,0.961,0.1667,-0.1142,0.2139,0.2136,-2.94,1.8025,-16.1525,9.839699634611314,-6.633456446229927,50.931862703932815,22.169011766612858
-0.1118,0.965,0.1608,-0.1144,0.2134,0.2174,-2.275,1.4525,-15.6187,9.461442572354533,-6.579595152335834,51.70708802910645,22.18113441798851
-0.124,0.9628,0.1662,-0.1144,0.2134,0.2174,-2.1263,1.365,-15.5312,9.793048318225269,-6.903447666151455,50.89638148151753,22.1933154653434
-0.1207,0.9604,0.1639,-0.1155,0.2134,0.2176,-2.695,1.0937,-15.5225,9.684985478316282,-6.991741751367199,50.93028760525755,22.20530716815954
-0.1191,0.9569,0.1639,-0.1155,0.2134,0.2176,-3.3163,0.3325,-15.5225,9.719339689420906,-6.9932368369892455,50.9573977870219,22.217477244148633
-0.1171,0.9584,0.1674,-0.1142,0.2126,0.2121,-3.5263,-0.0438,-15.4787,9.907161243084534,-6.9014987246804935,50.3642332838198,22.229612990380236
-0.115,0.9594,0.1617,-0.1122,0.2138,0.2163,-2.9488,-0.7437,-15.4962,9.56782187879393,-6.780269560766155,51.69787223954354,22.241769263683327
-0.1072,0.9608,0.1676,-0.1122,0.2138,0.2163,-2.73,-0.7613,-15.9687,9.89409397575027,-6.396017037552016,51.83342529984986,22.253843428700456
-0.1083,0.9597,0.1642,-0.1139,0.2145,0.2182,-2.4675,-0.8225,-16.3013,9.709529028786887,-6.358755263455222,51.82723439781369,22.26331242521333
-0.1147,0.9618,0.1627,-0.1139,0.2145,0.2182,-2.1,-0.6038,-16.4237,9.60167107561186,-6.618373232104639,51.61874709614086,22.27550869091433
-0.1121,0.9619,0.1634,-0.1134,0.2152,0.2194,-2.3363,-0.63,-15.96,9.640816165194165,-6.570344910509274,51.95359013418712,22.28766000940706
-0.1103,0.9625,0.1635,-0.115,0.2161,0.2171,-0.3588,-0.8312,-16.8437,9.640813163835288,-6.475666249189228,51.34103589546639,22.299881403074885
-0.1085,0.9678,0.1604,-0.115,0.2161,0.2171,-2.8612,-0.2013,-16.5725,9.411108820663118,-6.357634008736692,51.62124503375489,22.31198281954899
-0.1072,0.9644,0.1648,-0.1127,0.2136,0.2181,-2.7125,-0.0963,-17.2025,9.696444348947232,-6.2833058397603905,52.17706169050965,22.324139092852082
-0.1151,0.9628,0.1617,-0.1127,0.2136,0.2181,-2.5025,-0.4987,-17.115,9.53416781530951,-6.609359692152524,51.91833240931036,22.336325095017337
-0.1186,0.96,0.1627,-0.1116,0.2133,0.2208,-2.5375,-0.595,-16.6338,9.61880524529249,-6.859639500716375,52.30710335127124,22.348498002326636
-0.1196,0.9595,0.1582,-0.1126,0.2126,0.2184,-2.3975,-0.2713,-16.5375,9.363261410519613,-6.969517577717651,51.92897892793811,22.36062950157793
-0.1161,0.9638,0.1585,-0.1126,0.2126,0.2184,-2.45,-0.4462,-16.1963,9.338951020709347,-6.828924345358704,52.129832705077554,22.37275392252871
-0.111,0.9654,0.1581,-0.1146,0.2147,0.2178,-2.2488,-0.5075,-15.9862,9.300665777216587,-6.5656761177918,51.821422999302264,22.38489533140072
-0.111,0.9656,0.1594,-0.1146,0.2147,0.2178,-2.3187,-0.3588,-16.2225,9.373573490740146,-6.4963981151878025,51.76944919263209,22.394648875594267
-0.1136,0.9642,0.1588,-0.1133,0.2153,0.217,-2.3013,-0.28,-16.2925,9.35249304319818,-6.593876545038877,51.763360315719346,22.406640224495376
-0.1156,0.9589,0.1615,-0.1134,0.2143,0.2181,-2.2575,-0.4462,-16.065,9.55958498794047,-6.730599138240063,51.683250001598864,22.418721821728045
-0.1217,0.9578,0.1543,-0.1134,0.2143,0.2181,-2.9838,-0.5688,-15.5837,9.152753651478328,-7.042990503268623,51.69311188205615,22.43086146102493
-0.1194,0.9622,0.1593,-0.1133,0.2139,0.22,-2.2575,-0.805,-16.0562,9.399828146646765,-6.994907984450369,51.962372405886335,22.443018442158074
-0.1199,0.9638,0.1565,-0.1133,0.2139,0.22,-1.4875,-1.015,-15.4263,9.223567067281701,-6.99929088255628,52.07576041230698,22.455201966918146
-0.1154,0.9679,0.1571,-0.1132,0.2124,0.2164,-1.785,-1.2862,-15.75,9.219300287147883,-6.774072780576266,51.86536070659146,22.467327449614
-0.1139,0.9725,0.1523,-0.1144,0.2148,0.219,-2.9225,-1.1287,-14.98,8.901487933998952,-6.639172739869889,52.223250594328064,22.479511682204127
-0.1055,0.9784,0.1573,-0.1144,0.2148,0.219,-2.8788,-0.9538,-14.7,9.132797798296444,-6.207637131075496,52.47264931625728,22.491672202487525
-0.106,0.9781,0.1504,-0.1135,0.2146,0.2178,-3.745,-0.5775,-14.07,8.742843110047053,-6.137775850022284,52.734616397735344,22.503864221208215
-0.1041,0.9748,0.1583,-0.1135,0.2146,0.2178,-4.305,0.2888,-13.8775,9.222539318501997,-6.056712975674214,52.46580599680441,22.51314918190772
-0.1029,0.9657,0.1629,-0.1124,0.2138,0.2168,-3.71,0.1663,-13.79,9.573877986694892,-6.016512259464823,52.33212471701602,22.525284574224298
-0.1048,0.9625,0.1643,-0.1158,0.2146,0.2183,-4.2088,0.315,-13.72,9.686779722813496,-6.089991229550398,51.65964642472619,22.53742527526626
-0.1049,0.9602,0.1615,-0.1158,0.2146,0.2183,-4.4187,0.4025,-13.6062,9.547839231565533,-6.128987653610356,51.7438439386257,22.54951713603467
-0.1037,0.9625,0.1623,-0.115,0.2142,0.2211,-3.885,0.6388,-14.3675,9.57130348751197,-6.088229579861952,52.383149128275036,22.561642618730527
-0.1023,0.9668,0.1607,-0.115,0.2142,0.2211,-3.4563,0.8487,-14.3062,9.437704355004959,-6.010712792078341,52.56511804973848,22.573670420879285
-0.101,0.9771,0.1535,-0.1145,0.2138,0.2235,-3.9375,2.52,-13.4312,8.929467755784446,-5.984243670172955,53.48714306912938,22.585788117444576
-0.1019,0.983,0.1568,-0.114,0.2141,0.2197,-4.9963,3.2987,-12.2675,9.062624582504586,-5.916325745825144,52.923234635724604,22.597890949578787
-0.1077,0.9772,0.1558,-0.114,0.2141,0.2197,-5.8975,3.6488,-11.2788,9.058727698936499,-6.083231107057302,52.63090784047207,22.60734614340566
-0.1067,0.9685,0.1578,-0.115,0.2149,0.2186,-6.3963,3.885,-11.8475,9.253475460094643,-6.157467926897844,52.100988790596624,22.619436234598943
-0.1057,0.9629,0.1624,-0.115,0.2149,0.2186,-6.5363,4.6725,-12.39,9.572359634503625,-6.171728119583474,51.889257910532564,22.631562071209824
-0.1074,0.9573,0.1608,-0.1163,0.2134,0.2233,-6.2825,4.9,-12.4775,9.535202948404816,-6.273630508734046,52.3141020943505,22.643613939580334
-0.1106,0.9566,0.1612,-0.1156,0.2131,0.219,-6.2562,4.8213,-12.25,9.565162550510191,-6.437841184438013,51.66203409865983,22.655739068361164
-0.1187,0.957,0.166,-0.1156,0.2131,0.219,-5.5037,4.6725,-12.0662,9.839772450349756,-6.808179644162418,51.09395405438218,22.66780190809747
-0.1213,0.9511,0.1699,-0.1143,0.2102,0.2202,-6.055,4.4275,-11.8912,10.127412287557037,-7.043054331653411,51.307703824100585,22.67989376886588
-0.1157,0.9487,0.1728,-0.1143,0.2102,0.2202,-5.4688,3.22,-11.6812,10.322371379695976,-6.94928412437635,51.40908973462212,22.689285611903152
-0.1122,0.9478,0.1759,-0.1166,0.2122,0.2191,-4.3838,2.6863,-12.1187,10.513240929249752,-6.870788350192857,50.71347284171013,22.70141321808916
-0.1038,0.9513,0.1759,-0.1154,0.213,0.2186,-4.2,2.0825,-12.845,10.476051107199627,-6.714232776594396,51.271697822999755,22.713509325837883
-0.1,0.955,0.1737,-0.1154,0.213,0.2186,-4.27,1.8725,-13.2562,10.309006652510655,-6.4460994672778495,51.59502030564163,22.72556791859388
-0.0991,0.9623,0.1729,-0.1166,0.213,0.2192,-4.3925,2.0738,-13.8687,10.186205309149331,-6.304496452252259,51.6172222087779,22.737779402640985
-0.1027,0.9603,0.1732,-0.1166,0.213,0.2192,-3.99,1.4437,-14.8137,10.223863860697803,-6.163773830330323,51.41062476703031,22.749815344835334
-0.1071,0.9562,0.1768,-0.1163,0.2148,0.2201,-3.6925,0.9625,-15.3825,10.474901177687133,-6.234274665682199,51.10405484488096,22.761913929989237
-0.1097,0.9547,0.1785,-0.1185,0.2126,0.2188,-4.4975,0.2975,-16.3712,10.589981797992584,-6.375332526373039,50.37751586370245,22.77124277615193
-0.1059,0.9541,0.175,-0.1185,0.2126,0.2188,-3.8937,0.2888,-16.38,10.394146515439996,-6.277846708697352,50.69500642342361,22.783396572049842
-0.101,0.9557,0.1757,-0.1145,0.2139,0.221,-3.2725,-0.1138,-16.7388,10.417115921354178,-6.0333335888884925,51.96617722590499,22.795554614928065
-0.0999,0.9546,0.1799,-0.1145,0.2139,0.221,-2.5988,-0.0613,-17.0362,10.67184987257538,-5.919116288398329,51.8277631304908,22.807789457366866
-0.1041,0.9532,0.1749,-0.1177,0.2156,0.219,-3.4038,0.2275,-16.485,10.398146129324573,-6.0631476763779615,50.81003519635516,22.81982575347624
-0.1079,0.9535,0.173,-0.1135,0.2156,0.2191,-2.625,-0.245,-16.7562,10.284009317269051,-6.272600370002357,51.5506879864784,22.831953713577278
-0.1085,0.9568,0.1728,-0.1135,0.2156,0.2191,-1.8637,-0.9013,-17.9112,10.237508616128007,-6.345160111425643,51.57470016639559,22.84416838285961
-0.1017,0.9648,0.1707,-0.115,0.2134,0.2217,-2.6163,-0.4812,-17.745,10.033949768718013,-6.035459061283192,52.284682085186766,22.856311561306754
-0.1014,0.9673,0.1727,-0.115,0.2134,0.2217,-1.575,0.0175,-17.4212,10.122581946521619,-5.934966188971642,52.247695460699795,22.86843775183266
-0.1013,0.9647,0.1722,-0.116,0.215,0.2234,-2.1438,0.0788,-16.9662,10.120770962770136,-5.9119884598032435,52.219611732226284,22.87799876625222
-0.1013,0.9634,0.1765,-0.1167,0.2152,0.225,-3.01,0.6038,-16.8,10.38104003320794,-5.907506784614189,52.11403707710598,22.88989774333162
-0.1069,0.9625,0.1732,-0.1167,0.2152,0.225,-2.59,0.4638,-17.2987,10.201587382953859,-6.123529657638783,51.97684071208157,22.90201791730209
-0.1113,0.9687,0.1715,-0.1162,0.2152,0.2209,-2.0825,0.3675,-16.625,10.040140048474077,-6.343658704952561,51.41562627149387,22.914135967782407
-0.1204,0.9706,0.1703,-0.1162,0.2152,0.2209,-2.7037,0.6475,-15.5487,9.95197596271012,-6.73546789097943,51.07605523067385,22.926159522950858
-0.1254,0.9689,0.1691,-0.1156,0.215,0.2221,-2.87,0.4638,-15.015,9.900136703942186,-7.081971010141355,51.18180973971368,22.938264124660197
-0.1215,0.9658,0.1747,-0.1156,0.215,0.2426,-2.625,0.245,-14.0437,10.252179873883815,-7.0650085515489485,53.92686003030763,22.95041261183272
-0.113,0.9628,0.1722,-0.1146,0.2142,0.2255,-2.8875,-0.1225,-13.9125,10.140633315192654,-6.727104427899447,52.26566258312173,22.962572070371046
-0.1077,0.9568,0.1693,-0.1166,0.2139,0.2217,-2.7475,0.1837,-13.4575,10.034575524419187,-6.452014207324911,51.62767636449191,22.971933830631134
-0.1,0.9648,0.1704,-0.1166,0.2139,0.2217,-2.6513,0.8312,-13.8863,10.016161296974273,-6.0759131873574646,52.03981286557835,22.98402215224929
-0.1029,0.9681,0.1614,-0.1162,0.2142,0.221,-2.7738,0.525,-14.0437,9.466722882291068,-6.017354740631733,52.27448478063882,22.996120383488165
-0.1047,0.9675,0.1673,-0.1162,0.2142,0.221,-3.2375,0.8225,-13.4837,9.809614380747139,-6.059244764626698,51.94255701734638,23.008247635759147
-0.1035,0.9609,0.1682,-0.1176,0.2146,0.218,-3.4563,1.3387,-13.2125,9.928374851051746,-6.057780480311648,51.13972846293158,23.020341620017717
-0.1047,0.9557,0.1698,-0.1165,0.2161,0.223,-2.9838,1.5575,-13.4488,10.074253045101274,-6.101291630988673,51.83865868342623,23.03244728347213
-0.1074,0.9529,0.1673,-0.1165,0.2161,0.223,-2.3888,1.2862,-13.7375,9.95821348354151,-6.221382384028277,51.781878671692404,23.044560379142087
-0.1047,0.9529,0.1718,-0.1164,0.2145,0.2221,-3.0538,1.2075,-14.4112,10.219439897213386,-6.194813863432324,51.68206534432462,23.056620741473214
-0.1058,0.9586,0.1663,-0.1164,0.2145,0.2221,-2.415,1.7062,-14.7262,9.842883971851107,-6.199280986973272,51.93247617837016,23.06605328473844
-0.1015,0.9618,0.1687,-0.1171,0.2146,0.223,-1.9775,1.2337,-14.595,9.948206457739913,-6.059623202677653,52.06464777855917,23.078187261394913
-0.1013,0.9631,0.1662,-0.1207,0.2123,0.2217,-1.4,0.7875,-14.49,9.791405802114769,-5.97302898924646,51.41394309779822,23.09025824117681
-0.0975,0.9607,0.1699,-0.1207,0.2123,0.2217,-1.8637,1.5662,-15.2075,10.028417765186873,-5.85634623418505,51.40624439813203,23.10232568180845
-0.0969,0.9567,0.1676,-0.1179,0.2157,0.2216,-2.0038,1.9687,-15.6712,9.93681272557554,-5.812636234184891,51.852626758674376,23.114501420437954
-0.0976,0.9584,0.1703,-0.1179,0.2157,0.2216,-2.2138,1.9337,-15.5487,10.075449725612629,-5.787169322176589,51.72745297209318,23.12656496800431
-0.1015,0.9606,0.1676,-0.1186,0.2144,0.2126,-1.8987,1.5137,-15.9425,9.897508366506111,-5.857835019315193,50.236332123078974,23.13862426859036
-0.1082,0.9667,0.1657,-0.117,0.215,0.2212,-1.925,1.8637,-16.1,9.72689834038986,-6.000537611707022,51.67325980852999,23.148005494176857
-0.1094,0.9669,0.1682,-0.117,0.215,0.2212,-3.2288,1.68,-15.5137,9.867916689673919,-6.144694079008004,51.51778327799298,23.160124606402253
-0.1047,0.9652,0.1676,-0.1162,0.2146,0.2214,-3.4213,1.4962,-15.0762,9.850822677914515,-6.124306801527453,51.94197335712203,23.172274155319855
-0.1014,0.965,0.1686,-0.1162,0.2146,0.2214,-2.6338,1.4175,-14.5162,9.910237641731086,-6.020842579931889,52.05260869607127,23.18428496954738
-0.0991,0.9627,0.1728,-0.1177,0.2146,0.222,-3.6925,1.5925,-14.3325,10.175218717542018,-5.919569882352627,51.75460407302194,23.196409390498157
-0.0977,0.962,0.1751,-0.117,0.2143,0.2226,-3.9288,1.26,-15.5837,10.315462984963267,-5.80825185069915,51.95562926877043,23.208541597579504
-0.0988,0.9573,0.176,-0.117,0.2143,0.2226,-4.0338,1.0587,-16.24,10.417235435630047,-5.801350150017216,51.807386823249615,23.22070813441834
-0.1038,0.9573,0.178,-0.1168,0.215,0.2222,-3.2113,1.7062,-16.3712,10.532943369526645,-5.912176168221332,51.431771902924126,23.232699483319454
-0.1059,0.9624,0.1789,-0.1168,0.215,0.2222,-2.9575,2.065,-16.0562,10.530491985222355,-5.97000259609819,51.36096380153953,23.242095219422005
-0.1072,0.9658,0.1792,-0.117,0.2158,0.2248,-2.7213,1.8025,-15.4437,10.511497286496267,-6.061126393813559,51.63919590090885,23.254235920463966
-0.1091,0.9656,0.1781,-0.1163,0.2145,0.218,-2.5988,1.505,-15.085,10.450631434485251,-6.188792991111559,50.774106715106534,23.266330966467613
-0.1073,0.9598,0.1841,-0.1163,0.2145,0.218,-2.4763,1.4088,-15.4962,10.856945460358729,-6.225969095970791,50.52008081217683,23.278447601287827
-0.1232,0.9543,0.1781,-0.1166,0.2158,0.2206,-2.3888,0.77,-16.0475,10.572222364392118,-6.8421402383281755,50.2414364662037,23.29055078733706
-0.1121,0.956,0.1781,-0.1166,0.2158,0.2206,-1.82,0.63,-16.135,10.553111602307382,-6.673802470729277,50.777364634173615,23.302644063765577
-0.1086,0.9582,0.1745,-0.1157,0.2146,0.2214,-2.1263,0.5688,-15.6625,10.321797162875363,-6.474458005682428,51.47929925066864,23.31476671514123
-0.1106,0.957,0.1772,-0.1157,0.2146,0.2214,-2.6425,1.0325,-15.5925,10.489725816887187,-6.479400911013815,51.25537767950492,23.32435639667787
-0.1164,0.9554,0.1744,-0.1191,0.2144,0.221,-2.0475,0.4288,-15.82,10.345348605904842,-6.712841195724545,50.38709071653463,23.33637747444114
-0.1175,0.9502,0.1768,-0.1168,0.2143,0.2205,-1.33,0.1312,-15.8025,10.539731891689263,-6.863540362992936,50.52760293505264,23.348333077924657
-0.119,0.9524,0.1734,-0.1168,0.2143,0.2205,-1.1112,-0.6913,-15.7587,10.319218171945462,-6.9722524935186145,50.63658520706006,23.360478733776976
-0.1153,0.9573,0.1698,-0.1133,0.2149,0.2201,-0.7613,-1.0937,-15.8725,10.058879808905475,-6.810285713248126,51.61173368824777,23.372641023635506
-0.1118,0.9603,0.1674,-0.1133,0.2149,0.2201,0.84,-1.4088,-16.4675,9.88893287922792,-6.599034917532361,51.91702247670715,23.38477995510234
-0.1121,0.9623,0.1638,-0.1151,0.2146,0.221,0.0175,-1.2775,-15.5137,9.660766294164532,-6.56149895093586,51.876050333707944,23.39684881139408
-0.1126,0.9661,0.1598,-0.1173,0.2144,0.2208,-0.21,-1.6975,-15.4088,9.3928388187062,-6.559941117681909,51.622247833094036,23.409001545546918
-0.1052,0.9663,0.157,-0.1173,0.2144,0.2208,-0.4812,-1.75,-14.8137,9.228965167158925,-6.217114407205635,52.07507649280236,23.42113375262826
-0.1025,0.9695,0.1608,-0.1158,0.2114,0.221,-0.3325,-0.9187,-15.4612,9.416757307659438,-6.015980279362707,52.537281298718916,23.430634955408475
-0.1011,0.9711,0.1588,-0.1158,0.2114,0.221,-1.0237,-0.84,-15.9075,9.28750056675522,-5.901979572187194,52.699594571394705,23.44284042290014
-0.1048,0.9725,0.159,-0.1171,0.2141,0.2195,-1.5575,-0.735,-15.5137,9.285489494197375,-6.029351961919266,51.94593963858603,23.455423871639265
-0.1031,0.9695,0.1595,-0.1177,0.2115,0.2191,-2.1438,-0.525,-14.945,9.34232969333132,-6.000376232311088,51.90935023192207,23.46709917442242
-0.1079,0.9632,0.1581,-0.1177,0.2115,0.2191,-2.3625,-0.1225,-14.7262,9.321488088241194,-6.2193888712770535,51.676308874772566,23.479216163157655
-0.1041,0.9592,0.1604,-0.1179,0.2127,0.2174,-2.4763,-0.1925,-14.6212,9.492841815191433,-6.140732897774591,51.359537329140856,23.491419861074196
-0.0998,0.9596,0.1605,-0.1179,0.2127,0.2174,-2.7037,0.3063,-14.49,9.495232509853633,-5.950107268108367,51.55806259769226,23.503488009535886
-0.0979,0.9586,0.1671,-0.12,0.2122,0.2219,-1.96,0.21,-14.7175,9.887171998447327,-5.810536227565334,51.6467144240708,23.515607121761278
-0.0971,0.9585,0.1631,-0.1172,0.2133,0.222,-1.1375,0.91,-15.8725,9.657682814337095,-5.747193608685114,52.354053139946814,23.527774720345192
-0.105,0.9639,0.1635,-0.1172,0.2133,0.222,-1.6887,1.4962,-15.7587,9.627157049931503,-5.923246032785749,52.03572282040102,23.5371106448084
-0.1067,0.9691,0.1656,-0.1152,0.2146,0.2215,-2.1613,1.4437,-15.3737,9.69686058375449,-6.051810716478247,52.188748533036865,23.5491692375644
-0.1117,0.9745,0.1565,-0.1152,0.2146,0.2215,-1.5225,1.6187,-14.9975,9.12510159434288,-6.222600847962969,52.393764079113105,23.561274901018812
-0.1136,0.975,0.1601,-0.117,0.2138,0.2171,-1.7937,1.9075,-14.91,9.324493031205064,-6.325338896091216,51.20900725213691,23.573403215034876
-0.113,0.9744,0.1617,-0.1157,0.213,0.2194,-2.4413,1.2163,-14.1837,9.421999476690893,-6.432126770300855,51.79281952929233,23.585525866410524
-0.1093,0.9686,0.1625,-0.1157,0.213,0.2194,-3.535,1.0762,-13.6412,9.523421194242674,-6.386266901421153,51.85841899410788,23.59764639429602
-0.1147,0.9661,0.1649,-0.1186,0.2137,0.22,-3.2813,1.1112,-13.7287,9.685806292798457,-6.545953532496293,50.983673493745435,23.609695077431297
-0.1191,0.9626,0.1687,-0.1186,0.2137,0.22,-3.08,1.2775,-13.405,9.939690784082941,-6.7539949484367385,50.58280564159715,23.619072409952516
-0.1177,0.9578,0.1694,-0.1166,0.2135,0.2222,-3.045,0.8925,-13.23,10.029569646349811,-6.840348985953692,51.26980772057755,23.63118550562247
-0.117,0.9535,0.1692,-0.1169,0.2131,0.2204,-3.9025,0.4462,-12.7487,10.062383902755196,-6.872226908587541,50.94978577218036,23.643649684997932
-0.1145,0.956,0.1705,-0.1169,0.2131,0.2204,-2.9488,-0.0175,-12.7662,10.112087591145315,-6.768508637314494,51.040892876968044,23.655732343975675
-0.1047,0.9611,0.1677,-0.1172,0.2124,0.2209,-2.8875,-0.6038,-12.4337,9.898347253889911,-6.288090769717552,51.722391588868966,23.667607254833328
-0.1016,0.9654,0.1658,-0.1172,0.2124,0.2209,-2.6775,-0.8225,-13.7725,9.745462094057862,-6.009559341093961,51.99551875479836,23.67978263954781
-0.0992,0.9663,0.164,-0.1195,0.2129,0.223,-2.6688,-1.2687,-13.8687,9.632739321156437,-5.8292211768447695,52.02926873091571,23.69196120949752
-0.0977,0.9687,0.1646,-0.1188,0.2113,0.2208,-2.9838,-1.085,-13.3787,9.643474137197835,-5.712383784116468,51.98584719232834,23.704080321722913
-0.0927,0.959,0.165,-0.1188,0.2113,0.2208,-3.7538,-0.735,-13.7987,9.762069424170647,-5.508052643606873,52.08891412893171,23.71626420039801
-0.0974,0.9544,0.1669,-0.1205,0.2118,0.221,-2.4763,-0.4025,-14.3238,9.918821711577847,-5.678555428911415,51.41733662841056,23.728386851773664
-0.1017,0.952,0.1662,-0.1205,0.2118,0.221,-2.59,-1.05,-14.42,9.902929324897707,-5.932679980900649,51.21976563483668,23.737852663051306
-0.1019,0.9543,0.1671,-0.1191,0.2127,0.2172,-2.5813,-1.4437,-14.9888,9.93184529006128,-5.9893282563137555,50.85618729958136,23.750041496536763
-0.0954,0.9549,0.1598,-0.1203,0.2125,0.2208,-1.8375,-0.9013,-15.1812,9.501453884314728,-5.712656943185871,51.7845223803005,23.76217688885334
-0.0866,0.9565,0.166,-0.1203,0.2125,0.2208,-1.6538,-0.7613,-15.2163,9.844634690249753,-5.247263877082053,51.95994792907509,23.77436147535849
-0.089,0.9572,0.1654,-0.1214,0.2142,0.2207,-1.4962,-0.315,-14.805,9.803765852123389,-5.238292855366673,51.57735382239821,23.78648660413932
-0.0924,0.9561,0.1698,-0.1214,0.2142,0.2207,-1.6013,0.6038,-15.5575,10.069794340362368,-5.363655552078505,51.221802416512915,23.79859191367871
-0.1008,0.9572,0.1663,-0.1195,0.213,0.2304,-1.3562,0.9187,-15.8725,9.856543062162903,-5.692974005112532,52.80635527956054,23.810664309120707
-0.1038,0.9595,0.1635,-0.1202,0.2125,0.2193,-0.6212,1.1812,-15.3912,9.670899088411963,-5.905271711468607,51.099786686807505,23.822812442378208
-0.1041,0.9808,0.1617,-0.1202,0.2125,0.2193,-0.8312,0.7788,-15.0062,9.362727024188471,-5.94997105744916,51.40722469891653,23.834902887486518
-0.1012,0.9701,0.1599,-0.1214,0.2123,0.2202,-1.0937,0.8487,-15.1988,9.359819697986254,-5.906064111578748,51.40072772383228,23.844299331419123
-0.0992,0.9737,0.1627,-0.1214,0.2123,0.2202,-0.6737,1.2425,-15.9687,9.4858290435621,-5.817922013392568,51.417647877439016,23.856431184585443
-0.1001,0.9728,0.1596,-0.1204,0.2134,0.2222,-1.2075,1.1725,-15.54,9.317550050120868,-5.8071682249035295,51.92786491720199,23.868495086066826
-0.1058,0.969,0.1624,-0.1182,0.2112,0.2194,-1.2687,0.9713,-15.505,9.513551514542472,-6.003477411360473,51.62532190881281,23.880560049293283
-0.1096,0.9646,0.1642,-0.1182,0.2112,0.2194,-1.26,0.8487,-14.9275,9.660225534776348,-6.23600412818518,51.32828643024032,23.892694025949755
-0.1111,0.9571,0.1632,-0.1212,0.2117,0.2193,-0.8925,-0.1225,-15.6887,9.676681496847989,-6.443759922395764,50.602906177592054,23.90538471094167
-0.1116,0.9577,0.1609,-0.1212,0.2117,0.2193,-0.9625,0.2888,-15.295,9.537391928946793,-6.519034919174175,50.68372272506925,23.9169357895508
-0.1062,0.9587,0.1632,-0.1204,0.21,0.224,-1.1638,0.175,-15.1812,9.660542182537332,-6.322627594573836,51.76026647294601,23.92899898320213
-0.1039,0.961,0.1596,-0.1177,0.2111,0.2205,-1.2512,-0.1575,-14.4987,9.43008245308615,-6.154867905279015,51.99437737229864,23.93848815287147
-0.0995,0.96,0.1581,-0.1177,0.2111,0.2205,-1.0325,-0.5688,-14.035,9.352168554874913,-5.919826189018063,52.244667721818196,23.95076865034859
-0.1025,0.9595,0.1557,-0.1202,0.2117,0.2206,-1.0762,-0.4725,-14.2712,9.21753045099272,-5.993359997676832,51.706831976455184,23.96285378673151
-0.1052,0.9602,0.1532,-0.1202,0.2117,0.2206,-0.42,-0.77,-14.5775,9.065558975502494,-6.13083663795754,51.6948553166842,23.974961573676083
-0.103,0.959,0.1551,-0.122,0.2122,0.2174,-0.4638,-0.7525,-15.1637,9.1866193147761,-6.0713950700274735,50.864535392660045,23.98712138612943
-0.1026,0.962,0.15,-0.1223,0.2102,0.2178,-0.2013,-1.0675,-15.6625,8.863378404557462,-6.028234569109695,51.21472682361894,23.99929712475894
-0.0983,0.9665,0.151,-0.1223,0.2102,0.2178,-0.98,-0.7175,-15.3125,8.879709945390657,-5.8096082722748275,51.412924970065816,24.011505777485837
-0.0919,0.9679,0.152,-0.1198,0.2105,0.2196,-1.0937,-0.8663,-15.47,8.924771392298178,-5.465597249159569,52.407092024861825,24.02364541678272
-0.0924,0.9695,0.1518,-0.1198,0.2105,0.2196,-0.525,-0.84,-15.6275,8.898937694798892,-5.3997473554174,52.409738836317025,24.035783994334526
-0.0928,0.9708,0.1509,-0.1213,0.21,0.2198,-0.9887,-0.7962,-15.5137,8.835458558090817,-5.396886305318288,52.20031847125501,24.047939559807567
-0.0953,0.97,0.1474,-0.122,0.2118,0.2193,-0.9887,-0.2187,-15.155,8.641028969226666,-5.505536436481518,51.937456006453466,24.060049470242294
-0.097,0.9706,0.1473,-0.122,0.2118,0.2193,-2.1,0.3325,-15.4175,8.629494157534326,-5.597342980736406,51.87207150056366,24.06945546988059
-0.0944,0.9679,0.1513,-0.1208,0.2109,0.2208,-2.1963,0.1138,-15.9425,8.883748315671053,-5.532903623948285,52.286543098746115,24.081574582105983
-0.0951,0.9677,0.1526,-0.1208,0.2109,0.2208,-2.1175,-0.1138,-15.7762,8.96116272252491,-5.541218659702904,52.20211200875379,24.093758460781082
-0.0981,0.9681,0.1513,-0.1206,0.211,0.2161,-2.7825,0.175,-14.9975,8.88286192917873,-5.6617626568326616,51.466460664294104,24.10585669201996
-0.094,0.9704,0.156,-0.1206,0.2111,0.2179,-3.15,1.2163,-14.6737,9.131952691881688,-5.5563106390996255,51.74964776158162,24.117904313410158
-0.0902,0.9709,0.1561,-0.1206,0.2111,0.2179,-2.8963,1.2337,-14.8312,9.133766869612868,-5.390051461304039,51.92347120169439,24.13002696478581
-0.0911,0.9658,0.158,-0.121,0.2091,0.2191,-3.2113,1.4175,-15.3037,9.290562759455181,-5.355447757596728,51.9364924700256,24.142143599606023
-0.0936,0.9601,0.1606,-0.121,0.2091,0.2191,-3.5088,1.75,-15.4875,9.49562053473512,-5.406659913148323,51.65657552151089,24.15154782966919
-0.0964,0.9605,0.1579,-0.1206,0.2103,0.2206,-2.9838,1.9075,-14.9187,9.33599769828405,-5.482837407242956,51.888614246534736,24.163614208555753
-0.1013,0.9573,0.1595,-0.1226,0.211,0.2187,-2.625,2.135,-14.945,9.459069824405189,-5.5663733757389515,50.873616339926414,24.17570748498427
-0.103,0.9553,0.1618,-0.1226,0.211,0.2187,-2.2488,1.9162,-15.6712,9.612583638484614,-5.717625163501521,50.67828923004826,24.187809255373402
-0.0992,0.9626,0.1607,-0.1217,0.2105,0.2194,-1.9687,1.7675,-15.05,9.478136512516308,-5.749356600025628,51.27611286987087,24.199926244108642
-0.0991,0.9644,0.156,-0.1217,0.2105,0.2194,-1.8987,1.645,-14.9713,9.189293436014346,-5.7670599649218754,51.49147061939763,24.212093134862506
-0.0987,0.9611,0.1564,-0.1202,0.211,0.2206,-2.0825,1.6887,-15.0412,9.242588914266115,-5.775306920332112,51.89799040062425,24.22411881352111
-0.1003,0.96,0.167,-0.1202,0.211,0.2206,-2.1,1.9075,-14.6912,9.866600882170626,-5.806378301430963,51.381940232039376,24.23614909307505
-0.0989,0.9545,0.1606,-0.1195,0.2106,0.219,-1.75,1.085,-15.19,9.551749128796573,-5.821867644966947,51.55911828668192,24.245618443502952
-0.1008,0.9568,0.1576,-0.1199,0.21,0.2183,-0.9275,0.6825,-15.3212,9.354072581488044,-5.892308490126831,51.46847098845181,24.25824542379024
-0.0964,0.9613,0.1586,-0.1199,0.21,0.2183,-1.5225,0.735,-15.0762,9.368503940043878,-5.743134929354663,51.6781119750148,24.269849943568246
-0.0931,0.9639,0.1527,-0.1205,0.211,0.2204,-2.03,0.4288,-15.8375,9.002937594594211,-5.550003676791771,52.24301741264159,24.281925878160504
-0.0919,0.9663,0.1535,-0.1205,0.211,0.2204,-1.9425,0.84,-15.82,9.026143516671628,-5.439310183045292,52.291644962357125,24.294013138033584
-0.0952,0.9678,0.1516,-0.1213,0.2102,0.219,-1.6538,0.6825,-16.1788,8.903030575822173,-5.508912673457831,51.90914294072722,24.306147114690056
-0.0908,0.9647,0.1582,-0.1202,0.2115,0.219,-1.5837,1.2163,-15.7325,9.311845909992549,-5.401471178150029,51.968800291644115,24.318275428706116
-0.0983,0.9626,0.1498,-0.1202,0.2115,0.219,-1.7762,1.9337,-15.5312,8.846715087920526,-5.5070215633797694,51.942576753691235,24.32759684265327
-0.1019,0.9648,0.1497,-0.1199,0.2112,0.2186,-2.24,1.8987,-15.7937,8.819853929263747,-5.646887563114883,51.82101794055927,24.3397095844082
-0.1038,0.9704,0.1477,-0.1199,0.2112,0.2186,-2.2925,1.9075,-15.33,8.654754667101802,-5.765991218285375,51.87737329396759,24.351828696633596
-0.1015,0.97,0.149,-0.1203,0.2086,0.2179,-2.1175,2.5375,-14.9975,8.732630660316307,-5.788137891875922,51.85459076904457,24.363927281787497
-0.1021,0.9718,0.1537,-0.121,0.2098,0.2186,-2.4413,2.1,-15.1988,8.986758142655797,-5.815226180540871,51.578721300264604,24.376031883496836
-0.103,0.968,0.1515,-0.121,0.2098,0.2186,-2.7388,1.3912,-14.7525,8.895356470918117,-5.906145655435525,51.58523829210858,24.388098262383398
-0.1089,0.9586,0.1532,-0.1204,0.2106,0.2182,-3.045,1.4437,-14.9625,9.07950930466021,-6.1409487097623146,51.17067271073142,24.400226930314485
-0.104,0.9572,0.1573,-0.1204,0.2106,0.2182,-3.1412,1.8463,-15.6275,9.331505529635413,-6.133762250669449,51.20356333525506,24.412283753495352
-0.1024,0.9584,0.1507,-0.1209,0.2106,0.2078,-2.5288,1.295,-15.7412,8.937182048420981,-6.078054316274134,49.872824125904685,24.421737885577148
-0.1027,0.9641,0.1507,-0.121,0.2074,0.2176,-1.715,1.2512,-16.17,8.88424978761685,-6.041437475787816,51.543393023900336,24.43380497229376
-0.101,0.9709,0.1501,-0.121,0.2074,0.2176,-2.9313,0.77,-15.4962,8.788550433626357,-5.936334920971051,51.715420932016755,24.44588409212125
-0.0991,0.9717,0.1501,-0.1214,0.2096,0.2182,-2.7913,0.8312,-14.42,8.781183136685156,-5.827326712760088,51.72545014108703,24.458025500993262
-0.1014,0.9716,0.1491,-0.1214,0.2096,0.2182,-3.0188,0.9625,-14.2187,8.7246043491844,-5.863488582635744,51.663174921334885,24.470127271382395
-0.1,0.9712,0.1518,-0.1204,0.2114,0.2161,-3.3688,1.2425,-14.4637,8.883098947425246,-5.834740507181972,51.416083395040765,24.482204621634754
-0.0996,0.963,0.1547,-0.1218,0.211,0.2189,-3.5963,0.77,-14.875,9.125567814124464,-5.832262894915244,51.39165437236524,24.494337182631124
-0.0988,0.9573,0.1579,-0.1218,0.211,0.2189,-3.2375,1.0325,-15.47,9.365544225551798,-5.822140624771674,51.23292914246007,24.503724778688085
-0.1,0.9611,0.1586,-0.1179,0.2096,0.2181,-3.0975,0.8312,-15.7587,9.370445153237823,-5.84579841412032,51.8882914932175,24.515797881960136
-0.101,0.9623,0.1561,-0.1179,0.2096,0.2181,-2.0913,1.1812,-16.7038,9.214436856134451,-5.883001279775324,51.95819340543493,24.527971851014513
-0.1047,0.9656,0.1514,-0.1208,0.2097,0.2136,-2.0038,1.6887,-16.4412,8.911902104942103,-5.974879470692934,50.78344015031979,24.53999752967312
-0.1031,0.9725,0.1508,-0.1208,0.2104,0.2163,-1.645,2.1,-15.89,8.814597422303725,-5.976032148270699,51.32924139138503,24.55213079849954
-0.102,0.9782,0.153,-0.1204,0.2104,0.2163,-1.26,1.4262,-16.1525,8.889386560076593,-5.930884732216593,51.42833287240752,24.56422867582339
-0.0993,0.9794,0.1506,-0.1203,0.2098,0.2178,-1.8812,1.9337,-15.4088,8.742172844352066,-5.869877273945297,51.92174934829231,24.57635309677417
-0.1033,0.9745,0.1512,-0.1203,0.2098,0.2178,-2.87,1.8987,-14.6737,8.81927509773291,-5.9039780618475195,51.6707987436816,24.585662831525475
-0.1071,0.9694,0.1537,-0.1206,0.2109,0.2183,-3.2375,2.415,-13.7725,9.008821913223926,-5.924340018191865,51.31617313984779,24.59782052048867
-0.1052,0.9628,0.1595,-0.1206,0.2109,0.2183,-4.0425,2.415,-14.245,9.40524036099679,-5.938704974660344,51.087983827367154,24.609914150832214
-0.1046,0.9573,0.1595,-0.12,0.211,0.2291,-3.36,2.1525,-14.035,9.459260657187926,-5.973487521165352,52.71598080879849,24.62202547692704
-0.1058,0.955,0.1567,-0.1221,0.2101,0.2181,-3.2725,1.8987,-14.5775,9.318662661449963,-6.055772539164593,50.80873374871636,24.63413397170166
-0.1055,0.9529,0.1584,-0.1221,0.2101,0.2181,-2.7913,1.575,-13.9038,9.437614931028998,-6.132991280722459,50.725643361043716,24.64615929644524
-0.1008,0.9544,0.1566,-0.121,0.2101,0.2162,-1.7325,1.3475,-14.875,9.318511057065193,-6.041493633258537,50.951356365358556,24.65832972634936
-0.0999,0.9575,0.1558,-0.121,0.2101,0.2162,-1.6712,1.015,-14.9187,9.2421209912525,-5.948990287404272,51.06067483914143,24.670437513293933
-0.1015,0.9645,0.1527,-0.1202,0.2092,0.2232,-2.0213,1.12,-14.5687,8.997096126804717,-5.940776870097481,52.4094231037256,24.67981803105038
-0.0992,0.9658,0.1513,-0.1195,0.2102,0.2186,-1.7587,0.8138,-14.4987,8.903717981867718,-5.852082458090119,52.008671983471224,24.69188724125715
-0.1041,0.958,0.1629,-0.1195,0.2102,0.2186,-1.6975,0.8487,-15.05,9.64831462359825,-6.009530682100972,51.228336890213384,24.704012370037976
-0.1024,0.9581,0.1537,-0.1224,0.2107,0.2182,-1.5312,0.8138,-14.7962,9.115303046784117,-6.018329811822946,51.048447957253956,24.716108831701725
-0.1051,0.9604,0.1507,-0.1224,0.2107,0.2182,-1.4088,0.6125,-14.4812,8.918324541867369,-6.114755550889963,51.077633342628495,24.728226174351988
-0.1026,0.9664,0.1494,-0.122,0.2108,0.2201,-1.8987,0.245,-15.0762,8.7883949447323,-6.029941258044562,51.655454900938665,24.740276627062393
-0.0974,0.9717,0.1507,-0.118,0.2102,0.2179,-1.7762,-0.1225,-15.4263,8.815638448907151,-5.764352815694268,52.36475399065974,24.752485633704318
-0.0958,0.9733,0.1492,-0.118,0.2102,0.2179,-1.8725,-0.1575,-15.2337,8.715471371926284,-5.616087007111151,52.51333642170757,24.764658187098593
-0.0986,0.967,0.1519,-0.1215,0.2094,0.2168,-2.2925,-0.3588,-15.365,8.926701733823164,-5.715318895501313,51.408419996236,24.77409745474931
-0.1025,0.9615,0.1547,-0.1215,0.2094,0.2168,-2.6425,0.2713,-15.1637,9.13964867329983,-5.913066342042945,51.061199238680466,24.786280625594355
-0.0998,0.9579,0.1523,-0.1213,0.2093,0.2134,-2.1,-0.1488,-15.0412,9.034337814165179,-5.8856784741740205,50.767839040959046,24.798361514996973
