AcclX,AcclY,AcclZ,MagX,MagY,MagZ,GyroX,GyroY,GyroZ,Roll,Pitch,Yaw,Time(s)
-0.1487,0.9785,0.0439,-0.7056,0.0535,0.1114,-2.555,1.1025,-14.6737,0,0,0,1.6200385979727039
-0.1507,0.9508,0.0425,-0.7069,0.0523,0.1122,-3.22,0.98,-14.3413,0,0,0,1.63223663324883
-0.1487,0.9768,0.0453,-0.7069,0.0523,0.1122,-2.6425,0.5338,-14.8575,0,0,0,1.644471829602656
-0.1487,0.9769,0.0479,-0.7071,0.0535,0.1112,-3.0625,0.665,-14.9012,0,0,0,1.6531027553346496
-0.1494,0.979,0.0433,-0.7064,0.0518,0.1136,-3.0275,1.0062,-14.7613,0,0,0,1.6661278900258605
-0.1473,0.9771,0.0467,-0.7064,0.0518,0.1136,-2.7738,1.3212,-15.085,0,0,0,1.6782590353621276
-0.1511,0.9817,0.0453,-0.7062,0.0516,0.1135,-2.7913,1.505,-15.3387,0,0,0,1.6903519578756179
-0.1512,0.9806,0.044,-0.7062,0.0516,0.1135,-2.73,0.9713,-15.1025,0,0,0,1.7024321394481827
-0.149,0.9762,0.0454,-0.7075,0.0518,0.1141,-2.87,1.0062,-14.77,0,0,0,1.7145498360134728
-0.1485,0.9789,0.0428,-0.7075,0.0518,0.1141,-3.1238,1.365,-14.1662,0,0,0,1.7266930144606139
-0.1496,0.981,0.0444,-0.7091,0.0517,0.1109,-3.01,0.9713,-14.7613,0,0,0,1.7386840094466998
-0.1485,0.9776,0.048,-0.7079,0.0523,0.113,-2.0475,0.7175,-14.945,0,0,0,1.7481048735160785
-0.1502,0.9797,0.0428,-0.7079,0.0523,0.113,-2.485,0.9013,-15.1462,0,0,0,1.7601733758927949
-0.147,0.9789,0.046,-0.7062,0.0516,0.1138,-2.5463,1.225,-15.3212,0,0,0,1.7723377892414787
-0.1546,0.9815,0.0426,-0.7062,0.0516,0.1138,-2.4675,1.3737,-15.3212,0,0,0,1.7843730236057782
-0.1676,0.977,0.0485,-0.7066,0.0526,0.1101,-2.8175,1.12,-15.0675,0,0,0,1.7962192673463486
-0.1678,0.9755,0.0515,-0.7083,0.053,0.1152,-3.3425,0.7875,-14.5775,0,0,0,1.8083992529561637
-0.1446,0.9708,0.0463,-0.7083,0.053,0.1152,-3.15,0.84,-14.3762,0,0,0,1.820554464514179
-0.1326,0.9848,0.0304,-0.7081,0.052,0.1135,-2.905,1.3387,-13.4312,0,0,0,1.8290519642814798
-0.1368,0.9922,0.0242,-0.7081,0.052,0.1135,-2.5725,1.5662,-13.3087,0,0,0,1.841303794641514
-0.1469,0.9947,0.0341,-0.707,0.0536,0.1165,-2.3538,1.5137,-14.8925,0,0,0,1.8535609337269339
-0.166,0.9823,0.0439,-0.7089,0.0526,0.1135,-2.5988,1.2337,-16.1175,0,0,0,1.8658060397014797
-0.161,0.9683,0.0591,-0.7089,0.0526,0.1135,-3.2288,0.5425,-16.6863,0,0,0,1.8780801667081337
-0.149,0.9643,0.0548,-0.7067,0.0509,0.1138,-2.9313,0.7175,-15.6187,0,0,0,1.8902937742453911
-0.1485,0.9819,0.0364,-0.7067,0.0509,0.1138,-2.24,1.435,-13.7025,0,0,0,1.9025604690365052
-0.1356,0.9939,0.0339,-0.7047,0.0538,0.1156,-1.82,1.2163,-14.2012,0,0,0,1.9146654246608696
-0.1387,0.9925,0.0327,-0.7087,0.0527,0.111,-2.205,1.6625,-15.575,0,0,0,1.923163632258222
-0.1519,0.984,0.0337,-0.7087,0.0527,0.111,-2.7913,0.9275,-16.5375,0,0,0,1.9354529776109815
-0.1448,0.9711,0.0614,-0.7062,0.0522,0.1129,-2.9663,0.7175,-16.0562,0,0,0,1.9476764947689589
-0.1543,0.9683,0.0559,-0.7062,0.0522,0.1129,-2.1438,1.1812,-15.9775,0,0,0,1.9601314723537506
-0.1623,0.9744,0.0522,-0.7067,0.0536,0.1148,-3.15,1.3387,-15.0412,0,0,0,1.972233242742884
-0.1443,0.9845,0.0446,-0.7067,0.0536,0.1175,-2.7475,0.8838,-14.4375,0,0,0,1.9844503894303984
-0.1431,0.9831,0.0401,-0.7069,0.0528,0.1175,-2.5725,1.1812,-14.4987,0,0,0,1.996711421581101
-0.1505,0.9801,0.0434,-0.7065,0.0528,0.1138,-2.695,1.0587,-15.1025,0,0,0,2.0055069178000497
-0.1453,0.978,0.046,-0.7065,0.0528,0.1138,-2.5288,1.295,-15.1025,0,0,0,2.017455089068025
-0.1563,0.9776,0.0485,-0.7059,0.0523,0.1112,-3.1588,1.5312,-15.2687,0,0,0,2.0296244572270687
-0.1558,0.9758,0.0484,-0.7059,0.0523,0.1112,-3.045,1.3475,-15.8463,0,0,0,2.041896814658594
-0.1463,0.9771,0.0466,-0.7082,0.0526,0.1169,-3.2288,0.9975,-15.2425,0,0,0,2.054086709889129
-0.149,0.9776,0.0435,-0.7065,0.0532,0.113,-3.0538,1.4875,-14.525,0,0,0,2.066319074922749
-0.1411,0.9809,0.0443,-0.7065,0.0532,0.113,-2.9663,1.1462,-13.8425,0,0,0,2.078552855616472
-0.1446,0.9826,0.0428,-0.7087,0.0534,0.1132,-2.555,1.1725,-14.6825,0,0,0,2.087155114231383
-0.1563,0.979,0.0448,-0.7087,0.0534,0.1132,-2.2313,1.4088,-14.8662,0,0,0,2.099545679281496
-0.1535,0.9753,0.0498,-0.7069,0.0529,0.1187,-2.695,0.8575,-15.5312,0,0,0,2.1117752129949103
-0.1522,0.9712,0.0519,-0.707,0.0528,0.1136,-2.8788,0.8663,-15.4,0,0,0,2.123811863019313
-0.1453,0.9801,0.044,-0.707,0.0528,0.1136,-2.6163,1.1025,-14.8662,0,0,0,2.1360201618311847
-0.143,0.9844,0.0437,-0.7075,0.0545,0.1127,-2.5463,1.2425,-14.56,0,0,0,2.148270576531116
-0.1517,0.9842,0.0426,-0.7075,0.0545,0.1127,-2.3625,0.91,-15.0062,0,0,0,2.160537625237256
-0.1534,0.9742,0.05,-0.7059,0.0536,0.1101,-3.0363,0.9625,-15.1287,0,0,0,2.172740261408716
-0.1485,0.9716,0.0517,-0.7061,0.0531,0.1135,-2.7738,1.1812,-14.6562,0,0,0,2.1812954493252077
-0.152,0.9731,0.0332,-0.7061,0.0531,0.1135,-2.3625,1.155,-14.2275,0,0,0,2.1935225056334424
-0.1494,0.982,0.0438,-0.7038,0.053,0.1136,-2.4763,1.33,-14.49,0,0,0,2.205732220105417
-0.1464,0.9838,0.0436,-0.7038,0.053,0.1136,-3.01,1.3475,-14.8137,0,0,0,2.2179854661255543
-0.1482,0.9796,0.0438,-0.707,0.0503,0.1193,-3.0538,0.9363,-15.0062,0,0,0,2.230183855316706
-0.1475,0.9756,0.0426,-0.7066,0.0528,0.1146,-2.9663,1.0237,-14.84,0,0,0,2.2424402865720747
-0.1513,0.9768,0.0489,-0.7066,0.0528,0.1146,-3.0713,0.9275,-14.3937,0,0,0,2.2546570793445633
-0.1515,0.98,0.0461,-0.7059,0.054,0.1145,-2.3712,1.4175,-14.4987,0,0,0,2.263201295895258
-0.1479,0.9798,0.0462,-0.7059,0.054,0.1145,-2.5725,1.0587,-14.6912,0,0,0,2.2755306336459227
-0.1459,0.9775,0.0451,-0.7073,0.0538,0.1164,-2.3888,1.1638,-15.3737,0,0,0,2.2876900921842465
-0.1464,0.9772,0.0413,-0.7065,0.0542,0.1105,-2.1438,1.2775,-15.1725,0,0,0,2.2998803413298075
-0.1462,0.9782,0.0462,-0.7065,0.0542,0.1105,-2.6775,1.1987,-14.91,0,0,0,2.312153406591384
-0.1496,0.9801,0.0487,-0.707,0.0514,0.1152,-3.4038,1.7062,-15.3562,0,0,0,2.3243595819131015
-0.1519,0.9767,0.0471,-0.707,0.0514,0.1152,-3.0188,1.2512,-15.05,0,0,0,2.3367547478585484
-0.1512,0.9759,0.0486,-0.7062,0.0507,0.1111,-3.185,1.4437,-14.7,0,0,0,2.3488140484445963
-0.1508,0.9774,0.0471,-0.7062,0.0507,0.1205,-2.7825,1.1025,-14.4987,0,0,0,2.3573380918388254
-0.1476,0.9788,0.0442,-0.7077,0.0515,0.1205,-2.0213,1.3212,-14.7262,0,0,0,2.3695609011667518
-0.1474,0.9802,0.0598,-0.7063,0.0531,0.1127,-2.625,1.435,-14.945,0,0,0,2.3818191019972486
-0.1471,0.9787,0.0459,-0.7063,0.0531,0.1127,-2.9575,0.9013,-14.8225,0,0,0,2.3940971220691853
-0.152,0.9765,0.0481,-0.708,0.0534,0.1138,-2.9225,0.9363,-14.5338,0,0,0,2.4062778155090516
-0.1516,0.977,0.0476,-0.708,0.0534,0.1138,-2.7388,0.875,-14.2887,0,0,0,2.4185958279788937
-0.1515,0.9757,0.0462,-0.707,0.0514,0.111,-2.87,1.155,-14.2362,0,0,0,2.430792801509943
-0.15,0.9775,0.0445,-0.707,0.0528,0.1142,-2.8788,1.2075,-14.5425,0,0,0,2.4392715437808814
-0.1487,0.9806,0.0451,-0.707,0.0528,0.1142,-2.6688,1.4875,-15.0675,0,0,0,2.4515223123958383
-0.1469,0.9786,0.0392,-0.7077,0.0533,0.1142,-2.8,0.7613,-15.0937,0,0,0,2.4637401669134045
-0.1523,0.9781,0.0425,-0.7077,0.0533,0.1142,-2.7213,0.5862,-15.015,0,0,0,2.47600756953457
-0.1512,0.9786,0.0467,-0.7075,0.0542,0.107,-2.5113,0.9275,-14.665,0,0,0,2.4882247162220845
-0.1487,0.978,0.0462,-0.7089,0.0515,0.113,-2.7913,1.2337,-14.91,0,0,0,2.5005154772349467
-0.1483,0.9804,0.0472,-0.7089,0.0515,0.113,-2.5988,1.155,-14.5513,0,0,0,2.5127287308571784
-0.1463,0.9776,0.0453,-0.7065,0.0517,0.114,-2.625,1.1462,-14.8137,0,0,0,2.524939860989256
-0.1497,0.9793,0.043,-0.7065,0.0517,0.114,-3.2113,0.98,-15.26,0,0,0,2.533480184474668
-0.1501,0.9776,0.0403,-0.7077,0.0526,0.1169,-3.22,0.8663,-14.91,0,0,0,2.5457383853051647
-0.1505,0.9801,0.0444,-0.7071,0.0531,0.1137,-3.0363,0.9975,-14.665,0,0,0,2.557935358836214
-0.1482,0.9772,0.0451,-0.7071,0.0531,0.1137,-3.01,0.91,-14.6037,0,0,0,2.5702271815941535
-0.1504,0.9762,0.0486,-0.7077,0.0517,0.112,-3.0888,1.225,-14.2362,0,0,0,2.582433356915871
-0.1467,0.9786,0.0472,-0.7077,0.0517,0.112,-2.8,1.0062,-14.3413,0,0,0,2.5946625367142597
-0.148,0.9789,0.0459,-0.707,0.0534,0.1162,-2.66,1.19,-14.6825,0,0,0,2.606886407787263
-0.1461,0.98,0.0413,-0.7082,0.0518,0.1122,-2.6513,1.1375,-15.3037,0,0,0,2.6153633804830725
-0.1513,0.9781,0.0446,-0.7082,0.0518,0.1122,-2.6338,1.1638,-15.6363,0,0,0,2.627710413985023
-0.1493,0.9775,0.0476,-0.7074,0.0523,0.1133,-2.6513,0.2538,-15.2425,0,0,0,2.639907387516072
-0.1498,0.9789,0.0444,-0.7074,0.0523,0.1133,-2.2138,0.6038,-15.2425,0,0,0,2.6522123051299626
-0.151,0.9803,0.0457,-0.7063,0.0527,0.1145,-3.2288,1.12,-14.8925,0,0,0,2.664535980240216
-0.149,0.9805,0.0458,-0.7059,0.052,0.1117,-2.415,0.9275,-14.2712,0,0,0,2.676640581949555
-0.148,0.9797,0.0445,-0.7059,0.052,0.1117,-2.8,1.0675,-14.0525,0,0,0,2.6888322467552186
-0.1506,0.978,0.0479,-0.7046,0.0535,0.113,-2.5813,1.4962,-14.7613,0,0,0,2.7010596569784786
-0.1487,0.9782,0.0474,-0.7046,0.0535,0.113,-2.3975,1.3912,-15.225,0,0,0,2.7096399728617957
-0.1494,0.9791,0.0504,-0.7075,0.0521,0.1134,-2.6775,1.155,-15.2337,0,0,0,2.7218472099285904
-0.1535,0.9811,0.043,-0.7075,0.0521,0.1134,-2.4588,1.2687,-15.085,0,0,0,2.7340969167984706
-0.1521,0.9787,0.0483,-0.7069,0.0541,0.111,-2.6163,1.1025,-14.595,0,0,0,2.7463600724393276
-0.147,0.9782,0.0439,-0.7112,0.0534,0.1144,-2.8525,1.155,-14.8225,0,0,0,2.7586048244988475
-0.1531,0.981,0.0468,-0.7112,0.0534,0.1144,-3.1325,1.2163,-14.6825,0,0,0,2.7707589743117857
-0.1496,0.9784,0.0501,-0.7062,0.052,0.1116,-2.5813,0.8487,-14.595,0,0,0,2.78299098543038
-0.1487,0.9781,0.0456,-0.7062,0.052,0.1116,-2.0738,1.0675,-14.7613,2.6617607207419893,-7.136877189444019,8.765819601211525,26.286266292035815
-0.1508,0.9778,0.0457,-0.7051,0.0531,0.1119,-2.2488,1.3562,-14.9713,2.6758786881163523,-8.461783308940669,8.803381439271968,26.291039190072542
-0.1501,0.9783,0.0462,-0.7077,0.0521,0.113,-2.4675,1.2075,-14.7613,2.703693290814202,-8.66855047304384,8.861396203030477,26.295481531475257
-0.1513,0.9801,0.0454,-0.7077,0.0521,0.113,-2.7125,1.2775,-14.875,2.6522929898604013,-8.748729202055184,8.866277931649973,26.300181876931713
-0.1512,0.9772,0.042,-0.7068,0.0517,0.1134,-2.87,1.1725,-14.525,2.4615926909402956,-8.780661075370258,8.926885891880799,26.304746672933323
-0.1517,0.9793,0.0462,-0.7068,0.0517,0.1134,-2.9663,0.8925,-14.2887,2.700341059708572,-8.79331348144415,8.907357281841428,26.309284217477952
-0.1484,0.9795,0.0461,-0.7073,0.0526,0.1108,-2.275,0.8575,-14.7788,2.69464366489411,-8.637146831713535,8.689764294947809,26.313778584389446
-0.1459,0.9787,0.0442,-0.706,0.051,0.1142,-4.235,1.295,-14.945,2.586139351860619,-8.500550715017807,8.989853929758711,26.318618018451005
-0.149,0.9785,0.0489,-0.706,0.051,0.1142,-2.2838,0.7788,-15.7587,2.860173126903024,-8.623228559727513,8.969563920864523,26.323123710643323
-0.1476,0.9775,0.046,-0.7064,0.0504,0.1121,-2.8,1.0587,-15.2337,2.6947509186903225,-8.58525581263074,8.81510454336937,26.327554018935164
-0.1507,0.979,0.0447,-0.7064,0.0504,0.1121,-3.1675,1.1725,-14.7525,2.6144696155747726,-8.714325092670062,8.823237707013663,26.332017595239417
-0.1486,0.9796,0.0444,-0.707,0.0524,0.1142,-3.4738,1.3912,-15.155,2.595187952575822,-8.634878906375212,8.970799835450594,26.33665883688658
-0.1482,0.9791,0.0421,-0.7058,0.0532,0.1113,-2.7037,1.225,-14.6125,2.4624999847944524,-8.605668992494433,8.763354010354844,26.34130538725913
-0.1474,0.9775,0.0439,-0.7058,0.0532,0.1113,-2.5988,0.6212,-15.1462,2.5711470944965877,-8.572959364929533,8.753737193818207,26.346796024967997
-0.15,0.978,0.0468,-0.7072,0.0521,0.1142,-2.6425,0.8838,-14.9187,2.739197492657842,-8.686900159210895,8.958977609844906,26.3495133845354
-0.1503,0.9784,0.0442,-0.7072,0.0521,0.1142,-2.38,1.365,-14.9625,2.5870525022132385,-8.717734447892378,8.971932892182584,26.352090947667648
-0.1496,0.9797,0.0465,-0.7082,0.0529,0.1198,-2.5638,1.4787,-15.1375,2.7170529320018164,-8.680849953171418,9.383612044170786,26.354610822650702
-0.1523,0.9792,0.0454,-0.7065,0.053,0.1074,-2.9838,1.3212,-15.015,2.6547579995245902,-8.804020986762794,8.434504609541815,26.357109462732218
-0.1493,0.9791,0.0461,-0.7065,0.053,0.1074,-2.415,1.4088,-14.7613,2.6956117360439804,-8.68707126617033,8.42867908031915,26.359649864786764
-0.1483,0.9788,0.0506,-0.7074,0.0517,0.1133,-2.6163,1.2775,-14.4637,2.9585842154820954,-8.619088361720745,8.86842232770181,26.36217823373044
-0.15,0.9798,0.0485,-0.7074,0.0517,0.1133,-2.8525,1.0675,-14.35,2.8341732286967263,-8.680581683821616,8.880041111835766,26.364686429517647
-0.1512,0.9782,0.0498,-0.7082,0.0505,0.1077,-3.0013,0.9625,-14.6912,2.9141767187922034,-8.759294512371264,8.43036414404722,26.3672420499183
-0.1503,0.9779,0.0446,-0.7089,0.0532,0.1128,-2.5113,0.8487,-15.1988,2.61218379464335,-8.73395027793945,8.832637096256713,26.369782451972846
-0.1464,0.9792,0.0458,-0.7089,0.0532,0.1128,-2.8087,1.2512,-14.6912,2.6777517147129815,-8.537124655194559,8.824900308811603,26.37229277125021
-0.1468,0.9798,0.0417,-0.7064,0.0539,0.1146,-2.5725,1.5312,-14.875,2.4376975486188424,-8.517916745931139,9.01390472986351,26.374807337507878
-0.152,0.9798,0.0434,-0.7064,0.0539,0.1146,-2.9313,1.4612,-15.0587,2.535967296733733,-8.755368168709273,9.008744169878616,26.376804126082938
-0.1499,0.9779,0.0473,-0.707,0.0542,0.1146,-3.0713,1.4787,-14.875,2.7685222116335617,-8.71431297723904,8.978645301593533,26.37806370965944
-0.1498,0.9766,0.0432,-0.707,0.0542,0.1146,-2.8438,1.1112,-14.7175,2.533496491205946,-8.712570901617374,8.998924878999423,26.37928046951783
-0.15,0.976,0.0439,-0.7079,0.0493,0.1142,-2.415,1.3737,-14.9625,2.5752823648800747,-8.725703696298702,8.979525901994885,26.38049227456586
-0.1501,0.9822,0.0436,-0.7072,0.0524,0.113,-2.5288,1.61,-14.77,2.5417937459441933,-8.689006642281337,8.878999665068235,26.38169275433307
-0.1498,0.9783,0.0411,-0.7072,0.0524,0.113,-2.3625,1.1812,-14.77,2.4060581586274714,-8.696501838332297,8.890344212712773,26.383057804587235
-0.1506,0.9773,0.044,-0.7084,0.0509,0.1131,-2.0475,1.0325,-14.8575,2.57734759783609,-8.742040739584636,8.87811494601852,26.38433862306528
-0.1494,0.9791,0.0484,-0.7084,0.0509,0.1131,-2.8788,1.2775,-14.9275,2.829296494891863,-8.679177378427779,8.856742026863412,26.385548658538184
-0.1488,0.978,0.0459,-0.7062,0.0532,0.111,-3.5088,1.3125,-14.42,2.68746419885799,-8.648475058921509,8.716362256146471,26.386754800945802
-0.1488,0.9803,0.0421,-0.7064,0.0526,0.1139,-3.5088,0.9187,-14.2012,2.459759177659749,-8.627498454135845,8.964744289229882,26.387965544248758
-0.1488,0.979,0.046,-0.7064,0.0526,0.1139,-2.1788,1.1287,-15.0237,2.689515271459028,-8.63200564961301,8.945801811348534,26.38929095602004
-0.148,0.9773,0.0446,-0.7094,0.0531,0.1134,-2.52,1.365,-15.1025,2.6131488334209965,-8.607887931620297,8.8731498271993,26.390607519915683
-0.1489,0.9755,0.0478,-0.7094,0.0531,0.1134,-3.0975,1.575,-14.7437,2.804737899035443,-8.656870127674315,8.857671870302177,26.391873120047624
-0.15,0.9794,0.0437,-0.7048,0.051,0.1148,-2.7213,0.945,-15.1025,2.555497631532705,-8.691801251527643,9.057265580155233,26.393080678115346
-0.1511,0.9797,0.0475,-0.7086,0.052,0.1128,-2.66,1.26,-15.1988,2.7751487326498947,-8.745761694969493,8.830003406524746,26.394295314483582
-0.1479,0.9813,0.0412,-0.7086,0.052,0.1128,-2.7475,1.19,-14.8225,2.4052017050733854,-8.595883006190304,8.858250641016811,26.395503934296382
-0.1496,0.9756,0.0433,-0.7074,0.0545,0.1144,-2.9138,1.2163,-14.7875,2.5409046726035798,-8.689241689970299,8.975798440046995,26.396714677599338
-0.1515,0.9789,0.0517,-0.7074,0.0545,0.1144,-2.5375,1.0937,-14.7525,3.0218766602463867,-8.768772493430701,8.935097698497596,26.39791551128157
-0.1485,0.978,0.0452,-0.7058,0.0528,0.1153,-2.5288,1.2512,-15.5487,2.647198925263814,-8.65060537830237,9.06608550864008,26.39913014764981
-0.1501,0.9809,0.0429,-0.7069,0.052,0.1152,-2.3625,1.0675,-15.5837,2.5046563997847833,-8.684724144618698,9.061456202430675,26.400343368357944
-0.1501,0.9759,0.0463,-0.7069,0.052,0.1152,-1.96,1.0062,-15.0937,2.7156751462145072,-8.725774923972745,9.04442360956358,26.401551988170745
-0.1498,0.9792,0.0518,-0.7068,0.0526,0.1142,-2.9225,0.9625,-14.7175,3.0272636248819786,-8.692637483296085,8.93678209217407,26.40274786704262
-0.1502,0.9784,0.0417,-0.7068,0.0526,0.1142,-2.59,1.085,-14.5775,2.442153290744048,-8.715142515885093,8.986200764232105,26.403957548600495
-0.1494,0.9808,0.0418,-0.708,0.0516,0.1112,-2.87,1.2163,-14.6125,2.440375283014038,-8.664270496998645,8.73968736626067,26.405171477138683
-0.1463,0.9763,0.0447,-0.7058,0.0516,0.112,-3.0275,1.4,-14.4812,2.620952943869092,-8.541389253818426,8.812971935553275,26.406374080396045
-0.1463,0.9794,0.0442,-0.7058,0.0516,0.112,-2.45,1.3212,-14.6212,2.5840902675174635,-8.497157967984425,8.815810865701433,26.40774090022534
-0.149,0.9791,0.045,-0.7065,0.0502,0.1138,-2.5988,0.8225,-14.9012,2.6313619026116957,-8.619499752859996,8.954787798101796,26.408979248900298
-0.1502,0.9771,0.0501,-0.7065,0.0502,0.1138,-2.94,1.3212,-15.4612,2.934368493758793,-8.708162191356204,8.93138734098071,26.4101892843732
-0.1512,0.9809,0.0479,-0.7063,0.0528,0.1154,-2.31,1.54,-15.085,2.7960766214438255,-8.744178882590903,9.056553198271766,26.411403212911388
-0.1516,0.98,0.0483,-0.7063,0.0526,0.1136,-2.7825,1.1287,-14.6912,2.8215085448420596,-8.776282147199176,8.914054172528829,26.412618557109674
-0.1469,0.9787,0.0427,-0.7052,0.0526,0.1136,-3.1675,0.7962,-14.455,2.4991010830790943,-8.569320016840198,8.95174991310342,26.413821514282063
-0.1498,0.9786,0.0458,-0.7064,0.0518,0.1134,-3.1588,1.1112,-14.315,2.6790680104611084,-8.671929117552358,8.912348997265958,26.415012792258604
-0.1476,0.9791,0.0494,-0.7064,0.0518,0.1134,-2.3888,1.1025,-14.9012,2.887792476638601,-8.581270450965699,8.893677523597331,26.416362624166663
-0.1524,0.9762,0.0492,-0.7063,0.0525,0.113,-2.6075,0.945,-15.0062,2.8852450087220762,-8.814361113663852,8.862730014670202,26.417592832796032
-0.1534,0.9775,0.0429,-0.7063,0.0525,0.113,-2.4325,1.3737,-15.4525,2.514000246889422,-8.892720380848893,8.894301571100183,26.418797913458576
-0.1492,0.9768,0.0474,-0.7058,0.0549,0.1166,-2.6863,1.0937,-15.5837,2.77740143286292,-8.712448566042013,9.14590910539621,26.420013965486916
-0.1477,0.9784,0.0461,-0.7068,0.0513,0.1137,-2.9838,0.6212,-15.33,2.6978771140700295,-8.597321327061492,8.931250722116904,26.421275672553573
-0.1499,0.9811,0.0433,-0.7068,0.0513,0.1137,-2.8525,1.3037,-14.9537,2.5275403372594227,-8.663886184287616,8.946122707629339,26.422479337556013
-0.1518,0.9791,0.045,-0.7051,0.0517,0.1146,-2.6075,0.9538,-14.8312,2.63120291609758,-8.780027811451374,9.028851608430545,26.423730427171897
-0.1471,0.9769,0.0477,-0.7051,0.0517,0.1146,-2.2838,1.295,-14.945,2.794952622998795,-8.594119953274818,9.012629661560698,26.425020801355636
-0.1483,0.9765,0.0447,-0.7054,0.0538,0.112,-2.2138,1.3212,-15.1637,2.6214152020709505,-8.620675579630733,8.807231651920189,26.42623331423372
-0.1502,0.9786,0.0464,-0.7087,0.0518,0.1138,-2.4413,1.225,-14.9888,2.714365695804999,-8.699226215638614,8.91297557885927,26.4274320244258
-0.1483,0.978,0.0431,-0.7087,0.0518,0.1138,-2.5025,1.19,-14.6912,2.5239021528666004,-8.629258136073872,8.927605114004246,26.428669665270707
-0.1471,0.9806,0.0462,-0.7082,0.0542,0.1135,-2.3975,1.2163,-15.155,2.6969517604755535,-8.54112303543102,8.881615006455162,26.42988217814879
-0.1501,0.9781,0.0481,-0.7082,0.0542,0.1135,-2.59,1.4,-15.1637,2.8150321981506647,-8.682348703602205,8.873444817226842,26.431081596170923
-0.1482,0.9772,0.0434,-0.7068,0.0529,0.1142,-2.6425,1.0412,-15.2163,2.5437487540585164,-8.626858506736216,8.974915737601048,26.432297294284236
-0.1522,0.9792,0.0381,-0.7066,0.0525,0.1124,-3.0188,0.6737,-14.7613,2.229103566709733,-8.7956527660625,8.8659206206556,26.433509453247293
-0.1473,0.9794,0.0478,-0.7066,0.0525,0.1124,-3.0625,0.91,-14.9975,2.7925353020095693,-8.585722092613365,8.815969304883676,26.434712056504658
-0.1486,0.9778,0.0447,-0.7064,0.0499,0.1141,-3.1238,1.2075,-15.1637,2.617939732855943,-8.624145782652867,8.98232531671937,26.435917491082225
-0.1508,0.9775,0.0428,-0.7064,0.0499,0.1141,-2.94,0.8663,-15.2075,2.507415785121223,-8.738621790825363,8.992690904147818,26.437125403064975
-0.1494,0.9762,0.0477,-0.7061,0.053,0.1114,-2.94,1.085,-15.295,2.796599115334493,-8.699255219119705,8.741591941232087,26.43832234368193
-0.1491,0.9779,0.0459,-0.7071,0.0525,0.1162,-2.94,1.295,-14.6387,2.687645150536275,-8.666852729082484,9.119213961937088,26.439527778259496
-0.1477,0.9798,0.0443,-0.7071,0.0525,0.1162,-2.9575,0.8225,-14.2187,2.589046963393482,-8.581027834765296,9.126647482718253,26.440738875477475
-0.1465,0.9777,0.0483,-0.7099,0.0551,0.1143,-2.87,0.9887,-14.5513,2.8275343043297454,-8.523529080376104,8.907450166414739,26.441948557035353
-0.1504,0.9778,0.05,-0.7099,0.0551,0.1143,-3.115,1.47,-14.665,2.9270007503163975,-8.694060464387473,8.900894074859877,26.443163901233643
-0.1501,0.9751,0.044,-0.7069,0.0533,0.1115,-2.7738,0.8575,-14.9888,2.584603700961793,-8.734191602818552,8.756629157968218,26.444437995326197
-0.148,0.9791,0.0456,-0.7056,0.0521,0.1079,-2.87,0.805,-15.0587,2.6663009652242673,-8.611046487307888,8.485530811101167,26.44566714221049
-0.1451,0.98,0.0467,-0.7056,0.0521,0.1079,-2.625,1.3562,-15.2163,2.728081231688423,-8.448919534212628,8.478554814456546,26.44687257678806
-0.152,0.9789,0.0431,-0.7065,0.0539,0.1128,-2.7913,1.1462,-15.2862,2.521630699963144,-8.752895443794571,8.866592153363074,26.44806880957496
-0.1478,0.9792,0.0459,-0.7065,0.0539,0.1128,-3.0538,0.9363,-15.015,2.683318737350923,-8.604458924006698,8.850492597894826,26.44929052424371
-0.1479,0.9751,0.0513,-0.7058,0.0534,0.1117,-3.2288,1.1287,-15.0062,3.010629483129597,-8.611474761587061,8.747526795700226,26.450490296180867
-0.1499,0.9764,0.0432,-0.7058,0.0538,0.1129,-3.4738,1.1287,-14.84,2.534696659932261,-8.700705920594533,8.881652643674673,26.45168298981751
-0.1523,0.9801,0.044,-0.7072,0.0538,0.1129,-2.7475,0.7788,-14.7,2.5703745426301188,-8.803572500200639,8.862642542681392,26.452890547885236
-0.1487,0.9807,0.0461,-0.7064,0.0522,0.114,-2.5025,1.2862,-14.7087,2.690995313145812,-8.646970767978784,8.9555321425201,26.454143760991276
-0.1493,0.9739,0.0454,-0.7064,0.0522,0.114,-2.3975,1.1025,-15.7762,2.6690694652983322,-8.69598074402093,8.95845644291693,26.455395204522183
-0.1492,0.9806,0.0415,-0.7074,0.0532,0.1124,-3.15,1.2163,-14.6825,2.4240619768890452,-8.6529955432036,8.834480272423468,26.456658327248945
-0.1466,0.9725,0.0473,-0.7074,0.0532,0.1124,-3.08,1.4262,-14.4725,2.783516233422009,-8.579296337138867,8.803300900736712,26.45787154795708
-0.1493,0.9844,0.05,-0.7062,0.051,0.1123,-2.8875,1.2425,-14.8225,2.907339772088498,-8.607100171501758,8.812884730255078,26.45906848857403
-0.1474,0.978,0.0445,-0.7081,0.0536,0.1126,-2.8087,0.8838,-14.63,2.6060694992882074,-8.569701130650962,8.823453430908263,26.460261182210672
-0.1483,0.9777,0.0481,-0.7081,0.0536,0.1126,-2.4237,1.12,-14.63,2.8159237274765796,-8.606869566110365,8.806133272917346,26.461480773389273
-0.1686,0.9661,0.0393,-0.7069,0.055,0.1131,-2.345,1.3212,-14.5687,2.330818391000675,-9.658188408869806,8.909189981464708,26.462693994097407
-0.1665,0.9748,0.0056,-0.7069,0.055,0.1131,-2.9838,1.6625,-14.0612,0.3347807633766758,-9.685997517618123,9.073841803316153,26.46388987296928
-0.1697,0.9797,0.0493,-0.707,0.0533,0.115,-4.0862,6.2125,-13.4225,2.873593479364995,-9.72160754260275,9.019317039427445,26.4650960153769
-0.1723,0.9431,0.0185,-0.7077,0.0538,0.1149,-4.41,6.265,-8.9425,1.1287234685370446,-9.912348826690515,9.155235253396027,26.466294371653955
-0.1,1.0293,0.0481,-0.7077,0.0538,0.1149,-0.9363,4.4975,-11.8562,2.6712021519037097,-7.415715747456281,8.9839468896411,26.467496974911317
-0.0997,0.9795,0.0615,-0.7085,0.0536,0.1136,-2.24,2.73,-11.4625,3.590133698585078,-6.19445092002304,8.79616171580625,26.468692853783192
-0.129,0.9991,0.0464,-0.7085,0.0536,0.1136,-3.78,2.6775,-14.105,2.661634812130458,-7.071219090935549,8.882327540070193,26.470053657057047
-0.1599,0.9597,0.0389,-0.7104,0.055,0.1123,-2.9663,2.9138,-14.9012,2.3220861218606212,-8.844025849900516,8.79886974802104,26.471288112666727
-0.1432,0.9762,0.051,-0.7092,0.0539,0.1158,-2.38,2.6075,-14.7087,2.988728798829524,-8.454817135397887,9.024690517452909,26.472489300263984
-0.1357,0.9687,0.0322,-0.7092,0.0539,0.1158,-2.0825,3.8675,-12.39,1.9068806388483917,-8.133627170842614,9.112945653045395,26.473688364371093
-0.1674,0.9773,0.076,-0.7084,0.0544,0.1153,-1.3125,6.1338,-12.1975,4.439558195950177,-8.495886201285709,8.878103774575774,26.474881058007735
-0.1401,0.99,0.0747,-0.7084,0.0544,0.1153,-1.9075,4.935,-12.5738,4.315399661093181,-8.276799911277905,8.873159002901408,26.476075875134534
-0.0885,0.9953,0.0412,-0.7077,0.0536,0.1191,-2.17,6.02,-11.725,2.375841459972169,-7.767479429465428,9.338825896514702,26.477264675705893
-0.1049,0.9926,0.0578,-0.711,0.0542,0.1175,-2.5988,6.405,-13.5362,3.329932106489302,-7.130958189729749,9.09008440567465,26.4784761268389
-0.1585,0.9672,0.015,-0.711,0.0542,0.1175,-3.0013,4.8213,-17.9638,0.8953823245678497,-8.223330792042722,9.320543542790592,26.479804369930388
-0.1465,0.9517,0.0353,-0.71,0.0554,0.1156,-2.4588,0.3938,-15.4787,2.1207605163770937,-8.664140534669384,9.069758377980195,26.481135444342083
-0.1304,1.0113,0.0514,-0.71,0.0554,0.1156,-0.5862,-1.365,-15.6363,2.9073875263315343,-7.499789520004752,8.989765668874577,26.482480321439784
-0.1612,0.9552,0.0479,-0.7096,0.0543,0.1108,-0.8925,0.7788,-13.7725,2.870884264350122,-9.225592467090687,8.648724153250814,26.483681155122017
-0.177,0.9454,0.0515,-0.71,0.0545,0.1153,0.0875,1.7325,-11.8737,3.1173757957964066,-10.321524517716117,8.98877245419172,26.48485756866748
-0.1884,0.995,0.0402,-0.71,0.0545,0.1153,1.0937,1.33,-9.1087,2.3158427856756325,-10.642077003178004,9.060887419535247,26.486021241272013
-0.2167,0.9457,0.0417,-0.7118,0.0554,0.1146,2.5113,1.4787,-5.8187,2.5242039831208656,-12.473220843607866,9.001497937298415,26.487183498216446
-0.2104,1.011,0.0309,-0.7118,0.0554,0.1146,3.4038,0.6563,-5.1887,1.7527703256254288,-11.867746478697883,9.045667851949942,26.48833903077539
-0.1377,1.0157,0.0432,-0.7165,0.0565,0.1105,3.7275,1.1638,-3.1937,2.4335645121537084,-8.446749610757763,8.551829105841913,26.48949633290946
-0.0727,0.9906,0.0332,-0.7165,0.0565,0.1105,2.4413,2.485,-0.0525,1.9209767789447179,-5.173425085073861,8.585148777901754,26.49065540461866
-0.0266,0.9445,0.0074,-0.7181,0.0575,0.1098,1.8987,7.2537,3.0363,0.45298050159385944,-3.0825153240646035,8.641868624620637,26.49179748840663
-0.0173,0.9917,-0.0097,-0.7231,0.059,0.1109,2.9838,9.9137,3.9813,-0.5575977683040426,-1.4091909545800825,8.75282421904304,26.492963284501318
0.017,1.0461,0.0303,-0.7231,0.059,0.1109,5.6175,13.86,2.4675,1.6530015897518522,0.6714954484790234,8.596526650035713,26.494109615269593
0.0155,1.0604,0.0332,-0.7259,0.0606,0.1132,3.9988,21.525,5.2238,1.7928971254062411,0.8271142511978323,8.725015689661971,26.495252760802636
-0.1022,1.0596,0.0423,-0.7259,0.0606,0.1132,1.295,21.49,8.0762,2.284703686634456,-5.124777222161211,8.636401289354225,26.49642492736779
-0.1072,0.9967,0.0163,-0.7297,0.0634,0.1173,2.835,19.3463,9.2487,0.9406618273838177,-6.068225786689085,9.017374858301563,26.49758541473709
-0.1203,1.0004,0.0106,-0.7297,0.0634,0.1173,4.5062,15.435,12.3987,0.6079891729742071,-6.782273028601368,9.049810864507087,26.49875651955717
-0.0415,0.9701,0.0758,-0.7337,0.0687,0.1196,4.34,11.4187,20.2825,4.457157626912021,-3.1009281965983493,8.791967249465785,26.499932579187604
-0.1416,0.9595,0.0498,-0.7381,0.0713,0.1139,6.02,13.4925,24.7887,2.975180372579619,-7.7739070349368795,8.442780183309772,26.501157833006612
-0.0765,0.8623,0.1177,-0.7381,0.0713,0.1139,12.7575,10.7887,15.8375,7.759649830816779,-5.485094252978993,7.910861033015213,26.502390872956184
-0.0144,0.9124,0.0792,-0.7491,0.0758,0.1116,14.0437,8.4263,26.8537,4.968585262060145,-2.175781795881376,7.938010311436962,26.50358922923324
0.0045,0.9065,0.0584,-0.7491,0.0758,0.1116,19.9937,10.535,30.9925,3.689496944793065,-0.14735227066385717,8.095613843974675,26.50477165933414
-0.0838,1.0128,0.0235,-0.7595,0.0837,0.1122,23.4237,6.965,42.4725,1.3353787520937905,-2.5821468588150593,8.20949036566774,26.505965768630883
-0.2569,0.9001,0.0812,-0.7693,0.0881,0.1085,24.29,8.3737,49.1138,5.1448417239231246,-12.118288158273137,7.442848495025983,26.50716837188825
-0.4056,0.8242,-0.0402,-0.7693,0.0881,0.1085,24.1588,3.4038,28.7787,-2.7716112297901283,-22.0734563953415,8.809451378422706,26.508375222125917
-0.3081,1.11,-0.0441,-0.7716,0.0892,0.103,24.2375,2.3625,7.5075,-2.276447063208035,-16.972164475589345,7.9103135001576925,26.509560129631996
-0.0842,1.195,-0.0242,-0.7716,0.0892,0.103,18.1562,0.1663,3.64,-1.1631061551632726,-5.971636879199077,7.692231290044488,26.510767333784692
-0.0719,1.1043,-0.0167,-0.7795,0.0943,0.1016,8.8375,6.3088,18.1737,-0.8672091127976798,-5.244882861963951,7.486819029768975,26.511954364780927
-0.061,1.0926,-0.0306,-0.7795,0.0943,0.1016,0.8225,7.7613,15.785,-1.602187759578484,-3.8939903202490744,7.576553951098065,26.51314918190772
-0.1009,0.9795,0.0075,-0.7863,0.0986,0.0999,-6.1163,9.3275,20.1163,0.4329084863868446,-5.4393007209964255,7.1323784209558925,26.51434966167493
-0.1216,0.9423,-0.0034,-0.7943,0.1031,0.101,-11.1825,4.2088,19.2413,-0.20489061921966295,-6.62317391009341,7.21347191750024,26.515583763369584
0.0841,1.0534,0.1151,-0.7943,0.1031,0.101,0.735,-17.815,7.0875,6.217761257444891,4.084877678922114,6.501281833492216,26.51675451427463
0.149,1.0826,0.1837,-0.7998,0.1062,0.099,4.585,-25.7337,10.8937,9.621048502783324,7.615528897167788,5.872850491756971,26.517952870551685
0.0895,0.9932,0.1254,-0.7998,0.1062,0.099,4.1038,-28.98,13.5362,7.20269746119675,5.178829883142711,6.164903222720288,26.519150872913716
0.0248,0.8284,0.0195,-0.8059,0.1073,0.0937,6.3875,-29.4612,14.0963,1.3645090982800465,1.8097532543019867,6.481636322862398,26.52032940994933
-0.0243,0.8164,-0.026,-0.8118,0.1105,0.0835,12.6787,-31.1325,10.1325,-1.8154948461539255,-1.6114741851160959,6.094307525897811,26.521550770703055
-0.0544,0.9305,-0.0133,-0.8118,0.1105,0.0835,14.3675,-34.4137,12.5825,-0.8215693928209006,-3.303500864899972,5.946124779904577,26.52278133324745
0.1649,1.4009,-0.0287,-0.817,0.1147,0.078,11.2087,-35.2625,12.5825,-1.1726919026110803,6.474064396569217,5.747294780870483,26.524004463576304
0.1016,0.9768,-0.2096,-0.817,0.1147,0.078,-2.4325,-31.5788,7.2188,-12.080043404855282,5.824280722837626,7.119805351580209,26.525204235513463
0.1335,1.0129,-0.1332,-0.8233,0.1198,0.0756,-10.255,-28.2275,9.0562,-7.504797431032387,7.398698486548742,6.441917838659113,26.526432320652678
0.1676,1.0075,-0.1297,-0.8308,0.1193,0.0737,-17.2725,-27.125,4.9,-7.336093487528911,9.31085084504812,6.2851998639838635,26.527655097066503
0.107,0.9166,-0.0531,-0.8308,0.1193,0.0737,-20.3175,-24.6837,3.4388,-3.3274195485535634,6.731804738130099,5.6609863504211475,26.528866902114537
0.0116,0.8618,-0.0418,-0.8321,0.1216,0.0724,-19.7138,-24.9288,0.3063,-2.7784746795571285,0.9579696618379857,5.380111075539427,26.530096402913852
0.0387,0.8815,-0.0671,-0.8321,0.1216,0.0724,-15.4,-25.0075,-1.96,-4.3483828669133,2.4579284836957416,5.627787278601838,26.531403411103803
0.0758,0.9933,-0.0354,-0.8322,0.123,0.067,-6.7288,-23.0387,-3.7013,-2.047650538211782,4.297382477070395,4.968768497651414,26.53274899603155
0.0939,1.0622,-0.037,-0.8384,0.125,0.0668,-8.0937,-17.6575,-1.925,-1.9951485041050245,5.018163135515775,4.9302899777087426,26.533975311595636
0.0942,0.9551,-0.0403,-0.8384,0.125,0.0668,-7.2713,-12.7837,-1.4088,-2.4149362741396265,5.596718272265483,5.0041435155085034,26.535213660270596
0.0942,1.0982,-0.0196,-0.8387,0.1283,0.0658,-6.7813,-8.4787,0.4112,-1.0264326036252558,4.9472542818323895,4.718849744976976,26.53640316867201
0.0171,1.2309,-0.0495,-0.8387,0.1283,0.0658,-7.6475,-5.95,3.8588,-2.2992387936834646,1.1201379804700666,4.842590169611467,26.537591615328342
-0.1175,1.0432,0.028,-0.8461,0.1318,0.0667,-5.1975,-4.4888,20.3612,1.5266121284624006,-5.757605246704651,4.2203133079417015,26.53879881948104
0.1667,1.0577,-0.0666,-0.8531,0.1374,0.0672,-5.5388,-5.355,26.74,-3.588434997612587,7.73301570365736,5.26055156189427,26.540022657639945
0.0381,0.9762,0.0292,-0.8531,0.1374,0.0672,-9.1437,-0.2538,30.415,1.698130710746273,3.0102535520692046,4.258557526813937,26.541206857315974
0.2621,0.9943,-0.121,-0.8598,0.1413,0.0655,-10.0712,0.0263,23.6425,-6.913614842049655,12.95124980250882,5.870146899565029,26.54240415184795
0.2142,0.894,-0.0361,-0.8598,0.1413,0.0655,-8.5925,0.9975,19.6963,-2.325522482435722,13.375554135981435,5.058118314965258,26.543596845484593
0.1715,0.911,-0.0129,-0.863,0.1474,0.0687,-6.8075,3.8413,20.02,-0.8155771191564557,11.568644575161178,4.92736580545035,26.54477998341554
0.128,1.0022,0.0327,-0.8702,0.1526,0.0641,-5.5475,1.2512,16.5287,1.8611865074433736,8.044150664151823,4.0072262537794385,26.545940470784846
0.0944,0.9443,0.0232,-0.8702,0.1526,0.0641,-8.89,-0.3675,18.3925,1.4086848813126787,6.031754404323961,4.05732560144187,26.547145197532362
0.1311,0.8416,-0.0265,-0.8734,0.1538,0.0654,-11.1825,-5.39,13.9737,-1.7942593497787787,8.61916517431691,4.77912645036653,26.548442650016618
0.1602,0.8825,0.0247,-0.8734,0.1538,0.0654,-9.835,-9.3975,0.6475,1.5934643459243316,10.182261795658333,4.200607763529725,26.549624018372437
0.177,0.9612,0.0289,-0.8766,0.1582,0.0666,-9.5725,-13.65,-5.5475,1.7218004479212365,10.41716633358439,4.243350840015245,26.550834761675393
0.2245,0.9933,0.002,-0.8766,0.1582,0.0666,-13.0987,-17.2725,-9.1,0.12001790047018822,12.639470726918557,4.6202495564233175,26.552060369409425
0.1807,0.9737,0.0,-0.8761,0.1595,0.0645,-14.525,-19.81,-15.0762,0.00034911261673584816,10.593195293522797,4.431527375651516,26.553315352090593
0.1628,0.9837,0.0279,-0.8766,0.1566,0.06,-16.1437,-26.1275,-20.4312,1.6198578303318023,9.429830927214946,3.7874183165249624,26.55454803812514
0.2364,0.9882,-0.0777,-0.8766,0.1566,0.06,-17.5963,-30.5725,-24.15,-4.4778421612382795,13.307213014860293,5.0383249140552175,26.55583628881873
0.1529,1.0095,-0.0673,-0.8722,0.1539,0.0589,-16.3013,-33.7837,-27.6063,-3.8160156539979475,8.709883328868141,4.696331115871274,26.557089501924768
0.1255,1.0266,-0.0999,-0.8722,0.1525,0.0539,-14.875,-38.0013,-32.585,-5.552966683495564,6.976814606444841,4.612094258181166,26.558338821965524
0.1469,1.0352,-0.0829,-0.8707,0.1525,0.0539,-11.8387,-43.155,-36.4087,-4.581353328419484,8.029700476499041,4.478397289884528,26.559591327241513
0.1699,1.0045,-0.1224,-0.8656,0.1471,0.0454,-10.8937,-47.1275,-39.4362,-6.940526749994261,9.503075537127637,4.329097911847444,26.56084064728227
0.148,1.0178,-0.1135,-0.8656,0.1471,0.0454,-7.0963,-48.7375,-51.24,-6.36469573762764,8.246250563389859,4.199659269672665,26.56206979416656
0.1663,1.0419,-0.1172,-0.8578,0.141,0.0383,4.865,-51.4588,-54.3375,-6.417893159192299,8.999565001974153,3.7286964931298034,26.563304603691265
0.0129,0.9526,0.217,-0.1698,0.1545,0.0654,-5.495,0.2013,-15.015,12.77829501281503,1.9998838982774219,9.961846612306106,26.56634933465745
0.0196,0.9483,0.2165,-0.1698,0.1524,0.0669,-4.69,0.1312,-14.9625,12.86016754227222,1.2805665285528305,10.648327506237333,26.56761387304431
0.0206,0.9457,0.217,-0.1698,0.1524,0.0669,-4.5413,0.4112,-14.3675,12.923178653485927,1.2262831499608158,10.600365516968301,26.568794533570077
0.0192,0.9444,0.2221,-0.1697,0.1542,0.0637,-4.8738,0.3588,-13.65,13.23321509388119,1.1480572835595164,9.118790064621344,26.56997165494559
0.0172,0.9454,0.2204,-0.1713,0.153,0.0678,-4.7775,0.7263,-13.2737,13.123221872251499,1.0368590795912525,10.528124191333074,26.571157624196747
0.0187,0.9456,0.2267,-0.1713,0.153,0.0678,-4.4975,0.91,-12.3375,13.480739870955434,1.0907581225015026,10.205277655282647,26.572343239532874
0.0205,0.9389,0.2213,-0.1679,0.1549,0.0666,-3.3075,1.12,-12.5037,13.263241143195671,1.195265445121451,10.10512424227142,26.573517175673157
0.0217,0.9355,0.2248,-0.1679,0.1549,0.0666,-3.3163,1.0762,-11.865,13.511246519509829,1.2752197467556532,9.873948447230758,26.574692173558514
0.0165,0.9334,0.2173,-0.171,0.1539,0.0722,-3.3863,1.6013,-12.5212,13.106443572893022,1.0415963839129285,11.89771770942193,26.575872480169256
0.0169,0.9371,0.22,-0.1713,0.1537,0.0718,-2.45,0.9538,-12.6262,13.211593942836776,1.011924003148914,11.669324606125912,26.57705030937482
0.0178,0.9412,0.2207,-0.1713,0.1537,0.0718,-1.4612,0.525,-13.1512,13.196783377299848,1.0480381838335986,11.693239936156779,26.578226369005254
0.0196,0.9481,0.2108,-0.1707,0.1524,0.0672,-1.155,0.315,-13.965,12.537058634466367,1.1394982148721293,10.996510676337774,26.579627164677017
0.0217,0.9606,0.2095,-0.1707,0.1524,0.0672,-1.0412,-0.1663,-14.6825,12.303805051173308,1.2465352782211632,11.234326611558137,26.5808782542929
0.027,0.9637,0.2109,-0.1714,0.1521,0.0642,-1.47,-0.7088,-14.385,12.344115856185807,1.5251486114378836,10.257155329944146,26.58244255870654
0.0329,0.9625,0.2123,-0.1714,0.1521,0.0642,-4.3575,0.175,-12.705,12.438376676058443,1.8537010172622002,10.227994330536221,26.583755937366952
0.0332,0.96,0.2172,-0.1724,0.154,0.0675,-3.6663,0.1925,-12.74,12.74765932802182,1.9201190826390484,10.814785141169367,26.585009504388015
0.0342,0.9539,0.2164,-0.1751,0.1525,0.067,-4.4012,0.315,-12.2237,12.781581679398805,1.9898532309753585,10.574514524379808,26.586208922410147
0.0371,0.9396,0.2207,-0.1751,0.1525,0.067,-5.1363,0.805,-11.9263,13.217188626947932,2.166204588852283,10.201336992852248,26.587401969961817
0.0381,0.9381,0.2231,-0.1725,0.1515,0.0682,-4.9437,1.3475,-12.46,13.377179981067872,2.245096459339564,10.681554960207958,26.58860952802954
0.0415,0.936,0.2245,-0.1725,0.1515,0.0682,-4.27,1.4,-12.8362,13.487317890585686,2.427580254687214,10.61584363686122,26.58980646864649
0.046,0.9337,0.2299,-0.1718,0.1515,0.069,-4.5062,1.8375,-12.6087,13.831502885874135,2.6764741667881005,10.642539996773081,26.59099208398262
0.0473,0.9301,0.2283,-0.1736,0.1526,0.0718,-4.4538,2.0825,-12.7137,13.791139746658521,2.7956660998286473,11.411526529215417,26.592187255024445
0.0449,0.932,0.2279,-0.1736,0.1526,0.0718,-3.535,2.3538,-13.8863,13.74092204914351,2.7053130670995946,11.430023845051274,26.59338207215124
0.0437,0.9364,0.2293,-0.1727,0.1531,0.0677,-3.4563,2.5725,-14.1837,13.759436908076397,2.621192761896328,10.081124524340622,26.594618297336048
0.0403,0.9412,0.2247,-0.1727,0.1531,0.0677,-2.8612,2.835,-13.7375,13.428267016420365,2.443987625770739,10.361737809219619,26.595859477331214
0.0386,0.9432,0.233,-0.1743,0.153,0.0686,-2.03,3.325,-14.1225,13.874791145581677,2.3233297960916865,10.116348079283364,26.597072698039348
0.0397,0.9434,0.2292,-0.1743,0.153,0.0686,-2.0825,3.5963,-13.8075,13.656114269567038,2.3359867172061746,10.33796515458078,26.598261852525734
0.0362,0.9399,0.2283,-0.1724,0.1522,0.0706,-2.17,3.1412,-14.1312,13.652649209011749,2.195583445161119,11.12878346150177,26.599443574796577
0.0337,0.9354,0.2267,-0.1738,0.1513,0.0685,-2.0213,3.2725,-14.5425,13.62339560408279,2.0587923248749544,10.435166540536642,26.608118739906786
0.0313,0.9374,0.2256,-0.1738,0.1513,0.0685,-1.435,2.9488,-15.7412,13.53204743419434,1.9107337721064164,10.494224398879963,26.620340841404662
0.0282,0.9418,0.2245,-0.1737,0.1518,0.0678,-0.5513,2.66,-16.345,13.407923300478622,1.7264723651325022,10.321289718398013,26.632665932175016
0.0251,0.9464,0.2218,-0.1737,0.1518,0.0678,-0.5163,2.5375,-16.4412,13.190502738017447,1.5367632142000367,10.490803370541089,26.641864183693222
0.0231,0.9527,0.2225,-0.173,0.1528,0.0702,-1.1025,1.8637,-16.4937,13.145744564184627,1.3896674177599275,11.243290194764414,26.653805276660684
0.0245,0.9544,0.2214,-0.1739,0.1534,0.0669,-0.7437,1.6275,-15.7062,13.060604941778296,1.424244571700277,10.189228549937262,26.665967566519214
0.0236,0.9542,0.2181,-0.1739,0.1534,0.0669,-0.8575,1.2075,-15.1812,12.875358220762761,1.388845366803042,10.35333668685411,26.678081016104194
0.0201,0.9478,0.2215,-0.1738,0.1518,0.0672,-2.205,1.4612,-15.5662,13.153112922616259,1.2213548617674825,10.275968392180559,26.690204021394873
0.0233,0.9452,0.2211,-0.1738,0.1518,0.0672,-2.0563,1.0325,-14.77,13.165792372520526,1.3485027637993636,10.297937776858364,26.702336228476216
0.0228,0.9404,0.2184,-0.1721,0.1525,0.065,-2.625,1.1725,-14.7875,13.07494214183422,1.352100513777523,9.722126495250746,26.711246393163496
0.024,0.9398,0.2213,-0.1721,0.1525,0.0677,-1.75,1.155,-15.1725,13.249881989764432,1.4112792125892373,10.437433967637313,26.72339169510079
0.026,0.9406,0.2181,-0.1716,0.1546,0.0677,-1.6538,0.21,-15.505,13.055208159375708,1.522646964691731,10.521212676208545,26.735516116051567
0.0304,0.9404,0.2206,-0.171,0.1523,0.0664,-1.3737,0.2013,-15.9162,13.201389429868486,1.7604021890547872,10.211992009432,26.747650092708042
0.0249,0.9478,0.2159,-0.171,0.1523,0.0664,-1.5575,0.0788,-15.7412,12.833515534868688,1.5107291120479298,10.502362602013541,26.759783715449487
0.0265,0.948,0.2195,-0.1714,0.154,0.0661,-1.6362,0.2275,-15.8112,13.035973983336508,1.5525021588377605,10.079765994303877,26.771852925656255
0.0263,0.9508,0.2169,-0.1714,0.154,0.0661,-1.6362,0.1488,-15.6012,12.851138808452433,1.5459390297866191,10.254525368199616,26.780841305564216
0.0259,0.95,0.2212,-0.1715,0.1541,0.0656,-1.575,0.21,-15.5925,13.106609187464905,1.5247753113534466,9.829700338704889,26.792952631659045
0.0263,0.9498,0.2183,-0.1726,0.1524,0.0647,-1.8375,0.5425,-15.2425,12.944397376671624,1.5424844214690818,9.759008905772411,26.80508377699531
0.0275,0.9481,0.2198,-0.1726,0.1524,0.0647,-2.0388,0.6125,-14.9975,13.052118108688129,1.6062907643091549,9.668909931685652,26.817244297278712
0.028,0.9482,0.214,-0.1735,0.1514,0.0664,-1.68,0.1837,-15.4088,12.71898645375179,1.6433870741733132,10.55283084151487,26.82938782964088
0.0316,0.9475,0.2172,-0.1735,0.1514,0.0664,-1.4787,0.7175,-15.6538,12.910580685783408,1.8261561077484572,10.411510278601824,26.83826224891056
0.0333,0.9467,0.2204,-0.1715,0.1528,0.0747,-1.9337,-0.1312,-16.6338,13.104965006089705,1.9425810915151116,12.948160950664894,26.850440464945247
0.0308,0.952,0.2137,-0.171,0.1523,0.0696,-1.75,0.8838,-16.9137,12.653009096046588,1.830695256728277,11.77649805737002,26.862575503346797
0.0257,0.955,0.2131,-0.171,0.1523,0.0696,-2.3712,0.6737,-17.22,12.579190447575433,1.557504856746981,11.782769620449423,26.87473177664989
0.0209,0.9537,0.2156,-0.1705,0.1527,0.0649,-1.855,0.6913,-17.0625,12.738106288353,1.278761646160602,10.064415373684458,26.886872477691853
0.0163,0.9449,0.211,-0.1705,0.1527,0.0649,-2.3187,0.7875,-16.3013,12.588283657561115,1.0165293247291558,10.160843658420585,26.899002207368017
0.0151,0.9409,0.217,-0.1697,0.1528,0.0657,-2.7825,0.525,-16.135,12.985934393816683,0.9150436541901844,10.070783582318208,26.907896091964112
0.0179,0.9443,0.2151,-0.1697,0.1528,0.0657,-1.26,-0.0788,-15.5837,12.83275404968717,1.0380312931094797,10.245723323718531,26.920071830593617
0.0201,0.9462,0.2103,-0.1752,0.1515,0.0689,-1.0675,0.2625,-15.6187,12.531576601143732,1.165137014263969,11.319343395467818,26.932217840360966
0.0273,0.9492,0.2124,-0.1702,0.1517,0.0671,-1.5137,-0.0263,-15.2862,12.612916456095885,1.5431551576782723,11.057218228357778,26.944339429991537
0.0256,0.9547,0.2056,-0.1702,0.1517,0.0671,-1.7062,0.105,-15.0587,12.154642169770757,1.5077716766554348,11.469589134405139,26.9565049050853
0.0276,0.9541,0.207,-0.1703,0.1535,0.0665,-1.6712,0.4812,-15.3125,12.240844372490141,1.6017564413860401,11.084861498337107,26.968622955565614
0.0236,0.9572,0.2117,-0.1703,0.1535,0.0665,-1.8375,0.9625,-15.5837,12.470474186931161,1.41699625136588,10.820106214025325,26.977569219585515
0.0203,0.9555,0.2094,-0.1693,0.1534,0.0709,-2.3363,1.2687,-15.645,12.361388922014033,1.229896126541385,12.3843000188774,26.98967736044511
0.0192,0.9519,0.2086,-0.1671,0.1538,0.0654,-2.3975,0.9363,-15.8287,12.360449523737195,1.1458951377714808,10.702826198900214,27.001814522336815
0.0171,0.9508,0.2084,-0.1671,0.1538,0.0654,-2.4763,0.8838,-15.4,12.362800848586682,1.0299050078236547,10.676693894577351,27.013950622483442
0.0234,0.9518,0.2081,-0.1714,0.1525,0.0646,-2.7388,0.7788,-15.435,12.333067113933572,1.3186828643632973,10.33564005815526,27.026130608093258
0.0229,0.9499,0.2059,-0.1714,0.1525,0.0646,-2.7738,0.4638,-15.715,12.230501034013677,1.3448086274543616,10.427276524196051,27.03821928362644
0.0216,0.9484,0.2059,-0.1698,0.1538,0.0621,-2.38,1.1725,-15.8725,12.248919699548084,1.2873422753479338,9.586779827209385,27.047101135111664
0.0249,0.9479,0.2127,-0.1698,0.1538,0.0621,-2.6425,0.8138,-15.3825,12.646034509537918,1.438175221125094,9.23596461941799,27.059258470159833
0.0245,0.9459,0.2154,-0.1694,0.1525,0.0628,-2.7388,0.7525,-15.645,12.828098338963656,1.4452822100360376,9.405529748516921,27.071383598940663
0.0234,0.9463,0.209,-0.1706,0.1529,0.0656,-2.2488,0.4638,-16.03,12.455469626360488,1.392946079163328,10.56671791963722,27.08355190535463
0.0248,0.9462,0.2148,-0.1706,0.1529,0.0656,-2.5813,0.5862,-15.8638,12.789191349739633,1.4527455646891034,10.263483279837795,27.095626778201808
0.0277,0.9452,0.2125,-0.1686,0.1547,0.0652,-2.8963,0.6913,-15.6887,12.670908417610079,1.6076338156500611,10.269666195700824,27.107745536512176
0.025,0.9455,0.2079,-0.1686,0.1547,0.0652,-1.9075,0.9625,-16.2575,12.40181743590093,1.5011564552116239,10.502735559948002,27.116672689120687
0.0251,0.9459,0.2114,-0.1706,0.1548,0.0674,-1.9162,1.2775,-16.2138,12.597505181278533,1.4866307554935607,10.89936470551723,27.12883250157404
0.0262,0.9453,0.2123,-0.1688,0.1532,0.0657,-2.765,1.2337,-15.5837,12.657568497023036,1.537891046163098,10.52732097052551,27.140997622752774
0.0242,0.9418,0.2106,-0.1688,0.1532,0.0657,-2.0563,1.2775,-16.2488,12.604943190541412,1.4547237633023904,10.557273846732372,27.153165575251712
0.0205,0.9495,0.2081,-0.169,0.155,0.0656,-2.0738,1.1812,-16.8087,12.362622454390397,1.251814649280657,10.575911301003787,27.165225583667812
0.0207,0.9553,0.2095,-0.169,0.155,0.0656,-1.4787,0.84,-17.1063,12.36929376245115,1.2190778503285165,10.56961031187427,27.174271651724965
0.0181,0.9555,0.2059,-0.1669,0.1542,0.0641,-1.5312,0.7962,-16.9225,12.161256892882527,1.0870922286650428,10.437401916824134,27.186293791233314
0.0183,0.9559,0.2058,-0.1669,0.1545,0.0638,-2.345,0.84,-16.52,12.15003816717526,1.0746774864899016,10.32942643511237,27.198458912412047
0.0203,0.9564,0.2094,-0.1676,0.1545,0.0638,-1.995,0.9975,-16.3275,12.349245928193149,1.1684204812094292,10.113425691705922,27.210532369599125
0.0218,0.9545,0.2071,-0.17,0.1542,0.0645,-2.0388,0.6563,-15.68,12.242145915341084,1.2607729232792675,10.338872465380753,27.222674840216214
0.0204,0.9505,0.2056,-0.17,0.1542,0.0645,-2.8,0.7962,-15.0587,12.205552393373567,1.211515496359037,10.36005384620133,27.234836776159717
0.0208,0.9495,0.2084,-0.1677,0.1542,0.0642,-3.1412,1.19,-15.8987,12.378723425125116,1.2232411087536716,10.239102369028233,27.243734907736123
0.0207,0.9498,0.2093,-0.1677,0.1542,0.0642,-0.3325,1.1987,-15.5137,12.42707504141157,1.2199723804498253,10.191369114124742,27.255837032040283
0.0203,0.9492,0.211,-0.1692,0.1546,0.0654,-2.1613,1.3737,-14.98,12.532346007752661,1.20037781028945,10.359537086722332,27.2680184333102
0.0162,0.9521,0.2136,-0.1681,0.1542,0.0655,-2.7562,1.575,-14.9975,12.64440651422249,0.9985758637789979,10.336458397770226,27.280145685581182
0.0191,0.9515,0.2132,-0.1681,0.1542,0.0655,-2.7825,1.47,-14.7613,12.629548446176988,1.0991054536245226,10.381847017251124,27.292273999597246
0.0229,0.947,0.2135,-0.1694,0.1538,0.0654,-2.3625,1.3387,-14.8487,12.70464406837367,1.305405555416444,10.26712494913582,27.304328699287957
0.0204,0.9468,0.2131,-0.1694,0.1538,0.0654,-2.3625,1.4962,-14.455,12.684472205210268,1.2231746666246106,10.260497802601998,27.31330787740525
0.022,0.9456,0.2138,-0.1662,0.1562,0.0629,-2.5113,1.6887,-14.4725,12.740191513759475,1.2850437736471874,9.407873767694909,27.325487155185016
0.0203,0.9479,0.2098,-0.1698,0.1543,0.0662,-2.555,1.9337,-14.21,12.480889070848283,1.2156670870452695,10.654536793688889,27.337578662038403
0.0179,0.9526,0.2104,-0.1698,0.1543,0.0662,-2.6688,2.0825,-14.3325,12.45498527827898,1.0858151189140122,10.652583927228306,27.34978165212489
0.0184,0.9536,0.2131,-0.1712,0.153,0.0651,-2.5375,1.5312,-14.2275,12.596462176332556,1.0801238220276521,10.17419161804929,27.361873866808327
0.022,0.9503,0.2085,-0.1712,0.153,0.0651,-2.3275,1.5662,-14.6037,12.375486942598807,1.2545016498256603,10.420834746631845,27.37076633574432
0.0241,0.9493,0.2057,-0.1678,0.153,0.07,-2.4675,1.7325,-14.665,12.226599173291271,1.3885770803955235,12.407260091640211,27.382579311472476
0.0265,0.9494,0.2119,-0.1678,0.153,0.07,-2.7037,2.205,-15.4,12.580834346184483,1.5233095581802463,12.097312252799094,27.394754696186954
0.0282,0.9496,0.2114,-0.1681,0.1523,0.0679,-2.5725,2.0563,-15.855,12.550612305717893,1.6316656323410625,11.486938013995005,27.407378845154035
0.0263,0.9477,0.2111,-0.1701,0.1547,0.0655,-2.555,2.275,-15.75,12.55759114067282,1.5691916032821898,10.371117451908397,27.419451948426087
0.0237,0.9469,0.2098,-0.1701,0.1547,0.0655,-2.8875,2.5288,-16.4325,12.493106508962002,1.4391954170875314,10.405125998456768,27.43151832731265
0.0183,0.947,0.2128,-0.1679,0.1541,0.0636,-3.3688,2.3013,-16.4587,12.664063049960609,1.1594032062734991,9.734971544556304,27.440826292488826
0.0193,0.9487,0.213,-0.1679,0.1541,0.0636,-3.2025,2.2138,-17.1675,12.654110014472835,1.1419642026435306,9.754314200494557,27.452897980100776
0.0195,0.9459,0.2094,-0.1681,0.1546,0.0582,-2.8525,2.2225,-16.6863,12.483104071812015,1.1506774578395471,8.086632416289133,27.464879419381166
0.021,0.9465,0.2114,-0.1673,0.1558,0.066,-2.485,1.4962,-17.01,12.590023076236603,1.2236290973895694,10.538871761238816,27.47694898350296
0.0253,0.9448,0.2144,-0.1673,0.1558,0.066,-3.08,2.1525,-17.7187,12.784842568733788,1.4376954452709056,10.396072401224215,27.489025625925265
0.026,0.9493,0.2125,-0.1674,0.155,0.065,-2.4413,2.8,-18.3225,12.618076553489933,1.5078431875728897,10.287825043449377,27.501093420471932
0.0187,0.9545,0.2151,-0.1674,0.155,0.065,-2.3888,2.6338,-18.0687,12.699435713744293,1.1933005046968899,10.12879362477478,27.510398554327903
0.0126,0.955,0.212,-0.1665,0.1581,0.0593,-2.24,3.0538,-18.27,12.516617024879764,0.858503588697043,8.183391773029888,27.522419278176148
0.0065,0.9534,0.2094,-0.1665,0.1581,0.0593,-1.995,3.045,-17.6575,12.387831443651734,0.5075205662325577,8.258134246769526,27.534458405605733
0.0002,0.9506,0.2111,-0.1654,0.1569,0.062,-2.835,2.835,-16.765,12.520137751409747,0.13583950156232877,9.107544333922242,27.546562653400045
-0.0001,0.9512,0.2112,-0.1657,0.1554,0.0637,-2.6425,2.31,-16.0825,12.518607059544815,0.025468767269747512,9.75836533007286,27.55865769940369
0.0006,0.9538,0.2128,-0.1657,0.1554,0.0637,-1.89,1.8812,-15.7675,12.576973952019761,0.03321613654021178,9.708858493237145,27.57062108901777
0.0095,0.9548,0.2083,-0.1646,0.1547,0.0633,-1.9687,1.3825,-16.065,12.307628187723756,0.46082804637085234,10.044627466321922,27.579968692676825
0.0109,0.9593,0.2029,-0.1646,0.1547,0.0633,-2.24,1.225,-16.0825,11.94355346362813,0.6054933333089628,10.415207023857151,27.592209197756038
0.0112,0.962,0.209,-0.1656,0.1551,0.0583,-1.8025,1.0325,-16.625,12.256475293924408,0.6438355518320098,8.355517165196549,27.60409401823441
0.0152,0.9617,0.2097,-0.1633,0.1566,0.063,-2.7037,0.49,-16.485,12.300756100572004,0.8467291269883028,9.948126950729659,27.616132083918917
0.0113,0.9603,0.2076,-0.1633,0.1566,0.063,-3.5438,0.9013,-15.9425,12.198907974762507,0.690624452143349,10.01126694759701,27.62814219031639
0.0057,0.9576,0.2098,-0.1657,0.1554,0.0631,-3.1325,1.5662,-16.2838,12.357196649461907,0.40104535187312057,9.774997428394533,27.637478114779597
0.0038,0.9542,0.2085,-0.1657,0.1554,0.0631,-3.7888,1.7762,-15.855,12.325923566321359,0.2581558672741856,9.787202815114666,27.649571391208113
0.0008,0.9489,0.2106,-0.165,0.1573,0.0669,-4.2,1.68,-15.2512,12.512933237040539,0.08812250432638809,10.725484350296544,27.661597423781746
0.0023,0.9473,0.2142,-0.165,0.1573,0.0621,-3.85,1.4787,-15.4787,12.740603821156201,0.126798734338844,8.935965344797227,27.673619563290092
0.0021,0.9447,0.2118,-0.1631,0.1566,0.0621,-4.1912,1.855,-14.2187,12.636941153661093,0.12478544747163385,9.192574223485463,27.68568735783676
0.0045,0.9455,0.2134,-0.1644,0.1553,0.064,-3.6225,1.4088,-13.8863,12.7183595055536,0.23995464976245232,9.790977487052475,27.697748427997936
0.0088,0.9454,0.2152,-0.1644,0.1553,0.064,-3.2462,1.2337,-13.37,12.823352045533166,0.4699698292672146,9.731279653183432,27.70704011308293
0.0074,0.9461,0.2174,-0.164,0.156,0.0655,-3.4038,1.4437,-13.2825,12.94075621220095,0.44291893308376384,10.07064262769415,27.719027568918758
0.0131,0.951,0.2148,-0.164,0.156,0.0655,-2.8263,1.5225,-13.3175,12.728283585439916,0.7082263347678602,10.343227993753914,27.73110810440635
0.0168,0.9509,0.2111,-0.1641,0.1569,0.0702,-2.3013,1.68,-13.4225,12.517279770184555,0.9337750194078397,12.090439408592392,27.743184746828657
0.0162,0.9539,0.2161,-0.1668,0.1548,0.065,-2.8438,1.9775,-13.5275,12.763843581857673,0.9457952282540883,10.091708256882136,27.755232368218856
0.0175,0.9542,0.2137,-0.1668,0.1548,0.065,-2.485,2.2575,-14.105,12.623898449023518,1.0079092892055639,10.241582715381515,27.76731679677173
0.0102,0.9507,0.2158,-0.1648,0.1542,0.0626,-2.7562,2.1,-14.28,12.78843240119646,0.6857930673584841,9.372157491797896,27.776564596393534
0.0085,0.9543,0.2148,-0.1648,0.1542,0.0626,-3.0713,1.9075,-14.3062,12.685388885898071,0.536038943887427,9.456472379809657,27.788644424051075
0.0091,0.9566,0.2159,-0.1652,0.1562,0.0646,-2.73,2.2662,-15.225,12.718196397936879,0.5326179947061732,9.921902514550712,27.800698769826763
0.0099,0.9542,0.2103,-0.1634,0.1552,0.065,-3.1063,1.9512,-14.8925,12.42976602324603,0.5706891101062109,10.534230562377788,27.81274320598173
0.0126,0.9557,0.2111,-0.1634,0.1552,0.065,-3.1238,1.7062,-14.7962,12.455713878240228,0.7050047398016258,10.53733376720702,27.82477914817608
0.0109,0.9547,0.2165,-0.1658,0.1557,0.0634,-2.695,1.8288,-14.945,12.776123157450357,0.6513420830646481,9.487524558096844,27.834064816705638
0.0038,0.9442,0.2165,-0.1658,0.1557,0.0634,-2.2575,1.4175,-15.4875,12.913986704732922,0.3035616211398552,9.284659346534966,27.84627665466777
-0.0025,0.9455,0.2184,-0.1658,0.1546,0.0658,-3.1063,1.9075,-14.8225,13.006305034812351,-0.0559671907072156,10.00188637854361,27.858341617894226
-0.0045,0.9465,0.2161,-0.1658,0.1546,0.0658,-2.8175,1.3475,-13.3262,12.861438171077877,-0.22734272591208526,10.122458852676388,27.871046105572145
0.0021,0.9456,0.2167,-0.1652,0.1548,0.0682,-2.9663,1.0587,-13.3525,12.907279300293508,0.06315282169208791,10.951359858560084,27.882395098701593
0.0085,0.947,0.2131,-0.1651,0.1554,0.0646,-2.7388,0.3588,-12.4075,12.682457236821588,0.43394808700532683,10.018806870640379,27.894209844004873
0.012,0.9512,0.2151,-0.1651,0.1554,0.0646,-2.5288,0.6212,-12.3638,12.74211965689025,0.6613369784142334,9.99436787216016,27.906345590236477
0.019,0.9509,0.2156,-0.1666,0.1566,0.0642,-1.9687,0.9625,-12.7662,12.774742121499747,1.0388122513880624,9.72310161152298,27.9150926000969
0.021,0.951,0.2137,-0.1666,0.1566,0.0642,-1.9687,1.155,-12.95,12.664921743618468,1.1998020767658069,9.852875057440274,27.927234716798967
0.0182,0.9522,0.2136,-0.1646,0.1558,0.0614,-2.52,1.2775,-13.1775,12.643497711135465,1.0921040978477317,9.080892639176723,27.939452217401506
0.0135,0.9536,0.2106,-0.1651,0.1546,0.063,-2.38,1.2337,-13.6588,12.454249860779308,0.8456134318852812,9.81859978808655,27.951639281311834
0.0124,0.9496,0.2126,-0.1651,0.1546,0.063,-2.7475,1.1287,-13.2212,12.61902906017053,0.7503271892515644,9.646001740814128,27.963836962672936
0.0142,0.947,0.2117,-0.1682,0.1542,0.0638,-3.01,0.7875,-13.6062,12.601226949325794,0.8238092378677996,9.79582589466499,27.973338873283204
0.0141,0.9475,0.2104,-0.1682,0.1542,0.0638,-2.7738,0.21,-13.6062,12.520072444817423,0.8310179059769887,9.87310349407047,27.985357473641294
0.0123,0.9455,0.2137,-0.1674,0.156,0.061,-2.4237,0.7263,-13.86,12.735280432563464,0.7440254832257539,8.638385997203928,27.9974079263517
0.0126,0.9438,0.2112,-0.1674,0.156,0.061,-2.4413,0.385,-13.4312,12.61396930684816,0.746041311748133,8.760083291027422,28.009505449760525
0.0177,0.9454,0.2145,-0.1678,0.1554,0.0678,-2.3187,0.6212,-13.2212,12.782832945629204,0.9976940423343166,10.902816163525499,28.02152369620359
0.021,0.9441,0.2102,-0.1675,0.1544,0.0644,-2.2838,0.21,-13.3875,12.552587107868147,1.206625849540343,10.138959432857218,28.033523892980345
0.0215,0.9453,0.2075,-0.1675,0.1544,0.0644,-2.7562,0.0788,-13.79,12.380958930930868,1.2628524202416902,10.3102743143291,28.04285521654822
0.0224,0.9463,0.207,-0.1662,0.1546,0.0647,-2.8963,0.42,-13.965,12.339025029623974,1.3150454892936556,10.527028821982354,28.054911331899035
0.0192,0.9485,0.2153,-0.1662,0.1546,0.0647,-2.275,-0.1925,-14.8312,12.787597338300296,1.1571111824132407,10.05063836831871,28.06698231168093
0.0233,0.9453,0.2145,-0.1686,0.155,0.0638,-2.2313,0.2187,-16.1175,12.784624870439853,1.3437142307327368,9.628142150243473,28.079022146940563
0.0217,0.9507,0.2148,-0.1687,0.1546,0.0614,-2.5638,0.35,-16.1437,12.731718752054352,1.2859644590405697,8.893945491601505,28.091116839029183
0.0203,0.9513,0.2104,-0.1687,0.1546,0.0614,-1.9512,0.56,-15.47,12.472130829094226,1.2083504236131135,9.132761200389124,28.103159859524048
0.0162,0.9529,0.2123,-0.166,0.1554,0.0649,-2.3187,0.385,-16.1788,12.55975281678035,0.9906491618925914,10.2618690357041,28.11246428554997
0.0162,0.9524,0.2126,-0.166,0.1554,0.0649,-1.5312,0.2538,-15.6363,12.583509690995482,0.9570999211718685,10.239541777084133,28.124526771371247
0.0177,0.9508,0.2094,-0.1666,0.1555,0.0582,-2.0738,0.0525,-15.33,12.42075128110049,1.0290782012594277,8.139599009504252,28.136620047799763
0.0202,0.9528,0.2119,-0.1666,0.1555,0.0666,-2.2838,0.2362,-14.6125,12.53802773023877,1.16183938397657,10.844261070644038,28.148616351511237
0.0231,0.95,0.2084,-0.1679,0.1545,0.0666,-2.2225,0.8312,-14.6387,12.373361474484058,1.3274518661258798,11.027840039417276,28.160667512051692
0.0223,0.9518,0.2128,-0.1666,0.1562,0.063,-2.555,0.9975,-14.7525,12.602078180111816,1.3128493597030673,9.557340267259683,28.172667708828445
0.0145,0.9489,0.2136,-0.1666,0.1562,0.063,-2.3363,1.19,-15.155,12.685751145214871,0.9354217664631456,9.397441134710672,28.18207229280664
0.0158,0.9473,0.2152,-0.1626,0.1546,0.0647,-2.52,1.1725,-14.4725,12.798458432991628,0.9324479163509177,10.225428897066527,28.194056917322264
0.0155,0.945,0.212,-0.1626,0.1546,0.0647,-2.8087,0.8225,-14.525,12.644743914066154,0.9194896122100795,10.377382990651373,28.206102061307284
0.0156,0.9462,0.2087,-0.1669,0.1552,0.0619,-2.415,0.5775,-14.9187,12.43895304298439,0.9219208032311884,9.343487644578099,28.21817162542908
0.0218,0.9466,0.2152,-0.1663,0.1565,0.0635,-2.4763,0.14,-15.7937,12.80689166102314,1.2319776230478687,9.510432959712729,28.230254992236873
0.0191,0.951,0.2097,-0.1663,0.1565,0.0635,-1.9337,0.1925,-15.3912,12.436043099305751,1.1399231109424321,9.852798783887817,28.23949323615299
0.0132,0.9549,0.2112,-0.1646,0.1561,0.0651,-2.0125,0.035,-15.7062,12.471516954554708,0.8272393201983221,10.419581814624669,28.251582265601193
0.0081,0.9526,0.2095,-0.1646,0.1561,0.0651,-2.03,0.1837,-14.9975,12.403479327048537,0.5286774860081823,10.432791690513142,28.26361608430539
0.0131,0.9495,0.2131,-0.1662,0.1554,0.067,-2.3275,0.3413,-14.07,12.648817067913816,0.733879619918283,10.822943245222197,28.275688833662414
0.0135,0.9503,0.216,-0.1662,0.1547,0.0642,-2.5988,0.0,-14.1312,12.805128357397585,0.7849003955316507,9.802379458664157,28.287700001804968
0.0165,0.9507,0.2075,-0.1662,0.1547,0.0642,-2.03,0.35,-13.4312,12.313687497240176,0.9426560566261253,10.31447910425607,28.299714001267724
0.0207,0.9515,0.2101,-0.1678,0.1534,0.0632,-1.715,0.49,-14.2887,12.451250140976601,1.1737114087106748,9.888301984590882,28.3091458367029
0.0271,0.9525,0.2111,-0.1678,0.1534,0.0632,-2.1263,1.2075,-14.6825,12.496194433184302,1.5168903878689781,9.909564399304724,28.321142494329397
0.0196,0.9515,0.2106,-0.1653,0.1538,0.064,-2.415,1.155,-15.4525,12.480386769116608,1.216450352787816,10.236779939341448,28.333210642791087
0.0187,0.9495,0.2096,-0.1653,0.1538,0.064,-2.4413,1.3037,-15.4263,12.44836804277421,1.122504643774,10.259274969438279,28.345200929947122
0.0151,0.9486,0.2104,-0.1654,0.1563,0.0654,-2.2925,1.365,-14.9975,12.505621188252256,0.9328123147860177,10.442793858475513,28.357347647544522
0.015,0.9488,0.2085,-0.1668,0.1558,0.0632,-2.1175,1.05,-14.8575,12.394138137352144,0.8929687214755478,9.773968661356932,28.36937368011815
0.0107,0.9471,0.2069,-0.1668,0.1558,0.0632,-2.3975,1.0412,-15.1637,12.323228992469186,0.677380381098301,9.79958557143471,28.3786798757192
0.0165,0.9461,0.21,-0.1662,0.1545,0.0641,-2.065,1.085,-15.2425,12.514162551092223,0.9235347191531214,10.09892487677294,28.39010283708902
0.0141,0.947,0.2073,-0.1662,0.1545,0.0641,-2.0038,1.12,-15.2687,12.347855140458156,0.8490948386882857,10.236884132002622,28.402261941712318
0.011,0.9489,0.2056,-0.1665,0.1538,0.0574,-2.1613,1.1812,-15.4,12.225754849818324,0.6845033883428898,8.13445623914074,28.41445466826306
0.0109,0.9482,0.2027,-0.1667,0.155,0.0643,-2.0038,0.84,-15.1637,12.067139389828885,0.6508125022895292,10.473634902023965,28.426640670428313
0.0137,0.9477,0.2075,-0.1667,0.155,0.0643,-2.1088,0.7263,-15.0325,12.349290921198795,0.7831280679586495,10.23004638866568,28.43531760511365
0.0187,0.9565,0.2069,-0.1662,0.1558,0.0624,-2.2662,0.2362,-14.7875,12.205976246832535,1.0474560915449613,9.76407169990409,28.44748378803746
0.021,0.9576,0.2086,-0.1662,0.1558,0.0624,-2.24,0.7613,-14.7087,12.288881463891508,1.1978420289248803,9.704304726541048,28.46021694283246
0.0227,0.9577,0.2076,-0.1671,0.1557,0.0669,-2.345,0.8663,-14.8137,12.230905034050053,1.3053435786599843,11.22651721301963,28.47228509129415
0.0251,0.9572,0.2077,-0.1671,0.1557,0.0669,-3.0538,1.1025,-14.5425,12.242621706568325,1.4395538734350806,11.243999573143178,28.484340498814916
0.0262,0.954,0.2112,-0.1684,0.1546,0.0584,-3.3688,1.3475,-15.2862,12.482336553409745,1.5183826139170737,8.193947879884526,28.496360868748134
0.024,0.9478,0.21,-0.1679,0.1544,0.063,-3.0975,1.9775,-15.7762,12.492928737806402,1.4372481292358896,9.73704629911606,28.505662817368876
0.0196,0.947,0.2145,-0.1679,0.1544,0.063,-2.3888,1.5837,-16.1963,12.761661390646928,1.209919917816031,9.432342520885484,28.51774547634662
0.013,0.9482,0.2087,-0.1676,0.1547,0.0641,-2.59,1.9512,-16.6163,12.413931796497137,0.8578726613423081,10.062503169134025,28.530061011411284
0.0119,0.9529,0.2093,-0.1676,0.1547,0.0641,-1.8637,1.4525,-16.3362,12.388104783237093,0.7283990887096647,10.075112212767849,28.541859476623383
0.0124,0.9575,0.2097,-0.1658,0.1552,0.0609,-1.96,1.5662,-15.855,12.353282634422516,0.7254713679027655,9.123089989371064,28.553849763779418
0.0093,0.9611,0.2075,-0.1643,0.1564,0.0594,-2.1525,1.4612,-15.0325,12.183551953513028,0.5760999986367691,8.753658155768525,28.56588075116341
0.007,0.9615,0.2039,-0.1643,0.1564,0.0594,-2.1438,1.8637,-14.7613,11.973613107978771,0.4418821501995291,8.940583596439025,28.575183761529225
0.0107,0.9562,0.2069,-0.1658,0.1553,0.0634,-2.59,2.3625,-14.63,12.208624591767359,0.5852752797219788,10.069689300592705,28.58679535960775
0.0079,0.9546,0.2069,-0.1658,0.1553,0.0634,-2.3975,1.89,-14.49,12.229078044001664,0.4880628349839641,10.02265463230343,28.598923319708785
0.0108,0.9542,0.2092,-0.1667,0.1546,0.0618,-3.325,1.7587,-14.3762,12.365560115728062,0.6047648167403781,9.387970564417312,28.610934841766362
0.0109,0.9531,0.2106,-0.1667,0.1546,0.0618,-3.7275,1.8112,-14.4375,12.459779456124819,0.6328165457490317,9.297369827279242,28.62318561038132
0.0098,0.949,0.2114,-0.1667,0.1551,0.0614,-3.115,1.1638,-14.0262,12.557933358339852,0.5872605310426413,9.023577517967107,28.631679217083338
0.0154,0.95,0.2128,-0.1658,0.1562,0.0633,-3.5263,1.8288,-14.0437,12.625645482017626,0.8424837928764229,9.610494170324724,28.644680993382853
0.0145,0.9429,0.2134,-0.1658,0.1562,0.0633,-3.6575,1.5312,-13.5975,12.752157521117422,0.856127438139734,9.477576515061582,28.656718351237306
0.0176,0.941,0.2201,-0.1664,0.155,0.0642,-3.6488,2.065,-13.7287,13.163651870753911,1.004066981321745,9.457121808987669,28.66880738068551
0.0185,0.9407,0.214,-0.1664,0.155,0.0642,-2.8963,2.2225,-13.3087,12.817089836990737,1.078073571463057,9.809569684146059,28.68090313451921
0.0146,0.9413,0.2139,-0.1655,0.1544,0.0618,-2.9313,2.52,-13.3,12.802465710020833,0.9156005022918858,9.080714558729966,28.69303074070522
0.0126,0.9446,0.2158,-0.1673,0.1537,0.0634,-2.625,1.8637,-13.3437,12.868556518549783,0.7793699597057149,9.478969798235033,28.702103706304325
0.0091,0.9475,0.2109,-0.1673,0.1537,0.0634,-2.0213,2.1175,-13.5537,12.549552611426863,0.5885185316937396,9.752847861973528,28.714209723673765
0.0124,0.9484,0.2105,-0.1664,0.1534,0.0629,-1.4262,1.925,-14.1225,12.514193860553412,0.7021832928894195,9.72796001418031,28.726290259161356
0.0093,0.9486,0.2087,-0.1664,0.1534,0.0629,-2.1263,1.645,-14.3413,12.408177908422017,0.5782055924482778,9.799611349031057,28.73837645728936
0.0122,0.9529,0.2101,-0.1667,0.1533,0.0648,-2.1,0.9275,-14.4987,12.433840190881847,0.6929203115349767,10.418201117686722,28.750705441124996
0.0152,0.955,0.2083,-0.1667,0.1533,0.064,-2.45,0.1663,-15.05,12.30473517724445,0.8612042488056575,10.310815663949588,28.762410118855282
0.0135,0.9575,0.207,-0.1662,0.1546,0.064,-2.765,0.3763,-14.49,12.199221287537933,0.8006387858364343,10.333267768790051,28.771689062999354
0.016,0.9575,0.2095,-0.1678,0.1542,0.0639,-3.2987,-0.1225,-14.6475,12.341362587098796,0.9158594602134422,10.119010180773836,28.783322249894447
0.0079,0.9446,0.2104,-0.1678,0.1542,0.0639,-3.0888,-0.385,-15.19,12.556455992346521,0.5298183654946884,9.83203907921801,28.795482770177845
0.006,0.9414,0.2121,-0.1677,0.1555,0.0645,-2.9663,-0.5075,-15.19,12.696497145331918,0.3798936334888272,9.785600019423553,28.80768186719905
0.0074,0.9414,0.2105,-0.1677,0.1555,0.0645,-2.5288,-0.945,-14.9012,12.604442758155846,0.4318505452563405,9.889166871734115,28.819894059076205
0.0134,0.9412,0.21,-0.167,0.1551,0.0674,-2.59,-1.4875,-14.6475,12.577859999767792,0.752311061076096,10.998332270508966,28.832047854974117
0.0225,0.9481,0.2076,-0.1678,0.1545,0.0642,-1.8025,-1.5925,-14.5338,12.351438385264402,1.2596700809671604,10.258005544653154,28.844327290706158
0.0336,0.9589,0.208,-0.1678,0.1545,0.0642,-2.3975,-1.715,-14.63,12.239040912025951,1.8791597385588414,10.483288302714035,28.852798600761556
0.0364,0.9636,0.2098,-0.1666,0.155,0.0633,-2.4938,-0.1925,-15.435,12.282916156673268,2.080428492778315,10.205353891884045,28.865059632912256
0.0338,0.9597,0.2109,-0.1666,0.155,0.0633,-2.5025,0.1663,-15.6887,12.3937801101309,1.9866667158346976,10.068391310608378,28.877320311147933
0.0315,0.9556,0.21,-0.1658,0.1541,0.0582,-1.9337,0.665,-16.0825,12.394148753171315,1.8671556656917403,8.426353498811313,28.889447917333943
0.0299,0.9499,0.2123,-0.1694,0.1542,0.0629,-3.01,1.5837,-15.96,12.597827716560543,1.780035902925099,9.587848965733171,28.901666125766535
0.0201,0.9448,0.2098,-0.1694,0.1542,0.0629,-2.9575,1.6975,-15.7062,12.520037451072428,1.304763259264255,9.569168579778587,28.91387831764369
0.0127,0.943,0.2106,-0.1679,0.1546,0.0635,-2.5988,1.995,-16.0475,12.589072001849727,0.8671372969229593,9.682955007598283,28.922365553875245
0.0087,0.9455,0.2091,-0.1679,0.1546,0.0635,-1.8637,2.0913,-15.4612,12.470739089296941,0.5891059907724933,9.757692567259994,28.93509658518009
0.0074,0.9451,0.209,-0.1656,0.1562,0.0685,-1.7237,1.89,-14.455,12.469742058189118,0.468605094174812,11.407210586525293,28.94743229340122
0.0073,0.9483,0.2094,-0.1656,0.1553,0.066,-1.68,1.2337,-14.1225,12.45206633157916,0.43745502620389565,10.66933295465746,28.959489470497115
0.0096,0.9479,0.2089,-0.1681,0.1553,0.066,-1.9075,1.085,-14.1575,12.428354496814801,0.5441687523336032,10.56001174783702,28.97158416258573
0.0119,0.9517,0.2126,-0.1658,0.1543,0.063,-2.2313,0.525,-14.2362,12.592075838584567,0.6745761354462829,9.649211330352301,28.983613380394594
0.0104,0.9519,0.2058,-0.1658,0.1543,0.063,-1.5925,0.42,-14.0612,12.20063668437394,0.6216147784201368,10.015605070513743,28.992976202399756
0.0114,0.9526,0.2028,-0.1681,0.1554,0.0614,-1.7675,0.4462,-13.9387,12.018845575876586,0.6629383597603683,9.463614298459877,29.00493605286358
0.0143,0.9566,0.2031,-0.1681,0.1554,0.0614,-1.8375,-0.0788,-14.595,11.986816955895698,0.8124641204184538,9.521089290644419,29.01700349349522
0.0207,0.9553,0.2051,-0.1681,0.1567,0.0644,-2.0038,-0.5163,-14.98,12.116916858525228,1.1590669512680545,10.357206203248866,29.02916224420349
0.0214,0.9554,0.204,-0.1678,0.1552,0.063,-2.2313,-0.2625,-14.3937,12.053155582391776,1.2413682203542584,10.0879195105537,29.04131037746099
0.0224,0.9531,0.2022,-0.1678,0.1552,0.063,-2.3187,-0.315,-14.9012,11.977913304560312,1.3064423457498076,10.172019108362397,29.053455325483263
0.0213,0.9506,0.2047,-0.1676,0.1554,0.0636,-2.5288,-0.5075,-15.4875,12.151881415435255,1.2618817986857667,10.18773347475343,29.06267339624291
0.0188,0.9497,0.2018,-0.1676,0.1554,0.0636,-2.4938,-0.6737,-15.295,11.996687312753208,1.1296349596017463,10.313566700300125,29.074779059697324
0.019,0.9515,0.2098,-0.1662,0.1556,0.07,-3.1238,-0.595,-14.1312,12.433178416448547,1.118814277110665,12.074809590172006,29.086916575504056
0.0216,0.9532,0.2046,-0.1684,0.1542,0.0635,-3.4388,-0.0263,-14.4462,12.115357744920995,1.2472940417636234,10.230256085452941,29.099052321735655
0.0246,0.9514,0.2041,-0.1684,0.1542,0.0635,-2.6513,0.0175,-13.9737,12.107938190461615,1.4187215393422463,10.267321478777138,29.11113851986366
0.0309,0.9547,0.2038,-0.1678,0.1542,0.0626,-3.01,0.3063,-14.1575,12.050238320261165,1.7525507671525944,10.126594234792119,29.12317623163314
0.0334,0.9552,0.2069,-0.1678,0.1542,0.0626,-3.2113,0.3763,-14.0787,12.221202205202829,1.925548002730045,9.984631888003216,29.135277648107245
0.0318,0.9556,0.2067,-0.1662,0.1538,0.0639,-3.3075,0.9187,-14.5425,12.205312669789286,1.8735030061385118,10.547875609322208,29.14446846740991
0.0312,0.9518,0.1996,-0.1666,0.1532,0.0667,-3.0538,1.4175,-14.9537,11.844767934751314,1.8441843981910462,11.84888269362202,29.156546879407347
0.0248,0.9493,0.2042,-0.1666,0.1532,0.0667,-2.9663,1.9162,-14.28,12.138847862538082,1.5405903233046956,11.485984145208732,29.16861821310427
0.0223,0.9468,0.2082,-0.1679,0.1552,0.063,-3.3075,2.3363,-14.1225,12.401136215553864,1.3673444371984933,9.753747393276626,29.18067822152037
0.0117,0.9434,0.2084,-0.1679,0.1552,0.063,-3.0363,2.415,-14.6037,12.456608511165404,0.8463477712165772,9.594055275465514,29.192772205778937
0.0149,0.9441,0.2136,-0.1678,0.1556,0.0673,-2.38,2.0038,-14.35,12.747562589209348,0.8745299024669485,10.728328676902382,29.204790452222003
0.0187,0.9442,0.2094,-0.1678,0.1556,0.0673,-2.3712,1.9075,-14.1487,12.505073084074432,1.0603346660744322,11.009415143668958,29.214054178019968
0.0203,0.9454,0.2076,-0.1671,0.1554,0.0623,-2.6075,1.54,-13.37,12.38532510790586,1.1747946504243505,9.549608692141115,29.22607030097288
0.0254,0.9494,0.2097,-0.1669,0.1541,0.0618,-2.2488,1.61,-14.56,12.455105919866092,1.4348457840286941,9.467629443573422,29.238164639146472
0.0264,0.9674,0.2051,-0.1669,0.1541,0.0618,-2.1963,1.1025,-14.98,11.971483079588687,1.5127441585291803,9.947278762126194,29.250248359869293
0.0259,0.9509,0.2056,-0.1677,0.1532,0.0636,-2.7213,1.435,-15.5137,12.199824756039613,1.5227107552778192,10.337466109698244,29.262409234067718
0.0269,0.9464,0.2084,-0.1677,0.1532,0.0636,-2.52,1.6275,-15.68,12.417890618833647,1.5770959486920948,10.138550858146312,29.27152856253519
0.0216,0.9451,0.2059,-0.1661,0.155,0.063,-2.2313,1.6538,-15.6887,12.2908013510076,1.336787523119267,9.976160162636846,29.28360201972227
0.0204,0.945,0.2023,-0.1687,0.1534,0.0656,-2.8087,1.4437,-15.8987,12.083746929297057,1.2329484783843283,10.973337144988227,29.295634422766362
0.0204,0.9459,0.2069,-0.1687,0.1534,0.0656,-2.7738,1.75,-15.8638,12.337468393022668,1.2120797467008653,10.730040621910774,29.30775247324668
0.0178,0.946,0.2091,-0.166,0.1542,0.0627,-2.7475,1.225,-14.98,12.463665152688478,1.0810120464453508,9.730381632794575,29.31984114877986
0.0177,0.9456,0.2067,-0.166,0.1542,0.0627,-2.5988,0.9538,-14.9975,12.330787858272938,1.0533034106031556,9.85931983358338,29.331853024752462
0.0165,0.9501,0.2064,-0.1699,0.1542,0.0605,-2.5725,0.9363,-15.2337,12.256720264883036,0.9860086921195897,8.97381680079695,29.34181714838631
0.0207,0.9529,0.2055,-0.1699,0.1542,0.0605,-1.6013,0.4112,-14.9625,12.17012445355945,1.1805879572883837,9.09382010356877,29.35315481623493
0.0258,0.952,0.2067,-0.1662,0.153,0.0586,-1.9512,0.9275,-15.4525,12.249806691719947,1.4600569913741157,8.712466203552166,29.36521907163134
0.0242,0.9512,0.2041,-0.1678,0.1538,0.063,-2.7738,1.365,-16.03,12.110780089592453,1.4313803222425567,10.15856456665886,29.377322611595602
0.0226,0.9545,0.2078,-0.1678,0.1538,0.063,-3.8063,1.0412,-16.0125,12.28148516637503,1.3436432653211972,9.976094742628494,29.389213448629413
0.0138,0.953,0.2124,-0.1667,0.1558,0.0622,-3.2462,1.8025,-16.1175,12.563654327215923,0.9159325846664244,9.26850803296284,29.401333268684855
0.0127,0.951,0.2096,-0.1667,0.1558,0.0622,-3.5438,1.505,-15.9862,12.429632830824712,0.7788609092549114,9.390235761618705,29.410153538955605
0.0129,0.9495,0.2103,-0.1656,0.1546,0.0646,-2.9313,1.4787,-16.0212,12.488383242415603,0.7634942869884283,10.280947687222152,29.422333170650393
0.0146,0.9512,0.2064,-0.1663,0.1553,0.0617,-1.995,1.0675,-16.3013,12.243454700852991,0.8427342750152578,9.484405430121246,29.434472809947277
0.0177,0.9553,0.2063,-0.1663,0.1553,0.0617,-2.205,0.735,-16.9925,12.186227152665609,1.005594120699175,9.569165235310681,29.44664076244622
0.0209,0.9603,0.2051,-0.1666,0.1562,0.0618,-2.73,1.3912,-16.5725,12.056408466460981,1.1800116085978,9.680545453303743,29.458790311363824
0.0172,0.9597,0.2121,-0.1666,0.1562,0.0618,-2.9838,1.89,-16.8525,12.461273686736684,1.0384863318142847,9.243567136323811,29.46755926395584
0.0139,0.9554,0.202,-0.1648,0.1554,0.0635,-2.9138,1.9512,-16.5987,11.93968787969133,0.8612024470704809,10.4568745440994,29.47972686253976
0.0099,0.9548,0.2126,-0.1648,0.1554,0.0635,-2.6688,1.9162,-16.065,12.551225492893943,0.6371071846331546,9.811348033360828,29.491897646358904
0.0059,0.9484,0.2098,-0.1638,0.1563,0.0587,-3.7975,2.4063,-15.1025,12.474002979080693,0.41335872202842794,8.234113003655418,29.504131780967654
0.0027,0.9459,0.2136,-0.1655,0.155,0.0638,-3.6138,1.9512,-15.47,12.724206027874615,0.21154875101632728,9.658698056681276,29.516224703481143
0.0009,0.9448,0.2115,-0.1655,0.155,0.0638,-2.905,2.205,-14.7875,12.618328156423727,0.08748000947403864,9.745769072971514,29.52839407164019
0.0068,0.9451,0.2134,-0.1638,0.1571,0.063,-2.6863,2.2138,-14.735,12.723500883005627,0.3339652567512151,9.37601886402168,29.53715311461149
0.006,0.9445,0.2141,-0.1638,0.1571,0.063,-2.5725,1.3125,-14.63,12.771875501878434,0.3511595330169925,9.319780894978864,29.5493316845612
0.0074,0.9455,0.2131,-0.1659,0.1534,0.0642,-2.275,1.8463,-15.0062,12.70148845885362,0.42013500053721653,9.955652812089628,29.5614784021586
0.0063,0.9461,0.2104,-0.164,0.1536,0.0627,-2.3187,1.7762,-14.7788,12.538244380569996,0.38186350624696813,9.703606184310457,29.573609901409892
0.0069,0.9489,0.2116,-0.164,0.1536,0.0627,-2.5375,1.4262,-14.6125,12.570904582744712,0.4020523356960308,9.67679504934475,29.585755557262214
0.0075,0.9486,0.2112,-0.1649,0.1557,0.0628,-2.7213,1.645,-14.7613,12.551882493748716,0.4344314172673658,9.527978804190669,29.59789484264407
0.0076,0.9511,0.2089,-0.1649,0.1557,0.0628,-2.1875,1.1812,-14.7087,12.388226403190407,0.4449133242589663,9.689992546836441,29.60639234241137
0.0114,0.9528,0.204,-0.1652,0.1553,0.0651,-1.6887,0.7437,-13.9562,12.085751153134655,0.6332773672609524,10.799734718360849,29.61861338216417
0.0165,0.9532,0.208,-0.1652,0.1553,0.0621,-2.345,0.7875,-14.1662,12.30905587246374,0.913364616482897,9.634176258281823,29.631412365153952
0.0147,0.9514,0.2081,-0.1658,0.1564,0.0621,-2.5113,0.3763,-14.6912,12.33792828737315,0.8722907192566376,9.474016207492372,29.643439105557633
0.0135,0.953,0.2029,-0.165,0.1553,0.0616,-2.0913,1.05,-15.6887,12.02008278606195,0.8073751498559926,9.733648143276982,29.65553485939133
0.0126,0.958,0.2023,-0.165,0.1553,0.0616,-1.6362,0.5163,-15.0937,11.924189002916085,0.748377719176223,9.817644453336284,29.66474195878518
0.0164,0.9582,0.2037,-0.1652,0.1557,0.0602,-1.7587,0.7525,-14.665,12.001402027445154,0.9244455619386792,9.269791779904939,29.676846560494518
0.017,0.9564,0.2022,-0.1652,0.1557,0.0602,-1.7762,0.7962,-14.665,11.937739729376268,0.9843980935485902,9.338792523847543,29.688826230199783
0.0165,0.9526,0.2031,-0.1651,0.1561,0.0597,-1.8463,0.8838,-14.7,12.035320310931981,0.9728479602993283,9.04677861309597,29.70092693884384
0.0163,0.9509,0.2065,-0.1654,0.1574,0.0622,-2.38,0.6388,-14.3062,12.251655955315663,0.9618101312760361,9.559270397732044,29.713017737867172
0.019,0.9477,0.2036,-0.1654,0.1574,0.0622,-2.6075,0.2362,-14.6125,12.12525043707996,1.0984956723270174,9.714999149313712,29.725123047406566
0.0247,0.9487,0.2024,-0.1658,0.1555,0.062,-2.415,0.4462,-14.7175,12.04342187639758,1.402183848018659,9.898573779662744,29.73460195354016
0.0254,0.9492,0.2011,-0.1658,0.1555,0.062,-1.9075,0.8138,-15.1988,11.962182072490757,1.4833796410839883,9.986406767284079,29.746347331498402
0.0278,0.947,0.199,-0.1646,0.1558,0.0617,-3.0188,0.3063,-15.9775,11.86757904039191,1.620706496847339,10.057826199969956,29.75844627056733
0.027,0.9481,0.2025,-0.1634,0.1549,0.0666,-2.5375,0.5338,-16.625,12.05583909070541,1.5993069376140432,11.665870254621755,29.77049459978758
0.0259,0.9514,0.1984,-0.1634,0.1549,0.0666,-2.1963,1.225,-16.9575,11.780127422441014,1.5395347680992704,11.928034475569056,29.7826030945622
0.0209,0.9553,0.2026,-0.1634,0.1556,0.0628,-2.415,1.575,-17.4562,11.973327046087636,1.2856991572399465,10.33802780980305,29.794583472097518
0.0142,0.9499,0.203,-0.1634,0.1556,0.0628,-2.9313,1.6275,-17.1763,12.06278260312506,0.9236701358653794,10.176779673312208,29.803820654268552
0.0087,0.947,0.2036,-0.1641,0.1564,0.0676,-2.345,2.2225,-17.0012,12.13339210160404,0.6033685366009591,11.545097120603506,29.81591145329189
0.0109,0.9492,0.2031,-0.1641,0.1564,0.0676,-2.485,2.205,-15.9687,12.077599558828535,0.6347125317271003,11.627707601588234,29.827990927034403
0.015,0.9491,0.2089,-0.1628,0.1565,0.0642,-3.045,2.4413,-15.575,12.412117129233422,0.8274305563458996,10.281318158077159,29.840256913995464
0.0149,0.9505,0.2039,-0.1641,0.1568,0.0613,-2.7213,2.5725,-14.91,12.108374721709854,0.8662149137089684,9.506242525450322,29.852131824853117
0.014,0.9526,0.2092,-0.1641,0.1568,0.0613,-2.205,2.6338,-15.1025,12.385295291403136,0.8328386978848724,9.217754604885169,29.861315919770295
0.0099,0.9555,0.2084,-0.1632,0.1554,0.0617,-1.9337,2.66,-15.0762,12.30408141842344,0.6406152551650184,9.547474301689421,29.873404949218504
0.006,0.9536,0.2071,-0.1632,0.1554,0.0617,-1.575,2.8875,-16.0825,12.253192356090738,0.4254060495269852,9.559741354941933,29.88547097419004
0.0066,0.9515,0.2094,-0.165,0.1554,0.062,-1.6712,2.5288,-16.1875,12.410995286553325,0.3967975635775281,9.407266005780244,29.89757132891907
0.0043,0.9532,0.2059,-0.1626,0.1577,0.0626,-1.785,2.6338,-15.19,12.189760864315033,0.28698827879551403,9.777024201151262,29.909620719884398
0.0037,0.9553,0.2048,-0.1626,0.1577,0.0626,-1.2075,2.4413,-15.6275,12.10033286869909,0.23293142228228036,9.860354830620727,29.921565705917143
0.0059,0.9556,0.2043,-0.1635,0.1562,0.0618,-1.2862,2.1613,-16.6513,12.067820737185126,0.32173016411577143,9.70072919023253,29.93023662404704
-0.0006,0.9554,0.2008,-0.1635,0.1562,0.0618,-2.0125,1.54,-16.1437,11.869870554890918,0.032253194616204614,9.831371317207568,29.942454478564606
0.0024,0.9567,0.2014,-0.1633,0.1566,0.0645,-2.2838,1.5225,-15.1988,11.888003307727086,0.12022972959289589,10.726039604782246,29.954619953658366
0.0034,0.9544,0.198,-0.1633,0.1566,0.0645,-2.0913,1.8288,-15.3387,11.720804554847534,0.18393743627440676,10.903167665680947,29.96681515761429
0.0042,0.9562,0.197,-0.1649,0.157,0.0608,-3.2025,1.3562,-15.4088,11.641634566779311,0.23506125724402832,9.63452979729414,29.979010007655184
0.0041,0.9598,0.2004,-0.1624,0.1564,0.0604,-2.9313,1.645,-14.7175,11.79312790717755,0.23871160432427552,9.534042607564,29.991197071565512
0.0049,0.9625,0.201,-0.1624,0.1564,0.0604,-2.94,1.4962,-14.9975,11.795616545772642,0.2767499570741811,9.539630348747096,29.999855248754486
0.0056,0.9563,0.2053,-0.1658,0.1564,0.0622,-2.9663,1.3037,-15.2775,12.11553840024773,0.3187605927515821,9.635195443990062,30.012694224142173
0.0093,0.9547,0.2056,-0.1658,0.1564,0.0622,-2.3888,0.8138,-15.4088,12.153247182688435,0.5079068084845945,9.63556677854135,30.024745030767605
0.0071,0.9516,0.2012,-0.1627,0.1563,0.0594,-3.2025,0.945,-15.4263,11.939018951631118,0.43347199033646394,9.071492793663351,30.036798314798215
0.0085,0.9519,0.207,-0.1635,0.1579,0.0659,-3.7713,1.3212,-15.5225,12.26759263016367,0.48786453363128574,10.776427152052426,30.04887849637078
0.0096,0.9505,0.2028,-0.1635,0.1579,0.0659,-3.5088,1.4437,-15.6012,12.044742500977726,0.5514365198620417,11.015004001859287,30.060854273010758
0.01,0.9489,0.2035,-0.163,0.1563,0.0614,-2.8612,1.6887,-16.0562,12.104073624558653,0.5827964008740121,9.594427554982516,30.070205415820073
0.0149,0.9474,0.209,-0.163,0.1563,0.0614,-3.4038,2.065,-16.1875,12.439462423213833,0.8175410628605322,9.305594385986089,30.08227391819679
0.0106,0.9459,0.2073,-0.1609,0.1566,0.06,-3.3075,2.52,-16.065,12.361524979239615,0.6713256763204157,8.961474706335022,30.0943148152015
0.0082,0.9441,0.2037,-0.1609,0.1566,0.06,-3.115,2.6075,-15.8463,12.176075181294475,0.5302170316078577,9.126684217085664,30.10630970325287
0.0004,0.9475,0.2059,-0.1652,0.1572,0.0577,-3.2462,1.995,-15.9687,12.260017651009893,0.12839499599909382,7.930869617436427,30.11840085619123
0.0021,0.952,0.2062,-0.161,0.1559,0.0617,-2.975,2.0038,-15.6187,12.221399210650587,0.12453255681899826,9.643511228540557,30.127706697877255
0.0063,0.9536,0.1988,-0.161,0.1559,0.0617,-3.0975,1.6625,-15.4525,11.777220636812194,0.3229519381626298,10.13332886272421,30.139771661103712
0.0019,0.9525,0.2064,-0.1601,0.1565,0.0621,-2.5025,1.4175,-15.6712,12.2252961758159,0.15072393926150987,9.782865552825257,30.15225742929574
0.0041,0.9509,0.2076,-0.1601,0.1565,0.0621,-2.0475,1.5837,-15.9862,12.3152916829928,0.22408291935013136,9.715299550657436,30.163836821106926
0.0017,0.951,0.2104,-0.1619,0.1586,0.0628,-2.0038,1.2337,-16.5812,12.474762536877789,0.12217213575440135,9.504763376949045,30.175905323483644
-0.0009,0.9473,0.2065,-0.161,0.1582,0.0607,-2.9313,0.4638,-16.1262,12.297912217355835,-0.025643769005570256,9.030945945286764,30.18807362989761
-0.003,0.9463,0.2092,-0.161,0.1582,0.0607,-2.3625,0.9887,-16.4325,12.465493699632978,-0.15138893768343814,8.840194298615062,30.20005011436764
0.0069,0.9526,0.2081,-0.1609,0.1576,0.061,-2.4763,0.7,-15.61,12.323343136434922,0.3146169370411422,9.23163228614796,30.209410105052598
0.0097,0.955,0.2068,-0.1609,0.1576,0.061,-3.08,0.7875,-15.5487,12.218732199068516,0.5267021640901163,9.365826422170155,30.22155151392461
0.0123,0.9571,0.2045,-0.1616,0.1568,0.0626,-2.38,0.805,-15.995,12.061263806103941,0.6879504347552594,10.114918356293318,30.23355348027649
0.0095,0.9592,0.2047,-0.1606,0.1572,0.0655,-2.5113,0.8663,-15.9775,12.046653639562056,0.5772477438324096,11.120106704107682,30.245529964746524
0.0113,0.9553,0.2087,-0.1606,0.1572,0.0655,-3.4913,1.3562,-16.24,12.322744493070552,0.6465933322261728,10.861010362413673,30.257579001796827
0.009,0.9499,0.2071,-0.1593,0.1561,0.0617,-2.7388,1.3825,-16.8787,12.299392520938655,0.5517142261515368,9.723793423508438,30.26693439158645
0.0026,0.9465,0.2139,-0.1593,0.1561,0.0617,-2.0563,1.5225,-16.1963,12.733167364740067,0.2285329712322391,9.215822071473927,30.27897139552588
-0.0009,0.9465,0.2142,-0.1595,0.1564,0.061,-2.3538,1.1112,-15.54,12.75161316432745,-0.0038898527493183605,8.890707299438091,30.29107139633988
-0.0034,0.9528,0.2126,-0.1595,0.1564,0.061,-1.6013,1.3475,-16.1,12.578947252873805,-0.16386475896717054,9.042491705165215,30.303204311251278
-0.008,0.9548,0.2081,-0.1606,0.1582,0.0674,-1.9775,0.805,-15.7237,12.296209024332741,-0.41839711841928473,11.230036187193644,30.31527387537307
-0.0082,0.9569,0.2045,-0.1591,0.1575,0.0621,-2.0038,0.7437,-14.9012,12.063920897445477,-0.46999111133554483,9.832271070583712,30.327380246657537
0.0054,0.9559,0.206,-0.1591,0.1575,0.0621,-1.75,0.8575,-14.84,12.161189277805292,0.18475009433253983,9.871940957366217,30.33981859023612
0.0087,0.9523,0.202,-0.1596,0.1594,0.0622,-2.3187,1.015,-14.6912,11.976478307005962,0.45575888224806466,9.963338950578725,30.34879812226844
0.0063,0.9536,0.2019,-0.1596,0.1594,0.0622,-2.625,1.0587,-15.0325,11.954413891117236,0.38511632360725356,9.959812138068703,30.36090413963788
0.0045,0.9563,0.2006,-0.1598,0.159,0.0586,-2.2662,1.2075,-15.8638,11.84728376180964,0.28543040996800095,8.832682799363202,30.372805948037488
-0.0016,0.9534,0.2054,-0.1586,0.1583,0.0592,-2.0388,1.1462,-16.0125,12.15707380252534,-0.02724950890106222,8.778211425880617,30.38492364460278
-0.0034,0.9486,0.2054,-0.1586,0.1583,0.0592,-1.9775,0.4112,-16.2225,12.217452573884543,-0.17368840065516572,8.700108120652057,30.398643160574434
-0.001,0.9508,0.2067,-0.1596,0.1578,0.0609,-2.4237,0.7962,-15.9075,12.264890235097994,-0.07790964135651092,9.238262719367095,30.409055694545852
-0.0035,0.9539,0.2013,-0.1596,0.1578,0.0609,-1.6625,1.4437,-15.225,11.91717989012282,-0.18197438069882538,9.568281542407746,30.418053630159505
-0.0027,0.9553,0.202,-0.1595,0.1574,0.0666,-1.9425,1.3562,-15.05,11.93936748323637,-0.1627336635519395,11.516504642066945,30.430203532992135
0.0009,0.9563,0.2058,-0.1593,0.1575,0.0581,-2.9575,1.0237,-14.4725,12.144496479269337,0.015614044502250006,8.459393123806594,30.442322291302503
-0.0004,0.95,0.2069,-0.1593,0.1575,0.0581,-3.4213,0.7175,-14.6387,12.286155563897346,-0.017161910627017295,8.301423174275216,30.454484581161033
0.0029,0.9449,0.2078,-0.1594,0.1577,0.0606,-3.0188,0.5688,-15.365,12.402578508782575,0.14157513829615598,9.051209003134328,30.46659980032114
0.0073,0.9425,0.2076,-0.1594,0.1577,0.0606,-2.2313,0.4375,-15.575,12.421859621782382,0.3877363996130046,9.075273575247538,30.47873271523254
0.0132,0.9411,0.2144,-0.1602,0.1582,0.0609,-1.015,1.4175,-14.9012,12.832844198678915,0.7103997884077465,8.727672750528688,30.49083377779162
0.0101,0.9415,0.2073,-0.1602,0.1582,0.0609,-0.6388,1.9512,-14.175,12.418447902170305,0.6228192183369264,9.12807590624947,30.499791367092346
-0.0022,0.9412,0.2085,-0.1602,0.1563,0.0578,-0.7875,2.3013,-12.6,12.490570683762842,0.035618644572283184,8.021544732788321,30.51193985426487
-0.012,0.9558,0.2038,-0.1609,0.1571,0.061,-0.805,1.9687,-12.6875,12.037881887177319,-0.5514756949149667,9.373350189033648,30.524105683273657
-0.0138,0.9731,0.2036,-0.1609,0.1571,0.061,-1.1112,1.6275,-13.1075,11.818038819811054,-0.7484123656465919,9.576699177838224,30.536298409824397
-0.0168,0.9736,0.1991,-0.1586,0.1578,0.0602,-1.0937,0.21,-13.4225,11.558292413228541,-0.9352842731063498,9.622729228106001,30.54845963793785
-0.0323,0.9695,0.187,-0.1586,0.1578,0.0602,-1.6362,-0.84,-14.2275,10.919104045430847,-1.7513262208192542,10.106365826520573,30.560689171651266
-0.0605,0.985,0.1848,-0.1616,0.1573,0.0594,-2.94,-2.5288,-14.42,10.626801695329851,-3.2726544588877946,9.732070483720547,30.57293109239058
-0.1175,1.0044,0.1634,-0.1602,0.1581,0.0627,-3.78,-5.6087,-12.775,9.244078970908417,-6.320208808536043,11.574441962393434,30.585040294995252
-0.2582,1.0774,0.1369,-0.1602,0.1581,0.0627,-5.4688,-11.4012,-11.41,7.247166663713148,-12.986356949472079,12.294171177944259,30.59411963106482
-0.2873,1.1211,0.1251,-0.1634,0.1562,0.0646,-15.9337,-32.7425,-11.62,6.369685331794565,-14.255720577919407,13.291969909122269,30.606406145097374
-0.2907,1.165,0.1172,-0.1634,0.1562,0.0646,-24.7187,-46.1037,-12.0225,5.746550500521498,-13.949073970846483,13.828976225714934,30.61864983541182
-0.281,1.1836,0.1176,-0.1628,0.1574,0.0746,-33.9588,-60.7687,-11.9875,5.674388133509995,-13.302012731650438,16.651317823149125,30.630934933784268
-0.3016,1.1411,0.1078,-0.1641,0.1561,0.0821,-43.9687,-75.0575,-11.8562,5.397613245205208,-14.724735960123647,18.515568160851558,30.6431977355101
-0.3883,1.158,0.1021,-0.1641,0.1561,0.0821,-53.4888,-90.8775,-11.5587,5.039874134272896,-18.432204899625024,18.187839902012666,30.65550513052917
-0.4168,1.1778,0.0946,-0.1674,0.1562,0.0943,-63.2013,-108.7713,-11.7163,4.593612902615521,-19.421363936555277,21.00907327824527,30.667824558659117
-0.4007,1.1738,0.0813,-0.1695,0.1582,0.1153,-74.0163,-128.7212,-10.7362,3.964326886944172,-18.811018541886337,25.946669050561603,30.680114611841926
-0.3249,1.1349,0.075,-0.1695,0.1582,0.1153,-85.085,-147.7962,-9.4675,3.7815720372861934,-15.960947199529246,26.65322916091118,30.6923614873916
-0.1369,1.0269,0.0828,-0.1774,0.1604,0.1394,-101.5263,-176.9162,-7.4988,4.606618995912498,-7.614937514952833,32.42810758169632,30.707883492589197
-0.0725,1.0015,0.0725,-0.1774,0.1604,0.1394,-107.0738,-186.7337,-8.5225,4.142355065724909,-4.14773585401462,33.96727638087075,30.720272641979207
-0.0569,0.958,0.0909,-0.1877,0.164,0.1682,-111.6325,-194.145,-9.7475,5.415111717108495,-3.3877024294461973,37.509615746429,30.732561279501915
-0.0608,0.8858,0.1104,-0.1964,0.1672,0.1926,-113.7413,-202.3,-12.285,7.097409989071378,-3.894053716010735,39.21819334073,30.744952906297105
0.0734,0.8489,0.1044,-0.1964,0.1672,0.1926,-112.9363,-210.2187,-15.0412,7.011534142930852,4.864468096101293,43.56912959957479,30.75725746999597
0.1678,0.8434,0.1149,-0.2106,0.1737,0.217,-112.1225,-215.775,-17.1238,7.754858451754036,11.123795736217767,48.802297080684895,30.769580437276172
0.2553,0.8157,0.1383,-0.2265,0.1798,0.2456,-111.0375,-218.1638,-19.2413,9.6152978867834,17.122340769713837,54.35800871724599,30.781867659138776
0.3554,0.7624,0.1778,-0.2265,0.1798,0.2456,-109.7163,-216.93,-23.5637,13.113242067125405,24.384385405970566,60.80670280205295,30.794177531563026
0.363,0.7546,0.2004,-0.2427,0.1874,0.2685,-104.8163,-207.7162,-25.9875,14.865859284331703,24.932725021755793,61.524918823986624,30.806497667523022
0.3754,0.7612,0.2147,-0.2427,0.1874,0.2685,-101.5438,-202.79,-28.1487,15.747903737316786,25.38914840941966,61.93350703080226,30.818817449567995
0.4202,0.759,0.2273,-0.2602,0.1959,0.2905,-99.1025,-197.8025,-29.5925,16.66797464085806,27.9268574142272,65.13890575624069,30.83110891841091
0.5259,0.7255,0.2596,-0.2779,0.2049,0.3082,-96.0225,-189.455,-28.8663,19.676820883924936,34.28108926669401,74.27331933838782,30.843373135796842
0.5162,0.6903,0.2997,-0.2779,0.2049,0.3082,-93.415,-179.5937,-27.8862,23.45419788526997,34.44661419423868,75.12150696460756,30.855620011346517
0.4771,0.6503,0.3264,-0.2932,0.2126,0.3234,-89.1975,-169.1463,-27.6675,26.64120305853948,33.25970976598542,72.39673591480911,30.8679344846661
0.4374,0.622,0.35,-0.3116,0.2214,0.339,-84.4113,-160.44,-28.2712,29.35654945287682,31.51267095144335,67.35063913707592,30.880197286391933
0.4243,0.6082,0.3694,-0.3116,0.2214,0.339,-78.1025,-154.5513,-34.055,31.26623252176149,30.81066517276208,65.24968812099092,30.892485569999614
0.4721,0.6151,0.3685,-0.3251,0.2294,0.3494,-62.9212,-146.2037,-36.2163,30.92653968127241,33.34444558352221,70.44658605739558,30.90500212879888
0.5047,0.6399,0.3718,-0.3251,0.2294,0.3494,-55.5713,-140.665,-37.59,30.160338729861383,34.28600602060758,72.77204955040575,30.917215028506085
0.5064,0.6673,0.3814,-0.3402,0.2338,0.3551,-49.4463,-132.8338,-38.0713,29.751756178611352,33.38558629485276,68.57513843537123,30.929296271823727
0.4909,0.6914,0.3881,-0.3526,0.2363,0.3631,-45.2725,-125.4925,-37.9663,29.30800223210393,31.77543673216355,64.06169191976865,30.94161003731326
0.4964,0.7158,0.3877,-0.3526,0.2363,0.3631,-41.0288,-118.825,-38.5612,28.444112875386732,31.377568182909428,63.55327950046472,30.953889826960328
0.5358,0.7193,0.3812,-0.3668,0.2406,0.3677,-37.94,-112.7525,-38.3862,27.923416682896562,33.33545683810279,65.9173699585281,30.966165369627085
0.5746,0.7291,0.3805,-0.3762,0.2452,0.375,-33.7313,-104.7988,-37.3625,27.560110999999527,34.926604915237654,68.89521593987679,30.97844940625446
0.5811,0.746,0.3801,-0.3762,0.2452,0.375,-28.84,-95.1125,-37.6425,27.00133621944181,34.76440970160014,68.57873063559039,30.99065770506633
0.5341,0.7407,0.3897,-0.3826,0.2484,0.3755,-23.0387,-74.5675,-36.6012,27.747699189970255,32.57096251387513,63.04063871455262,31.00292227636729
0.5177,0.7354,0.3855,-0.3826,0.2484,0.3755,-19.9412,-66.605,-35.14,27.6639793659912,31.952006896326903,61.89590386984897,31.015160657956347
0.5041,0.7347,0.3847,-0.3906,0.2482,0.3753,-16.2225,-58.9837,-34.58,27.637310732039897,31.30310819651284,59.28426149332845,31.027376742898785
0.4947,0.7337,0.3834,-0.3978,0.2488,0.3773,-12.0662,-51.5025,-32.83,27.589766451039246,30.869371950710665,57.66912532429877,31.036393082093777
0.4753,0.7282,0.3836,-0.3978,0.2488,0.3773,-8.8462,-45.1587,-30.8787,27.77874844093484,30.022218076418998,56.08826976997811,31.048627924532575
0.4164,0.7338,0.3805,-0.3978,0.2485,0.377,-6.055,-39.2875,-29.5662,27.40931094885273,26.80834563707784,51.07366040614742,31.06082135891337
0.405,0.7451,0.3766,-0.3978,0.2485,0.377,-3.1763,-35.5513,-27.5187,26.81533191454068,25.900321951006827,50.20832114603186,31.073085576299302
0.4132,0.7598,0.3636,-0.4026,0.2517,0.381,-0.315,-32.8475,-26.0925,25.576774729240423,26.124491607786993,51.19005037722147,31.08522804691639
0.4355,0.777,0.3492,-0.4045,0.2501,0.3774,2.5463,-30.0212,-25.27,24.20395937713768,27.051743237753907,52.43508782371295,31.097418649976976
0.454,0.8003,0.3411,-0.4045,0.2501,0.3774,3.815,-26.9675,-23.8612,23.08752999420312,27.54341941966443,53.594217501672354,31.10958978771115
0.452,0.7986,0.3346,-0.4069,0.248,0.3763,4.8562,-22.2337,-23.5812,22.733842798609935,27.56480561571823,53.2556726225523,31.121769773320967
0.4345,0.7996,0.3213,-0.4069,0.248,0.3763,6.545,-13.4925,-21.8663,21.893848452885546,26.797545542927146,52.55877632467814,31.133956129401245
0.4306,0.8027,0.3121,-0.4077,0.2471,0.3818,5.4513,-10.2025,-20.6588,21.24849542676562,26.577707980564902,53.12023141089884,31.142865232343446
0.427,0.8188,0.3088,-0.4082,0.2451,0.3738,5.5475,-7.0175,-18.2175,20.664937333079497,26.050930040504475,51.629877121121645,31.155008410790586
0.4272,0.8241,0.3065,-0.4082,0.2451,0.3738,4.9175,-3.2375,-16.8525,20.401944987739526,25.92726410516426,51.619842787415756,31.167164684093677
0.3873,0.8068,0.3198,-0.4089,0.2441,0.373,3.6663,0.1925,-15.4962,21.619050303018646,24.332402162216972,48.78940047242637,31.179237079535678
0.3685,0.8006,0.3278,-0.4089,0.2441,0.373,3.8763,2.2313,-14.9537,22.264511625588366,23.346010738358288,47.41127177861694,31.1913317716243
0.3628,0.7834,0.3187,-0.4085,0.2432,0.3759,4.2875,2.065,-14.1138,22.137650846289954,23.24479379946608,48.02789534804742,31.200209022214185
0.3818,0.7967,0.3209,-0.4085,0.2432,0.3759,5.4425,2.7037,-14.3413,21.939456544249943,23.79141680673339,48.93800420792229,31.21231645524373
0.4143,0.809,0.3171,-0.4083,0.2442,0.3726,6.9388,4.41,-14.8925,21.404928003737226,24.78923682901914,50.54154587079489,31.224403007286757
0.4406,0.8233,0.3205,-0.4078,0.2444,0.3702,6.3263,6.7463,-15.3475,21.270686378586674,25.609695464830004,51.571797517344116,31.236531321302817
0.4371,0.8125,0.3184,-0.4078,0.2444,0.3702,6.4663,9.4237,-15.3825,21.398714712313357,26.388684032612655,51.640274969566896,31.248547798170755
0.3378,0.7971,0.3247,-0.4049,0.2419,0.3682,5.5213,12.2587,-15.61,22.16150350803604,22.096405545146432,45.63256298439758,31.25757121566626
0.303,0.7927,0.3391,-0.4049,0.2419,0.3682,5.18,12.67,-15.05,23.1574491594823,19.711813491638072,43.084592075923,31.26966166077457
0.2991,0.7907,0.3417,-0.4046,0.2399,0.369,5.8538,11.095,-13.4925,23.37093755527192,19.238706518652446,42.91517543727017,31.28180094615643
0.3168,0.7835,0.3289,-0.4045,0.2382,0.367,7.035,8.3125,-12.5037,22.773477126958404,20.09968007590915,44.25587460874055,31.293902008715513
0.3425,0.7943,0.3345,-0.4045,0.2382,0.367,8.8462,6.2038,-12.11,22.837027801015097,20.52709983140067,45.41630381431384,31.30595281534094
0.3664,0.794,0.331,-0.4034,0.2384,0.3667,9.2225,5.9763,-11.7425,22.63067488504044,20.850380796623604,47.05709596930781,31.314852008662424
0.3768,0.7745,0.3318,-0.4034,0.2384,0.3667,9.9575,6.58,-12.0225,23.189034186789193,22.239798561261637,47.88596182709637,31.326962980842225
0.3679,0.764,0.3332,-0.405,0.2369,0.3633,10.6575,7.49,-12.3025,23.562236654376633,23.22349138010922,46.749955118107366,31.33907289127695
0.365,0.7654,0.3267,-0.405,0.2369,0.3633,11.1037,7.8925,-12.32,23.11572885739323,23.532172393623313,46.84354968337937,31.35119483482255
0.3687,0.7727,0.3267,-0.4029,0.235,0.3587,13.475,8.0237,-11.8912,22.919324615876793,23.66461752855591,46.64157854579423,31.363356770766053
0.378,0.7814,0.3218,-0.4057,0.2315,0.3606,16.7388,8.575,-10.57,22.384515129919002,23.98299572477877,47.23240552990136,31.372260918897894
0.3896,0.7847,0.3193,-0.4057,0.2315,0.3606,18.7775,9.5725,-10.0187,22.14240033623847,24.546268230364557,47.99498512854268,31.384386755508775
0.4061,0.8057,0.3157,-0.4043,0.2286,0.3569,19.5912,11.095,-9.485,21.398867185529234,25.045523588368926,48.493150706966865,31.39648604849273
0.3777,0.8055,0.3101,-0.4043,0.2286,0.3569,19.53,12.0225,-9.6075,21.056529940013753,23.830170153237404,47.067603978050606,31.409658411834634
0.3451,0.8155,0.3078,-0.4018,0.2287,0.3558,20.4487,12.5562,-9.6687,20.679368424619074,21.88806691412302,45.40705063606841,31.420766388831574
0.3373,0.8425,0.2965,-0.4005,0.2253,0.3564,19.2062,11.0775,-9.345,19.391857443358536,20.881059663568198,45.39809031191003,31.432923723879743
0.3314,0.852,0.2898,-0.4005,0.2253,0.3564,19.0312,9.6425,-8.9337,18.786874094671777,20.35430324027433,45.26127659717115,31.4417977892344
0.3401,0.8563,0.2792,-0.4002,0.2231,0.3498,17.43,8.3912,-9.0913,18.06070053824071,20.593540771380475,45.24564365926911,31.453986976634884
0.3759,0.8638,0.2758,-0.4002,0.2231,0.3498,15.6712,7.3063,-9.59,17.70854425045745,21.739773600956653,46.98735508271741,31.466000976097643
0.3725,0.862,0.2741,-0.399,0.2214,0.3504,13.685,7.175,-10.9287,17.639883250536453,22.108419448423867,47.076116930638065,31.47812398138832
0.3588,0.8627,0.2635,-0.399,0.2214,0.3504,11.6462,7.7788,-11.7862,16.9863513523501,21.832487125409344,46.72220140305146,31.490257604129763
0.3428,0.8624,0.269,-0.4004,0.2194,0.3446,9.1787,6.895,-13.5012,17.32283810619422,21.289825037549893,45.00067238706198,31.499125652928985
0.3396,0.8561,0.2609,-0.3994,0.2182,0.3461,7.2713,5.2588,-13.65,16.94983907822041,21.10411739635183,45.41843758881983,31.511234147703604
0.3489,0.8575,0.2576,-0.3994,0.2182,0.3461,5.18,3.3513,-13.44,16.721327302249325,21.23637578588688,45.92864655443602,31.52331680668135
0.3867,0.8495,0.2563,-0.3996,0.218,0.3448,3.8238,2.4675,-13.6325,16.788737737777407,23.018086256578478,47.689538882621775,31.53543025626633
0.3877,0.8402,0.2569,-0.3996,0.218,0.3448,2.415,2.9925,-14.6387,17.0009741561507,23.604043931049198,47.854336480416244,31.54434112878366
0.3704,0.8325,0.2657,-0.3984,0.219,0.3435,1.2075,4.3575,-14.2887,17.699012335155484,23.22646880069686,46.816399385852556,31.556448561813205
0.349,0.8278,0.2658,-0.3984,0.219,0.3435,0.7437,4.6025,-15.7325,17.801126339633612,22.479444846742705,45.801749804203894,31.56844557335473
0.3424,0.8245,0.2768,-0.3982,0.2174,0.3397,0.0613,3.5613,-17.0713,18.55574909319223,21.791935183626613,44.71079826305832,31.580573533455766
0.3494,0.8182,0.2709,-0.3999,0.2166,0.3426,-0.385,2.52,-16.6775,18.3199878808741,22.003397610578805,45.47796132657603,31.59271883539306
0.3645,0.8367,0.2637,-0.3999,0.2166,0.3426,-0.0438,1.855,-17.71,17.495425333115463,22.450167430148703,46.24477084435612,31.60168173341917
0.3914,0.8315,0.2657,-0.3984,0.217,0.345,-0.0263,3.0625,-17.325,17.720286851213363,23.69928662441436,48.050812671830755,31.61378527338343
0.3881,0.8361,0.2668,-0.3984,0.217,0.345,-0.0788,3.4738,-16.6425,17.697976035399453,23.80897801260897,47.78420763975637,31.625896953393283
0.3757,0.8383,0.2643,-0.3976,0.2166,0.3431,-0.175,4.27,-16.66,17.499624461696964,23.40322470610309,47.06376689564623,31.638065259807252
0.3595,0.8389,0.2555,-0.3969,0.2174,0.3466,-0.6737,4.8125,-15.9862,16.940494808111445,22.842078678002117,47.00813343988011,31.65040096802838
0.3558,0.8382,0.2635,-0.3969,0.2174,0.3466,-1.33,4.725,-14.7437,17.449845610380287,22.423612251498295,46.600009150188534,31.662279064121265
0.3608,0.8344,0.2628,-0.3965,0.2166,0.3431,-1.5225,4.9175,-13.79,17.48208780264026,22.418503188858402,46.537269638368514,31.67122568205619
0.3845,0.8348,0.2601,-0.3965,0.2166,0.3431,-2.0213,5.7663,-13.8075,17.30604820501789,22.498275952602995,47.79525714926854,31.683362136117843
0.3864,0.83,0.2625,-0.3937,0.2151,0.3447,-1.7675,6.9475,-13.6237,17.54965795251072,23.25633252505744,48.367599673119095,31.695490450133903
0.3805,0.831,0.2769,-0.3937,0.2151,0.3447,-2.1438,7.7788,-14.1575,18.42627505597214,23.40423914282396,47.61799074936289,31.70759363618314
0.3653,0.8225,0.2791,-0.3946,0.218,0.3414,-3.255,8.19,-15.2163,18.742789032921813,22.987327096733562,46.39907178237914,31.719741415525615
0.3428,0.8141,0.2829,-0.3937,0.2174,0.3424,-3.8063,8.7062,-15.8112,19.161171506280862,22.024798693296677,45.42164603941445,31.731827967568645
0.3163,0.8112,0.2893,-0.3937,0.2174,0.3424,-2.2313,7.8138,-16.2488,19.626557925453426,20.789277877178037,43.89273673934408,31.740790511679727
0.3238,0.815,0.2882,-0.394,0.2162,0.3432,-1.925,5.8362,-16.6775,19.475020615742597,20.787884172148555,44.341419514148676,31.752930858806664
0.3402,0.8232,0.2866,-0.394,0.2162,0.3432,-2.0213,3.92,-15.9775,19.196527359650652,21.13725796449813,45.142345903106616,31.765056341502518
0.3571,0.8303,0.2842,-0.393,0.2152,0.3378,-1.2163,2.9663,-15.5137,18.89619668611267,21.88188579040514,45.44537187489105,31.77721686178592
0.3614,0.8403,0.2857,-0.3916,0.2166,0.3458,-0.7263,2.835,-14.91,18.778241779734824,22.087238838560037,46.63429473000235,31.789328541795772
0.3647,0.8321,0.2819,-0.3916,0.2166,0.3458,-2.31,2.695,-14.49,18.715600543181754,22.43356149099496,47.01388308655576,31.798278698880956
0.3594,0.8235,0.2862,-0.3908,0.2159,0.3433,-2.7388,2.7825,-14.42,19.163172201683587,22.410975627178043,46.48144141308948,31.810369143989266
0.3603,0.8226,0.2843,-0.3908,0.2159,0.3433,-2.2313,2.59,-14.805,19.06601057858853,22.47007703208478,46.60035543774482,31.822528956442618
0.3654,0.8221,0.2805,-0.3939,0.2152,0.3403,-2.1438,2.5463,-15.0062,18.840244332956722,22.734123270022057,46.28444319699144,31.834637451217237
0.3715,0.8289,0.281,-0.3939,0.2152,0.3403,-1.3912,2.38,-14.7525,18.727156399784636,22.93960843706339,46.50001611755958,31.84680965069649
0.379,0.8356,0.284,-0.3938,0.2155,0.34,-2.8087,3.1412,-14.6475,18.77151566615964,23.15905192436879,46.681515393793234,31.85893194815711
0.3746,0.8332,0.2854,-0.3906,0.2168,0.3422,-2.8612,3.605,-14.175,18.907732543682105,23.07800306601802,47.07416126220298,31.867811322237152
0.3508,0.8213,0.2924,-0.3906,0.2168,0.3422,-3.4563,3.57,-14.105,19.59485258812835,22.27458954289876,45.74336929223914,31.879976443415888
0.3488,0.8132,0.2916,-0.3926,0.2163,0.3431,-3.9463,3.43,-14.1312,19.726616697783264,22.07113942617064,45.63646906211938,31.892088477340767
0.3578,0.8142,0.2913,-0.3926,0.2163,0.3431,-3.0888,2.66,-13.8863,19.686028875741624,22.380508687870545,46.10416948109934,31.90424050366355
0.368,0.8123,0.2879,-0.3923,0.2178,0.3381,-2.7213,2.3538,-14.105,19.516114241758295,22.957046534538602,46.20157936652844,31.916324224386372
0.3772,0.8199,0.2961,-0.3918,0.2151,0.3429,-2.3013,2.5113,-14.1487,19.855802994678065,23.29614129139883,46.954132108558476,31.928437673971356
0.3763,0.8183,0.2856,-0.3918,0.2151,0.3429,-1.7675,2.485,-14.0612,19.241545115530077,23.42931827480048,47.27918593669715,31.93739667893218
0.3561,0.823,0.2944,-0.3925,0.2155,0.3434,-1.8025,3.36,-14.2275,19.681688026760003,22.530119053922295,45.86546318773578,31.94954410435963
0.3529,0.825,0.3013,-0.3925,0.2155,0.3434,-2.4063,3.0713,-13.8687,20.06173538563376,22.060464401641006,45.44424700758175,31.961683035826464
0.3558,0.815,0.2933,-0.3922,0.2163,0.3439,-2.4237,2.5813,-14.315,19.793408633298807,22.267782975609162,46.06418835226873,31.973780205320264
0.3639,0.8172,0.2902,-0.3922,0.2163,0.3434,-2.0825,1.7062,-14.735,19.551396352590714,22.667377301844443,46.50972235228837,31.985941787348743
0.371,0.8189,0.2932,-0.3922,0.2166,0.3434,-1.6538,1.015,-14.665,19.69904842025113,23.02542952741378,46.763752984081506,31.994865400806997
0.3812,0.8216,0.2898,-0.3913,0.2142,0.3422,-2.5025,1.0937,-15.4612,19.42984950176367,23.526141967117137,47.31933676865182,32.00698203562721
0.3828,0.8261,0.2904,-0.3913,0.2142,0.3422,-1.0062,2.8525,-15.9862,19.368343228943317,23.591112598937297,47.326478334501054,32.01909548521219
0.3745,0.821,0.2915,-0.3893,0.2155,0.3426,-1.295,3.2113,-15.5225,19.547148999728215,23.352163012940398,47.20135427893278,32.03124184889457
0.3576,0.8188,0.2898,-0.3893,0.2155,0.3426,-2.24,4.0687,-16.0737,19.49068951969423,22.730360953802975,46.396000560014045,32.04338573517176
0.3426,0.8124,0.2902,-0.3898,0.216,0.3442,-1.5137,3.605,-16.0387,19.656930930958705,21.991703574431877,45.811003837608276,32.05556430512147
0.3409,0.8134,0.2896,-0.3897,0.2156,0.3417,-1.085,3.3338,-15.7412,19.59774611891926,21.67305763485928,45.43977747162378,32.064433769580795
0.3493,0.8194,0.2944,-0.3897,0.2156,0.3417,-1.4962,2.0125,-15.6538,19.762255249524355,21.820923654514207,45.647596953363156,32.07654969657095
0.372,0.825,0.2846,-0.3914,0.2153,0.3419,-0.9713,1.1462,-15.61,19.034923931943954,22.86390009270456,46.92634240807548,32.08869676808338
0.3739,0.8309,0.2857,-0.3914,0.2153,0.3419,-1.1638,1.7587,-16.0825,18.975392732005027,23.01470574538556,46.918434348042574,32.100893033784374
0.3714,0.8287,0.2877,-0.3894,0.2161,0.3423,-1.7937,1.8812,-15.82,19.145003773908982,22.960655877462862,47.027889329773025,32.11301249992479
0.3589,0.8272,0.284,-0.3887,0.2149,0.3424,-2.0038,2.3363,-15.6012,18.949275104206585,22.455827500476932,46.60370832331078,32.125041009903605
0.3392,0.8259,0.2859,-0.3887,0.2149,0.3424,-2.0738,2.8612,-14.7,19.093799965347714,21.525047460122035,45.560223783765515,32.134032575046795
0.3341,0.8222,0.2874,-0.3886,0.2137,0.3422,-2.4938,1.8812,-14.3762,19.266586040827764,21.095141113668166,45.27206760114591,32.146140361991364
0.3454,0.8201,0.2894,-0.3886,0.2137,0.3422,-1.5837,1.0587,-14.0525,19.43663318496978,21.563151975492147,45.78963910047081,32.15828849524887
0.3615,0.8218,0.2896,-0.389,0.2133,0.3438,-0.7962,0.3325,-14.665,19.412381796947837,22.383439578542074,46.739164424666754,32.17043238152606
0.3707,0.8222,0.283,-0.389,0.2133,0.3438,-0.3325,0.2538,-15.015,18.994556254069803,22.98203147917828,47.42744174469843,32.18253556757529
0.3608,0.8277,0.285,-0.3895,0.2142,0.3445,-0.8487,0.2888,-15.9075,18.999986898728718,22.48845729893351,46.8239477766794,32.19147864635997
0.345,0.8289,0.28,-0.3904,0.2148,0.3417,-1.155,0.4025,-16.1525,18.665756702426865,21.671098525169437,45.74840056556914,32.20359209594495
0.3318,0.8332,0.2803,-0.3904,0.2148,0.3417,-1.1112,-1.1812,-16.38,18.593852936074583,20.802310774360098,45.05553604406856,32.21576889631953
0.3253,0.8392,0.2795,-0.3889,0.2133,0.3406,-0.9975,-1.33,-14.7788,18.421094884208415,20.26678450151946,44.74926785797995,32.22791632174698
0.3393,0.8393,0.2764,-0.3889,0.2133,0.3406,-0.6737,-2.5813,-13.825,18.228394410834646,20.927249153474264,45.51127185285927,32.240174168662456
0.351,0.8376,0.2783,-0.3908,0.2124,0.3434,-1.8463,-3.115,-13.4575,18.379099191259904,21.6102729572777,46.15855446648664,32.25229752786815
0.3669,0.8356,0.2807,-0.3906,0.214,0.3417,-2.5288,-2.9575,-13.37,18.568020580265227,22.497505589082206,46.72072555797835,32.26441310094329
0.377,0.8312,0.2772,-0.3906,0.214,0.3417,-2.3363,-2.695,-13.09,18.44357078660501,23.19832399132754,47.39700161057628,32.27343404103362
0.3742,0.8331,0.2652,-0.3918,0.2139,0.3412,-2.31,-1.3212,-12.425,17.65999569513625,23.17443102249289,47.40391178448763,32.28555315325901
0.3745,0.8322,0.2724,-0.3918,0.2139,0.3412,-2.415,-0.7088,-11.5412,18.12326845648595,23.158094528656402,47.21209463210412,32.297732431038774
0.3736,0.8267,0.2749,-0.3926,0.2134,0.3418,-2.6425,0.3675,-10.6487,18.39259540827572,23.202903127368053,47.13758600356924,32.309866407695246
0.3764,0.824,0.2731,-0.3931,0.2145,0.3426,-2.59,0.7613,-10.955,18.337007141732617,23.402296198846063,47.42479468848206,32.32201100180249
0.3827,0.8179,0.2689,-0.3931,0.2145,0.3426,-3.395,1.61,-10.9462,18.199639796633573,23.857303229980516,47.96824330527641,32.334109586956394
0.3844,0.8203,0.2727,-0.3946,0.215,0.3408,-3.3338,1.9162,-11.3225,18.388304222485694,23.950088300455587,47.52618687734399,32.34619543116937
0.3783,0.8248,0.275,-0.3946,0.215,0.3408,-2.8175,2.6688,-12.1187,18.438973760565148,23.619015209366964,47.07504907938037,32.35515231264004
0.3764,0.8276,0.2743,-0.394,0.2125,0.3413,-2.73,3.4563,-12.9675,18.33756339723471,23.430109108099202,47.06453793472466,32.367451213698494
0.3695,0.8276,0.2722,-0.394,0.2125,0.3413,-3.01,3.7625,-13.09,18.206552639689335,23.128589911025017,46.78118192688613,32.37939761539134
0.3715,0.8246,0.2785,-0.3942,0.2141,0.3442,-3.0625,3.9288,-13.8425,18.660575818911393,23.11933417145843,47.062152291042835,32.39153796251828
0.3806,0.824,0.2843,-0.3933,0.213,0.3403,-3.185,3.9725,-14.9625,19.034620834265652,23.423871744307657,46.96905137434334,32.40368715752086
0.3825,0.8164,0.2758,-0.3933,0.213,0.3403,-3.535,4.4275,-15.3475,18.66727166660192,23.722472808650082,47.44288943365388,32.41263306762573
0.3753,0.8179,0.2789,-0.3931,0.2141,0.3413,-3.1937,4.9175,-15.8287,18.828675727637705,23.60455143158853,47.101657121609556,32.42478120088323
0.3648,0.8232,0.2836,-0.3931,0.2141,0.3413,-3.36,5.145,-16.7825,19.008793613641178,23.249945536435263,46.341375309464894,32.43687907820708
0.3519,0.8194,0.2826,-0.3901,0.2134,0.3389,-3.2462,4.76,-14.8487,19.028567049944765,22.65369249446408,45.78901052770394,32.44881981725952
0.3484,0.8231,0.2865,-0.3936,0.215,0.3406,-2.835,4.515,-14.3062,19.191237534540655,22.162544414066886,45.28095450224038,32.461286827955185
0.3539,0.8183,0.2879,-0.3936,0.215,0.3406,-3.0275,3.5525,-14.9362,19.38270605061691,22.184353376542205,45.556754531610046,32.47320987125633
0.3669,0.8262,0.2885,-0.3906,0.2154,0.3412,-2.4763,3.0188,-15.8638,19.24901961690105,22.59876989901148,46.523053058328884,32.48263498230602
0.3759,0.8253,0.283,-0.3906,0.2154,0.3412,-2.3187,2.9225,-16.1963,18.928033469132146,23.126913111544663,47.18295185191773,32.4947222421791
0.3805,0.8254,0.2853,-0.3913,0.2154,0.3441,-2.1175,2.555,-16.4675,19.067346828900604,23.445335367266946,47.62421641633936,32.50690116604383
0.3743,0.8247,0.2911,-0.3913,0.2154,0.3441,-1.5137,3.4563,-16.695,19.44080219072531,23.25165650710341,47.118176505245685,32.51882774849524
0.3649,0.824,0.2846,-0.3908,0.2142,0.3438,-2.0038,4.165,-16.7737,19.05540077631811,22.915091249711683,46.861265113739805,32.53089448129683
0.3586,0.8255,0.2905,-0.3902,0.2122,0.3411,-2.5725,3.9113,-16.1437,19.386441736732497,22.499113783321008,46.055277838339876,32.54284088298968
0.3637,0.8156,0.2901,-0.3902,0.2122,0.3411,-1.995,3.885,-15.8112,19.57937347026124,22.690850625155246,46.436075955534044,32.55220936763525
0.3714,0.8155,0.2908,-0.3898,0.2126,0.3414,-1.8112,3.9463,-15.6887,19.625649181209404,23.035124919201703,46.901307344446266,32.56426902213632
0.3803,0.8148,0.2896,-0.3898,0.2126,0.3414,-0.63,4.27,-15.5137,19.56663215677011,23.46430969971028,47.423122943015265,32.57628939206954
0.3861,0.8142,0.2907,-0.3902,0.2152,0.3328,-1.1375,4.4713,-14.98,19.648245294319175,23.81061301544241,46.59459977860107,32.587943813866175
0.39,0.8151,0.2909,-0.3887,0.216,0.3365,0.0963,8.4087,-16.4412,19.640929941342844,24.132802295031603,47.441381109762915,32.60016449970395
0.3904,0.8148,0.2838,-0.3887,0.216,0.3365,0.315,9.3013,-16.0387,19.20477035419661,24.297969461397063,47.71085457875096,32.60873950686188
0.3891,0.7966,0.2927,-0.3854,0.2128,0.3393,1.6362,11.0513,-16.0562,20.172483938727655,24.57708281224164,48.305920816261825,32.62095523788929
0.4008,0.7859,0.2952,-0.3854,0.2128,0.3393,2.3888,12.7312,-15.3475,20.586048350864882,25.401288328288473,49.066791003744115,32.63315822797578
0.42,0.7809,0.293,-0.3858,0.2133,0.3371,4.3838,15.3825,-15.295,20.5665513314098,26.602335222575398,50.06360247359744,32.64533361269026
0.4426,0.7775,0.2944,-0.3858,0.2133,0.3371,6.1775,19.2938,-14.9012,20.73867363221295,27.93097485380563,51.495349620367946,32.65780416253618
0.4543,0.7726,0.297,-0.3816,0.2114,0.3371,8.3387,23.9575,-15.0237,21.026783481655517,28.717135602731386,52.77969689946355,32.669816038508785
0.4595,0.7607,0.2953,-0.3801,0.2105,0.3362,11.3837,29.9687,-14.6475,21.215455684680904,29.357684359817537,53.550618568605074,32.679230178192675
0.4629,0.7474,0.2976,-0.3801,0.2105,0.3362,15.4,36.015,-13.4312,21.710148434776208,29.898617279721723,54.07508966644996,32.691308236275084
0.4733,0.7494,0.2977,-0.3786,0.2077,0.3322,19.6612,43.0587,-10.4475,21.665624543356035,30.397592978462438,54.304324629384524,32.703411068409295
0.4843,0.7554,0.2935,-0.3786,0.2077,0.3322,23.3625,51.0387,-5.4688,21.234067954076334,30.852293123476855,55.03004121761181,32.71551743969376
0.4897,0.754,0.2941,-0.3721,0.2073,0.3285,27.6763,59.675,-0.0175,21.308229215701026,31.170970240509625,55.835118341851114,32.727576740279815
0.5012,0.7591,0.28,-0.3649,0.2044,0.324,32.4362,68.3025,5.0838,20.249608582559734,31.766954166113585,57.22415683032195,32.73954260729907
0.5183,0.7651,0.2755,-0.3649,0.2044,0.324,37.5025,77.3763,9.4412,19.804247158671284,32.50179192224386,58.32616297176883,32.748742982307434
0.5452,0.7837,0.2416,-0.3599,0.1951,0.3179,42.91,86.4413,12.5387,17.140204866881156,33.6023395356708,59.57614352716561,32.760808653363945
0.5599,0.7976,0.2304,-0.3599,0.1951,0.3179,46.9962,95.9788,13.5187,16.114775826261642,33.991685360272584,60.13947866959654,32.77287043135517
0.5805,0.804,0.2173,-0.3531,0.1926,0.3132,49.8925,104.9738,12.8013,15.126613540907728,34.86789767426207,61.542117726769376,32.784993790560875
0.5876,0.8107,0.2144,-0.3531,0.1865,0.3016,52.9287,115.1675,11.935,14.814225606732954,35.018153961181554,59.88767673605001,32.797102993165545
0.5932,0.8106,0.2008,-0.3426,0.1865,0.3016,56.9888,136.1062,7.91,13.915275493298171,35.38464402241101,61.87970761856615,32.80907062975994
0.578,0.8114,0.1842,-0.328,0.182,0.2906,57.68,145.7137,5.3638,12.79293036960099,34.79093287559538,61.60466815634817,32.81846141105213
0.5348,0.7994,0.1738,-0.328,0.182,0.2906,59.2112,154.6912,3.1588,12.267226114326885,33.18462985587339,59.68328951500197,32.830509386357356
0.5039,0.7937,0.1658,-0.319,0.1765,0.2766,62.1075,162.3038,0.0963,11.800244033599347,31.867716181207104,57.43290473363899,32.84254214331647
0.4754,0.7892,0.1597,-0.319,0.1765,0.2766,64.12,167.8687,-3.465,11.440568893099549,30.566279493384425,56.067601979151966,32.854629757104576
0.4448,0.7907,0.1488,-0.3047,0.1719,0.2684,66.5788,172.1912,-6.4488,10.659556155200386,28.94511881089232,55.25333581680138,32.86681682101491
0.4293,0.7996,0.1454,-0.2908,0.1654,0.2506,69.4313,175.525,-10.0887,10.306933925123726,27.85085994413324,53.56316707767736,32.87896566210246
0.4085,0.8384,0.1346,-0.2908,0.1654,0.2506,70.35,178.8062,-13.8075,9.123426701927212,25.703565550033474,51.8081694978024,32.89108300475272
0.4004,0.8493,0.1294,-0.275,0.1621,0.2354,70.4988,181.7287,-16.345,8.66407891155792,24.992784390293803,51.3498796261456,32.90049325137133
0.3787,0.8529,0.1217,-0.275,0.1621,0.2354,69.65,185.01,-19.1975,8.121966986034579,23.735495863620493,50.408438825344284,32.912653417739705
0.3517,0.8439,0.1144,-0.2606,0.158,0.2218,69.4663,187.4337,-21.0175,7.720957474129547,22.44665543744776,49.47709688464951,32.92487233400235
0.3252,0.8302,0.1087,-0.2462,0.1549,0.1999,69.44,189.525,-22.365,7.460046672714912,21.232668388379096,47.275349351998464,32.936920309307574
0.2562,0.8119,0.0852,-0.2462,0.1549,0.1999,70.2975,189.9712,-25.7162,5.994066178102466,17.444144232473263,45.0194675060785,32.948588533790215
0.218,0.8297,0.0814,-0.2323,0.1509,0.181,71.995,188.2212,-31.43,5.60413693345283,14.669373391900951,42.222664331548486,32.96075330105393
0.1831,0.8551,0.0904,-0.2323,0.1509,0.181,73.1675,184.975,-34.1075,6.033817176960296,12.035738609152409,40.52848401591483,32.973014333204624
0.1746,0.8747,0.0963,-0.2207,0.1495,0.161,72.2313,181.3612,-37.7737,6.282092206401344,11.227051473744586,37.965864163708936,32.98525837743409
0.175,0.8872,0.0902,-0.2079,0.1496,0.1442,70.8138,177.0912,-41.1862,5.80632147534994,11.103259739196814,36.641378053263615,32.997506314728845
0.1796,0.8728,0.0967,-0.2079,0.1496,0.1442,68.9413,174.2037,-45.5525,6.320971110887845,11.556210216051417,36.61521515388716,33.00996270797374
0.1648,0.8535,0.0876,-0.1973,0.1499,0.1269,67.6638,172.0863,-49.6037,5.861183584214023,10.87693465221475,34.20906021535671,33.02203793473595
0.1454,0.8451,0.0763,-0.1973,0.1499,0.1269,67.5675,170.9138,-54.7663,5.160620967655329,9.730355233057427,34.01083356792297,33.031371381793974
0.1215,0.847,0.0661,-0.1859,0.1511,0.1026,67.9525,169.3912,-60.6987,4.463964700224085,8.148504118231067,29.266493696744465,33.04355632221415
0.0736,0.8539,0.0636,-0.1753,0.155,0.0839,67.7775,168.0175,-66.29,4.260106564575775,4.932593391754877,24.15936996810377,33.05569950066129
-0.036,0.8827,0.043,-0.1753,0.155,0.0839,67.83,165.9962,-71.5488,2.792364197547263,-2.2876116075188593,22.77735120555041,33.06796654936743
-0.0958,0.8967,0.053,-0.1631,0.1581,0.0686,67.0075,162.6187,-74.1913,3.3811789700857715,-6.063504007050711,18.256782557563515,33.080163168983454
-0.1576,0.9113,0.0481,-0.1631,0.1581,0.0686,64.6888,153.2563,-73.3425,3.022217916726818,-9.773133052586129,17.730149274736675,33.09241181410825
-0.2263,0.9331,0.0494,-0.1532,0.1623,0.047,62.8775,146.3262,-68.7663,3.0304931702905704,-13.586942669855963,11.55714629210038,33.104576581371965
-0.2941,0.9786,0.0384,-0.1466,0.167,0.0301,62.23,137.4888,-62.4137,2.2489808726513596,-16.691446330373864,7.109110592980853,33.11697882561793
-0.4491,1.0057,0.032,-0.1466,0.167,0.0301,60.4538,126.1225,-54.915,1.8234770969630238,-23.99189130011125,6.982076556204251,33.129079180346956
-0.5161,1.0629,0.0182,-0.1414,0.1706,0.0168,57.4962,112.6213,-47.6175,0.9830039963764283,-25.87831546742477,3.935384367696897,33.14130659057022
-0.5589,1.1427,0.0353,-0.1398,0.1722,0.0013,53.3838,95.97,-40.1275,1.7674938745218594,-26.050779842526566,1.140439141331546,33.15344162897177
-0.5587,1.2088,0.0243,-0.1398,0.1722,0.0013,45.57,78.0413,-32.2088,1.153162806614078,-24.818746301025737,0.6221606802485689,33.16565877565928
-0.4778,1.2377,0.0566,-0.1385,0.1712,-0.0064,35.3237,62.0638,-24.4562,2.614588718534941,-21.153592973157252,4.2613090624200805,33.17787627626182
-0.3949,1.2162,0.0417,-0.1385,0.1712,-0.0064,25.0862,46.34,-18.0687,1.965435815161091,-18.055209059889837,3.803242603965469,33.19011855091616
-0.3426,1.1619,0.0658,-0.1385,0.1743,-0.0126,15.0762,33.3725,-14.7,3.2378599578892646,-16.461765987586123,7.0325776141493845,33.20236967344614
-0.3213,1.0918,0.0749,-0.139,0.1715,-0.0139,3.745,13.0987,-12.18,3.922577411979639,-16.37402658745458,8.038003370820027,33.21160756344723
-0.3085,1.0579,0.0706,-0.139,0.1715,-0.0139,1.7675,4.8825,-13.4312,3.818319323499637,-16.300676042709533,7.953212188549972,33.22380666046843
-0.3153,1.0882,0.0654,-0.1411,0.1733,-0.0142,-0.9187,-4.7075,-14.77,3.440356876357699,-16.145767929862487,7.63215838256011,33.236048935122774
-0.2943,1.1196,0.06,-0.1411,0.1733,-0.0142,-4.62,-14.8662,-16.4237,3.068632956854707,-14.773793297409622,7.414911186071589,33.24825475652947
