AcclX,AcclY,AcclZ,MagX,MagY,MagZ,GyroX,GyroY,GyroZ,Roll,Pitch,Yaw,Time Elapsed(s)
0.3994,0.0172,0.8236,-0.2482,0.2352,0.5121,1.5925,2.1962,-2.7213,0,0,0,0.03249999999979991
0.4236,-0.045,0.783,-0.2482,0.2352,0.5121,1.5925,2.1962,-2.7213,0,0,0,0.03249999999979991
0.4236,-0.045,0.783,-0.25,0.2356,0.5068,-1.9162,0.5163,-1.82,0,0,0,0.03276666666647543
0.4356,-0.046,0.8048,-0.25,0.2356,0.5068,-1.9162,0.5163,-1.82,0,0,0,0.03276666666647543
0.3997,0.0145,0.8062,-0.25,0.2356,0.5068,1.295,1.9512,-3.29,0,0,0,0.03276666666647543
0.3997,0.0145,0.8062,-0.2513,0.2349,0.5045,-1.9338,0.9625,-1.925,0,0,0,0.03301666666652636
0.4505,-0.0766,0.7867,-0.2513,0.2349,0.5045,-1.9338,0.9625,-1.925,0,0,0,0.03301666666652636
0.4505,-0.0766,0.7867,-0.2513,0.2349,0.5045,0.49,2.0912,-3.08,0,0,0,0.03301666666652636
0.4147,-0.022,0.8258,-0.2502,0.2342,0.51,-0.385,0.9887,-2.5812,0,0,0,0.03301666666652636
0.4073,-0.0278,0.7734,-0.2502,0.2342,0.51,-0.385,0.9887,-2.5812,0,0,0,0.03301666666652636
0.4073,-0.0278,0.7734,-0.251,0.2356,0.5146,-0.3938,1.3563,-2.6075,0,0,0,0.03328333333320188
0.4203,-0.0246,0.8225,-0.251,0.2356,0.5146,-0.3938,1.3563,-2.6075,0,0,0,0.03328333333320188
0.4203,-0.0246,0.8225,-0.251,0.2356,0.5146,-0.6737,0.84,-2.4062,0,0,0,0.03328333333320188
0.4281,-0.0284,0.807,-0.251,0.2356,0.5146,-0.6737,0.84,-2.3363,0,0,0,0.03328333333320188
0.4302,-0.0286,0.8123,-0.25,0.2348,0.5141,-0.525,1.1725,-2.3363,0,0,0,0.03328333333320188
0.4302,-0.0286,0.8123,-0.25,0.2348,0.5141,-0.7,0.7,-2.6862,0,0,0,0.03328333333320188
0.4179,-0.0325,0.7987,-0.25,0.2348,0.5141,-0.7,0.7,-2.6862,0,0,0,0.0335499999998774
0.4179,-0.0325,0.7987,-0.2499,0.235,0.505,-0.7613,0.735,-2.5025,0,0,0,0.0335499999998774
0.4202,-0.022,0.7949,-0.2499,0.235,0.505,-0.7613,0.735,-2.5025,0,0,0,0.0335499999998774
0.4202,-0.022,0.8056,-0.2499,0.235,0.505,-0.595,1.0938,-2.5638,0,0,0,0.0335499999998774
0.4163,-0.0297,0.8056,-0.2499,0.235,0.505,-0.595,1.0938,-2.5638,0,0,0,0.0335499999998774
0.428,-0.0303,0.8029,-0.2497,0.2352,0.5039,-1.0063,0.91,-2.695,0,0,0,0.0335499999998774
0.428,-0.0303,0.8029,-0.2497,0.2352,0.5039,-1.0063,0.91,-2.695,0,0,0,0.0335499999998774
0.4272,-0.0256,0.8117,-0.2497,0.2352,0.5039,-1.1113,1.1113,-2.5812,0,0,0,0.0335499999998774
0.4272,-0.0256,0.8117,-0.251,0.2353,0.5142,-1.05,0.9363,-2.52,0,0,0,0.0335499999998774
0.4274,-0.0331,0.7911,-0.251,0.2353,0.5142,-1.05,0.9363,-2.52,0,0,0,0.03666666666663332
0.4225,-0.0278,0.8084,-0.251,0.2353,0.5142,-0.63,1.0938,-2.7213,0,0,0,0.03666666666663332
0.4225,-0.0278,0.8084,-0.2503,0.2347,0.5081,-0.63,1.0938,-2.7213,0,0,0,0.03666666666663332
0.4226,-0.0329,0.8105,-0.2503,0.2347,0.5081,-1.2425,0.7175,-2.2925,0,0,0,0.03691666666668425
0.4226,-0.0329,0.8105,-0.2503,0.2347,0.5081,-1.2425,0.7175,-2.2925,0,0,0,0.03691666666668425
0.4216,-0.026,0.7944,-0.2503,0.2347,0.5081,-0.6388,1.0412,-2.24,0,0,0,0.03691666666668425
0.4224,-0.0257,0.8202,-0.2494,0.2354,0.511,-0.6388,1.0412,-2.24,0,0,0,0.037183333333132396
0.4224,-0.0257,0.8202,-0.2494,0.2354,0.511,-0.5775,0.9363,-2.5287,0,0,0,0.037183333333132396
0.4215,-0.0275,0.8039,-0.2494,0.2354,0.511,-0.5775,0.9363,-2.5287,0,0,0,0.037183333333132396
0.4215,-0.0275,0.8039,-0.2489,0.2354,0.5116,-0.1663,1.26,-2.6688,0,0,0,0.037449999999807915
0.418,-0.0289,0.7966,-0.2489,0.2354,0.5116,-0.5512,1.4787,-2.6425,0,0,0,0.037449999999807915
0.418,-0.0289,0.8054,-0.2489,0.2354,0.5116,-0.5512,1.4787,-2.6425,0,0,0,0.037449999999807915
0.4247,-0.0304,0.8054,-0.2489,0.2354,0.5116,-0.7875,1.12,-2.4413,0,0,0,0.037449999999807915
0.4254,-0.0271,0.8137,-0.2504,0.2346,0.5083,-0.7875,1.12,-2.4413,0,0,0,0.037449999999807915
0.4254,-0.0271,0.8137,-0.2504,0.2346,0.5083,-0.5863,0.875,-2.66,0,0,0,0.037449999999807915
0.4246,-0.0273,0.8089,-0.2504,0.2346,0.5083,-0.5863,0.875,-2.66,0,0,0,0.037449999999807915
0.4246,-0.0273,0.8089,-0.2518,0.2343,0.5149,-0.2275,1.5838,-2.3625,0,0,0,0.037449999999807915
0.4244,-0.0315,0.8099,-0.2518,0.2343,0.5149,-0.2275,1.5838,-2.3625,0,0,0,0.037699999999858846
0.4234,-0.0282,0.8048,-0.2518,0.2343,0.5149,-0.385,1.5137,-2.7213,0,0,0,0.037699999999858846
0.4234,-0.0282,0.8048,-0.2506,0.235,0.5094,-0.385,1.5137,-2.485,0,0,0,0.037699999999858846
0.4193,-0.0253,0.8018,-0.2506,0.235,0.5094,-0.6125,1.05,-2.485,0,0,0,0.037699999999858846
0.4193,-0.0253,0.8018,-0.2506,0.235,0.5094,-0.665,1.015,-2.485,0,0,0,0.037699999999858846
0.4321,-0.0291,0.8112,-0.2506,0.235,0.5094,-0.665,1.015,-2.485,0,0,0,0.037699999999858846
0.422,-0.0282,0.7996,-0.25,0.2353,0.513,-0.42,1.4525,-2.4062,0,0,0,0.037699999999858846
0.422,-0.0282,0.7996,-0.25,0.2353,0.513,-0.42,1.4525,-2.4062,0,0,0,0.037699999999858846
0.421,-0.0329,0.8008,-0.25,0.2353,0.513,-0.42,0.8138,-2.3888,0,0,0,0.037699999999858846
0.421,-0.0329,0.8008,-0.2494,0.2354,0.5054,-0.42,0.8138,-2.3888,0,0,0,0.037966666666534366
0.4109,-0.0244,0.7923,-0.2494,0.2354,0.5054,-0.5688,0.7962,-2.5725,0,0,0,0.037966666666534366
0.4109,-0.0244,0.7266,-0.2494,0.2354,0.5054,-0.5688,0.7962,-2.5725,0,0,0,0.037966666666534366
0.3622,0.0104,0.7266,-0.2494,0.2354,0.5054,-0.2713,1.6625,-2.3712,0,0,0,0.037966666666534366
0.4603,-0.057,0.9193,-0.2502,0.2355,0.5041,-0.2713,1.0588,-2.1263,0,0,0,0.037966666666534366
0.4603,-0.057,0.9193,-0.2502,0.2355,0.5041,-1.9162,1.0588,-2.1263,0,0,0,0.037966666666534366
0.5085,-0.0563,0.8934,-0.2502,0.2355,0.5041,0.0088,1.015,-3.78,0,0,0,0.037966666666534366
0.5085,-0.0563,0.8934,-0.2505,0.2356,0.5074,0.0088,1.015,-3.78,0,0,0,0.037966666666534366
0.3824,-0.0024,0.7127,-0.2505,0.2356,0.5074,1.2337,2.7738,-1.8463,0,0,0,0.037966666666534366
0.3869,-0.0522,0.7334,-0.2505,0.2356,0.5074,1.2337,2.7738,-1.8463,0,0,0,0.037966666666534366
0.3869,-0.0522,0.7334,-0.2504,0.2358,0.5062,-1.715,0.84,-1.8112,0,0,0,0.037966666666534366
0.4749,-0.0448,0.8588,-0.2504,0.2358,0.5062,-1.715,0.84,-1.8112,0,0,0,0.0382166666665853
0.4749,-0.0448,0.8588,-0.2504,0.2358,0.5062,-0.4638,0.8225,-4.1125,0,0,0,0.0382166666665853
0.4549,0.0009,0.8456,-0.2504,0.2358,0.5062,-0.4638,0.8225,-4.1125,0,0,0,0.0382166666665853
0.3762,-0.0189,0.7629,-0.2494,0.2354,0.5163,0.9887,2.3363,-2.205,0,0,0,0.0382166666665853
0.3762,-0.0189,0.7629,-0.2494,0.2354,0.5163,0.3237,1.435,-2.7738,0,0,0,0.04186666666646488
0.3801,-0.0074,0.757,-0.2494,0.2354,0.5163,0.3237,1.435,-2.7738,0,0,0,0.04186666666646488
0.3801,-0.0074,0.757,-0.25,0.2362,0.5055,-1.7237,-0.1312,-2.9662,0,0,0,0.04186666666646488
0.446,-0.0409,0.8328,-0.25,0.2362,0.5055,-1.7237,-0.1312,-2.9662,0,0,0,0.04211666666651581
0.446,-0.0409,0.8641,-0.25,0.2362,0.5055,-1.4438,0.7175,-1.645,0,0,0,0.04211666666651581
0.4527,-0.058,0.8606,-0.25,0.2362,0.5055,-1.4438,0.7175,-1.645,0,0,0,0.04211666666651581
0.4194,-0.0386,0.7848,-0.25,0.235,0.5069,-0.5337,1.155,-2.3712,0,0,0,0.04238333333319133
0.4194,-0.0386,0.7848,-0.25,0.235,0.5069,-0.5337,1.155,-2.3712,0,0,0,0.04238333333319133
0.4044,-0.0301,0.7493,-0.25,0.235,0.5069,0.0437,1.2862,-3.045,0,0,0,0.04238333333319133
0.4044,-0.0301,0.7493,-0.2506,0.2342,0.5146,0.0437,1.2862,-0.805,0,0,0,0.04238333333319133
0.4169,-0.0317,0.8179,-0.2506,0.2342,0.5146,0.4375,1.4612,-2.17,0,0,0,0.04238333333319133
0.4414,-0.0126,0.8403,-0.2506,0.2342,0.5146,0.0613,1.0237,-3.0975,0,0,0,0.04238333333319133
0.4414,-0.0126,0.8403,-0.2492,0.2348,0.5105,0.0613,1.0237,-3.0975,0,0,0,0.04238333333319133
0.4198,-0.0058,0.7933,-0.2492,0.2348,0.5105,0.21,1.2337,-2.7738,0,0,0,0.04238333333319133
0.4198,-0.0058,0.7933,-0.2492,0.2348,0.5105,0.21,1.2337,-2.7738,0,0,0,0.04264999999986685
0.3975,-0.0321,0.7775,-0.2492,0.2348,0.5105,-1.1375,0.9538,-2.135,0,0,0,0.04264999999986685
0.4369,-0.039,0.8074,-0.2498,0.235,0.5067,-1.1375,0.9538,-2.135,0,0,0,0.04264999999986685
0.4369,-0.039,0.8074,-0.2498,0.235,0.5067,-1.6363,0.175,-2.6513,0,0,0,0.04264999999986685
0.4559,-0.0436,0.8382,-0.2498,0.235,0.5067,-1.6363,0.175,-2.6513,0,0,0,0.04264999999986685
0.4559,-0.0436,0.8382,-0.2502,0.2357,0.5066,-0.1838,0.7262,-2.485,0,0,0,0.04264999999986685
0.4177,-0.0429,0.8045,-0.2502,0.2357,0.5066,-0.1838,0.7262,-2.4237,0,0,0,0.04264999999986685
0.4177,-0.0429,0.7732,-0.2502,0.2357,0.5066,0.4025,1.4175,-2.4237,0,0,0,0.04264999999986685
0.3982,-0.0231,0.7668,-0.2502,0.2357,0.5066,0.1138,1.2862,-2.7738,0,0,0,0.04289999999991778
0.4279,-0.0144,0.8083,-0.2502,0.2338,0.5094,0.1138,1.2862,-2.7738,0,0,0,0.04289999999991778
0.4279,-0.0144,0.8083,-0.2502,0.2338,0.5094,-0.6825,0.5163,-2.6688,0,0,0,0.04289999999991778
0.4288,-0.0228,0.8267,-0.2502,0.2338,0.5094,-0.6825,0.5163,-2.6688,0,0,0,0.04289999999991778
0.4288,-0.0228,0.8267,-0.2516,0.2365,0.5145,-0.6562,1.015,-2.6163,0,0,0,0.04289999999991778
0.4162,-0.0261,0.8094,-0.2516,0.2365,0.5145,-0.6562,1.015,-2.6163,0,0,0,0.04289999999991778
0.4186,-0.0348,0.774,-0.2516,0.2365,0.5145,-1.2075,0.9625,-2.835,0,0,0,0.04289999999991778
0.4186,-0.0348,0.774,-0.2509,0.2364,0.5063,-1.2075,0.9625,-2.835,0,0,0,0.04289999999991778
0.4301,-0.0414,0.7941,-0.2509,0.2364,0.5063,-0.6388,1.0938,-2.45,0,0,0,0.04289999999991778
0.4301,-0.0414,0.7941,-0.2509,0.2364,0.5063,-0.4025,1.12,-2.6337,0,0,0,0.0431666666665933
0.4387,-0.0314,0.8263,-0.2509,0.2364,0.5063,-0.4025,1.12,-2.6337,0,0,0,0.0431666666665933
0.423,-0.027,0.8161,-0.2502,0.2352,0.5002,-0.14,1.19,-3.0013,0,0,0,0.0431666666665933
0.4274,-0.027,0.8161,-0.2502,0.2352,0.5002,-0.14,1.19,-3.0013,25.866398512767784,10.549769976022214,14.253433558417946,0.07645000000002256
0.4074,-0.0223,0.7874,-0.2502,0.2352,0.5002,-0.0525,1.3038,-2.625,47.16997184124802,13.81634384038769,31.890978843828243,0.07645000000002256
0.4074,-0.0223,0.7874,-0.2501,0.2358,0.5101,-0.0525,1.3038,-2.625,61.57161519771492,16.44768763148754,45.7182545893157,0.07669999999984611
0.4227,-0.0217,0.795,-0.2501,0.2358,0.5101,-0.6388,1.085,-2.6862,64.47188465928316,19.129232644963754,49.24166573357087,0.07669999999984611
0.4227,-0.0217,0.795,-0.2501,0.2358,0.5101,-0.6388,1.085,-2.6862,67.09169314339347,21.18782813561076,52.50548871685087,0.07669999999984611
0.4266,-0.0258,0.8234,-0.2501,0.2358,0.5101,-0.3762,1.0938,-2.66,70.4169197691301,22.528105766023504,55.714360098837446,0.07696666666652163
0.4294,-0.0316,0.8148,-0.251,0.2362,0.5125,-0.3762,1.0938,-2.66,73.35192324715229,23.66357309005239,58.71989889132154,0.07696666666652163
0.4294,-0.0316,0.8148,-0.251,0.2362,0.5125,-0.315,1.085,-2.345,76.71317419050543,23.816211537043205,61.22664923118058,0.07696666666652163
0.4193,-0.0339,0.797,-0.251,0.2362,0.5125,-0.5863,1.1812,-2.5725,77.52652286556216,24.437675822554997,65.9053647034385,0.07696666666652163
0.4193,-0.0339,0.797,-0.2519,0.2339,0.5088,-0.5863,1.1812,-2.5725,78.29779553159607,24.960393949435854,69.80563429687491,0.07696666666652163
0.4238,-0.0317,0.7943,-0.2519,0.2339,0.5088,-0.5425,1.085,-2.7738,78.4466180581757,25.831325990165446,71.50104632145631,0.07696666666652163
0.431,-0.0303,0.8129,-0.2519,0.2339,0.5088,-0.5425,1.085,-2.7738,78.59225301919538,26.41648820745162,73.05389661009666,0.07696666666652163
0.431,-0.0303,0.8129,-0.2503,0.235,0.5086,-0.7088,1.0325,-2.5988,80.62931839455923,26.682063976061148,73.5752599007624,0.07696666666652163
0.4261,-0.0254,0.8225,-0.2503,0.235,0.5086,-0.7088,1.0325,-2.5988,82.30493604123829,26.804864715919955,74.05663761265144,0.07721666666657256
0.4261,-0.0254,0.8225,-0.2503,0.235,0.5086,-0.735,1.1725,-2.8963,83.90357712498474,26.998264553111277,76.60512920298827,0.07721666666657256
0.4205,-0.0251,0.7975,-0.2503,0.235,0.5086,-0.735,1.1725,-2.8963,85.23789835992352,27.266528967221273,78.91843668648609,0.07721666666657256
0.4205,-0.0276,0.8026,-0.2499,0.2346,0.513,-0.8838,1.225,-2.6862,86.99071002029196,27.352622682902048,81.4323589174502,0.07721666666657256
0.4167,-0.0276,0.8026,-0.2499,0.2346,0.513,-0.8838,1.225,-2.7387,88.28711656941528,27.37131094239969,83.40821097667704,0.07721666666657256
0.4236,-0.0277,0.8034,-0.2499,0.2346,0.513,-0.7175,0.8925,-2.7387,88.86479222115575,27.480193443422817,84.40347210089374,0.07721666666657256
0.4236,-0.0277,0.8034,-0.2497,0.2358,0.5083,-0.455,1.0237,-2.5375,89.08645275286466,27.521090199802195,84.55280278869986,0.07721666666657256
0.4283,-0.0287,0.8079,-0.2497,0.2358,0.5083,-0.455,1.0237,-2.5375,89.29657957995632,27.573616320732675,84.70389660023254,0.07721666666657256
0.4283,-0.0287,0.8079,-0.2497,0.2358,0.5083,-0.4638,1.015,-2.4588,89.47077645296837,27.597488289414244,84.78215666922242,0.07721666666657256
0.4198,-0.032,0.8076,-0.2497,0.2358,0.5083,-0.4638,1.015,-2.4588,89.64881289526443,27.587000683385348,84.84881617155233,0.07748333333324808
0.4282,-0.0326,0.8076,-0.2502,0.2351,0.5146,-0.2275,1.05,-2.7213,90.26996493435914,27.669506335723515,85.21332978541359,0.07748333333324808
0.4282,-0.0326,0.8076,-0.2502,0.2351,0.5146,-0.2275,1.05,-2.7213,90.74621867720727,27.731183167035987,85.56230192503675,0.07748333333324808
0.424,-0.0278,0.805,-0.2502,0.2351,0.5146,-0.21,1.2775,-2.625,91.04603476329757,27.737187979638524,87.20777159679542,0.07748333333324808
0.424,-0.0278,0.805,-0.2504,0.2344,0.5095,-0.21,1.2775,-2.625,91.27286812317934,27.74202507410339,88.3805203250898,0.07748333333324808
0.4173,-0.0251,0.8019,-0.2504,0.2344,0.5095,-0.4462,1.3913,-2.5638,91.31384195986463,27.702090675997642,89.43426800525975,0.07748333333324808
0.4242,-0.0246,0.8142,-0.2504,0.2344,0.5095,-0.7875,0.9187,-2.5988,91.39871952160286,27.667877926992272,89.6600702388313,0.07748333333324808
0.4242,-0.0246,0.8142,-0.2495,0.2347,0.5082,-0.7875,0.9187,-2.5988,91.466310436494,27.63972412875232,89.87119952750675,0.07748333333324808
0.4281,-0.0264,0.8085,-0.2495,0.2347,0.5082,-0.3588,1.085,-2.5812,91.52586493775615,27.680781921233667,90.10703064527463,0.07748333333324808
0.4281,-0.0264,0.8085,-0.2495,0.2347,0.5082,-0.3588,1.085,-2.5812,91.57663837597254,27.715065057450367,90.32548684888813,0.07748333333324808
0.4255,-0.0328,0.8033,-0.2495,0.2347,0.5082,-0.2013,1.0063,-2.4062,91.76578370750065,27.718932442294264,90.32755944153244,0.07748333333324808
0.4255,-0.0172,0.8131,-0.2487,0.2357,0.512,-0.2013,1.0063,-2.4062,91.62819737539135,27.716702275355374,90.33011908575926,0.0777499999999236
0.4247,-0.0304,0.8131,-0.2487,0.2357,0.512,-0.5337,0.9013,-2.4762,91.62919775825306,27.70364370487214,90.55766771488484,0.0777499999999236
0.4211,-0.0271,0.8083,-0.2487,0.2357,0.512,-0.5337,0.9013,-2.4762,91.629765355952,27.686804507281693,90.76332861039513,0.0777499999999236
0.4211,-0.0271,0.8083,-0.2505,0.2357,0.5135,-0.7875,0.9013,-2.6337,91.68892614141141,27.650425601148523,90.93024254877872,0.0777499999999236
0.4212,-0.0312,0.7923,-0.2505,0.2357,0.5135,-0.7875,0.9013,-2.6337,91.80423360914372,27.715856891542646,91.161983036342,0.0777499999999236
0.4212,-0.0312,0.7923,-0.2505,0.2357,0.5135,-0.595,0.9975,-2.695,91.83105528865677,27.77797942598556,91.17956309930295,0.0777499999999236
0.428,-0.0246,0.8072,-0.2505,0.2357,0.5135,-0.245,1.3388,-2.835,91.81200965214568,27.823014366902942,91.77591316948586,0.0777499999999236
0.4171,-0.0279,0.796,-0.2514,0.2352,0.507,-0.245,1.3388,-2.835,91.85555373858082,27.766049179587636,91.81485325849735,0.0777499999999236
0.4171,-0.0279,0.796,-0.2514,0.2352,0.507,-0.5775,1.05,-2.5375,91.86219776496526,27.749217332698727,91.81983400550874,0.0777499999999236
0.4288,-0.0273,0.8086,-0.2514,0.2352,0.507,-0.5775,1.05,-2.5375,91.86532565789093,27.772459123410965,91.8530064811759,0.0777499999999236
0.4288,-0.0273,0.8086,-0.2508,0.2352,0.5102,-0.6212,0.6388,-2.5375,91.87093889874423,27.792600911638832,92.17580720910018,0.0777499999999236
0.4248,-0.0311,0.807,-0.2508,0.2352,0.5102,-0.6212,0.6388,-2.5375,91.89852933038014,27.78618939969959,92.26492271702085,0.0777499999999236
0.4218,-0.0281,0.7987,-0.2508,0.2352,0.5102,-0.7175,1.2337,-2.9488,91.91676856429066,27.799940348933198,92.3625720390476,0.07799999999997453
0.4218,-0.0281,0.7987,-0.2501,0.2347,0.5109,-0.7175,1.2337,-2.9488,91.93215053551786,27.8087257247096,92.48316175024911,0.07799999999997453
0.4244,-0.0264,0.815,-0.2501,0.2347,0.5109,-0.7175,1.1638,-2.6075,91.92011352529173,27.751389240563086,92.46752323229437,0.07799999999997453
0.4244,-0.0264,0.815,-0.2501,0.2347,0.5109,-0.7175,1.1638,-2.4938,91.90996216992954,27.72596945828975,92.45402237291019,0.07799999999997453
0.4236,-0.0282,0.8061,-0.2501,0.2347,0.5109,-0.5425,0.9275,-2.4938,91.9109581782832,27.72410536478157,92.47603972018537,0.07799999999997453
0.4236,-0.0282,0.7973,-0.2494,0.2354,0.5031,-0.3675,1.4438,-2.4762,91.92714133151318,27.744656008355904,92.52184945292368,0.07799999999997453
0.4273,-0.0294,0.7973,-0.2494,0.2354,0.5031,-0.3675,1.4438,-2.4762,91.95319115291987,27.780890758132404,92.675374691744,0.07799999999997453
0.4244,-0.0265,0.8211,-0.2494,0.2354,0.5031,-0.7875,0.8225,-2.5287,91.93187113453568,27.72258963356428,92.46323766733178,0.07799999999997453
0.4244,-0.0265,0.8211,-0.2506,0.2346,0.5086,-0.7875,0.8225,-2.5287,91.91489327232368,27.671676467596566,92.33625537889004,0.07799999999997453
0.4219,-0.0284,0.8025,-0.2506,0.2346,0.5086,-1.0237,0.8838,-2.6337,91.95179907077136,27.680860171158685,92.34625113125773,0.07799999999997453
0.4219,-0.0284,0.8025,-0.2506,0.2346,0.5086,-1.0237,0.8838,-2.6337,91.97653562327075,27.688206493409076,92.35516266221188,0.07799999999997453
0.4215,-0.0307,0.8042,-0.2506,0.2346,0.5086,-0.4462,0.7437,-2.3363,91.99305663624419,27.686162164041278,92.31827092628677,0.07826666666665005
0.4233,-0.0325,0.7979,-0.2505,0.2341,0.5155,-0.4462,0.7437,-2.3363,92.01980458129505,27.697041014781426,92.55662913445819,0.07826666666665005
0.4233,-0.0325,0.7979,-0.2505,0.2341,0.5155,-0.3675,1.0237,-2.555,92.06391495753493,27.730702214102248,92.57293621743382,0.07826666666665005
0.4193,-0.0279,0.8004,-0.2505,0.2341,0.5155,-0.3675,1.015,-2.6513,92.05438794440693,27.71029914487608,92.57706805654072,0.07826666666665005
0.4193,-0.0279,0.8004,-0.2498,0.2363,0.5135,-0.28,1.015,-2.6513,92.04272231089531,27.69420470267667,92.58019541370462,0.07826666666665005
0.4315,-0.028,0.8068,-0.2498,0.2363,0.5135,-0.8487,1.3563,-3.1237,92.02946859772089,27.877356653675722,92.94825648559342,0.07826666666665005
0.4207,-0.0256,0.8038,-0.2498,0.2363,0.5135,-0.8487,1.3563,-3.1237,91.98006150403128,27.765825619631,92.95217079830527,0.07826666666665005
0.4207,-0.0256,0.8038,-0.251,0.2358,0.5092,-0.6913,1.05,-2.8612,91.95861236872722,27.717116192982072,92.92346665906943,0.07826666666665005
0.4214,-0.0273,0.7982,-0.251,0.2358,0.5092,-0.6913,1.05,-2.8612,91.95864700226909,27.749545353933872,92.91194030766937,0.07826666666665005
0.4214,-0.0273,0.7982,-0.251,0.2358,0.5092,-0.1488,1.155,-2.66,91.9587071087811,27.764249016658063,92.87827279321638,0.07826666666665005
0.4241,-0.0264,0.8097,-0.251,0.2358,0.5092,-0.1488,1.155,-2.66,91.9334370110449,27.735584253337674,92.80209540270366,0.07826666666665005
0.4241,-0.0264,0.808,-0.2498,0.2362,0.5082,0.105,1.0675,-2.4938,91.90929276342541,27.730199216489616,92.78624819400375,0.07826666666665005
0.4237,-0.0291,0.808,-0.2498,0.2362,0.5082,0.105,1.0675,-2.4938,91.96893705500447,27.7228733886186,92.76200434239472,0.07851666666647361
0.4208,-0.0291,0.7982,-0.2498,0.2362,0.5082,-0.4025,0.8838,-2.3012,91.9825538122602,27.727365221211258,92.7479072823479,0.07851666666647361
0.4208,-0.0291,0.7982,-0.2491,0.2354,0.5046,-0.9538,0.8313,-2.6513,92.01382241800611,27.7388781862605,92.697236613583,0.07851666666647361
0.4297,-0.0305,0.8168,-0.2491,0.2354,0.5046,-0.9538,0.8313,-2.6513,92.05081950671898,27.73729862396484,92.63366509136802,0.07851666666647361
0.4297,-0.0305,0.8168,-0.2491,0.2354,0.5046,-0.6913,0.9887,-2.6163,92.06288142129186,27.736184774758176,92.62764664082245,0.07851666666647361
0.4214,-0.0292,0.7989,-0.2491,0.2354,0.5046,-0.6913,0.9887,-2.6163,92.06705924595212,27.747242369442542,92.62441219454077,0.07851666666647361
0.426,-0.0284,0.8181,-0.251,0.2356,0.5095,-0.4725,0.945,-2.8525,92.06264850890821,27.665988648472645,92.58615869160215,0.07851666666647361
0.426,-0.0284,0.8181,-0.251,0.2356,0.5095,-0.4725,0.945,-2.8525,92.058484474261,27.610672954328287,92.55008630548983,0.07851666666647361
0.4243,-0.0285,0.7984,-0.251,0.2356,0.5095,-0.4375,0.98,-2.9575,92.0572700706562,27.74270188331709,92.5608092089458,0.07851666666647361
0.4243,-0.0285,0.7984,-0.2513,0.236,0.5092,-0.4375,0.98,-2.9575,92.05616026207129,27.82658788243699,92.5688494295038,0.07851666666647361
0.449,-0.0323,0.8438,-0.2513,0.236,0.5092,-0.7613,0.7,-2.5988,92.08155231560148,27.85743898796735,92.63752205287062,0.07851666666647361
0.4313,-0.0242,0.8388,-0.2513,0.236,0.5092,-0.7613,0.7,-2.4237,92.00146209238282,27.832161570679684,92.34426473050026,0.07878333333314913
0.4313,-0.0242,0.8388,-0.2513,0.2338,0.5084,-0.6037,0.5337,-2.4237,91.9780428181576,27.80785890885514,92.01562693652352,0.07878333333314913
0.4028,-0.0233,0.7961,-0.2498,0.2338,0.5084,-0.315,0.7088,-2.3712,91.92431584632257,27.79586615489564,91.731121587411,0.07878333333314913
0.4028,-0.0233,0.7961,-0.2498,0.2338,0.5084,-0.315,0.7088,-2.3712,91.88015957062078,27.784020184357093,91.51170843974946,0.07878333333314913
0.4191,-0.0322,0.7918,-0.2498,0.2338,0.5084,-0.7437,1.0237,-2.6075,91.95861267857825,27.800246615972114,91.53392604242136,0.07878333333314913
0.4191,-0.0322,0.823,-0.2508,0.2361,0.5064,-0.7437,1.0237,-2.6075,92.0079219399198,27.64818248141776,91.51355576423046,0.07878333333314913
0.4275,-0.0262,0.816,-0.2508,0.2361,0.5064,-0.8662,0.735,-2.5725,91.96558809794912,27.6465293561095,91.63073434011667,0.07878333333314913
0.4225,-0.031,0.8061,-0.2508,0.2361,0.5064,-0.8662,0.735,-2.5725,92.0249214786644,27.64595448712587,91.68430481397472,0.07878333333314913
0.4225,-0.031,0.8061,-0.2501,0.235,0.5108,-0.63,0.8838,-2.5638,92.04079269261655,27.645489828736245,91.77188509258094,0.07878333333314913
0.4226,-0.0249,0.8238,-0.2501,0.235,0.5108,-0.63,0.8838,-2.5638,92.0131027451348,27.569325819020815,91.75759221986155,0.07878333333314913
0.4226,-0.0249,0.8238,-0.2501,0.235,0.5108,-0.6037,1.0675,-2.4938,91.99418581391446,27.527370633952557,91.75073020233538,0.07878333333314913
0.4229,-0.027,0.8054,-0.2501,0.235,0.5108,-0.6037,1.155,-2.6688,91.98920939764955,27.563428696146303,91.88095718817172,0.07878333333314913
0.4283,-0.0283,0.825,-0.2506,0.235,0.5141,-0.8487,1.155,-2.6688,91.98329827720477,27.53212687806103,91.94533985376324,0.07904999999982465
0.4283,-0.0283,0.825,-0.2506,0.235,0.5141,-0.805,1.1287,-2.7387,91.97929583517492,27.50336655322495,91.99257764040672,0.07904999999982465
0.4212,-0.0292,0.7993,-0.2506,0.235,0.5141,-0.805,1.1287,-2.7387,92.00352564603111,27.57369190352898,92.11207581662053,0.07904999999982465
0.4212,-0.0292,0.7993,-0.251,0.235,0.5059,-0.3762,1.2513,-2.3975,92.01546154419188,27.576408637753108,92.11831340367432,0.07904999999982465
0.4249,-0.0298,0.8003,-0.251,0.235,0.5059,-0.3762,1.2513,-2.3975,92.03121353075574,27.581513791436233,92.19546632385294,0.07904999999982465
0.4249,-0.0292,0.8062,-0.251,0.235,0.5059,-0.805,0.7875,-2.3187,92.04046170608767,27.593338073455328,92.18942833048813,0.07904999999982465
0.4244,-0.0292,0.8062,-0.251,0.2362,0.5073,-0.805,0.7875,-2.3187,92.04772512354559,27.60274738323725,92.19709870568788,0.07904999999982465
0.4218,-0.0277,0.8016,-0.2505,0.2362,0.5073,-0.9538,0.8575,-2.3975,92.02736339939088,27.60461859823628,92.21871704891282,0.07904999999982465
0.4218,-0.0277,0.8016,-0.2505,0.2362,0.5073,-0.9538,0.8575,-2.3975,92.01304486848089,27.6064641435456,92.23754893248498,0.07904999999982465
0.4179,-0.0302,0.8047,-0.2505,0.2362,0.5073,-0.3413,1.1638,-2.4325,92.03483864110298,27.5981167746093,92.14927811412167,0.07904999999982465
0.4179,-0.0302,0.8047,-0.2503,0.2345,0.5065,-0.6737,0.9538,-2.4675,92.04906388052403,27.584904531734416,92.12063211738526,0.07904999999982465
0.4267,-0.0276,0.8135,-0.2503,0.2345,0.5065,-0.6737,0.9538,-2.4675,92.03589865053581,27.59106774690008,92.1244028561352,0.07929999999987558
0.4222,-0.0317,0.8064,-0.2503,0.2345,0.5065,-0.2975,1.61,-2.695,92.07675426274453,27.5971425450311,92.05025233279727,0.07929999999987558
0.4222,-0.0317,0.8064,-0.2504,0.2343,0.5042,-0.2975,1.61,-2.695,92.10985593956481,27.601774813172486,91.9071722756553,0.07929999999987558
0.4261,-0.0271,0.8105,-0.2504,0.2343,0.5042,-0.7962,0.7175,-2.5812,92.06911054007135,27.621090679343023,91.94409674087993,0.07929999999987558
0.4261,-0.0271,0.8105,-0.2504,0.2343,0.5042,-0.7962,0.7175,-2.5812,92.03688682968455,27.637219370903072,91.97276558298714,0.07929999999987558
0.4215,-0.0311,0.8037,-0.2504,0.2343,0.5042,-0.6212,1.2337,-2.6075,92.05159475482974,27.640858316778605,91.93641690225772,0.07929999999987558
0.4232,-0.0289,0.8021,-0.2509,0.2344,0.5126,-0.6212,1.2337,-2.6075,92.05257214973862,27.670240675232428,92.1259772852442,0.07929999999987558
0.4232,-0.0289,0.8021,-0.2509,0.2344,0.5126,-0.5425,1.3913,-2.5725,92.05268840024968,27.691091303073826,92.35721327471144,0.07929999999987558
0.4256,-0.0301,0.8019,-0.2509,0.2344,0.5126,-0.5425,1.3913,-2.5725,92.05371988993991,27.730634517041075,92.59577865922505,0.07929999999987558
0.4256,-0.0301,0.8019,-0.2499,0.2352,0.5121,-0.7,0.8487,-2.6163,92.06753400218413,27.770150421686996,92.69757556508176,0.07929999999987558
0.4266,-0.029,0.8093,-0.2499,0.2352,0.5121,-0.3938,1.2513,-2.9488,92.06567838126777,27.77354420967003,92.76696966769326,0.07929999999987558
0.4266,-0.0253,0.8028,-0.2499,0.2352,0.5121,-0.3938,1.2513,-2.9488,92.03408548020023,27.84591346338606,92.9362568913587,0.07929999999987558
0.4236,-0.0253,0.8028,-0.2499,0.2352,0.5086,-0.7962,1.0412,-2.7562,91.98618636386918,27.835289746659363,92.93438038690358,0.0795666666665511
0.4218,-0.0294,0.7901,-0.2498,0.2358,0.5086,-0.7962,1.0412,-2.7562,92.01647762076908,27.901543232816177,92.9472069684718,0.0795666666665511
0.4218,-0.0294,0.7901,-0.2498,0.2358,0.5086,-0.7962,0.8575,-2.415,92.0404336182984,27.906957985027372,92.99347142791109,0.0795666666665511
0.4244,-0.0295,0.7993,-0.2498,0.2358,0.5086,-0.7962,0.8575,-2.415,92.05575121542694,27.90828610379509,92.99875473011213,0.0795666666665511
0.4244,-0.0295,0.7993,-0.2493,0.2353,0.5047,-0.5863,1.05,-2.3625,92.0587476050099,27.909159508501105,92.98738770046971,0.0795666666665511
0.4172,-0.0315,0.8147,-0.2493,0.2353,0.5047,-0.5863,1.05,-2.3625,92.0667900599055,27.89242928001208,92.89515368353905,0.0795666666665511
0.4127,-0.0199,0.7986,-0.2493,0.2353,0.5047,-0.5512,0.665,-2.4237,92.05458941053938,27.870422007613133,92.59423062794544,0.0795666666665511
0.4127,-0.0199,0.7986,-0.2497,0.2354,0.5058,-0.5512,0.665,-2.555,92.04262158328466,27.790134227611233,92.37820750555531,0.0795666666665511
0.4456,-0.0292,0.8011,-0.2497,0.2354,0.5058,-0.665,0.9187,-2.555,92.04789865032296,27.977149442639316,92.60492649115996,0.0795666666665511
0.4456,-0.0292,0.8011,-0.2497,0.2354,0.5058,-0.3675,1.05,-2.7562,92.05348544105539,28.273325411739954,92.71633587658764,0.0795666666665511
0.4289,-0.0283,0.8054,-0.2497,0.2354,0.5058,-0.3675,1.05,-2.7562,92.04769224991111,28.205099490301752,92.7275920072523,0.0795666666665511
0.4054,-0.0395,0.8129,-0.2513,0.2351,0.5143,-0.3237,0.8313,-2.4675,92.17413486325165,28.071464126091204,92.2907295549912,0.0795666666665511
0.4054,-0.0395,0.8129,-0.2513,0.2351,0.5143,-0.3237,0.8313,-2.4675,92.27880191511933,27.948173919800322,91.91866732160739,0.07981666666660203
0.4217,-0.033,0.8048,-0.2513,0.2351,0.5143,-0.2887,0.9363,-2.3012,92.29233954769084,27.924252262444366,91.957213904036,0.07981666666660203
0.4217,-0.033,0.8048,-0.2492,0.2354,0.5034,-0.2887,0.9363,-2.3012,92.30323024085226,27.90215150832136,91.94711228145437,0.07981666666660203
0.434,-0.0161,0.806,-0.2492,0.2354,0.5034,-0.1225,1.155,-2.3012,91.96668821039599,27.932129927263947,92.20705887715852,0.07981666666660203
0.434,-0.0299,0.8057,-0.2492,0.2354,0.5034,-0.1225,1.155,-2.3012,92.01275055265866,27.959614555945684,92.35602947543596,0.07981666666660203
0.4251,-0.0299,0.8057,-0.2492,0.2354,0.5062,-0.49,1.1287,-2.1088,92.01726094791654,27.92533026434983,92.37994155050085,0.07981666666660203
0.4176,-0.0299,0.8148,-0.2503,0.2346,0.5062,-0.3675,1.3125,-2.6337,92.02915765475568,27.76427407309757,92.02831928812859,0.07981666666660203
0.4176,-0.0299,0.8148,-0.2503,0.2346,0.5062,-0.3675,1.3125,-2.6337,92.03937603372296,27.635440354396042,91.75929645218903,0.07981666666660203
0.4186,-0.0289,0.8002,-0.2503,0.2346,0.5062,-0.4812,0.9538,-2.555,92.04077219111755,27.630195329382218,91.76888574844969,0.07981666666660203
0.4186,-0.0289,0.8002,-0.251,0.2354,0.512,-0.4812,0.9538,-2.555,92.04210117375573,27.625717794196962,91.80034942489381,0.07981666666660203
0.4272,-0.0273,0.8061,-0.251,0.2354,0.512,0.0962,1.015,-2.3537,92.00259489632448,27.633915632850652,91.81324294543944,0.07981666666660203
0.4235,-0.0332,0.7967,-0.251,0.2354,0.512,0.0962,1.015,-2.3537,92.15057916251074,27.643759178454246,91.82494190789893,0.08008333333327755
0.4235,-0.0332,0.7967,-0.2506,0.2356,0.5054,-0.35,1.3212,-2.4762,92.18682298255007,27.671671729751864,91.97281663546684,0.08008333333327755
0.4212,-0.0314,0.8004,-0.2506,0.2356,0.5054,-0.35,1.3212,-2.4762,92.19601380985473,27.677196045613947,91.98053608450822,0.08008333333327755
0.4212,-0.0314,0.8004,-0.2506,0.2356,0.5054,-0.4725,1.155,-2.2487,92.19884228225943,27.684286174497096,91.98371650273498,0.08008333333327755
0.4184,-0.0223,0.8002,-0.2506,0.2356,0.5054,-0.4725,1.155,-2.2487,92.1651411638407,27.673620884554396,91.99081016923608,0.08008333333327755
0.4272,-0.0233,0.804,-0.2506,0.2356,0.5162,-0.385,1.1113,-2.3888,92.10049612608863,27.675175785281642,92.18298678459554,0.08008333333327755
0.4272,-0.0233,0.804,-0.2506,0.2356,0.5162,-0.735,0.4725,-2.5812,92.02608280144277,27.724429612052994,92.81428952779751,0.08008333333327755
0.4269,-0.0281,0.8096,-0.2506,0.2356,0.5162,-0.735,0.4725,-2.5812,92.01962492227766,27.734974753455674,93.01389764938875,0.08008333333327755
0.4269,-0.0281,0.8096,-0.2498,0.2356,0.5058,-0.4988,0.8662,-2.6862,92.01861153396972,27.7473716635949,92.94602071891798,0.08008333333327755
0.4235,-0.026,0.8101,-0.2498,0.2356,0.5058,-0.4988,0.8662,-2.6862,92.01285937251907,27.710193404979673,92.84223406613752,0.08008333333327755
0.4235,-0.0318,0.8017,-0.2498,0.2356,0.5058,-0.3938,0.6562,-2.3537,92.04421116478927,27.71357678908833,92.72439807175203,0.08008333333327755
0.4181,-0.0318,0.8017,-0.2498,0.2356,0.5058,-0.3938,0.6562,-2.3537,92.07176237747444,27.708084336281242,92.46710403224073,0.08008333333327755
0.4305,-0.0304,0.806,-0.2484,0.2359,0.5058,-0.3063,0.9275,-2.66,92.08799697654851,27.790920253851837,92.52698646324593,0.08034999999995307
0.4305,-0.0304,0.806,-0.2484,0.2359,0.5058,-0.3063,0.9275,-2.66,92.10124488716562,27.855817882723613,92.58253783180169,0.08034999999995307
0.4187,-0.0275,0.8078,-0.2484,0.2359,0.5058,-0.3325,0.5688,-2.7125,92.07607873871414,27.739318199683296,92.36621108365013,0.08034999999995307
0.4187,-0.0275,0.8078,-0.2498,0.2346,0.5174,-0.3325,0.5688,-2.6163,92.05509376277804,27.67245277618547,92.50112747841953,0.08034999999995307
0.4298,-0.03,0.8043,-0.2498,0.2346,0.5174,0.2362,1.3125,-2.6163,92.0902869066075,27.753636729307427,92.92398634576861,0.08034999999995307
0.4194,-0.0271,0.802,-0.2498,0.2346,0.5174,0.0437,1.4088,-2.6513,92.0336831157533,27.719833359248785,93.02801726111218,0.08034999999995307
0.4194,-0.0271,0.802,-0.2508,0.2349,0.5126,0.0437,1.4088,-2.6513,91.99775437503213,27.69316843057931,92.89880306954456,0.08034999999995307
0.4199,-0.0316,0.8004,-0.2508,0.2349,0.5126,-0.77,0.98,-2.4588,92.04838233648874,27.691108725247137,92.89024569377447,0.08034999999995307
0.4199,-0.0316,0.8004,-0.2508,0.2349,0.5126,-0.77,0.98,-2.4588,92.08926890859482,27.68919309272158,92.88190082020972,0.08034999999995307
0.4282,-0.0281,0.8019,-0.2508,0.2349,0.5126,-0.6125,1.0675,-2.765,92.08311614288554,27.79897300831477,92.92584914849884,0.08034999999995307
0.4272,-0.0318,0.8063,-0.2511,0.235,0.5142,-0.6125,1.0675,-2.765,92.09622393248112,27.8261658480995,92.94041470652644,0.08034999999995307
0.4272,-0.0318,0.8063,-0.2511,0.235,0.5142,-0.35,1.5313,-2.625,92.12118747059132,27.840030283692442,93.02133030641998,0.080600000000004
0.4209,-0.0293,0.8147,-0.2511,0.235,0.5142,-0.35,1.5313,-2.625,92.11173208101968,27.736418205819945,92.66190882305506,0.080600000000004
0.4209,-0.0293,0.8147,-0.249,0.2347,0.5053,-0.665,1.4963,-2.6075,92.10561467143216,27.657898376262505,92.27369169742907,0.080600000000004
0.4147,-0.0295,0.7964,-0.249,0.2347,0.5053,-0.0263,1.785,-2.5113,92.11090192275097,27.638966810799012,92.08956220290506,0.080600000000004
0.4147,-0.0295,0.8062,-0.249,0.2347,0.5053,-0.0263,1.785,-2.5113,92.10576396838596,27.589841934469856,91.71769984257149,0.080600000000004
0.4281,-0.0282,0.8062,-0.249,0.2347,0.5053,-0.5075,1.0762,-2.6425,92.10333908358872,27.66478190085326,91.79808748801949,0.080600000000004
0.4236,-0.027,0.8051,-0.249,0.2348,0.509,-0.5075,1.0762,-2.6425,92.09901713954282,27.67976739740632,91.87036930773074,0.080600000000004
0.4236,-0.027,0.8051,-0.249,0.2348,0.509,-0.175,1.33,-2.695,92.05214663790835,27.693511519069293,92.12074537971246,0.080600000000004
0.4216,-0.0275,0.8062,-0.249,0.2348,0.509,-0.175,1.33,-2.695,92.02624464331545,27.669765510205238,92.22706291885532,0.080600000000004
0.4216,-0.0275,0.8062,-0.2501,0.2345,0.5054,-0.0875,1.0325,-2.4413,92.0039111608095,27.665605093661267,92.22001792647184,0.080600000000004
0.4993,0.0071,0.9334,-0.2359,0.2337,0.5127,-6.055,49.4987,0.6125,89.93818723218126,28.023383648637797,98.44561930796539,0.080600000000004
0.4993,0.0071,0.9334,-0.2359,0.2337,0.5127,-4.0862,61.46,1.2075,89.64630084397386,28.11678858204656,98.57191109278378,0.080600000000004
0.485,-0.0029,1.0102,-0.2359,0.2337,0.5127,-4.0862,61.46,1.2075,90.05070554212564,26.18394150913113,92.28276985166717,0.08086666666667952
0.3337,0.0259,0.7477,-0.2263,0.2345,0.5111,0.4375,59.6663,-11.0863,89.0492864811011,24.25963478347892,91.2615921627747,0.08086666666667952
0.3337,0.0259,0.7477,-0.2263,0.2345,0.5111,0.4375,59.6663,-11.0863,88.54075729732999,24.061308035180865,91.2444757799937,0.08086666666667952
0.2704,-0.0314,0.7455,-0.2263,0.2345,0.5111,1.9775,55.6413,-12.5475,91.30872855438258,20.290885081561672,80.83537612011011,0.08086666666667952
0.2704,-0.0314,0.7455,-0.2175,0.2371,0.5132,1.9775,55.6413,-12.5475,92.09749379257124,19.95315185983627,82.64982381080101,0.08086666666667952
0.4723,-0.1057,0.7463,-0.2175,0.2371,0.5132,-8.6187,58.695,0.3413,97.40499745098694,28.818037875233536,102.13432251290023,0.08086666666667952
0.4519,0.126,0.6383,-0.2175,0.2371,0.5132,-8.6187,58.695,0.3413,80.87717788926449,33.18142193553825,134.76651092768296,0.08086666666667952
0.4519,0.126,0.6383,-0.2058,0.2387,0.5217,-14.28,79.5813,14.63,78.9719912434816,34.693833525515174,138.23293637904166,0.08086666666667952
0.416,0.2084,0.59,-0.2058,0.2387,0.5217,-32.1475,99.75,31.6663,70.80409233495136,33.64786397428435,160.28424423725266,0.08086666666667952
0.416,0.2084,0.59,-0.2058,0.2387,0.5217,-32.1475,99.75,31.6663,70.55366430840536,33.61802166889085,160.50532209237736,0.08086666666667952
0.3141,0.1865,0.5014,-0.2058,0.2387,0.5217,-51.4325,117.0137,39.0337,69.61532165205689,30.494512822708536,159.56036740012806,0.08086666666667952
0.3141,0.1865,0.4589,-0.1899,0.2488,0.5241,-51.4325,117.0137,39.0337,67.91622987875499,32.33425455682481,167.44714369239983,0.08111666666650308
0.3298,0.5103,0.4589,-0.1899,0.2488,0.5241,-76.0025,137.1125,41.7025,42.30362351589629,25.814689490773787,103.23046670432943,0.0824166666666315
0.1933,0.6498,0.474,-0.1899,0.2488,0.5241,-76.0025,137.1125,41.7025,36.190081742401595,13.786442440837265,76.8805404866313,0.08268333333330702
0.1933,0.6498,0.474,-0.1666,0.2721,0.54,-132.7025,169.3125,78.2162,36.10968458308524,13.516950603059364,82.48086473764116,0.08268333333330702
0.3495,-0.0111,0.509,-0.1666,0.2721,0.54,-132.7025,169.3125,78.2162,90.83522590851368,34.211950326954884,118.95109343899647,0.08268333333330702
0.3495,-0.0111,0.509,-0.1666,0.2721,0.54,-159.9588,215.6,103.8012,91.24669679398906,34.466317263966275,120.14235468944628,0.08294999999998254
0.3648,-0.1102,1.6155,-0.1666,0.2721,0.54,-159.9588,215.6,151.48,93.88578549777395,12.836713939813434,81.29476634211056,0.08294999999998254
-0.3411,-1.8355,1.7219,-0.1354,0.2955,0.5294,-161.63,217.0175,151.48,136.5641084021541,-7.585665887779594,75.3690187780294,0.08294999999998254
-0.3411,-1.8355,1.7219,-0.1354,0.2955,0.5294,-44.6775,151.655,115.8763,136.82316135055473,-7.717283361709082,75.34176718398172,0.08294999999998254
-0.1196,-0.8567,1.3931,-0.1354,0.2955,0.5294,-44.6775,151.655,115.8763,121.92725519627345,-4.212243908194938,73.51868576042204,0.08294999999998254
-0.1196,-0.8567,1.3931,-0.1195,0.2955,0.5413,17.7887,88.9525,-4.8038,121.6072943158403,-4.191271144546257,75.17133905811775,0.08294999999998254
-0.3268,-0.7285,1.3762,-0.1195,0.2955,0.5413,17.7887,88.9525,-4.8038,118.0869386981041,-9.612767474003519,70.09811392869464,0.0831999999998061
0.6238,0.2203,0.6603,-0.1195,0.2955,0.5413,39.8387,48.72,-63.2275,72.67433092567846,41.03305443162669,159.10984746466434,0.0831999999998061
0.6238,0.2203,0.6603,-0.1106,0.2885,0.5362,39.8387,48.72,-63.2275,71.57662441866073,41.851984261977975,161.83907332860025,0.0831999999998061
0.0881,0.1861,0.9656,-0.1106,0.2885,0.5362,44.9575,66.6575,-22.8113,78.92950628312985,6.8337080385363524,73.56415963041901,0.0831999999998061
0.0881,0.1861,0.9656,-0.1106,0.2885,0.5362,44.9575,66.6575,-22.8113,79.08766935302498,5.1994560415803734,72.23974524909997,0.0831999999998061
0.1854,-0.5418,0.9164,-0.1106,0.2885,0.5362,26.425,74.5238,30.3713,119.10808999416017,9.74050051208195,83.82323777354244,0.0831999999998061
0.1854,-0.5418,1.0377,-0.1018,0.2858,0.5369,42.8225,61.0488,1.6013,117.60447372467864,9.148199098796448,84.65943988167567,0.08346666666648161
0.0284,-0.3521,1.0377,-0.1018,0.2858,0.5369,42.8225,61.0488,1.6013,108.94229000195504,3.0219647357471646,78.50192272750667,0.08346666666648161
0.2695,-0.068,0.7217,-0.1018,0.2858,0.5369,50.5225,42.0788,-38.675,95.64312142746647,19.928142774690517,103.08028656849122,0.08346666666648161
0.2695,-0.068,0.7217,-0.0948,0.2776,0.5318,50.5225,42.0788,-38.675,95.38763470743042,20.38149593275819,104.81786669663553,0.08346666666648161
0.2977,0.2797,0.7926,-0.0948,0.2776,0.5318,43.7238,48.7988,-48.895,71.11116413431097,19.52222672451039,141.32929989977615,0.08346666666648161
0.2977,0.2797,0.7926,-0.0948,0.2776,0.5318,43.7238,48.7988,-48.895,70.57473329392029,19.504141190396933,142.07758720588342,0.08346666666648161
0.3612,0.071,0.6691,-0.0948,0.2776,0.5318,20.1338,69.5362,-20.055,83.32583495333321,27.76039785971858,129.55110514100446,0.08346666666648161
0.2262,0.042,0.6839,-0.0838,0.2769,0.5322,20.1338,69.5362,-20.055,86.33988805758801,18.77782266303249,111.0037641574719,0.08346666666648161
0.2262,0.042,0.6839,-0.0838,0.2769,0.5322,6.4488,95.7688,-6.2913,86.46746165544609,18.373085489492045,110.73594765082076,0.08346666666648161
0.1101,0.2133,0.6445,-0.0838,0.2769,0.5322,6.4488,95.7688,-6.2913,73.53977873740496,11.078647827953773,97.3456186526118,0.08346666666648161
0.1101,0.2133,0.6445,-0.0636,0.2816,0.531,-17.6575,120.9163,0.0088,71.78999281568368,9.762223621188136,107.62028579420122,0.08346666666648161
0.0426,0.0911,0.7158,-0.0636,0.2816,0.531,-41.9388,139.6325,22.3475,82.48857281961513,3.6267710003837945,82.04893157720804,0.08346666666648161
-0.1047,-0.019,0.904,-0.0636,0.2816,0.531,-41.9388,139.6325,22.3475,90.99852870933944,-6.207391804599389,67.21989476478802,0.08371666666653255
-0.1047,-0.019,0.904,-0.0414,0.2878,0.5334,-51.6162,155.3825,39.2525,91.20010229272502,-6.595709057727954,71.17421764642253,0.08371666666653255
-0.0723,-0.2572,1.0873,-0.0414,0.2878,0.5334,-51.6162,155.3825,39.2525,103.07616314184003,-3.7702631604007384,80.00903858769286,0.08371666666653255
-0.0723,-0.2572,1.0873,-0.0414,0.2878,0.5334,-51.905,150.71,42.4987,103.30420321690181,-3.703881674610004,80.06588770053864,0.08371666666653255
-0.1349,-0.5675,1.2077,-0.0414,0.2878,0.5334,-51.905,150.71,42.4987,114.94235906855985,-5.727609554264434,80.96517566497353,0.08371666666653255
-0.1349,-0.5207,1.0752,-0.023,0.293,0.5218,-25.62,130.3837,20.8775,115.80566062164594,-6.413096993241774,82.87986977512858,0.08371666666653255
0.0266,-0.5246,1.0752,-0.023,0.293,0.5218,-25.62,130.3837,20.8775,116.0004124839662,0.9568812258041379,88.16382463295436,0.08371666666653255
-0.0445,-0.3129,1.1012,-0.023,0.293,0.5218,4.8475,108.4125,-21.805,107.45145873088785,-2.070200641076223,84.73303528318206,0.08371666666653255
-0.0445,-0.3129,1.1012,-0.0079,0.2926,0.5184,4.8475,88.2525,-50.96,106.1113389497917,-2.2229198876244176,86.70998724663126,0.08371666666653255
-0.0388,-0.2356,0.8389,-0.0079,0.2926,0.5184,18.9788,88.8825,-50.96,105.70776172728708,-2.5430111198332037,86.39909567124333,0.08371666666653255
-0.0388,-0.2356,0.8389,-0.0079,0.2926,0.5184,28.4988,83.755,-64.7763,105.68776544774165,-2.5494966114620525,86.39560011160636,0.08371666666653255
-0.2305,0.1253,0.6282,-0.0079,0.2926,0.5184,28.4988,83.755,-64.7763,79.61790294930705,-19.518455435848374,43.522695786338645,0.08398333333320807
-0.1144,0.1832,0.6475,0.007,0.2929,0.5226,7.8488,86.8875,-59.8587,74.77932694703479,-9.817164056588622,56.81283340737544,0.08398333333320807
-0.1144,0.1832,0.6475,0.007,0.2929,0.5226,7.8488,86.8875,-59.8587,74.26351731268385,-9.65125942562402,56.96580102169336,0.08398333333320807
-0.0731,0.2643,0.5857,0.007,0.2929,0.5226,-22.1987,108.0713,-38.045,66.08973629267561,-6.576378696344149,40.83985650668445,0.08398333333320807
-0.0731,0.2643,0.5857,0.0254,0.301,0.5151,-22.1987,108.0713,-38.045,65.72913287767734,-6.492506286277207,56.0623164174501,0.08398333333320807
-0.1211,-0.0369,0.9482,0.0254,0.301,0.5151,-46.8475,133.5338,-2.4237,91.6685331868951,-6.522593185462269,82.95698819171928,0.08398333333320807
-0.2577,-0.3235,1.0527,0.0254,0.301,0.5151,-46.8475,133.5338,-2.4237,106.75668896516493,-6.778940347453875,81.29640204241387,0.08449999999993452
-0.2577,-0.3235,1.0527,0.0441,0.3062,0.5054,-47.1712,136.8325,9.8612,107.07561803258996,-12.687654039380273,83.94557110082553,0.08476666666661004
-0.2896,-0.3614,1.0324,0.0441,0.3062,0.5054,-33.5387,123.6025,-12.8013,109.22780848047228,-14.64171344872521,83.30554929941034,0.08476666666661004
-0.2896,-0.3614,1.0324,0.0441,0.3062,0.5054,-33.5387,123.6025,-12.8013,109.29109525552076,-14.812856311916496,83.30037100527557,0.08476666666661004
-0.4082,-0.0681,1.1124,0.0441,0.3062,0.5054,-21.6475,108.4037,-25.1475,94.21709220050195,-19.893029905825177,69.6518368905342,0.08476666666661004
-0.4082,-0.0329,0.9348,0.06,0.3123,0.4998,-21.6475,108.4037,-25.1475,92.11521611509212,-23.421490191702556,66.95822617744675,0.08476666666661004
-0.3084,-0.0329,0.9348,0.06,0.3123,0.4998,-21.2887,95.9,-19.1012,92.02025057457243,-18.539712373330012,73.69718701963129,0.08476666666661004
-0.4188,0.1084,0.9069,0.06,0.3123,0.4998,-21.2887,95.9,-19.1012,83.59002410790633,-24.288929023115106,56.40200561178983,0.08476666666661004
-0.4188,0.1084,0.9069,0.0733,0.3186,0.503,-31.7887,92.33,-10.3337,83.1964750135112,-24.594406552681622,58.47331883150631,0.08476666666661004
-0.2718,0.0726,0.8959,0.0733,0.3186,0.503,-31.7887,92.33,-10.3337,85.29982027711908,-17.692933062289917,73.2673800717461,0.08476666666661004
-0.2718,0.0726,0.8959,0.0733,0.3186,0.503,-48.3175,103.9325,5.4425,85.36573301257478,-16.923190974172844,73.42781571787589,0.08476666666661004
-0.3594,-0.1046,0.9934,0.0733,0.3186,0.503,-48.3175,103.9325,21.1225,95.79260688509153,-19.671738614284397,76.41602190483074,0.08476666666661004
-0.3712,-0.1097,0.9282,0.0892,0.3254,0.4886,-58.38,111.195,21.1313,96.72417383949794,-21.579365522554408,77.8112117484292,0.08501666666666097
-0.3712,-0.1097,0.9282,0.0892,0.3254,0.4886,-70.3238,112.2625,16.625,96.74004999285918,-21.656435261738906,77.82376068344689,0.08501666666666097
-0.3336,-0.2272,0.8692,0.0892,0.3254,0.4886,-70.3238,112.2625,16.625,104.53705987045788,-20.43547453364138,83.15051681073547,0.08501666666666097
-0.3336,-0.2272,0.8692,0.1054,0.3373,0.4822,-80.9725,109.2087,6.0988,104.64740583402836,-20.378016309736662,85.65264986392562,0.08501666666666097
-0.485,-0.1482,0.9589,0.1054,0.3373,0.4822,-80.9725,109.2087,6.0988,98.85764554513155,-25.906558530563743,76.84218278414554,0.08501666666666097
-0.4971,-0.2399,0.9973,0.1054,0.3373,0.4822,-91.3063,96.6525,3.1675,103.4746358322198,-25.863584843502522,80.28007401935542,0.08501666666666097
-0.4971,-0.2399,0.9973,0.1177,0.3508,0.479,-91.3063,96.6525,3.1675,103.52494378890123,-25.85702506787718,82.26149394522166,0.08501666666666097
-0.5642,-0.2417,0.9351,0.1177,0.3508,0.479,-101.2725,72.0212,0.4288,104.48283549642589,-29.12851207212937,79.20041221827628,0.08501666666666097
-0.5642,-0.2417,0.9351,0.1177,0.3508,0.479,-101.2725,72.0212,0.4288,104.49225052108281,-29.986631557841143,79.15790648356504,0.08501666666666097
-0.3597,-0.075,0.6796,0.1177,0.3508,0.479,-109.8913,54.5475,-5.4075,96.37187683748857,-28.304571962159116,76.11683353574139,0.08501666666666097
-0.3597,-0.0291,0.7734,0.1258,0.3654,0.474,-125.5713,61.5475,2.4062,92.18825671557732,-25.510479907742543,78.20048944062422,0.08684999999991305
-0.3587,-0.0291,0.7734,0.1258,0.3654,0.474,-126.07,61.5475,2.4062,92.1550627550153,-24.97750038963369,78.3048682424096,0.08709999999996398
-0.4656,-0.1986,0.8259,0.1258,0.3654,0.474,-136.3687,69.265,22.6625,103.43785796607658,-28.58420783933258,81.39698837457178,0.08709999999996398
-0.4656,-0.1986,0.8259,0.1366,0.3831,0.4658,-136.3687,69.265,22.6625,103.5203122657467,-28.722681879437065,83.46970726930624,0.08709999999996398
-0.4581,-0.4255,0.8591,0.1366,0.3831,0.4658,-140.6562,77.5425,26.5562,116.25765907248257,-25.64641421606509,91.62184983223464,0.0873666666666395
-0.4581,-0.4255,0.8591,0.1366,0.3831,0.4658,-140.6562,77.5425,26.5562,116.34791520064257,-25.543665747868637,91.72698852580125,0.0873666666666395
-0.4894,-0.424,0.936,0.1366,0.3831,0.4658,-129.0975,83.1862,17.6575,114.38538485252398,-25.470948809201406,90.94679584509699,0.0873666666666395
-0.5517,-0.503,0.9534,0.1486,0.3982,0.46,-129.0975,83.1862,17.6575,117.78900462956919,-27.025950911088167,93.16145829514328,0.08761666666669043
-0.5517,-0.503,0.9534,0.1486,0.3982,0.46,-117.6175,78.0762,11.3313,117.8152542052405,-27.098268665368355,93.18806179372393,0.08761666666669043
-0.5079,-0.5198,0.8641,0.1486,0.3982,0.46,-117.6175,78.0762,11.3313,121.00182789633537,-26.75791337327561,94.6988515781689,0.08761666666669043
-0.5079,-0.5198,0.8641,0.1589,0.4118,0.4529,-103.74,70.2975,-1.4262,121.02878245471769,-26.745775240025303,96.09570182902941,0.08761666666669043
-0.6002,-0.3922,0.8109,0.1589,0.4118,0.4529,-93.7562,62.125,-9.6075,115.86657678770457,-32.833641919269795,90.65173887089469,0.08761666666669043
-0.4944,-0.2874,0.6127,0.1589,0.4118,0.4529,-93.7562,62.125,-9.6075,115.13774500206645,-35.74650427996748,88.97252172508576,0.08761666666669043
-0.4944,-0.2874,0.6127,0.1656,0.4238,0.4414,-97.6675,60.375,-9.73,115.13000663532313,-36.101418285649245,90.3924909400023,0.08761666666669043
-0.4665,-0.4011,0.642,0.1656,0.4238,0.4414,-97.6675,60.375,-9.73,121.92579393834113,-32.17758393038368,95.91049458447606,0.08761666666669043
-0.4665,-0.4011,0.642,0.1656,0.4238,0.4414,-98.21,62.2475,-9.0913,121.99504669946319,-31.71276429507764,96.00194468042528,0.08788333333313858
-0.5615,-0.5125,0.8033,0.1656,0.4238,0.4414,-98.21,62.2475,-9.0913,122.53210360797382,-30.665930389298158,96.65284751555124,0.08788333333313858
-0.6864,-0.5605,0.8777,0.1722,0.437,0.4298,-89.3463,53.6987,-13.51,122.56200086802848,-33.16475668824375,97.01579425947877,0.08788333333313858
-0.6839,-0.5605,0.8777,0.1722,0.437,0.4298,-89.3463,53.6987,-13.51,122.562333745705,-33.28274354444752,97.05362322531126,0.08788333333313858
-0.7044,-0.4448,0.8678,0.1722,0.437,0.4298,-71.9863,35.6125,-20.86,117.21275169017298,-35.710965706362714,93.27411378748793,0.08788333333313858
-0.7044,-0.4448,0.8678,0.1775,0.446,0.4321,-71.9863,35.6125,-20.0725,117.13891806950737,-35.8353564171657,93.63513197736282,0.08788333333313858
-0.5477,-0.4402,0.733,0.1775,0.446,0.4321,-59.0975,22.8113,-20.0725,120.92214313218084,-32.813147492141326,96.78539076012703,0.08788333333313858
-0.5477,-0.4402,0.733,0.1775,0.446,0.4321,-51.3713,23.1963,-16.765,120.98549492572693,-32.653401947937645,96.92362981877082,0.08788333333313858
-0.4679,-0.4996,0.6526,0.1775,0.446,0.4321,-51.3713,23.1963,-16.765,127.31154525656137,-29.848114998436877,100.71655814687267,0.09178333333329647
-0.476,-0.4487,0.614,0.1806,0.4523,0.4312,-46.1037,30.3975,-15.3475,126.18340843289343,-31.886132911084403,100.08518264905555,0.09204999999997199
-0.476,-0.4487,0.614,0.1806,0.4523,0.4312,-46.1037,30.3975,-15.3475,126.15918490936103,-32.032081865109205,100.06440827518367,0.09204999999997199
-0.5096,-0.4462,0.6166,0.1806,0.4523,0.4312,-48.3,35.8138,-14.8925,125.89671594075013,-33.6730077452314,99.48251349229733,0.09204999999997199
-0.5096,-0.4462,0.6166,0.1858,0.4598,0.4282,-48.3,35.8138,-14.8925,125.89133397713479,-33.79447764928673,100.10806884738359,0.09230000000002292
-0.4418,-0.3956,0.6113,0.1858,0.4598,0.4282,-50.9425,42.805,-15.26,122.966755404305,-31.430919634408863,99.37551563595872,0.09230000000002292
-0.4454,-0.4925,0.6882,0.1858,0.4598,0.4282,-50.9425,42.805,-15.26,125.53783286792007,-28.022891335708476,101.4582339187334,0.09230000000002292
-0.4454,-0.4925,0.6882,0.1922,0.4679,0.4131,-53.515,58.3363,-10.92,125.58789064226387,-27.78597294421879,102.72310751110443,0.09256666666647106
-0.5161,-0.5797,0.7414,0.1922,0.4679,0.4131,-46.6725,67.7162,-9.3975,127.9701891698384,-28.620624621820582,103.57793441237897,0.09256666666647106
-0.5161,-0.5797,0.7414,0.1922,0.4679,0.4131,-46.6725,67.7162,-9.3975,128.02072502948067,-28.72477500306422,103.59055910034425,0.09256666666647106
-0.5444,-0.5505,0.7477,0.1922,0.4679,0.4131,-41.0112,63.6475,-14.2013,126.40262355918472,-30.25467419316366,102.51954303480694,0.09256666666647106
-0.5796,-0.5391,0.7242,0.1991,0.4732,0.4014,-41.0112,63.6475,-14.2013,126.65796995068574,-32.50906245886029,103.27566819276682,0.09256666666647106
-0.5796,-0.5391,0.7242,0.1991,0.4732,0.4014,-35.5863,53.5238,-18.025,126.66410304152497,-32.68836283531402,103.287513223334,0.09256666666647106
-0.5922,-0.4986,0.7548,0.1991,0.4732,0.4014,-35.5863,53.5238,-18.025,123.53685833327232,-33.17916288338598,101.59013937499843,0.09256666666647106
-0.5922,-0.4986,0.7548,0.2045,0.479,0.4135,-32.6813,37.2837,-18.55,123.45033869737159,-33.20871324709497,101.42093697473024,0.09256666666647106
-0.6367,-0.5833,0.8101,0.2045,0.479,0.4135,-32.6813,37.2837,-18.55,125.68566254552869,-32.56993073700555,102.70143728069137,0.092816666666522
-0.6367,-0.5833,0.7521,0.2045,0.479,0.4135,-25.9788,16.4237,-19.0487,127.71600077539924,-33.7121656728284,103.43593892092396,0.092816666666522
-0.6099,-0.5128,0.7521,0.2045,0.479,0.4135,-25.9788,16.4237,-16.8088,124.41676437913446,-33.815334850248895,101.78323119827195,0.092816666666522
-0.6492,-0.5006,0.7465,0.2028,0.4811,0.4072,-15.3912,-4.7075,-17.3075,123.88166256283769,-35.71293762813515,101.23047567954832,0.092816666666522
-0.6492,-0.5006,0.7465,0.2028,0.4811,0.4072,-7.7438,-26.6963,-10.5,123.85003681917175,-35.82614190576988,101.13709213371499,0.092816666666522
-0.6516,-0.5919,0.7622,0.2028,0.4811,0.4072,-7.7438,-26.6963,-10.5,127.34689988615362,-34.22482901765206,103.5870259121961,0.092816666666522
-0.6516,-0.5919,0.7622,0.1974,0.4797,0.4072,8.7762,-52.36,-6.7463,127.78472571314305,-34.06432559798332,103.27728610697821,0.092816666666522
-0.7297,-0.6256,0.9302,0.1974,0.4797,0.4072,8.7762,-52.36,-6.7463,124.29722901207337,-33.24850946183534,101.52675126206186,0.092816666666522
-0.8734,-0.7353,1.107,0.1974,0.4797,0.4072,34.685,-89.075,-3.4825,123.61265049746099,-33.28242539899231,101.26577770608864,0.092816666666522
-0.8734,-0.7353,1.107,0.1833,0.4726,0.4262,34.685,-89.075,-3.4825,123.59374823289497,-33.29858424016027,99.21008327867185,0.09308333333319752
-0.8827,-0.8899,1.088,0.1833,0.4726,0.4262,74.13,-138.4863,-5.9325,129.20535542978752,-32.385821348902134,102.30463619882912,0.09308333333319752
-0.8827,-0.8899,1.088,0.1833,0.4726,0.4262,74.13,-138.4863,-5.9325,129.27952246258232,-32.18516600687218,102.32666277754109,0.09308333333319752
-0.9617,-0.8192,1.1082,0.1833,0.4726,0.4262,126.2975,-190.4962,-21.5075,126.49439211469394,-34.77346317209618,100.29729969211228,0.09308333333319752
-0.8492,-0.799,0.8761,0.1545,0.4539,0.446,173.3375,-242.7337,-31.465,132.33113146258776,-35.58184105930661,99.9746527018957,0.09308333333319752
-0.8492,-0.799,0.8761,0.1545,0.4539,0.446,173.6,-242.7337,-31.465,132.36450948529952,-35.608714065395205,99.97333437186785,0.09308333333319752
-0.7127,-0.8581,0.7134,0.1545,0.4539,0.446,218.6712,-277.8475,-42.2625,140.22496634530202,-32.63946187513528,104.5572357279889,0.09308333333319752
-0.7127,-0.8581,0.7134,0.1152,0.422,0.4867,218.6712,-277.8475,-42.2625,140.2606627653672,-32.566826566050594,99.21632171466061,0.09308333333319752
-0.573,-0.645,0.6369,0.1152,0.422,0.4867,253.995,-285.2762,-50.1463,135.38120335104549,-32.30374075743163,96.67249483779764,0.09308333333319752
-0.573,-0.645,0.6284,0.1152,0.422,0.4867,253.995,-285.2762,-50.1463,135.7454325637931,-32.46556468225373,96.83863059400122,0.09308333333319752
-0.5558,-0.6597,0.6284,0.1152,0.422,0.5072,270.2263,-285.6,-57.9513,136.38959748152828,-31.403820106102124,96.52570233718957,0.09334999999987303
-0.2551,-0.509,0.3996,0.0679,0.3842,0.5085,270.2263,-285.6,-57.9513,141.84549829131797,-21.68965461957601,95.28001989183132,0.09334999999987303
-0.2551,-0.509,0.3996,0.0679,0.3842,0.5085,278.3375,-285.6,-63.35,141.86557675778118,-21.517659037316864,95.27568867216775,0.09334999999987303
0.0162,-0.5473,0.3009,0.0679,0.3842,0.5085,278.3375,-285.6,-63.35,151.16510290628037,1.1145892795847099,95.92683525797784,0.09334999999987303
0.0162,-0.5473,0.3009,0.0217,0.3438,0.5227,279.44,-281.0763,-68.0575,151.19833148402566,1.4802463985394525,91.88873401339563,0.09334999999987303
-0.2055,-0.223,0.58,0.0217,0.3438,0.5227,279.4138,-264.3463,-62.6325,111.17386339641995,-17.976559507922826,79.58951572027132,0.09334999999987303
-0.1271,-0.2638,0.6654,0.0217,0.3438,0.5227,279.4138,-264.3463,-62.6325,111.62440237655275,-10.198018970158236,85.35378732794044,0.09334999999987303
-0.1271,-0.2638,0.6654,-0.0199,0.3034,0.5385,264.0487,-255.0975,-54.1538,111.6260056974673,-10.071358808968583,79.69419558817867,0.09334999999987303
-0.3173,-0.3212,0.8886,-0.0199,0.3034,0.5385,264.0487,-255.0975,-54.1538,109.87987477526393,-18.4018275451588,72.57595058482823,0.09334999999987303
-0.3173,-0.3212,0.8886,-0.0199,0.3034,0.5385,269.0275,-262.6575,-55.79,109.87329954582219,-18.559782348057993,72.54826113775395,0.09334999999987303
-0.4646,-0.0669,0.9311,-0.0199,0.3034,0.5385,269.0275,-262.6575,-55.79,94.16793117681311,-26.314181352343205,54.12033429025088,0.09334999999987303
-0.243,-0.0637,0.706,-0.0667,0.2621,0.5384,258.8075,-282.7038,-54.4163,95.15185089544028,-19.06111529807269,53.456606836098345,0.09359999999992397
-0.243,-0.0637,0.706,-0.0667,0.2621,0.5384,258.8075,-282.7038,-54.4163,95.15563027075055,-18.924349400364722,53.45427558968052,0.09359999999992397
0.0294,0.1134,0.4434,-0.0667,0.2621,0.5384,239.2162,-285.6,-53.2525,75.73505676096669,3.239817627407839,76.40831162445997,0.09359999999992397
0.0294,0.1134,0.4434,-0.1125,0.2271,0.5269,239.2162,-285.6,-53.6375,75.65438910073343,3.667190743992132,49.76871195250841,0.09359999999992397
0.5004,0.4945,0.2414,-0.1125,0.2271,0.5269,211.8638,-283.36,-53.6375,26.252828407516365,41.54317485569424,118.68150840956736,0.09359999999992397
0.5004,0.6038,0.5352,-0.1125,0.2271,0.5269,163.4325,-251.5538,-22.015,41.46058734151292,32.27855913046519,126.14586385578684,0.09465000000000146
0.3561,0.6057,0.5352,-0.1125,0.2271,0.5269,163.4325,-251.5538,-22.015,41.46397888127421,24.18878219434289,113.55471311396272,0.09465000000000146
0.4951,0.0487,0.5843,-0.1482,0.2047,0.5205,115.01,-215.9763,11.06,84.85995976175562,39.07108943390589,144.13771216327433,0.09465000000000146
0.4951,0.0487,0.5843,-0.1482,0.2047,0.5205,115.01,-215.9763,11.06,85.23232402065804,40.101463891308,145.31988639366116,0.09465000000000146
0.4997,0.4371,0.768,-0.1482,0.2047,0.5205,99.6888,-183.1463,8.8725,60.59982051419043,30.353315031372883,149.39678139463936,0.09465000000000146
0.4997,0.4371,0.768,-0.1773,0.1904,0.5158,99.6888,-183.1463,8.8725,60.35646573613511,29.55794325582592,141.53419988403311,0.09489999999982501
0.2542,-0.1747,1.0033,-0.1773,0.1904,0.5158,81.7775,-168.735,22.75,99.40322476466525,14.609855651388923,77.07198608392851,0.09489999999982501
0.1772,-0.2252,0.9589,-0.1773,0.1904,0.5158,81.7775,-168.735,22.75,103.17076556855322,10.36724838218615,72.92511090906213,0.09489999999982501
0.1772,-0.2252,0.9589,-0.2051,0.1732,0.5045,92.0325,-184.1,-4.13,103.21604935013636,10.25990901380343,66.79785896384992,0.09489999999982501
0.2187,0.0558,0.7487,-0.2051,0.1732,0.5045,103.74,-202.9825,-34.8512,85.90370352972423,16.062052112883915,68.73175454457625,0.09489999999982501
0.2187,0.0558,0.7487,-0.2051,0.1732,0.5045,103.74,-202.9825,-34.8512,85.73924966172801,16.23541804108872,68.74118873541143,0.09489999999982501
0.401,0.377,0.5783,-0.2051,0.1732,0.5045,101.955,-203.1488,-29.5925,57.17792023187617,29.658082906868167,121.36534312110882,0.09489999999982501
0.4355,0.2915,0.5754,-0.2318,0.1598,0.5091,101.955,-203.1488,-29.5925,63.075494693367474,33.871102823120175,139.39770209333645,0.09489999999982501
0.4355,0.2915,0.5754,-0.2318,0.1598,0.5091,87.7012,-186.305,-3.5612,63.132394563784835,33.954837162320075,139.48556016627924,0.09489999999982501
0.5674,0.052,0.5905,-0.2318,0.1598,0.5091,87.7012,-186.305,-3.5612,84.72276287283835,39.250008434667436,147.76999731282908,0.09489999999982501
0.5674,0.052,0.5905,-0.2566,0.1469,0.4835,85.8025,-162.3387,0.105,84.96465837675606,42.45762439604587,146.4360432039197,0.09489999999982501
0.5919,0.1927,0.6687,-0.2566,0.1469,0.4835,85.8025,-162.3387,0.105,74.05096071888515,40.977304558372175,176.65865969343284,0.09489999999982501
0.5919,0.0267,0.7667,-0.2566,0.1469,0.4835,89.4863,-141.4175,-16.3975,87.85218873096586,37.873203723951555,126.5521569236788,0.09516666666650053
0.568,0.0267,0.7667,-0.2566,0.1469,0.4662,89.4863,-141.4175,-16.3975,88.0038205075048,36.60623123217235,119.60681278225515,0.09516666666650053
0.4769,0.1984,0.7945,-0.2724,0.1321,0.4662,93.7738,-131.32,-30.17,76.10520002262507,30.437190482823578,118.73297101468155,0.09516666666650053
0.4769,0.1984,0.7945,-0.2724,0.1321,0.4662,100.0038,-130.1037,-45.3512,75.98027169935911,30.220223548082114,118.72641727066514,0.09516666666650053
0.5194,0.1482,0.7454,-0.2724,0.1321,0.4662,100.0038,-130.1037,-45.3512,78.72779371234874,34.25595877550341,140.77722832589757,0.09516666666650053
0.5194,0.1482,0.7454,-0.2863,0.1163,0.447,101.4125,-133.3763,-51.8787,78.754857101401,34.348023752581234,131.5691430543934,0.09516666666650053
0.382,0.24,0.7895,-0.2863,0.1163,0.447,101.4125,-133.3763,-51.8787,73.14627581651577,25.029266099268433,14.775022631434153,0.09516666666650053
0.3571,0.2791,0.7261,-0.2863,0.1163,0.447,100.7387,-147.0087,-52.7975,69.01491814451181,24.665201630935773,36.87380158367693,0.09516666666650053
0.3571,0.2791,0.7261,-0.3033,0.1007,0.4429,100.7387,-147.0087,-52.7975,68.97452174620136,24.65812058078001,36.38801032222158,0.09516666666650053
0.4917,0.3061,0.4806,-0.3033,0.1007,0.4429,90.755,-166.3112,-51.87,57.6307082361465,40.47240269480777,107.59566878508994,0.09516666666650053
0.4917,0.3061,0.4806,-0.3033,0.1007,0.4429,90.755,-166.3112,-51.87,57.50778903049963,40.78564109752379,108.01872646902676,0.09516666666650053
0.725,0.5317,0.3598,-0.3033,0.1007,0.4429,77.42,-164.5437,-51.6425,34.3827674508946,48.32167419144505,98.70267623374983,0.09541666666655146
0.833,0.6509,0.3941,-0.3186,0.0914,0.4229,77.42,-137.6638,-34.2388,31.23401388809642,47.611874478757024,90.88925037333593,0.09984999999983302
0.833,0.6509,0.3941,-0.3186,0.0914,0.4229,53.4975,-137.7337,-34.2388,31.19435430273828,47.59027060727692,90.8333078290291,0.09984999999983302
0.5611,0.1923,0.7437,-0.3186,0.0914,0.4229,35.5163,-112.3587,-16.94,74.3064847900637,36.881811299299784,82.61617436007477,0.09984999999983302
0.5611,0.1923,0.7437,-0.3295,0.0858,0.4126,35.5163,-112.3587,-16.94,75.47016641816698,36.193448110341635,48.96486278065389,0.10009999999988395
0.5407,0.4273,0.5727,-0.3295,0.0858,0.4126,43.365,-109.9788,-24.9112,53.76724085718966,37.07592097641576,79.45622636801993,0.10009999999988395
0.4939,0.4049,0.6838,-0.3295,0.0858,0.4126,43.365,-109.9788,-24.9112,59.244092012526856,32.082724517280795,63.187992540393005,0.10009999999988395
0.4901,0.4049,0.6838,-0.3295,0.0654,0.4018,29.435,-106.1637,-11.6988,59.364829636574875,31.703705972614426,61.25672247555338,0.10036666666655947
0.6011,0.1382,0.7271,-0.34,0.0812,0.4018,29.435,-106.1637,-11.6988,78.59639075443961,38.367093872793525,39.79958480586717,0.10036666666655947
0.6011,0.1382,0.7271,-0.34,0.0812,0.4018,33.1362,-107.3275,-16.5462,79.2196424421288,39.03524056387502,40.73392080329816,0.10036666666655947
0.6253,0.3354,0.6983,-0.34,0.0812,0.4018,33.1362,-107.3275,-16.5462,64.77366391752592,38.91807456200922,80.4173735436859,0.1006166666666104
0.6253,0.3354,0.6983,-0.3512,0.0746,0.3888,34.125,-120.8638,-24.0713,64.3566251590642,38.91016629399448,72.05823556072436,0.1006166666666104
0.8206,0.2244,0.4837,-0.3512,0.0746,0.3888,32.0163,-120.9075,-35.2013,65.08976206237821,56.450127087631266,143.13576741678847,0.1006166666666104
0.9565,0.5484,0.3808,-0.3512,0.0746,0.3888,32.0163,-120.9075,-35.2013,35.67908969320527,55.12497527682769,96.7847260002835,0.1006166666666104
0.9565,0.5484,0.3808,-0.3583,0.0702,0.3733,20.7025,-104.1862,-35.0438,34.81612213377714,55.085795719394746,93.63472864306692,0.1006166666666104
0.9548,0.6744,0.3869,-0.3583,0.0702,0.3733,20.7025,-104.1862,-35.0438,30.06636734948711,50.96985074722017,83.1942365128334,0.1006166666666104
0.9548,0.6744,0.3869,-0.3583,0.0702,0.3733,-10.6575,-72.7738,-16.7738,29.86278868376371,50.85201605161672,83.09631169478195,0.1006166666666104
0.9969,0.5389,0.1745,-0.3583,0.0702,0.3733,-10.6575,-72.7738,-16.7738,19.013782442582407,59.774321624690124,86.69785720961508,0.1006166666666104
0.9088,0.8603,0.115,-0.3643,0.0722,0.3853,-39.1738,-36.7588,-6.09,7.901409215454447,49.17636500247683,66.88973980036022,0.10088333333328592
0.9088,0.8603,0.115,-0.3643,0.0722,0.3853,-39.1738,-36.7588,-6.09,7.621091418926349,46.92455122636572,66.37875068682342,0.10088333333328592
0.9444,0.7352,0.0637,-0.3643,0.0722,0.3853,-88.55,-0.8487,19.705,4.981901297347948,51.77627279430943,68.3865236173072,0.10088333333328592
0.9444,0.7352,0.0637,-0.3645,0.0872,0.3929,-88.55,-0.8487,50.3037,4.95225355654213,51.99182984581272,70.33964435349758,0.10088333333328592
0.7207,0.6049,0.2053,-0.3645,0.0872,0.3929,-136.9025,39.2788,50.3037,18.64653298470816,48.513962526568825,75.9010106841695,0.10088333333328592
0.7207,0.6386,0.3653,-0.3645,0.0872,0.3929,-174.1862,79.0738,76.965,29.707268656128136,44.46100010875579,76.59833569343381,0.10088333333328592
0.733,0.6386,0.3653,-0.3645,0.1136,0.417,-174.1862,79.0738,76.965,29.77059790664596,44.88928396961352,82.01650932559389,0.10088333333328592
0.8051,0.2694,0.1332,-0.3594,0.1136,0.417,-210.84,111.5013,94.7275,26.32564862223016,69.27907392381631,113.54517363916413,0.10088333333328592
0.8051,0.2694,0.1332,-0.3594,0.1136,0.417,-210.84,111.5013,94.7275,26.309345665676386,69.52766753036587,113.82795249196676,0.10088333333328592
0.6245,0.5597,0.2708,-0.3594,0.1136,0.417,-233.695,155.1375,104.9563,25.821212450243273,45.35078952278695,81.0771208025464,0.10088333333328592
0.6245,0.5597,0.6925,-0.347,0.1498,0.449,-233.695,155.1375,104.9563,50.946024246746774,35.139664150065876,79.91332850132895,0.10088333333328592
0.4389,-0.2863,0.6974,-0.347,0.1498,0.449,-259.2013,171.71,130.375,112.0830146790911,30.244344062863973,67.99285427748848,0.10088333333328592
0.5164,-0.1994,0.7631,-0.347,0.1498,0.449,-259.2013,171.71,130.375,104.67274834289329,33.19178173097645,74.17109363532023,0.10114999999996144
0.5164,-0.1994,0.7631,-0.3332,0.1883,0.4739,-243.6175,158.4625,125.0375,104.64421809281993,33.213810334127864,79.88311113929623,0.10114999999996144
0.4366,-0.5891,0.9243,-0.3332,0.1883,0.4739,-205.9225,132.6938,75.3812,122.42471537365046,21.864925580171185,64.40523424414022,0.10114999999996144
0.4366,-0.5891,0.9243,-0.3332,0.1883,0.4739,-205.9225,132.6938,75.3812,122.51086505301463,21.72083982040631,64.28858588243489,0.10114999999996144
0.4383,-0.1284,0.82,-0.3332,0.1883,0.4739,-182.5163,104.72,51.1175,99.0284505078871,27.725293056687555,70.87482046084374,0.10114999999996144
0.5012,-0.1881,0.6648,-0.3196,0.2145,0.4966,-182.5163,104.72,51.1175,105.76145126831744,35.80727945442863,87.75780146341701,0.10114999999996144
0.5012,-0.1881,0.6648,-0.3196,0.2145,0.4966,-162.5225,94.3863,44.7562,105.79822192559025,35.955203552219075,87.91885988737356,0.10114999999996144
0.4751,-0.0159,0.6463,-0.3196,0.2145,0.4966,-162.5225,94.3863,44.7562,91.49756304068238,36.304211209181915,98.2539562849839,0.10114999999996144
0.4751,-0.0159,0.6463,-0.3066,0.24,0.506,-159.355,87.9112,37.5725,91.40983469463167,36.31143411241809,100.95542804891389,0.10114999999996144
0.546,0.0162,0.3939,-0.3066,0.24,0.506,-159.355,87.9112,37.5725,87.66846962976985,53.73324397143626,137.01404396038683,0.10114999999996144
0.6953,0.1271,0.266,-0.3066,0.24,0.506,-170.1613,98.0437,40.9325,64.59663021235889,66.72327001497268,176.53679682556165,0.10114999999996144
0.6953,0.1271,0.266,-0.2886,0.2695,0.522,-170.1613,98.0437,40.9325,64.46141424961066,67.01639212367891,173.96392104462228,0.10140000000001237
0.4576,-0.2285,0.4626,-0.2886,0.2695,0.522,-185.0712,127.715,62.9212,116.00761912435742,41.95349451204838,92.51258264499249,0.10140000000001237
0.4576,-0.2285,0.4626,-0.2886,0.2695,0.522,-184.7475,155.1375,76.3613,116.28543451937011,41.57452370776458,91.87390700666981,0.10140000000001237
0.6242,0.0183,0.3366,-0.2886,0.2695,0.522,-184.7475,155.1375,76.3613,87.04677215466114,61.37740472181704,143.90567408845638,0.10140000000001237
0.6242,0.0183,0.4738,-0.2637,0.3026,0.531,-199.2637,183.6187,81.6375,87.78440178647487,52.88019031279872,134.06509243104549,0.10140000000001237
0.5725,-0.228,0.4738,-0.2637,0.3026,0.531,-199.2637,183.6187,81.6375,115.55783710484558,47.498567797928416,98.94030989295396,0.10140000000001237
0.3723,-0.2079,0.7629,-0.2637,0.3026,0.531,-214.41,202.3437,85.8725,105.29167938262985,25.46244919106843,82.91717121969319,0.10140000000001237
0.3723,-0.2079,0.7629,-0.231,0.3399,0.5354,-214.41,202.3437,85.8725,105.24390275781505,25.215562750490836,86.6824289815588,0.10140000000001237
0.2815,-0.7866,0.9992,-0.231,0.3399,0.5354,-214.4975,199.0712,91.98,128.10403463563134,12.615400797566366,73.31696592444867,0.10140000000001237
0.2815,-0.7866,0.9992,-0.231,0.3399,0.5354,-214.4975,199.0712,91.98,128.21037776914187,12.483273202319618,73.2498249719532,0.10140000000001237
0.2829,-0.8339,1.1414,-0.231,0.3399,0.5354,-172.9613,174.4312,56.4463,126.16351104153651,11.33666331895974,72.95313888499054,0.10140000000001237
0.1238,-0.5839,1.29,-0.2049,0.3662,0.5491,-172.9613,138.5912,19.985,114.42130177919053,5.2679547306106,72.76945015533668,0.10478333333321643
0.1238,-0.5839,1.29,-0.2049,0.3662,0.5491,-120.0588,136.6925,19.985,114.35376819724205,5.008259630108,72.76812483722823,0.10478333333321643
0.1853,-0.5091,1.1185,-0.2049,0.3662,0.5491,-90.2213,92.2425,-0.1925,114.47196203463777,7.4570613025745525,74.93285106018206,0.10504999999989195
0.1853,-0.5091,1.1185,-0.1897,0.3793,0.5506,-90.2213,92.2425,-0.1925,114.47326531414663,8.224448278523075,76.60940240122889,0.10504999999989195
0.4364,-0.3495,0.7214,-0.1897,0.3793,0.5506,-79.135,67.62,-17.3075,115.8317285599911,27.28694797079266,88.95173854573272,0.10504999999989195
0.4847,-0.1246,0.4443,-0.1897,0.3793,0.5506,-79.135,67.62,-17.3075,105.79339081109676,45.20743864883956,108.90400307690197,0.10529999999994288
0.4847,-0.1246,0.4443,-0.1758,0.3969,0.5501,-92.7937,77.4287,-21.0,105.66705123471614,46.34701573579645,109.19376972470543,0.10529999999994288
0.6994,0.1896,0.2554,-0.1758,0.3969,0.5501,-92.7937,77.4287,-21.0,53.97141671902489,64.56555495583216,175.3081113404246,0.10529999999994288
0.6994,0.1896,0.2554,-0.1758,0.3969,0.5501,-125.3875,119.7962,-5.4338,53.41555507460238,65.30255888619638,178.99974897352604,0.1055666666666184
0.5825,-0.0494,0.336,-0.1758,0.3969,0.5501,-125.3875,119.7962,-5.4338,98.00678049297058,61.12601098536268,122.52411368891534,0.1055666666666184
0.5825,-0.4242,0.5007,-0.1474,0.4232,0.5559,-172.8737,170.66,39.7687,130.08559990616243,42.04610483543555,89.33288914192386,0.1055666666666184
0.4634,-0.4265,0.5007,-0.1474,0.4232,0.5559,-177.8175,213.3862,47.3288,130.42270363742315,35.3022414173579,87.09082624863282,0.1055666666666184
0.2439,-0.2707,0.7257,-0.1474,0.4232,0.5559,-177.8175,213.3862,47.3288,110.56846880224393,17.8304025504613,87.2297532843924,0.1055666666666184
0.2439,-0.2707,0.7257,-0.108,0.4539,0.5415,-190.6537,231.5425,66.9287,110.45706474497845,17.483942655718344,90.14819582633295,0.1055666666666184
-0.0145,-0.6953,1.0076,-0.108,0.4539,0.5415,-190.6537,231.5425,66.9287,124.53379226092446,-0.42028618950107477,80.84870200750628,0.1055666666666184
-0.0145,-0.6953,1.0076,-0.108,0.4539,0.5415,-170.8087,216.5275,54.5913,124.60740049126646,-0.6741430638733773,80.80854991477172,0.1055666666666184
-0.0836,-0.8506,1.2428,-0.108,0.4539,0.5415,-170.8087,216.5275,54.5913,124.38988492750784,-3.134100119103235,80.13242625654175,0.10581666666666933
-0.2519,-0.6367,1.2625,-0.0744,0.4806,0.5444,-145.74,172.7688,36.5225,116.81474572039389,-9.9267720291954,79.86524737170686,0.10581666666666933
-0.2519,-0.6367,1.2625,-0.0744,0.4806,0.5444,-145.74,172.7688,36.5225,116.76293510779254,-10.096988448290224,79.86370086946529,0.10581666666666933
-0.1205,-0.5183,1.0355,-0.0744,0.4806,0.5444,-120.3562,120.365,24.325,116.59082819448476,-6.090888961498768,81.3645757330344,0.10581666666666933
-0.1205,-0.5183,1.0355,-0.0569,0.4982,0.5328,-120.3562,120.365,29.0325,116.5894037567355,-5.945523157028668,83.08095641184651,0.10581666666666933
0.1468,-0.3703,0.5085,-0.0569,0.4982,0.5328,-111.1162,85.75,29.0325,125.97796609366115,12.547402069168095,88.00869561182434,0.10581666666666933
0.1346,-0.3303,0.3503,-0.0569,0.4982,0.5328,-117.425,95.585,36.7238,133.2545501825041,15.542473865574765,86.67696511191774,0.10581666666666933
0.1346,-0.3303,0.3503,-0.0364,0.5193,0.5223,-117.425,95.585,36.7238,133.31627198457466,15.617150171405946,87.75898967420497,0.10581666666666933
0.2367,-0.1253,0.1387,-0.0364,0.5193,0.5223,-137.4975,129.0538,52.5875,132.10315584493665,51.057950150156785,90.63235767427037,0.10608333333334485
0.2367,-0.1253,0.1387,-0.0364,0.5193,0.5223,-137.4975,129.0538,52.5875,132.09436296623693,51.69114845566688,90.65462350203222,0.10608333333334485
0.1972,-0.2705,0.2046,-0.0364,0.5193,0.5223,-163.135,176.4263,85.9775,142.83094489806098,30.415852378069825,83.6853424425316,0.10608333333334485
0.1972,-0.7678,0.7448,-0.0019,0.541,0.5046,-163.135,176.4263,85.9775,135.91369061494174,10.66879068738424,89.30326991536664,0.10608333333334485
0.0562,-0.7678,0.7448,-0.0019,0.541,0.5046,-165.0075,218.4438,115.08,135.87140700811648,3.072137077459468,89.70060489525551,0.10608333333334485
-0.2306,-1.4633,1.4739,-0.0019,0.541,0.5046,-165.0075,218.4438,115.08,134.79974298572682,-6.256152217515618,90.04933839834504,0.10608333333334485
-0.2306,-1.4633,1.4739,0.0352,0.5495,0.4902,-103.9063,224.3587,123.1475,134.7932897759803,-6.334938894463342,93.04738800414306,0.10608333333334485
-0.4409,-1.849,1.8804,0.0352,0.5495,0.4902,6.895,177.9925,81.4625,134.55032019969437,-9.454088090893574,93.15979382839535,0.10608333333334485
-0.4409,-1.849,1.8804,0.0352,0.5495,0.4902,6.895,177.9925,81.4625,134.52148705623827,-9.490850529323769,93.1604253677895,0.10608333333334485
-0.1865,-1.3189,1.2551,0.0352,0.5495,0.4902,107.66,124.3463,6.125,136.40247538639852,-6.231774553775314,93.20836945868557,0.10608333333334485
-0.2227,-0.6266,0.7079,0.0544,0.5345,0.493,107.66,124.3463,6.125,131.55852473975975,-12.516620378950703,93.89250393214004,0.10608333333334485
-0.2227,-0.6266,0.7079,0.0544,0.5345,0.493,158.4713,108.57,-18.4275,131.51403265316895,-13.211929559437474,93.89799953977698,0.10635000000002037
0.1142,-0.4333,0.2395,0.0544,0.5345,0.493,158.4713,108.57,-18.4275,150.9468262396367,11.451815626065304,90.15669736360532,0.10635000000002037
0.1142,-0.4333,0.2395,0.0687,0.5123,0.4959,175.7875,128.5725,-11.5413,151.06835348042935,12.837741194285298,91.67535268937569,0.10635000000002037
-0.1726,0.0805,0.5867,0.0687,0.5123,0.4959,175.7875,128.5725,-11.5413,82.5757953399721,-13.38561191709932,78.42200735435685,0.10635000000002037
-0.0354,-0.761,0.5963,0.0687,0.5123,0.4959,157.2988,149.3275,47.2938,141.54504112032905,-2.3197477771789967,95.7213031792368,0.10635000000002037
-0.0354,-0.761,0.5963,0.0905,0.4867,0.4965,157.2988,149.3275,47.2938,141.91631256190902,-2.1013887827327293,97.67261660998304,0.10635000000002037
-0.0716,-0.5226,0.4794,0.0905,0.4867,0.4965,164.2287,144.7337,59.0275,137.4955398654211,-5.706445139525796,97.57138007431566,0.10635000000002037
-0.0716,-0.5226,0.4794,0.0905,0.4867,0.4965,176.155,144.27,42.2013,137.4688593530948,-5.7638610206357885,97.5706805959334,0.10635000000002037
0.0027,-0.3161,0.5754,0.0905,0.4867,0.4965,176.155,144.27,42.2013,118.8876643448479,0.10402525480299472,97.81061500660806,0.10635000000002037
-0.0753,-0.5139,0.7716,0.1098,0.461,0.4971,170.7912,137.2263,44.38,123.63663648845844,-4.544177465905655,98.33523578324069,0.10635000000002037
-0.0743,-0.5139,0.7716,0.1098,0.461,0.4971,170.7912,137.2263,44.38,123.66419504786012,-4.581376589197625,98.35413048914461,0.10635000000002037
-0.5026,-0.5641,1.0903,0.1098,0.461,0.4971,188.9913,120.7063,51.7825,117.38927471401031,-21.944716224971273,91.36889491925207,0.10635000000002037
-0.5026,-0.5641,1.0903,0.1224,0.4294,0.4917,188.9913,120.7063,51.7825,117.35633948404418,-22.259462826026873,92.12188131554305,0.10659999999984393
-0.6597,-0.5058,1.201,0.1224,0.4294,0.4917,209.8513,73.2463,54.25,112.85971960283885,-26.770239835574575,88.08461649849937,0.10659999999984393
-0.6597,-0.5058,1.201,0.1224,0.4294,0.4917,209.8513,73.2463,54.25,112.83844722567193,-26.848506293230283,88.02949335828609,0.10659999999984393
-0.5714,-0.486,0.9176,0.1224,0.4294,0.4917,223.6763,19.5387,52.5612,117.88508936263783,-28.78834516524007,89.42145450304056,0.10659999999984393
-0.4926,-0.0967,0.7404,0.1207,0.3939,0.4815,223.6763,-18.5413,53.3138,97.53178043616832,-33.331791362098315,74.28498373868506,0.1091999999998734
-0.4926,-0.0967,0.7404,0.1207,0.3939,0.4815,233.5813,-19.6087,53.3138,97.4413878695046,-33.41192637566284,73.54643864036392,0.10946666666654892
-0.2088,-0.1064,0.5093,0.1207,0.3939,0.4815,202.5538,-38.0187,69.5625,101.77882412574839,-22.024382432757097,85.7262069395451,0.10946666666654892
-0.2088,-0.1064,0.5093,0.1124,0.3591,0.4919,202.5538,-38.0187,69.5625,101.80007715586862,-21.86827339679922,84.02491347532708,0.10946666666654892
-0.0084,-0.153,0.4601,0.1124,0.3591,0.4919,177.2575,-32.2788,85.1025,108.35696433113065,-1.2284231356785624,101.5656813920738,0.10971666666659985
-0.2882,-0.0884,0.8864,0.1124,0.3591,0.4919,177.2575,-32.2788,85.1025,95.7660523369049,-17.739248748236516,85.8605569380453,0.10971666666659985
-0.2882,-0.0884,0.8864,0.1048,0.3315,0.4954,154.4375,-25.2787,98.3675,95.69568708486193,-17.92611912510651,83.77065729751318,0.10971666666659985
-0.3816,-0.3327,1.1105,0.1048,0.3315,0.4954,154.4375,-25.2787,98.3675,106.60752839793703,-18.21728885220291,87.48124636668281,0.10998333333327537
-0.3816,-0.3327,1.1105,0.1048,0.3315,0.4954,147.6475,-44.625,102.2438,106.67746934268882,-18.220151482772607,87.61939093838424,0.10998333333327537
-0.677,-0.3957,1.2706,0.1048,0.3315,0.4954,147.6475,-44.625,102.2438,107.29387401244132,-26.88058881999814,80.79986718517452,0.10998333333327537
-0.5283,-0.1799,0.995,0.0878,0.3012,0.501,159.6962,-88.69,85.5575,100.29228635745717,-27.57838718822919,72.04359888101426,0.10998333333327537
-0.5283,-0.1799,0.995,0.0878,0.3012,0.501,156.7213,-130.5587,73.3688,100.24886481433425,-27.586218644584953,71.94671309924722,0.10998333333327537
-0.271,-0.1286,0.7976,0.0878,0.3012,0.501,156.7213,-130.5587,73.3688,99.1660707810078,-18.661188046070894,81.06699282562268,0.10998333333327537
-0.271,-0.1286,0.7976,0.0639,0.2739,0.5075,145.8975,-145.565,73.2725,99.15923180674869,-18.544906553447984,76.44254360659683,0.10998333333327537
-0.3509,-0.1057,1.1614,0.0639,0.2739,0.5075,145.8975,-145.565,73.2725,95.22706507088381,-16.769575108299808,76.37279473078921,0.10998333333327537
-0.3509,-0.1057,1.088,0.0639,0.2739,0.5075,146.7025,-163.5638,81.1125,95.54674224362721,-17.784837784984475,75.1314727936588,0.11024999999995089
-0.4419,-0.2298,1.088,0.0639,0.2739,0.5075,146.7025,-163.5638,81.1125,101.8833027823249,-21.62640839367806,74.54876457490204,0.11024999999995089
-0.509,-0.2329,0.9279,0.0326,0.2465,0.5147,148.6888,-199.7538,73.2463,104.0752981154986,-27.931710824263828,64.07832877473547,0.11024999999995089
-0.509,-0.2329,0.9279,0.0326,0.2465,0.5147,148.6888,-199.7538,73.2463,104.08988996322877,-28.01399336895106,64.02643308706945,0.11024999999995089
-0.3216,0.0331,0.7651,0.0326,0.2465,0.5147,155.785,-218.5488,70.385,87.62810685277242,-22.850653552187577,52.34950859950623,0.11024999999995089
-0.3216,0.0331,0.7651,-0.005,0.2195,0.5203,155.785,-218.5488,85.1813,87.52346584328666,-22.78049911232169,43.24531301659418,0.11024999999995089
-0.142,-0.1592,0.73,-0.005,0.2195,0.5203,144.8737,-221.0163,85.1813,102.20162052381703,-10.896645043102302,74.21750119813352,0.11024999999995089
-0.1205,-0.2494,0.8108,-0.005,0.2195,0.5203,144.2,-215.1013,88.4013,107.06416618326593,-8.115432356268993,79.69173709027407,0.11024999999995089
-0.1205,-0.2494,0.8108,-0.0448,0.1918,0.5146,144.2,-215.1013,88.4013,107.09753259650746,-8.085130934580391,72.51858646630664,0.11050000000000182
-0.1616,-0.1324,0.9095,-0.0448,0.1918,0.5146,146.8163,-217.5163,76.3262,98.34204319092177,-9.948526873443328,64.24956999039337,0.11050000000000182
-0.1616,-0.1324,0.9095,-0.0448,0.1918,0.5146,146.8163,-217.5163,76.3262,98.28302327362819,-9.971904126293769,64.21190166863988,0.11050000000000182
-0.0924,-0.2005,0.9568,-0.0448,0.1918,0.5146,151.165,-226.8087,60.445,101.81196650325465,-5.471130223570876,73.20502379078947,0.11050000000000182
-0.1494,-0.2302,1.2015,-0.0854,0.167,0.5098,151.165,-226.8087,60.445,100.85240535002147,-6.939304719910368,61.46364168439881,0.11050000000000182
-0.1494,-0.2302,1.2015,-0.0854,0.167,0.5098,167.0988,-234.6488,43.6625,100.84611733882785,-6.962175952924177,61.41232016963324,0.11050000000000182
-0.1413,-0.0946,1.0161,-0.0854,0.167,0.5098,167.0988,-234.6488,43.6625,95.35174265988495,-7.8636070035103875,54.56935455169956,0.11050000000000182
-0.1413,-0.0946,1.0161,-0.1243,0.138,0.4989,181.6413,-249.9525,23.7563,95.31914490686218,-7.882462389156807,44.14365044455747,0.11050000000000182
-0.0304,0.0509,0.739,-0.1243,0.138,0.4989,177.1613,-250.3813,10.0538,86.11168605880235,-2.761784375196456,35.526333948997774,0.11050000000000182
-0.0304,0.0509,0.6191,-0.1243,0.138,0.4989,177.1525,-250.3813,10.0538,85.30447724059306,-2.798756785726685,32.98012940809405,0.11050000000000182
0.1286,0.405,0.6191,-0.1243,0.138,0.4989,158.8562,-236.5475,10.29,56.9859453036691,8.935312364820787,75.979965255359,0.11050000000000182
0.1005,0.4496,0.6349,-0.161,0.1174,0.4895,158.8562,-236.5475,10.29,54.71032568417692,7.475980849104909,61.98050902185956,0.11076666666667734
0.1005,0.4496,0.6349,-0.161,0.1174,0.4895,114.5725,-226.8613,27.0287,54.69617141542955,7.364619626363199,61.92183457993787,0.11076666666667734
0.2356,0.1973,0.6401,-0.161,0.1174,0.4895,114.5725,-226.8613,27.0287,72.71244920924708,18.983654028581988,114.60883315842024,0.11076666666667734
0.2356,0.1973,0.6401,-0.1914,0.1042,0.4673,85.33,-212.205,23.3975,72.86716864970215,19.363943419633777,60.01196215669861,0.11076666666667734
0.1691,0.4641,0.7398,-0.1914,0.1042,0.4673,85.33,-212.205,23.3975,58.070973360496474,11.272332734789785,57.47091810827018,0.11076666666667734
0.2772,0.3515,0.6846,-0.1914,0.1042,0.4673,50.785,-205.2575,17.3425,62.731471652905924,19.397320376430155,79.08000431977165,0.11076666666667734
0.2772,0.3515,0.6846,-0.2205,0.0991,0.4637,50.785,-205.2575,17.3425,62.82055399553498,19.789337744376688,67.12144214169365,0.11076666666667734
0.2333,0.4011,0.7532,-0.2205,0.0991,0.4637,17.0538,-196.0612,8.4175,62.00957071388979,15.671967862058953,54.73753710369916,0.11076666666667734
0.2333,0.4011,0.7532,-0.2205,0.0991,0.4637,-13.2738,-194.5475,-0.1575,61.96681010951154,15.408929822775722,54.675015623452325,0.11076666666667734
0.2839,0.4809,0.5522,-0.2205,0.0991,0.4637,-13.2738,-194.5475,-0.1575,49.89540829055403,19.399250030719692,76.2752876448744,0.11076666666667734
0.4167,0.3903,0.4867,-0.2446,0.1029,0.4629,-53.5938,-189.7962,-5.8625,51.24730231097207,30.538276978544527,98.82306088744055,0.11076666666667734
0.4167,0.3903,0.4867,-0.2446,0.1029,0.4629,-53.5938,-189.7962,-5.8625,51.272308649436724,33.02527257229846,98.94061864296144,0.1110166666665009
0.5345,0.4086,0.5454,-0.2446,0.1029,0.4629,-88.655,-175.2012,-6.6238,53.13918470655786,37.13795478601211,110.7578175310093,0.1141499999998814
0.5345,0.4086,0.5454,-0.2659,0.1154,0.4667,-88.655,-175.2012,-6.6238,53.1601318328502,37.92278650049404,108.85651250919734,0.11439999999993233
0.5742,0.2658,0.7211,-0.2659,0.1154,0.4667,-114.1263,-159.2063,-6.23,69.6210266461136,37.00388366189111,143.72392395274167,0.11439999999993233
0.5742,-0.0153,0.8995,-0.2659,0.1154,0.4667,-114.1263,-159.2063,-6.23,90.78813658146959,33.46786093240335,100.32096302954015,0.11439999999993233
0.4937,-0.0117,0.8995,-0.2659,0.1154,0.4872,-122.9725,-154.9625,-15.2425,90.74556483381575,29.098399268674065,90.32646097419119,0.11466666666660785
0.5213,0.035,0.7687,-0.2823,0.1277,0.471,-122.9725,-159.4425,-42.0525,87.42020145609598,33.99254020065298,107.37842337868352,0.11466666666660785
0.5213,0.035,0.7687,-0.2823,0.1277,0.471,-111.79,-159.0663,-42.0525,87.39328443026761,34.11288129295962,107.48404077796702,0.11466666666660785
0.5709,0.1686,0.8003,-0.2823,0.1277,0.471,-106.61,-154.14,-62.0988,78.19016216751518,34.903172336991275,149.27565756592819,0.11491666666665878
0.5709,0.1686,0.8003,-0.2971,0.137,0.471,-106.61,-154.14,-62.0988,78.10421453651672,34.916188697423,134.61381583713174,0.11491666666665878
0.7194,0.1357,0.6074,-0.2971,0.137,0.471,-104.7025,-144.0425,-72.1875,77.4129238536491,48.93513019217638,169.75651489175917,0.11491666666665878
0.7606,0.118,0.6245,-0.2971,0.137,0.471,-104.7025,-144.0425,-72.1875,79.28210089730916,50.10147148604364,165.66199561436724,0.11491666666665878
0.7606,0.118,0.6245,-0.3066,0.1451,0.4699,-105.0612,-122.1062,-77.8925,79.29987426074987,50.11796192037996,162.7911115429058,0.11491666666665878
0.6609,0.2089,0.5773,-0.3066,0.1451,0.4699,-105.0612,-122.1062,-77.8925,70.19410439122474,47.14920637509462,168.49578060071588,0.11491666666665878
0.6609,0.2089,0.5773,-0.3066,0.1451,0.4699,-104.7637,-104.9388,-82.6087,70.10782019992939,47.11037379418077,171.1615648656183,0.11491666666665878
0.6112,0.19,0.5841,-0.3066,0.1451,0.4699,-104.7637,-104.9388,-82.6087,71.96317855649214,44.886269711301615,176.69010963562872,0.11491666666665878
0.6358,0.2089,0.4372,-0.3138,0.1533,0.4738,-111.8337,-91.98,-84.4638,64.52771038814106,52.595001338756305,162.1081945723346,0.1151833333333343
0.6358,0.2089,0.4372,-0.3138,0.1533,0.4738,-116.375,-75.145,-81.9088,64.46147766140686,52.68775208899724,161.95340791962215,0.1151833333333343
0.6098,0.3762,0.3706,-0.3138,0.1533,0.4738,-116.375,-75.145,-81.9088,44.74060399459294,49.15214354771531,119.74889857524794,0.1151833333333343
0.6098,0.3762,0.3706,-0.3156,0.1658,0.4797,-134.61,-49.9975,-70.3412,44.57162671647695,49.108329310923104,121.29499077228098,0.1151833333333343
0.711,0.37,0.2641,-0.3156,0.1658,0.4797,-134.61,-49.9975,-70.3412,35.58565086312019,57.28635504895353,121.25342346182225,0.1151833333333343
0.711,0.2523,0.4269,-0.3156,0.1658,0.4797,-158.2,-19.285,-46.9,59.266509519891414,55.15431864582728,154.34848240390855,0.1151833333333343
0.7313,0.2523,0.4269,-0.3156,0.1658,0.4919,-158.2,-19.285,-46.9,59.41575713596949,55.843987439910386,156.0606065874526,0.1151833333333343
0.5561,0.3077,0.5033,-0.3109,0.1842,0.4919,-169.1987,7.8575,-35.7875,58.56488926691786,43.674589118304645,143.8488746518877,0.1151833333333343
0.5561,0.3077,0.5033,-0.3109,0.1842,0.4919,-169.1987,7.8575,-35.7875,58.559874337086256,43.32086773386528,142.29364318188476,0.11545000000000982
0.5717,0.0613,0.7002,-0.3109,0.1842,0.4919,-180.88,31.5438,-18.7162,84.85093680580324,39.36601527965521,110.78037726034508,0.11545000000000982
0.5717,0.0613,0.7002,-0.3038,0.2098,0.495,-180.88,31.5438,-16.4762,84.995912353617,39.13991463429215,117.46855341600862,0.11545000000000982
0.7266,-0.1701,0.5533,-0.3038,0.2098,0.495,-180.6438,30.7038,-17.8237,106.96691704221273,50.707702492285,111.17335541160946,0.11545000000000982
0.5885,0.0544,0.6333,-0.3038,0.2098,0.495,-168.4288,43.3037,-40.9238,85.2199127091565,42.9951740094428,126.36359274140843,0.11545000000000982
0.5885,0.0544,0.6333,-0.2949,0.2298,0.513,-168.4288,43.3037,-40.9238,85.09115377690742,42.80011868025013,127.89279577129578,0.11545000000000982
0.731,0.2005,0.7706,-0.2949,0.2298,0.513,-171.6837,56.9188,-29.5662,75.47195815431166,42.562109976734014,149.02506903860254,0.11545000000000982
0.731,0.2005,0.7706,-0.2949,0.2298,0.513,-171.6837,56.9188,-29.5662,75.41608196238303,42.55366474359339,149.39637522312518,0.11545000000000982
0.6616,-0.2084,0.8333,-0.2949,0.2298,0.513,-171.255,57.47,-15.89,103.87440413704265,37.945712121915506,96.85188250200963,0.11545000000000982
0.6595,-0.2785,0.743,-0.2845,0.2542,0.5247,-171.255,57.47,-15.89,110.50873375108237,39.6084987558286,95.20257376447364,0.11545000000000982
0.6595,-0.2785,0.743,-0.2845,0.2542,0.5247,-150.36,53.5763,-33.0138,110.54733624648158,39.727717495557364,95.17390937717325,0.11545000000000982
0.4432,0.1197,0.8463,-0.2845,0.2542,0.5247,-150.36,53.5763,-33.0138,82.13913546464413,27.797601954986042,91.03508759934626,0.11569999999983338
0.4432,0.1197,0.8463,-0.2762,0.2707,0.525,-136.8675,49.8662,-40.5213,81.95091096196174,27.418065156008677,93.34905108755304,0.11569999999983338
0.5237,0.2599,0.6346,-0.2762,0.2707,0.525,-141.3475,49.07,-17.5,67.82876834281686,36.75083912599265,158.1247738995117,0.11569999999983338
0.5237,0.3199,0.5885,-0.2762,0.2707,0.525,-142.7388,49.07,-17.5,61.51653095537543,37.941107256822306,168.16713428086132,0.11569999999983338
0.4338,0.3199,0.5885,-0.2762,0.2912,0.5299,-157.3687,63.0175,19.215,61.472424526952096,33.15011915302331,172.86156260175756,0.11569999999983338
0.4895,0.1202,0.4719,-0.2647,0.2954,0.5299,-157.3687,63.0175,19.215,75.61957953775061,44.61764132441261,146.2630024381623,0.11569999999983338
0.4895,0.1202,0.4719,-0.2647,0.2954,0.5299,-173.9238,72.7387,40.915,75.70926523967137,45.1365943150134,145.83997390923386,0.11569999999983338
0.5467,0.1532,0.5043,-0.2647,0.2954,0.5299,-173.9238,72.7387,40.915,73.1168292602606,46.02747826086466,152.03271539497152,0.11569999999983338
0.5467,0.1532,0.5043,-0.2498,0.3289,0.5356,-191.7912,91.7787,59.43,73.1019557301853,46.04772605519125,149.00899599618973,0.11569999999983338
0.5628,0.0353,0.5381,-0.2498,0.3289,0.5356,-191.7912,91.7787,59.43,86.17833681772639,46.221027584067684,128.18104459454153,0.11569999999983338
0.5721,-0.167,0.609,-0.2498,0.3289,0.5356,-205.45,113.8812,81.48,105.2416671717342,42.22310133167836,102.90897251567218,0.11569999999983338
0.5721,-0.167,0.609,-0.2291,0.3654,0.5396,-205.45,113.8812,81.48,105.33424434730605,42.17599130245052,103.0455715621344,0.1159666666665089
0.5278,-0.3316,0.6758,-0.2291,0.3654,0.5396,-211.3913,132.4487,89.6787,116.08517159751734,35.11266583484934,89.90881288367089,0.1159666666665089
0.5278,-0.3316,0.6758,-0.2291,0.3654,0.5396,-204.9863,147.3412,83.3438,116.13590963393742,35.03682715490011,89.8095487670243,0.1159666666665089
0.5075,-0.3378,0.7307,-0.2291,0.3654,0.5396,-204.9863,147.3412,83.3438,114.81738110108893,32.26101076618931,88.53412926880706,0.1159666666665089
0.3455,-0.3899,0.9043,-0.2027,0.3997,0.5525,-193.5412,157.1237,80.2637,113.33157850816207,19.487556658238994,82.67431403417496,0.1159666666665089
0.3455,-0.3899,0.9043,-0.2027,0.3997,0.5525,-193.5412,157.1237,80.2637,113.32392010511884,19.334850528067363,82.63701845715532,0.1159666666665089
0.4156,-0.5341,0.8453,-0.2027,0.3997,0.5525,-177.5725,157.745,79.9837,122.23626818446026,22.531048837150973,81.92591287084684,0.1159666666665089
0.4156,-0.5341,0.8453,-0.1753,0.4298,0.5459,-177.5725,157.745,79.9837,122.28632609468086,22.569387594123217,83.6410103279439,0.1159666666665089
0.399,-0.5422,0.805,-0.1753,0.4298,0.5459,-156.1788,161.735,69.5362,123.9511615553183,22.350542703952136,82.99914750194147,0.11621666666655983
0.3837,-0.423,0.6518,-0.1753,0.4298,0.5459,-156.1788,161.735,69.5362,122.98862927289157,26.226484350258875,84.94611328320482,0.11621666666655983
0.3837,-0.423,0.6518,-0.1548,0.4525,0.5414,-137.83,168.0788,58.7913,122.98248991831812,26.279510120407185,86.02438360619978,0.11621666666655983
0.4389,-0.2925,0.568,-0.1445,0.4525,0.5414,-137.83,168.0788,58.5375,117.28834566861242,34.35544539561791,93.13867043843469,0.11621666666655983
0.4389,-0.2925,0.568,-0.1445,0.4525,0.5414,-132.6938,184.1875,58.5375,117.24718430586665,34.485868408920616,93.18102106514463,0.11621666666655983
0.2874,-0.3783,0.6842,-0.1445,0.4525,0.5414,-128.3537,200.8825,73.0625,118.92544940258637,20.370738403621864,85.89036085577817,0.11621666666655983
0.2874,-0.3783,0.6268,-0.1095,0.476,0.5477,-128.3537,200.8825,73.0625,121.09575761504956,21.419211501526437,88.29113087983609,0.11621666666655983
0.3411,-0.5067,0.6268,-0.1095,0.476,0.5477,-120.4963,216.3525,77.385,128.8868463484909,22.919524977186846,85.8911616175526,0.11621666666655983
0.2349,-0.4979,0.7415,-0.1095,0.476,0.5477,-120.4963,216.3525,77.385,123.92182926379671,14.8364403827931,85.29092596834893,0.11621666666655983
0.2349,-0.4979,0.7415,-0.0697,0.4927,0.5379,-108.6838,231.6125,83.5625,123.88082106796405,14.73627416611909,88.07444237449685,0.11621666666655983
0.1311,-0.5987,0.9572,-0.0697,0.4927,0.5379,-108.6838,231.6125,83.5625,122.04175325950733,6.7167727878805445,86.20174216403589,0.11621666666655983
0.1311,-0.5987,0.9572,-0.0697,0.4927,0.5379,-82.3288,234.4738,86.24,122.02495416982664,6.624505396987857,86.19365605684683,0.11648333333323535
-0.0225,-0.682,1.1501,-0.0697,0.4927,0.5379,-82.3288,234.4738,86.24,120.68399185548002,-0.8793754742814811,84.0200461098071,0.11648333333323535
0.0122,-0.8433,1.1148,-0.0317,0.5011,0.53,-55.4575,213.535,85.715,126.9911642806886,0.4845714797659357,87.54389306065671,0.11648333333323535
0.0122,-0.8433,1.1148,-0.0317,0.5011,0.53,-15.9163,183.8638,64.4262,127.098986672842,0.49982521574275135,87.56038338447166,0.11648333333323535
-0.0348,-0.6198,1.062,-0.0317,0.5011,0.53,-15.9163,183.8638,64.4262,120.6853967288429,-1.589825500762621,86.93733674231561,0.11648333333323535
-0.0348,-0.6198,1.062,-0.004,0.5001,0.5309,8.4525,155.6537,50.0325,120.31026599977865,-1.620517566072388,89.17969388575116,0.12064999999984138
-0.0604,-0.5301,0.9704,-0.004,0.5001,0.5309,8.4525,155.6537,50.0325,118.81308290426746,-3.0983981738753696,88.65432722375921,0.12064999999984138
-0.1013,-0.4114,0.7524,-0.004,0.5001,0.5309,21.6825,125.825,47.8537,118.67531790914535,-6.6661183900042635,87.49328526307268,0.12064999999984138
-0.1013,-0.4114,0.7524,0.0141,0.4982,0.5146,21.6825,125.825,47.8537,118.66938340689524,-6.735749710210652,89.07214310150796,0.12089999999989232
-0.1155,-0.2702,0.7357,0.0141,0.4982,0.5146,23.205,102.4625,47.5125,110.51045773233669,-8.35088873847327,87.22822015318671,0.12089999999989232
-0.1155,-0.2702,0.7357,0.0141,0.4982,0.5146,23.205,102.4625,47.5125,110.1806275406632,-8.382622787130614,87.21022311717721,0.12089999999989232
-0.0483,-0.3475,0.6281,0.0141,0.4982,0.5146,14.3675,83.2387,59.185,118.40201951010398,-3.9219121453911865,89.9689822702665,0.12116666666656783
-0.0483,-0.3475,0.7136,0.0272,0.4933,0.5164,14.3675,83.2387,72.625,116.11788203455549,-3.488119801750869,91.01971167487758,0.12116666666656783
-0.0445,-0.3876,0.7136,0.0272,0.4933,0.5164,13.335,74.0512,72.94,118.34825952636433,-3.1411739784654538,91.2781522108547,0.12116666666656783
-0.0622,-0.6163,0.8782,0.0272,0.4933,0.5164,16.555,64.2862,83.3525,124.68916948964369,-3.3159735358497624,91.55682100046364,0.12141666666661877
-0.0622,-0.6163,0.8782,0.038,0.4869,0.5215,16.555,64.2862,83.3525,125.03975272685396,-3.317988839460624,92.39962328013657,0.12141666666661877
-0.2479,-0.7548,1.146,0.038,0.4869,0.5215,43.7238,51.4588,89.4338,123.40733467662456,-10.165669150302202,90.66081649480904,0.12141666666661877
-0.2479,-0.7548,1.146,0.038,0.4869,0.5215,43.7238,51.4588,89.4338,123.37126356060645,-10.239444983010552,90.62702263508494,0.12141666666661877
-0.3382,-0.5877,1.1117,0.038,0.4869,0.5215,76.6937,22.6187,86.17,117.93357422776432,-14.999708196908811,88.08362610188348,0.12168333333329429
-0.1226,-0.7272,1.0022,0.043,0.4703,0.5195,76.6937,22.6187,86.17,125.86210924586202,-5.758889350231706,92.1959260919736,0.12168333333329429
-0.1226,-0.7272,1.0022,0.043,0.4703,0.5195,97.6588,-5.7488,74.41,125.96374158414835,-5.6558779153883,92.36165660328899,0.12168333333329429
-0.0389,-0.6985,0.8108,0.043,0.4703,0.5195,97.6588,-5.7488,74.41,130.69652830564053,-2.127660995305936,93.15963205284466,0.1219499999999698
-0.0389,-0.6985,0.8108,0.0414,0.448,0.5209,138.0312,-8.12,44.835,130.74438296607488,-2.0826696675598044,93.17133380579716,0.1219499999999698
-0.1032,-0.438,0.8577,0.0414,0.448,0.5209,155.9512,-11.7338,35.8488,117.13889531214497,-6.0135420455216995,91.3538945601924,0.1219499999999698
0.0405,-0.4942,0.9137,0.0414,0.448,0.5209,155.4613,-11.7338,35.8488,118.39988562766156,2.0225118154109043,94.30380492844998,0.1219499999999698
0.0405,-0.4942,0.9137,0.0402,0.422,0.5256,160.3262,-10.045,24.1588,118.4079193165042,2.2250699939439142,94.60695172976422,0.1219499999999698
-0.1357,-0.4229,0.6667,0.0402,0.422,0.5256,160.3262,-10.045,24.1588,122.36311513161178,-9.317698012176965,90.60680429117787,0.1219499999999698
-0.1357,-0.4229,0.6667,0.0402,0.422,0.5256,171.5875,-6.3263,23.7388,122.3875612299063,-9.736544499578645,90.28826209502401,0.1219499999999698
0.0296,-0.4111,0.5943,0.0402,0.422,0.5256,171.5875,-6.3263,23.7388,124.65988726163351,1.9001378250987406,93.77611724892395,0.1219499999999698
0.0296,-0.1457,0.6534,0.0374,0.3954,0.5297,172.6375,3.3163,14.4375,102.69740867499188,2.4962761228527706,95.62167667680674,0.12220000000002074
0.0894,-0.1409,0.6534,0.0374,0.3954,0.5297,172.6375,3.3163,14.4375,102.17202767019386,7.330610018137393,99.20744986551756,0.12220000000002074
-0.1276,-0.3167,0.8847,0.0374,0.3954,0.5297,181.405,21.77,39.1563,109.65494081145681,-7.37886670563829,89.22104943425597,0.12220000000002074
-0.1276,-0.3167,0.8847,0.0374,0.3599,0.5278,181.405,21.77,39.1563,109.69584518580957,-7.7246474864065275,88.53824574100022,0.12220000000002074
-0.3808,-0.2169,1.0454,0.0374,0.3599,0.5278,208.5125,25.5763,79.0387,101.75940913175306,-19.48517401240214,76.57762869284511,0.12220000000002074
-0.3808,-0.2169,1.0454,0.0374,0.3599,0.5278,213.7888,3.395,97.9563,101.72162011099682,-19.62818738214993,76.23446056667318,0.12220000000002074
0.0679,-0.4821,0.8703,0.0374,0.3599,0.5278,213.7888,3.395,97.9563,118.90395429846131,3.67202654331167,89.95182767156976,0.12220000000002074
-0.4268,-0.1485,1.3583,0.0326,0.329,0.5261,184.3537,-22.505,48.7988,96.36117237051067,-16.943672957692755,74.12708266657903,0.12220000000002074
-0.4268,-0.1485,1.3583,0.0326,0.329,0.5261,184.3537,-22.505,48.7988,96.23989992872974,-17.338743001551123,73.48145048436662,0.12246666666646888
-0.4702,-0.4749,1.4325,0.0326,0.329,0.5261,184.4062,-66.1062,36.3475,108.27622178123791,-17.30592407800818,79.63322409837502,0.12246666666646888
-0.4702,-0.4749,1.4325,0.0178,0.2979,0.5274,184.4062,-66.1062,36.3475,108.34095478550863,-17.30509805177238,76.98672706884672,0.12246666666646888
-0.3216,-0.6141,1.1339,0.0178,0.2979,0.5274,209.4662,-115.3512,9.4237,118.39132516164987,-14.2614532037997,83.20865460503398,0.12246666666646888
-0.4159,-0.0282,1.0727,0.0178,0.2979,0.5274,209.4662,-115.3512,9.4237,91.63331103241332,-20.64468412274816,61.420059853401646,0.12246666666646888
-0.4159,-0.0282,1.0727,-0.0091,0.2652,0.524,231.5338,-155.8725,-26.1187,91.50643738592457,-21.16344556712522,55.041523207605586,0.12246666666646888
-0.0173,-0.1301,0.7219,-0.0091,0.2652,0.524,231.5338,-155.8725,-32.97,100.1787497579503,-1.9782918730029335,86.54119052324586,0.12246666666646888
-0.0173,-0.1301,0.7219,-0.0091,0.2652,0.524,211.7762,-183.6537,-32.97,100.21594466352045,-1.3709055223062685,86.7408999175224,0.12246666666646888
0.1234,0.0073,0.5341,-0.0091,0.2652,0.524,196.7525,-173.2675,-30.9662,89.27240940072252,12.522257700346865,112.91871030038203,0.12246666666646888
0.1234,0.4174,0.7293,-0.0358,0.2343,0.5302,196.7525,-173.2675,-30.9662,60.362753143172704,8.49521218406427,127.47598965770813,0.12246666666646888
0.0877,0.4174,0.7293,-0.0358,0.2343,0.5302,168.3763,-152.0663,-13.8337,60.21707751014964,6.162027091683817,112.0952391479222,0.12246666666646888
-0.2211,0.1112,1.0572,-0.0358,0.2343,0.5302,168.3763,-152.0663,-13.8337,83.85555910110696,-10.310772997076567,49.244562097509544,0.12271666666651981
-0.2211,0.1112,1.0572,-0.0622,0.2109,0.5287,138.67,-158.48,14.6737,83.99450972432656,-11.669759891820835,41.89067960567134,0.12271666666651981
-0.1224,-0.0966,0.992,-0.0622,0.2109,0.5287,138.67,-158.48,14.6737,95.47936620552869,-7.25976203124111,64.56852345919337,0.12506666666649835
-0.1224,-0.0966,0.992,-0.0622,0.2109,0.5287,135.0388,-173.9238,8.9425,95.56126720266371,-7.022196735923312,64.70990901217377,0.12506666666649835
-0.0627,0.0339,1.0446,-0.0622,0.2109,0.5287,135.0388,-173.9238,8.9425,88.19558554643929,-3.7243146509805065,64.07605229305055,0.12531666666654928
0.0243,-0.0385,1.0475,-0.0952,0.1899,0.5196,129.3862,-198.3625,1.12,92.07505083174519,0.20617262216697035,68.23468535009971,0.12531666666654928
0.0243,-0.0385,1.0475,-0.0952,0.1899,0.5196,127.5925,-225.8463,-0.4725,92.10468046311435,0.9426485868800846,68.25545288701122,0.12531666666654928
0.1168,-0.0538,0.9599,-0.0952,0.1899,0.5196,127.5925,-225.8463,-0.4725,93.19938516093589,4.871189139440358,81.30455320807293,0.1255833333332248
0.1168,-0.0538,0.9599,-0.1306,0.1692,0.514,132.4225,-238.4113,-7.9625,93.20786546426106,6.614381329681969,70.83066515369038,0.1255833333332248
0.3005,0.1871,0.7213,-0.1306,0.1692,0.514,132.4225,-238.4113,-7.9625,75.59088181655393,19.62948675424027,156.39858825744722,0.1255833333332248
0.1396,0.283,0.823,-0.1306,0.1692,0.514,135.2663,-224.21,-8.9687,71.0571413151971,10.499373654899808,8.635303909276205,0.12584999999990032
0.1396,0.283,0.823,-0.162,0.1489,0.4991,135.2663,-224.21,-8.9687,71.0239994638774,9.295684545179636,15.459554888196513,0.12584999999990032
0.3493,0.3684,0.6219,-0.162,0.1489,0.4991,127.3388,-205.6337,1.6625,59.44894598120794,22.522692713924926,119.86657415194944,0.12609999999995125
0.3493,0.3684,0.6219,-0.162,0.1489,0.4991,127.3388,-205.6337,1.6625,59.359126749102956,25.143931246631784,120.36940327507632,0.12609999999995125
0.2877,0.551,0.6082,-0.162,0.1489,0.4991,109.6637,-175.4987,11.6637,47.92866217302461,19.705990943717424,90.82028068408783,0.12609999999995125
0.3814,0.4476,0.6715,-0.1878,0.135,0.509,109.6637,-175.4987,25.1038,56.23846109420353,25.099724070672124,104.17602868242429,0.12609999999995125
0.3877,0.4476,0.6715,-0.1878,0.135,0.509,78.9688,-143.7625,26.3463,56.3129339749207,25.641605859500547,105.30784965972826,0.12609999999995125
0.4567,0.2481,0.6933,-0.1878,0.135,0.509,54.46,-122.3688,25.655,70.06007533221474,31.595555132071777,158.78477579916705,0.12609999999995125
0.4567,0.2481,0.6933,-0.205,0.1274,0.4926,54.46,-122.3688,25.655,70.30559618732958,31.800590881656568,153.68028865167003,0.12636666666662677
0.4846,0.3747,0.7199,-0.205,0.1274,0.4926,35.9188,-106.05,14.805,62.71185064163562,30.89454286072769,124.60769151280311,0.12636666666662677
0.4846,0.3747,0.7199,-0.205,0.1274,0.4926,35.9188,-106.05,14.805,62.50908335632839,30.84472877557239,124.33863897447135,0.12636666666662677
0.5728,0.1989,0.7907,-0.205,0.1274,0.4926,17.045,-93.7387,9.1263,75.16046309733613,34.75008504047693,175.28475632633592,0.12636666666662677
0.4084,0.1607,0.9254,-0.2199,0.1253,0.4816,17.045,-93.7387,9.1263,79.88005148499441,24.399422087694905,85.51268138775293,0.12636666666662677
0.4084,0.1607,0.9254,-0.2199,0.1253,0.4816,11.7075,-88.2,-2.9488,80.12828308068384,24.07468365647886,84.57566453383527,0.1266166666666777
0.3337,0.139,0.9077,-0.2199,0.1253,0.4816,11.7075,-88.2,-2.9488,81.20565909574188,22.59279701488038,53.91599460609053,0.1266166666666777
0.3337,0.139,0.9077,-0.2322,0.1236,0.479,10.2113,-95.655,-17.78,81.28618939486056,20.13086185390097,44.82833859014422,0.1266166666666777
0.3699,0.2612,0.7925,-0.2322,0.1236,0.479,10.2113,-101.045,-28.105,72.56966606971369,23.766091216756326,68.2931816366958,0.1266166666666777
0.3254,0.3389,0.7535,-0.2322,0.1236,0.479,8.1988,-101.045,-28.105,66.48074857112076,21.581858017278577,65.9691883706067,0.1266166666666777
0.3254,0.3389,0.7535,-0.243,0.121,0.4746,3.9462,-98.2625,-27.3088,65.91063708614493,21.500214672046173,59.75231975246095,0.12688333333335322
0.2679,0.6678,0.6251,-0.243,0.121,0.4746,3.9462,-98.2625,-27.3088,47.27095792532424,16.523776794903178,65.9800800131406,0.12688333333335322
0.2679,0.6678,0.6251,-0.243,0.121,0.4746,-23.1262,-88.4538,-15.995,43.284827543978864,16.337786293699033,66.04212333438588,0.12688333333335322
0.4859,0.5373,0.4771,-0.243,0.121,0.4746,-23.1262,-88.4538,-15.995,41.674990127139594,32.854008647967696,95.06656923039816,0.12688333333335322
0.5603,0.5196,0.6149,-0.2515,0.1273,0.4718,-54.9588,-66.6225,-3.6925,49.65505421012659,33.978501166717194,102.50044891666074,0.12688333333335322
0.5603,0.5196,0.6149,-0.2515,0.1273,0.4718,-54.9588,-66.6225,-3.6925,49.79902837990633,34.46552448324873,102.60877035219016,0.12688333333335322
0.5847,0.2747,0.7268,-0.2515,0.1273,0.4718,-78.7412,-42.4375,8.2163,69.04936654852561,36.747253595773216,151.32588142416918,0.12688333333335322
0.5847,0.2747,0.7268,-0.2553,0.1372,0.4858,-78.7412,-42.4375,8.2163,69.29239736361771,36.94395622966215,156.08675064926268,0.12688333333335322
0.5417,0.173,0.8339,-0.2553,0.1372,0.4858,-88.5062,-22.7675,10.1675,78.17872484776818,32.78959268459055,134.72948287680512,0.12688333333335322
0.5417,0.173,0.724,-0.2553,0.1372,0.4858,-91.8925,-11.0337,-2.6163,76.57866299977125,33.403961802456635,164.70353435526624,0.12688333333335322
0.6528,0.0578,0.724,-0.2553,0.1372,0.4858,-91.8925,-11.0337,-2.6163,85.3396209042087,35.017106650738356,146.69253235988745,0.12688333333335322
0.6788,0.2683,0.6854,-0.255,0.1482,0.4915,-92.4437,5.6262,-22.82,68.80205697608186,42.32555303451808,109.97928225069114,0.12688333333335322
0.6788,0.2683,0.6854,-0.255,0.1482,0.4915,-92.4437,5.6262,-22.82,68.62406519767057,42.66648916723413,155.6444514163925,0.12714999999980137
0.6316,0.2717,0.7082,-0.255,0.1482,0.4915,-104.2475,22.2512,-21.0613,69.0070619556686,39.929435204004754,163.64820216587333,0.12714999999980137
0.6316,0.2717,0.7082,-0.2486,0.1641,0.5051,-104.2475,22.2512,-21.0613,69.01071944504694,39.79034106640828,169.15824479346023,0.12714999999980137
0.4702,0.0634,0.7588,-0.2486,0.1641,0.5051,-113.6188,31.955,-18.9175,85.08174857819436,32.15743480145449,107.39616800489559,0.12714999999980137
0.4417,0.1171,0.7326,-0.2486,0.1641,0.5051,-113.6188,31.955,-18.9175,80.95506032131428,30.84726575598943,123.13996265115766,0.12714999999980137
0.4417,0.1171,0.7326,-0.2415,0.1766,0.5122,-116.5238,28.7875,-29.225,80.91888098091417,30.770870587891054,124.93195183759008,0.12714999999980137
0.4265,0.166,0.674,-0.2415,0.1766,0.5122,-116.5238,28.7875,-33.32,76.20459380510678,31.542791284500954,146.65481013081,0.12714999999980137
0.4265,0.166,0.674,-0.2415,0.1766,0.5122,-122.2375,25.4275,-33.32,76.16428183917587,31.566961838448016,147.40595629192066,0.12714999999980137
0.5086,0.3049,0.6093,-0.2415,0.1766,0.5122,-133.9713,29.7413,-25.9438,63.510969129450245,36.529994553668274,140.80940740648177,0.12948333333315531
0.472,0.1779,0.6905,-0.2345,0.1962,0.5162,-133.9713,29.7413,-25.9438,75.46297650166161,33.62568888491525,140.5295778870577,0.12948333333315531
0.472,0.1779,0.6905,-0.2345,0.1962,0.5162,-147.6562,41.8425,-11.0688,75.5519405161653,33.51514506683999,150.08608966484906,0.12974999999983083
0.3874,0.1116,0.7909,-0.2345,0.1962,0.5162,-147.6562,41.8425,-11.0688,81.92498297239301,26.663106618082562,102.29887726816777,0.12974999999983083
0.3874,0.1116,0.7909,-0.2267,0.2191,0.517,-151.9,46.55,-2.2138,81.96801603526895,26.548595960676256,102.75618292774408,0.12974999999983083
0.4468,0.0922,0.7389,-0.2267,0.2191,0.517,-151.9,46.55,-2.2138,82.88135680670199,27.189620759541945,118.22806913079864,0.12999999999988177
0.4468,0.0766,0.6406,-0.2267,0.2191,0.517,-158.305,49.7,-1.2775,83.17932177629292,31.136103914432802,127.51066822779698,0.12999999999988177
0.5397,0.0625,0.6406,-0.2267,0.2191,0.5375,-158.305,49.7,-1.2775,84.41972417384906,35.780889975404214,137.70729171334656,0.12999999999988177
0.5619,0.2313,0.6089,-0.2154,0.2427,0.5326,-164.4825,66.0188,0.6562,69.29222024408918,39.54500058472631,169.7016782265301,0.12999999999988177
0.5619,0.2313,0.6089,-0.2154,0.2427,0.5326,-178.3513,91.9887,13.9475,69.20046764711876,40.71183155606945,170.18844848771136,0.12999999999988177
0.5574,0.156,0.5574,-0.2154,0.2427,0.5326,-178.3513,91.9887,13.9475,74.33573757563775,43.73495270065279,159.97996840206068,0.12999999999988177
0.5574,0.156,0.5574,-0.1974,0.2737,0.551,-196.6738,121.17,29.4263,74.36447019382746,43.91442513163946,157.4651859655825,0.12999999999988177
0.4909,0.0243,0.5913,-0.1974,0.2737,0.551,-196.6738,121.17,29.4263,87.57932921406805,39.8050437525485,129.72379812102443,0.13026666666655728
0.4368,-0.0733,0.7104,-0.1974,0.2737,0.551,-206.605,147.4637,37.4762,95.85086760628448,31.65515887755644,107.53169841396493,0.13026666666655728
0.4368,-0.0733,0.7104,-0.1711,0.3086,0.5522,-206.605,147.4637,37.4762,95.89081259305817,31.45569909874866,108.83512375005247,0.13026666666655728
0.436,-0.2857,0.7623,-0.1711,0.3086,0.5522,-211.505,161.7875,39.8913,110.47620266335801,28.248220206726494,95.07689258938368,0.13026666666655728
0.436,-0.2857,0.7623,-0.1711,0.3086,0.5522,-211.505,161.7875,39.8913,110.5450103539278,28.17410150144721,94.99185081598364,0.13026666666655728
0.3204,-0.2264,0.8836,-0.1711,0.3086,0.5522,-204.0063,167.5188,35.3937,104.40160210877391,19.581806016145983,88.78410951340386,0.13026666666655728
0.3812,-0.3479,0.7485,-0.1438,0.3422,0.5606,-204.0063,167.5188,30.9137,114.87734448802134,24.63737018844072,92.29683246256295,0.13026666666655728
0.3812,-0.3479,0.7485,-0.1438,0.3422,0.5606,-196.4025,169.3737,31.0012,114.9285672621065,24.784785637124344,92.31780365263066,0.13051666666660822
0.2212,-0.1906,0.8846,-0.1438,0.3422,0.5606,-182.56,173.74,27.72,102.22908867636257,14.091601790988669,86.6602707566666,0.13051666666660822
0.2212,-0.1906,0.8846,-0.1154,0.3716,0.5586,-182.56,173.74,27.72,102.15970333115928,13.747809209413901,89.86014545368087,0.13051666666660822
0.2866,-0.3134,0.7394,-0.1154,0.3716,0.5586,-177.345,175.9625,33.3725,112.90921233905638,19.480027928918727,91.56901384983493,0.13051666666660822
0.2866,-0.3027,0.7624,-0.1154,0.3716,0.5586,-177.345,175.9625,33.3725,111.66189784761393,19.26478283117939,91.77183297558666,0.13051666666660822
0.2126,-0.3027,0.7624,-0.1154,0.3716,0.5503,-166.0663,186.8475,36.225,111.65488579031934,14.64950373014464,88.16121243238936,0.13051666666660822
0.1923,-0.2683,0.7516,-0.0802,0.3992,0.5503,-166.0663,186.8475,36.225,109.65719919278253,13.575634135621517,91.2090861523312,0.13051666666660822
0.1923,-0.2683,0.7516,-0.0802,0.3992,0.5503,-163.3363,193.5063,40.8625,109.6452047722839,13.548448496780724,91.22540174262558,0.13051666666660822
0.2187,-0.4371,0.7794,-0.0802,0.3992,0.5503,-163.3363,193.5063,40.8625,119.22556051929617,13.747661884754038,89.06289324239653,0.13051666666660822
0.2187,-0.4371,0.7794,-0.047,0.4254,0.5495,-153.6588,199.885,40.6263,119.28402446697788,13.752163721198029,91.67141474947036,0.13051666666660822
0.0004,-0.3762,0.8896,-0.047,0.4254,0.5495,-153.6588,196.6738,41.8862,112.96412729249491,0.32698623637519236,85.60815998498073,0.13051666666660822
-0.0063,-0.4831,0.9091,-0.047,0.4254,0.5495,-142.6163,196.6738,41.8862,117.95128608892804,-0.3356511891512475,85.59997105478529,0.13078333333328374
-0.0063,-0.4831,0.9091,-0.015,0.446,0.5408,-131.7487,184.87,37.9487,117.98612055296024,-0.35025720955507456,88.51220457700046,0.13078333333328374
0.1036,-0.3772,0.7549,-0.015,0.446,0.5408,-131.7487,184.87,37.9487,116.56073230184597,6.821062437805513,91.74965343934639,0.13078333333328374
0.1036,-0.3772,0.7549,-0.015,0.446,0.5408,-129.9637,180.9675,34.3,116.54995274939931,6.994149955622882,91.76716393234084,0.13078333333328374
0.1492,-0.414,0.7566,-0.015,0.446,0.5408,-129.9637,180.9675,34.3,118.67042442940978,9.739799733767006,92.59896827666402,0.13078333333328374
0.0687,-0.5844,0.9029,0.0156,0.468,0.5346,-129.5437,183.9425,36.8375,122.88024142681611,3.8061384286942843,92.34492483972205,0.13078333333328374
0.0687,-0.5844,0.9029,0.0156,0.468,0.5346,-129.5437,183.9425,36.8375,122.91262165700175,3.6586123134759587,92.34354369624032,0.13078333333328374
-0.1809,-0.5693,0.9506,0.0156,0.468,0.5346,-117.8363,174.51,35.3237,120.93362629318185,-8.938339918016625,88.34914430556515,0.13078333333328374
-0.1809,-0.5693,0.9506,0.042,0.4844,0.519,-117.8363,174.51,35.3237,120.91689832036164,-9.263781247183593,90.80957354049896,0.13078333333328374
-0.0794,-0.4774,0.7261,0.042,0.4844,0.519,-110.7663,158.0688,31.5,123.30268469791737,-5.33658717576137,92.19763600154208,0.13078333333328374
-0.0794,-0.3975,0.6726,0.042,0.4844,0.519,-106.2688,141.6625,34.3175,120.60815401289797,-5.790574573245907,91.81316273443606,0.13078333333328374
-0.1323,-0.3975,0.6726,0.042,0.4844,0.5078,-106.2688,141.6625,34.3175,120.58290944614217,-9.509821054878737,90.8188434160844,0.13104999999995925
-0.2202,-0.5736,0.7742,0.0642,0.4999,0.5078,-108.8238,123.6988,44.1875,126.48006250030184,-12.80221919058553,93.07029345076364,0.13104999999995925
-0.2202,-0.5736,0.7742,0.0642,0.4999,0.5078,-108.8238,123.6988,44.1875,126.53402024780799,-12.871429252127044,93.08849532101543,0.13104999999995925
-0.2179,-0.6932,0.8628,0.0642,0.4999,0.5078,-99.5137,97.0025,45.0887,128.75700550457597,-11.173617566578452,93.79225363826144,0.13104999999995925
-0.2179,-0.6932,0.8628,0.079,0.5104,0.4912,-99.5137,97.0025,45.0887,128.77923936946692,-11.138591128782295,95.2720312970765,0.13104999999995925
-0.2479,-0.5794,0.827,0.079,0.5104,0.4912,-80.4825,65.0738,42.7875,125.06175953302218,-13.735915545542595,94.15529205020246,0.13104999999995925
0.0259,-0.6385,0.6038,0.079,0.5104,0.4912,-80.4825,65.0738,42.7875,136.4574394841874,1.3541050741065401,96.25644109125561,0.13104999999995925
0.0259,-0.6385,0.6038,0.0886,0.5142,0.4867,-69.265,47.4775,41.7638,136.59792923857697,1.6807693466120996,97.03180553703609,0.13104999999995925
-0.0912,-0.637,0.6668,0.0886,0.5142,0.4867,-69.265,47.4775,43.2687,133.73235166096387,-5.4909505145109865,97.12236459314501,0.13104999999995925
-0.0912,-0.637,0.6668,0.0886,0.5142,0.4867,-34.6325,48.4313,43.2687,133.69184813781473,-5.6446775814437355,97.12427303118591,0.13104999999995925
-0.2159,-0.5851,0.8308,0.0886,0.5142,0.4867,-9.0037,37.45,45.4475,126.05676038808882,-11.86507499498299,95.38831421003157,0.13104999999995925
-0.1183,-0.6531,0.7385,0.0954,0.5128,0.4894,-9.0037,37.45,45.4475,130.91483448163933,-6.945437760941246,97.30899304024082,0.13104999999995925
-0.1183,-0.6531,0.7385,0.0954,0.5128,0.4894,23.275,21.35,43.4,131.4651487633157,-6.844781894444328,97.35922537984877,0.1313000000000102
-0.2151,-0.4911,0.8538,0.0954,0.5128,0.4894,23.275,21.35,43.4,120.37314118801929,-12.202042117247569,94.8746614308386,0.1313000000000102
-0.2151,-0.4911,0.8538,0.0973,0.5029,0.4895,52.535,5.8538,47.0225,119.91583998417097,-12.316733387786615,94.87703743447311,0.1313000000000102
-0.1321,-0.5705,0.6503,0.0973,0.5029,0.4895,52.535,5.8538,47.0225,131.050250040638,-8.754270912666477,96.94710294380518,0.13389999999981228
-0.1321,-0.4146,0.5469,0.0973,0.5029,0.4895,77.0612,-5.32,50.8112,127.21487015302432,-10.855788102207757,96.55309802313816,0.1341666666664878
-0.0578,-0.4146,0.5469,0.0973,0.4824,0.4977,77.0612,-5.32,50.8112,127.16606959161498,-4.925630390352232,97.22409359475009,0.1341666666664878
-0.0357,-0.3853,0.6226,0.0971,0.4862,0.4977,101.885,-6.8075,57.68,121.80391530819959,-2.826397657460986,97.46306490945511,0.1341666666664878
-0.0357,-0.3853,0.6226,0.0971,0.4862,0.4977,119.4287,-12.5125,69.2387,121.7519919199319,-2.7919287467229505,97.4915446131568,0.1341666666664878
-0.1598,-0.5299,0.9729,0.0971,0.4862,0.4977,119.4287,-12.5125,69.2387,118.60163709641643,-8.133355631056142,95.86534380250144,0.13441666666653873
-0.1598,-0.5299,0.9729,0.0934,0.4637,0.4992,133.4288,-37.3187,60.5588,118.57557007062451,-8.206767020479987,95.4509346762885,0.13441666666653873
-0.6457,-0.6027,1.4305,0.0934,0.4637,0.4992,133.4288,-37.3187,60.5588,112.88917262808916,-22.36089247607106,88.22452785185222,0.13441666666653873
-0.5474,-1.0889,1.3045,0.0934,0.4637,0.4992,188.9037,-96.9762,65.3275,129.76355141244852,-17.92157730794664,95.21231138844229,0.13441666666653873
-0.5474,-1.0889,1.3045,0.073,0.4226,0.5122,188.9037,-96.9762,65.3275,129.85216085537942,-17.856968885878008,92.82705456192208,0.13441666666653873
-0.6308,-0.8415,1.0115,0.073,0.4226,0.5122,270.235,-155.12,40.215,129.75852586722968,-25.43582462310491,91.10380039824791,0.13441666666653873
-0.6308,-0.8415,1.0115,0.073,0.4226,0.5122,270.235,-155.12,40.215,129.7581813254874,-25.609657207218167,91.09283302154881,0.13441666666653873
-0.4359,-0.2549,0.7155,0.073,0.4226,0.5122,285.4513,-202.4487,10.255,109.67887485992993,-29.540231885619026,79.49716965664709,0.13468333333321425
-0.0112,-0.548,0.5019,0.0384,0.3732,0.5347,285.4513,-202.4487,10.255,137.41718934679068,-2.9661062800763602,93.21763512906652,0.13468333333321425
-0.0112,-0.548,0.5019,0.0384,0.3732,0.5347,285.46,-215.6875,9.66,137.51384424614366,-1.0246878430746285,93.28476296982382,0.13468333333321425
0.0231,-0.1554,0.6491,0.0384,0.3732,0.5347,285.46,-197.89,4.9262,103.58232461554621,1.620350145819232,96.23226783057707,0.13468333333321425
0.0231,-0.1554,0.6491,0.0029,0.3168,0.5347,285.46,-197.89,4.9262,103.46409292385638,1.938653938164173,92.4458310899104,0.13468333333321425
-0.2901,-0.1856,1.0042,0.0029,0.3168,0.5347,285.46,-197.5225,5.3113,100.4818807134708,-13.811688796369227,73.07143731387603,0.13468333333321425
-0.21,-0.2041,0.7921,0.0029,0.3168,0.5347,285.46,-197.5225,5.3113,104.43524837747478,-14.331194069360205,76.40820437521984,0.13494999999988977
-0.21,-0.2041,0.7921,-0.0381,0.2641,0.5389,285.46,-211.26,-10.4388,104.44902357386667,-14.391251371920836,68.97152285575274,0.13494999999988977
-0.2331,0.0909,0.8671,-0.0322,0.2641,0.5389,285.46,-211.26,-10.4388,84.08661593215555,-14.904846731834521,49.54225481350339,0.13494999999988977
-0.2331,0.0909,0.8671,-0.0322,0.2641,0.5389,285.46,-219.1613,-16.485,84.0156647360828,-14.96438405677109,49.45113580319984,0.13494999999988977
-0.2044,0.103,0.9653,-0.0322,0.2641,0.5389,285.46,-219.1613,-16.485,83.90980748829583,-12.093666819304582,54.265220723296935,0.13494999999988977
-0.2044,0.103,0.9965,-0.0714,0.2169,0.5234,285.2588,-227.2725,-7.9012,84.09810422443286,-11.618033456875976,42.2678840262215,0.13494999999988977
-0.2477,0.1454,0.9842,-0.0714,0.2169,0.5234,285.2588,-227.2725,4.4012,81.60496412450696,-13.677387028240569,34.384053829847325,0.13494999999988977
-0.0852,0.2563,0.7604,-0.0714,0.2169,0.5234,272.8687,-244.9913,4.4012,71.41041312814438,-7.0391894338164365,16.43274699210266,0.1351999999999407
-0.0852,0.2563,0.7604,-0.1131,0.1792,0.5163,236.2675,-250.355,8.7325,71.37328195028554,-6.141547219558163,1.7096556665820508,0.1351999999999407
0.2699,0.3902,0.5729,-0.1131,0.1792,0.5163,236.2675,-250.355,8.7325,55.80710805676164,19.011959346981065,120.63182354274525,0.1351999999999407
0.2699,0.3902,0.5729,-0.1131,0.1792,0.5163,192.9812,-229.0137,15.6363,55.74171026627319,21.155790510444522,121.11643398596841,0.1351999999999407
0.3274,0.7731,0.7169,-0.1131,0.1792,0.5163,192.9812,-229.0137,15.6363,42.90626344289657,17.45625737057562,97.87838162068053,0.1351999999999407
0.456,0.0825,0.7322,-0.1469,0.1563,0.5074,126.9013,-199.64,42.6825,83.2547362039904,31.441572132423552,145.4295474364228,0.1351999999999407
0.456,0.0825,0.7322,-0.1469,0.1563,0.5074,126.9013,-199.64,42.6825,83.56889579155555,31.74516452453357,146.63615988891263,0.1351999999999407
0.317,0.6908,0.9232,-0.1469,0.1563,0.5074,99.7588,-171.0013,33.7837,53.49358866128065,15.812788106633198,85.72780139961752,0.13546666666661622
0.317,0.6908,0.9232,-0.1749,0.1456,0.5056,99.7588,-171.0013,33.7837,53.196667494222524,15.384121502497308,78.45486103161831,0.13546666666661622
0.3031,0.073,1.0214,-0.1749,0.1456,0.5056,57.7325,-156.7825,42.665,85.35996670825969,16.464484267002202,77.80628195179389,0.13546666666661622
0.1975,0.064,1.1029,-0.1749,0.1456,0.5056,48.0638,-158.5412,28.3237,86.65232304613569,10.335437739277923,54.948690571164164,0.13546666666661622
0.1975,0.064,1.1029,-0.1994,0.1371,0.4954,48.0638,-158.5412,28.3237,86.67838095742223,10.142136882143069,45.14514907472328,0.13546666666661622
0.2722,0.0881,0.9712,-0.1994,0.1371,0.4954,45.2725,-171.255,2.66,84.85651663240515,14.693401135267589,58.495136732557,0.13546666666661622
0.2722,0.0881,0.9712,-0.1994,0.1371,0.4954,45.2725,-171.255,2.66,84.817591439058,15.446473977742292,58.57218828414917,0.13546666666661622
0.4345,0.1069,0.8276,-0.1994,0.1371,0.4954,54.1188,-179.2175,-14.385,82.67906330569949,26.577869995080576,128.34502567365791,0.13546666666661622
0.4345,0.1069,0.7335,-0.2238,0.1293,0.487,54.1188,-179.2175,-14.385,81.72556079070539,30.085415770098695,136.09541853529336,0.13546666666661622
0.4316,0.3337,0.7335,-0.2238,0.1293,0.487,54.6613,-176.9075,-21.0788,65.82529984305782,28.270165382137314,112.54324663867985,0.13546666666661622
0.5446,0.5183,0.5312,-0.2238,0.1293,0.487,54.6613,-176.9075,-21.0788,46.06229012026128,35.86495842108347,107.76834918646153,0.13546666666661622
0.5446,0.5183,0.5312,-0.2449,0.1249,0.4794,36.4875,-159.3463,-10.5175,45.713637614424684,36.226724837509536,103.13987277658312,0.13571666666666715
0.4627,0.469,0.6399,-0.2449,0.1249,0.4794,36.4875,-159.3463,11.8912,53.549630469447735,30.64235673534561,96.42846413402674,0.13571666666666715
0.4627,0.469,0.6399,-0.2449,0.1249,0.4794,13.0113,-137.4888,11.8912,53.746748993294005,30.276762986654454,96.38690989102618,0.13571666666666715
0.4486,0.2918,0.6625,-0.2449,0.1249,0.4794,-1.82,-122.01,16.59,60.773948014157675,31.71034558763973,121.8572733782549,0.1362500000000182
0.5018,0.263,0.6707,-0.2627,0.125,0.475,-1.82,-122.01,16.59,65.17341811981392,34.70099564227439,137.83796917134973,0.1362500000000182
