AcclX,AcclY,AcclZ,MagX,MagY,MagZ,GyroX,GyroY,GyroZ,Roll,Pitch,Yaw,Time(s)
-0.1606,0.9742,0.0469,-0.5443,0.1521,0.0442,-1.7937,1.2512,-15.3125,0,0,0,1.6194944269178417
-0.1608,0.9469,0.0434,-0.546,0.1512,0.0486,-2.275,1.3212,-15.9075,0,0,0,1.6315724465289188
-0.1625,0.9748,0.0532,-0.546,0.1512,0.0281,-2.4938,1.1725,-16.2225,0,0,0,1.6436709931461035
-0.161,0.9725,0.0487,-0.5446,0.1506,0.0406,-2.5813,1.19,-16.0475,0,0,0,1.655786527630412
-0.1595,0.9734,0.0517,-0.5474,0.1521,0.0442,-2.9838,1.435,-15.7762,0,0,0,1.667842250665889
-0.16,0.9737,0.0451,-0.5474,0.1521,0.0442,-3.3075,1.1287,-15.54,0,0,0,1.6799492912166356
-0.1585,0.9756,0.0503,-0.543,0.1511,0.045,-2.6688,0.77,-16.0037,0,0,0,1.6893619852587782
-0.1619,0.9753,0.0512,-0.543,0.1511,0.045,-2.6688,1.1025,-15.995,0,0,0,1.701464778842744
-0.1585,0.9743,0.0533,-0.5437,0.1522,0.0466,-2.9488,1.3212,-15.54,0,0,0,1.7135417367121257
-0.1604,0.9743,0.0475,-0.5437,0.1522,0.0466,-2.555,1.4262,-15.8025,0,0,0,1.7256367441903264
-0.1597,0.9745,0.0475,-0.5422,0.1515,0.0426,-2.7825,0.9538,-15.8463,0,0,0,1.7378464197716124
-0.1581,0.9755,0.0524,-0.5444,0.1527,0.0429,-2.5288,1.015,-15.7237,0,0,0,1.7498872784233561
-0.1607,0.9745,0.0498,-0.5444,0.1527,0.0429,-2.1,1.2163,-16.4062,0,0,0,1.7619624667232456
-0.1587,0.9753,0.0549,-0.5454,0.1518,0.043,-2.1,1.1725,-15.96,0,0,0,1.7739980166665132
-0.16,0.9752,0.0486,-0.5454,0.1518,0.043,-2.6075,1.4088,-15.68,0,0,0,1.783459904740535
-0.1642,0.9754,0.0443,-0.5469,0.1531,0.0456,-2.5638,1.715,-15.89,0,0,0,1.7955722539997578
-0.1597,0.9746,0.0498,-0.5446,0.151,0.043,-2.1613,1.1725,-16.0825,0,0,0,1.8076715084447394
-0.1591,0.9747,0.0487,-0.5446,0.151,0.043,-2.4675,1.4088,-15.5575,0,0,0,1.8197261697385214
-0.1585,0.9752,0.0463,-0.5431,0.1514,0.0445,-2.835,1.1812,-15.1287,0,0,0,1.8319156722275978
-0.1608,0.9751,0.0492,-0.5431,0.1514,0.0445,-2.7125,1.365,-15.75,0,0,0,1.8439837822495193
-0.1614,0.9733,0.0475,-0.544,0.1516,0.049,-2.3888,1.1638,-15.8725,0,0,0,1.8560996706477262
-0.1622,0.9751,0.0459,-0.545,0.1502,0.0411,-2.9575,0.5862,-15.75,0,0,0,1.8654766193861292
-0.1615,0.9765,0.0525,-0.545,0.1502,0.0411,-2.8175,1.0762,-15.8987,0,0,0,1.8775429598385587
-0.1601,0.9744,0.0443,-0.5467,0.1525,0.0425,-2.87,1.05,-15.5225,0,0,0,1.8896503543032037
-0.1599,0.9758,0.052,-0.5467,0.1525,0.0425,-3.0363,1.3737,-14.4375,0,0,0,1.9017988027800645
-0.1573,0.9728,0.0579,-0.5461,0.1525,0.0433,-2.3888,1.1375,-15.5837,0,0,0,1.9138754067355477
-0.1621,0.9748,0.0475,-0.5445,0.1524,0.0431,-3.2113,1.085,-15.8463,0,0,0,1.9259573193995072
-0.1612,0.9761,0.0476,-0.5445,0.1524,0.0431,-2.6775,1.26,-15.8375,0,0,0,1.9380749773672061
-0.1596,0.9722,0.0504,-0.5439,0.1515,0.0436,-2.4063,1.4,-16.1612,0,0,0,1.9501246838664104
-0.1612,0.9752,0.0495,-0.5439,0.1515,0.0436,-3.4825,0.9013,-15.8375,0,0,0,1.9595826788875494
-0.1596,0.9755,0.0544,-0.5442,0.1522,0.0459,-2.5463,1.155,-15.9337,0,0,0,1.9715962861691156
-0.1587,0.9751,0.0501,-0.5442,0.1512,0.0426,-3.1412,1.2163,-15.6012,0,0,0,1.9837415494208908
-0.1599,0.9744,0.0464,-0.546,0.1512,0.0426,-3.0713,1.4,-15.8112,0,0,0,1.9958581456468945
-0.162,0.9747,0.0545,-0.5448,0.1511,0.0432,-2.38,1.5137,-16.38,0,0,0,2.00796766359493
-0.1615,0.9728,0.0468,-0.5448,0.1511,0.0432,-2.7037,1.2425,-16.3975,0,0,0,2.020087091132121
-0.1623,0.9741,0.0485,-0.5455,0.1507,0.0469,-2.5375,1.3125,-16.66,0,0,0,2.032162279432011
-0.1593,0.9753,0.0531,-0.5455,0.1507,0.0469,-2.275,1.3737,-16.6075,0,0,0,2.0415409977399057
-0.1598,0.9736,0.0467,-0.5438,0.1509,0.0407,-2.4063,1.225,-15.785,0,0,0,2.0537039566866016
-0.1638,0.9739,0.0463,-0.5434,0.1518,0.0436,-1.6013,1.1987,-15.9162,0,0,0,2.065797902423107
-0.1623,0.9726,0.0466,-0.5434,0.1518,0.0436,-1.4088,1.645,-16.0737,0,0,0,2.077803723598908
-0.1607,0.9765,0.048,-0.5442,0.1533,0.0443,-1.82,1.6712,-15.9337,0,0,0,2.089961019923229
-0.1604,0.9758,0.0506,-0.5442,0.1533,0.0443,-1.7937,1.05,-15.785,0,0,0,2.102075138751944
-0.1596,0.9739,0.0493,-0.5436,0.1522,0.0456,-1.8725,1.0412,-15.5487,0,0,0,2.1141751010247223
-0.1624,0.975,0.0479,-0.5462,0.1514,0.0428,-2.2925,1.0937,-16.1437,0,0,0,2.1235700993719444
-0.1609,0.9742,0.0523,-0.5462,0.1514,0.0428,-2.4325,1.2337,-15.9075,0,0,0,2.135617682387758
-0.1591,0.9741,0.0519,-0.5438,0.15,0.0446,-2.66,1.225,-15.7587,0,0,0,2.1477190603161302
-0.1596,0.9749,0.0496,-0.5438,0.15,0.0446,-2.73,1.1725,-15.6012,0,0,0,2.159848751356375
-0.1614,0.9748,0.0521,-0.5445,0.1547,0.0474,-2.9488,1.1987,-16.0387,0,0,0,2.1719547301654263
-0.1615,0.9733,0.0506,-0.5434,0.1526,0.045,-2.8087,1.5137,-15.7412,0,0,0,2.1840394741405733
-0.1593,0.973,0.0481,-0.5434,0.1526,0.045,-2.7825,1.2775,-15.9075,0,0,0,2.1961521773136945
-0.162,0.9751,0.0497,-0.5458,0.1528,0.0433,-2.5463,1.015,-15.155,0,0,0,2.2082631109173234
-0.1593,0.9733,0.0516,-0.5458,0.1528,0.0433,-2.4063,1.47,-15.225,0,0,0,2.2176998711045584
-0.162,0.9734,0.0484,-0.5482,0.1513,0.035,-2.8438,1.4525,-15.7762,0,0,0,2.2301342820113352
-0.1612,0.9745,0.0467,-0.5468,0.1499,0.0438,-2.7213,1.4088,-15.295,0,0,0,2.241824058075855
-0.1582,0.9751,0.0509,-0.5468,0.1499,0.0438,-2.5288,1.3825,-15.7762,0,0,0,2.254196180136512
-0.1598,0.9733,0.049,-0.5454,0.1501,0.043,-2.3363,0.6737,-15.3475,0,0,0,2.2660639748919325
-0.1639,0.9758,0.047,-0.5454,0.1501,0.043,-2.0038,0.7875,-15.7237,0,0,0,2.2781540275755554
-0.1568,0.975,0.0489,-0.5454,0.1528,0.0443,-2.2575,1.4962,-16.0212,0,0,0,2.2902366480673115
-0.1571,0.9745,0.0494,-0.5442,0.1509,0.0416,-2.6075,1.5312,-15.9075,0,0,0,2.2996058106999495
-0.161,0.974,0.0505,-0.5442,0.1509,0.0416,-2.6688,1.19,-16.4412,0,0,0,2.311751427865623
-0.1617,0.9734,0.0477,-0.5462,0.1513,0.0447,-2.7213,1.085,-15.9337,0,0,0,2.323869085833322
-0.1629,0.9743,0.0468,-0.5462,0.1513,0.0447,-2.0913,1.1025,-15.855,0,0,0,2.3359071131738784
-0.16,0.9749,0.0485,-0.5448,0.1518,0.0404,-2.2925,1.2687,-16.2138,0,0,0,2.34802193983039
-0.1595,0.9739,0.0524,-0.5448,0.1522,0.0387,-2.2138,1.575,-15.9337,0,0,0,2.3601491534733463
-0.1607,0.9738,0.0471,-0.5444,0.1522,0.0387,-1.9512,1.3387,-16.0212,0,0,0,2.372278844513591
-0.1595,0.973,0.0484,-0.5443,0.1524,0.0426,-2.0125,1.6275,-16.3712,0,0,0,2.3843904859450173
-0.1591,0.9745,0.0475,-0.5443,0.1524,0.0426,-2.5638,1.5662,-15.8987,0,0,0,2.3936977136454334
-0.1609,0.9734,0.0491,-0.5432,0.1518,0.0498,-2.2838,1.435,-16.0037,0,0,0,2.4058182029243196
-0.1612,0.9739,0.0474,-0.5432,0.1518,0.0498,-2.0388,1.12,-14.1487,0,0,0,2.417952494845244
-0.1588,0.9744,0.0514,-0.545,0.1518,0.0466,-2.38,1.9075,-15.3825,0,0,0,2.430582266223944
-0.1596,0.9736,0.048,-0.5444,0.1498,0.044,-2.2925,1.7937,-15.8112,0,0,0,2.4421187975704517
-0.1576,0.9722,0.0526,-0.5444,0.1498,0.044,-2.2662,1.0237,-15.9862,0,0,0,2.4542300850879797
-0.1591,0.9721,0.0503,-0.5462,0.1515,0.0428,-1.7413,1.19,-16.03,0,0,0,2.4663526978502563
-0.1624,0.9748,0.0489,-0.5462,0.1515,0.0428,-2.4938,1.4088,-16.0125,0,0,0,2.475753358819853
-0.158,0.9734,0.0538,-0.5443,0.1517,0.0437,-2.2313,1.4,-16.17,0,0,0,2.4878327940865232
-0.1591,0.9747,0.0466,-0.5451,0.1518,0.0441,-2.275,0.9625,-16.065,0,0,0,2.499941250292864
-0.1587,0.9745,0.0516,-0.5451,0.1518,0.0441,-2.1963,1.1112,-15.8812,0,0,0,2.5120302412347915
-0.1588,0.9734,0.0517,-0.5443,0.1518,0.045,-2.5638,0.8663,-15.7325,0,0,0,2.5241386974411317
-0.1626,0.9756,0.0455,-0.5443,0.1518,0.045,-2.4325,0.7088,-15.715,0,0,0,2.5362853763485003
-0.1598,0.9745,0.0475,-0.544,0.1531,0.0494,-2.835,1.365,-16.065,0,0,0,2.5483234036890567
-0.1619,0.9749,0.0487,-0.545,0.1519,0.0436,-2.7125,1.5487,-16.1612,0,0,0,2.5603862050025024
-0.1614,0.9732,0.051,-0.545,0.1519,0.0436,-2.8612,1.33,-15.7937,0,0,0,2.5698211956202446
-0.1609,0.9737,0.0484,-0.5452,0.1522,0.0422,-2.5988,1.435,-15.75,0,0,0,2.5819462857798103
-0.1612,0.9755,0.0471,-0.5452,0.1522,0.0422,-3.0013,1.6625,-15.6975,0,0,0,2.5939747574451095
-0.1591,0.973,0.0467,-0.5442,0.1508,0.043,-2.7562,1.3037,-16.0825,0,0,0,2.606151165119945
-0.1609,0.9734,0.0492,-0.5432,0.1506,0.0453,-2.8525,0.98,-16.135,0,0,0,2.618206888155422
-0.162,0.974,0.0464,-0.5432,0.1506,0.0453,-2.9138,1.2075,-15.785,0,0,0,2.6303560444600795
-0.1611,0.9743,0.0533,-0.5449,0.1534,0.0447,-2.6863,1.9075,-15.715,0,0,0,2.6424761798250676
-0.1618,0.974,0.0484,-0.5449,0.1534,0.0447,-2.6338,1.6712,-16.0562,0,0,0,2.651817383259731
-0.1609,0.9749,0.0472,-0.5437,0.1514,0.0467,-2.4413,1.3125,-15.9337,0,0,0,2.6665532962478755
-0.1579,0.9751,0.0508,-0.5466,0.1515,0.0421,-2.3975,1.54,-16.1788,0,0,0,2.676054468764621
-0.1602,0.9744,0.0501,-0.5466,0.1515,0.0421,-2.415,1.4,-16.3625,0,0,0,2.687726195220322
-0.1602,0.9748,0.057,-0.5434,0.1506,0.0433,-2.3275,1.26,-15.9075,0,0,0,2.699873935869386
-0.1621,0.9739,0.0487,-0.5434,0.1506,0.0433,-2.7213,1.26,-15.9425,0,0,0,2.7120758253449067
-0.1601,0.9749,0.0501,-0.5454,0.1533,0.0442,-2.59,1.26,-16.1875,0,0,0,2.724279130476021
-0.1587,0.9739,0.0481,-0.5454,0.1533,0.0427,-2.3625,1.3125,-16.1262,0,0,0,2.7364569538064503
-0.1651,0.9734,0.0457,-0.5436,0.1526,0.0427,-2.3275,0.98,-15.715,0,0,0,2.745220569758907
-0.1624,0.9749,0.0479,-0.5423,0.1516,0.0438,-2.4237,1.54,-15.68,0,0,0,2.7574231670622242
-0.1608,0.9727,0.0463,-0.5423,0.1516,0.0438,-2.6775,1.575,-16.1612,0,0,0,2.7696321348157134
-0.1589,0.975,0.0458,-0.5442,0.1515,0.0399,-2.73,1.4175,-15.5925,0,0,0,2.7818478269332725
-0.1596,0.975,0.0492,-0.5442,0.1515,0.0399,-2.7388,1.4525,-15.9512,0.794335806999303,-4.748211916442363,0.6636731844165128,17.83952375930174
-0.1617,0.9733,0.0479,-0.5463,0.1525,0.044,-3.045,1.05,-15.8025,1.6171280787473457,-6.95922262625571,1.0569599769910352,17.845047647428142
-0.1623,0.9739,0.0533,-0.5448,0.1531,0.0439,-2.03,1.05,-15.9862,1.992750429731671,-8.252149548013248,1.3874475614679562,17.849644635054606
-0.1604,0.9752,0.0487,-0.5448,0.1531,0.0439,-2.0125,1.1812,-15.7325,2.2158959623377363,-8.739852732341287,1.4275785943912846,17.854225696555638
-0.1593,0.9735,0.0528,-0.543,0.1523,0.0434,-2.135,1.0062,-15.61,2.378842390914947,-8.963241964582517,1.7755327363089277,17.85878764670616
-0.1595,0.9741,0.0514,-0.543,0.1523,0.0434,-2.4588,1.4612,-15.9775,2.436781646959776,-9.130531222424118,2.1552117114959985,17.86362104881676
-0.1596,0.9724,0.0506,-0.5439,0.1521,0.0452,-2.9138,0.7525,-15.7587,2.630057300879756,-9.212505591731658,2.6606561191726974,17.868085318731318
-0.1617,0.9758,0.0511,-0.5467,0.1514,0.0432,-2.9138,0.8663,-15.575,2.7611561046831836,-9.286291822956187,2.887919009167838,17.87268230635778
-0.1612,0.9743,0.0489,-0.5467,0.1514,0.0432,-3.01,1.155,-15.82,2.8053360390275675,-9.332511848731542,2.9181374557856246,17.877169226761836
-0.1637,0.9767,0.0519,-0.5462,0.1529,0.0444,-2.31,1.0675,-15.9687,2.816494607167946,-9.419618604687084,3.00586166852207,17.881591380922483
-0.1581,0.9748,0.0509,-0.5462,0.1529,0.0444,-2.24,0.7263,-15.9162,2.8349178043688337,-9.309224488285066,3.225326077702097,17.886032292519747
-0.1636,0.9731,0.0528,-0.5444,0.153,0.0487,-2.5025,1.8025,-16.03,2.868798937866397,-9.425969068254123,3.554903214017182,17.890426841396316
-0.1609,0.9755,0.0486,-0.5432,0.1526,0.045,-2.5988,1.2425,-15.61,2.8655850227858157,-9.396489336004333,3.565466704744875,17.892266839754157
-0.1599,0.9754,0.0505,-0.5432,0.1526,0.045,-2.6775,1.19,-15.9512,2.889270826161396,-9.345923686792359,3.5673636970861597,17.89397482822789
-0.1596,0.974,0.0483,-0.5441,0.1516,0.0418,-2.59,1.6013,-15.7762,2.8798428908125215,-9.322015476333387,3.544608022068111,17.89565414967585
-0.1601,0.9751,0.0478,-0.5441,0.1516,0.0418,-2.5288,1.1287,-15.785,2.869215548593763,-9.317849284438637,3.5414666155270837,17.89734904333534
-0.1582,0.9748,0.049,-0.5469,0.151,0.0386,-2.4675,1.4525,-15.645,2.8700372856840644,-9.2705719258722,3.4605732896565,17.899023056074824
-0.1624,0.9736,0.049,-0.5438,0.1509,0.043,-2.6338,1.0937,-15.4787,2.8724376289123197,-9.339006984766904,3.4741692041934553,17.900692114019733
-0.1607,0.974,0.0547,-0.5438,0.1509,0.043,-1.8637,1.3037,-15.47,2.9857794156315007,-9.344542997041296,3.477883533453036,17.90235267803108
-0.1608,0.9742,0.0465,-0.544,0.1507,0.0437,-2.6338,1.4088,-15.5575,2.931317383679808,-9.351509453098224,3.5190376183875047,17.904032353392935
-0.1626,0.9744,0.0497,-0.544,0.1507,0.0437,-2.9838,1.2775,-15.295,2.9269230218390017,-9.382447920873487,3.5295673307606106,17.905699287854453
-0.1584,0.9742,0.0515,-0.5455,0.1524,0.045,-2.87,1.0587,-15.6363,2.9604265903382503,-9.314875298026726,3.556398254970305,17.907391350202758
-0.1612,0.9751,0.0519,-0.546,0.1502,0.0453,-2.4413,1.3387,-15.8112,2.966947847082307,-9.342989354939315,3.5840630547014984,17.90910995609344
-0.162,0.9746,0.0489,-0.546,0.1502,0.0453,-2.4675,1.5312,-15.9512,2.957732727354414,-9.385384137409353,3.6450832397657402,17.910788215799705
-0.1574,0.972,0.0487,-0.5464,0.1511,0.0423,-2.275,1.365,-16.0737,2.950760125726559,-9.27844127435917,3.627326387198154,17.912475323353434
-0.1599,0.9733,0.0457,-0.5464,0.1511,0.0423,-2.3625,1.4787,-16.275,2.949985976693682,-9.30217516910736,3.6144029804349835,17.914131994311894
-0.1597,0.9751,0.05,-0.5428,0.1521,0.0454,-2.8175,1.5575,-16.135,2.945395877945777,-9.295031168200053,3.6719199414048975,17.91579078875375
-0.1616,0.9755,0.0486,-0.5428,0.1521,0.043,-2.4938,1.3125,-16.3537,2.934358960076713,-9.353989369500006,3.6656713186389442,17.917459138870857
-0.1595,0.9744,0.0511,-0.5458,0.1512,0.043,-2.4063,1.1725,-16.0037,2.9373797954755463,-9.317233619178758,3.662872275451382,17.919174913450355
-0.1629,0.9755,0.0473,-0.5452,0.1522,0.0449,-2.4237,0.665,-15.9512,2.927649076048349,-9.39509907877754,3.7131618048513615,17.92068223274369
-0.1604,0.9742,0.0517,-0.5452,0.1522,0.0449,-2.5025,1.19,-16.205,2.941425276318952,-9.362164572650334,3.713371882464153,17.921888371309475
-0.1585,0.9734,0.0447,-0.5446,0.1517,0.0418,-2.2225,1.1287,-16.1175,2.90380175709346,-9.294553239874839,3.7021112283571616,17.923083538544407
-0.1612,0.974,0.0483,-0.5446,0.1517,0.0418,-2.4763,1.015,-15.68,2.8970197078932656,-9.334543887962122,3.668178213057378,17.924283306660023
-0.1627,0.9749,0.051,-0.546,0.1504,0.0474,-1.9075,1.61,-15.9862,2.927394055009619,-9.400775260054141,3.766673293090187,17.925498293073268
-0.1615,0.9746,0.0502,-0.5437,0.1511,0.0419,-1.9862,1.7413,-16.3013,2.933159698005251,-9.398396133572781,3.6634543554083194,17.926790786630264
-0.1625,0.9739,0.0459,-0.5437,0.1511,0.0419,-2.3888,1.9075,-15.5575,2.926485177495299,-9.423719501854597,3.6125751488894866,17.928031962671994
-0.1609,0.9742,0.0462,-0.5436,0.1526,0.0448,-2.8525,1.68,-16.0912,2.8566992977465304,-9.393499315387873,3.680894626285735,17.929294019633726
-0.1598,0.9731,0.049,-0.5436,0.1526,0.0448,-3.0363,0.8925,-15.9337,2.8671804254645035,-9.353248452423347,3.7035095555902093,17.930557492251054
-0.1595,0.9758,0.0486,-0.5472,0.1516,0.0427,-0.5338,1.19,-15.89,2.856904898782911,-9.312887399442934,3.70220039494725,17.93187015890026
-0.1602,0.9742,0.0512,-0.5468,0.1521,0.0435,-1.9075,1.1287,-15.925,2.904088051011318,-9.319332914793407,3.6950784909074024,17.93310461057792
-0.1588,0.9743,0.0484,-0.5468,0.1521,0.0435,-2.8263,1.5662,-15.575,2.8849433061258645,-9.28988675855688,3.680069333921964,17.934315350024384
-0.1602,0.975,0.0492,-0.5458,0.1512,0.0419,-2.3975,1.3387,-15.4962,2.8850837187858653,-9.300752102818924,3.6551184723208827,17.93551971902068
-0.1588,0.9738,0.0503,-0.5458,0.1512,0.0419,-2.6513,1.3737,-15.6187,2.9013017903728486,-9.279492706283067,3.625877154358196,17.936759125492912
-0.1632,0.9742,0.0459,-0.544,0.1519,0.0439,-2.275,1.3037,-15.5925,2.8854173439058513,-9.369223151351994,3.636409573581329,17.937988622375993
-0.1606,0.9739,0.0502,-0.5439,0.1513,0.0447,-1.9075,1.6362,-16.205,2.9057465898665145,-9.3593933460441,3.6722982557462314,17.93926802111875
-0.1591,0.9723,0.0476,-0.5439,0.1513,0.0447,-2.8612,1.225,-16.0212,2.8713350019203663,-9.318657625041642,3.6754133251994645,17.9404812379625
-0.1575,0.9755,0.053,-0.5432,0.1514,0.043,-2.8,1.4962,-15.715,2.9442782083679386,-9.246874703801081,3.6452224528077384,17.941701886998125
-0.1626,0.9738,0.0458,-0.5432,0.1514,0.043,-2.2838,1.435,-15.4437,2.926569382068533,-9.324758857857875,3.6471508560055863,17.94290342468323
-0.1616,0.9737,0.047,-0.5453,0.1521,0.0398,-3.1763,1.2687,-15.6887,2.8532552964221582,-9.363292012132423,3.6242104522747502,17.944182823425987
-0.1624,0.9742,0.0507,-0.547,0.1517,0.0462,-3.045,2.0913,-15.1988,2.9044510717696523,-9.383384510877882,3.742163067792844,17.94540665768669
-0.1613,0.9735,0.0462,-0.547,0.1517,0.0462,-3.08,1.4262,-15.505,2.8259889824043425,-9.388689396540935,3.779898387051302,17.946625891066716
-0.1571,0.9736,0.0484,-0.543,0.1513,0.0443,-2.7213,0.9275,-15.9775,2.8312965772479153,-9.267794564090426,3.7734621269368884,17.947826720924027
-0.1583,0.9734,0.0464,-0.543,0.1513,0.0443,-2.5025,1.225,-15.7937,2.8185150616666927,-9.248413034229793,3.773656040718414,17.94904029168168
-0.1623,0.9748,0.0487,-0.5434,0.153,0.0458,-2.8087,1.435,-16.0825,2.83139167284734,-9.352697283098085,3.7944992479682162,17.95031650519935
-0.1599,0.9745,0.0536,-0.5436,0.1523,0.043,-2.9313,0.9275,-16.3013,2.946652468399262,-9.324595832943492,3.7366765576055374,17.951546709910225
-0.1607,0.9745,0.0495,-0.5436,0.1523,0.043,-2.94,0.8575,-15.7237,2.932403592334552,-9.337046743913236,3.6991728300986653,17.952742938886857
-0.1621,0.9753,0.0545,-0.5445,0.1526,0.0416,-2.3625,1.0762,-15.7412,2.933188017519517,-9.375819851469107,3.6620535745296823,17.953933151327213
-0.1596,0.9745,0.0511,-0.5445,0.1526,0.0416,-1.9162,1.1638,-16.065,2.9542256563483265,-9.328959622463222,3.65364153687203,17.955123717681467
-0.1621,0.9742,0.0489,-0.5448,0.1533,0.0414,-2.0738,0.8925,-16.135,2.9362967693615825,-9.387676680950268,3.5994230587123015,17.956313930121823
-0.1609,0.9755,0.049,-0.5448,0.1533,0.0424,-2.3363,1.505,-15.9687,2.934917812931143,-9.370579224080577,3.5816987153980713,17.95750201907879
-0.1597,0.975,0.0501,-0.5441,0.1529,0.0424,-2.59,1.0412,-15.4962,2.936157080465318,-9.340667656011895,3.5723149446336606,17.958742841206618
-0.161,0.9746,0.0475,-0.5438,0.1514,0.0437,-2.6425,0.8225,-15.2425,2.9039816235628817,-9.347922975926073,3.6063162947712937,17.959951457169694
-0.1596,0.9736,0.0486,-0.5438,0.1514,0.0437,-1.645,0.8225,-15.9425,2.8846973269492793,-9.322593306307597,3.6261279984239274,17.961247489865674
-0.1593,0.9747,0.0473,-0.5452,0.1498,0.042,-1.96,1.365,-15.7762,2.854310364586059,-9.29872686277772,3.612289571865126,17.962470616298585
-0.1608,0.9745,0.0501,-0.5452,0.1498,0.042,-1.9337,1.6625,-15.89,2.8808106855986413,-9.327984817028854,3.5716520423353457,17.96367604703657
-0.1579,0.9747,0.0514,-0.5441,0.1533,0.0426,-1.9512,1.4612,-16.3187,2.9207763975299965,-9.246771905884508,3.558862726036827,17.964885016913545
-0.1609,0.9744,0.0469,-0.5482,0.151,0.0426,-1.435,1.435,-16.1788,2.8414476236630613,-9.313480930717468,3.5608606874096744,17.966098941585095
-0.1605,0.9747,0.0498,-0.5482,0.151,0.0426,-2.0125,1.4437,-15.9775,2.8629346861591385,-9.32658129447045,3.553583344579747,17.967301541011896
-0.1606,0.9741,0.0465,-0.5435,0.1526,0.0434,-2.5988,1.1462,-16.0562,2.837852241326685,-9.340015576914771,3.559761866894709,17.968522190047516
-0.1624,0.9747,0.0505,-0.5435,0.1526,0.0434,-2.065,1.3825,-15.89,2.8669839388452742,-9.393125626917065,3.567873391729039,17.969738238202456
-0.1613,0.9745,0.0508,-0.5436,0.151,0.0502,-2.38,1.12,-15.2512,2.8693316171027483,-9.39126907590388,3.621952258785517,17.970941191543155
-0.1615,0.9741,0.049,-0.5465,0.1507,0.0442,-2.1,1.295,-14.98,2.871470884653958,-9.392021516443785,3.629619711906301,17.972146622281144
-0.1604,0.9738,0.05,-0.5465,0.1507,0.0442,-2.695,1.1725,-15.1375,2.8885052544442753,-9.382463183033728,3.6312772010687455,17.97335311476083
-0.161,0.9741,0.0446,-0.5444,0.1512,0.0429,-2.8788,1.3387,-15.7325,2.7972489679845376,-9.379263030438707,3.63463879918787,17.97455536027373
-0.1623,0.9764,0.0517,-0.5444,0.1512,0.0429,-2.6425,1.155,-15.7762,2.848793953671141,-9.40038356632432,3.630944532024648,17.975756897958835
-0.1591,0.9749,0.0515,-0.5426,0.152,0.039,-2.2313,0.91,-15.7412,2.8686965508062197,-9.334642090805227,3.5252443537922264,17.976969053060895
-0.1631,0.9733,0.0468,-0.5447,0.152,0.042,-2.3363,1.0412,-15.9075,2.8660659006122384,-9.418509677537308,3.525118295210413,17.978181208162955
-0.1579,0.9747,0.0478,-0.5447,0.152,0.042,-2.7388,1.1987,-15.6975,2.849983223777269,-9.317907792482938,3.5251141644669772,17.97937566757009
-0.162,0.9751,0.0492,-0.5437,0.1522,0.0449,-2.8263,1.4175,-15.5837,2.862236099487457,-9.359609158943131,3.572048467635522,17.98057437394401
-0.1599,0.9747,0.0508,-0.5437,0.1522,0.0449,-2.8612,1.26,-15.8987,2.9027387799792264,-9.331890545765965,3.582949898407087,17.9818010395159
-0.1601,0.973,0.0488,-0.5439,0.1514,0.0443,-2.45,1.4175,-15.995,2.900123833810896,-9.332130331003292,3.610219440387931,17.983000099803718
-0.1611,0.973,0.0484,-0.5459,0.1507,0.0434,-2.6513,1.4525,-15.3825,2.888287915301544,-9.350778142246844,3.6164957913628473,17.984194913124753
-0.1619,0.9747,0.0495,-0.5459,0.1507,0.0434,-2.7125,1.575,-15.9775,2.893237408901288,-9.386059365657031,3.61880507052946,17.985398574293253
-0.161,0.9752,0.0466,-0.5458,0.1506,0.0429,-2.695,1.2512,-15.435,2.8536906417464922,-9.378466249567452,3.618981733503033,17.986604712859037
-0.1582,0.9747,0.0508,-0.5458,0.1506,0.0429,-3.2113,1.4088,-15.925,2.9133885453738446,-9.291761902268766,3.608143694319209,17.987803773146855
-0.1596,0.9737,0.0468,-0.547,0.1533,0.0418,-3.08,1.2425,-16.0037,2.845701532081488,-9.295069619558404,3.6029732960255836,17.989007788229248
-0.1604,0.9745,0.0461,-0.5442,0.1536,0.0394,-3.0975,0.875,-15.6625,2.787415556972212,-9.313001888826546,3.520939152520613,17.99025002601267
-0.1587,0.973,0.0535,-0.5442,0.1536,0.0394,-2.5638,1.0762,-15.7412,2.8484423569821127,-9.284238218856068,3.480058898130839,17.99145085586998
-0.1613,0.9791,0.0545,-0.5446,0.1512,0.0448,-2.415,1.2163,-15.9337,2.866178363350804,-9.31295207109221,3.483739787800054,17.99272069893748
-0.1665,0.9641,0.0523,-0.5446,0.1512,0.0448,-2.065,1.3562,-15.4875,2.9205411692177896,-9.486503721702405,3.5152211305011076,17.99397426196565
-0.1629,0.9873,0.0472,-0.5454,0.1518,0.0462,-1.96,1.0937,-16.24,2.8681620181858323,-9.413384492670337,3.556764400736262,17.9951885405511
-0.1634,0.9665,0.0472,-0.5454,0.1518,0.041,-2.8612,1.9425,-16.065,2.844013396025923,-9.505394831748493,3.493227323725036,17.996412728725705
-0.1616,0.9734,0.0544,-0.5466,0.1506,0.041,-1.9425,1.1725,-15.855,2.948410453340497,-9.459700726780643,3.4882405042425413,17.99761497423861
-0.1561,0.979,0.0525,-0.5463,0.1536,0.0424,-1.6975,0.8925,-16.6688,2.996688635681858,-9.196093220467922,3.481966402469126,17.998824651943377
-0.159,0.9812,0.0454,-0.5463,0.1536,0.0424,-2.345,1.05,-15.8025,2.9917075851689345,-9.195528066673303,3.4941813140721694,18.00001521829763
-0.1577,0.9741,0.0498,-0.5455,0.155,0.0419,-2.3275,1.4175,-15.6625,2.9896876681777345,-9.190648762329806,3.4854692419881834,18.001297448351576
-0.1612,0.9662,0.0528,-0.5455,0.155,0.0419,-1.75,1.05,-16.275,3.0420427917987944,-9.345261992162772,3.4727900898311512,18.002563398366192
-0.1554,0.9841,0.0485,-0.5451,0.1517,0.049,-2.8263,1.2862,-16.2313,2.971847983783932,-9.12718925015806,3.532507290651011,18.003781216090623
-0.1646,0.9681,0.0532,-0.5426,0.1516,0.0444,-2.9313,1.4525,-15.6538,3.0349850858682244,-9.34474148101849,3.561371264261073,18.00498523117302
-0.1566,0.979,0.0514,-0.5426,0.1516,0.0444,-2.2138,0.9013,-16.4412,3.031223711862485,-9.181763687525574,3.5972259556024837,18.006303206530703
-0.1621,0.9634,0.0517,-0.5462,0.1496,0.043,-2.6163,0.9538,-15.6625,3.039509502718071,-9.335164284121232,3.58683447163887,18.00750403638801
-0.1568,0.9836,0.047,-0.5462,0.1496,0.043,-2.1613,0.5513,-15.75,2.989249457360251,-9.2033355048693,3.606968762999111,18.00870203493413
-0.1599,0.9742,0.0515,-0.5447,0.1558,0.0395,-2.3975,0.735,-15.7937,2.990595648138331,-9.252758492945343,3.4696863558571818,18.0099120665528
-0.1612,0.9688,0.0531,-0.5476,0.153,0.0428,-2.8,0.5513,-16.1525,3.0354381231190852,-9.352860072627397,3.4723919145303843,18.011130946018927
-0.1606,0.9719,0.0467,-0.5476,0.153,0.0428,-1.925,0.8925,-16.2925,2.9492654122814805,-9.36418015694763,3.4982677180919373,18.01236008898811
-0.1611,0.9772,0.0498,-0.5442,0.1522,0.0454,-2.0825,1.2687,-15.2163,2.9423481295245058,-9.360712628863395,3.519673821064775,18.013573305831862
-0.1555,0.9773,0.0528,-0.5442,0.1522,0.0454,-1.8637,1.365,-15.26,2.9921132648142907,-9.273386503173437,3.556916258899494,18.014894820328532
-0.1572,0.976,0.0471,-0.5421,0.1524,0.0438,-2.1963,1.295,-16.0212,2.9599395726947106,-9.202669682953793,3.5712954836948496,18.016109806741778
-0.1654,0.973,0.0453,-0.5442,0.1508,0.0442,-2.9138,1.2687,-15.7237,2.854975218696534,-9.398348162435278,3.584910692902647,18.01730497397671
-0.164,0.9697,0.0484,-0.5442,0.1508,0.0442,-2.3538,1.085,-15.2512,2.854989036102496,-9.447056293700149,3.59961212833449,18.01850544992012
-0.1581,0.9727,0.0461,-0.5457,0.1523,0.0425,-2.3538,1.1287,-14.9012,2.8541808864234413,-9.446302616976627,3.598302932812883,18.019711234572007
-0.1609,0.978,0.045,-0.5457,0.1523,0.0425,-2.5725,1.0412,-16.0387,2.8156030565847168,-9.386025507377113,3.5985972571184304,18.02090746354864
-0.1621,0.9729,0.045,-0.5459,0.1518,0.0455,-2.6688,1.1287,-16.485,2.776070723967119,-9.424924356173033,3.6184360366723456,18.0221189108229
-0.1615,0.9731,0.0493,-0.5474,0.1514,0.0438,-3.1763,1.155,-15.8287,2.831914339625393,-9.418388771912412,3.6199107747781625,18.023322571991397
-0.1602,0.974,0.0512,-0.5474,0.1514,0.0438,-2.3187,1.3125,-15.8812,2.838866308373703,-9.373493923057133,3.6203797665191777,18.02451526182904
-0.157,0.9739,0.0503,-0.5474,0.1511,0.044,-2.7037,1.6625,-16.03,2.869007271690478,-9.252895530622803,3.6335875392081642,18.025845978087066
-0.1603,0.9762,0.0514,-0.5474,0.1511,0.044,-3.0625,1.8725,-15.8987,2.9288664483644102,-9.282629706982302,3.638318734956954,18.027078660195233
-0.1627,0.97,0.0515,-0.5451,0.1516,0.0448,-2.2838,1.5137,-15.8987,2.936630632700771,-9.395259047404343,3.6601451352085728,18.02828621441661
-0.1656,0.97,0.0514,-0.5455,0.1525,0.0428,-2.345,1.2775,-15.8638,2.938015514149202,-9.53217585743354,3.649905423454301,18.029485274704427
-0.1591,0.9781,0.0504,-0.5455,0.1525,0.0428,-2.45,1.4088,-15.8463,2.938989369007875,-9.384125018519901,3.6317813660602782,18.0306949524092
-0.1544,0.9762,0.0453,-0.5466,0.1511,0.0416,-2.3187,1.3125,-16.2575,2.9279192466990276,-9.15071332325722,3.619073016269253,18.03196656504619
-0.1649,0.9744,0.0518,-0.5466,0.1511,0.0416,-2.1963,0.9975,-16.3537,2.9440734204891474,-9.411819928710583,3.582068365753525,18.033192168876386
-0.162,0.9716,0.0514,-0.5418,0.1526,0.0418,-2.24,0.875,-16.135,2.953062978877265,-9.434629653190564,3.547989042347993,18.034397953528273
-0.1599,0.978,0.0476,-0.5418,0.1526,0.0418,-2.5638,1.3912,-15.8638,2.9247998546259764,-9.356348050011507,3.5419793377925846,18.03560373818016
-0.1563,0.9776,0.047,-0.545,0.1554,0.0461,-2.8263,1.47,-16.345,2.8699652124512607,-9.189307363054517,3.6226831905374106,18.036803860209673
-0.1589,0.9753,0.0506,-0.5462,0.1507,0.0453,-2.59,1.4612,-16.2225,2.8886874305941634,-9.218898849967195,3.6593720264883247,18.03799831961681
-0.1665,0.9715,0.0535,-0.5462,0.1507,0.0453,-1.8463,1.0237,-16.4237,2.9780164542375793,-9.515468683488784,3.6723932331936187,18.039291521001605
-0.155,0.9776,0.0503,-0.5452,0.1508,0.0455,-2.2138,0.6737,-16.1963,2.9738695534516166,-9.223590339956441,3.728072216182735,18.04052172571248
-0.1575,0.9776,0.0524,-0.5452,0.1508,0.0455,-2.345,0.8575,-15.68,2.9752210031001765,-9.18678205686093,3.7462956170473043,18.041725386880977
-0.1583,0.9748,0.0534,-0.5441,0.152,0.0454,-2.135,1.0412,-16.2663,3.004621263954066,-9.200342863094093,3.7495296687988184,18.042937188069136
-0.1658,0.9716,0.0479,-0.5463,0.1531,0.0437,-2.2225,1.12,-16.4237,2.9826595101144924,-9.485078159587271,3.742928810983014,18.04414651186001
-0.1577,0.9754,0.0512,-0.5463,0.1531,0.0437,-2.8263,0.98,-15.9425,2.9896960613751484,-9.32539128133624,3.7195685347386083,18.04533743212816
-0.1569,0.9777,0.0482,-0.5451,0.153,0.043,-2.3275,1.1112,-15.5137,2.9845007831472476,-9.24239450465671,3.7099906061368135,18.046541447210558
-0.1587,0.9797,0.0498,-0.5451,0.153,0.043,-2.625,1.1987,-15.68,2.9688616790994318,-9.219362820457428,3.709949951313809,18.047754310140412
-0.1628,0.9707,0.0534,-0.5436,0.1514,0.0494,-2.3975,1.1287,-15.7675,2.9754410088227075,-9.352409940672542,3.740616286094234,18.048994070526547
-0.1643,0.9691,0.0466,-0.5424,0.1528,0.0438,-2.4675,1.4525,-15.8463,2.953766239995692,-9.47804877762755,3.735627955172417,18.05022710654861
-0.1573,0.9762,0.0479,-0.5424,0.1528,0.0438,-2.52,1.3737,-15.26,2.933766599624349,-9.390150998613931,3.730916658937192,18.051439261650668
-0.1607,0.9791,0.0481,-0.5441,0.1498,0.0427,-2.3538,1.4612,-15.7237,2.933074229345018,-9.353987498325079,3.7031541593569126,18.05263336714391
-0.162,0.9701,0.0492,-0.5441,0.1498,0.0427,-3.1238,1.1287,-15.6363,2.92019769895967,-9.40240396954535,3.694518309184631,18.05382924220664
-0.1626,0.9698,0.0459,-0.5466,0.1539,0.0473,-2.7475,1.015,-15.505,2.861373871151196,-9.441807749670833,3.7494101794524717,18.05502299378598
-0.163,0.9758,0.0456,-0.5447,0.1523,0.0422,-2.4763,1.1462,-15.61,2.841944380992496,-9.454759090438936,3.740118680666149,18.0562209923321
-0.1599,0.9761,0.0469,-0.5447,0.1523,0.0422,-2.3712,1.085,-15.5662,2.840894668027938,-9.390250691109014,3.7201311834572977,18.057413682169745
-0.1598,0.9729,0.05,-0.5439,0.1526,0.0447,-2.7388,1.2337,-15.8375,2.868695567376921,-9.35418952365885,3.721094317974353,18.058610972888072
-0.1638,0.9718,0.0516,-0.5439,0.1526,0.0447,-2.8175,1.61,-15.6887,2.922315262280228,-9.442116937738167,3.7208708384283042,18.059796230533852
-0.1608,0.9744,0.0486,-0.5437,0.1525,0.043,-3.2638,1.47,-15.7762,2.8905239717315676,-9.403562590851582,3.6954938726324618,18.061142872917305
-0.1602,0.977,0.0453,-0.5455,0.1502,0.037,-2.5725,1.2775,-15.7587,2.849120438680171,-9.356859442042373,3.6486086189990563,18.06247819005601
-0.1574,0.9749,0.0514,-0.5455,0.1502,0.037,-2.8,1.4787,-15.9075,2.9007694184815627,-9.257732292790719,3.496840722450482,18.06369883909163
-0.1829,0.9736,0.0367,-0.5454,0.1513,0.0426,-2.8788,1.015,-15.6887,2.647159443368313,-9.861808344669951,3.53444066117342,18.06491984204115
-0.2137,1.006,0.0653,-0.5454,0.1513,0.0426,-2.1525,0.7875,-15.6187,2.830133982998135,-10.739433256529422,3.4692711799412064,18.066116778845576
-0.1746,0.9674,0.0506,-0.5458,0.1532,0.0414,-3.01,-1.2337,-14.7087,2.8947683119937624,-10.65389353968614,3.4054134479281597,18.067334596570007
-0.2591,0.898,0.0836,-0.5467,0.1529,0.0443,-3.2288,0.105,-15.0675,4.021948879969007,-11.406973703873113,3.2007604614450615,18.06854144296359
-0.2233,0.9359,0.0827,-0.5467,0.1529,0.0443,-1.1462,-4.1213,-15.4,4.585398295197082,-12.057102099217326,3.1081240890320934,18.069745811959883
-0.1917,0.9649,0.0628,-0.5439,0.1528,0.0425,-0.63,-4.3575,-13.2562,4.039465001218171,-11.532167613423054,3.2693035925307092,18.070972123617878
-0.1799,1.0127,0.0583,-0.5439,0.1528,0.0425,-1.0675,-6.8162,-14.7175,3.6197010596478147,-11.299686819193932,3.4055936387379204,18.072198435275872
-0.1312,0.9329,0.066,-0.5462,0.1518,0.0425,-2.45,-7.1838,-10.7712,3.655128154831939,-8.631267723732213,3.243761607851948,18.073402450358266
-0.0975,1.0171,0.0736,-0.5475,0.154,0.0387,-1.5575,-7.6825,-14.0612,3.8704234741907664,-7.181059252031362,2.854143182385257,18.074623453307787
-0.0683,0.981,0.0636,-0.5475,0.154,0.0387,-1.6625,-7.5687,-13.4663,3.8042837669129455,-5.289515102137417,2.9357266489279468,18.075875954594263
-0.0547,1.0059,0.0104,-0.5489,0.1538,0.0383,-1.6625,-6.6763,-15.2687,2.48502013087942,-4.708375423674213,3.6796726503797017,18.077100496682764
-0.0855,0.9867,-0.0029,-0.5489,0.1538,0.0383,-2.205,-3.8763,-15.2075,2.12984519196144,-4.765119589486373,3.911944520944668,18.078323623115672
-0.1594,0.9956,0.0051,-0.5477,0.1539,0.0382,-2.8263,-2.6688,-18.0075,1.5454747193235747,-8.040441743156771,3.8127630482990513,18.079542502581802
-0.1689,0.9581,0.0261,-0.5483,0.153,0.0399,-4.27,-2.1963,-18.7425,1.5552929843538716,-9.59028964551214,3.653413647597804,18.08076633684251
-0.1684,0.9655,0.0503,-0.5483,0.153,0.0399,-3.3163,-0.98,-17.8325,2.253010659942217,-9.806779404693362,3.356446826064271,18.081978491944565
-0.1578,0.9595,0.063,-0.5471,0.1508,0.0397,-2.0213,0.56,-16.765,2.6330450459321386,-9.489906465606156,3.223062842034546,18.08320444968866
-0.1627,0.9661,0.0473,-0.5471,0.1508,0.0397,-1.82,2.2138,-15.3737,2.6925885869899995,-9.508522271848992,3.247070454663861,18.08440988042665
-0.172,0.9955,0.0384,-0.5484,0.1508,0.0384,-1.7237,1.8375,-15.5487,2.504623792202964,-9.62095433774597,3.264026008970025,18.085604693747687
-0.1493,0.99,0.0411,-0.5463,0.1533,0.045,-2.45,1.575,-16.0825,2.4940599191160016,-9.0518790805761,3.4433528190526346,18.08681614102195
-0.15,0.973,0.0548,-0.5463,0.1533,0.045,-2.9488,0.805,-16.9312,2.764529772027321,-8.849880754191693,3.5119271837620283,18.088021217846038
-0.1619,0.9664,0.049,-0.5457,0.1542,0.0386,-2.4325,0.3588,-16.4062,2.773919435518429,-9.23916732908148,3.333067254163426,18.08928752177455
-0.1768,0.9726,0.0611,-0.5457,0.1542,0.0386,-2.625,1.3825,-16.205,2.946090507770299,-9.829210730139518,3.2697269816916834,18.090489413373557
-0.1596,0.9703,0.0473,-0.5447,0.1534,0.039,-2.1788,1.2512,-15.2862,2.922324705811536,-9.691257481608037,3.266409828424114,18.091704399786803
-0.1571,0.9851,0.0478,-0.5447,0.1526,0.0385,-2.0913,1.3825,-14.9888,2.8917956040111625,-9.64147531889703,3.250247284566378,18.092913015749875
-0.152,0.9754,0.0526,-0.5471,0.1526,0.0385,-2.415,1.4175,-15.61,2.902040676334203,-9.311901860439802,3.217191613432566,18.094108890812606
-0.1642,0.9715,0.0509,-0.5482,0.151,0.0396,-2.2488,1.6712,-15.9425,2.9117242921916375,-9.448650169983969,3.2117144997264173,18.09530228847805
-0.1879,0.9778,0.0503,-0.5482,0.151,0.0396,-2.3538,1.3212,-15.085,2.911913211076765,-9.664952303080115,3.211315060001734,18.096528954049944
-0.1932,0.9484,0.0289,-0.5482,0.1534,0.035,-2.2313,1.2337,-14.3937,2.779320913303473,-10.288489792836453,3.206066684716092,18.09772553694047
-0.164,0.9136,0.003,-0.5482,0.1534,0.035,-0.665,3.78,-15.4787,1.149781961393907,-10.24771753379977,3.4059608878953678,18.098918226778117
-0.1332,0.9797,0.019,-0.5474,0.1534,0.0396,0.3325,7.9363,-13.37,1.1215314876720668,-8.730029160723829,3.679581685036811,18.10010029919881
-0.1474,1.0028,0.0868,-0.5468,0.1538,0.0395,-1.6887,10.325,-10.64,2.657477604580897,-8.406978892284174,2.751521641446491,18.10132944216799
-0.0882,0.9723,0.0233,-0.5468,0.1538,0.0395,-0.4725,11.5062,-10.5962,1.8177555423023488,-5.789359393202128,3.5867922452168504,18.10253876595886
-0.2201,0.963,0.0173,-0.0654,0.2125,0.1794,-1.645,2.5288,-13.2212,1.489117982115419,-10.232646598176542,34.36370614199388,18.104501218525552
-0.2237,0.9586,0.0126,-0.0667,0.2133,0.1802,-0.98,2.3975,-0.2201,1.0623887558079186,-12.949427967561688,46.85704634215873,18.106594619234652
-0.2237,0.9586,0.0126,-0.0667,0.2133,0.1802,-0.98,2.3975,-13.65,0.8830562513564316,-13.052377878869764,52.5397222261107,18.10780535868112
-0.2259,0.96,0.0118,-0.0647,0.2121,0.1754,-0.07,2.45,-14.1925,0.7585886818051383,-13.13064125912813,55.038635937277334,18.109013974644192
-0.2258,0.9676,0.0195,-0.0647,0.2121,0.1754,0.35,1.6275,-14.9625,1.0477890030004144,-13.13076746774756,55.56460048915649,18.11021905146828
-0.2283,0.9841,0.0032,-0.064,0.2122,0.1773,0.2538,1.0937,-14.8925,0.4247247867913971,-13.129934701869638,55.79504604600977,18.11146058142391
-0.2232,0.9905,0.001,-0.064,0.2122,0.1773,0.5425,0.9713,-14.7262,0.1518677268867465,-13.064701736896406,56.27046439668094,18.11269397135987
-0.2157,0.9899,0.0032,-0.0662,0.2118,0.1765,-0.5425,0.4638,-14.84,0.1733783040427072,-13.01787881619997,56.999742333147594,18.11390577254803
-0.2122,0.9805,0.0022,-0.0662,0.2118,0.1782,-2.2838,0.7088,-14.14,0.1702225036528255,-12.668531409049027,57.44111128195725,18.115101293696863
-0.2211,0.9692,0.0113,-0.0654,0.2114,0.1782,-2.695,0.91,-13.4575,0.29525756531394176,-12.775792797850688,57.491417469696174,18.11630990965994
-0.2367,0.9611,0.0174,-0.0648,0.2113,0.179,-2.695,0.875,-14.9275,0.48162448985909206,-12.799511076179133,57.34488182060728,18.1175217108481
-0.233,0.9694,0.0115,-0.0648,0.2113,0.179,-2.1438,-1.2425,-15.4612,0.5167687817062613,-13.055020969353471,57.38207753833245,18.118733865950155
-0.2355,0.9727,0.0081,-0.0653,0.2125,0.1766,-1.2687,-1.7762,-16.2663,0.49607795395520193,-13.374731495003532,57.04775568936691,18.11995132976069
-0.2321,0.9758,0.0056,-0.0653,0.2125,0.1766,-1.1987,-2.2225,-16.0912,0.40621871723654795,-13.37722108579459,57.18163131290089,18.12117834924648
-0.2155,0.9754,-0.002,-0.065,0.212,0.1778,-0.6125,-2.3712,-16.5987,0.07316004051211192,-12.799495209192967,58.22910624294368,18.12240572264617
-0.2111,0.972,-0.009,-0.0682,0.2119,0.1777,-1.3912,-1.6975,-15.8112,-0.22381611807218402,-12.539513696292488,58.2288157474413,18.123641943893322
-0.2006,0.969,-0.0109,-0.0682,0.2119,0.1777,-1.3562,-1.0237,-14.6562,-0.43449714784167165,-12.371559290304772,58.57876007406691,18.124881704279456
-0.1922,0.9575,-0.0029,-0.0658,0.2124,0.1823,-1.68,-0.1225,-14.525,-0.32891090992247707,-12.090539969398815,59.309859228601766,18.126124295976776
-0.1884,0.9569,-0.0071,-0.0656,0.2106,0.1762,-2.4237,1.0587,-13.51,-0.3347110483965401,-11.535771792661404,59.33073734500275,18.127328311059173
-0.1943,0.9515,-0.0046,-0.0656,0.2106,0.1762,-1.295,2.1088,-13.8512,-0.30494966297201087,-11.538563560002714,59.20082134534226,18.12855993142564
-0.2061,0.9629,-0.0046,-0.0674,0.2106,0.1775,-0.3763,2.7738,-14.6737,-0.2841839403513167,-11.64034168949935,58.712310173652405,18.12978730482533
-0.2067,0.9739,-0.006,-0.0674,0.2106,0.1775,-0.5338,2.905,-13.335,-0.32863586763319785,-11.84927694016342,58.59883085092008,18.131011139086038
-0.2049,0.9777,-0.0095,-0.0646,0.2101,0.1767,-1.5662,3.4038,-12.8275,-0.42953055813348096,-11.840199410034574,59.10703557951465,18.132232495949456
-0.2015,0.98,-0.0091,-0.0659,0.2087,0.1769,-2.485,3.99,-13.1862,-0.440955007082489,-11.699929475100745,59.237625472528485,18.133455622382364
-0.2073,0.9806,-0.0083,-0.0659,0.2087,0.1769,-3.8588,4.1912,-13.195,-0.4673477837619029,-11.84902192690261,59.06339699859892,18.134665300087132
-0.2106,0.9829,-0.0035,-0.0684,0.2097,0.1761,-4.6463,3.6575,-14.5162,-0.28413999936656154,-11.917405097980588,58.277894312552796,18.135872854308513
-0.2111,0.9747,-0.0011,-0.0684,0.2097,0.1761,-5.5037,2.975,-15.6012,-0.1176222574462717,-12.041791454798526,57.94975272774865,18.137097396397014
-0.2181,0.9668,0.0062,-0.0668,0.2102,0.1781,-5.6613,2.905,-15.505,0.2546713745125599,-12.293340243069355,57.80209979124453,18.144801394137627
-0.2256,0.96,0.0162,-0.0666,0.2106,0.1813,-5.915,2.45,-15.9162,0.8104558464694581,-12.760727091261838,57.57329113348248,18.15701673234129
-0.231,0.96,0.0191,-0.0666,0.2106,0.1813,-5.5475,2.3712,-16.5112,1.0611568926580153,-13.233036535389648,57.282026457823534,18.169272770643268
-0.222,0.9676,0.0106,-0.0675,0.2102,0.1767,-4.41,1.12,-17.5438,0.7697598644713789,-13.006881607397089,57.261788746419874,18.18150297323066
-0.2235,0.9682,0.013,-0.0675,0.2102,0.1767,-3.8413,0.4987,-17.3775,0.7694631701230616,-13.000112140243179,57.090304115728706,18.19399967298356
-0.222,0.969,0.0032,-0.0673,0.2088,0.1756,-3.78,0.3588,-16.555,0.4289394774012048,-12.94015647606855,57.178848167822935,18.20609220306447
-0.2184,0.9707,0.0011,-0.0673,0.2102,0.1746,-3.9463,0.5775,-16.4675,0.20564894148245882,-12.78147903376399,57.23387004813983,18.21540509338726
-0.2104,0.975,0.0044,-0.0666,0.2102,0.1746,-3.64,0.175,-15.7587,0.23536019756163185,-12.503145856861867,57.4900440047166,18.227563097539377
-0.2081,0.9697,0.0066,-0.0668,0.2106,0.1792,-3.0713,0.8575,-15.4088,0.2996445081603145,-12.371973004535516,57.69814789034073,18.240141551402807
-0.2038,0.9595,0.0145,-0.0668,0.2106,0.1792,-3.465,1.6187,-14.7,0.5968958121048734,-12.307142872367193,57.80983695077041,18.251831681381226
-0.2151,0.9581,0.0132,-0.0698,0.2102,0.1832,-3.1675,2.3275,-13.9562,0.6828923950995998,-12.475158731896869,57.66486096708445,18.26387041654958
-0.2123,0.9618,0.0121,-0.0698,0.2102,0.1832,-1.7762,1.715,-14.2537,0.6968496449918086,-12.463844269209844,57.69048489724997,18.276057795555264
-0.2132,0.9697,0.008,-0.0685,0.21,0.1827,-1.2687,2.065,-14.4637,0.5798939557751452,-12.444143903908886,57.91464078223661,18.288302862526393
-0.2191,0.9801,0.0002,-0.0693,0.2108,0.1775,-1.75,1.995,-14.525,0.3647128269802425,-12.487356782158137,57.672429750750965,18.29744056546947
-0.2057,0.9838,-0.0021,-0.0693,0.2108,0.1775,-2.1525,2.17,-14.2012,0.2811759030688417,-12.207516991365098,57.86773552385433,18.309616973144305
-0.2011,0.9808,-0.0019,-0.0678,0.209,0.1784,-2.6425,2.9575,-14.1575,0.19468257853775442,-11.94223115686323,58.456036446905664,18.32177108424354
-0.1998,0.9748,-0.006,-0.0678,0.209,0.1784,-3.2725,3.4038,-14.2362,-0.06653503347328653,-11.798318277227734,58.798359458657956,18.33395350845465
-0.1952,0.968,0.003,-0.0687,0.2093,0.1786,-3.57,3.7362,-14.5513,0.06713756986394967,-11.694578381139571,58.621580641942884,18.346074351647434
-0.1978,0.9706,0.0022,-0.0676,0.21,0.1784,-4.5675,4.2875,-14.7875,0.11031380892520393,-11.676140713508007,58.667656510487326,18.358225277521584
-0.2148,0.9764,0.0152,-0.0676,0.21,0.1784,-3.9025,5.005,-15.5837,0.5845308930030815,-11.971141730450016,57.71168324053131,18.370511044591026
-0.2156,0.9744,0.0101,-0.0668,0.2107,0.1781,-3.8063,4.6725,-15.4,0.5900528998323118,-12.138352347767604,57.71479306480485,18.382441482106465
-0.2173,0.9758,0.0107,-0.0668,0.2107,0.1781,-3.325,4.6287,-15.8638,0.6088127417910445,-12.341639658631497,57.64965749980221,18.39451383909517
-0.2094,0.9733,0.0079,-0.0676,0.2106,0.1823,-4.2263,4.3838,-15.4962,0.5151938829426522,-12.267205897261215,58.29159814454486,18.40383345378203
-0.2123,0.9686,0.0118,-0.0656,0.2091,0.1762,-4.1475,4.0513,-15.4,0.6324128585716313,-12.298556782468212,57.93573156908573,18.415974470067024
-0.2137,0.963,0.0195,-0.0656,0.2091,0.1762,-3.6925,4.2613,-15.68,0.933875633710709,-12.39060707679133,57.50647347869299,18.428024530480126
-0.2247,0.9642,0.0171,-0.0682,0.2103,0.1774,-3.4388,3.8675,-16.0387,0.9765180768437399,-12.77623429542861,56.788019348583944,18.440227127783444
-0.2302,0.9737,0.0127,-0.0682,0.2103,0.1774,-3.1412,3.71,-16.2663,0.8759404551405735,-13.078470008740698,56.633201921520616,18.452329213539613
-0.2299,0.9788,0.0145,-0.068,0.211,0.1794,-3.605,2.73,-16.7125,0.8608429618152346,-13.167411223505848,56.77478233091652,18.464470583738507
-0.2265,0.9743,0.0127,-0.0684,0.2097,0.1777,-3.4913,1.4,-16.5375,0.8003014755846518,-13.117092967696378,56.773680880061676,18.47652524503229
-0.2317,0.9722,0.0187,-0.0684,0.2097,0.1777,-3.2987,0.8838,-16.9575,0.9463851771615882,-13.30907458553945,56.65319106241535,18.485805575276423
-0.2244,0.9623,0.0187,-0.0677,0.21,0.1772,-3.3338,0.1663,-17.0012,1.0287378129721163,-13.183707341723528,56.59605118916601,18.497945175905823
-0.2191,0.9582,0.0175,-0.0677,0.21,0.1772,-3.0188,0.455,-17.0888,1.0357156473772737,-12.973755259374103,56.67462406993266,18.51006354170132
-0.2115,0.9611,0.0159,-0.0678,0.2102,0.1754,-2.4413,0.28,-16.17,1.029070238017915,-12.658331047961822,56.78886704736332,18.522126696928662
-0.2082,0.9686,0.0128,-0.0661,0.2101,0.1749,-2.7738,0.2013,-15.7062,0.9494108652459967,-12.423286039362074,57.19025816134448,18.534279746286202
-0.2112,0.9687,0.0154,-0.0661,0.2101,0.1749,-2.7562,0.9363,-14.3325,0.9384418760197348,-12.377654121951565,57.223220172337186,18.546455446133244
-0.2147,0.9738,0.011,-0.067,0.2093,0.1766,-3.1763,0.8575,-13.7112,0.8075009105331767,-12.407596613048389,57.298278667656945,18.558535943141607
-0.2137,0.9781,0.0151,-0.067,0.2093,0.1766,-4.2088,0.56,-13.8075,0.8574545704432311,-12.363425871399343,57.35240040806048,18.57058564964081
-0.2117,0.9794,0.0135,-0.0668,0.2098,0.1784,-4.8125,0.2362,-13.1862,0.8093307858360242,-12.257509098639149,57.61604659284471,18.57988792254665
-0.2128,0.982,0.014,-0.067,0.21,0.1817,-5.2588,0.0,-13.4488,0.8148761042160386,-12.23869751183099,57.97188071874895,18.592055482374025
-0.2162,0.9789,0.022,-0.067,0.21,0.1817,-5.8538,-0.4725,-13.7375,1.1823074963587357,-12.353232082700286,57.84275362893744,18.604168185547145
-0.2207,0.9719,0.0298,-0.0686,0.2114,0.1787,-5.9763,-1.0762,-14.7,1.6319167355606026,-12.427065179628658,56.75830374252299,18.61639166377047
-0.2257,0.9705,0.0386,-0.0686,0.2114,0.1787,-5.9063,-1.2775,-15.3737,2.1356235176434386,-12.636217777949675,55.977364735417765,18.628532680055464
-0.228,0.9683,0.0424,-0.0661,0.2092,0.1823,-5.67,-2.2138,-15.7412,2.421050775152828,-12.910126504308973,56.46370004279638,18.64075120348421
-0.2258,0.9689,0.0323,-0.0688,0.2088,0.1771,-5.3725,-2.66,-15.75,2.0368616155749146,-13.002368594471411,55.91429462707343,18.652918763311586
-0.2227,0.9679,0.0362,-0.0688,0.2088,0.1771,-4.6112,-3.5525,-16.3187,2.1095940655030376,-12.970921018476803,55.75886509382251,18.665110035370155
-0.2144,0.9683,0.0298,-0.0699,0.211,0.1814,-4.3575,-3.8325,-15.9162,1.8784466437978358,-12.723647862096975,56.507849608410496,18.677231586390736
-0.2157,0.9642,0.0303,-0.0699,0.211,0.1814,-4.2088,-3.7713,-15.8025,1.827485850572619,-12.66700494322801,56.52824477202527,18.686516163601652
-0.2147,0.9564,0.0301,-0.0682,0.2123,0.1834,-3.9113,-3.5963,-15.1287,1.8123697639252143,-12.66322849052048,57.00185164709825,18.698710974799205
-0.2023,0.9544,0.0295,-0.0702,0.2098,0.1824,-2.9925,-3.4738,-15.1462,1.796108895378842,-12.526769004581302,57.166722015673784,18.71090613991066
-0.1878,0.9509,0.0301,-0.0702,0.2098,0.1824,-2.0213,-2.6163,-15.2075,1.8003902589148146,-12.210503010215914,57.67358164414651,18.723064497976672
-0.1889,0.9523,0.0231,-0.0704,0.2083,0.1831,-0.9538,-1.715,-14.5687,1.5603276494892606,-11.96057875236326,58.05456268009334,18.735218609075908
-0.1886,0.9641,0.0168,-0.0704,0.2083,0.1831,-0.7613,-0.8838,-14.6212,1.2146175382970794,-11.763270443000755,58.399657921824556,18.747394662836847
-0.1879,0.9723,0.0145,-0.0708,0.2105,0.185,-0.1312,-0.0175,-14.6475,0.9659755458776653,-11.59421709217899,58.63925497618847,18.75964043763577
-0.1914,0.9869,0.0035,-0.0709,0.2089,0.1809,0.5425,0.4812,-14.84,0.398678338788846,-11.556706210935511,58.668511230789406,18.77167563366514
-0.197,0.9966,-0.0016,-0.0709,0.2089,0.1809,-0.5163,1.2512,-15.6187,0.08058618526012912,-11.400434961057162,58.672194146290906,18.783823020400305
-0.1973,0.9841,0.004,-0.0696,0.2097,0.1808,-1.9425,1.9337,-15.8287,0.1254083477581592,-11.369828712071458,58.66440550718313,18.795894315647313
-0.2008,0.9691,0.0099,-0.0696,0.2097,0.1808,-3.15,2.38,-15.365,0.3284403936778949,-11.475685469402404,58.37497746383861,18.805201897261625
-0.1995,0.9624,0.0187,-0.0704,0.2103,0.1832,-3.5963,2.1175,-15.505,0.7623258626940163,-11.563245115870501,58.148526138187506,18.817277793389312
-0.1985,0.9601,0.0288,-0.0712,0.2078,0.1781,-3.6138,2.1963,-15.1812,1.294157893367677,-11.587715555466376,57.425416822737354,18.829481452434326
-0.2048,0.9625,0.0206,-0.0712,0.2078,0.1781,-2.17,2.6425,-15.0937,1.28331214272475,-11.654809414394022,57.048641956112796,18.841577167740322
-0.2059,0.9758,0.022,-0.0694,0.2093,0.1817,-1.6362,2.7037,-15.9512,1.2867694707419843,-11.786361872126468,57.4278486118403,18.85370190398599
-0.2028,0.9801,0.0155,-0.0694,0.2093,0.1817,-1.89,2.31,-15.9075,1.1651206051910719,-11.737663280311683,57.7916057383,18.865838319390306
-0.205,0.9792,0.0218,-0.0704,0.2095,0.1808,-1.855,2.1088,-16.4675,1.2020920793044898,-11.788794702227845,57.60242858520015,18.877972965225126
-0.2033,0.9779,0.024,-0.0704,0.2095,0.2013,-2.9575,2.415,-16.0037,1.2783546369856746,-11.763638013260595,58.99861224764902,18.887322662593352
-0.2047,0.9703,0.0276,-0.0713,0.2099,0.1868,-2.9925,2.8263,-16.3537,1.414397064968893,-11.849104865953445,58.21028860082212,18.899276812339988
-0.2137,0.9618,0.0255,-0.0711,0.2103,0.1819,-1.8987,3.4125,-15.6012,1.447305574770047,-12.12566461374014,57.13035719492789,18.910993839774683
-0.2076,0.9634,0.0294,-0.0711,0.2103,0.1819,-1.2775,3.045,-15.33,1.6035502362669165,-12.134434344690357,56.893083230646994,18.923204931011565
-0.2075,0.9646,0.0179,-0.0707,0.2098,0.1842,-0.7962,2.8612,-15.1112,1.2739447655415717,-12.135071381099007,57.399818454175424,18.93539018653386
-0.2094,0.9706,0.0229,-0.0707,0.2098,0.1842,-0.3063,3.0188,-16.2663,1.326143446690178,-12.155942288976108,57.452071698706085,18.947579335109037
-0.2091,0.9668,0.0215,-0.0707,0.2096,0.1834,-0.2538,2.7738,-15.6975,1.2907564430371978,-12.175896784862358,57.42421936723021,18.959783701981845
-0.2159,0.965,0.0209,-0.069,0.2074,0.1807,0.1312,3.0013,-15.1637,1.2550539017697797,-12.264883966791588,57.29185037406531,18.96851511176955
-0.22,0.9572,0.0295,-0.069,0.2074,0.1807,0.28,2.7562,-14.9012,1.625063572934501,-12.267135921606933,56.86663376902747,18.98071240036439
-0.2189,0.957,0.0282,-0.0705,0.2092,0.1797,0.6737,1.9687,-14.3762,1.6722836461318862,-12.478499468272924,56.5378366053897,18.992862264496843
-0.2143,0.9636,0.0232,-0.0705,0.2092,0.1797,1.575,1.61,-13.1862,1.438601087949175,-12.514046656455236,56.55512191285494,19.005034071291
-0.2144,0.9759,0.0112,-0.0707,0.2099,0.1746,1.6625,0.4725,-13.65,0.8130594323012258,-12.444986272937815,56.47806222901795,19.01722746683296
-0.2106,0.985,0.0089,-0.0696,0.2071,0.1786,2.1088,0.1663,-13.0113,0.5716993891934262,-12.198336210043971,57.101468910178376,19.029353264820323
-0.2075,0.9803,-0.006,-0.0696,0.2071,0.1786,1.2862,0.2625,-13.0637,-0.1521360591490257,-12.038172626040469,57.718622805579585,19.038123605136846
-0.2004,0.9814,0.004,-0.0706,0.2082,0.1767,0.5425,-0.2187,-14.035,0.13468961202115318,-11.806899378490371,57.73463875281383,19.050400170444934
-0.1988,0.969,0.0101,-0.0706,0.2082,0.1767,0.2275,0.245,-13.4663,0.4682456125132755,-11.68090837715615,57.598846394575574,19.063022509631768
-0.2018,0.9695,0.0127,-0.0719,0.2062,0.1775,0.385,0.2975,-13.9212,0.6751262585499928,-11.718714233172994,57.38371035072516,19.07506336828351
-0.1985,0.9639,0.0108,-0.0708,0.2061,0.1789,0.6563,-0.315,-14.9012,0.6502058303389672,-11.718436736900992,57.61808382411569,19.087228450713596
-0.2008,0.9666,0.0078,-0.0708,0.2061,0.1789,0.6737,-0.84,-15.5137,0.5089189989078234,-11.724800621016913,57.75216231291335,19.099295145079925
-0.2018,0.9785,-0.0001,-0.0729,0.2086,0.1785,1.5137,-0.8838,-16.3887,0.09977738525010256,-11.681881435611087,57.613142894626776,19.111481462343914
-0.1909,0.9827,-0.0043,-0.0729,0.2086,0.1785,0.9363,-1.2075,-17.2812,-0.16912050945693796,-11.197220738647527,58.03552303739815,19.123582486358387
-0.2012,0.9797,-0.0085,-0.0742,0.2064,0.181,0.0,-0.6125,-16.4325,-0.3994687568345358,-11.443684493709128,58.060639718456,19.13307268754428
-0.2123,0.9805,-0.0016,-0.0742,0.2086,0.1794,0.1575,-0.6563,-16.0737,-0.18049343253884345,-11.860600154857758,57.38946523234083,19.14523918562996
-0.2119,0.9783,0.0043,-0.0711,0.2086,0.1794,-0.7613,-0.8225,-16.5987,0.08544237993894328,-12.087462302376553,57.44686662341663,19.157369584498003
-0.2105,0.9756,0.0021,-0.0719,0.2068,0.1759,-0.5075,-0.7788,-16.5462,0.11004575158693113,-12.142311188339704,57.144383256705545,19.16955200870911
-0.2057,0.9715,-0.0031,-0.0719,0.2068,0.1759,-0.56,-1.2512,-15.6887,-0.07821239946136369,-12.059927295958781,57.30193095159584,19.181776194760232
-0.2084,0.978,-0.0036,-0.0726,0.2074,0.1782,-0.42,-1.1375,-15.7937,-0.16576361036025736,-12.045393230961494,57.42770914112414,19.19393915370693
-0.2012,0.9756,-0.0049,-0.0734,0.2076,0.1736,-0.8663,-0.6212,-15.6538,-0.23883427145661845,-11.877198299636117,57.117636184496696,19.20614812146042
-0.1901,0.9723,-0.0046,-0.0734,0.2076,0.1736,-2.135,-0.0788,-15.1112,-0.24474476028472886,-11.737687059939223,57.26770469834638,19.21839035712036
-0.1911,0.9675,0.0061,-0.0726,0.2072,0.1785,-2.6688,0.5775,-14.3238,-0.10160596663245629,-11.530221482424706,57.470997293814996,19.230735581724737
-0.1961,0.962,0.0088,-0.0726,0.2072,0.1785,-2.5638,1.085,-14.7525,0.004522807550526503,-11.529030554113834,57.46592192523886,19.242623903486265
-0.1979,0.9634,0.003,-0.0736,0.2088,0.1772,-1.89,1.295,-15.6187,0.060084711492779545,-11.561959974362148,57.433776959954145,19.25461981507291
-0.1915,0.9684,0.0018,-0.0716,0.2042,0.1776,-1.4962,1.4612,-15.8725,0.08158919299920102,-11.376963568797894,57.59120786604905,19.26406400745201
-0.1803,0.97,0.0024,-0.0716,0.2042,0.1776,-1.5662,1.505,-16.065,0.10820875763600037,-10.921884737454734,57.84457291586908,19.27623050553769
-0.1887,0.9717,-0.0023,-0.0718,0.2062,0.1773,-2.3275,2.5113,-16.4587,0.10063862176839045,-10.96319733004752,58.11522101976044,19.288355949611155
-0.1946,0.9775,0.001,-0.0718,0.2062,0.1773,-1.6625,3.255,-17.78,0.08337769556822815,-11.182816184884834,58.02891633072287,19.300432907480538
-0.2019,0.9804,-0.0007,-0.0723,0.2064,0.1762,-1.6975,3.7275,-18.4975,0.033870574354213166,-11.537799159937146,57.63754754646446,19.31263019607538
-0.2078,0.986,-0.0037,-0.0706,0.2066,0.1802,-2.3975,3.4388,-18.9,0.024769281495664673,-11.828194504151966,58.1310648663316,19.32477616715495
-0.1997,0.9781,-0.0005,-0.0706,0.2066,0.1802,-2.6075,3.8413,-18.235,0.014028324216841345,-11.606207908521064,58.40000209183436,19.33695576005487
-0.2022,0.9613,0.0018,-0.0714,0.2071,0.1763,-3.0625,4.6813,-18.3225,0.0525230787155065,-11.816808274440987,57.611038994528286,19.349015376143228
-0.2072,0.9687,0.0006,-0.0714,0.2071,0.1763,-2.345,5.0225,-18.9525,0.05227890888696911,-12.02252475310107,57.353333797748284,19.358479033786743
-0.2109,0.9739,-0.0002,-0.0704,0.2078,0.177,-2.065,4.9963,-19.075,0.03770696710315907,-12.180877186274461,57.471437289672856,19.370573333437147
-0.2108,0.982,-0.0034,-0.0697,0.2083,0.1755,-2.4063,4.5062,-19.005,0.027161310675450925,-12.128241525555342,57.586997573430295,19.38275681938995
-0.2156,0.9887,-0.0014,-0.0697,0.2083,0.1755,-2.66,4.5237,-18.7862,0.0021414824497543116,-12.266061260997768,57.44305731574942,19.394933580978684
-0.2035,0.9742,0.0045,-0.0682,0.2074,0.176,-3.3075,4.725,-18.2,0.12989269726641828,-11.907500252971033,57.88510698753581,19.406972670060938
-0.2014,0.9656,0.0075,-0.0682,0.2074,0.176,-4.9963,4.9525,-18.4538,0.3583681824741156,-11.808972450032499,57.89755703326745,19.419050689672012
-0.2187,0.9486,0.0122,-0.0694,0.2075,0.1728,-4.515,4.7075,-17.15,0.6169005959945472,-12.620332366337017,56.42291546725948,19.430969094114907
-0.2128,0.9547,0.0091,-0.0694,0.2083,0.1735,-3.3163,4.76,-17.0538,0.5822898408204655,-12.582642187506153,56.502489113360326,19.443200004530098
-0.205,0.9543,0.0062,-0.0689,0.2083,0.1735,-2.2662,4.7425,-16.3187,0.5643572521271383,-12.313757301430607,56.971734918137635,19.455263867585238
-0.2016,0.9679,-0.0097,-0.067,0.2091,0.1733,-2.1088,4.6463,-16.38,0.3361091153829768,-11.98674856437477,58.08379691592625,19.46419771612283
-0.2073,0.977,-0.0056,-0.067,0.2091,0.1733,-1.89,4.9963,-16.2838,0.123785923937461,-11.982356694034557,58.074137190840325,19.47639995951225
-0.2097,0.9721,-0.0026,-0.0674,0.2081,0.1686,-2.1088,5.1363,-16.485,0.06824842428663866,-12.099231928492946,57.25185600231098,19.488631577755235
-0.2123,0.9637,-0.0025,-0.0674,0.2089,0.1706,-2.2488,4.865,-16.59,0.04662499087475289,-12.302809849825229,57.14138957613935,19.500839129853134
-0.2156,0.9647,-0.0015,-0.0684,0.2089,0.1706,-2.2838,4.0862,-16.555,0.03706953495372813,-12.486594334267332,56.81673754440923,19.51304420455374
-0.2114,0.9711,-0.007,-0.068,0.2083,0.1732,-1.8288,4.1125,-16.3187,-0.1189792136342822,-12.366089205522035,57.46650777145933,19.52527016017435
-0.2064,0.971,-0.0125,-0.068,0.2083,0.1732,-1.365,4.1125,-16.0737,-0.42741652902958366,-12.168481613291888,57.95812526536157,19.537507087125814
-0.2046,0.9762,-0.0147,-0.0679,0.2091,0.1736,-2.0738,3.5088,-15.68,-0.5241572582100156,-12.023212416068342,58.25345317438189,19.549728795779647
-0.209,0.9722,-0.0117,-0.0658,0.2114,0.1749,-2.6863,3.0538,-15.8725,-0.564877450043575,-12.076588387870935,58.477342921725416,19.56192962351347
-0.2065,0.9634,-0.0099,-0.0658,0.2114,0.1749,-3.7538,2.9663,-16.695,-0.5787831795402711,-12.089933076717594,58.52798798656665,19.574117356433057
-0.2092,0.9701,-0.0102,-0.0649,0.2081,0.1718,-3.8763,2.0738,-17.5788,-0.5930206316577706,-12.147264657228407,58.48031693956228,19.586298011074675
-0.2133,0.9872,-0.0193,-0.0649,0.2081,0.1718,-4.62,0.945,-18.4888,-0.9583751873356658,-12.180651767833243,58.53681833693032,19.59524813965159
-0.2147,0.9964,-0.0256,-0.0658,0.208,0.1727,-6.3787,-0.3675,-19.0662,-1.3694650506207202,-12.160806253642235,58.78615178437283,19.607467370908136
-0.2195,1.005,-0.0314,-0.0654,0.2109,0.1731,-7.3063,-0.4375,-19.7138,-1.7189128557739095,-12.288091113669761,58.950145725158436,19.619738273593846
-0.2195,0.9936,-0.0209,-0.0654,0.2109,0.1731,-8.575,-1.4175,-20.1163,-1.2762388077407985,-12.4278636135028,58.66188276917053,19.631987233617856
-0.2294,0.9876,-0.0111,-0.0632,0.212,0.1748,-9.4762,-2.555,-20.6937,-0.7218424663493601,-12.98052577472569,58.44014524925453,19.644247872800513
-0.2391,0.9764,-0.0021,-0.0632,0.212,0.1748,-10.7625,-3.325,-20.5625,-0.18689139300707078,-13.64270273851815,57.65666729796645,19.656603006994047
-0.2187,0.9694,0.0021,-0.0654,0.2121,0.18,-10.1062,-3.8675,-20.9125,0.0885613651167221,-12.845887353056003,58.25702143172657,19.66876879725193
-0.2224,0.9579,-0.0038,-0.0626,0.2114,0.1773,-9.3712,-4.0687,-21.0175,-0.18786760967220972,-13.039301409267903,58.56638256959035,19.681000415494918
-0.2162,0.9531,0.0045,-0.0626,0.2114,0.1773,-9.38,-4.8913,-20.6413,0.21336446875240722,-12.818900696367585,58.517050435314815,19.693224247632138
-0.2027,0.9498,0.0003,-0.063,0.2134,0.179,-8.96,-4.795,-19.74,0.04378872505858884,-12.179244473308751,59.2040118699012,19.705482763331407
-0.1939,0.9553,0.0028,-0.063,0.2134,0.179,-8.4263,-3.8238,-18.34,0.1503668346971284,-11.632671388530333,59.60553359712158,19.71764324488081
-0.1898,0.9551,-0.001,-0.0626,0.2148,0.1772,-7.805,-2.7738,-18.6812,-0.027352944399950965,-11.321840610460773,59.76736344158049,19.729929719778053
-0.1961,0.9587,-0.0048,-0.065,0.2159,0.1811,-7.8575,-2.66,-19.3375,-0.24692749374439663,-11.516261889204424,59.65653654114307,19.74222150338377
-0.2076,0.9709,-0.01,-0.065,0.2159,0.1811,-8.6275,-2.2488,-20.2125,-0.5428912068645888,-11.981158258171554,59.47547974430037,19.754422685031493
-0.205,0.9681,-0.005,-0.0624,0.2154,0.1826,-8.7062,-2.3888,-20.9737,-0.3295334177089677,-11.959469815182194,59.994231113378945,19.76665748849957
-0.2037,0.9819,-0.0075,-0.0624,0.2154,0.1826,-8.9775,-2.4588,-21.7612,-0.4234412609733036,-11.750229480295378,60.330485546281665,19.778892645881538
-0.2087,0.983,-0.011,-0.0614,0.2173,0.1838,-9.8787,-2.7213,-22.1725,-0.6155739922827541,-11.95723203969852,60.57720945686087,19.791124264124527
-0.2098,0.9858,-0.0111,-0.0642,0.2182,0.1844,-10.7975,-2.59,-22.5312,-0.6419867110319091,-12.007255800281438,60.13844348535596,19.80339941377702
-0.2041,0.9852,-0.012,-0.0642,0.2182,0.1844,-11.305,-2.6775,-22.1987,-0.6922271334944359,-11.739975102945667,60.270695802083445,19.81238670331327
-0.21,0.9822,-0.0138,-0.0619,0.2186,0.1902,-11.9525,-2.8438,-23.0912,-0.7943159312619236,-12.031674246454894,61.12018757250256,19.824661499051864
-0.2168,0.9837,-0.0102,-0.0592,0.2201,0.1901,-15.0675,-3.5,-24.0625,-0.6086868160877232,-12.389176715391859,61.37541823304942,19.836934171307067
-0.2161,0.9814,-0.0044,-0.0592,0.2201,0.1901,-15.61,-4.0775,-24.1763,-0.28156523329745337,-12.415183954398927,61.24494922564118,19.84921781489312
-0.2377,0.9704,0.0179,-0.0603,0.2239,0.1905,-16.6075,-4.4538,-24.0187,0.9689875322992609,-13.628275210205057,59.20453595548214,19.861479869731372
-0.2375,0.9668,0.0207,-0.0603,0.2239,0.1905,-16.6513,-4.9263,-24.5788,1.2097192604705822,-13.782733196368737,58.76352978343042,19.873714673199444
-0.2364,0.9647,0.0249,-0.0587,0.225,0.1906,-16.2575,-5.1188,-24.7012,1.4604965212093801,-13.76628694992118,58.82940636217731,19.88594381404514
-0.2416,0.9621,0.0285,-0.059,0.226,0.1942,-16.8962,-4.8038,-23.8175,1.6815527094344953,-14.057835802398587,58.78234802270362,19.898212593247464
-0.2327,0.9533,0.0339,-0.059,0.226,0.1942,-16.2663,-4.4625,-23.8612,2.012799774953968,-13.74428393155605,58.83401481763705,19.910471462860627
-0.2311,0.9534,0.0368,-0.0589,0.2258,0.1957,-16.2313,-4.6988,-23.4062,2.1971552669878625,-13.629220022729733,59.001131830105585,19.92276006124126
-0.2252,0.9478,0.0412,-0.0589,0.2258,0.1957,-16.555,-4.795,-22.7763,2.469820340239969,-13.384702349575418,59.0416115994541,19.934930452379824
-0.2255,0.9431,0.0418,-0.0601,0.2285,0.1989,-15.6275,-4.27,-23.24,2.533033531295659,-13.429192987434524,58.964335158699654,19.947225775124526
-0.2177,0.9461,0.0386,-0.0558,0.231,0.2015,-15.0325,-4.2875,-23.8525,2.3507059089398497,-12.996312779709475,60.38639792093673,19.95944394463937
-0.2109,0.9462,0.0477,-0.0558,0.231,0.2015,-15.05,-3.5613,-23.9837,2.846864737484153,-12.594206239401398,60.57058092871355,19.9716667150349
-0.2201,0.9554,0.0465,-0.0556,0.2321,0.1958,-14.5862,-2.6338,-24.325,2.790997015065504,-12.923389684276653,59.76708847468474,19.983942572515186
-0.2279,0.9647,0.0451,-0.0556,0.2321,0.2029,-14.5162,-1.9512,-24.7537,2.685336703887445,-13.245162485118614,60.15185129450604,19.996194717764283
-0.2262,0.9733,0.0447,-0.0554,0.2341,0.2029,-14.98,-2.135,-25.5325,2.6336286184158317,-13.085317644856817,60.357637982189466,20.008464558708297
-0.2193,0.976,0.0389,-0.053,0.233,0.2064,-15.7937,-2.0825,-26.915,2.306737314122947,-12.687056408369616,61.65289153780822,20.0207156422157
-0.2187,0.9725,0.043,-0.053,0.233,0.2064,-16.625,-1.3125,-27.7287,2.516998442484696,-12.66390773068326,61.80859055559603,20.03293912043902
-0.2279,0.9672,0.0414,-0.053,0.2382,0.2018,-17.5263,-0.6737,-27.965,2.4550736165550635,-13.2055082486187,60.98577438376091,20.045175693476587
-0.2308,0.9622,0.0506,-0.0496,0.2398,0.2098,-19.6262,-0.665,-29.1025,2.979892278943647,-13.453150345505854,61.36903503863836,20.057427484811786
-0.2331,0.9569,0.0545,-0.0496,0.2398,0.2098,-20.1513,-0.3063,-30.5375,3.2448528060000323,-13.656245863326577,61.27615338722089,20.069706881431056
-0.2505,0.9575,0.0723,-0.0507,0.2422,0.2131,-20.405,-0.0613,-31.115,4.261805484119695,-14.565157522461108,60.3290861332567,20.078581272433716
-0.2594,0.9633,0.0652,-0.0507,0.2422,0.2131,-20.1863,0.7613,-31.675,3.892801497401098,-15.011785765428614,60.0903969305685,20.090816783729586
-0.2629,0.9628,0.0732,-0.048,0.2456,0.2199,-21.0963,0.4812,-31.1937,4.32468371757265,-15.218165533180674,60.12572091057257,20.10303176801935
-0.2592,0.9661,0.0714,-0.0467,0.2471,0.2174,-21.5775,0.5688,-31.2725,4.231624976589884,-14.993228223448451,60.22068845044156,20.115275065420985
-0.2597,0.9597,0.0818,-0.0467,0.2471,0.2174,-22.5225,0.7788,-31.6837,4.841577678386356,-15.084268166580252,60.087625160310004,20.1275006671277
-0.2695,0.9636,0.0758,-0.0438,0.2507,0.219,-23.6425,0.875,-31.1763,4.513242727506528,-15.550810498943447,60.10710650439608,20.14002107911179
-0.2682,0.9591,0.0853,-0.0438,0.2507,0.219,-24.815,1.0937,-31.3775,5.0581094836237375,-15.563741039074673,60.070160323458225,20.15191117044281
-0.2804,0.9545,0.0954,-0.0406,0.2555,0.2278,-25.6637,1.4437,-31.8237,5.680897171768957,-16.253405763332747,60.037174050363724,20.164111644262736
-0.2976,0.9539,0.1027,-0.0412,0.2581,0.2254,-26.5737,1.1025,-32.2175,6.126575692456463,-17.179845740512803,59.86244719549541,20.17634609381691
-0.2976,0.9434,0.1178,-0.0412,0.2581,0.2254,-26.5562,0.35,-32.2525,7.078212111112059,-17.370381928198945,58.57810674942294,20.188511530160895
-0.2974,0.9399,0.1211,-0.0393,0.2635,0.2267,-27.72,-0.8663,-32.6113,7.331743717639512,-17.42021806969314,57.47570900451115,20.20079057286627
-0.2981,0.9394,0.1272,-0.0393,0.2635,0.2267,-27.44,-1.6187,-33.2238,7.696716444454936,-17.454436358579926,56.809348550382985,20.21308200255809
-0.2975,0.9386,0.1251,-0.0376,0.2647,0.2328,-27.9212,-1.7937,-32.9525,7.595792644823588,-17.442496927839585,57.48276093360708,20.225300172072938
-0.3037,0.9389,0.1294,-0.0349,0.2678,0.2329,-28.7525,-2.0213,-33.005,7.837943380065813,-17.750257797855316,57.463633835218815,20.23417845612848
-0.3159,0.9269,0.1502,-0.0349,0.2678,0.2329,-29.4175,-2.8788,-33.5125,9.155809696257377,-18.551185741818585,55.77264426051014,20.246439095311136
-0.321,0.9173,0.1579,-0.0342,0.2719,0.235,-29.3738,-3.78,-34.1425,9.745113472103629,-19.004131302692137,54.645339313908835,20.258691948388027
-0.3176,0.9052,0.1692,-0.0342,0.2719,0.235,-28.4988,-4.3488,-34.1075,10.556508702191042,-19.027501626316496,53.746476697298974,20.27095329539848
-0.321,0.902,0.1718,-0.0315,0.2766,0.2385,-27.5012,-4.6813,-33.7487,10.775022771466926,-19.257000072306308,53.69917186994337,20.283181020588586
-0.3258,0.903,0.1797,-0.0304,0.2813,0.243,-26.215,-4.4625,-33.3375,11.235701642392865,-19.47493814004264,53.39506380997446,20.29543564323497
-0.3309,0.9253,0.1732,-0.0304,0.2813,0.243,-25.2787,-4.8825,-33.1712,10.628572658083149,-19.372624843932794,54.041415747276915,20.3077026528678
-0.3213,0.9155,0.1752,-0.028,0.2822,0.2479,-26.0837,-6.5363,-33.0225,10.82545563395187,-19.037593275202724,55.1352418577906,20.31990737365451
-0.3218,0.9123,0.1764,-0.0285,0.2874,0.2474,-25.9875,-6.3875,-32.9787,10.938723493653756,-19.098630859104112,54.52055088907113,20.332157041506314
-0.3224,0.9059,0.1808,-0.0285,0.2874,0.2474,-26.88,-7.1225,-34.055,11.273181060559033,-19.232321313935195,53.99617167137621,20.344428298105925
-0.3382,0.9103,0.1911,-0.027,0.2932,0.2522,-27.7812,-7.7438,-34.86,11.833923560826769,-19.945533825885956,53.00616315438917,20.356671949421457
-0.3293,0.9124,0.1988,-0.027,0.2932,0.2522,-28.6562,-8.225,-36.2687,12.275107450823805,-19.448100941823967,53.011282609886244,20.36892869555123
-0.3401,0.9126,0.2047,-0.0253,0.297,0.2556,-29.19,-8.575,-37.66,12.629233013039505,-19.96056977370814,52.4701090714342,20.381212339137285
-0.3578,0.9068,0.2159,-0.0247,0.3006,0.2642,-29.3913,-8.5925,-38.745,13.36499460171817,-20.957234415739933,51.46756103473458,20.393430508652134
-0.3501,0.9006,0.2195,-0.0247,0.3006,0.2642,-29.2425,-8.855,-39.8563,13.68551798172652,-20.701062032426467,51.352476642656825,20.405674159967667
-0.348,0.8766,0.2159,-0.0223,0.3062,0.2614,-29.4962,-8.9425,-39.4362,13.8307875553584,-21.065268385386332,50.343136262549194,20.417939046117105
-0.3493,0.8758,0.2258,-0.0223,0.3062,0.2614,-27.0375,-7.3587,-39.7163,14.432838349813334,-21.114857910598726,49.548121175378334,20.430189775710605
-0.3357,0.8594,0.2309,-0.0205,0.3112,0.2593,-28.0,-6.3,-38.2287,15.016089490532305,-20.68696028348789,48.808400916396145,20.44244439835699
-0.341,0.8571,0.2366,-0.0189,0.315,0.2693,-27.86,-5.3987,-37.7388,15.416319516428684,-20.96989611803354,49.097672684612824,20.454633900846066
-0.3652,0.8777,0.2528,-0.0189,0.315,0.2693,-27.7637,-4.5938,-37.0913,16.04307924836264,-21.757658385497084,47.67959907265918,20.463567041555862
-0.3701,0.8776,0.2555,-0.019,0.3226,0.2717,-27.5363,-4.3575,-37.7125,16.224900325758053,-22.031388639313427,46.62285651983755,20.47586130255887
-0.3801,0.8756,0.2649,-0.019,0.3226,0.2717,-27.4225,-4.2,-37.765,16.80911455382772,-22.54077574612557,45.31612072195299,20.48804301894218
-0.3942,0.8744,0.2764,-0.0171,0.3263,0.2721,-27.5363,-3.5788,-37.5812,17.513881336295853,-23.23046033874918,43.64708767567747,20.50032949383942
-0.4096,0.8638,0.2752,-0.0147,0.3318,0.2771,-26.6087,-4.2175,-37.275,17.665235075336845,-24.26749452273295,42.68117403525642,20.51260995220039
-0.408,0.8585,0.2775,-0.0147,0.3318,0.2771,-26.2413,-5.0662,-37.8525,17.902864326777493,-24.330234243926192,42.21653965031317,20.52484050870168
-0.4038,0.8549,0.2749,-0.0137,0.337,0.2782,-25.935,-4.6112,-37.4675,17.828757344700406,-24.21659602960602,42.10958727345758,20.53707177303077
-0.3991,0.8561,0.2653,-0.0131,0.3399,0.2866,-24.605,-4.8038,-37.7912,17.244159119329055,-24.01198261981511,43.83275943349443,20.549320025226983
-0.3902,0.8582,0.2635,-0.0131,0.3399,0.2866,-24.4913,-4.41,-37.4238,17.076070117587875,-23.514108786695015,44.703774673237405,20.561563676542516
-0.3843,0.8671,0.2655,-0.0106,0.3434,0.2851,-26.285,-3.5963,-36.7675,17.02630449592257,-22.990261449403345,45.17298653351644,20.573800957407876
-0.3899,0.8635,0.2679,-0.0106,0.3434,0.2851,-27.6325,-2.8,-36.505,17.228451843306857,-23.313451678386453,44.69770911782127,20.5860920331858
-0.3935,0.8658,0.2824,-0.0112,0.3502,0.2937,-29.0062,-2.38,-37.6775,18.034638333014456,-23.36632660351752,43.928874535541574,20.598315511409123
-0.4051,0.8612,0.2862,-0.0097,0.354,0.2898,-30.205,-2.0125,-38.4562,18.370961432351688,-24.027246543455497,42.26701910299998,20.610559870552454
-0.414,0.8558,0.3117,-0.0097,0.354,0.2898,-31.3512,-2.4237,-38.7975,19.95792774561352,-24.42729105999531,39.60648366782911,20.622810600145954
-0.4185,0.8366,0.3077,-0.0095,0.3602,0.2923,-32.2788,-2.38,-39.5237,20.185816052864833,-25.12142242577836,37.996387601224654,20.63506451496454
-0.4214,0.8278,0.3125,-0.0095,0.3602,0.2923,-32.6987,-2.8963,-40.4425,20.666026790760682,-25.453326983678142,36.76911666588502,20.647310997591262
-0.4252,0.8181,0.3118,-0.007,0.3642,0.2984,-32.6025,-2.9225,-41.125,20.856883802061393,-25.887580055659154,36.567761987764385,20.6595528793373
-0.4261,0.8227,0.3212,-0.0042,0.3694,0.2978,-33.005,-3.045,-41.5537,21.311908484099746,-25.76030875371982,35.72497215723579,20.671807501983686
-0.4466,0.8186,0.3387,-0.0042,0.3694,0.2978,-33.1975,-2.7037,-40.5563,22.440967124704258,-26.716254114095086,33.31562250776692,20.684070264649733
-0.4601,0.82,0.3497,-0.0044,0.3773,0.3015,-33.1362,-3.1937,-40.32,23.075845580554546,-27.277233450707534,31.23038346603326,20.692991726200884
-0.4754,0.8128,0.3597,-0.0044,0.3773,0.3015,-33.6437,-3.0625,-39.8475,23.846866472753092,-28.10715293760174,29.228848202098412,20.705188306967926
-0.4767,0.8065,0.3678,-0.0048,0.3854,0.3037,-33.495,-3.6837,-39.5412,24.494308674897116,-28.264466767728248,27.250126821974376,20.71745425485906
-0.462,0.7804,0.3714,-0.0031,0.3898,0.307,-32.5062,-3.64,-38.5438,25.419543051304768,-28.13255100507298,25.73057049303793,20.729724095803075
-0.4747,0.7818,0.3914,-0.0031,0.3898,0.307,-32.6287,-3.2725,-38.2988,26.556787418110712,-28.484566683324417,23.57129528283976,20.74196526972132
-0.4856,0.7732,0.4042,-0.0018,0.3938,0.306,-32.4538,-3.2288,-37.5725,27.565369017012433,-29.073306010184016,20.88129964038591,20.754200427103292
-0.4883,0.7699,0.4038,0.0006,0.3995,0.3077,-30.485,-3.3338,-38.01,27.67246982446314,-29.311418360797568,19.91858432993089,20.766424613154413
-0.5035,0.7595,0.4299,0.0006,0.3995,0.3077,-29.2337,-3.6925,-36.1813,29.44521064390471,-29.951696469203,16.59428708739605,20.77863570439129
-0.5449,0.7657,0.445,-0.0006,0.4041,0.3133,-24.9988,-4.1388,-36.4612,30.133368164895995,-31.529769128746864,14.662203976679583,20.790863783495297
-0.5407,0.7604,0.4383,-0.0006,0.4041,0.3133,-24.0713,-5.5913,-34.8862,29.967113424667573,-31.6304724472217,14.659247937885828,20.803113097433204
-0.5388,0.7673,0.4374,-0.0003,0.409,0.319,-22.6362,-6.6937,-34.8162,29.69858158538417,-31.396775710736783,15.471870167037173,20.815380814893828
-0.5316,0.7668,0.4409,0.0006,0.4133,0.3181,-22.4875,-6.79,-34.3087,29.888885580606402,-31.025191898602763,14.792356901296246,20.827600753978167
-0.5305,0.7702,0.4437,0.0006,0.4133,0.3181,-22.12,-6.5188,-32.375,29.942831999577393,-30.840577557750912,14.703437096889004,20.839821046976407
-0.5439,0.7525,0.4549,0.0006,0.4168,0.3188,-21.3062,-6.1863,-30.8612,31.093021839714012,-31.68594655921454,12.14271658242286,20.851987898975985
-0.5389,0.7516,0.4596,0.0006,0.4168,0.3188,-21.2187,-6.1863,-29.1637,31.427843441447234,-31.469380773007288,11.440454161833253,20.864207484146426
-0.5516,0.7279,0.4721,0.001,0.4183,0.322,-19.2062,-6.0988,-27.755,32.88034010064095,-32.37686076418597,8.937078435087724,20.873072319473827
-0.5504,0.7305,0.4722,0.0005,0.421,0.3221,-17.6225,-6.02,-26.1187,32.878981848564486,-32.32861347812863,8.517437439914634,20.885339329106657
-0.536,0.7209,0.4738,0.0005,0.421,0.3221,-16.17,-6.4837,-24.9112,33.284887172287085,-31.897187434425994,7.842945338585404,20.897603507428297
-0.5303,0.739,0.4627,-0.0034,0.4244,0.3251,-14.0437,-7.0963,-24.0538,32.148606068956006,-31.366432765677967,9.953470039594317,20.90977849944754
-0.5261,0.7419,0.4611,-0.0034,0.4244,0.3251,-12.25,-7.0788,-23.24,31.887827621803254,-31.09253804134051,10.560844042565147,20.92204550908037
-0.5247,0.7496,0.4637,-0.0018,0.4246,0.3222,-11.41,-6.4313,-22.855,31.755423148994144,-30.8012581680805,10.515894637794135,20.934328090924726
-0.5261,0.7399,0.4637,-0.0009,0.4282,0.3273,-10.3162,-6.0813,-22.4525,32.03988092034056,-31.0376431167875,10.234175411383347,20.946584837054502
-0.5205,0.7313,0.4659,-0.0009,0.4282,0.3273,-9.2662,-5.3463,-21.3762,32.44231816119506,-30.983742988250775,9.525063605770349,20.95875133514018
-0.5245,0.7294,0.4648,-0.0011,0.4274,0.3283,-7.7788,-4.6112,-20.7112,32.496719175004394,-31.19691148289846,9.578203794407578,20.97099180123063
-0.5214,0.7358,0.4552,-0.0011,0.4274,0.3283,-7.0788,-4.55,-20.2825,31.874667857894305,-31.093280517819167,10.849516487647506,20.983230851665482
-0.5198,0.7408,0.4571,-0.0025,0.4286,0.3262,-6.4663,-3.9025,-19.3375,31.71495492739045,-30.889364127915687,10.759043375299067,20.995425662863035
-0.5189,0.7493,0.4528,-0.0029,0.4285,0.3312,-5.04,-3.885,-18.2787,31.29946448637756,-30.708697503038938,12.291904747304345,21.007608087074143
-0.5068,0.7551,0.443,-0.0029,0.4285,0.3312,-5.5037,-3.64,-18.4188,30.616421310607155,-30.208720125904744,13.889792618472438,21.016487078957482
-0.4978,0.7483,0.4466,-0.0046,0.4287,0.3311,-5.7137,-2.9313,-17.9288,30.780620655509495,-29.85400880173131,13.512943048315144,21.02871869720047
-0.4972,0.7402,0.4444,-0.0046,0.4287,0.3311,-5.7663,-1.6013,-16.9487,30.934516630039315,-29.90989976825711,13.178942266493046,21.040984291177704
-0.4893,0.7365,0.4455,-0.0038,0.4326,0.3287,-4.9,-0.49,-16.4062,31.10294226684494,-29.733603976458767,12.42512612255431,21.053193258931195
-0.4879,0.7326,0.4512,-0.0035,0.4299,0.3298,-3.9638,0.8663,-15.4175,31.426657628223097,-29.673384030086936,12.227798661301845,21.065327904766015
-0.4935,0.7326,0.4446,-0.0035,0.4299,0.3298,-3.9725,1.3387,-15.5662,31.31928099471481,-29.7781992609294,12.227666481252038,21.07753120989713
-0.5015,0.7379,0.4491,-0.0035,0.431,0.3314,-3.4825,1.89,-16.1,31.322565561895154,-29.973968797467386,12.19111927208293,21.08971752716112
-0.5115,0.747,0.4469,-0.0035,0.431,0.3314,-3.43,2.4938,-16.73,31.099120628600126,-30.274347630851352,12.565401522874145,21.10191375401427
-0.5086,0.7502,0.441,-0.0052,0.4296,0.3243,-3.2987,2.2575,-16.4762,30.78418835766734,-30.292577337096994,12.63981204901088,21.114045568537904
-0.5109,0.7523,0.4397,-0.0042,0.4322,0.3308,-3.71,2.2575,-15.9075,30.508977896225016,-30.338242529479796,13.1883298557705,21.122923498679548
-0.5096,0.7501,0.4394,-0.0042,0.4322,0.3308,-3.29,2.8963,-16.0737,30.437791182027674,-30.360196256590733,13.449537911375021,21.135111231599133
-0.5001,0.7332,0.4397,-0.0039,0.431,0.331,-3.3338,3.255,-15.5137,30.691105922510655,-30.347141994235002,12.947023869889257,21.147312413246855
-0.5023,0.7335,0.4387,-0.0039,0.431,0.331,-2.45,3.5963,-14.8487,30.707047434549104,-30.352210240758378,12.834804340634735,21.159496960941354
-0.5034,0.7396,0.438,-0.0022,0.4314,0.3294,-2.485,3.8937,-15.015,30.69896333404637,-30.352503566798514,12.994954128385006,21.17164187027923
-0.4928,0.7454,0.4365,-0.004,0.431,0.3321,-3.1763,4.2962,-14.6737,30.543376159832427,-30.231024288438068,13.940062020936809,21.183864994588657
-0.4972,0.7536,0.4317,-0.004,0.431,0.3321,-1.8812,4.375,-13.7287,30.304867472807715,-29.992995638169965,14.93142865205052,21.196094843262152
-0.493,0.7471,0.4389,-0.0016,0.4305,0.3298,-3.4563,5.3638,-12.9237,30.371902837631968,-29.757394431058234,14.113340525175664,21.204906945418692
-0.4995,0.7413,0.4354,-0.0016,0.4305,0.3298,-3.4213,5.0487,-12.9937,30.400636778470833,-30.019752915806105,13.800571731694571,21.217042652995207
-0.5084,0.7418,0.438,-0.0021,0.4311,0.3247,-3.1675,5.18,-13.6675,30.471839634909788,-30.311576343553973,12.694169768676845,21.229263653821242
-0.506,0.7494,0.4386,-0.0019,0.4307,0.3284,-3.1412,4.6375,-13.79,30.413595578532064,-30.269096886535984,13.394767484347474,21.24147297548863
-0.5039,0.7483,0.433,-0.0019,0.4307,0.3284,-3.29,4.76,-14.4725,30.24104722981979,-30.25902217608796,13.970599038343261,21.253658231010927
-0.5097,0.747,0.4361,-0.003,0.4306,0.3285,-3.01,4.55,-15.5487,30.255004780806477,-30.3570393758909,13.678682369470254,21.265816235163044
-0.5091,0.7463,0.4351,-0.003,0.4306,0.3285,-3.0713,3.64,-15.5662,30.249843557463922,-30.418673354383547,13.66113062219474,21.278013523757885
-0.5118,0.7479,0.433,-0.0018,0.4298,0.3278,-3.8413,3.3425,-15.5137,30.141800356861783,-30.50056654275977,13.869233588067816,21.2901725896517
-0.5061,0.7503,0.4277,-0.0018,0.4298,0.3326,-3.3075,2.6163,-15.9337,29.91941049364433,-30.434645195773665,14.85058419761686,21.299047688482155
-0.4953,0.7506,0.4308,-0.0022,0.4286,0.3326,-3.5,2.4063,-15.7937,29.88417260697589,-30.12789345909766,15.267962087608113,21.31125134752717
-0.502,0.7508,0.4315,-0.0016,0.4294,0.3278,-3.7888,2.59,-15.61,29.885751754005792,-30.11673413003847,14.86857451062711,21.323472348353203
-0.5121,0.7543,0.4335,-0.0016,0.4294,0.3278,-3.7975,2.3275,-15.3475,29.886015420659195,-30.22889132674645,14.633691083460247,21.335608763757516
-0.5019,0.7508,0.4325,-0.0019,0.4306,0.331,-3.43,2.0563,-15.3125,29.916091885430713,-30.186229914350115,14.724212904934154,21.34779932798829
-0.5059,0.7595,0.4269,-0.0019,0.4306,0.331,-3.1063,2.485,-15.3125,29.66958566187318,-30.173385748151954,15.407311801572318,21.35999449309974
-0.5025,0.7614,0.4282,-0.0019,0.431,0.3225,-4.2088,1.54,-15.4263,29.463950318615044,-30.082828587223595,15.205736327158673,21.372132324159647
-0.4953,0.7636,0.4311,-0.0022,0.43,0.3278,-4.7163,1.1112,-15.0325,29.452363970741448,-30.012116798483632,15.237087100015005,21.38100423776502
-0.4951,0.7466,0.4353,-0.0022,0.43,0.3278,-5.845,1.3737,-14.84,30.067533541701334,-29.999705951466765,15.041761423581965,21.39320435767105
-0.497,0.7482,0.4319,-0.0014,0.4314,0.3282,-6.4138,1.4875,-15.0325,30.00997672546837,-29.989694145425624,14.871858959860928,21.405463581198113
-0.4953,0.7447,0.4416,-0.0014,0.4314,0.3282,-6.5713,1.5662,-15.4088,30.54136815433148,-29.917059824454427,14.382695839066544,21.41753735384241
-0.4885,0.7414,0.4377,-0.0011,0.4297,0.3324,-6.0637,1.785,-15.7937,30.553133299761456,-29.753753505839367,14.33284295612271,21.42968509449147
-0.4875,0.7393,0.4416,-0.0024,0.431,0.329,-5.1013,1.995,-15.9162,30.77124169824033,-29.633394880894294,13.712822367824597,21.44194325627684
-0.4956,0.7222,0.4524,-0.0024,0.431,0.329,-3.3863,2.3975,-15.785,31.426064453162297,-29.889510325072955,11.886379852549412,21.4541136474154
-0.5064,0.7285,0.4491,-0.0014,0.4315,0.3278,-2.9925,1.995,-15.4612,31.5139031810708,-30.148506547063416,11.402890592231268,21.46628014550108
-0.5118,0.7411,0.4437,-0.0014,0.4315,0.3278,-2.4588,2.5025,-15.2163,31.459296926105146,-30.26710357964564,11.85093328657141,21.47512126859729
-0.496,0.7513,0.4354,-0.0014,0.4326,0.3314,-0.8925,2.0038,-14.9537,30.64713379149496,-30.242181360528118,13.048116527610777,21.487341561595528
-0.4865,0.7582,0.43,-0.0014,0.4304,0.3281,-0.5513,2.2138,-14.8575,29.94647158823356,-30.193887394308234,14.309182417649337,21.499521508409348
-0.4914,0.7593,0.4264,-0.0014,0.4304,0.3281,-1.0937,2.2925,-14.385,29.594951016695607,-29.9345610144919,15.136131680258764,21.511712426554016
-0.4864,0.7496,0.4326,-0.0005,0.4288,0.3268,-1.295,2.45,-15.2337,29.798433551288955,-29.78638716530235,14.87888902257772,21.523876447242408
-0.4872,0.7473,0.4316,-0.0005,0.4288,0.3268,-1.5137,3.1763,-16.0912,29.894650318557815,-29.602269725440866,14.686237077324627,21.53606453407589
-0.4937,0.7435,0.4358,-0.0031,0.4304,0.3316,-1.2862,3.1937,-15.925,30.144126024148743,-29.705614599539786,14.356690210060197,21.548265007895818
-0.4992,0.7421,0.4365,0.0,0.4309,0.3264,-0.1488,3.465,-16.6425,30.364275927528176,-29.959795579087153,13.513632172183708,21.557055167390658
-0.5062,0.7441,0.4311,0.0,0.4309,0.3264,0.3675,3.3775,-17.2112,30.16079885230588,-30.32436425342506,13.651416989217633,21.569195475847852
-0.5054,0.755,0.4297,-0.001,0.4319,0.3262,0.28,2.3275,-16.7475,29.787370108703932,-30.237208282126257,14.084736969113452,21.58138002354235
-0.5048,0.7615,0.4252,-0.001,0.4319,0.3262,0.2625,1.6538,-16.6075,29.34605987335321,-30.12664535720043,14.49812437168937,21.593505821529714
-0.4979,0.7568,0.4191,0.0003,0.431,0.3245,-0.28,1.8812,-16.4062,29.096684598825878,-30.003972953417293,15.005077593972613,21.605666303079122
-0.4962,0.7571,0.4179,0.0003,0.431,0.3245,-1.295,2.1963,-16.415,28.9940220994672,-29.909363953893124,15.468375201767643,21.614477697407864
-0.4962,0.7521,0.4252,0.0006,0.4305,0.3273,-1.54,2.03,-15.7587,29.21366067378616,-29.891120675341853,15.409007769795092,21.626655520738293
-0.4979,0.7521,0.4207,0.0013,0.431,0.3274,-1.645,1.6887,-15.4437,29.216808422950738,-29.935519009275488,15.522668095191243,21.638777071758874
-0.5048,0.7524,0.4293,0.0013,0.431,0.3274,-1.1375,2.0563,-15.0062,29.48692601924354,-29.96277108471649,15.16032074853374,21.65090393148793
-0.5043,0.7472,0.4259,-0.001,0.4296,0.3259,-1.4088,2.0563,-13.8863,29.58244297617615,-30.17604458254304,14.877466684280188,21.66312670188346
-0.5061,0.7446,0.4318,-0.001,0.4296,0.3259,-1.3562,2.1963,-13.5537,29.84657019089972,-30.33614411558721,14.297782956695912,21.67527762775761
-0.5099,0.7406,0.435,-0.0011,0.4289,0.3282,-0.6125,2.6688,-12.775,30.216559742004723,-30.58108643086234,13.805530793875603,21.687451558035153
-0.508,0.7434,0.4354,0.0003,0.4277,0.3241,-0.6038,1.6887,-12.2762,30.30601666549236,-30.54115360182146,13.61241614706811,21.69631108465408
-0.5031,0.7448,0.4299,0.0003,0.4277,0.3241,-0.7613,1.4525,-11.865,30.113857138705225,-30.38124014522922,13.68746769654131,21.708530669824523
-0.5022,0.7549,0.4178,0.0006,0.427,0.3261,0.8925,1.9775,-12.9937,29.233177672189278,-30.26343718019879,14.875618757730015,21.720604088554918
-0.5013,0.7575,0.4143,0.0006,0.427,0.3261,0.5075,1.4875,-13.3525,28.81978918944211,-30.188423603272096,15.344003902686751,21.732679630768708
-0.5017,0.7656,0.4099,-0.0013,0.4281,0.3238,0.2975,0.91,-14.28,28.343661048137044,-30.121972155984512,15.801437883422059,21.744852853218458
-0.4973,0.7748,0.4067,-0.0013,0.4281,0.3268,-1.2512,0.1925,-15.7675,28.002882056878327,-29.884772489713896,17.37394795031919,21.753713441579077
-0.4918,0.7784,0.4061,-0.0006,0.4275,0.3268,-2.4763,0.1925,-16.275,27.955695302030335,-29.521105953226165,18.446509878359915,21.765903297982053
-0.4885,0.7756,0.4089,-0.0011,0.4287,0.3264,-3.1238,-0.0875,-16.17,27.88756136029589,-29.299448209934216,18.69218071134277,21.77809315438503
-0.4804,0.756,0.4215,-0.0011,0.4287,0.3264,-4.6112,0.2975,-15.89,28.75580104684362,-29.166171579835474,17.591792140893293,21.79030353779411
-0.4786,0.7444,0.4257,-0.001,0.4279,0.323,-4.4538,0.8487,-15.2163,29.438131972751197,-29.166278242250304,16.82801343757733,21.802492686369288
-0.4876,0.7403,0.4272,-0.001,0.4279,0.323,-4.62,1.4262,-15.1287,29.81912313599594,-29.264717781510747,16.302195444458448,21.814633348740383
-0.4898,0.7438,0.4258,0.0,0.4243,0.3295,-3.99,1.3212,-15.2862,29.80085944087385,-29.398102407947196,16.25785452827826,21.826841608666076
-0.4931,0.7484,0.4277,-0.0014,0.4288,0.3253,-3.4738,1.435,-15.4437,29.772661295620452,-29.528932144080606,15.953884858501187,21.835646278630747
-0.4981,0.7597,0.422,-0.0014,0.4288,0.3253,-3.8675,1.2075,-15.715,29.33899041856894,-29.65909445189525,15.9539832726158,21.84785276898695
-0.4874,0.7608,0.4258,-0.0002,0.4286,0.3268,-3.9375,0.9538,-16.1262,29.275097302126337,-29.41048876920657,16.008515086966533,21.860127918639442
-0.4849,0.7583,0.4291,-0.0002,0.4286,0.3268,-4.4187,1.2775,-15.8375,29.42935237094198,-29.259330884755293,15.990558260002581,21.872236020931883
-0.4911,0.7483,0.4315,-0.0003,0.4283,0.3276,-4.27,1.6625,-15.995,29.78390200968482,-29.447366683667976,15.610596354850015,21.884379514614167
-0.4928,0.7435,0.4332,0.0007,0.4275,0.3254,-4.0075,2.31,-15.6187,30.059789181781415,-29.594048658123704,14.765740390541923,21.89654070399137
-0.4951,0.7426,0.4343,0.0007,0.4275,0.3254,-2.8,2.0213,-16.1875,30.139562855577378,-29.777810227978684,14.319021477259883,21.908721004719087
-0.4944,0.751,0.4282,0.0001,0.4273,0.3246,-1.9425,2.0563,-15.9337,30.007438520983197,-29.771276798194993,14.595368869969587,21.917547617345463
-0.4987,0.7587,0.4274,0.0001,0.4273,0.3246,-2.275,2.3275,-15.225,29.95961626978376,-29.778089605096532,15.05858421224369,21.92968757188876
-0.4964,0.7623,0.427,-0.0034,0.4275,0.3238,-2.1788,2.17,-15.4175,29.851793058330156,-29.718446370143187,15.274908899542245,21.942001652070076
-0.4871,0.7602,0.4297,0.0015,0.4262,0.3285,-2.2662,2.17,-14.7525,29.81980697392467,-29.643833882400322,15.856007009517386,21.954020921974017
-0.49,0.7499,0.4255,0.0015,0.4262,0.3285,-2.2313,2.03,-15.2425,29.791522385101,-29.635280394622093,15.945971262194139,21.966193436595972
-0.492,0.75,0.4346,0.0002,0.428,0.326,-2.6075,1.8375,-15.2687,29.850998494363136,-29.620227209867036,15.333406008095318,21.97834613203961
-0.4937,0.7469,0.4269,0.0002,0.428,0.326,-2.9225,1.8112,-15.1812,29.81485919692118,-29.67010856513753,15.17309014817847,21.987080727052398
-0.4973,0.7502,0.4244,0.0002,0.4297,0.3262,-1.8637,1.5137,-16.2663,29.70966996779237,-29.850748582515944,15.169773960588055,21.99930314353403
-0.4977,0.7507,0.428,0.0002,0.4297,0.3262,-1.3475,1.0412,-16.7038,29.699252064381895,-29.907972710715267,15.121263938379837,22.01145159201089
-0.4998,0.7505,0.4252,-0.0006,0.4291,0.3262,-1.6187,0.1837,-16.4412,29.628912224518235,-30.017657458604713,15.100453725566629,22.02364215624166
-0.5045,0.7482,0.4191,0.0001,0.4265,0.3254,-1.0675,0.6388,-16.765,29.41820372983775,-30.31024359216517,15.300954175422964,22.03580263779107
-0.5109,0.7519,0.4205,0.0001,0.4265,0.3254,-0.9275,0.35,-17.0275,29.299199541330083,-30.554519092272958,15.45781117975866,22.04792595838114
-0.5139,0.7627,0.4193,-0.0006,0.4269,0.3265,-0.3588,0.0,-17.1588,28.96644050309201,-30.558020562579628,16.054660571375955,22.056779114549894
-0.5137,0.7606,0.4078,-0.0006,0.4269,0.3265,-0.5688,-0.4462,-17.1763,28.473505184426777,-30.699959146010606,16.990794490437345,22.068983835336603
-0.508,0.7645,0.4179,0.0008,0.4282,0.3239,-1.855,-0.6212,-17.01,28.536856450414763,-30.39136530022658,16.647281074769566,22.081196342229077
-0.5048,0.7642,0.4153,-0.0004,0.4282,0.3263,-2.1963,-0.3237,-16.6338,28.534716676980572,-30.22612031805592,16.917083938843522,22.093420174366297
-0.5024,0.754,0.418,-0.0004,0.4282,0.3263,-2.5375,-0.1925,-15.785,28.605456198113185,-30.228711783262142,16.47013157799514,22.105641175192336
-0.4994,0.7542,0.4222,-0.0014,0.427,0.3263,-2.7738,0.0438,-14.9888,28.79133413131003,-30.212399255262973,16.163392365084196,22.11781758286717
-0.5013,0.7504,0.4215,-0.0014,0.427,0.3263,-3.2462,0.9013,-14.3238,29.041169140123408,-30.2146910144917,16.046275536877285,22.13001027058133
-0.5003,0.7533,0.4201,-0.0013,0.4295,0.3246,-2.9663,1.5662,-14.455,29.081328015613284,-30.183950989222392,15.888756424090706,22.14213677639649
-0.4972,0.753,0.4211,-0.0027,0.4243,0.3262,-2.1613,1.5137,-14.0963,29.10347946853148,-30.081508013371963,15.968485764996462,22.151028155266275
-0.4931,0.7581,0.4153,-0.0027,0.4243,0.3262,-2.065,1.19,-14.6037,29.01501590655138,-29.993900949305164,15.980162302409893,22.163214472530264
-0.4925,0.7665,0.4199,-0.0019,0.4273,0.3266,-2.625,1.4525,-14.2712,28.951992274082713,-29.764349915212645,16.220084858066098,22.175407514158326
-0.4925,0.7659,0.4218,-0.0019,0.4273,0.3266,-3.3163,1.6712,-13.195,28.898534259177314,-29.528800172391914,16.44762589387589,22.18760834189215
-0.4892,0.7661,0.4246,-0.0012,0.4257,0.3269,-3.8413,1.8725,-12.8362,28.957196851466826,-29.296340505749512,16.678633725381818,22.199741572071378
-0.4907,0.7616,0.4296,-0.0012,0.4264,0.3254,-4.4187,1.9512,-13.3175,29.27294650801191,-29.298728408423756,16.306831873010573,22.2119657581225
-0.4872,0.7513,0.4348,-0.0012,0.4264,0.3254,-4.7512,1.8463,-13.265,29.82742445808273,-29.301877507513815,15.63224885634192,22.22413898057225
-0.4915,0.7382,0.4415,-0.0006,0.4271,0.3248,-4.8387,2.7825,-14.4812,30.5793494713134,-29.43341202155853,13.808246594207768,22.236355380517605
-0.494,0.7407,0.4381,-0.0006,0.4271,0.3248,-2.2575,2.2575,-14.6825,30.58153347952624,-29.510504424529785,13.471791588733074,22.245138815648374
-0.4946,0.7422,0.4382,0.001,0.4279,0.3276,-2.1963,1.995,-14.2625,30.5782162634431,-29.642918354688227,13.55937191235248,22.25733044162084
-0.4945,0.7512,0.4366,-0.0002,0.4267,0.3228,-1.6887,1.5137,-13.65,30.41243071978871,-29.644484638902227,13.621893127547592,22.269531269354665
-0.4893,0.7542,0.432,-0.0002,0.4267,0.3228,-1.1987,1.4875,-14.35,30.085437814146985,-29.54928387152472,13.84833174693734,22.281722541413234
-0.4918,0.766,0.42,-0.0007,0.4262,0.3258,-1.1462,1.575,-14.7,29.345730048676835,-29.52019907070907,14.766563925111248,22.29391027433282
-0.4946,0.7673,0.4224,-0.0007,0.4262,0.3258,-2.1088,1.155,-14.8312,29.242912832685803,-29.51559721060163,14.860187663698245,22.306138353436822
-0.4973,0.7625,0.4259,-0.0045,0.4247,0.3262,-2.9138,1.3037,-15.47,29.22256894457546,-29.56666773116575,14.994302782119563,22.318243978331974
-0.5017,0.7537,0.4313,-0.0045,0.4247,0.3276,-3.01,1.1812,-15.855,29.442285019894303,-29.786043503826924,14.998336445824183,22.32706351268038
-0.4856,0.7443,0.4277,-0.002,0.425,0.3276,-2.52,0.9538,-16.6338,29.50324185817251,-29.602280264300898,15.065662861792,22.339309641393204
-0.4939,0.7424,0.4491,-0.0031,0.4243,0.3268,-2.66,0.84,-16.45,29.88856099487619,-29.63106131811708,14.444266986493648,22.35148711080973
-0.5155,0.7523,0.4304,-0.0031,0.4243,0.3268,-2.0825,0.9625,-16.8612,29.86379476839398,-30.366936447815412,14.534469932294625,22.36367378198762
-0.4973,0.7505,0.4282,-0.0018,0.4242,0.3264,-1.9162,0.98,-15.89,29.815647772203825,-30.14609818883024,14.690125674986206,22.375864700132293
-0.4946,0.7658,0.4253,-0.0018,0.4242,0.3264,-1.015,0.35,-15.715,29.37447008546746,-29.834637405499556,15.690592568605354,22.388054556535266
-0.4987,0.759,0.4232,-0.0021,0.4254,0.3185,-1.7413,0.5862,-14.4112,29.28602957962878,-29.839801269601985,15.45032531881832,22.400201235442637
-0.5,0.7574,0.4268,-0.0009,0.4252,0.3261,-2.1963,1.4525,-13.37,29.30224128508941,-29.87886255336199,15.532796683828549,22.409069963822922
-0.4976,0.744,0.4344,-0.0009,0.4252,0.3261,-2.1525,1.7062,-12.39,29.469854379927817,-29.972441113779357,15.066771554119104,22.421226198405545
-0.4995,0.7466,0.4282,-0.0017,0.4269,0.325,-2.5725,1.0412,-12.4775,29.534087153339073,-30.083322827699675,14.992036564946483,22.433453215767855
-0.4909,0.7494,0.429,-0.0017,0.4269,0.325,-2.5025,1.0762,-12.775,29.566011393509143,-29.766749381436295,14.973539719453713,22.445632808667774
-0.4933,0.7563,0.4269,-0.0009,0.4237,0.3238,-1.5225,1.4175,-12.6262,29.509928320233048,-29.64887438520544,15.10984912543794,22.457960337577234
-0.4937,0.7648,0.4296,-0.0021,0.4234,0.326,-1.7587,1.54,-12.5037,29.4399925939349,-29.453039204231523,15.437868324827699,22.470001550142875
-0.4909,0.7587,0.429,-0.0021,0.4234,0.326,-2.1438,1.05,-12.4775,29.448084697366408,-29.4078807547809,15.521522734131413,22.48219176045975
-0.4907,0.7556,0.4369,-0.0009,0.4234,0.3263,-2.5113,1.1287,-12.1187,29.525706099307765,-29.36142756299906,15.497390258119234,22.49437560032645
-0.4862,0.751,0.4366,-0.0009,0.4234,0.3263,-1.9512,1.6712,-12.2062,29.713075260912586,-29.269532756633915,15.319337678002446,22.503156558059928
-0.4873,0.7454,0.4343,-0.0007,0.4226,0.3232,-1.4612,1.3387,-11.9612,29.95618101272307,-29.411963889911483,15.199005648547585,22.515376851058168
-0.4857,0.749,0.4342,-0.0032,0.4227,0.3266,-1.1638,1.365,-11.165,30.035121018317714,-29.318115078224817,15.18212755423548,22.527581217930976
-0.488,0.7541,0.4341,-0.0032,0.4227,0.3266,-0.7088,0.9538,-11.34,29.967798787408768,-29.292671791571234,15.228466340283308,22.53977425955904
-0.4773,0.7667,0.421,-0.0037,0.4203,0.3239,-0.49,1.3475,-11.27,29.188380609156525,-28.76559122005823,15.559314853716561,22.55195349854506
-0.4706,0.7668,0.4236,-0.0037,0.4203,0.3239,-0.0963,0.8487,-10.99,29.000431441129543,-28.350665089724185,16.115867925584745,22.564155034106683
-0.4697,0.7624,0.4322,-0.0026,0.4218,0.3226,-1.0325,1.7675,-10.8413,29.313059091518742,-28.221055920634452,16.128577374889495,22.576362940118475
-0.4723,0.7591,0.4274,-0.001,0.4194,0.327,-0.8487,2.17,-11.55,29.353965840313922,-28.40868829193042,16.79096397504093,22.585162301374673
-0.476,0.7589,0.4297,-0.001,0.4194,0.327,-0.7437,1.8725,-11.4275,29.45600717693705,-28.5773862152457,16.9237661955956,22.597363483022395
-0.4817,0.7603,0.43,-0.0026,0.4194,0.3261,-0.2275,1.61,-11.935,29.47985075549402,-28.800546252860762,16.891540700221796,22.60951122367146
-0.4753,0.7623,0.4294,-0.0026,0.4194,0.3261,0.3675,1.365,-12.0662,29.41583188765904,-28.587911381272797,16.933541689350776,22.621694355710364
-0.4751,0.7617,0.4344,-0.0066,0.4189,0.3245,0.455,0.9538,-12.7662,29.622739624614205,-28.493671437047034,16.791529277424196,22.63385271377638
-0.4785,0.7609,0.4352,-0.0066,0.4182,0.3256,1.0325,1.1025,-13.2475,29.73460363634396,-28.57822586825629,16.744670936863795,22.64601496489528
-0.4831,0.7621,0.4294,-0.0036,0.4182,0.3256,1.2163,0.6563,-12.985,29.47217496066609,-28.796855959996876,16.83039894237575,22.65814607159112
-0.4901,0.7595,0.4416,-0.0045,0.417,0.3238,0.945,0.91,-11.7687,30.011897156555616,-29.068401906098945,16.46452222544772,22.666963836370034
-0.4956,0.7686,0.4373,-0.0045,0.417,0.3238,1.7587,0.2975,-11.8125,29.711048094579613,-29.219451338011503,16.32529527500127,22.679108745707907
-0.4986,0.7713,0.4368,-0.0054,0.4161,0.3234,2.6513,-0.6212,-11.1387,29.554783467360103,-29.328820710865536,16.339049279532627,22.691381064049214
-0.4857,0.7687,0.434,-0.0054,0.4161,0.3234,2.8263,-1.05,-10.6925,29.4657818749693,-28.91763201118771,16.62095564358157,22.703523142075902
-0.484,0.7635,0.4311,-0.0031,0.4138,0.3299,3.4738,-1.2163,-9.3887,29.452873245674528,-28.901858565669862,17.72304633404635,22.715645047010383
-0.4811,0.7628,0.4336,-0.0057,0.4138,0.3246,4.7337,-1.2075,-8.4437,29.595221548524943,-28.75856180805683,17.171810287019564,22.72776695194486
-0.4839,0.772,0.426,-0.0057,0.4138,0.3246,5.1975,-2.065,-8.1462,28.97286068629058,-28.758175887159105,18.039638155405118,22.73665089862278
-0.4829,0.7864,0.418,-0.0081,0.4114,0.3245,5.3638,-3.0713,-9.4937,28.10466914104014,-28.512986448761918,19.855573365098603,22.74879014533828
-0.4662,0.7856,0.4193,-0.0081,0.4114,0.3245,5.6438,-4.375,-8.855,28.09187418544572,-27.758159837236338,20.4790220424418,22.760941071212432
-0.4575,0.785,0.4163,-0.0046,0.4098,0.3256,5.25,-3.3425,-9.5113,27.955725214486215,-27.32363214383037,21.528359616778527,22.773078194444544
-0.4697,0.7825,0.423,-0.007,0.4076,0.3233,4.7863,-3.1063,-10.4387,28.340679757840817,-27.742175687665828,20.497547597904916,22.78525814125836
-0.4683,0.7766,0.4231,-0.007,0.4076,0.3233,5.3638,-3.5525,-10.9375,28.55435547719977,-27.870122506544476,19.973871483505352,22.797470294236938
-0.458,0.7737,0.4219,-0.0064,0.4062,0.325,5.4688,-3.465,-11.2875,28.59812322847747,-27.549993928980385,20.480309795329088,22.806302923399585
-0.4656,0.7798,0.4262,-0.0064,0.4062,0.325,5.81,-2.8438,-10.745,28.65220764186918,-27.63170232894275,20.39024548761239,22.81847296062425
-0.4637,0.785,0.4201,-0.0085,0.4063,0.3254,5.6087,-2.0475,-10.6225,28.209440486431145,-27.533850394237643,21.099068336382917,22.83068334403333
-0.462,0.7906,0.4193,-0.0108,0.4035,0.3249,5.4075,-1.715,-10.3687,27.970327995009708,-27.34652535570154,21.74201370090195,22.8428293151129
-0.4696,0.799,0.4183,-0.0108,0.4035,0.3249,5.8975,-1.68,-10.43,27.669779203865467,-27.47663722061485,22.23200017384818,22.855062349011483
-0.4704,0.8042,0.428,-0.0117,0.4017,0.3233,5.4513,-1.435,-10.15,27.982176926985574,-27.33880488415579,21.855426236029015,22.86720230355478
-0.4844,0.7881,0.4268,-0.0117,0.4017,0.3233,5.1712,-1.2862,-9.6075,28.384575914238532,-28.223183870441257,20.74386410454864,22.879354998998423
-0.4878,0.7792,0.4392,-0.0088,0.4003,0.3282,5.775,-1.3037,-8.7762,29.29596175564031,-28.552548317083303,19.8794531525848,22.88816957855225
-0.4941,0.7688,0.437,-0.0088,0.4003,0.3282,5.7925,-0.6475,-8.4263,29.579866812741802,-29.10786508227075,19.202698431679384,22.900379254133536
-0.4901,0.7713,0.4441,-0.0118,0.3983,0.3224,7.4288,-1.225,-7.7088,29.8998372674934,-28.872688066944765,18.05957297210093,22.912539735682945
-0.4697,0.7424,0.4457,-0.0144,0.3955,0.3227,9.2837,-0.9713,-6.5275,30.89319253243911,-28.519073489458183,16.70690570943155,22.924641113611315
-0.4366,0.7468,0.4324,-0.0144,0.3955,0.3227,13.37,0.8225,-5.6087,30.120148218256734,-27.00007261636037,17.23647032857221,22.936799471677332
-0.4224,0.7474,0.4301,-0.0146,0.3946,0.3215,16.4762,2.4325,-5.6963,29.928926141670193,-26.185978848273024,18.358934864325704,22.948958537571144
-0.4214,0.7663,0.4298,-0.0146,0.3946,0.3215,18.6637,4.1825,-6.5363,29.316206761442057,-25.683572573295724,20.187118955420537,22.95780709285922
-0.4189,0.7671,0.4135,-0.0145,0.3905,0.3228,20.2038,5.3375,-6.5188,28.36858156900325,-25.674375678453334,22.78171123400713,22.96992014994624
-0.4338,0.7887,0.4203,-0.0138,0.3874,0.318,21.1662,6.685,-6.5012,28.066110726859705,-25.868706846292493,23.342460438384794,22.982096203707176
-0.4413,0.7973,0.4152,-0.0138,0.3874,0.318,21.8925,7.4463,-6.7638,27.530665632665226,-26.11669786366587,24.155063312209563,22.994247129581325
-0.4233,0.7857,0.3917,-0.0146,0.3811,0.315,23.345,8.1812,-6.3963,26.53659547531684,-25.780935913178855,26.392166063480975,23.006409380700227
-0.4339,0.7966,0.3906,-0.0146,0.3811,0.315,24.185,9.5113,-5.8013,26.135394157067065,-26.033719103013414,27.065434614245028,23.015181490586244
-0.4471,0.8072,0.3795,-0.0111,0.3806,0.3113,25.1912,9.7737,-6.0288,25.213721810227803,-26.56295804268377,28.060437388756394,23.027372054817015
-0.4587,0.8214,0.3671,-0.0111,0.3806,0.3113,25.2,9.7388,-6.1775,24.120485894743766,-26.96776293216676,29.586860817730074,23.0395148406715
-0.4671,0.8345,0.3607,-0.0133,0.3744,0.3086,24.8237,9.0125,-5.705,23.402111302337214,-27.171701063359066,30.77739664977491,23.05167461439311
-0.4631,0.8414,0.353,-0.014,0.3712,0.3066,24.08,7.9275,-5.2762,22.783345737873564,-26.934080261659737,31.99911685241227,23.063845359445573
-0.4477,0.8466,0.3469,-0.014,0.3712,0.3066,23.2225,7.1838,-4.515,22.30056475949748,-26.149607455347844,33.42684041987335,23.076022121034306
-0.444,0.8403,0.3439,-0.0142,0.3661,0.3034,22.1987,7.0875,-2.9313,22.258948240155174,-26.06625489657368,33.769697717433516,23.084786444814558
-0.4468,0.839,0.3427,-0.0142,0.3661,0.3034,21.0088,6.9038,-1.61,22.219844646352026,-26.23083102226242,33.736439043180305,23.09694126374159
-0.4468,0.8314,0.3441,-0.0132,0.3617,0.3033,20.545,6.3175,-0.9538,22.47265742083148,-26.395261057582108,33.78534009845764,23.109110593138457
-0.4327,0.8229,0.3383,-0.0103,0.358,0.3038,20.4662,6.1775,-0.0438,22.353145646525892,-25.964053265446395,35.04644089204479,23.121277799051935
-0.4195,0.8129,0.3357,-0.0103,0.358,0.3038,20.6413,6.0988,1.3387,22.435381993971852,-25.527175430448693,35.46954503596265,23.133379530894207
-0.4099,0.8144,0.3327,-0.0146,0.3544,0.2964,22.0237,6.2038,2.4588,22.229518784263018,-25.01211663538184,35.22629807771583,23.14214420858836
-0.4002,0.8222,0.3206,-0.0146,0.3544,0.2964,23.4762,6.9913,2.1525,21.336827899645623,-24.427925959081954,36.916123660816815,23.154276730939788
-0.39,0.8342,0.3129,-0.0158,0.3497,0.2985,24.3337,7.7875,1.2862,20.58859216681261,-23.686421248145518,39.45062081288623,23.166406421980035
-0.3783,0.8404,0.312,-0.0158,0.3497,0.2985,24.57,8.715,1.5575,20.37544843559905,-22.92592113991897,40.74848909045435,23.178548146092826
-0.3714,0.8389,0.3098,-0.0174,0.3446,0.2938,24.885,9.9837,0.56,20.27261577004115,-22.576127084686412,41.063557323170286,23.190638198776448
-0.372,0.8362,0.3105,-0.0161,0.3397,0.2874,24.71,11.3837,-1.365,20.3675932843358,-22.634121064096625,40.70507850412509,23.199515775004194
-0.3798,0.8297,0.3093,-0.0161,0.3397,0.2874,25.2262,12.81,-2.5375,20.442019882088363,-23.172042925130675,40.01002552772681,23.21169005919564
-0.3839,0.8287,0.3028,-0.0173,0.338,0.2827,26.9325,14.0437,-4.8213,20.084096884593038,-23.48384367321868,39.55877457044806,23.223883808651497
-0.3819,0.8323,0.2915,-0.0173,0.338,0.2827,28.5163,15.3212,-6.1163,19.32653983071928,-23.422349070435956,40.70139895149469,23.236045705856498
-0.3983,0.8346,0.2913,-0.0154,0.3343,0.279,30.2488,16.7038,-6.965,19.2430530181332,-24.162108042309846,40.212819671451186,23.248288295430335
-0.3981,0.8325,0.2794,-0.0134,0.3297,0.273,31.29,17.045,-7.3763,18.57248476677003,-24.360660104169746,40.942195640506675,23.260472843124834
-0.429,0.8412,0.2616,-0.0134,0.3297,0.273,32.5237,17.6837,-7.3675,17.311036034739004,-25.7772456962488,41.266005585294295,23.27261527506542
-0.4671,0.8838,0.2561,-0.0151,0.3245,0.2702,33.53,17.5875,-7.0613,16.191278827464888,-26.785225314456973,41.86356694696502,23.2813965867128
-0.4397,0.8971,0.2363,-0.0151,0.3245,0.2702,33.845,16.2488,-6.6238,14.79532325841403,-25.51308977473006,44.97238135469094,23.29365899546495
-0.425,0.9002,0.2341,-0.013,0.3199,0.2622,33.2675,15.1462,-4.97,14.583036397323085,-24.64407436837895,45.83314694649739,23.305835049225884
-0.4154,0.8994,0.2309,-0.0151,0.317,0.2559,32.9263,14.875,-2.4063,14.40349425793257,-24.14184324937651,45.677330713838444,23.318016765609194
-0.4088,0.8952,0.2223,-0.0151,0.317,0.2559,31.1238,14.9975,0.385,13.959121715806644,-23.917464956964096,46.400401696618054,23.330187864575553
-0.4268,0.8808,0.217,-0.0157,0.3098,0.2542,30.9137,14.8575,1.9425,13.843633126505162,-25.124901174639955,45.80921610210685,23.342332419999533
-0.4329,0.8854,0.2141,-0.0157,0.3098,0.2542,31.0625,14.07,3.0363,13.60109422408265,-25.40318112275469,45.86175547328121,23.35445892581469
-0.431,0.8955,0.2022,-0.0154,0.3074,0.2503,31.4738,11.8737,4.2788,12.748952978222553,-25.161540281865026,46.86182888845004,23.36330252630819
-0.4183,0.9048,0.1903,-0.0154,0.3074,0.2298,31.4913,10.6225,5.04,11.902493228729405,-24.381758204115137,45.842309430079155,23.375526004531512
-0.4009,0.9069,0.1857,-0.0179,0.3004,0.2426,31.4125,9.2837,6.5887,11.58162165967957,-23.45891032307435,48.898872831227386,23.387571110150038
-0.392,0.9089,0.173,-0.02,0.295,0.2421,31.1588,8.365,7.9187,10.800082901882337,-22.98246979226726,50.54289569120981,23.399662932403153
-0.3753,0.9101,0.1552,-0.02,0.295,0.2421,30.4675,7.4637,8.3125,9.710779243798985,-22.157468672823182,52.51316964871776,23.411820582641372
-0.3766,0.9192,0.1521,-0.0209,0.29,0.2387,29.8463,5.845,7.77,9.405088736233555,-22.015216185902958,53.0074181448283,23.42061074213621
-0.3676,0.9302,0.1451,-0.0209,0.29,0.2387,28.4288,4.795,7.665,8.882961179622955,-21.35787966202968,54.06347235630547,23.43274821928222
-0.3668,0.9315,0.152,-0.0219,0.2837,0.2411,27.93,4.3225,8.155,9.255414487638236,-21.24278101272353,54.57970270057967,23.44483897979364
-0.3802,0.9288,0.1505,-0.0242,0.2773,0.2359,27.5012,3.8588,8.8725,9.205705643320254,-21.971747144792698,53.84695436707318,23.456972209972868
-0.3722,0.919,0.1443,-0.0242,0.2773,0.2359,26.9237,2.7125,9.7388,8.93295081031776,-21.812952251039025,53.96777503090312,23.46577475645415
-0.3529,0.907,0.1366,-0.0299,0.2725,0.2302,27.0637,1.3475,9.7562,8.576844788101896,-21.073990334486393,53.944130268680496,23.477958596320853
-0.3226,0.9024,0.1164,-0.0299,0.2725,0.2302,27.9037,1.3212,9.45,7.389205442296155,-19.583356751821626,54.21581807391086,23.489979989708182
-0.3204,0.9101,0.1143,-0.0335,0.2688,0.2274,28.21,1.5662,9.4237,7.1656450726177425,-19.26755513538109,54.73216020611103,23.502119944251483
-0.3199,0.9269,0.1083,-0.0335,0.2688,0.2274,28.5775,1.2687,9.7562,6.679982403976732,-18.93504192506315,54.87448108266542,23.51423512482189
-0.3275,0.9368,0.0996,-0.0354,0.263,0.227,29.4525,1.3912,9.6425,6.087478654540486,-19.160077390184078,55.26126890874461,23.52303448607809
-0.3337,0.9475,0.0903,-0.0378,0.2575,0.2228,29.1987,1.435,10.0187,5.4638044122481535,-19.314538303812512,55.620376859499615,23.53518718152173
-0.3185,0.9515,0.0883,-0.0378,0.2575,0.2228,28.7962,1.4525,10.3687,5.306945951785056,-18.46689819137789,56.11479944880233,23.54736040397148
-0.2919,0.9467,0.0814,-0.0418,0.2533,0.2175,27.0637,1.75,11.3312,4.927273463479468,-17.128028188591518,56.95899135610094,23.559490802839523
-0.2831,0.9422,0.0656,-0.0418,0.2533,0.2175,26.46,2.975,10.78,4.014425018335459,-16.702226324938604,58.65505363794391,23.571614123429594
-0.2802,0.9397,0.0664,-0.0459,0.2483,0.2115,25.375,3.395,9.9225,4.040896002027791,-16.5698442575503,58.50445413951436,23.580435427347492
-0.2768,0.9428,0.0586,-0.0459,0.2483,0.2115,25.515,4.13,9.9575,3.573430273143218,-16.341259849243052,58.898989790965025,23.592541760070443
-0.2763,0.9426,0.0602,-0.0477,0.2452,0.2114,25.3838,5.18,9.345,3.6514707070456023,-16.307156733458473,58.826038781935274,23.60467746764696
-0.276,0.9382,0.0641,-0.0494,0.2387,0.2071,25.2262,6.5363,10.0975,3.8995147895618154,-16.354852168554743,58.221724791849674,23.61679547952856
-0.2676,0.9378,0.0584,-0.0494,0.2387,0.2071,25.5237,7.4463,10.8062,3.57503877536908,-15.913943133177725,58.702413654045024,23.629000554229165
-0.258,0.9451,0.0491,-0.052,0.235,0.2034,26.0662,7.5425,11.0162,2.9943933893933035,-15.274048606425152,58.9696279907901,23.637816903352483
-0.2532,0.9486,0.0461,-0.052,0.235,0.2034,26.32,8.6538,11.1125,2.7894147368206412,-14.940924057687035,59.37796315027993,23.649945532651035
-0.2588,0.9547,0.0371,-0.056,0.2302,0.1968,26.32,9.6425,11.41,2.244418662384574,-15.148431592428652,58.36329281341768,23.6620929193862
-0.266,0.9561,0.0409,-0.061,0.2246,0.1907,25.9525,9.6425,12.2062,2.4425061023439185,-15.520061644505303,56.442948785173385,23.674331261993256
-0.2543,0.9462,0.0375,-0.061,0.2246,0.1907,26.6875,10.2462,12.6262,2.2753262441627076,-15.049134241370703,56.723662070965815,23.686445026908075
-0.2338,0.9476,0.0221,-0.0631,0.2224,0.19,26.6963,10.22,13.09,1.3672666013543697,-13.897220476682849,57.84880166457692,23.698599845835105
-0.2282,0.9603,0.008,-0.0631,0.2224,0.19,27.5187,11.3575,13.3962,0.5061262794744332,-13.385137010791762,58.87145242465545,23.710787224840793
-0.2192,0.9703,-0.0047,-0.067,0.2162,0.184,27.6675,11.4712,13.3962,-0.2522734944068562,-12.752194429267009,58.65601046788155,23.719702315941767
-0.2175,0.9792,-0.0123,-0.0726,0.2126,0.1828,26.9587,11.8387,13.4225,-0.7042538137684778,-12.530114784339165,57.93841021989631,23.731923670681702
-0.2124,0.9807,-0.0095,-0.0726,0.2126,0.1828,26.3812,12.0575,13.7025,-0.5600228134874631,-12.230303509875792,57.980491886350265,23.74410184792603
-0.2091,0.9741,-0.0152,-0.0737,0.2076,0.1769,26.3725,12.1625,13.8162,-0.8827470304252012,-12.117730242061986,57.47952888696707,23.75634337575817
-0.1953,0.969,-0.022,-0.0737,0.2076,0.1769,24.99,11.0337,14.0787,-1.2858698738271666,-11.416523436306475,58.15944487448154,23.768553405253357
-0.1828,0.9696,-0.0283,-0.0778,0.2019,0.1741,24.955,11.13,13.3437,-1.6582028020377464,-10.697734863704053,57.91822432540645,23.780817583574997
-0.1683,0.9706,-0.0411,-0.0812,0.1972,0.1636,24.9112,11.1212,13.1162,-2.3976237739896713,-9.858471036201127,56.89428209350493,23.79302513567289
-0.1588,0.9736,-0.0478,-0.0812,0.1972,0.1636,24.3775,11.2,11.8387,-2.795850390500631,-9.274591881551888,57.388601104799086,23.80520331291722
-0.1753,0.9867,-0.0358,-0.0867,0.1942,0.165,23.2225,10.7012,10.0012,-2.1049338277394396,-10.03711329001451,55.66363459931864,23.817428560710034
-0.1907,0.9819,-0.0353,-0.0867,0.1942,0.165,22.3213,10.2375,8.82,-2.0607281977021406,-10.945670278607416,54.9424524832237,23.82960496838487
-0.1929,0.9703,-0.0298,-0.0876,0.1922,0.1601,22.5662,9.3887,8.8287,-1.7707570744435013,-11.227034875929672,53.73129545171944,23.838430873183448
-0.1825,0.9657,-0.028,-0.092,0.1871,0.1511,23.1525,8.1287,8.6625,-1.6649453757649024,-10.718838561972968,51.81079865302042,23.85064975052609
-0.1661,0.9603,-0.0385,-0.092,0.1871,0.1511,23.2838,7.49,8.3125,-2.272172393922982,-9.84316608413744,52.43256065953368,23.862722107514795
-0.1481,0.9664,-0.0654,-0.0931,0.1824,0.1538,23.5637,6.6675,7.1925,-3.8121184093114233,-8.74295670577738,54.2331489673545,23.87487197164725
-0.1228,0.9744,-0.0701,-0.0931,0.1824,0.1538,23.9837,6.3438,6.6588,-4.103794858474341,-7.234535025755872,55.43890308874197,23.88703811581903
-0.1217,0.9775,-0.0796,-0.0962,0.18,0.1518,23.2313,6.58,5.7925,-4.634704449727069,-7.081115752269005,55.0935649868029,23.89921381566607
-0.1247,0.9757,-0.0807,-0.0962,0.18,0.1518,22.7938,6.86,5.3113,-4.72458973588805,-7.250350165357842,54.97575115044897,23.90799406557175
-0.1259,0.9714,-0.076,-0.1013,0.1798,0.1406,22.2425,7.49,5.3463,-4.483375733462822,-7.357225476411774,52.099286370785094,23.920154547121157
-0.1272,0.97,-0.0829,-0.1038,0.1737,0.1411,22.2337,7.91,5.04,-4.869164936321692,-7.439825883828587,51.53902045584045,23.93235679051058
-0.1312,0.969,-0.0862,-0.1038,0.1737,0.1411,23.03,7.0437,4.725,-5.075396168303622,-7.669153965944922,51.45099109660721,23.944493205914892
-0.1237,0.9636,-0.0983,-0.107,0.1706,0.1378,23.3013,6.9038,4.0338,-5.796672705943955,-7.297471887681894,50.908617090515335,23.956589629048686
-0.1178,0.9679,-0.1015,-0.107,0.1706,0.1378,23.0825,7.0,3.9988,-5.979331165701699,-6.921566188565642,51.08234710946739,23.965392883357765
-0.1038,0.9789,-0.1103,-0.1104,0.1694,0.1332,22.6012,6.6062,3.5,-6.4115146253011925,-6.061808495108874,50.3781334942233,23.977621316375668
-0.1017,0.9843,-0.1113,-0.1136,0.1655,0.131,21.3325,6.3,3.6663,-6.449721284466305,-5.872112670727465,49.413952725407945,23.989770472680323
-0.1107,0.9941,-0.119,-0.1136,0.1655,0.131,20.1513,6.2737,2.87,-6.810169859910276,-6.286137361353709,49.23415377086331,24.00192281421007
-0.1149,0.9873,-0.1221,-0.1166,0.163,0.1283,18.935,5.6963,2.8612,-7.039250188810193,-6.572256990913942,48.23822786897318,24.014051443508617
-0.1088,0.9764,-0.1252,-0.1166,0.163,0.1283,17.9725,5.0838,2.8175,-7.294394874569535,-6.32117530068526,48.28577657991448,24.026222542474976
-0.1055,0.9662,-0.1262,-0.1188,0.1608,0.1198,17.3337,3.465,3.3688,-7.4344370968659925,-6.186755406308101,46.880982372787415,24.03502898200914
-0.0897,0.9567,-0.1313,-0.1188,0.1608,0.1198,17.4737,2.7125,2.765,-7.7963540022625,-5.3540499696900925,46.89332317562512,24.047179200055492
-0.0765,0.9523,-0.1328,-0.1222,0.1598,0.1226,17.6312,1.8725,2.1,-7.93201893816548,-4.59369573861348,47.00412537872133,24.059387459981185
-0.0737,0.9504,-0.1448,-0.1258,0.1566,0.1173,17.8237,1.3737,0.875,-8.628291190898572,-4.3963222110122855,46.818473313803004,24.071494500531934
-0.0624,0.9638,-0.1632,-0.1258,0.1566,0.1173,18.7775,1.0762,0.9363,-9.566337342317235,-3.696688548331985,46.793623855343384,24.083653566425745
-0.0583,0.9752,-0.1713,-0.1273,0.1574,0.1166,18.4013,1.1375,-0.0263,-9.94451024109087,-3.390339237158593,46.774348337828634,24.095844130656516
-0.0467,0.9862,-0.1842,-0.1273,0.1574,0.1166,17.395,0.8663,-0.5862,-10.54905841635118,-2.712452512864669,46.85579863520844,24.104698702480864
-0.0348,0.9864,-0.1931,-0.1297,0.1547,0.1158,16.73,0.5075,-2.0913,-11.050039593948748,-2.035750707209623,46.87832762513625,24.116857414460778
-0.0264,0.9883,-0.1987,-0.1314,0.1522,0.1107,12.7312,0.0875,-2.905,-11.348140882200104,-1.5413484353421332,46.31322224243065,24.12900126205696
-0.0281,0.9791,-0.1933,-0.1314,0.1522,0.1107,11.1037,0.2625,-4.0513,-11.18051739178069,-1.6067844697520326,45.99637454998898,24.141240312491814
-0.0343,0.97,-0.1942,-0.1336,0.1508,0.1095,10.325,0.84,-4.7512,-11.31100414955187,-1.9518247499244468,45.68218855222244,24.153420259305634
-0.0404,0.9651,-0.1968,-0.1336,0.1508,0.1095,10.1763,0.5862,-5.8013,-11.509697808672593,-2.3094864306259786,45.326456611379356,24.165606930483523
-0.0362,0.9646,-0.1961,-0.1338,0.1488,0.1034,8.9775,0.0613,-7.0175,-11.492919079877957,-2.129051033480651,44.32173726655462,24.177764934635643
-0.0257,0.9679,-0.2054,-0.1352,0.1456,0.1044,8.995,-0.7875,-7.6475,-11.94159530031862,-1.5655147988182265,43.93669451309145,24.18660605773185
-0.0215,0.9729,-0.2123,-0.1352,0.1456,0.1044,7.5338,-1.5662,-7.9625,-12.275956767268687,-1.2782504584757903,43.98464071383301,24.198807239379576
-0.0088,0.9863,-0.2236,-0.1384,0.1472,0.106,5.9063,-1.2425,-8.575,-12.71969555630096,-0.6049211483173598,44.185692343915164,24.210943300869992
-0.0061,0.9931,-0.23,-0.1384,0.1472,0.106,4.13,-1.4,-8.715,-12.9969680376357,-0.37930470475219413,44.37834417809815,24.22313705032585
-0.0049,0.9945,-0.2289,-0.1412,0.146,0.1018,2.6425,-1.295,-9.835,-12.967653233874463,-0.2922740756154185,43.355829748639295,24.235335046748485
-0.0072,0.9873,-0.2188,-0.1414,0.1473,0.1018,0.4462,-1.26,-10.6925,-12.619653576769176,-0.3857413513529099,42.88685062892252,24.247566311077577
-0.0199,0.9791,-0.2105,-0.1414,0.1473,0.1018,-1.2075,-1.4962,-12.075,-12.359412275350834,-0.9418309522226158,42.400186638191435,24.259819164154468
-0.0303,0.9687,-0.2013,-0.139,0.1455,0.1042,-2.0563,-2.0825,-13.9825,-12.215107438056606,-1.3315070564011406,42.62883749592092,24.272135013905277
-0.0265,0.972,-0.2013,-0.139,0.1455,0.1042,-2.7388,-2.5375,-16.5025,-12.07359881264233,-1.4531377839625208,42.742159813233926,24.284308944182822
-0.0229,0.9739,-0.204,-0.1405,0.1447,0.1011,-2.975,-2.9225,-16.8437,-11.980995175288687,-1.3642332162846724,42.08094439662602,24.296565690312597
-0.0167,0.9816,-0.2081,-0.1402,0.1451,0.1071,-3.5088,-2.45,-17.3075,-11.974865047736344,-1.0741950425229918,43.185897086710796,24.308814650336608
-0.0164,0.9818,-0.2104,-0.1402,0.1451,0.1071,-4.6638,-1.8463,-17.4475,-12.059028829125122,-0.9748182604189395,43.46206301346882,24.321010169361955
-0.0148,0.9783,-0.1981,-0.1459,0.1466,0.1068,-5.215,-1.0937,-17.6138,-11.605945503460765,-0.8832724217367874,42.560230460910866,24.32995286574701
-0.0309,0.9654,-0.184,-0.1459,0.1466,0.1068,-5.8888,0.4725,-17.57,-10.970806825937718,-1.550533015491863,42.104418182933905,24.342162895242193
-0.0439,0.9621,-0.1781,-0.1403,0.147,0.1006,-6.7112,1.6362,-17.325,-10.577922286715799,-2.271220889149787,41.69465789993428,24.354398406538063
-0.0453,0.9559,-0.1721,-0.138,0.1449,0.1065,-6.1075,2.2488,-17.9112,-10.284475122455758,-2.570726551740067,41.98345388436479,24.36660772820545
-0.042,0.9576,-0.1768,-0.138,0.1449,0.1065,-5.6438,2.135,-18.3137,-10.419506494758753,-2.4925946697432084,42.21623439881495,24.3788255438064
-0.0364,0.9679,-0.1726,-0.1387,0.146,0.1065,-5.25,2.5813,-18.795,-10.190256671493772,-2.1964279081384888,42.283462296200355,24.3910100915009
-0.0362,0.9787,-0.1713,-0.1387,0.146,0.1065,-5.2063,3.325,-19.4862,-9.996033631020278,-2.1062685323524812,42.26443441882627,24.403420436262582
-0.0478,0.9783,-0.1771,-0.1388,0.1482,0.1064,-4.8738,4.0775,-18.6637,-10.18562573203807,-2.6167866222187524,42.19432483546137,24.415511550687903
-0.0514,0.9775,-0.1725,-0.1375,0.149,0.1082,-5.915,4.1213,-18.9175,-10.046976084712249,-2.8949761584328826,42.51193063593887,24.427666369614933
-0.0543,0.969,-0.1626,-0.1375,0.149,0.1082,-5.8275,4.0338,-19.285,-9.642287829414318,-3.113352316693584,42.349165888588395,24.43990117308301
-0.0629,0.9689,-0.1578,-0.1359,0.1482,0.1085,-6.125,4.1563,-18.9,-9.332529079778588,-3.55553031863931,42.31394855439983,24.452126420875825
-0.0664,0.9661,-0.1603,-0.1359,0.1482,0.1085,-4.6988,3.7013,-18.8038,-9.394479995808164,-3.812884413282542,42.30594353812637,24.461125035656824
-0.0678,0.9686,-0.1575,-0.1378,0.1496,0.1016,-4.9,3.815,-18.2262,-9.280614293907886,-3.9200501295001287,40.8597201243278,24.4731584621167
-0.0716,0.9739,-0.1576,-0.1362,0.1486,0.109,-3.9813,3.2725,-17.815,-9.225876367233921,-4.091901618766776,41.71692076030301,24.485459447483777
-0.0635,0.9843,-0.1617,-0.1362,0.1486,0.109,-3.6925,2.8525,-17.7362,-9.284897190128381,-3.7597935191138125,42.14924055878479,24.497660629131502
-0.0625,0.9783,-0.161,-0.1342,0.1472,0.1093,-4.48,2.4325,-17.2025,-9.326055691320082,-3.653371938744701,42.54465192535216,24.509910650897208
-0.0606,0.9747,-0.1592,-0.1342,0.1472,0.1093,-4.445,2.065,-17.4825,-9.292453550710345,-3.550979672130348,42.695598614234854,24.522084227260855
-0.0595,0.9687,-0.1549,-0.1371,0.15,0.1105,-4.3925,1.7762,-16.5725,-9.153380397188583,-3.500885180142582,42.63590817423553,24.53429850372282
-0.0646,0.9637,-0.1589,-0.1369,0.1498,0.1099,-4.4363,0.945,-16.7388,-9.294862842730726,-3.6841390130078886,42.598692814401836,24.546529060224113
-0.0623,0.9643,-0.1527,-0.1369,0.1498,0.1099,-3.9813,0.5862,-16.695,-9.111387812262072,-3.662985254248047,42.49200354941875,24.558730241871835
-0.059,0.9637,-0.1557,-0.134,0.1496,0.1097,-3.0363,0.6125,-16.135,-9.138141716126109,-3.550273758856612,42.68803107187039,24.570977432326355
-0.06,0.9693,-0.1601,-0.134,0.1496,0.1097,-3.2025,0.2713,-15.7062,-9.248266934573683,-3.5256248416058202,42.891580624367414,24.58313402082288
-0.0637,0.9754,-0.1604,-0.1348,0.1479,0.1155,-3.5438,-0.14,-15.6012,-9.297159996266407,-3.5919272260823996,43.5455932075918,24.592074239810643
-0.0547,0.9765,-0.1629,-0.1346,0.1478,0.1092,-3.4038,-0.3588,-15.8638,-9.385903226632758,-3.3816993458636078,43.23051674311191,24.60430727370922
-0.0593,0.9744,-0.1535,-0.1346,0.1478,0.1092,-3.2025,0.3675,-15.9425,-9.187619027620752,-3.411538323732729,42.964364008251195,24.61659233295087
-0.0661,0.9737,-0.1538,-0.1359,0.1488,0.1119,-4.0425,-0.105,-16.3625,-9.054844178219307,-3.6634121074179387,42.89049986871403,24.628793160684694
-0.0641,0.9686,-0.1552,-0.1359,0.1488,0.1119,-4.1563,-0.7875,-16.2663,-9.08590749250983,-3.706791632100933,42.9231442179338,24.64111431914398
-0.0596,0.9645,-0.1508,-0.1364,0.1491,0.115,-3.255,-1.19,-17.5175,-8.991597328327346,-3.55266791499247,43.324183525250604,24.653304529460854
-0.0628,0.9661,-0.1558,-0.1341,0.1505,0.1119,-2.9925,-1.1112,-17.0888,-9.057276450395097,-3.634450072394775,43.371549548805916,24.665566584299103
-0.0648,0.9734,-0.1539,-0.1341,0.1505,0.1119,-3.3688,-1.26,-16.5375,-9.02067758278845,-3.7135636186236978,43.293724151478926,24.677765996377335
-0.0603,0.9687,-0.1488,-0.1358,0.1482,0.1096,-3.9288,-0.7875,-16.6688,-8.844864105774668,-3.5905243972963876,42.66749605676979,24.69004362342712
-0.0525,0.9651,-0.1532,-0.1355,0.1501,0.1131,-3.185,-0.9187,-17.15,-8.924002201129449,-3.234057277264455,43.26025065278301,24.70229187562333
-0.0536,0.9597,-0.1459,-0.1355,0.1501,0.1131,-2.7825,-0.7263,-17.2112,-8.840862856490244,-3.182713507344952,43.29399519889417,24.71454048173344
-0.0648,0.969,-0.1425,-0.1358,0.1486,0.1114,-1.4,-1.1375,-17.115,-8.608277832124408,-3.597574479906082,42.70094418934282,24.72676749909575
-0.0636,0.9773,-0.152,-0.1358,0.1486,0.1114,-1.19,-1.54,-17.4825,-8.733416935095788,-3.6564518047772956,42.7283453174536,24.739021413914337
-0.0606,0.9831,-0.1484,-0.1342,0.1515,0.1154,-0.5775,-2.0563,-17.7537,-8.637740660288209,-3.5317141367488625,43.63330131019747,24.751281699183096
-0.064,0.9786,-0.146,-0.1346,0.1488,0.1114,-0.7613,-1.5225,-17.29,-8.54410883458096,-3.6509560462148203,43.01476035758465,24.76354269227965
-0.0738,0.979,-0.1451,-0.1346,0.1488,0.1114,-0.7962,-1.05,-16.8437,-8.474866177059125,-4.0557943696167245,42.67317402144544,24.775818195846043
-0.0863,0.9783,-0.1494,-0.1346,0.1498,0.112,-1.9162,-2.5375,-16.415,-8.538728986108621,-4.614124433284433,42.53937909672836,24.788026101857835
