AcclX,AcclY,AcclZ,MagX,MagY,MagZ,GyroX,GyroY,GyroZ,Roll,Pitch,Yaw,Time Elapsed(s)
0.4945,0.0896,0.7526,-0.3694,0.4725,0.4033,-0.3325,1.12,-2.3625,0,0,0,0.0
0.4945,0.0896,0.7526,-0.369,0.4722,0.4081,-0.3325,1.12,-2.3625,0,0,0,0.0
0.4788,0.0798,0.7512,-0.369,0.4722,0.4081,-0.77,1.015,-2.24,0,0,0,0.01600000000325963
0.4975,0.0975,0.7581,-0.369,0.4722,0.4081,-0.5163,0.9013,-2.6337,0,0,0,0.01600000000325963
0.484,0.0752,0.753,-0.3685,0.473,0.4119,-1.0412,1.3125,-2.5463,0,0,0,0.0319999999992433
0.4905,0.0916,0.749,-0.3685,0.473,0.4119,-1.0412,1.3125,-2.5463,0,0,0,0.0319999999992433
0.4905,0.0916,0.749,-0.3688,0.4719,0.413,-0.2537,1.1375,-2.5725,0,0,0,0.046999999998661224
0.4872,0.0866,0.7754,-0.3688,0.4719,0.413,-0.77,0.8838,-2.0912,0,0,0,0.046999999998661224
0.4939,0.081,0.756,-0.3688,0.4719,0.413,-0.2625,0.5688,-2.4325,0,0,0,0.0629999999946449
0.4828,0.0916,0.763,-0.3689,0.4724,0.4075,-0.2625,0.5688,-2.4325,0,0,0,0.0629999999946449
0.4926,0.084,0.7601,-0.3689,0.4724,0.4075,-0.2013,0.5775,-2.9925,0,0,0,0.07800000000133878
0.4926,0.084,0.7601,-0.3682,0.4737,0.409,-1.1463,0.525,-2.1,0,0,0,0.07800000000133878
0.4787,0.089,0.756,-0.3682,0.4737,0.409,-0.3063,1.33,-2.625,0,0,0,0.09399999999732245
0.4919,0.0864,0.7588,-0.3682,0.4737,0.409,-0.3063,1.33,-2.625,0,0,0,0.09399999999732245
0.483,0.0781,0.7555,-0.3685,0.472,0.3955,-0.6913,1.2687,-2.1437,0,0,0,0.10999999999330612
0.4986,0.0937,0.756,-0.3685,0.472,0.3955,-0.4638,1.085,-2.695,0,0,0,0.10999999999330612
0.4986,0.0937,0.756,-0.3686,0.4717,0.407,-0.6388,0.9187,-2.59,0,0,0,0.125
0.4846,0.0807,0.7648,-0.3686,0.4717,0.407,-0.6388,0.9187,-2.59,0,0,0,0.125
0.492,0.0844,0.7551,-0.3686,0.4717,0.407,-0.3063,1.0063,-2.3363,0,0,0,0.14099999999598367
0.4868,0.0935,0.7697,-0.3683,0.4722,0.4073,-0.2975,0.9538,-2.4325,0,0,0,0.14099999999598367
0.4954,0.0794,0.7504,-0.3683,0.4722,0.4073,-0.2975,0.9013,-1.9425,0,0,0,0.1559999999954016
0.4954,0.0794,0.7504,-0.3688,0.4721,0.4086,-0.105,0.9013,-1.9425,0,0,0,0.1559999999954016
0.4789,0.0943,0.7632,-0.3688,0.4721,0.4086,0.2887,1.1988,-2.5725,0,0,0,0.17199999999138527
0.4976,0.0844,0.7496,-0.3688,0.4721,0.4086,-0.385,1.015,-2.3625,0,0,0,0.17199999999138527
0.4832,0.0819,0.754,-0.3683,0.4726,0.4055,-0.385,1.015,-2.3625,0,0,0,0.1879999999946449
0.4988,0.0957,0.7598,-0.3683,0.4726,0.4055,-0.2713,1.4262,-2.7562,0,0,0,0.20300000000133878
0.4937,0.0957,0.7598,-0.3694,0.4719,0.407,-0.5163,1.1113,-2.0912,0,0,0,0.20300000000133878
0.4812,0.0788,0.7577,-0.3694,0.4719,0.407,-0.0962,1.3563,-2.2313,0,0,0,0.21899999999732245
0.4976,0.0911,0.7573,-0.3694,0.4719,0.407,-0.0962,1.3563,-2.2313,0,0,0,0.21899999999732245
0.4845,0.0823,0.7722,-0.3681,0.4705,0.4031,-0.245,1.1463,-2.5812,0,0,0,0.23399999999674037
0.4845,0.0839,0.748,-0.3681,0.4705,0.4031,-0.5863,1.295,-2.3625,0,0,0,0.23399999999674037
0.4921,0.0839,0.748,-0.3682,0.4726,0.4091,-0.3325,0.91,-2.4588,0,0,0,0.24999999999272404
0.4798,0.0906,0.7627,-0.3682,0.4726,0.4091,-0.3325,0.91,-2.4588,0,0,0,0.24999999999272404
0.5009,0.0789,0.7515,-0.3682,0.4726,0.4091,-1.1463,0.665,-2.38,0,0,0,0.26599999999598367
0.4838,0.0888,0.7675,-0.3683,0.4722,0.4074,0.035,1.2163,-2.6513,0,0,0,0.26599999999598367
0.4838,0.0888,0.7573,-0.3683,0.4722,0.4074,-0.5337,1.1988,-2.6688,0,0,0,0.28100000000267755
0.4934,0.0866,0.7573,-0.3692,0.4724,0.4079,-0.5337,1.1988,-2.6688,0,0,0,0.28100000000267755
0.4756,0.0853,0.7627,-0.3692,0.4724,0.4079,-0.7437,1.19,-2.6775,0,0,0,0.2969999999986612
0.4934,0.0943,0.7434,-0.3692,0.4724,0.4079,-0.2187,0.945,-2.6163,0,0,0,0.2969999999986612
0.491,0.0806,0.7654,-0.3686,0.4727,0.4021,-0.7613,0.6825,-2.0563,0,0,0,0.31199999999807915
0.491,0.0806,0.7654,-0.3686,0.4727,0.4021,-0.7613,0.6825,-2.0563,0,0,0,0.31199999999807915
0.4987,0.0888,0.7638,-0.3682,0.4711,0.4079,-0.875,0.385,-2.45,0,0,0,0.3279999999940628
0.4756,0.0836,0.7548,-0.3682,0.4711,0.4079,-0.455,1.0588,-2.1788,0,0,0,0.3279999999940628
0.498,0.0821,0.7553,-0.3682,0.4711,0.4079,-0.8838,0.8662,-2.87,0,0,0,0.34399999999732245
0.4787,0.0903,0.7665,-0.3688,0.471,0.4096,-0.8838,0.8662,-2.87,0,0,0,0.34399999999732245
0.4787,0.0903,0.7665,-0.3688,0.471,0.4096,-0.7962,0.7525,-2.1962,0,0,0,0.35899999999674037
0.4956,0.0861,0.7538,-0.3673,0.4714,0.4085,-1.0412,0.77,-1.82,0,0,0,0.35899999999674037
0.4859,0.0854,0.7576,-0.3673,0.4714,0.4085,-0.1312,1.2337,-2.4325,0,0,0,0.37499999999272404
0.4957,0.0903,0.758,-0.3673,0.4714,0.4085,-0.1312,1.2337,-2.4325,0,0,0,0.37499999999272404
0.4842,0.0838,0.7671,-0.3686,0.4725,0.4092,-0.665,0.6475,-2.4325,0,0,0,0.3899999999994179
0.4842,0.0838,0.7671,-0.3686,0.4725,0.4092,-0.63,1.015,-2.7912,0,0,0,0.3899999999994179
0.4945,0.0921,0.7615,-0.3693,0.4711,0.4102,-0.63,1.015,-2.2838,0,0,0,0.4059999999954016
0.4832,0.0802,0.7551,-0.3693,0.4711,0.4102,-0.5688,1.1375,-2.2838,0,0,0,0.4059999999954016
0.494,0.0838,0.7501,-0.3693,0.4711,0.4102,-0.6562,1.1287,-2.1613,0,0,0,0.4219999999986612
0.4904,0.0896,0.7568,-0.3689,0.4747,0.411,-0.8487,1.3125,-2.4588,0,0,0,0.4219999999986612
0.4904,0.0896,0.7568,-0.3689,0.4747,0.411,-0.8487,1.3125,-2.4588,0,0,0,0.4369999999908032
0.4937,0.0849,0.7658,-0.3682,0.4722,0.4099,-0.8925,0.9013,-2.2138,0,0,0,0.4369999999908032
0.4823,0.0915,0.7668,-0.3682,0.4722,0.4099,-0.4462,1.2775,-2.2838,0,0,0,0.4529999999940628
0.4953,0.0806,0.7565,-0.3682,0.4722,0.4099,-1.26,0.7262,-2.5988,0,0,0,0.4529999999940628
0.486,0.0855,0.753,-0.3683,0.4722,0.4074,-1.26,0.7262,-2.5988,0,0,0,0.4680000000007567
0.486,0.0855,0.753,-0.3683,0.4722,0.4074,-0.2013,1.1463,-2.6775,0,0,0,0.4680000000007567
0.4857,0.0913,0.7595,-0.3687,0.4722,0.4102,-0.0263,1.12,-2.4062,0,0,0,0.48399999999674037
0.4898,0.0786,0.7621,-0.3687,0.4722,0.4102,-0.5688,1.1812,-2.6337,0,0,0,0.48399999999674037
0.4943,0.0897,0.7459,-0.3687,0.4722,0.4102,-0.5688,1.1812,-2.6337,0,0,0,0.5
0.4865,0.0825,0.7632,-0.3684,0.4725,0.4093,-0.7875,0.8662,-2.4325,0,0,0,0.5
0.4865,0.0825,0.7632,-0.3684,0.4725,0.4093,0.2013,1.05,-2.5988,0,0,0,0.514999999992142
0.4903,0.087,0.7635,-0.3688,0.4729,0.4074,0.07,1.015,-2.4675,0,0,0,0.514999999992142
0.485,0.0922,0.7717,-0.3688,0.4729,0.4074,0.07,1.015,-2.4675,0,0,0,0.5309999999954016
0.4877,0.0824,0.7557,-0.3688,0.4729,0.4074,-1.0762,1.225,-2.31,0,0,0,0.5460000000020955
0.4888,0.09,0.7645,-0.3683,0.4719,0.409,-0.7175,1.0325,-2.6513,0,0,0,0.5460000000020955
0.4888,0.09,0.7645,-0.3683,0.4719,0.409,-0.6913,0.6125,-2.485,0,0,0,0.5619999999980791
0.4924,0.0874,0.7658,-0.3686,0.4717,0.4103,-0.6913,0.6125,-2.485,0,0,0,0.5619999999980791
0.4854,0.0802,0.7487,-0.3686,0.4717,0.4103,-0.7613,0.7525,-2.485,0,0,0,0.5780000000013388
0.4887,0.0891,0.763,-0.3686,0.4717,0.4103,-0.735,0.7262,-2.2838,0,0,0,0.5780000000013388
0.4887,0.0797,0.7593,-0.3686,0.4722,0.41,-0.665,0.9363,-2.2838,0,0,0,0.5929999999934807
0.4878,0.0797,0.7593,-0.3686,0.4722,0.41,-0.665,0.9363,-2.2838,0,0,0,0.5929999999934807
0.4899,0.0905,0.7574,-0.3686,0.4734,0.4078,-0.28,0.945,-2.2313,0,0,0,0.6089999999967404
0.4863,0.0862,0.7724,-0.3685,0.4734,0.4078,-0.3237,0.8225,-2.59,0,0,0,0.6089999999967404
0.4946,0.0847,0.7602,-0.3685,0.4734,0.4078,-0.3237,0.9187,-2.4588,0,0,0,0.6239999999961583
0.4946,0.0847,0.7574,-0.3674,0.4723,0.4045,-0.3413,0.9187,-2.4588,0,0,0,0.6239999999961583
0.4822,0.0877,0.7574,-0.3674,0.4723,0.4045,-0.385,0.42,-2.7912,0,0,0,0.6399999999994179
0.4942,0.0805,0.7618,-0.3674,0.4723,0.4095,-0.2887,0.84,-2.73,0,0,0,0.6399999999994179
0.4913,0.0878,0.7675,-0.3691,0.473,0.4095,-0.2887,0.84,-2.6163,0,0,0,0.6559999999954016
0.4921,0.0839,0.755,-0.3691,0.473,0.4095,-0.5337,1.0412,-2.6163,0,0,0,0.6559999999954016
0.4921,0.0839,0.7538,-0.3686,0.4726,0.4051,-0.6913,1.26,-2.1962,0,0,0,0.6709999999948195
0.4835,0.0822,0.7538,-0.3686,0.4726,0.4051,-0.49,1.2513,-2.6075,0,0,0,0.6709999999948195
0.4907,0.0931,0.7623,-0.3686,0.4726,0.4256,-0.49,1.2513,-2.6075,0,0,0,0.6869999999980791
0.4989,0.0777,0.7667,-0.3681,0.4719,0.4106,-0.9275,0.9975,-2.8612,0,0,0,0.6869999999980791
0.4915,0.0907,0.759,-0.3681,0.4719,0.4106,-0.5512,1.12,-2.5375,0,0,0,0.7019999999974971
0.4915,0.0907,0.759,-0.3698,0.4731,0.4024,-0.6562,0.9363,-2.5812,0,0,0,0.7019999999974971
0.4854,0.0883,0.7698,-0.3698,0.4731,0.4024,-0.6562,0.9363,-2.5812,0,0,0,0.7179999999934807
0.4918,0.083,0.7577,-0.3698,0.4731,0.4024,-0.3063,1.0938,-2.66,0,0,0,0.7179999999934807
0.4846,0.0907,0.7529,-0.3686,0.4731,0.4071,-0.07,0.8662,-2.6775,0,0,0,0.7339999999967404
0.4942,0.0838,0.7648,-0.3686,0.4731,0.4071,-0.6562,0.9887,-2.3712,0,0,0,0.7339999999967404
0.4942,0.0838,0.7648,-0.3679,0.4717,0.4078,-0.6562,0.9887,-2.3712,0,0,0,0.7489999999961583
0.4913,0.0875,0.7595,-0.3679,0.4717,0.4078,-0.455,1.3388,-2.24,0,0,0,0.7489999999961583
0.4884,0.0881,0.7518,-0.3679,0.4717,0.4078,-1.05,0.9275,-2.6075,0,0,0,0.7649999999994179
0.4874,0.0852,0.77,-0.3679,0.4726,0.4084,-0.9363,0.7525,-2.3625,0,0,0,0.7649999999994179
0.4856,0.0915,0.7587,-0.3679,0.4726,0.4084,-0.9363,0.7525,-2.3625,0,0,0,0.7799999999915599
0.4856,0.0915,0.7587,-0.3682,0.4722,0.4064,-0.6212,1.2687,-2.8,0,0,0,0.7799999999915599
0.4877,0.0817,0.7656,-0.3682,0.4722,0.4064,-0.0787,1.4175,-2.6688,24.71446635940591,8.568396266318095,0.0,4.415000000000873
0.4912,0.0889,0.7581,-0.3682,0.4722,0.4064,0.0263,1.4875,-2.2575,44.824527317440214,9.742850360434725,0.02141999999462314,4.430999999996857
0.4884,0.0904,0.7628,-0.3686,0.4714,0.4064,0.0263,1.4875,-2.2575,58.00886044834204,10.845089480919363,0.03935924999438157,4.445999999996275
0.4877,0.0841,0.7444,-0.3686,0.4714,0.4064,-0.0525,1.3388,-2.1875,65.86002700298079,13.24382511540606,0.054702044998871005,4.461999999999534
0.4877,0.0841,0.7444,-0.3691,0.4722,0.4101,-0.5337,0.8313,-2.3187,66.49934644937125,13.443569348914531,0.06120256049597901,4.477999999995518
0.4896,0.0889,0.7629,-0.3691,0.4722,0.4101,-0.6388,0.5688,-2.135,68.60259789586055,16.263585227872813,0.06276110444980784,4.493000000002212
0.4953,0.0837,0.7673,-0.3691,0.4722,0.4101,-0.6388,0.5688,-2.135,70.4959444850513,18.69221033361375,0.06467571400277103,4.508999999998196
0.4865,0.088,0.7543,-0.3677,0.4723,0.4135,-0.4288,0.7788,-2.135,71.30748846734633,20.75524987866866,0.06872194260208594,4.5239999999976135
0.4902,0.0885,0.766,-0.3677,0.4723,0.4135,-0.0613,0.6913,-2.1962,74.97554863544633,21.935648237057038,0.07180446833937851,4.539999999993597
0.4902,0.0885,0.766,-0.3681,0.4714,0.4084,-0.0613,0.6913,-2.3537,77.53184132483398,22.389931396900863,0.07457874150746871,4.555999999996857
0.4842,0.0865,0.7528,-0.3681,0.4714,0.4084,-0.4988,0.7962,-2.3537,77.54709385852448,22.83034591270561,0.07786956736151854,4.571000000003551
0.4869,0.0914,0.7523,-0.3681,0.4714,0.4084,-0.665,1.225,-2.0563,78.34507622358261,24.822377379130565,0.08772261061291693,4.586999999992258
0.4898,0.0819,0.7575,-0.3686,0.471,0.408,-1.0762,0.9187,-2.2925,80.35821169682323,24.94714059891994,0.09135279955715994,4.601999999998952
0.4881,0.0845,0.7615,-0.3686,0.471,0.408,-1.0762,0.9187,-2.2925,81.57320312943264,25.066224040737147,0.09544679959812313,4.617999999994936
0.4881,0.0845,0.7615,-0.3679,0.4731,0.4074,-0.5512,0.84,-2.4938,81.68238766632774,26.228198152676004,0.09799811964077511,4.633999999998196
0.4907,0.0894,0.7721,-0.3679,0.4731,0.4074,-0.665,1.1375,-2.52,81.92974326539932,27.282019678732127,0.1035545576761017,4.6489999999976135
0.4801,0.0846,0.7435,-0.3679,0.4731,0.4074,-0.4112,1.33,-2.4588,82.0534398334033,27.987744198007547,0.11235110190368398,4.664999999993597
0.4934,0.0883,0.7754,-0.3682,0.4724,0.4145,-0.4112,1.33,-2.4588,82.1670430564722,28.551429061142347,0.11907099172132816,4.680000000000291
0.4778,0.0832,0.7627,-0.3682,0.4724,0.4145,-0.6913,0.9538,-2.73,82.42943489666051,29.548212544126894,0.12089861254574766,4.695999999996275
0.4834,0.0832,0.7627,-0.368,0.4724,0.4082,-0.9625,1.2687,-2.4237,82.85715327283867,29.823495750220363,0.12707803129489484,4.711999999999534
0.4876,0.0874,0.7638,-0.368,0.4724,0.4082,-0.8838,1.225,-2.275,83.02893909851824,29.906567408882783,0.13090772816476362,4.726999999998952
0.4881,0.0903,0.7563,-0.368,0.4724,0.4082,-0.8838,1.225,-2.275,83.07428599204573,29.99563739409543,0.13545695534385926,4.742999999994936
0.4884,0.0845,0.7534,-0.3684,0.4721,0.4009,-0.7875,1.26,-2.6775,83.19300014967358,30.748939949552085,0.13892125981706419,4.75800000000163
0.4884,0.0872,0.7602,-0.3684,0.4721,0.4009,-0.3588,1.3563,-2.5725,83.22482123413987,31.12491254080236,0.14455985383045517,4.7739999999976135
0.4856,0.0872,0.7602,-0.3688,0.4742,0.408,-0.0525,0.8838,-2.7037,83.2959927078182,31.48606036906495,0.14283058845000243,4.790000000000873
0.4893,0.0866,0.7723,-0.3688,0.4742,0.408,-0.0525,0.8838,-2.7037,83.39004222909716,31.68691627679231,0.14047882959875177,4.804999999993015
0.4867,0.0861,0.7532,-0.3688,0.4742,0.408,-0.7525,1.225,-2.5988,83.4081279526026,31.914895974523652,0.14407094664247036,4.820999999996275
0.4889,0.0886,0.754,-0.369,0.4735,0.3984,-0.595,1.0412,-2.7387,83.39823586974703,32.175299261949704,0.14372005198449603,4.836000000002969
0.4889,0.0886,0.7593,-0.369,0.4735,0.3984,-0.6825,1.1113,-2.485,83.38979101503504,32.23910877151947,0.1453507667820294,4.851999999998952
0.4845,0.0813,0.7593,-0.3685,0.4723,0.4079,-0.6825,1.1113,-2.485,83.46810366531153,32.262274759416904,0.14681841009980948,4.867999999994936
0.4917,0.0876,0.756,-0.3685,0.4723,0.4079,-0.315,0.8487,-2.2487,83.45618921527218,32.29632022003952,0.1435940190893839,4.882999999994354
0.4843,0.083,0.7613,-0.3685,0.4723,0.4079,-0.35,0.4988,-2.8175,83.49723478355466,32.30070373479296,0.13641733718190882,4.8989999999976135
0.4901,0.0841,0.7546,-0.3676,0.4721,0.4098,-0.5163,0.2537,-2.6425,83.50005853511922,32.436150983363646,0.12620055346524636,4.914000000004307
0.4901,0.0841,0.7546,-0.3676,0.4721,0.4098,-0.5163,0.2537,-2.6425,83.50282668561297,32.53768717473884,0.11723377811614336,4.929999999993015
0.4868,0.0883,0.759,-0.3697,0.4722,0.4089,-0.7788,0.6562,-2.9575,83.47228249381152,32.522907131497526,0.11495968030645409,4.945999999996275
0.4882,0.0831,0.7493,-0.3697,0.4722,0.4089,-0.7262,0.9712,-2.4413,83.50954357460603,32.570147927010396,0.11657491227529991,4.960999999995693
0.4868,0.0842,0.7639,-0.3697,0.4722,0.4089,-0.9275,1.19,-2.555,83.56995549693598,32.5268109300917,0.12205342105126099,4.976999999998952
0.486,0.0852,0.7605,-0.3681,0.4727,0.4088,-0.9275,1.19,-2.555,83.58133466561782,32.505457200611474,0.1259130789455115,4.99199999999837
0.486,0.0852,0.7605,-0.3681,0.4727,0.4088,-0.8487,0.665,-2.485,83.58821095695494,32.49246140125157,0.12289777104855658,5.007999999994354
0.4903,0.0828,0.7689,-0.3686,0.4728,0.4064,-0.385,0.9538,-2.6163,83.61478341827853,32.46473423572047,0.12434271394649907,5.0239999999976135
0.4848,0.0898,0.7566,-0.3686,0.4728,0.4064,-0.385,0.9538,-2.6513,83.57640249681012,32.46567048821663,0.1247847425513495,5.038999999997031
0.4851,0.082,0.7636,-0.3686,0.4728,0.4064,-0.3938,0.6037,-2.6513,83.60374453242765,32.417890352917816,0.12099954829798562,5.055000000000291
0.4948,0.0885,0.7508,-0.3695,0.4725,0.4021,-0.8487,0.8487,-2.415,83.51867232844371,32.49360867347299,0.12035704346218487,5.069999999992433
0.4948,0.0885,0.7508,-0.3695,0.4725,0.4021,-0.9538,0.8313,-2.6163,83.44290458514463,32.66096365112914,0.12029205911840514,5.085999999995693
0.4914,0.0875,0.7619,-0.3686,0.4722,0.4082,-0.9538,0.8313,-2.6163,83.44469218737716,32.658363210635876,0.1202335732090034,5.101999999998952
0.4855,0.086,0.7608,-0.3686,0.4722,0.4082,-0.735,0.7962,-2.6775,83.46513066324057,32.5830710567316,0.11895891588768596,5.11699999999837
0.4877,0.0903,0.7643,-0.3686,0.4722,0.4082,-0.1138,1.0588,-2.485,83.4089095070724,32.54992975920808,0.12230974430202353,5.13300000000163
0.486,0.0837,0.7505,-0.3693,0.473,0.4103,-0.1225,1.2075,-2.485,83.47078324877404,32.58210947941543,0.12638001986328146,5.147999999993772
0.486,0.0837,0.7505,-0.3693,0.473,0.4103,-0.1225,1.2075,-2.485,83.51582445946393,32.60946202277133,0.13113001788049572,5.163999999997031
0.4859,0.0878,0.756,-0.3691,0.4722,0.4022,-0.245,0.9712,-2.625,83.48764761854736,32.59649760235145,0.13200229609529532,5.180000000000291
0.49,0.0875,0.7542,-0.3691,0.4722,0.4022,-0.315,1.1287,-2.4413,83.47148628795696,32.62466882988943,0.1340395164851745,5.194999999999709
0.4864,0.087,0.7598,-0.3691,0.4722,0.4022,-0.3588,1.3388,-2.59,83.47104858664692,32.58781259668066,0.1399142848318177,5.210999999995693
0.4873,0.087,0.7519,-0.3682,0.4728,0.4106,-0.3588,1.3388,-2.59,83.46244501692702,32.628551376844456,0.14399665634793457,5.225999999995111
0.4873,0.087,0.7519,-0.3682,0.4728,0.4106,-0.2362,1.2775,-2.555,83.44952482210083,32.65717053464199,0.14799299071688887,5.24199999999837
0.4856,0.0851,0.763,-0.3679,0.4733,0.407,-0.4638,0.9538,-2.6075,83.45537656435162,32.57815954094497,0.1469284116479981,5.25800000000163
0.4937,0.0839,0.7501,-0.3679,0.4733,0.407,-0.1575,0.7175,-3.08,83.49649570333881,32.8440490497694,0.14192182047812396,5.272999999993772
0.4944,0.0861,0.7556,-0.3679,0.4733,0.407,-0.1575,0.7175,-3.08,83.49718812605606,32.92424444659681,0.13806163843241648,5.288999999997031
0.4917,0.0868,0.7662,-0.3687,0.4728,0.413,-0.8138,0.8838,-2.5988,83.50671814504335,32.834203294382874,0.13618677458871184,5.303999999996449
0.4917,0.0868,0.7662,-0.3687,0.4728,0.413,-0.2275,1.2862,-2.2662,83.51307378048331,32.82160915436443,0.14108937713361394,5.319999999999709
0.4915,0.0878,0.7641,-0.3675,0.4717,0.4058,-0.42,0.9975,-2.0738,83.50825974842796,32.77568349167529,0.1413444394166469,5.335999999995693
0.4844,0.0834,0.7639,-0.3675,0.4717,0.4058,-0.42,0.9975,-2.0738,83.52674714613953,32.67119783961691,0.14067624547445964,5.350999999995111
0.4885,0.0838,0.7442,-0.3675,0.4717,0.4058,-0.07,1.1812,-2.3888,83.54126316087248,32.7042451233702,0.14361790093047894,5.36699999999837
0.4903,0.0869,0.7597,-0.3688,0.4722,0.4112,-0.035,1.1025,-2.3012,83.5201760889661,32.70398317801636,0.14413986083685348,5.381999999997788
0.4903,0.0869,0.7597,-0.3688,0.4722,0.4112,-0.525,0.7613,-2.625,83.51889679582122,32.695380540516055,0.14068859475540155,5.398000000001048
0.4846,0.0843,0.7652,-0.3683,0.4722,0.4073,-0.525,0.7613,-2.625,83.52433440281277,32.573888830224256,0.13758245527710952,5.413999999997031
0.4947,0.088,0.7676,-0.3683,0.4722,0.4073,-0.9975,0.6913,-2.9137,83.502849384317,32.59531524690444,0.13315675974903643,5.428999999996449
0.4864,0.0861,0.7624,-0.3683,0.4722,0.4073,-1.1638,0.7525,-2.31,83.5244171664018,32.594986523581916,0.13067708377634038,5.444999999999709
0.4877,0.0866,0.7528,-0.3685,0.4726,0.4075,-1.1638,0.7525,-2.345,83.48970175093484,32.60098695014302,0.12776812539831214,5.459999999999127
0.4877,0.0866,0.7528,-0.3685,0.4726,0.4075,-0.7175,0.9187,-2.345,83.48027956421299,32.60677618540188,0.1282205928611761,5.4760000000023865
0.4886,0.0839,0.7649,-0.3684,0.4727,0.4111,-0.595,1.1287,-2.7825,83.50366476899772,32.54486314528617,0.13165181356358743,5.491999999991094
0.4958,0.0866,0.7425,-0.3684,0.4727,0.4111,-0.5425,1.155,-2.45,83.49675532816329,32.669971527710764,0.134079132214187,5.506999999997788
0.4864,0.0882,0.7698,-0.3684,0.4727,0.4111,-0.5425,1.155,-2.45,83.49529856615587,32.60160270164678,0.1373032189961567,5.523000000001048
0.4864,0.0863,0.7507,-0.3687,0.4722,0.4078,-0.4462,1.435,-2.5638,83.49276467709389,32.63563430441388,0.1429453970863924,5.53799999999319
0.4924,0.0863,0.7507,-0.3687,0.4722,0.4078,-0.8575,1.225,-2.7387,83.47931853297753,32.77213593502068,0.14629085738134692,5.553999999996449
0.4862,0.0858,0.7666,-0.3687,0.4719,0.4126,-0.3938,1.155,-2.73,83.49181875266784,32.60930345574588,0.14829377163903726,5.569999999992433
0.4896,0.0861,0.7552,-0.3693,0.4719,0.4126,-0.3938,1.155,-2.73,83.49219034585222,32.66196048559646,0.14905689448209183,5.584999999999127
0.4929,0.0825,0.7636,-0.3693,0.4719,0.4126,-0.245,1.4262,-2.5025,83.56074400799324,32.66663566390171,0.15468848502872737,5.600999999995111
0.4929,0.0825,0.7441,-0.3674,0.4722,0.4113,-0.6212,1.1638,-2.5725,83.57325238151127,32.81143879275447,0.15493093652524495,5.6159999999945285
0.4912,0.0867,0.7441,-0.3674,0.4722,0.4113,-0.7175,0.9538,-2.7738,83.53353633515344,32.951483546564816,0.1531725628755186,5.631999999997788
0.4782,0.0845,0.7715,-0.3674,0.4722,0.4132,-0.7175,0.9538,-2.7738,83.57266441015723,32.53477509786807,0.15159002658451903,5.647999999993772
0.4929,0.0877,0.7596,-0.3682,0.4721,0.4132,-0.1925,1.2337,-2.6688,83.53571284579066,32.606694615240784,0.15308597393349954,5.663000000000466
0.4916,0.089,0.7556,-0.3682,0.4721,0.4132,-1.0325,0.9887,-1.8375,83.44723208141068,32.69042853796071,0.15201465653657573,5.678999999996449
0.4916,0.089,0.7535,-0.3686,0.4704,0.4088,-1.3388,0.9363,-2.2225,83.36330275148251,32.710190744981304,0.14945324088242767,5.693999999995867
0.486,0.0842,0.7535,-0.3686,0.4704,0.4088,-1.3388,0.9363,-2.2225,83.48248071994946,32.70620634741038,0.1479906367969317,5.709999999999127
0.4799,0.0884,0.7647,-0.3686,0.4704,0.4076,-0.9013,0.9275,-2.3275,83.46038143283248,32.69193497658497,0.14654757311388592,5.725999999995111
0.4923,0.0837,0.7606,-0.3697,0.4715,0.4076,-0.5163,1.2687,-2.24,83.4654968171162,32.696039784032074,0.1490202658101406,5.741000000001804
0.4874,0.0838,0.7693,-0.3697,0.4715,0.4076,-0.035,0.945,-2.38,83.56579826840695,32.66323186521408,0.14772623922571065,5.756999999997788
0.4874,0.0838,0.7537,-0.3688,0.4724,0.4125,-0.035,0.945,-2.38,83.59415458558425,32.66765282773014,0.14571111530264452,5.771999999997206
0.4884,0.0892,0.7581,-0.3688,0.4724,0.4125,-0.0263,0.9363,-2.555,83.4966917864782,32.656700591200526,0.14462272377512686,5.788000000000466
0.4879,0.0869,0.7558,-0.3688,0.4724,0.4125,-0.5688,0.9013,-2.6513,83.49292802082891,32.66078569988863,0.14313917139435625,5.803999999996449
0.4872,0.0849,0.7571,-0.3682,0.4715,0.4094,-0.5863,1.4612,-2.2838,83.50191475309745,32.65929297776697,0.14855145425415517,5.818999999995867
0.4843,0.0835,0.7676,-0.3682,0.4715,0.4094,-0.5863,1.4612,-2.2838,83.5258663361771,32.64572996238591,0.15473758882345787,5.834999999991851
0.4843,0.0835,0.7676,-0.3681,0.4724,0.4082,-0.7088,0.8575,-2.5725,83.57247847489059,32.53114210200371,0.15084007994627807,5.849999999998545
0.495,0.0871,0.7615,-0.3681,0.4724,0.4082,-0.7613,0.7088,-2.3363,83.55203047834111,32.539902847476,0.14596279194908818,5.8659999999945285
0.4918,0.0885,0.7471,-0.3681,0.4724,0.4082,-0.8138,1.085,-2.1175,83.47786499793952,32.64143669186335,0.14699051275736238,5.881999999997788
0.4842,0.0813,0.7554,-0.3688,0.4718,0.4122,-0.8138,1.085,-2.1175,83.56929390264901,32.62028372819157,0.14693896148105776,5.896999999997206
0.4893,0.0886,0.7562,-0.3688,0.4718,0.4122,-0.875,0.5337,-2.3625,83.50009816641028,32.62575086042112,0.13993034533102283,5.91299999999319
0.4893,0.0886,0.7562,-0.369,0.472,0.4073,-0.35,1.1638,-2.3975,83.47679533650177,32.6340264547918,0.14164861080493185,5.927999999999884
0.4889,0.0848,0.7595,-0.369,0.472,0.4073,-0.35,1.1638,-2.5113,83.49623322118707,32.629736742308324,0.1442424697202319,5.943999999995867
0.4899,0.0867,0.7515,-0.369,0.472,0.4073,-0.7962,1.0938,-2.5113,83.47839315723749,32.67987340843052,0.14556894275141755,5.959999999999127
0.4928,0.0844,0.7588,-0.3694,0.4725,0.4021,-0.4112,1.3125,-2.4062,83.49208808368131,32.69419991947186,0.1487307984755882,5.974999999998545
0.4864,0.0858,0.7718,-0.3694,0.4725,0.4021,-0.4112,1.1025,-2.2487,83.50497408290717,32.658473492794,0.1497337186240442,5.9909999999945285
0.4864,0.0858,0.7718,-0.3694,0.4712,0.4108,-0.4112,1.1025,-2.2487,83.51685042664637,32.62476359236009,0.14964409676828178,6.006000000001222
0.4834,0.0867,0.7546,-0.3694,0.4712,0.4108,-0.21,1.085,-2.345,83.50102300380331,32.619435677202084,0.15030368708753164,6.021999999997206
0.4881,0.085,0.7612,-0.3694,0.4712,0.4108,-0.455,0.9625,-1.9775,83.50606559188371,32.591691806787345,0.14913331838160215,6.038000000000466
0.4919,0.0875,0.7524,-0.3686,0.4722,0.4114,-0.5863,1.3038,-2.3975,83.4945409589893,32.625022778487384,0.15182128654275892,6.052999999999884
0.492,0.0863,0.7573,-0.3686,0.4722,0.4114,-0.5863,1.3038,-2.3975,83.49488986326948,32.642767342696345,0.1554138778837702,6.068999999995867
0.492,0.0863,0.7573,-0.369,0.4718,0.4115,-0.4025,0.5512,-2.4413,83.49522171928722,32.666142795277544,0.14731369009871387,6.084000000002561
0.4893,0.0838,0.7652,-0.369,0.4718,0.4115,-0.035,0.4812,-2.555,83.57571006087967,32.62175833783062,0.13951160108395202,6.099999999991269
0.4824,0.0891,0.759,-0.369,0.4718,0.4115,-0.315,1.2337,-2.3275,83.5341207997413,32.6150517214346,0.1433257209791761,6.1159999999945285
0.4943,0.088,0.7572,-0.367,0.4723,0.4046,-0.315,1.2337,-2.3275,83.50908943201497,32.62149186281879,0.1456480988806122,6.130999999993946
0.49,0.0847,0.7643,-0.367,0.4723,0.4046,-0.07,1.2775,-2.5463,83.55904852831699,32.599236230852966,0.14947928899629875,6.146999999997206
0.49,0.0847,0.7643,-0.3695,0.4726,0.407,-0.56,0.9187,-2.625,83.56607695244462,32.57673550063978,0.14693381009618758,6.161999999996624
0.4862,0.087,0.7471,-0.3695,0.4726,0.407,0.0613,1.0762,-2.3363,83.49152652135899,32.58491162529694,0.14773770908267872,6.177999999992608
0.482,0.0859,0.7542,-0.3695,0.4726,0.407,0.0613,1.0762,-2.3363,83.49537128717937,32.5803145300537,0.14846121817756808,6.193999999995867
0.4877,0.0874,0.7591,-0.3674,0.472,0.415,-0.3325,1.1725,-2.3975,83.48646924197628,32.57769456068355,0.14944384635919705,6.208999999995285
0.4873,0.0852,0.7571,-0.3674,0.472,0.415,-0.7962,0.7175,-2.6425,83.50787977728666,32.58405564513502,0.14483146172538225,6.224999999998545
0.4873,0.0852,0.7571,-0.3684,0.4715,0.4086,-0.9275,0.9187,-2.4675,83.52938606621136,32.58666827118076,0.14275076555236274,6.239999999997963
0.4907,0.0866,0.763,-0.3684,0.4715,0.4086,-0.9275,0.9187,-2.4675,83.52796707919971,32.58565055569976,0.14170496899380564,6.255999999993946
0.4864,0.0856,0.7611,-0.3684,0.4715,0.4086,-0.9625,0.6475,-2.38,83.54546108239443,32.57449629018609,0.13685847209632462,6.271999999997206
0.4891,0.0856,0.7516,-0.3682,0.472,0.4122,-0.4638,0.945,-2.5113,83.54411411233426,32.626896566367115,0.1359301248861971,6.286999999996624
0.4858,0.0851,0.7615,-0.3682,0.472,0.4122,-0.4375,1.0938,-2.59,83.54851530053531,32.571542890036596,0.13808783240078623,6.302999999999884
0.4858,0.0851,0.7615,-0.3685,0.4716,0.4065,-0.4375,1.0938,-2.59,83.55267240831043,32.52834777475542,0.1390453491601346,6.3179999999993015
0.4898,0.0875,0.7676,-0.3685,0.4716,0.4065,-0.5163,0.84,-2.3888,83.55157283407154,32.51688992342492,0.1372368142410848,6.333999999995285
0.4881,0.0828,0.752,-0.3685,0.4716,0.4065,-0.84,0.98,-2.7738,83.59381262663283,32.615963940613234,0.13762513281985134,6.349999999998545
0.4934,0.0897,0.7556,-0.3693,0.4732,0.4031,-0.735,1.26,-2.3363,83.5236648214978,32.6252872570286,0.14087261953720615,6.364999999997963
0.4934,0.0852,0.7619,-0.3693,0.4732,0.4031,-0.735,1.26,-2.3363,83.54211235668788,32.629050734702545,0.14492935757893102,6.380999999993946
0.49,0.0852,0.7619,-0.3684,0.4723,0.4081,-0.5163,0.9712,-2.1525,83.54363355613206,32.6230358755628,0.14354762182052913,6.395999999993364
0.4833,0.0889,0.7532,-0.3684,0.4723,0.4081,-0.3063,0.805,-2.2313,83.49972736124722,32.61470874853445,0.14078485964083784,6.411999999996624
0.4896,0.0844,0.7629,-0.3684,0.4723,0.4081,-0.3063,0.805,-2.205,83.5296184938216,32.60700483360815,0.13829837367911568,6.427999999999884
0.4918,0.0853,0.7711,-0.3678,0.4725,0.4063,-0.5512,1.0675,-2.205,83.53784926768793,32.584918216734906,0.13887978630365452,6.4429999999920256
0.4918,0.0853,0.7546,-0.3678,0.4725,0.4063,-0.2275,1.1025,-2.135,83.54056276922692,32.63558219095591,0.14086780767652346,6.458999999995285
0.4905,0.0903,0.7546,-0.3693,0.473,0.4082,-0.4025,1.0938,-2.52,83.5093331923145,32.6710119727907,0.1415473269082981,6.473999999994703
0.4912,0.087,0.7656,-0.3693,0.473,0.4082,-0.4025,1.0938,-2.52,83.50998380221733,32.64411316602482,0.14314331422067714,6.489999999997963
0.4881,0.0827,0.7562,-0.3693,0.473,0.4082,-0.0437,0.7962,-2.5025,83.58749575284214,32.65088482208161,0.1402942628009452,6.506000000001222
0.4926,0.0854,0.7654,-0.3682,0.4729,0.4069,-0.455,1.1725,-2.3012,83.58931744486603,32.65054145593728,0.1420935865125585,6.520999999993364
0.4926,0.0854,0.7654,-0.3682,0.4729,0.4069,-0.2275,1.4088,-2.345,83.59867918866213,32.648890481708655,0.14817094786543558,6.536999999996624
0.4914,0.0883,0.7522,-0.3682,0.4718,0.4103,-0.2275,1.4088,-2.345,83.53642445353428,32.6604265614039,0.152372653078154,6.551999999996042
0.4872,0.0844,0.7504,-0.3682,0.4718,0.4103,-0.175,1.2337,-2.6775,83.54768014940315,32.70600440785454,0.1549006677739579,6.5679999999993015
0.4934,0.0843,0.7619,-0.3682,0.4718,0.4103,-0.3938,1.2425,-2.205,83.56055062921997,32.71181164957263,0.1573026010002072,6.584000000002561
0.4956,0.0869,0.7651,-0.3681,0.4722,0.4113,-0.8662,0.9712,-2.0563,83.54963139745122,32.722757287955766,0.15468354089331793,6.598999999994703
0.4956,0.0869,0.7651,-0.3681,0.4722,0.4113,-0.8662,0.9712,-2.0563,83.54166107383568,32.73149827466987,0.1532004668068353,6.614999999997963
0.4826,0.0852,0.7554,-0.3683,0.4726,0.4131,-0.3588,1.3125,-2.5638,83.54447140567979,32.665929839690854,0.1555991701254642,6.629999999997381
0.4901,0.0885,0.7789,-0.3683,0.4726,0.4131,-0.5688,1.3475,-2.8788,83.54266317140842,32.429001164764166,0.1594432531168709,6.64600000000064
0.4932,0.0885,0.7629,-0.3683,0.4726,0.4131,-0.28,1.0325,-2.415,83.51427801529653,32.455804392091174,0.15836692780821282,6.6620000000039
0.4832,0.0904,0.766,-0.3694,0.473,0.4126,-0.28,1.0325,-2.415,83.47073256318455,32.41825150502691,0.15646898502008946,6.676999999996042
0.4832,0.0904,0.766,-0.3694,0.473,0.4126,-0.4025,1.0237,-2.52,83.45347578580291,32.35668729068498,0.15556336652108374,6.6929999999993015
0.4876,0.0867,0.7519,-0.3685,0.4723,0.4113,-0.7088,0.9625,-2.31,83.44802661860189,32.357328414391844,0.15300077986847113,6.707999999998719
0.4923,0.0877,0.7779,-0.3685,0.4723,0.4113,-0.5512,0.8138,-2.24,83.45426228703558,32.344976559322106,0.14941942187868237,6.723999999994703
0.4911,0.0846,0.7642,-0.3685,0.4723,0.4113,-0.5512,0.8138,-2.24,83.46617632411787,32.35925407615808,0.14619619969320155,6.739999999997963
0.4853,0.0875,0.7503,-0.3686,0.4726,0.4118,-0.6388,1.0412,-2.8875,83.45145525457605,32.49112042699109,0.14563277972333596,6.754999999997381
0.4853,0.0875,0.7503,-0.3686,0.4726,0.4118,-0.665,0.7437,-2.7562,83.4365457264465,32.56155170100886,0.14177878175318415,6.77100000000064
0.4863,0.0848,0.7485,-0.3678,0.4728,0.4072,-0.7525,0.9625,-2.2662,83.45690307211231,32.573062444459026,0.14059465357105871,6.785999999992782
0.4872,0.0861,0.7609,-0.3678,0.4728,0.4072,-0.7525,0.9625,-2.2662,83.47469751116485,32.56871187883245,0.14039518821677652,6.801999999996042
0.4857,0.087,0.7568,-0.3678,0.4728,0.4072,-0.175,1.1725,-2.205,83.46679540297576,32.56422249197513,0.1432396693985386,6.8179999999993015
0.4848,0.0892,0.7631,-0.3678,0.4725,0.4068,-0.1925,1.1375,-2.5638,83.4355935278086,32.50077110367572,0.14427195245808885,6.832999999998719
0.4848,0.0892,0.7631,-0.3678,0.4725,0.4068,-0.1925,1.1375,-2.0563,83.41166046030517,32.450707371433666,0.14622475721561703,6.849000000001979
0.4921,0.0847,0.7604,-0.3686,0.4735,0.4065,-0.2362,1.0938,-2.0563,83.45962531666763,32.5106634752256,0.14636858148631973,6.863999999994121
0.4911,0.0845,0.7569,-0.3686,0.4735,0.4065,-0.315,1.085,-2.275,83.48574773734323,32.52053165328133,0.14735572334087077,6.879999999997381
0.4947,0.0855,0.7611,-0.3686,0.4735,0.4065,-0.6212,1.3125,-2.5287,83.49737604569198,32.58162986666883,0.15152015100203942,6.895999999993364
0.4885,0.0872,0.7596,-0.3694,0.4717,0.4067,-0.6212,1.3125,-2.5287,83.49225347220464,32.580385568438615,0.15408688590974262,6.911000000000058
0.4885,0.0872,0.7596,-0.3694,0.4717,0.4067,-0.455,1.015,-2.4413,83.49063117060676,32.57972314802472,0.15329419732174604,6.927000000003318
0.4961,0.089,0.7557,-0.3692,0.472,0.4071,-0.3237,1.0588,-2.065,83.460100414182,32.682237427352916,0.15225857758208336,6.94199999999546
0.4937,0.085,0.7516,-0.3692,0.472,0.4071,-0.5688,1.2687,-2.2225,83.4660297181539,32.7179147300018,0.15530199982759696,6.957999999998719
0.4867,0.0858,0.7674,-0.3692,0.472,0.4071,-0.5688,1.2687,-2.2225,83.47648175844563,32.67870703001482,0.15804107984025131,6.973999999994703
0.4867,0.0831,0.7524,-0.3669,0.4708,0.4086,-1.1463,1.0325,-2.2662,83.56352580366601,32.68116080511344,0.15617572186244646,6.989000000001397
0.4937,0.0831,0.7524,-0.3669,0.4708,0.4086,-0.8925,0.8838,-2.1088,83.6015274663647,32.75295573219555,0.15328486967300717,7.004999999997381
0.4896,0.0847,0.7662,-0.3689,0.4731,0.4112,-1.1725,0.6475,-2.4762,83.63795510628326,32.7052581182895,0.14669763270536723,7.019999999996799
0.4856,0.0873,0.7447,-0.3689,0.4731,0.4112,-1.1725,0.6475,-2.4762,83.50718643112553,32.737344354819484,0.14135186943673006,7.036000000000058
0.489,0.0878,0.7695,-0.3689,0.4731,0.4112,-0.5688,0.9538,-2.3712,83.50607061279727,32.709633565580106,0.14095140248960936,7.051999999996042
0.489,0.0874,0.7521,-0.3693,0.4719,0.4038,-0.3413,0.9625,-2.66,83.48802081493969,32.74762712984787,0.1398500122401442,7.06699999999546
0.4903,0.0874,0.7521,-0.3693,0.4719,0.4038,-0.4812,1.26,-2.4062,83.48629733571097,32.763418919978676,0.14400901101982622,7.082999999998719
0.4911,0.0874,0.7656,-0.3693,0.4718,0.4071,-0.4812,1.26,-2.4062,83.48631327011837,32.74087727328572,0.14661810991718352,7.097999999998137
0.4881,0.0851,0.754,-0.3691,0.4718,0.4071,-0.5075,0.9187,-2.3975,83.48714207113947,32.741760919143985,0.14518557892816034,7.114000000001397
0.4921,0.0868,0.758,-0.3691,0.4718,0.4071,-0.7262,1.295,-2.38,83.48345208300286,32.74709684740281,0.14931502103066327,7.129999999997381
0.4921,0.0868,0.7664,-0.369,0.4726,0.4049,-1.155,0.3938,-2.5988,83.5052739113775,32.70015571829282,0.13969981892739067,7.144999999996799
0.4901,0.0875,0.7664,-0.369,0.4726,0.4049,-1.155,0.3938,-2.5988,83.49791100564445,32.63939425363432,0.13140055703322814,7.160999999992782
0.4629,0.1459,0.7777,-0.3699,0.4706,0.4061,0.315,1.7675,-2.3537,81.65112851427588,32.539483775186596,0.14212175134055363,7.175999999999476
0.4967,0.019,0.6985,-0.3709,0.471,0.4054,0.315,1.7675,-2.3537,84.69259534882092,32.66341385300749,0.15336157621168353,7.192000000002736
0.459,0.1207,0.7913,-0.3693,0.4709,0.4136,2.5988,1.855,-3.5,82.14910743365212,31.123502124066594,0.16473741858380994,7.207999999998719
0.4697,0.0376,0.7975,-0.3693,0.4709,0.4136,-2.4762,0.4288,-1.2075,85.57194002626568,30.780416974401767,0.15405247672520433,7.222999999998137
0.5017,0.1679,0.7077,-0.3699,0.4699,0.4075,-1.4175,0.3237,-1.7413,81.29540277691342,32.161646631344794,0.14330850905151385,7.238999999994121
0.5157,0.1509,0.7402,-0.3698,0.4706,0.4082,-0.1312,1.2775,-2.3363,80.54183918397432,32.219981620633135,0.14622390815405875,7.254000000000815
0.4675,0.0747,0.7844,-0.3704,0.4716,0.4082,-2.5375,0.98,-1.8025,83.23880398303761,31.70295035759611,0.14571351734152788,7.2700000000040745
0.4546,0.1402,0.7741,-0.3704,0.4716,0.4082,1.4088,1.9075,-3.6925,80.94062376539534,30.727082884171438,0.15861016558798907,7.285999999992782
0.5242,0.033,0.769,-0.3702,0.4714,0.4089,1.1375,1.9338,-3.2462,85.03599507870273,32.43495692656362,0.16885544904084032,7.300999999999476
0.5039,0.0935,0.7463,-0.3694,0.4702,0.4094,-1.225,0.7788,-1.89,84.1182289866988,32.84375049479485,0.16318462413394116,7.31699999999546
0.5068,0.1348,0.7548,-0.3684,0.4715,0.4079,-0.6825,1.9162,-1.8813,83.45178872203128,33.029363283802496,0.17273486171954322,7.331999999994878
0.478,0.0495,0.7646,-0.3684,0.451,0.4073,-1.6888,0.8575,-1.4262,84.9987266727088,32.52730564970675,0.16780937555010453,7.347999999998137
0.463,0.1088,0.7758,-0.37,0.4707,0.4073,0.315,0.665,-3.3688,83.6631567106353,31.527181401176183,0.1606044379926903,7.363999999994121
0.5171,0.0411,0.7415,-0.3694,0.4698,0.4168,0.3413,1.3475,-2.7213,85.10539656135845,32.49789639269476,0.1627352442015393,7.379000000000815
0.5162,0.0585,0.7415,-0.3706,0.4706,0.4062,0.3938,1.8112,-2.6075,85.28605687452949,33.01870275983834,0.17254299977483845,7.394999999996799
0.4635,0.0786,0.779,-0.3699,0.47,0.409,1.2337,1.645,-3.29,84.62219191678588,31.8330461064123,0.17749619979649284,7.4099999999962165
0.4732,0.033,0.7784,-0.3699,0.47,0.409,-2.1962,0.6825,-1.6363,86.47973652799224,31.607976181129757,0.1695745798143765,7.4259999999922
0.5049,0.1366,0.7354,-0.3688,0.4711,0.4088,-1.33,1.365,-1.7763,83.2958584758352,32.44583018295056,0.17227312183694332,7.44199999999546
0.507,0.0839,0.7384,-0.3708,0.4712,0.4083,-0.735,0.42,-2.5375,83.33860532374558,32.79184850898993,0.16071580965577928,7.457000000002154
0.4629,0.0457,0.7361,-0.3698,0.4693,0.4061,0.2537,1.8375,-2.5025,84.67086333109772,32.681768347611595,0.17110422868355935,7.472999999998137
0.4651,0.1185,0.7815,-0.3698,0.4721,0.4028,1.1025,1.9075,-3.3775,82.64501203928901,31.540588981711807,0.17974505581420414,7.487999999997555
0.4748,0.0691,0.7738,-0.3691,0.4721,0.4028,-2.0213,0.1488,-2.0563,84.00518275740878,31.518664925976527,0.16391327023224586,7.503999999993539
0.5048,0.1247,0.7443,-0.3702,0.4702,0.4029,-0.8662,0.9712,-2.0563,83.05558309791012,31.973836026626064,0.16150722321187044,7.519999999996799
0.5029,0.1165,0.7459,-0.369,0.471,0.4098,-0.6562,1.2425,-1.8637,82.78902012309088,32.49581863203222,0.16213025089816885,7.5350000000034925
0.4753,0.0787,0.7695,-0.37,0.4706,0.4082,-1.6363,0.7875,-2.2662,83.51960679401114,32.458205032147575,0.15725722580550539,7.550999999999476
0.4687,0.1225,0.7858,-0.37,0.4706,0.4082,0.8925,1.7062,-3.5175,82.1358154802153,31.393433680817843,0.164565203224061,7.565999999998894
0.5054,0.0483,0.7435,-0.37,0.471,0.4147,0.735,1.505,-2.7125,84.42435206414066,32.186647781517216,0.16978068289621479,7.581999999994878
0.5008,0.0904,0.7692,-0.37,0.471,0.407,-0.5075,0.7875,-2.5988,84.41177163371229,32.34428730270896,0.16414261460890356,7.597999999998137
0.4768,0.1242,0.7454,-0.3701,0.4726,0.4094,-1.5488,1.575,-2.1875,82.42637716933886,32.3341302059484,0.16899085314718812,7.612999999997555
0.4714,0.0562,0.7593,-0.3701,0.4726,0.4094,-1.54,1.0237,-1.6538,84.1324429589151,32.10829598941533,0.16683304782876895,7.628999999993539
0.4753,0.0936,0.7721,-0.3702,0.4711,0.41,0.6037,1.1463,-3.2462,83.58531466622712,31.780017898732293,0.16562479305279795,7.644000000000233
0.4962,0.0592,0.7473,-0.3701,0.4718,0.4082,-0.2625,0.6037,-2.5113,83.9424566725607,32.0702033171564,0.15775559374533596,7.6599999999962165
0.504,0.0654,0.7584,-0.3698,0.4702,0.4077,0.2275,0.9887,-2.7738,84.41642601840522,32.52692521024009,0.15621731437370287,7.675999999999476
0.4729,0.0882,0.771,-0.3697,0.4718,0.4067,0.805,1.225,-2.6862,83.88348379381196,32.2063355102645,0.15713308292766912,7.690999999991618
0.4832,0.0559,0.76,-0.3697,0.4718,0.4067,-1.47,0.2975,-1.715,84.82571943821961,32.27020945360215,0.14570377463577497,7.706999999994878
0.5022,0.1197,0.7441,-0.3701,0.471,0.4186,-0.8487,1.5313,-1.995,83.79252989540336,32.60604272405564,0.15180594718142276,7.722000000001572
0.5009,0.0867,0.7569,-0.3691,0.4694,0.4098,-0.2713,1.0325,-2.555,83.73247600606189,32.74802818531001,0.1514933524595483,7.737999999997555
0.4738,0.1059,0.7737,-0.37,0.4702,0.4072,0.0175,1.4438,-2.4062,83.21445993066202,32.614387222976895,0.1571347372178291,7.754000000000815
0.4782,0.1132,0.7629,-0.37,0.4702,0.4072,0.245,1.1812,-2.7387,82.51016187966216,32.36947986477563,0.1573674634876925,7.768999999992957
0.4795,0.0799,0.7608,-0.3714,0.4706,0.4072,-1.7325,0.6913,-1.75,83.33639581804569,32.265709666259404,0.1515854371409513,7.7849999999962165
0.5014,0.1113,0.7599,-0.371,0.4712,0.4082,-1.2075,0.9187,-2.24,82.64265758372245,32.32169988660221,0.14882934343239088,7.80000000000291
0.4926,0.1109,0.7455,-0.3704,0.4694,0.4087,-1.12,0.5512,-2.3537,82.21859485276639,32.35826262674709,0.1418836890871594,7.815999999998894
0.4826,0.075,0.7657,-0.37,0.471,0.412,-1.1375,0.7262,-1.6712,83.07316261137045,32.257291018162505,0.13815260018057388,7.832000000002154
0.48,0.1083,0.7576,-0.37,0.471,0.412,0.28,1.3913,-2.6775,82.5450166199253,32.213841775375506,0.1431198901526769,7.846999999994296
0.5036,0.0613,0.7529,-0.372,0.4717,0.4137,-0.2275,1.225,-2.7475,83.13812378369992,32.66427640513494,0.14644790114100295,7.862999999997555
0.4993,0.0824,0.7624,-0.3699,0.4698,0.4068,-0.63,0.7,-2.59,83.21993358295535,32.753109516769236,0.14125311102653595,7.877999999996973
0.4845,0.0718,0.7548,-0.371,0.4705,0.408,-1.1812,1.1638,-2.7037,83.76718804666527,32.70375831249571,0.14388651992729656,7.894000000000233
0.4804,0.0618,0.7656,-0.371,0.4705,0.408,-0.84,0.875,-2.0475,84.18108770909828,32.563015238904896,0.14209786793140405,7.9099999999962165
0.4771,0.0859,0.7662,-0.3706,0.4694,0.4144,0.4375,1.0762,-2.7475,83.90204037009333,32.314840400085835,0.14241678113769987,7.924999999995634
0.5032,0.0708,0.748,-0.3702,0.4694,0.4094,0.0175,1.3388,-2.3888,84.13650833844082,32.426067699999145,0.14745382302785748,7.940999999998894
0.5009,0.0668,0.7535,-0.3697,0.4702,0.4085,0.1488,1.1812,-2.415,84.44913013989907,32.53049607568506,0.14865464071671802,7.955999999991036
0.4822,0.0938,0.7644,-0.3708,0.469,0.4084,-0.0787,0.9887,-3.0013,84.02353318550443,32.33455252739836,0.14802645664794672,7.971999999994296
0.484,0.0658,0.7611,-0.3708,0.469,0.4084,-1.61,0.875,-2.3712,84.56905590137467,32.33585570150964,0.145823810985719,7.987999999997555
0.4931,0.112,0.7584,-0.3697,0.4702,0.4106,-1.0588,1.0237,-2.3363,83.49984545874449,32.34703530036912,0.14506137988661083,8.002999999996973
0.4956,0.0927,0.7562,-0.3687,0.4699,0.4076,-0.8225,1.2163,-2.6513,83.37962483478556,32.52508412243161,0.14806996190151797,8.019000000000233
0.4821,0.0921,0.7632,-0.3704,0.4699,0.4085,-0.5337,0.0787,-1.96,83.37020956153582,32.4134554000337,0.1343254157108096,8.033999999992375
0.4792,0.1045,0.7745,-0.3704,0.4699,0.4085,0.21,1.2163,-3.1675,82.93375297954265,31.998394932305427,0.13840759414329687,8.049999999995634
0.4888,0.0753,0.7482,-0.3705,0.4702,0.4054,-1.3475,0.5425,-2.3888,83.5403960359101,32.074654734755434,0.1323788347305587,8.065999999998894
0.4815,0.0863,0.7593,-0.3705,0.4702,0.4054,-0.2187,1.1375,-2.5638,83.53504025890399,32.103035844494066,0.13449720125690695,8.080999999998312
0.4945,0.0984,0.7529,-0.3713,0.4698,0.4074,-0.5688,0.6212,-2.4325,83.46864629092636,32.21018120465487,0.12999276113303865,8.097000000001572
0.4884,0.1061,0.7471,-0.3699,0.469,0.4077,-0.9363,1.2337,-2.835,82.99451204858842,32.45233913504794,0.1336484350110098,8.111999999993714
0.4942,0.0857,0.7602,-0.3707,0.4705,0.4091,-0.7875,1.0762,-2.4062,83.12387906205048,32.48883515206814,0.13578087151306603,8.127999999996973
0.4871,0.0999,0.7763,-0.3702,0.4718,0.4102,-0.7962,0.8487,-2.2225,83.01846280775209,32.44182437763973,0.13442406436424922,8.144000000000233
0.4908,0.1024,0.7494,-0.3702,0.4718,0.4102,0.315,1.2687,-2.5638,82.66045892094863,32.551128658707306,0.13810910792715966,8.15899999999965
0.4857,0.078,0.7534,-0.3698,0.4695,0.4043,-0.385,0.7962,-2.1,82.80345094661847,32.57164264685746,0.1357634771367795,8.17500000000291
0.4898,0.0984,0.7538,-0.3713,0.4698,0.4063,-0.0263,1.12,-3.0975,82.72649950422006,32.66971137424832,0.13730712941518064,8.189999999995052
0.4842,0.0675,0.7505,-0.3713,0.4693,0.408,-1.1812,1.4088,-1.9775,83.59407860051316,32.68317126980533,0.14386313647779553,8.205999999998312
0.4914,0.0817,0.7517,-0.3713,0.4693,0.408,-1.4787,0.6562,-2.2313,83.69466446382593,32.707279108030434,0.138926102827644,8.221999999994296
0.4844,0.0798,0.7491,-0.3706,0.4686,0.4116,-0.245,1.2163,-2.1175,83.73977337011048,32.7127192259199,0.14145354254424242,8.236999999993714
0.4899,0.0712,0.7576,-0.3704,0.4686,0.4094,-1.26,0.6913,-2.1875,84.1257322815986,32.719319050652814,0.1372629082918462,8.252999999996973
0.4856,0.0866,0.7627,-0.3714,0.4698,0.4072,0.2713,1.225,-2.73,83.86363725566851,32.60040991545654,0.14007411746201986,8.267999999996391
0.4932,0.077,0.755,-0.3715,0.4692,0.4095,-0.42,1.1025,-2.5812,83.88580901633507,32.690051135332524,0.14194270571905226,8.28399999999965
0.4933,0.0748,0.7637,-0.3715,0.4692,0.4095,-0.9712,0.77,-2.3888,84.05334148304523,32.69341127441125,0.13883643514436372,8.299999999995634
0.4867,0.0931,0.7637,-0.3697,0.4693,0.4082,-0.7,0.4638,-2.6075,83.88341491130112,32.60695990650938,0.1312140916296844,8.314999999995052
0.4884,0.0744,0.7512,-0.3698,0.4693,0.4098,-1.015,0.6212,-2.4237,84.04066763002366,32.6374982661493,0.12703796246853835,8.330999999998312
0.4911,0.1008,0.7679,-0.3698,0.4702,0.4038,-0.035,0.7262,-2.6775,83.56122661801982,32.56773040023349,0.12413786622130409,8.34599999999773
0.4907,0.0899,0.7541,-0.3705,0.4702,0.4038,0.07,0.9275,-2.4675,83.4312050420417,32.60890305296557,0.12508007960189466,8.36200000000099
0.4836,0.0925,0.7568,-0.3709,0.4699,0.4108,-0.5337,0.9712,-2.3363,83.41676587059439,32.602888683025476,0.1265573516381946,8.377999999996973
0.485,0.0975,0.7519,-0.3696,0.4694,0.4066,0.0175,0.9887,-2.7475,83.14351331068633,32.60387225799415,0.18330835647556643,8.455999999998312
0.4921,0.0789,0.7543,-0.37,0.4697,0.4079,-0.5512,0.8925,-2.5025,83.18964204532094,32.66459701096571,0.17702627082754224,8.47099999999773
0.487,0.0933,0.7602,-0.37,0.4697,0.4079,-0.0525,0.7962,-2.2225,83.13228866984494,32.64761833740584,0.17078892374191001,8.486999999993714
0.4917,0.0981,0.7558,-0.3698,0.4694,0.4106,-0.1838,1.1725,-2.4062,83.006667381707,32.66370331771558,0.16953878137478276,8.502000000000407
0.4862,0.0786,0.7656,-0.3703,0.4702,0.4078,-0.5863,1.0675,-2.4237,83.10018598818547,32.624291424230634,0.16795690323344578,8.517999999996391
0.4887,0.0944,0.7566,-0.37,0.4692,0.4066,-0.7525,0.7175,-2.415,83.05690606602906,32.62750563926547,0.16149321290750768,8.533999999992375
0.487,0.0755,0.7551,-0.3695,0.4689,0.4088,-0.9712,0.84,-2.1962,83.45404710134882,32.63383926068036,0.15668389162181748,8.548999999999069
0.5003,0.0825,0.7526,-0.3695,0.4689,0.4088,-1.05,0.7175,-2.415,83.55746619616836,32.71304269549313,0.1513475024570422,8.564999999995052
0.489,0.0834,0.7641,-0.3695,0.4707,0.4136,-0.1663,1.0325,-2.45,83.61042235127871,32.682190242646165,0.1501515022107971,8.57999999999447
0.4843,0.0773,0.7727,-0.3698,0.4692,0.4091,-0.7,0.9013,-2.1,83.72499313472767,32.555812726347106,0.1481150719923615,8.59599999999773
0.4873,0.0951,0.752,-0.3716,0.4702,0.4079,-0.105,1.2687,-2.66,83.46276667749736,32.6027659145524,0.1515728447885394,8.611999999993714
0.4865,0.0813,0.7633,-0.3716,0.4702,0.4079,-0.2537,0.7,-2.275,83.55206403216144,32.595076329841405,0.1458655603139026,8.627000000000407
0.4933,0.0775,0.7642,-0.3704,0.47,0.4147,-0.4375,0.9712,-2.3975,83.58850998555867,32.60440874457172,0.14526428427900176,8.642999999996391
0.4876,0.0938,0.7468,-0.3708,0.4702,0.4063,-0.9538,0.84,-2.695,83.35383874699183,32.69693382778769,0.14207785585066154,8.657999999995809
0.4857,0.0827,0.7668,-0.3694,0.4699,0.4075,-0.6825,0.7525,-2.5025,83.43087258849144,32.61637237774392,0.13870607026780296,8.673999999999069
0.4898,0.0966,0.756,-0.3699,0.469,0.4121,-0.5512,0.9275,-2.415,83.39373484334419,32.62703478405851,0.13819146323767004,8.689999999995052
0.491,0.0953,0.759,-0.3699,0.469,0.4121,-0.8313,0.8925,-2.45,83.25560847847072,32.6354519160589,0.1364210669192799,8.705000000001746
0.4881,0.0855,0.7616,-0.3719,0.4684,0.4112,-0.6037,0.8225,-2.1962,83.28850761172617,32.62101911500308,0.13462296022437883,8.72099999999773
0.4898,0.0966,0.7707,-0.3703,0.4702,0.4077,-0.9275,0.7262,-2.7037,83.15811175060367,32.51173873497738,0.13096436420156052,8.735999999997148
0.4945,0.0755,0.7598,-0.3706,0.469,0.408,-0.9363,0.1925,-2.2838,83.51478482909997,32.52179718790864,0.12063992778070864,8.751999999993131
0.4905,0.0888,0.7631,-0.3706,0.469,0.408,-0.8925,0.7613,-2.0563,83.47156116036268,32.528845374321506,0.1195386550048712,8.767999999996391
0.487,0.0947,0.7593,-0.3706,0.4702,0.4048,-0.6475,0.8838,-2.4588,83.39524198570125,32.521769591831536,0.11951608950970852,8.783000000003085
0.4843,0.0793,0.7543,-0.3702,0.4706,0.4094,-0.9538,0.7525,-2.52,83.58462740050844,32.52837074657412,0.11840048055108995,8.798999999991793
0.4879,0.0878,0.758,-0.3704,0.4694,0.4077,-0.49,1.3038,-2.5812,83.58344280268825,32.542548827722825,0.12416173250383569,8.813999999998487
0.4855,0.0799,0.7475,-0.3708,0.4706,0.4092,-0.7613,0.8575,-2.5463,83.64953128578672,32.60260206252562,0.12409355925035251,8.82999999999447
0.4942,0.0801,0.7627,-0.3708,0.4706,0.4092,-0.3325,1.015,-2.2575,83.69949458336694,32.612107967541526,0.12630020332829495,8.84599999999773
0.4861,0.0851,0.747,-0.3705,0.4706,0.4082,-0.525,1.0412,-2.5375,83.6939335881207,32.66292612467186,0.12772638299492,8.860999999997148
0.4879,0.0788,0.7692,-0.37,0.4703,0.4072,-0.7262,0.91,-2.4325,83.77935792419626,32.6175590401957,0.12805774469213863,8.876999999993131
0.4896,0.0949,0.7465,-0.3698,0.469,0.4077,-1.0588,1.2513,-2.4762,83.41056921905263,32.679515431815496,0.13214452023046322,8.891999999999825
0.4831,0.0895,0.7596,-0.3698,0.469,0.4077,-0.2625,1.155,-2.415,83.38585276463239,32.64082486238308,0.13556206820324193,8.907999999995809
0.497,0.0798,0.7555,-0.37,0.4706,0.407,-0.6212,1.26,-2.17,83.4508033852689,32.70798686650431,0.14014986138661417,8.923999999999069
0.4864,0.0922,0.7665,-0.3695,0.4695,0.4075,-0.7525,0.6037,-2.6163,83.38760577790846,32.59130699539791,0.13428482524763652,8.938999999998487
0.486,0.0886,0.7666,-0.3696,0.4688,0.4066,-0.7875,1.155,-2.3537,83.39204284865414,32.574467078230676,0.13748834271869792,8.95499999999447
0.485,0.0916,0.7605,-0.3691,0.4699,0.4085,-0.875,1.085,-2.2313,83.32059619144381,32.55769091862312,0.1383870084533647,8.970000000001164
0.4866,0.0897,0.7595,-0.3691,0.4699,0.4085,-0.2625,0.7788,-2.835,83.30993910839364,32.52643590594958,0.1357630276052131,8.985999999997148
0.4925,0.0834,0.749,-0.3699,0.4686,0.4063,-0.665,0.6913,-2.52,83.35852429384909,32.637871264881184,0.13214144484671983,9.002000000000407
0.4835,0.0947,0.7488,-0.3711,0.4695,0.4074,-0.6737,0.9538,-2.3537,83.27314924434663,32.63811490668056,0.13180360035530236,9.01699999999255
0.4908,0.0806,0.7591,-0.371,0.4702,0.4065,-0.77,0.9275,-2.73,83.41629560272662,32.66791813809594,0.13197924032249309,9.032999999995809
0.4866,0.0861,0.7568,-0.371,0.4702,0.4065,-1.3212,0.9275,-2.6337,83.4584070702717,32.644490675848665,0.1313025662958315,9.048000000002503
0.487,0.0929,0.7556,-0.369,0.4703,0.401,-0.6562,1.365,-2.52,83.39390588511893,32.63798314677555,0.13782830966131432,9.063999999998487
0.4905,0.0814,0.7601,-0.3694,0.4698,0.4087,-1.085,1.505,-2.695,83.57679814140205,32.65133826856209,0.14571747868974277,9.07999999999447
0.4837,0.0866,0.7546,-0.3699,0.4682,0.409,-0.2713,1.0938,-2.6337,83.55410679334425,32.61171841036925,0.1459120308201955,9.094999999993888
0.4921,0.0845,0.7634,-0.3716,0.4698,0.4102,-0.3762,0.8487,-2.2138,83.5679930453719,32.61484170763076,0.14354210774066575,9.110999999997148
0.4887,0.0813,0.7446,-0.3716,0.4698,0.4102,-0.595,1.1463,-2.3012,83.5860446256036,32.61852971891544,0.14466294697350507,9.126000000003842
0.482,0.0885,0.761,-0.3706,0.471,0.4065,-0.5775,0.7525,-2.5287,83.56954943363782,32.538589170669475,0.14103265226850686,9.14199999999255
0.4957,0.0799,0.7577,-0.3702,0.4697,0.4084,-0.5163,1.015,-2.2138,83.57763862161985,32.58270068659603,0.14154538704463385,9.157999999995809
0.4907,0.0895,0.7605,-0.3694,0.4689,0.4074,-0.21,0.8225,-2.4938,83.51318197220554,32.59356435035799,0.1384945983397396,9.172999999995227
0.4929,0.087,0.7554,-0.3694,0.4689,0.4074,0.0875,1.715,-2.59,83.48257756093838,32.67229465692118,0.1493411385107969,9.188999999998487
0.4865,0.083,0.7654,-0.3693,0.469,0.4105,-0.6913,1.3913,-2.5725,83.53619376866402,32.59229340932855,0.15318957465898836,9.203999999997905
0.4935,0.0949,0.7656,-0.3713,0.4686,0.4068,-0.3675,0.6737,-2.8,83.46751521144965,32.5971121286142,0.1475718971906543,9.219999999993888
0.494,0.0855,0.7545,-0.3705,0.4712,0.407,-0.3762,0.875,-2.2838,83.4747269391455,32.60796501244906,0.14541470747415583,9.235999999997148
0.492,0.089,0.7707,-0.3706,0.469,0.4122,-0.7875,0.9625,-2.4762,83.46073367233677,32.575443064725285,0.14386698672623602,9.250999999996566
0.4945,0.0935,0.7591,-0.3706,0.469,0.4122,-0.455,1.5838,-2.66,83.44163063073633,32.655798343987904,0.1522870080582588,9.266999999999825
0.4839,0.0859,0.7562,-0.3699,0.4698,0.405,-0.805,1.1375,-2.6163,83.45995691584511,32.6071429970261,0.15241455724438827,9.281999999991967
0.4873,0.0895,0.7631,-0.3714,0.4703,0.4074,-0.0787,0.7788,-2.17,83.4159768430952,32.580016642922814,0.14838782152223418,9.297999999995227
0.4873,0.0832,0.7554,-0.371,0.4694,0.4075,-0.7262,0.7,-2.3625,83.47184369467116,32.58454563486246,0.14362903937206434,9.313999999998487
0.4908,0.0868,0.7432,-0.371,0.4694,0.4075,-0.56,1.2337,-2.1525,83.46384681118464,32.675981553560604,0.14592108543421162,9.328999999997905
0.4903,0.0886,0.7635,-0.371,0.4687,0.4066,-0.35,1.0412,-2.9137,83.45324606831163,32.622278422558644,0.146322256893845,9.345000000001164
0.4873,0.0767,0.7543,-0.3704,0.4688,0.4083,-0.5163,1.0237,-2.4062,83.46783011343969,32.63181754544772,0.14550998119722067,9.359999999993306
0.4936,0.0842,0.7523,-0.3697,0.4697,0.4085,-0.6913,1.3125,-2.4413,83.49166433613091,32.68744100356299,0.14985898308134904,9.375999999996566
0.4893,0.082,0.7511,-0.3694,0.4692,0.4023,-0.3762,0.9013,-2.4588,83.52143670019065,32.71873335677586,0.14785180477585827,9.391999999999825
0.4865,0.0846,0.7573,-0.3694,0.4692,0.4023,-0.945,0.5688,-2.6337,83.55375397828638,32.678773161945415,0.14074542429797446,9.406999999999243
0.4866,0.0867,0.7558,-0.3705,0.4694,0.4109,-0.56,0.7437,-2.31,83.54789490681011,32.678662744296844,0.13738016186548876,9.422999999995227
0.4845,0.0845,0.7469,-0.3709,0.4685,0.4076,-0.3588,1.435,-2.5113,83.5475847872569,32.69989235327152,0.14301464567818814,9.437999999994645
0.4809,0.0909,0.7616,-0.3701,0.4686,0.4078,-0.5337,1.085,-2.4588,83.53479900582167,32.61982615635235,0.14433718111355234,9.453999999997905
0.4917,0.0884,0.7657,-0.3701,0.4686,0.4078,-0.665,0.9538,-2.6425,83.51740669480343,32.59849570723563,0.14363818300499523,9.470000000001164
0.4864,0.0812,0.7593,-0.3705,0.4683,0.4102,-0.63,1.015,-2.2225,83.56207496311066,32.59033227786222,0.14297686469731738,9.484999999993306
0.4828,0.0874,0.7457,-0.3698,0.4698,0.4133,-0.5075,0.7437,-2.8087,83.55931903722517,32.641162623088476,0.13938845822976742,9.500999999996566
0.4887,0.0883,0.7698,-0.3704,0.47,0.4078,-0.4638,1.05,-2.4588,83.55609024207617,32.588728480547374,0.1396246124062406,9.515999999995984
0.4922,0.0856,0.7571,-0.3698,0.4697,0.4066,-0.5425,1.295,-2.1962,83.55579253786638,32.6163547612354,0.14431015116941565,9.531999999999243
0.4918,0.0885,0.7476,-0.3698,0.4697,0.4066,-0.595,0.875,-2.6688,83.52819361520741,32.759193885535,0.14247913605504103,9.548000000002503
0.4929,0.0845,0.7638,-0.3695,0.4701,0.4075,-0.4025,0.6212,-2.5725,83.54179904935125,32.74195048946242,0.13661742244514366,9.562999999994645
0.4856,0.0883,0.7616,-0.3705,0.4684,0.4084,-0.385,0.9363,-1.9162,83.52627092541555,32.63112333417783,0.13643840020337608,9.578999999997905
0.4867,0.087,0.7482,-0.3711,0.4695,0.4074,-0.4025,0.98,-2.0125,83.51266551472548,32.68526416130965,0.13602456018252507,9.593999999997322
0.4888,0.0863,0.7633,-0.3711,0.4695,0.4074,-0.4375,0.8138,-2.835,83.51470462229325,32.61086214985985,0.13414082416665998,9.610000000000582
0.4855,0.0872,0.7466,-0.3705,0.4686,0.4018,-0.2187,1.1025,-2.7213,83.47637479526597,32.68308296106656,0.13660274175322837,9.626000000003842
0.4948,0.0818,0.7706,-0.3712,0.4693,0.4071,0.28,1.2075,-2.4413,83.6792799943727,32.668494932811036,0.13924371756936582,9.640999999995984
0.4882,0.0828,0.7512,-0.3702,0.4696,0.4086,-0.8487,0.9625,-2.4237,83.68729702001885,32.68845012126579,0.1391793458152529,9.656999999999243
0.4909,0.0864,0.7576,-0.37,0.469,0.4093,0.0263,1.4438,-2.5725,83.62090743919678,32.70614958538908,0.14475271123297126,9.671999999998661
0.4905,0.082,0.7504,-0.37,0.469,0.4093,-0.6037,1.1725,-2.4062,83.63477035826294,32.73364598160866,0.14716144011311386,9.68800000000192
0.4928,0.0869,0.7537,-0.3709,0.4704,0.4058,-0.945,0.665,-2.52,83.56915869320025,32.78105866879765,0.1420212960993987,9.703999999997905
0.4991,0.0826,0.7634,-0.3712,0.4688,0.4071,-0.3325,1.3038,-2.3712,83.60509644052345,32.79536112809979,0.14542046648877582,9.718999999997322
0.4916,0.0885,0.7623,-0.3702,0.4694,0.4084,-0.0787,1.4963,-2.4588,83.53815846875025,32.77547305148029,0.1524251398442879,9.735000000000582
0.4956,0.0891,0.7557,-0.3702,0.4694,0.4084,-0.6737,1.0325,-2.4938,83.49858931288065,32.822509462555225,0.15112137585255705,9.749999999992724
0.4906,0.0844,0.7669,-0.3705,0.4702,0.4172,-0.3675,0.7962,-2.5113,83.52380103477147,32.75994800674027,0.14747451826963714,9.765999999995984
0.4866,0.0866,0.7561,-0.3699,0.4692,0.41,-0.7962,0.9363,-2.5988,83.51048434427699,32.7226722000158,0.146209786439289,9.781999999991967
0.4868,0.0905,0.7637,-0.371,0.4694,0.4077,-0.77,0.9275,-2.6513,83.45274452268931,32.62334319536719,0.14411005780094782,9.796999999998661
0.4857,0.0892,0.7607,-0.371,0.4692,0.4086,-1.225,0.91,-2.4762,83.39341851199345,32.58849414523391,0.14280305202352267,9.81300000000192
0.4921,0.0875,0.7644,-0.371,0.4692,0.4086,-0.5775,1.5313,-2.5463,83.39916352211388,32.59124731992088,0.1491952968103407,9.827999999994063
0.4874,0.0863,0.7579,-0.3703,0.4693,0.4074,-1.0237,1.1638,-2.0912,83.43532025460816,32.58872239413533,0.1510344871327208,9.843999999997322
0.4853,0.0826,0.7532,-0.3707,0.4697,0.4093,-0.805,1.1287,-2.5113,83.50759185224277,32.597141047788384,0.1521843184153688,9.859999999993306
0.4889,0.0861,0.7574,-0.3697,0.4693,0.4116,-1.12,0.9625,-2.4675,83.51026487034117,32.60778963632043,0.14995963657963052,9.875
0.4858,0.0824,0.7608,-0.3697,0.4693,0.4116,-0.7788,1.12,-2.6513,83.57818973610553,32.55689936156136,0.15109167292495318,9.89100000000326
0.4902,0.0822,0.7539,-0.369,0.4699,0.4068,-0.8487,0.8575,-2.4062,83.63012065990773,32.58548610058507,0.14833050562935826,9.906999999999243
0.4901,0.0837,0.7565,-0.3716,0.4703,0.4058,-0.595,1.3913,-2.4413,83.63518135997667,32.60809906201027,0.15353217507050404,9.923000000002503
0.4912,0.0855,0.7615,-0.3709,0.4699,0.4082,-0.6562,1.2687,-2.24,83.62946736303604,32.61145776142822,0.15644823755055978,9.93899999999121
0.4852,0.0861,0.7569,-0.3709,0.4699,0.4082,-0.8313,1.1113,-2.38,83.59955877990683,32.60363590931027,0.15580596380219883,9.953999999997905
0.4874,0.0835,0.7604,-0.3706,0.4702,0.4098,-0.9013,0.7962,-2.2313,83.6381516172306,32.5964352598574,0.15169064742431473,9.970000000001164
0.4915,0.0872,0.7518,-0.3701,0.4697,0.4122,-1.0063,0.945,-2.2313,83.55227702456251,32.625373120321136,0.14927908267520001,9.984999999993306
0.4833,0.0896,0.7664,-0.3717,0.4701,0.4088,-0.91,1.1113,-2.5287,83.48775017270319,32.52348841591638,0.1503538944109402,10.000999999996566
0.4931,0.0906,0.7609,-0.3707,0.4695,0.4066,-0.665,0.9712,-2.6513,83.44760926669016,32.58421990836149,0.1493037849663356,10.01699999999255
0.4868,0.0913,0.7519,-0.3707,0.4695,0.4066,-0.5163,1.26,-2.695,83.44030611531247,32.624601955086945,0.1513834064772929,10.031999999999243
0.4896,0.0886,0.7532,-0.3703,0.4692,0.4074,-0.8575,0.63,-2.275,83.40069238192362,32.63175960884999,0.14531706582728637,10.047999999995227
0.49,0.0889,0.7588,-0.3703,0.4684,0.4094,-0.7175,0.9538,-2.5113,83.38566673733756,32.63902973436118,0.14366165924405808,10.062999999994645
0.4881,0.0893,0.7605,-0.3709,0.4693,0.4092,-0.3762,0.8838,-2.6688,83.37679153250015,32.60614454360876,0.14202221332224504,10.078999999997905
0.4845,0.0866,0.753,-0.3714,0.4698,0.4085,-0.7175,1.1287,-2.5025,83.38814071597544,32.60307296012774,0.14407327198594064,10.094999999993888
0.4931,0.0869,0.7673,-0.3714,0.4698,0.4085,-0.77,1.2425,-2.4325,83.42046748028712,32.59839978925286,0.14643969479483201,10.110000000000582
0.4819,0.0805,0.7513,-0.3717,0.471,0.407,-0.7962,0.525,-2.1437,83.52748510301194,32.58851600992453,0.1393557253134511,10.125999999996566
0.486,0.0883,0.7543,-0.3707,0.4713,0.41,-0.9363,1.1375,-1.7763,83.46506205306063,32.598288299343416,0.1407764027815101,10.140999999995984
0.4898,0.0855,0.7605,-0.37,0.469,0.4088,-0.3762,1.0762,-2.2838,83.47795655389537,32.59881133615411,0.14219604250651632,10.156999999999243
0.4852,0.0842,0.7599,-0.37,0.469,0.4088,-0.2975,1.1463,-2.2662,83.51098358203151,32.59074233732046,0.14448315825172117,10.172999999995227
0.492,0.0852,0.7659,-0.3706,0.4698,0.4103,-0.2625,0.8925,-2.3363,83.53777697013703,32.58980130204774,0.14208359243192592,10.18800000000192
0.4845,0.0833,0.7528,-0.3714,0.4693,0.4081,-0.385,1.0588,-2.8963,83.55258215973323,32.596078526691514,0.1431219531849061,10.203999999997905
0.4889,0.0846,0.7513,-0.371,0.4709,0.4078,-0.105,1.085,-2.31,83.55896564137448,32.596511123219,0.1434572578658471,10.218999999997322
0.4901,0.0867,0.7596,-0.3702,0.4689,0.4095,-0.9712,0.42,-2.66,83.53627214497347,32.61347334271767,0.13515953208049453,10.235000000000582
0.4873,0.0878,0.7529,-0.3702,0.47,0.4093,-0.5775,1.1113,-2.59,83.52215278200028,32.64036828782511,0.13764629886842808,10.250999999996566
0.4914,0.0858,0.7637,-0.3699,0.4686,0.407,-0.8662,1.12,-2.3625,83.54042897100696,32.63808616920536,0.13900166898099856,10.265999999995984
0.4863,0.0888,0.7644,-0.3699,0.4686,0.4062,-0.7262,1.1725,-2.3187,83.5092492640993,32.63458080979177,0.14198550207866048,10.281999999991967
0.4896,0.087,0.773,-0.371,0.4703,0.4062,0.0787,1.0325,-2.2838,83.53451736946947,32.62376950517551,0.14172570187701472,10.296999999998661
0.4965,0.0839,0.7652,-0.37,0.47,0.4059,-0.4988,0.6125,-2.4413,83.53505466435041,32.6469340436269,0.13637313168709925,10.312999999994645
0.4892,0.0883,0.7699,-0.3703,0.4686,0.4078,-0.7788,0.9275,-2.3275,83.51792812593338,32.63978169767996,0.1360918185211103,10.328999999997905
0.4889,0.0867,0.7619,-0.3701,0.4699,0.4094,-0.8487,0.8575,-2.66,83.51533638141913,32.60872985525099,0.13405888666855006,10.343999999997322
0.4907,0.0839,0.7534,-0.3701,0.4699,0.4094,-0.9187,1.0412,-2.4675,83.55403099073004,32.65080899123503,0.13564627799793144,10.359999999993306
0.4879,0.0883,0.7656,-0.3702,0.4695,0.3985,-0.2887,0.9975,-2.8525,83.5311514286701,32.54029371056896,0.13554790020414773,10.375
0.4873,0.0873,0.7549,-0.3711,0.4692,0.4089,-0.6037,0.7525,-2.5113,83.51874910279341,32.5621126006317,0.1328291101810129,10.390999999995984
0.4893,0.0859,0.7547,-0.3715,0.4702,0.4077,-0.9887,1.1025,-2.6425,83.5147189349846,32.61885121707243,0.13542219916614598,10.406999999999243
0.4893,0.0864,0.769,-0.3715,0.4695,0.4139,-0.8225,0.8838,-2.6862,83.53311388864354,32.53288550830873,0.1338112792490684,10.421999999998661
0.4856,0.0886,0.7584,-0.3693,0.4695,0.4139,-0.2975,1.1812,-2.24,83.50054241010939,32.527900260413254,0.1374394313198919,10.437999999994645
0.4962,0.0872,0.7594,-0.37,0.4686,0.4126,-0.4288,0.875,-2.835,83.49732245549306,32.68707620511936,0.13550798819317414,10.453000000001339
0.4917,0.0839,0.7655,-0.3705,0.4699,0.4087,-0.1138,1.2513,-2.3363,83.56590831011967,32.68359553546288,0.13997590936933366,10.468999999997322
0.4885,0.0882,0.7558,-0.3706,0.4692,0.4066,-0.0962,1.4,-2.1613,83.50245573719337,32.685647929642855,0.1461383184365074,10.485000000000582
0.4902,0.0873,0.7574,-0.3706,0.4692,0.4066,-0.3938,1.61,-2.415,83.49525515525971,32.6908095180422,0.15325948659201324,10.5
0.4915,0.0851,0.7656,-0.3706,0.4709,0.4062,-0.28,0.8838,-2.3625,83.52407072411647,32.683082420306924,0.15066025792961726,10.515999999995984
0.4901,0.0886,0.7691,-0.3693,0.4682,0.4074,-0.8838,0.8662,-2.31,83.49738050312493,32.68256937956769,0.14728793214187394,10.531000000002678
0.4914,0.0859,0.7615,-0.3687,0.4698,0.4089,-0.5512,0.7,-2.5287,83.50085438218511,32.680220678259424,0.1426391389205724,10.546999999991385
0.4911,0.0862,0.7615,-0.3687,0.4698,0.4071,-0.6825,1.155,-2.4938,83.50727544547017,32.67588935424888,0.14500722503190355,10.562999999994645
0.4884,0.0873,0.7698,-0.3695,0.4702,0.4071,-0.2975,1.085,-2.205,83.51103472133055,32.63384764776604,0.14515400252814478,10.577999999994063
0.4887,0.0859,0.7386,-0.371,0.4707,0.4123,-0.5863,1.0237,-2.4237,83.49906866509254,32.704097384548554,0.1453798822783335,10.593999999997322
0.4904,0.0885,0.754,-0.3698,0.4707,0.408,-0.91,0.8487,-2.7738,83.44244288891811,32.753914650035036,0.14229934405005554,10.60899999999674
0.487,0.0836,0.7591,-0.3714,0.4701,0.409,-0.6737,0.9625,-2.5025,83.48357425987703,32.71678891024112,0.14192940964157083,10.624999999992724
0.4909,0.0846,0.7529,-0.3714,0.4701,0.409,-0.7437,0.9013,-2.31,83.50445417109536,32.717119660848475,0.14071518868005786,10.640999999995984
0.49,0.0872,0.7655,-0.3716,0.4702,0.4156,-0.5163,0.875,-2.31,83.50439222988771,32.716733793588155,0.1384561698115937,10.655999999995402
0.4937,0.0875,0.7596,-0.371,0.4684,0.4066,-0.4725,0.91,-2.38,83.502644286924,32.725585897559135,0.13771455283310396,10.671999999998661
0.4834,0.0873,0.7662,-0.3706,0.4704,0.4071,-0.49,0.8575,-2.4062,83.50262680024508,32.66827390522139,0.13551934754934436,10.68699999999808
0.4909,0.0881,0.7517,-0.3706,0.4704,0.4046,-0.7,0.9013,-2.0738,83.47092693426904,32.72524972302971,0.134946132791152,10.702999999994063
0.4811,0.0831,0.7588,-0.371,0.4695,0.4046,-0.6037,0.7262,-2.2138,83.49802742465788,32.68166793719223,0.13190879951416723,10.718999999997322
0.4928,0.0854,0.758,-0.3701,0.4694,0.414,-0.4725,0.805,-2.2925,83.49973826528826,32.68454699426349,0.1295854195623288,10.73399999999674
0.4914,0.0892,0.7641,-0.3696,0.4688,0.4096,-0.6037,1.2775,-2.275,83.48438120389936,32.680808849419606,0.1350228776098437,10.75
0.4851,0.0845,0.7648,-0.3703,0.4715,0.4085,-0.6913,1.3038,-2.66,83.5187899686606,32.56337533793363,0.1391218898481763,10.764999999999418
0.4927,0.0881,0.7505,-0.3703,0.4715,0.4085,-0.6388,1.4175,-2.6688,83.4920832764614,32.70685476690317,0.14562170085823486,10.780999999995402
0.49,0.0856,0.7587,-0.3708,0.4706,0.4162,-0.4112,0.9887,-2.6075,83.49762805141775,32.703233836615645,0.1452968107753119,10.796999999998661
0.4926,0.0887,0.7536,-0.3706,0.469,0.408,-0.49,1.015,-2.0738,83.49632775681928,32.75791375131319,0.14446962969724897,10.81199999999808
0.4849,0.0872,0.7437,-0.371,0.4702,0.409,-0.5337,1.3737,-2.3363,83.48968628213424,32.76245818529783,0.1498039467225586,10.827999999994063
0.4884,0.0847,0.7589,-0.371,0.4702,0.4096,-0.2537,1.5838,-2.555,83.517392037761,32.73085739577666,0.15620485204947301,10.84299999999348
0.4895,0.0845,0.7487,-0.37,0.4703,0.4096,-0.5775,1.2163,-2.5463,83.52064889776685,32.78463220888817,0.15809908684809393,10.85899999999674
0.487,0.0865,0.7582,-0.3701,0.4706,0.4051,-0.5512,0.9625,-2.2575,83.51912934854191,32.7729919498709,0.1561491781661082,10.875
0.4892,0.0874,0.7556,-0.3696,0.4695,0.407,-0.4812,1.26,-2.4938,83.51739586752807,32.768908301557886,0.15754426034058638,10.889999999992142
0.4828,0.0862,0.7657,-0.3706,0.4706,0.4065,-0.5863,1.1025,-2.1525,83.5223110544726,32.674619087657796,0.15766583430976214,10.905999999995402
0.484,0.084,0.7687,-0.3706,0.4706,0.4065,-0.5337,1.0412,-2.0038,83.53103371656198,32.52705648050456,0.15595545087824048,10.92099999999482
0.4963,0.0853,0.7623,-0.3696,0.4689,0.4057,-0.7875,1.0063,-2.6075,83.55003446932717,32.613721362763286,0.15485062579336856,10.93699999999808
0.4871,0.0878,0.765,-0.3702,0.4696,0.4074,-0.3413,1.2775,-1.9775,83.53698387317937,32.53982839622198,0.15776156321777948,10.953000000001339
0.488,0.0848,0.7673,-0.3714,0.4695,0.4071,-0.3063,1.365,-2.5725,83.5619504217512,32.48951627498918,0.16041290688634796,10.96799999999348
0.4876,0.0886,0.7595,-0.3712,0.4701,0.4066,-0.6212,1.0588,-2.5025,83.53798000262879,32.495236109744816,0.15961833620081933,10.98399999999674
0.4875,0.0883,0.7594,-0.3712,0.4701,0.4066,-0.9625,1.225,-2.205,83.48381694767343,32.49792960621226,0.16019400258009567,10.998999999996158
0.487,0.0832,0.7742,-0.3705,0.4697,0.4055,-0.5163,1.0675,-4.2613,83.49134636686476,32.184048276037224,0.15954660232521778,11.014999999999418
0.4845,0.0864,0.7667,-0.3706,0.4694,0.408,-0.5688,0.9275,-2.415,83.49669763482308,32.17855312330248,0.15694794209541696,11.031000000002678
0.4906,0.088,0.7579,-0.3708,0.47,0.4083,-0.245,0.6737,-2.1,83.4726704370172,32.275567771940636,0.1503480978811107,11.04599999999482
0.4912,0.0885,0.7596,-0.3708,0.47,0.4083,-0.035,1.0412,-2.3625,83.43537299995,32.29797587687459,0.15030656809605417,11.06199999999808
0.4868,0.0845,0.754,-0.3714,0.4698,0.4056,-0.2537,0.9363,-2.3537,83.46859835809786,32.31468444739456,0.14791596128595827,11.076999999997497
0.4837,0.0874,0.7553,-0.3711,0.4704,0.4086,-1.0762,1.1025,-2.625,83.443175028537,32.3503396492496,0.14900036516059684,11.093000000000757
0.4853,0.0865,0.7626,-0.3706,0.4696,0.4082,-1.155,1.0588,-2.4237,83.47715196696592,32.345762389024024,0.1493470486407099,11.10899999999674
0.4864,0.0872,0.7554,-0.3706,0.4696,0.4287,-0.56,1.015,-2.2575,83.47343583385987,32.35834654471891,0.1481148437761072,11.123999999996158
0.4879,0.0885,0.7514,-0.3699,0.4704,0.4116,-0.84,0.9187,-2.4675,83.42462435710505,32.421193424950296,0.14653263940119166,11.139999999999418
0.4907,0.0858,0.7619,-0.3702,0.4694,0.4136,-0.49,0.6825,-2.3975,83.42555183684337,32.43738390012372,0.14109312546071495,11.154999999998836
0.4868,0.0863,0.7522,-0.3712,0.4702,0.4074,-0.9975,1.0412,-2.5725,83.43540639244365,32.500378692586686,0.14197709291087984,11.17099999999482
0.495,0.0872,0.7538,-0.3698,0.47,0.4063,-0.63,0.8838,-2.5025,83.43138454817824,32.600610328860995,0.14050610362238464,11.18699999999808
0.4926,0.0877,0.7602,-0.3698,0.47,0.4063,-0.245,1.6538,-2.1788,83.42893810878942,32.62007312379497,0.1487817932592798,11.201999999997497
0.4912,0.0836,0.769,-0.371,0.4694,0.4081,-0.5075,0.665,-2.4588,83.43302997945574,32.59340715072825,0.1434796139353027,11.218000000000757
0.493,0.0866,0.7563,-0.3703,0.4706,0.4054,-0.7262,0.7962,-2.3888,83.4395325337643,32.618282537483594,0.13988035253614153,11.232999999992899
0.4914,0.0865,0.7592,-0.3698,0.4686,0.4082,-0.5425,1.2163,-1.9512,83.44220723262303,32.651655657460665,0.1434070372860956,11.248999999996158
0.4853,0.0886,0.7654,-0.3691,0.4694,0.4095,-0.63,1.1988,-2.275,83.43687642246782,32.637151125652395,0.14632905356100293,11.264999999999418
0.4896,0.0858,0.7516,-0.3691,0.4694,0.4095,-0.3237,1.1025,-2.625,83.44432597001392,32.70303731820383,0.14657989820432507,11.279999999998836
0.4889,0.0845,0.7598,-0.3707,0.4698,0.4007,-1.0938,0.665,-2.2487,83.52276121459737,32.697197130658374,0.14149790838584347,11.296000000002095
0.4889,0.0875,0.7599,-0.3708,0.469,0.4074,-0.63,0.6825,-2.45,83.51199321480817,32.683255814121175,0.13656186754243232,11.310999999994237
0.4864,0.0859,0.7499,-0.3706,0.469,0.407,-0.14,0.91,-2.2575,83.49973704280083,32.68882435723624,0.13600968079085873,11.326999999997497
0.4887,0.0853,0.7554,-0.3706,0.469,0.407,-0.4988,1.0325,-2.59,83.49988586108212,32.69901065044313,0.13727671270804068,11.34299999999348
0.4905,0.0877,0.7579,-0.37,0.4685,0.4094,-0.6913,1.015,-2.3275,83.48348332605768,32.6997124471014,0.13725154144335147,11.358000000000175
0.4924,0.0859,0.758,-0.3718,0.4714,0.41,-0.385,1.2775,-2.2662,83.488595793412,32.70545462144016,0.1419223873027641,11.374000000003434
0.4895,0.0888,0.7594,-0.37,0.4703,0.4083,-0.6388,1.3563,-2.5725,83.46885918197853,32.68936425385347,0.14604019856289563,11.388999999995576
0.4858,0.0815,0.7587,-0.3696,0.4703,0.407,-0.7962,0.7175,-2.3363,83.56114175763898,32.68377531923374,0.14176817870871097,11.404999999998836
0.4893,0.0875,0.7643,-0.3696,0.4703,0.407,-0.665,0.9013,-2.3012,83.54783442941208,32.68213432081367,0.14057008083458195,11.42099999999482
0.4922,0.0864,0.7561,-0.3714,0.4704,0.4015,-0.5775,1.1725,-2.3975,83.54281412432945,32.699388556835025,0.1423418227581875,11.436000000001513
0.4887,0.0851,0.7549,-0.3694,0.4702,0.4081,-0.2362,1.1375,-2.3625,83.54805085756773,32.70213479983959,0.14448764047825702,11.451999999997497
0.4931,0.0882,0.7695,-0.3707,0.4698,0.4091,-0.49,1.0325,-2.3975,83.5475151128434,32.68417667135638,0.14397762642989043,11.466999999996915
0.4846,0.0845,0.7585,-0.3707,0.471,0.4091,-0.2625,1.0588,-2.2925,83.56564675309673,32.679918208787996,0.14482658379000757,11.483000000000175
0.4909,0.0867,0.7646,-0.3713,0.471,0.4091,-0.525,1.365,-2.66,83.56466931320257,32.64241398143524,0.14999992540607276,11.498999999996158
0.4907,0.0839,0.7565,-0.3706,0.4694,0.4066,-0.315,1.12,-2.6163,83.58105032924144,32.68175223850723,0.15011993286487876,11.513999999995576
0.4911,0.0883,0.7595,-0.3703,0.4695,0.409,-0.4638,0.7875,-1.9425,83.57437778400761,32.68984683327816,0.14644793958070115,11.529999999998836
0.4842,0.0882,0.771,-0.3704,0.4702,0.4079,-0.49,1.015,-2.5638,83.57375733709591,32.54181659934318,0.1455056456220993,11.544999999998254
0.4949,0.0877,0.7682,-0.3704,0.4702,0.4079,-0.1312,0.8225,-2.3888,83.5505952544308,32.54779901750261,0.14279908106230232,11.561000000001513
0.4823,0.0848,0.7467,-0.37,0.4702,0.4102,-0.4988,0.7613,-2.6163,83.55051862496501,32.58165819623271,0.13948189295332025,11.576999999997497
0.4904,0.0883,0.7657,-0.3713,0.47,0.409,-0.945,1.1113,-2.4675,83.51062962343306,32.565831167051975,0.14053625365740605,11.591999999996915
0.49,0.0867,0.7684,-0.3717,0.4696,0.4075,-0.945,1.3212,-2.555,83.52667799554744,32.52535149088143,0.14550790828688973,11.607999999992899
0.4925,0.0868,0.7612,-0.3717,0.4696,0.4075,-0.4112,1.085,-2.17,83.52416726090202,32.55079592541332,0.14560461746473735,11.622999999999593
0.4809,0.0854,0.7594,-0.3712,0.4681,0.4164,-0.1838,0.735,-2.4413,83.5383232105784,32.50757393488805,0.14162815572041987,11.639000000002852
0.4892,0.0892,0.7676,-0.3706,0.4696,0.4092,-0.6737,0.9187,-2.59,83.51319190982538,32.46986548537556,0.14069462014505707,11.654999999998836
0.4887,0.0869,0.7655,-0.3694,0.4698,0.4094,-0.9187,1.1812,-2.1263,83.51624634816743,32.457288270787416,0.14257135812993257,11.669999999998254
0.4938,0.0873,0.7582,-0.3712,0.4691,0.4081,-0.8925,0.7962,-2.5113,83.49228592492717,32.53244125811541,0.1397795023140613,11.685999999994237
0.4926,0.0853,0.753,-0.3712,0.4691,0.4081,-0.245,1.3212,-2.3975,83.5012780882505,32.57268056950176,0.14363775209061475,11.701000000000931
0.4823,0.0851,0.7534,-0.37,0.47,0.4101,-0.9712,0.84,-2.5812,83.51873681568826,32.54880182507736,0.14136997688401756,11.717000000004191
0.4861,0.0875,0.7539,-0.37,0.4697,0.4081,-0.5163,1.2687,-2.3537,83.51599896599382,32.552691840773846,0.14550225918272194,11.732999999992899
0.4931,0.0853,0.76,-0.3697,0.469,0.4086,0.0175,0.9363,-2.9137,83.54318416336166,32.65068288749323,0.1435920832700905,11.747999999999593
0.4915,0.0872,0.7602,-0.3697,0.469,0.4086,-0.49,0.6125,-2.2225,83.54264816840154,32.65568112607137,0.13805287494086743,11.763999999995576
0.4876,0.0891,0.7619,-0.3702,0.47,0.409,-0.8925,0.8838,-2.0825,83.4822591311434,32.61628213963372,0.1361788874463177,11.778999999994994
0.4934,0.087,0.7634,-0.3709,0.4707,0.4055,-0.0787,0.8575,-2.4325,83.48701409267069,32.626294524201384,0.13490899870420156,11.794999999998254
0.4914,0.088,0.7618,-0.3706,0.4701,0.4075,-0.5337,1.2425,-2.2662,83.48425432980066,32.62731157916591,0.13931009882929016,11.810999999994237
0.4868,0.0847,0.7527,-0.3704,0.4688,0.4074,-0.91,0.9187,-2.2313,83.51216470429526,32.634538916365415,0.13778153895189585,11.826000000000931
0.4893,0.0856,0.7583,-0.3704,0.4688,0.4074,-1.0588,0.5512,-2.2925,83.52920092515774,32.635057946208036,0.13194066505471386,11.841999999996915
0.4922,0.0853,0.7578,-0.371,0.4708,0.4114,-0.7788,0.9887,-2.4762,83.53987917753088,32.66443622180131,0.13209404854872453,11.856999999996333
0.4873,0.0884,0.7721,-0.371,0.4697,0.409,-0.3063,1.4438,-2.52,83.52848338463129,32.564044394621256,0.13967536368863318,11.872999999992317
0.4873,0.0848,0.7609,-0.3703,0.4704,0.4077,-0.455,0.9363,-2.6513,83.53292918452794,32.54160794878864,0.13919054732251665,11.888999999995576
0.4896,0.0856,0.7516,-0.3703,0.4704,0.4077,-0.665,0.7437,-2.3187,83.52854337244655,32.54534058740288,0.13531144259474542,11.90400000000227
0.4861,0.0866,0.7579,-0.37,0.4693,0.4092,-0.56,0.8925,-2.6862,83.52572124176534,32.53470789967441,0.1346322983320448,11.919999999998254
0.4903,0.0858,0.7555,-0.3702,0.4694,0.411,-0.3063,0.735,-2.31,83.52494219138418,32.53512227157325,0.13109156849845527,11.934999999997672
0.4844,0.0874,0.7596,-0.3698,0.4692,0.4078,-0.4638,0.84,-2.1525,83.52216163884665,32.51084616475885,0.1300784116455734,11.950999999993655
0.4871,0.0875,0.7461,-0.37,0.4691,0.4104,-0.4725,1.1025,-2.275,83.51727259115415,32.525416369217425,0.13294657048425046,11.966999999996915
0.4885,0.0864,0.753,-0.37,0.4691,0.4104,-0.5775,1.085,-2.2138,83.51254972736402,32.54936223550874,0.134299413442362,11.982000000003609
0.4911,0.0841,0.7665,-0.3709,0.4705,0.4059,-0.7525,1.365,-2.4588,83.55866078116534,32.54191318412188,0.14052547209319174,11.997999999999593
0.4898,0.0866,0.7668,-0.3713,0.4697,0.407,0.0263,1.1725,-2.6425,83.55791781355396,32.50744819333606,0.14230167488325834,12.01299999999901
0.4928,0.0878,0.7494,-0.3705,0.4704,0.4087,-0.1925,1.4787,-2.3187,83.50194903978199,32.5139191684379,0.14936478738958744,12.028999999994994
0.49,0.0854,0.767,-0.3705,0.4704,0.4087,-0.8662,0.8313,-2.1525,83.5410386756756,32.50025194176821,0.14639902865306745,12.044999999998254
0.4892,0.0865,0.7579,-0.3695,0.4698,0.4168,-0.4112,0.875,-2.4325,83.53695659295593,32.51922232623799,0.14357162578730231,12.059999999997672
0.4868,0.0873,0.7551,-0.37,0.4695,0.4082,-0.2887,0.8138,-2.4675,83.51429595536496,32.535266701487636,0.14093318320563045,12.075999999993655
0.4901,0.0867,0.7542,-0.3712,0.4702,0.4063,-0.5863,0.8487,-2.6862,83.50834429495207,32.62026442620357,0.1382973148901804,12.09100000000035
0.4893,0.0882,0.7544,-0.3708,0.4699,0.405,-0.315,1.3388,-2.4675,83.48122761380257,32.643536453574455,0.143746303396323,12.106999999996333
0.4898,0.0856,0.7655,-0.3708,0.4699,0.405,-0.6037,0.6388,-2.45,83.49465314162971,32.619730219112924,0.13857039305856472,12.122999999999593
0.485,0.0846,0.7607,-0.3699,0.4707,0.4096,-0.8925,0.9625,-1.925,83.53988418335686,32.54799845197242,0.13770710374590125,12.137999999991735
0.4837,0.0879,0.7591,-0.3706,0.4692,0.4093,-0.4725,0.7262,-2.0387,83.53652453486168,32.50224710367451,0.13439367337344155,12.153999999994994
0.489,0.0855,0.7632,-0.3711,0.4702,0.4075,-0.6825,0.9363,-2.2487,83.54773333793324,32.50136061411747,0.1335943560417381,12.169000000001688
0.4884,0.0867,0.7655,-0.3711,0.4702,0.4075,-0.5863,1.0063,-2.2575,83.5469500788573,32.4951349898204,0.13472564043392685,12.184999999997672
0.4868,0.0877,0.7605,-0.3693,0.4695,0.4134,-0.8225,0.63,-2.7037,83.51615462907385,32.4828924120433,0.13032507639238236,12.201000000000931
0.4893,0.0852,0.7654,-0.3709,0.4699,0.4062,-0.1138,1.3563,-2.2575,83.55271137142498,32.48031575374145,0.13560261874355206,12.215999999993073
0.4832,0.0875,0.7707,-0.3702,0.4682,0.4086,-0.5775,0.9275,-2.31,83.55046011342753,32.47948959403829,0.1353983568719178,12.231999999996333
0.4918,0.0858,0.7556,-0.3701,0.4698,0.4069,-0.7525,0.6913,-2.24,83.54459098058994,32.50590716168348,0.13119107118889076,12.247000000003027
0.4915,0.0859,0.7537,-0.3701,0.4698,0.4069,-0.98,1.1025,-2.625,83.52939807833377,32.61028162213702,0.1339479640660165,12.26299999999901
0.4844,0.0895,0.7684,-0.37,0.4703,0.4038,-1.0325,0.9187,-2.4325,83.4689956122986,32.54886249809988,0.13378244766211003,12.27900000000227
0.4952,0.0825,0.7698,-0.3706,0.4702,0.4068,-0.6913,0.98,-2.5812,83.53656462370697,32.560642982216585,0.13363420288896824,12.293999999994412
0.4914,0.0874,0.7554,-0.3704,0.4699,0.4075,-0.7437,1.0325,-2.1788,83.50951288169549,32.596252582837614,0.13513878260310042,12.309999999997672
0.4925,0.0864,0.7503,-0.3704,0.4699,0.4075,-0.5688,1.2425,-2.2225,83.50420630416173,32.636799229539875,0.13839865434213947,12.32499999999709
0.4923,0.0862,0.7602,-0.3702,0.47,0.41,-0.6475,1.1638,-2.3712,83.50770005351545,32.64406798598834,0.14131750890371872,12.340999999993073
0.4859,0.086,0.7529,-0.3706,0.4702,0.4081,-0.8662,1.0588,-2.2838,83.50120017797698,32.644646896045025,0.14243247801645303,12.356999999996333
0.4945,0.0845,0.7581,-0.3702,0.4698,0.4079,-0.21,0.9975,-2.6163,83.5320644148391,32.717520359660085,0.14165548021428517,12.37199999999575
0.4902,0.0881,0.7565,-0.371,0.4696,0.4072,-0.84,1.1113,-2.065,83.48738088708765,32.72715521515348,0.14349265219611684,12.38799999999901
0.4907,0.0874,0.762,-0.371,0.4696,0.4072,-0.49,1.1638,-2.415,83.48719247847694,32.715865702420395,0.1448546869682745,12.402999999991152
0.4907,0.0883,0.7563,-0.3712,0.4694,0.401,-0.7525,0.6212,-2.0475,83.45731102531894,32.73314014737521,0.13931449827326944,12.418999999994412
0.4901,0.0869,0.7662,-0.3709,0.4698,0.409,-0.525,0.8662,-2.5287,83.45932651334886,32.68006977621672,0.13785632844848364,12.434999999997672
0.4893,0.0858,0.7654,-0.3702,0.4711,0.409,-0.5163,0.525,-2.6688,83.46217412742145,32.61319335945968,0.13115819560336026,12.44999999999709
0.4881,0.088,0.7516,-0.3702,0.4711,0.409,-0.6388,0.84,-2.5375,83.44468282638543,32.65216515115693,0.13013837604548853,12.46600000000035
0.4896,0.0873,0.7598,-0.3709,0.4706,0.4053,-0.7613,0.6388,-2.3363,83.44486125914982,32.651460184145165,0.12574833843642194,12.480999999992491
0.489,0.0882,0.7523,-0.3714,0.4707,0.4074,-0.2187,0.6475,-2.4762,83.41624802788962,32.679349809198555,0.12249750459467929,12.49699999999575
0.4935,0.0881,0.7561,-0.3708,0.4709,0.4081,-0.175,1.295,-2.6337,83.40109563049916,32.747127253756815,0.12889575413901047,12.51299999999901
0.4835,0.0848,0.7557,-0.3703,0.469,0.4134,-0.9275,0.8313,-2.1875,83.46024892816011,32.714916521822644,0.12722872872467395,12.527999999998428
0.4889,0.0869,0.7468,-0.3703,0.469,0.4134,-0.875,1.015,-2.4413,83.43345873847173,32.752415591249715,0.12912185585518424,12.544000000001688
0.491,0.0852,0.7567,-0.37,0.4684,0.41,-0.77,1.05,-2.3888,83.4640718463955,32.75697376890642,0.13038467026223996,12.55899999999383
0.4864,0.0845,0.7562,-0.3708,0.4697,0.4069,-0.5512,1.1463,-1.9338,83.47241002786627,32.71098075175452,0.13385292323937883,12.57499999999709
0.4841,0.0891,0.7625,-0.3711,0.4692,0.4072,-0.315,0.9013,-2.3712,83.45134069510736,32.6829243002348,0.13344635091808507,12.59100000000035
0.4898,0.0877,0.7651,-0.3711,0.4692,0.4072,0.0787,1.2425,-2.6337,83.45485928451981,32.62745989264101,0.13687546582562565,12.605999999999767
0.4932,0.0848,0.7607,-0.3713,0.4699,0.4098,-0.3325,1.1375,-2.4762,83.48078461554276,32.651671928762845,0.13956791923895137,12.62199999999575
0.4847,0.0872,0.7648,-0.3694,0.4706,0.409,-0.9887,0.6125,-2.5725,83.48561108842038,32.5568886273123,0.13387987731473536,12.636999999995169
0.4931,0.0859,0.756,-0.3702,0.4682,0.4093,-0.7962,0.7088,-2.2313,83.49299438147696,32.5848111729545,0.13069860958534119,12.652999999998428
0.4865,0.0836,0.7601,-0.3707,0.471,0.4096,0.2013,0.8662,-2.4675,83.58771842131766,32.568371145623814,0.130102028623676,12.668999999994412
0.4862,0.0882,0.7631,-0.3707,0.471,0.4096,-0.7437,0.6125,-2.2838,83.55185441239698,32.562638071735556,0.12536057576098752,12.68399999999383
0.4921,0.0827,0.7706,-0.3702,0.47,0.4043,-0.9712,0.7,-2.6163,83.65576175107113,32.527514634514525,0.12290451818694234,12.69999999999709
0.4914,0.0864,0.7671,-0.3694,0.4708,0.409,-0.245,1.155,-2.5988,83.63929481743749,32.51673140305264,0.12620656636764305,12.714999999996508
0.4914,0.0876,0.7671,-0.3701,0.47,0.4092,-0.5337,1.1113,-2.6337,83.63372907922128,32.506500313013525,0.12958862973413893,12.730999999999767
0.4898,0.0872,0.7513,-0.3701,0.47,0.4092,-0.6737,0.84,-2.5638,83.59541738793294,32.59194673065876,0.1287257667576887,12.74699999999575
0.4841,0.0853,0.7544,-0.3702,0.4686,0.4113,-0.63,1.0412,-2.4938,83.58993609465674,32.58119561995577,0.1299093900813744,12.761999999995169
0.4936,0.0855,0.7534,-0.371,0.4705,0.4026,-1.8025,0.6125,-2.87,83.5534157034075,32.75462727315897,0.1257384510750338,12.777999999998428
0.4873,0.0853,0.7588,-0.3699,0.4685,0.4066,-0.77,0.8838,-2.3975,83.56043223302986,32.73751060751133,0.12509590596706746,12.792999999997846
0.4873,0.0873,0.7674,-0.3706,0.4698,0.4075,-0.525,0.5512,-2.625,83.5590180450809,32.62010496881098,0.12052359537197775,12.809000000001106
0.4952,0.0857,0.7628,-0.3706,0.4698,0.4075,-0.7437,1.1113,-1.9775,83.56511357803723,32.67161208614917,0.12447395583076297,12.82499999999709
0.4815,0.0853,0.7416,-0.3698,0.4698,0.4152,-0.4988,0.6475,-2.555,83.56478721544188,32.70150571855386,0.12076781024734747,12.839999999996508
0.4874,0.0876,0.7579,-0.3698,0.4686,0.4091,-0.77,0.7962,-2.4062,83.53084358137029,32.68998619398057,0.1201563092249485,12.855999999999767
0.4882,0.0881,0.7576,-0.37,0.4697,0.4065,-0.5863,1.1988,-2.555,83.51730044343036,32.67672038528524,0.12432447830182562,12.870999999999185
0.4917,0.0876,0.7666,-0.37,0.4697,0.4065,-0.4988,0.9975,-2.4588,83.51720691942278,32.65462406687931,0.12625603047456938,12.887000000002445
0.4869,0.087,0.7581,-0.3699,0.4699,0.4031,-0.5775,0.805,-2.6688,83.51240588139798,32.6245174144728,0.12522242742420261,12.902999999998428
0.4928,0.0864,0.7697,-0.3702,0.469,0.4093,-0.84,0.77,-2.3712,83.53360589609073,32.61520884117412,0.12309518468137898,12.917999999997846
0.4855,0.0853,0.7541,-0.3696,0.4695,0.4083,-0.7525,0.9625,-2.3187,83.53622016421906,32.61514057755959,0.12464566620976193,12.93399999999383
0.4869,0.0859,0.7704,-0.371,0.4691,0.4076,-0.3675,1.0237,-2.6337,83.54780048119679,32.49698358840492,0.126001049594953,12.949000000000524
0.4878,0.0901,0.7658,-0.371,0.4691,0.4076,-0.7,1.4262,-2.24,83.50411220459024,32.485516254757094,0.13393822463030242,12.964999999996508
0.4942,0.0889,0.7638,-0.3704,0.4701,0.4075,-0.4638,1.1988,-2.835,83.49962267744748,32.569295013973715,0.1378071221629389,12.980999999992491
0.4893,0.0864,0.7503,-0.3711,0.4698,0.4082,-0.9013,1.0762,-2.3275,83.47986727285489,32.576153395874115,0.13855510995312856,12.995999999999185
0.4907,0.0864,0.7699,-0.369,0.4699,0.4081,-0.385,1.3388,-2.5463,83.49158251699043,32.53258147104762,0.14397831895297633,13.011999999995169
0.485,0.0859,0.7518,-0.369,0.4699,0.405,-0.6212,1.12,-2.59,83.49048488333868,32.56007816943128,0.144700487057092,13.026999999994587
0.4881,0.0863,0.7581,-0.3703,0.4706,0.405,-0.3938,0.7788,-2.3363,83.49188580333926,32.56136396596067,0.14144515835366753,13.042999999997846
0.4869,0.0841,0.7732,-0.3698,0.4702,0.4048,-1.0412,0.9887,-2.52,83.59789513096014,32.471703005046145,0.14153792251472694,13.05899999999383
0.4839,0.0872,0.7621,-0.372,0.471,0.4074,-0.1838,0.8575,-2.3625,83.56806090834208,32.460111113849536,0.13896038026842025,13.074000000000524
0.4935,0.0862,0.7583,-0.3704,0.4706,0.4081,-0.5863,0.9975,-2.765,83.56365294872249,32.594234401003916,0.13942834223797257,13.089999999996508
0.4868,0.0867,0.7542,-0.3704,0.4706,0.4081,-0.6388,1.2862,-2.3363,83.54850626593942,32.59626000179603,0.1428492080135015,13.104999999995925
0.4879,0.0853,0.7538,-0.369,0.4713,0.4091,-0.4725,1.05,-1.925,83.54839896138536,32.63806397131054,0.14368428721523172,13.120999999999185
0.4879,0.0871,0.7545,-0.37,0.4701,0.4087,-0.735,1.1988,-2.45,83.52266302609091,32.6477446584154,0.14657857848937525,13.136999999995169
0.486,0.0861,0.7542,-0.3702,0.4691,0.4085,-0.3762,1.3563,-2.73,83.51887039104402,32.64210086280238,0.15023077064860876,13.152000000001863
0.4861,0.0859,0.768,-0.3702,0.4691,0.4056,-0.3675,1.2075,-2.3187,83.53018062437016,32.637350649372664,0.15259569357938313,13.167999999997846
0.4897,0.0858,0.7639,-0.3702,0.4699,0.4056,-0.4638,0.8925,-2.31,83.53210552120261,32.63714625675982,0.14938487422097727,13.182999999997264
0.4842,0.0838,0.7479,-0.371,0.4696,0.4076,-0.2713,0.595,-2.3012,83.54582824960474,32.638014941001515,0.1430143867967288,13.198999999993248
0.4911,0.0885,0.756,-0.3698,0.47,0.4074,-0.525,0.7962,-2.3537,83.53959744580057,32.646313941063674,0.1401782281193917,13.214999999996508
0.4869,0.0859,0.7571,-0.37,0.4703,0.4085,-0.5337,0.9712,-2.5113,83.53914028807881,32.63497659262397,0.13927160531330354,13.230000000003201
0.4918,0.0858,0.7531,-0.37,0.4703,0.4085,-0.35,0.7175,-2.6425,83.53419446068659,32.720604580787516,0.1356764447746812,13.24599999999191
0.4905,0.0881,0.7581,-0.3698,0.4704,0.4166,-0.91,1.1463,-2.38,83.48651879286021,32.72111991036374,0.13758385030411896,13.260999999998603
0.4842,0.0869,0.7578,-0.3704,0.4692,0.4088,-0.5075,1.1988,-2.1,83.48620315234069,32.66694929650372,0.14108818526937378,13.276999999994587
0.4954,0.0853,0.7613,-0.371,0.4693,0.4075,-0.9887,0.6913,-2.5287,83.52604610871974,32.70720544229573,0.13693408674446444,13.292999999997846
0.4871,0.0887,0.7654,-0.371,0.4693,0.4075,-0.56,1.0325,-2.4675,83.51786725878715,32.651318426313686,0.1371794280694771,13.307999999997264
0.4926,0.0841,0.7574,-0.3713,0.4707,0.4086,-0.5775,1.4438,-2.3187,83.52884980203466,32.65361325609846,0.1442522052573105,13.323999999993248
0.4896,0.0867,0.7637,-0.3696,0.47,0.4066,-1.1025,0.56,-2.6337,83.52670024189058,32.615193048340316,0.13738698473495317,13.338999999999942
0.4857,0.0866,0.753,-0.3707,0.4686,0.407,-0.6737,0.8225,-2.5113,83.5135454522478,32.62132928042763,0.13549228625848478,13.354999999995925
0.4898,0.0856,0.7627,-0.369,0.471,0.4078,-0.6913,0.77,-2.52,83.52705898273142,32.60807930789895,0.13303105763489523,13.370999999999185
0.4855,0.0836,0.7565,-0.369,0.471,0.4078,-0.5425,1.0588,-2.0912,83.5344394317278,32.594732935217955,0.13402175187085102,13.385999999998603
0.4916,0.0892,0.7607,-0.3702,0.4699,0.4012,-0.5688,0.8313,-2.3537,83.51938709394501,32.599038876549905,0.13259029668076103,13.401999999994587
0.4962,0.0859,0.7563,-0.3686,0.47,0.4084,-0.7875,0.3413,-2.0738,83.5195605403404,32.69431510956328,0.12393881701474108,13.41700000000128
0.4846,0.0869,0.7688,-0.3708,0.4697,0.4093,-0.4112,0.9538,-2.5025,83.52202714045232,32.591381688070996,0.12527965530981927,13.432999999997264
0.4902,0.0884,0.7514,-0.3708,0.4705,0.4119,-0.4462,1.0675,-2.5988,83.51098305579657,32.66975763559562,0.12812368978196903,13.449000000000524
0.4889,0.0833,0.7564,-0.3709,0.4705,0.4119,-0.84,0.8575,-2.3012,83.56330970376625,32.67011841808955,0.12688757079770768,13.463999999992666
0.4809,0.0855,0.7476,-0.3694,0.4701,0.4036,-0.105,0.8487,-2.7562,83.53866209037342,32.64297381866537,0.1264200937204267,13.479999999995925
0.4912,0.0883,0.7572,-0.37,0.4702,0.4074,-0.6737,0.6737,-2.52,83.51000758932116,32.669560888584215,0.12287303435244273,13.49500000000262
0.4889,0.0856,0.7666,-0.3697,0.4706,0.41,-1.1725,1.1988,-2.38,83.55786822493322,32.649377628975934,0.12784845091286517,13.510999999998603
0.4848,0.0863,0.7574,-0.3697,0.4706,0.41,-0.6562,1.26,-2.4062,83.54983375060837,32.632090585092456,0.13320760581702415,13.526999999994587
0.4879,0.0853,0.7599,-0.37,0.4704,0.414,-0.84,0.91,-2.4675,83.56145721044847,32.619451161548746,0.13217184523484501,13.541999999994005
0.4931,0.0851,0.7607,-0.3699,0.4698,0.4066,-0.6475,0.5425,-2.8612,83.56873280221193,32.680030909971,0.12676666071295203,13.557999999997264
0.4842,0.0838,0.7557,-0.3711,0.4702,0.4067,-0.6125,0.6913,-2.205,83.5795206709739,32.66221216493328,0.12342254464129468,13.572999999996682
0.4881,0.0874,0.762,-0.3711,0.4702,0.4067,-0.3938,1.1025,-2.5375,83.56812668092967,32.626737596237554,0.12695629017318003,13.588999999992666
0.4881,0.0853,0.7535,-0.3703,0.4691,0.4078,-0.4725,0.8487,-2.5988,83.56750583516546,32.65851727486784,0.12648194115835182,13.604999999995925
0.487,0.0884,0.7632,-0.3697,0.4695,0.4036,-0.6737,0.9275,-2.5463,83.54119919872781,32.60293402093474,0.12635499704203074,13.619999999995343
0.4845,0.0866,0.7515,-0.3698,0.4703,0.4095,-0.7875,1.1463,-2.555,83.51531375052961,32.60995243414017,0.13022621734119053,13.635999999998603
0.4868,0.083,0.7596,-0.3703,0.4718,0.4082,-0.7613,1.3125,-2.3012,83.56745317105447,32.60915386819965,0.1349223456063839,13.650999999998021
0.4871,0.0849,0.7612,-0.3703,0.4718,0.4082,-0.2713,0.9275,-2.2575,83.58001218568283,32.6016718105608,0.13478611104239288,13.666999999994005
0.4805,0.0876,0.7604,-0.3705,0.4689,0.4063,0.1838,1.0237,-2.1788,83.51862496272474,32.546208138684314,0.1360487799411568,13.682999999997264
0.4848,0.0854,0.7555,-0.3695,0.4698,0.4074,-0.3237,1.2075,-2.5375,83.52335758755777,32.54187442823056,0.13874515194640855,13.697999999996682
0.4912,0.0851,0.7584,-0.3693,0.4698,0.4094,-0.6562,1.4525,-2.5025,83.53360082811004,32.57844147442873,0.14578663675602885,13.713999999999942
0.4889,0.0873,0.7521,-0.3693,0.4698,0.4094,-0.5775,1.3038,-2.38,83.52198036140025,32.596609622013304,0.14880927307120517,13.728999999992084
0.4898,0.085,0.7616,-0.3702,0.4703,0.4106,-0.2537,0.77,-2.6862,83.54340244821657,32.59335461538396,0.14501634576634356,13.744999999995343
0.4854,0.0858,0.7527,-0.3714,0.4708,0.4084,-0.6825,0.9013,-2.1788,83.53610694930931,32.59972936761631,0.14349343119235333,13.760999999998603
0.4917,0.088,0.7556,-0.3715,0.4717,0.4075,-0.6475,1.365,-2.5638,83.51257725926457,32.65621951271736,0.14757158807240292,13.775999999998021
0.4892,0.0845,0.7644,-0.3709,0.4716,0.41,-0.6737,1.1988,-2.695,83.53960632194645,32.60169455156694,0.15007714926867952,13.79200000000128
0.4898,0.0876,0.7487,-0.3709,0.4716,0.41,-0.9275,0.8838,-2.6163,83.47541410438694,32.69885330931967,0.14700073433556113,13.806999999993423
0.4868,0.0858,0.7568,-0.3694,0.4713,0.4055,-0.7262,0.7613,-2.6425,83.4859713677018,32.67016943928336,0.14326338090423843,13.822999999996682
0.4858,0.0847,0.7574,-0.3702,0.4706,0.4094,-1.1375,0.9013,-2.4325,83.53799839971197,32.65302199847837,0.1419157628164587,13.838999999999942
0.4906,0.0862,0.7596,-0.3703,0.4708,0.4088,-1.05,0.91,-2.4413,83.53362479041267,32.65738085500663,0.1400091865343361,13.85399999999936
0.4845,0.0866,0.7613,-0.3703,0.4708,0.4088,-0.5425,0.9975,-2.5113,83.5325947365662,32.59823106300681,0.14037226787729684,13.869999999995343
0.4924,0.0864,0.751,-0.3706,0.4704,0.4112,-0.7,0.7088,-2.6513,83.51644021462022,32.720888295484606,0.13590384108919584,13.884999999994761
0.4824,0.0869,0.758,-0.3706,0.471,0.4078,-0.8487,0.7788,-2.5638,83.50171685932764,32.63609674794897,0.133528176982561,13.900999999998021
0.4882,0.088,0.7493,-0.3708,0.4707,0.4091,-0.5425,0.98,-2.5287,83.49286837379914,32.68492083483878,0.1342873592871799,13.91700000000128
0.4823,0.0869,0.7585,-0.3702,0.4694,0.4103,-0.6562,1.0762,-2.8788,83.48891726563106,32.53849714940838,0.13538732335085077,13.931999999993423
0.4898,0.083,0.7618,-0.3702,0.4694,0.4103,-0.2187,1.0938,-2.2662,83.55258552520787,32.54040268513916,0.13759931101897455,13.947999999996682
0.4871,0.0892,0.7579,-0.3711,0.4714,0.408,-0.3762,1.4963,-2.24,83.52418391770958,32.54100142546284,0.14403942991629323,13.9629999999961
0.4861,0.0842,0.7587,-0.3712,0.47,0.4077,-0.6125,0.91,-2.6075,83.53908931605552,32.52895105698207,0.14273948692733354,13.97899999999936
0.4869,0.086,0.7632,-0.3702,0.471,0.4084,-0.91,0.91,-2.45,83.54838050788037,32.50962715729258,0.1415695382372698,13.99500000000262
0.4883,0.0866,0.7639,-0.3702,0.4506,0.4134,-0.56,1.225,-2.625,83.5474127777063,32.48849665444823,0.14395008440487933,14.009999999994761
0.487,0.0857,0.7637,-0.3702,0.4702,0.4134,-0.91,1.6187,-2.2313,83.56199469446938,32.47948173826577,0.15286435596914014,14.025999999998021
0.4867,0.0859,0.7443,-0.3694,0.47,0.4104,-0.6212,1.05,-2.31,83.54584071747023,32.48026189889282,0.15175292037167606,14.040999999997439
0.4895,0.0884,0.7574,-0.371,0.4711,0.4079,-0.6475,0.9013,-2.6075,83.51916498269955,32.53031317814931,0.1495563483371526,14.057000000000698
0.4884,0.0859,0.7561,-0.3707,0.4703,0.4051,-0.2362,0.735,-2.1875,83.51901879333204,32.54788269916095,0.1451847135055936,14.073000000003958
0.4903,0.088,0.761,-0.3707,0.4703,0.4051,-0.8225,0.7,-2.2313,83.49066517486395,32.55305315747247,0.14011624215008367,14.0879999999961
0.4873,0.0835,0.7623,-0.3692,0.4697,0.4063,-0.7962,1.0412,-2.555,83.55025977554783,32.52948586992775,0.14109789793812985,14.10399999999936
0.487,0.0869,0.7629,-0.3694,0.4706,0.4095,-0.3762,0.7613,-2.5287,83.54504485012097,32.50341436211473,0.13726565814391803,14.118999999998778
0.4821,0.083,0.7704,-0.37,0.471,0.4095,-0.1663,0.77,-2.6163,83.620915383525,32.35881038167009,0.13462709233178516,14.135000000002037
0.4856,0.0882,0.7559,-0.37,0.471,0.4095,-0.35,0.98,-2.9225,83.58568096156347,32.428230960051515,0.13527638309506426,14.150999999998021
0.4962,0.0846,0.7546,-0.3702,0.4699,0.4106,-0.4375,0.595,-2.4325,83.58664952279348,32.50933764798387,0.12978124478524614,14.165999999997439
0.4864,0.0855,0.7576,-0.3702,0.4702,0.4081,-0.63,0.7613,-2.6425,83.5836287619707,32.516253005089865,0.12776584030895494,14.182000000000698
0.4881,0.0871,0.7612,-0.3694,0.4706,0.4094,-0.8662,0.9625,-2.2662,83.55357453254253,32.51558835040012,0.12798300627125245,14.19699999999284
0.4879,0.0873,0.762,-0.371,0.4704,0.4094,-0.945,1.0412,-2.2313,83.52591839539231,32.51171560293864,0.13017798564718172,14.2129999999961
0.4875,0.0836,0.7654,-0.371,0.4704,0.4094,-0.4025,0.8225,-2.4588,83.54654433283551,32.48930832597492,0.12900418707949046,14.228999999992084
0.4888,0.085,0.7576,-0.3701,0.4693,0.409,-0.2975,0.7437,-2.1962,83.55513907477348,32.50723847934824,0.12614371837602184,14.243999999998778
0.4854,0.0845,0.7556,-0.3709,0.4703,0.4073,-0.8225,0.5337,-2.2487,83.57085736482479,32.50994123184562,0.12121462653998535,14.260000000002037
0.4814,0.0886,0.7602,-0.3698,0.4704,0.4072,-0.1838,0.6737,-2.5812,83.51882300060969,32.437055732616145,0.11818811388122225,14.27499999999418
0.4932,0.0843,0.766,-0.3698,0.4704,0.4072,-0.56,0.8225,-2.5463,83.53087056749983,32.47205596835918,0.11821330249551297,14.290999999997439
0.4888,0.0837,0.7591,-0.37,0.4706,0.4152,-0.6388,1.155,-2.2925,83.55295765454566,32.47440329616926,0.1230239722417867,14.306999999993423
0.4929,0.0865,0.7578,-0.3704,0.4702,0.4107,-0.91,1.26,-2.4675,83.53397169533176,32.52895943540831,0.12773157502519888,14.322000000000116
0.486,0.0861,0.7481,-0.3702,0.4706,0.4082,-0.21,1.0588,-2.3363,83.51186481500719,32.537301949020154,0.13020513752578516,14.338000000003376
0.4883,0.0845,0.7637,-0.3704,0.4702,0.4085,-0.4638,1.3212,-2.5113,83.51733702567763,32.520277677056605,0.13502082376386282,14.352999999995518
0.4878,0.0877,0.7578,-0.3704,0.4702,0.4085,-0.4638,0.9887,-2.2313,83.51360728367207,32.525732831657606,0.13575602139037704,14.368999999998778
0.4834,0.0899,0.7576,-0.3706,0.4706,0.4099,-0.3413,0.525,-2.3625,83.47592620941965,32.517206372718825,0.12974041924944163,14.384999999994761
0.4909,0.0863,0.76,-0.3698,0.4712,0.4084,-0.665,1.1113,-2.38,83.48253107682878,32.528881037860586,0.1317689273311925,14.400000000001455
0.4911,0.0855,0.7639,-0.3706,0.4693,0.4098,-0.5425,1.0063,-2.275,83.48833431685033,32.53035536581949,0.13308275459443578,14.415999999997439
0.4909,0.0877,0.7469,-0.3706,0.4693,0.4098,-0.7788,1.2513,-2.5287,83.44751613205112,32.63948363062663,0.1366670291343367,14.430999999996857
0.4978,0.0869,0.7471,-0.369,0.4702,0.4163,-0.4988,0.91,-2.38,83.44730425971119,32.69678887086679,0.13610432622357266,14.447000000000116
0.4915,0.0866,0.7698,-0.3698,0.4698,0.4066,-0.3237,1.3212,-2.45,83.46703355767991,32.65927473165121,0.14151917359643967,14.4629999999961
0.49,0.0886,0.7529,-0.3694,0.4704,0.4075,-1.0588,1.3737,-2.2313,83.40271812359943,32.6748737579108,0.14591220623607606,14.477999999995518
0.4844,0.0833,0.7573,-0.3697,0.4701,0.4084,-0.7525,1.0412,-2.5375,83.46804141549657,32.63268663885241,0.14631426560870484,14.493999999991502
0.4914,0.0883,0.755,-0.3697,0.4701,0.4084,-0.4462,1.3212,-2.485,83.46143548167814,32.669911529542745,0.14951903905579392,14.508999999998196
0.4904,0.085,0.7739,-0.3688,0.471,0.4118,-0.21,0.98,-2.3625,83.52167340454261,32.646164422141524,0.14867913515308953,14.525000000001455
0.4898,0.0842,0.7578,-0.3715,0.4702,0.4081,-0.3762,0.8575,-2.38,83.53647510865844,32.65084614380285,0.14615922163468098,14.540999999997439
0.4929,0.0829,0.7626,-0.3694,0.471,0.4077,-0.5512,0.875,-2.24,83.5499966997002,32.65547410358194,0.1433557994707545,14.555999999996857
0.4875,0.0877,0.7533,-0.3694,0.471,0.4022,-0.1575,0.805,-2.3275,83.50178751220939,32.656924687023874,0.14061221952076924,14.57199999999284
0.4879,0.0859,0.7698,-0.3694,0.4702,0.4022,-0.2362,1.26,-2.2925,83.52883365637838,32.649822294367276,0.14356099757628318,14.586999999999534
0.4885,0.0878,0.7524,-0.3705,0.4705,0.4137,-0.6037,0.9887,-1.9425,83.51090182807691,32.69465769083722,0.14344217782155538,14.603000000002794
0.4866,0.0849,0.764,-0.3678,0.4698,0.4082,-0.6562,1.1988,-2.5725,83.53132557249268,32.61941896777313,0.14636068003506655,14.618999999998778
0.4932,0.0881,0.7591,-0.3702,0.471,0.4086,-0.8487,0.875,-2.7475,83.4918753477615,32.685972646136456,0.1435371120311015,14.633999999998196
0.4926,0.0893,0.7537,-0.3702,0.471,0.4086,-0.7788,0.8138,-2.4062,83.43703600479658,32.712584303055216,0.14090212082504971,14.64999999999418
0.4868,0.0874,0.7594,-0.3688,0.4699,0.4184,-0.7175,0.8925,-2.1525,83.43660651591222,32.682563799846484,0.1388606587479216,14.665000000000873
0.4855,0.0895,0.7621,-0.3696,0.4701,0.4086,-0.805,0.735,-2.205,83.40483446825652,32.648724482820825,0.13555859287047264,14.680999999996857
0.4895,0.0839,0.743,-0.3698,0.4699,0.4093,-0.9975,0.7525,-2.24,83.45578258238884,32.68477885926074,0.13283873358563297,14.697000000000116
0.4847,0.0906,0.7669,-0.3698,0.4699,0.4298,-0.7788,1.47,-2.38,83.4131804424555,32.64675854201188,0.13939986022629958,14.711999999999534
0.4992,0.0639,0.7363,-0.3691,0.4693,0.411,-0.9625,1.0762,-2.3537,83.93051604038858,32.70684969697883,0.14095715419977947,14.727999999995518
0.4878,0.0786,0.7534,-0.3707,0.4706,0.4089,0.2362,1.5662,-2.6862,83.97851336136404,32.72698866319921,0.1480051387892371,14.743000000002212
0.4912,0.0698,0.7626,-0.3699,0.4708,0.4072,-0.56,1.1725,-2.3537,84.02599275231216,32.72484390593091,0.1500886248983972,14.75899999999092
0.4812,0.1028,0.7544,-0.3696,0.4703,0.4086,-0.4462,1.0938,-2.7912,83.94093502961128,32.58444870368384,0.15083048241176633,14.77499999999418
0.4965,0.0888,0.7619,-0.3696,0.4703,0.4086,-0.42,1.19,-2.3888,83.89923766051257,32.608948407052054,0.15181243417775886,14.790000000000873
0.4833,0.0924,0.7625,-0.3698,0.471,0.409,-0.42,1.085,-2.5375,83.84197029624973,32.52892582210146,0.15225519075606103,14.805999999996857
0.487,0.0892,0.7628,-0.3694,0.4697,0.4074,-0.8225,1.085,-2.3625,83.71608214243186,32.52127073175269,0.15167717167988654,14.820999999996275
0.4951,0.0867,0.777,-0.3703,0.4699,0.4066,-0.8838,0.945,-2.1962,83.69290365182954,32.50343258061226,0.150117454508482,14.836999999992258
0.4934,0.0996,0.7695,-0.3701,0.4696,0.4081,-0.6388,0.7437,-2.5638,83.55963011438271,32.492955878103686,0.14581498905981558,14.852999999995518
0.4955,0.0911,0.7569,-0.3701,0.4696,0.4081,-0.805,0.7175,-2.5113,83.4599011208439,32.5821455066835,0.1409197401581566,14.868000000002212
0.4813,0.0828,0.7704,-0.3701,0.4704,0.4071,-0.3938,0.6212,-2.38,83.49758952702602,32.53310451069067,0.1357730461400955,14.883999999998196
0.4869,0.096,0.7616,-0.3697,0.4698,0.409,-0.1838,1.0938,-2.6862,83.33527668394909,32.49295832864309,0.13696204152551295,14.898999999997613
0.4923,0.0773,0.7561,-0.3694,0.4706,0.4134,-0.805,0.9275,-2.1962,83.53047868972305,32.53731869982913,0.13662183736960903,14.914999999993597
0.4923,0.0888,0.762,-0.3694,0.4706,0.4134,-0.6913,0.9975,-2.6337,83.50150593894669,32.574566314087186,0.13732365363557447,14.930999999996857
0.4804,0.0752,0.7609,-0.3706,0.4705,0.4048,-0.3675,0.8662,-2.6425,83.59892254421956,32.466019160451474,0.13528498827156324,14.945999999996275
0.485,0.075,0.766,-0.3698,0.4693,0.4065,-0.945,0.6125,-2.135,83.8495244906169,32.4291859701763,0.1305764894462038,14.961999999999534
0.4909,0.0928,0.7477,-0.3703,0.4693,0.4085,-0.6125,1.2337,-2.4325,83.75321211183261,32.50165297749871,0.1341737905009371,14.976999999998952
0.4914,0.0781,0.7681,-0.3703,0.4693,0.4085,0.4112,1.2075,-2.3888,83.9629790281627,32.49973808273555,0.13814441144647865,14.992999999994936
0.4937,0.0755,0.7534,-0.3702,0.4696,0.407,-0.49,0.9363,-2.2487,83.96492052490049,32.53393298240957,0.13781269030457757,15.008999999998196
0.4814,0.0898,0.7635,-0.3698,0.4697,0.413,0.3413,0.665,-2.205,83.65816908170945,32.48898947609184,0.13300892127377145,15.023999999997613
0.489,0.0817,0.762,-0.3715,0.4706,0.4088,-0.5337,0.84,-2.7562,83.66619316325063,32.505054081700145,0.13180402914335798,15.039999999993597
0.4898,0.0938,0.7535,-0.3701,0.4715,0.4074,-0.875,1.1113,-2.59,83.45679949999767,32.57515798475574,0.1336261762357172,15.055000000000291
0.4857,0.088,0.7559,-0.3701,0.4715,0.4074,-0.9187,0.8925,-2.5113,83.42794824014364,32.570484599432966,0.13311555860891938,15.070999999996275
0.4892,0.092,0.7685,-0.3705,0.4704,0.4056,-0.63,0.8925,-2.3712,83.39791129933276,32.554236042963204,0.13265600275064574,15.086999999999534
0.4881,0.0926,0.7699,-0.3706,0.4707,0.4091,-0.595,1.0938,-2.45,83.37487437383216,32.50884737422616,0.13415670246784556,15.101999999991676
0.4887,0.0828,0.7535,-0.3705,0.4713,0.4088,-0.9013,0.945,-2.1437,83.47699399488198,32.551400034205564,0.13434903222383332,15.117999999994936
0.4887,0.0906,0.7674,-0.3705,0.4713,0.4088,-1.2513,0.945,-2.6163,83.38655068141624,32.49473478101764,0.13367162900714313,15.13300000000163
0.4939,0.0925,0.7672,-0.3701,0.4699,0.4023,-0.5688,1.1812,-2.6688,83.36885932736467,32.51845837678663,0.13731374610215916,15.148999999997613
0.4842,0.0824,0.746,-0.3698,0.4688,0.406,-0.6475,0.7262,-2.4237,83.41196608557347,32.55038804970999,0.13403965149407365,15.165000000000873
0.4915,0.0905,0.7651,-0.3695,0.469,0.4093,-0.28,0.7613,-2.7387,83.3839017208417,32.54603983496078,0.1309132363392822,15.179999999993015
0.4942,0.0811,0.7496,-0.3698,0.4699,0.4097,-1.12,0.945,-2.3187,83.5534013127666,32.553065764841136,0.1314299127081263,15.195999999996275
0.4893,0.0849,0.7586,-0.3698,0.4699,0.4097,-0.7525,0.8313,-2.4237,83.56580829441691,32.56410570362426,0.1295094714368782,15.210999999995693
0.486,0.085,0.7638,-0.37,0.4714,0.4065,-0.84,0.7437,-2.3625,83.58732910304504,32.551029318473056,0.12726780429537216,15.226999999998952
0.4817,0.0815,0.7549,-0.3705,0.4711,0.4073,-0.91,0.77,-2.5812,83.6607357670141,32.51684929205018,0.12562902386809385,15.243000000002212
0.489,0.093,0.7501,-0.3702,0.47,0.4081,-0.2975,0.875,-2.6075,83.53998728794048,32.60532108171148,0.12487862147509626,15.257999999994354
0.4922,0.0836,0.7617,-0.3702,0.47,0.4081,-0.1488,0.7088,-2.5025,83.59068144578355,32.6229465214932,0.12259747932966601,15.273999999997613
0.4927,0.0811,0.7617,-0.3706,0.471,0.4063,-0.9887,0.5863,-2.3975,83.70016716979302,32.63327976245994,0.11825278139639228,15.288999999997031
0.4867,0.0884,0.7499,-0.3703,0.4694,0.4082,-0.5863,1.05,-3.01,83.66518493246765,32.7036974150442,0.1215475032598334,15.305000000000291
0.4906,0.0827,0.7623,-0.37,0.4706,0.4082,-1.0237,0.7613,-2.4237,83.71462092067321,32.6942375665722,0.12035547293109819,15.320999999996275
0.4903,0.0946,0.7567,-0.3709,0.4698,0.412,-0.455,1.0675,-2.5025,83.68134897251791,32.701443876765744,0.12273117563742914,15.335999999995693
0.4876,0.0874,0.7638,-0.3709,0.4698,0.412,-0.8838,0.9275,-2.625,83.62291720126592,32.62533245898142,0.12381405807640719,15.351999999998952
0.4968,0.0875,0.752,-0.3702,0.4705,0.4034,-0.7175,1.0675,-2.5113,83.57584335063295,32.73457999342267,0.12584390226820724,15.36699999999837
0.4907,0.0928,0.7563,-0.3698,0.4699,0.4092,-0.1663,1.155,-2.45,83.43414014345527,32.74033360381169,0.12989151203721155,15.382999999994354
0.4886,0.0791,0.7618,-0.3698,0.4713,0.4083,-0.5075,1.1025,-2.52,83.44125923160186,32.70460775053745,0.13277836083672478,15.398999999997613
0.4882,0.088,0.759,-0.3698,0.4713,0.4083,-0.8487,1.085,-2.38,83.42699813530983,32.69602269726927,0.1341480247524839,15.413999999997031
0.4759,0.0902,0.7601,-0.3712,0.4699,0.4039,-0.4988,0.98,-2.4062,83.42649630393218,32.62259200351544,0.13484522228011053,15.430000000000291
0.4902,0.0824,0.7608,-0.3701,0.4716,0.408,-0.5688,0.7962,-2.2138,83.45302865774967,32.62432610247567,0.13210940004646857,15.444999999992433
0.4911,0.0905,0.7523,-0.3698,0.4701,0.4074,-0.3938,1.085,-2.2225,83.4239863965756,32.64998627129275,0.13452246004500473,15.460999999995693
0.4878,0.0822,0.7663,-0.3698,0.471,0.4104,-0.4638,0.9275,-2.3712,83.43822092450677,32.631178710787715,0.13442621404322522,15.476999999998952
0.489,0.0823,0.7537,-0.3698,0.471,0.4104,-0.5688,1.1375,-2.52,83.46055847445567,32.66424849851999,0.1363398426383068,15.49199999999837
0.487,0.0874,0.7572,-0.3693,0.4695,0.4094,-0.1575,0.91,-2.3975,83.44922323084515,32.65697229105955,0.13580985837714576,15.50800000000163
0.4853,0.0809,0.7598,-0.3707,0.4718,0.4086,-0.7,0.9275,-2.415,83.52931063613289,32.63425244672064,0.13475012253287172,15.522999999993772
0.4915,0.0912,0.7538,-0.3702,0.4702,0.4085,-0.0962,0.9712,-2.24,83.40707168347419,32.65227866758403,0.13526039028243372,15.538999999997031
0.4844,0.086,0.7557,-0.3702,0.4702,0.4085,-0.6125,1.2513,-2.7037,83.41754082051914,32.60699911931035,0.13975307124966727,15.554999999993015
0.4938,0.0811,0.7566,-0.3714,0.4702,0.4113,-0.4112,0.9538,-2.3363,83.45391864495959,32.61711128192475,0.1386540641304467,15.569999999999709
0.4869,0.0905,0.7536,-0.3698,0.4703,0.409,-0.2362,1.0588,-2.4762,83.39164214286912,32.62610627523004,0.1400353777205082,15.586000000002969
0.4933,0.0868,0.7538,-0.3701,0.47,0.4092,-0.5075,1.2513,-2.1613,83.39208502559099,32.677778865725685,0.1429243899396079,15.60099999999511
0.4832,0.0874,0.7724,-0.3714,0.471,0.4054,-0.7525,0.945,-2.2925,83.42312177852041,32.66497503450947,0.14223995094841943,15.61699999999837
0.494,0.0895,0.7661,-0.3714,0.471,0.4054,-0.9975,0.9712,-2.6862,83.39423110494596,32.6576587911733,0.19619419585474768,15.694999999999709
0.4908,0.087,0.756,-0.3701,0.47,0.4157,-0.5163,1.19,-2.4413,83.39504008119926,32.67668589664171,0.19371077626497143,15.710999999995693
0.49,0.0907,0.7519,-0.3708,0.47,0.4092,0.105,1.3563,-2.6163,83.2924353493411,32.729842441976764,0.19264974863776377,15.72599999999511
0.489,0.0837,0.7618,-0.3697,0.4706,0.407,-0.245,0.8313,-2.2838,83.3802847428165,32.72527148593205,0.18535549377642616,15.74199999999837
0.494,0.0876,0.7623,-0.3697,0.4706,0.407,-1.1725,1.0237,-2.45,83.4062275682011,32.731250545883405,0.18063989439824726,15.756999999997788
0.4937,0.0895,0.7651,-0.371,0.4704,0.4184,-0.315,0.9538,-2.7562,83.3942213932535,32.70798408639506,0.17631062496122066,15.773000000001048
0.4891,0.084,0.7559,-0.3704,0.4706,0.4083,-0.5075,0.9887,-2.4237,83.39717607092246,32.71175064866621,0.17291684246152475,15.788999999997031
0.4907,0.0864,0.7548,-0.3696,0.4707,0.4086,-1.1463,1.0938,-2.5287,83.42583599817836,32.738131046160404,0.17039145821479926,15.80399999999645
0.487,0.0855,0.7603,-0.37,0.4705,0.4054,-0.4462,1.0325,-2.205,83.43335652107024,32.71370497218404,0.16822031238958715,15.819999999992433
0.4935,0.0839,0.7569,-0.37,0.4705,0.4054,-0.455,0.9538,-2.135,83.44291205274331,32.7478384622306,0.1642745811563746,15.834999999999127
0.4856,0.0841,0.7543,-0.3687,0.4698,0.4095,-0.4638,0.9275,-2.5025,83.44904127505977,32.725699605978384,0.16120312304345813,15.851000000002387
0.4918,0.0841,0.772,-0.3696,0.4707,0.4095,-1.1287,0.9538,-2.555,83.57836699470874,32.65063247710815,0.15881753073566462,15.86699999999837
0.4854,0.0875,0.7551,-0.3706,0.4706,0.4075,-0.6125,0.9538,-2.6337,83.55875692487503,32.62851624219386,0.1558120776615985,15.881999999997788
0.4809,0.0863,0.7561,-0.3706,0.4706,0.4075,-0.1663,1.1638,-2.5812,83.5413364474569,32.55593941739132,0.15698958989123185,15.897999999993772
0.4911,0.084,0.763,-0.3701,0.471,0.4173,-0.4288,1.3125,-2.555,83.55246279871317,32.56667320927464,0.15900938091001582,15.913000000000466
0.4901,0.0866,0.7695,-0.3696,0.4697,0.4084,-0.9187,0.6037,-2.6163,83.56031940359783,32.51101952286813,0.1518017228207853,15.929000000003725
0.4876,0.0842,0.7511,-0.3697,0.4709,0.4091,-0.2713,0.84,-2.4762,83.56828824017505,32.55649319664476,0.1487175505301698,15.944999999992433
0.4884,0.0873,0.7656,-0.3701,0.4694,0.4021,-0.4812,0.9712,-2.3975,83.56720064901918,32.541050036081046,0.1469569954830038,15.959999999999127
0.4893,0.0902,0.7655,-0.3701,0.4694,0.4021,-0.665,0.77,-1.9512,83.52568819865935,32.50584384419802,0.1433492959319201,15.97599999999511
0.4842,0.0832,0.7589,-0.37,0.4718,0.4037,-0.5775,0.805,-2.7738,83.54206336253893,32.467166744834145,0.1398818663383064,15.990999999994528
0.4846,0.0904,0.7617,-0.3704,0.4702,0.4074,-0.5688,1.015,-2.3712,83.52105906631786,32.45634291035172,0.14050967970745343,16.006999999997788
0.4897,0.0821,0.754,-0.3702,0.4696,0.4088,-0.6212,0.945,-2.7213,83.55046922452401,32.570904751023306,0.1400667117332922,16.022999999993772
0.4872,0.0845,0.7607,-0.3702,0.4696,0.4088,-0.0875,0.98,-2.17,83.5826717485026,32.559685424263165,0.13929004056586697,16.038000000000466
0.4899,0.087,0.7752,-0.369,0.4706,0.408,-0.3325,1.3913,-2.5725,83.58462291374444,32.46989946769121,0.14539575650425116,16.05399999999645
0.4885,0.083,0.7584,-0.37,0.4691,0.4089,-0.2713,1.0588,-2.2838,83.6157880854265,32.47379248177145,0.14514998085327138,16.068999999995867
0.487,0.0852,0.766,-0.3697,0.4708,0.4094,-0.1838,1.0938,-2.3888,83.62470349281045,32.459964148962186,0.1463857027639905,16.08499999999185
0.4831,0.0845,0.7552,-0.3704,0.4701,0.407,-0.5425,0.7962,-2.5988,83.62430425783579,32.45668365299051,0.14321241248992722,16.10099999999511
0.4936,0.0875,0.7548,-0.3704,0.4701,0.407,-0.8225,0.9887,-2.695,83.56605096182324,32.61026917280793,0.1422386212468909,16.116000000001804
0.4894,0.0863,0.7436,-0.3701,0.4706,0.4108,-0.455,1.1725,-2.4413,83.55868809733511,32.67647773494077,0.14489875911796357,16.131999999997788
0.4872,0.0837,0.7588,-0.3693,0.469,0.409,-0.77,1.0237,-2.6337,83.59022079133698,32.64442090812895,0.14422883320563093,16.146999999997206
0.4932,0.0875,0.7571,-0.371,0.4695,0.4094,-0.7962,1.1638,-2.38,83.54803924187566,32.66200063595471,0.14656466988086106,16.16299999999319
0.4862,0.0888,0.7584,-0.371,0.4695,0.4094,-0.5688,0.6125,-2.5375,83.53272371222306,32.629283224244574,0.14072820289457183,16.17899999999645
0.4893,0.0837,0.7649,-0.3705,0.4714,0.4118,-0.735,0.7525,-2.5375,83.57560670083275,32.59627166874517,0.1368141326096481,16.194000000003143
0.4861,0.0891,0.7519,-0.3706,0.4699,0.4057,-0.4112,0.84,-2.8437,83.54946580369497,32.6326459770657,0.13522871934564695,16.209999999999127
0.4838,0.0847,0.7517,-0.3707,0.4706,0.407,0.0175,1.0938,-2.5812,83.55682356416996,32.62594685242503,0.13647214741050925,16.224999999998545
0.4894,0.0847,0.756,-0.3694,0.4708,0.4109,-1.0938,1.0325,-2.4762,83.57574529916671,32.644388609218936,0.13769293266572616,16.24099999999453
0.4853,0.0896,0.7513,-0.3694,0.4708,0.4109,-1.1812,1.3038,-2.6337,83.42260180729248,32.652191328971796,0.14269835940297848,16.256999999997788
0.4837,0.0834,0.7529,-0.3703,0.4713,0.4106,-0.4725,0.9363,-2.2138,83.4285416418029,32.64421489344341,0.14106857346219015,16.271999999997206
0.4876,0.087,0.7576,-0.3707,0.4709,0.4066,-0.35,0.9887,-2.415,83.43115891939708,32.63949999427255,0.14119899611239728,16.28799999999319
0.4944,0.0844,0.7612,-0.3706,0.4709,0.408,-0.3938,1.0762,-2.5812,83.45362838814233,32.68332713344091,0.1416077965076411,16.302999999999884
0.4912,0.0832,0.7625,-0.3706,0.4709,0.408,-0.735,0.49,-2.2575,83.51515529961073,32.68099694083773,0.1345030168551058,16.318999999995867
0.4903,0.088,0.7632,-0.3706,0.4704,0.4152,-0.4638,0.63,-2.5375,83.51224986127067,32.655834635348555,0.13012471517144342,16.334999999999127
0.485,0.0872,0.7709,-0.37,0.4697,0.41,-0.3588,0.9975,-2.2575,83.51638107646626,32.624555822988135,0.13057849364724453,16.34999999999127
0.4903,0.0853,0.7569,-0.3702,0.4705,0.4098,-0.525,0.7437,-2.415,83.51788399850696,32.63848939986025,0.12822992428470187,16.36599999999453
0.4868,0.0844,0.7519,-0.3702,0.4705,0.4066,-0.6737,0.6913,-2.5463,83.52957076654236,32.66118999754048,0.1247394818603964,16.381000000001222
0.4886,0.0854,0.7577,-0.3698,0.4705,0.4066,-0.8838,0.9275,-2.6425,83.54068463315178,32.658714176885,0.12562153367100415,16.396999999997206
0.4922,0.0905,0.7624,-0.3708,0.4706,0.4055,-0.3588,1.1113,-2.7037,83.50320240614968,32.66009970245324,0.12906210030716392,16.413000000000466
0.4913,0.0878,0.7628,-0.3696,0.4697,0.4086,-0.6388,0.7088,-2.7387,83.49456914110408,32.645974973040886,0.12572469027143474,16.427999999992608
0.4829,0.086,0.7446,-0.37,0.4702,0.4094,-0.9275,0.9363,-2.5638,83.46957727397695,32.675628686889084,0.16624043125204116,16.491000000001804
0.4857,0.0842,0.7562,-0.37,0.4702,0.4094,0.0175,0.98,-2.8175,83.52962112576868,32.63390909839646,0.16284638811990626,16.505999999993946
0.4881,0.0853,0.7548,-0.3694,0.4717,0.4122,-0.5775,0.6913,-2.555,83.531330179127,32.65165069322664,0.15651646930994367,16.521999999997206
0.4885,0.0869,0.7674,-0.3698,0.4702,0.4078,-0.1925,1.3913,-2.3363,83.53320441351349,32.64253165327939,0.15964737237822046,16.536999999996624
0.4843,0.0901,0.76,-0.369,0.4702,0.4062,-0.5775,1.1463,-2.59,83.51108686335849,32.57297174560977,0.1601893551362549,16.552999999992608
0.4882,0.0874,0.751,-0.3699,0.4701,0.4089,-0.3938,1.1113,-2.065,83.49722591524886,32.627355272028204,0.16017313962588958,16.568999999995867
0.4878,0.0863,0.7578,-0.3699,0.4701,0.4089,-0.6737,1.3388,-2.5375,83.49809863223805,32.622597825675875,0.16222962566259927,16.583999999995285
0.4896,0.0827,0.7496,-0.37,0.4695,0.4086,-0.1312,0.9275,-2.3012,83.5532315799736,32.6252822583988,0.1593626630990603,16.599999999998545
0.4814,0.0878,0.7687,-0.37,0.4704,0.4085,-0.6825,1.1375,-2.3625,83.54235713432577,32.58763205937193,0.15878264678110962,16.614999999990687
0.489,0.0854,0.7493,-0.3706,0.4694,0.4086,-0.5512,1.05,-2.2225,83.54003912287499,32.617112713194174,0.158024382106079,16.630999999993946
0.4865,0.0842,0.7649,-0.3706,0.4694,0.4086,-0.1838,1.12,-2.4413,83.58244636521101,32.58012530513567,0.1583499438987568,16.646999999997206
0.4953,0.0841,0.7543,-0.3694,0.4708,0.4119,0.2362,1.2337,-2.2838,83.60598908766578,32.593345217256555,0.15916989950823485,16.661999999996624
0.4896,0.0853,0.761,-0.3694,0.4706,0.408,-0.07,1.0325,-2.835,83.60552867405653,32.59330346262382,0.15812090956044036,16.677999999999884
0.4946,0.0825,0.7563,-0.3691,0.4697,0.4093,-0.5512,1.0762,-2.0738,83.61433961353816,32.676047705860164,0.15683751859678519,16.692999999992026
0.4908,0.0859,0.7643,-0.3694,0.4714,0.4082,-0.28,1.0237,-2.1613,83.60955273597827,32.65904016476836,0.15589504674010984,16.708999999995285
0.4865,0.0867,0.7569,-0.3694,0.4714,0.4082,-0.2887,0.6388,-2.7213,83.5847914109351,32.630509718379244,0.1495042620679729,16.724999999998545
0.4864,0.0865,0.7647,-0.3698,0.4695,0.4066,-0.9013,0.9975,-2.45,83.57370822889904,32.58884461148341,0.14802008586065304,16.739999999997963
0.4984,0.087,0.7574,-0.3702,0.4709,0.4083,-0.595,0.735,-2.3975,83.56234753272918,32.63668424535515,0.143802077276744,16.756000000001222
0.4865,0.0834,0.7588,-0.3694,0.4712,0.4093,-0.6037,0.63,-2.5025,83.57840291351076,32.61603886087003,0.13792686954461408,16.770999999993364
0.4833,0.0861,0.7666,-0.3694,0.4712,0.4093,-0.4812,0.8487,-2.555,83.57860005911931,32.50755671534897,0.13635546259264247,16.786999999996624
0.4865,0.0859,0.7584,-0.369,0.4703,0.4053,-1.1463,0.7788,-2.345,83.56258378355764,32.50777295723027,0.13393463633566297,16.802999999999884
0.4871,0.0873,0.7505,-0.3693,0.47,0.4084,-0.42,1.0938,-2.2925,83.54859387180824,32.512528057113855,0.13530747270152366,16.8179999999993
0.4882,0.0885,0.7586,-0.3698,0.4687,0.4079,-0.805,0.9013,-2.1788,83.50075358076519,32.52113379224952,0.13475544542811335,16.833999999995285
0.49,0.0842,0.7563,-0.3694,0.4706,0.4055,-0.5688,1.0237,-2.31,83.51067338775603,32.5215133968134,0.13509985088476575,16.848999999994703
0.487,0.0877,0.7655,-0.3694,0.4706,0.4055,-0.7262,1.0063,-2.4062,83.50201485681619,32.50135457563057,0.13608058579924132,16.864999999997963
0.4919,0.083,0.7524,-0.3698,0.4706,0.4109,-0.63,0.7875,-2.73,83.52596052815034,32.65428445179694,0.13381252722162745,16.881000000001222
0.4875,0.0875,0.7509,-0.3705,0.4698,0.41,-1.0938,1.0762,-2.3537,83.46144295441847,32.66128589754078,0.13495997449185357,16.895999999993364
0.4806,0.0817,0.7647,-0.37,0.4694,0.4074,-0.6037,1.0588,-2.275,83.50417101123405,32.639913188967796,0.13671069704577438,16.911999999996624
