AcclX,AcclY,AcclZ,MagX,MagY,MagZ,GyroX,GyroY,GyroZ,Roll,Pitch,Yaw,Time(s)
-0.116,0.9751,0.0874,1.757,-2.6214,-0.2554,-1.89,1.1812,-15.855,0,0,0,1.6213751253739985
-0.1147,0.9496,0.0788,1.9215,-2.6214,-0.109,-2.4675,1.3475,-15.47,0,0,0,1.6334676554549103
-0.1142,0.9722,0.0901,1.9215,-2.6214,-0.0403,-2.8438,1.2512,-15.7675,0,0,0,1.6429840462692875
-0.1163,0.9725,0.0892,1.831,-2.6214,-0.0403,-2.6688,1.4262,-16.1262,0,0,0,1.6551664704803957
-0.1154,0.9728,0.0915,1.6626,-2.6214,-0.286,-2.5725,1.435,-15.8112,0,0,0,1.667261124044698
-0.1163,0.9756,0.087,1.6626,-2.6214,-0.286,-2.3275,1.5225,-15.4525,0,0,0,1.6798130343657474
-0.1136,0.9748,0.0913,1.8798,-2.6214,-0.0294,-2.7913,1.2163,-15.7325,0,0,0,1.6915771323489337
-0.1135,0.9751,0.0905,1.8798,-2.6214,-0.0294,-2.5638,1.365,-15.4525,0,0,0,1.7038186601810765
-0.1151,0.9723,0.0906,1.9356,-2.6214,-0.1543,-2.73,0.91,-15.7587,0,0,0,1.71591083634809
-0.1141,0.974,0.0875,1.753,-2.6214,-0.1532,-2.4413,0.7437,-16.275,0,0,0,1.7280865361951283
-0.116,0.9733,0.091,1.753,-2.6214,-0.1532,-2.38,0.8838,-15.7937,0,0,0,1.7402558655919953
-0.1163,0.9767,0.0869,1.9997,-2.6214,-0.1076,-2.3363,0.91,-15.75,0,0,0,1.7524520924451417
-0.1153,0.975,0.0869,1.9997,-2.6214,-0.1076,-2.4675,1.4,-16.0912,0,0,0,1.7618923917713603
-0.1119,0.9756,0.092,1.7409,-2.6214,-0.1107,-2.7037,0.77,-15.5312,0,0,0,1.7739842140244753
-0.115,0.975,0.0887,1.8643,-2.6214,-0.1578,-2.73,1.085,-16.4062,0,0,0,1.7861549590769359
-0.1165,0.9742,0.0894,1.8643,-2.6214,-0.1578,-2.4938,2.065,-15.7762,0,0,0,1.7983671120555107
-0.1128,0.9734,0.0888,1.8194,-2.6214,-0.1913,-2.2838,1.3212,-15.8638,0,0,0,1.8105435197303459
-0.1128,0.974,0.0832,1.8194,-2.6214,-0.1913,-2.415,0.9713,-15.8725,0,0,0,1.8226045514742992
-0.1149,0.9746,0.0881,1.7097,-2.6214,-0.2662,-2.2138,1.3562,-16.0737,0,0,0,1.8347699878182837
-0.1133,0.9748,0.0888,1.7972,-2.6214,-0.2472,-2.1525,1.7062,-16.24,0,0,0,1.8469425024402364
-0.1116,0.9729,0.0878,1.7972,-2.6214,-0.2472,-2.3187,1.3387,-16.0562,0,0,0,1.859131297101516
-0.1134,0.976,0.0889,1.8086,-2.6214,-0.1754,-2.3975,1.1112,-15.1462,0,0,0,1.871253202035996
-0.1135,0.9755,0.0881,1.8086,-2.6214,-0.1754,-2.4763,1.7325,-15.5225,0,0,0,1.8834246549162534
-0.1155,0.9751,0.084,1.6863,-2.6214,-0.1713,-2.3975,1.225,-15.3037,0,0,0,1.8929194569828274
-0.1149,0.973,0.0889,1.7791,-2.6214,-0.121,-2.1175,1.7587,-16.66,0,0,0,1.9050310984142533
-0.1166,0.9747,0.0867,1.7791,-2.6214,-0.121,-2.8087,1.2425,-16.2663,0,0,0,1.917265547968428
-0.1127,0.9732,0.0889,1.6928,-2.6214,-0.1206,-3.0975,1.435,-15.6363,0,0,0,1.9299034593667914
-0.1158,0.9722,0.0883,1.6928,-2.6214,-0.1206,-2.9225,1.1287,-16.0387,0,0,0,1.9414987404204356
-0.1141,0.9717,0.0883,1.496,-2.6214,-0.0967,-2.5375,1.1725,-16.0125,0,0,0,1.9536691315589978
-0.1154,0.9737,0.0868,1.7743,-2.6214,-0.0967,-2.3538,1.2687,-15.785,0,0,0,1.9658536792534964
-0.1174,0.9772,0.0869,1.7743,-2.6214,-0.0967,-2.3712,1.4088,-15.7587,0,0,0,1.9779784154991638
-0.1134,0.9722,0.0895,1.6409,-2.6214,-0.1347,-2.3975,1.2425,-16.0037,0,0,0,1.9901318187706023
-0.1163,0.9742,0.0851,1.6409,-2.6214,-0.1347,-2.7913,1.2075,-15.4263,0,0,0,2.002363790927488
-0.1143,0.9733,0.089,1.8976,-2.6214,-0.2114,-2.2838,1.435,-16.0037,0,0,0,2.0145009141595995
-0.1124,0.9755,0.0886,1.7198,-2.6214,-0.3186,-2.3013,1.4262,-15.6275,0,0,0,2.0238913116261426
-0.1132,0.9745,0.0847,1.7198,-2.6214,-0.3186,-2.7388,0.9713,-15.8375,0,0,0,2.0360340974806284
-0.1131,0.974,0.0862,1.8552,-2.6214,-0.189,-2.4763,1.4787,-15.9775,0,0,0,2.0482345713005556
-0.1158,0.9715,0.0852,1.8552,-2.6214,-0.189,-1.8637,1.2425,-16.4675,0,0,0,2.0604173494255624
-0.1161,0.9751,0.0866,1.818,-2.6214,-0.1218,-1.7587,1.3475,-15.9162,0,0,0,2.0725042168840995
-0.1132,0.9745,0.0889,1.6954,-2.6214,-0.1469,-2.9225,1.6712,-15.7675,0,0,0,2.084734773385392
-0.1113,0.9733,0.0875,1.6954,-2.6214,-0.1469,-2.4763,1.3912,-15.6625,0,0,0,2.0969377246026077
-0.1145,0.9751,0.0877,1.8358,-2.6214,-0.3236,-2.5288,1.1375,-15.7587,0,0,0,2.109053966914713
-0.1136,0.9727,0.0849,1.8358,-2.6214,-0.3236,-2.8,1.3825,-15.75,0,0,0,2.121212678894628
-0.1147,0.9723,0.0859,1.8671,-2.6214,-0.1274,-2.31,1.2512,-15.7412,0,0,0,2.133330690776225
-0.1171,0.973,0.0875,1.9794,-2.6214,-0.1786,-3.115,1.7062,-15.2687,0,0,0,2.1454271139100194
-0.1171,0.9758,0.0859,1.9794,-2.6214,-0.1786,-2.6513,1.9687,-15.3125,0,0,0,2.154965447386098
-0.1136,0.9748,0.0896,1.7049,-2.6214,-0.0672,-1.7587,1.5925,-15.2163,0,0,0,2.167130175902286
-0.1118,0.9747,0.0903,1.7049,-2.6214,-0.0672,-2.7125,1.7325,-15.5837,0,0,0,2.179711107163005
-0.1102,0.9751,0.087,1.7192,-2.6214,-0.1574,-2.2838,1.9775,-16.0037,0,0,0,2.191426011114312
-0.1149,0.9753,0.0862,1.803,-2.6214,-0.074,-2.3625,1.54,-15.435,0,0,0,2.2035397760291286
-0.1167,0.9728,0.0843,1.803,-2.6214,-0.074,-2.5638,1.5925,-15.3912,0,0,0,2.215797937814497
-0.1137,0.9739,0.0885,1.9397,-2.6214,-0.1512,-2.2575,1.295,-15.4962,0,0,0,2.2278720643726913
-0.1136,0.9747,0.0867,1.9397,-2.6214,-0.1512,-2.0913,0.9363,-15.61,0,0,0,2.240044932908542
-0.115,0.9762,0.0916,1.7398,-2.6214,-0.2129,-2.5025,1.1812,-15.54,0,0,0,2.252219217099987
-0.1107,0.9742,0.0901,1.757,-2.6214,-0.129,-2.5113,0.9363,-15.715,0,0,0,2.264406596105673
-0.1151,0.9737,0.089,1.757,-2.6214,-0.129,-2.8175,1.155,-15.6275,0,0,0,2.2764987722726864
-0.1145,0.9737,0.09,1.8754,-2.6214,0.0326,-2.6075,1.6013,-15.8375,0,0,0,2.2858852766863467
-0.1162,0.9759,0.0889,1.8754,-2.6214,0.0326,-2.6425,0.98,-15.3125,0,0,0,2.297990547667601
-0.1161,0.9728,0.0869,1.4398,-2.6214,-0.1645,-2.5288,1.295,-15.7412,0,0,0,2.310191375401427
-0.1154,0.974,0.0865,1.715,-2.6214,-0.2002,-2.4588,1.365,-15.715,0,0,0,2.3223486717257478
-0.1145,0.9737,0.0875,1.715,-2.6214,-0.2002,-2.0475,1.1638,-15.8725,0,0,0,2.334445094859542
-0.1138,0.9747,0.0889,1.7259,-2.6214,-0.1049,-2.5988,1.1375,-15.7762,0,0,0,2.346690161830669
-0.113,0.9753,0.0856,1.7259,-2.6214,-0.1049,-2.5813,0.9363,-15.7237,0,0,0,2.358832593771257
-0.1116,0.9756,0.0911,1.7826,-2.6214,-0.1329,-2.6688,0.9363,-16.2138,0,0,0,2.3710171414657557
-0.1139,0.9722,0.0884,1.7372,-2.6214,-0.153,-2.6688,1.2075,-16.1262,0,0,0,2.3831018854409023
-0.1152,0.9747,0.0889,1.7372,-2.6214,-0.153,-2.485,1.8288,-15.5137,0,0,0,2.3925641274288227
-0.1129,0.9725,0.0928,1.9214,-2.6214,-0.0652,-2.3538,1.575,-15.7062,0,0,0,2.4047826508575687
-0.1147,0.9747,0.0877,1.9214,-2.6214,-0.0652,-2.5113,1.1462,-16.0212,0,0,0,2.4169052636198454
-0.113,0.9741,0.0879,1.5492,-2.6214,-0.1096,-2.625,0.9275,-15.785,0,0,0,2.4294681452717457
-0.1155,0.975,0.087,1.7255,-2.6214,-0.081,-2.66,1.19,-15.8287,0,0,0,2.4411784483423733
-0.1146,0.973,0.0845,1.7255,-2.6214,-0.081,-2.6425,1.085,-15.4612,0,0,0,2.4533707821426374
-0.1133,0.9741,0.0865,1.758,-2.6214,-0.3334,-2.8175,1.0675,-16.0212,0,0,0,2.4655358645727232
-0.1183,0.9756,0.0859,1.758,-2.6214,-0.3334,-3.3513,1.4,-15.7412,0,0,0,2.477710148764168
-0.1137,0.9728,0.0915,1.8512,-2.6214,-0.168,-2.7125,1.96,-15.6012,0,0,0,2.4898419632878035
-0.1142,0.9732,0.0844,1.8336,-2.6214,-0.1602,-2.7738,1.435,-16.03,0,0,0,2.502011646598569
-0.1131,0.9746,0.0897,1.8336,-2.6214,-0.1602,-1.925,1.155,-15.5225,0,0,0,2.5142340630801976
-0.1125,0.9723,0.0887,1.7924,-2.6214,-0.0741,-2.0738,0.7875,-15.4525,0,0,0,2.5236003944016483
-0.1149,0.9743,0.087,1.7924,-2.6214,-0.0741,-2.555,0.9887,-15.1812,0,0,0,2.5358136091219183
-0.1144,0.9745,0.0874,1.6912,-2.6214,-0.0842,-2.8263,1.2337,-15.3037,0,0,0,2.547865439104513
-0.1145,0.9748,0.09,1.9171,-2.6214,-0.1446,-2.415,1.1812,-15.8987,0,0,0,2.5601136913007254
-0.116,0.9754,0.0859,1.9171,-2.6214,-0.1446,-2.66,1.3562,-15.575,0,0,0,2.572247275393853
-0.113,0.9753,0.0896,1.5547,-2.6214,-0.0658,-3.2113,1.2512,-15.5837,0,0,0,2.5844212056713993
-0.1119,0.9753,0.09,1.5547,-2.6214,-0.0658,-3.15,1.19,-15.575,0,0,0,2.596566115009276
-0.1149,0.9737,0.0901,1.6918,-2.6214,-0.1618,-2.24,0.8838,-16.0475,0,0,0,2.6087308435254637
-0.1152,0.9742,0.0878,1.6774,-2.6214,-0.1738,-2.5988,1.155,-16.1875,0,0,0,2.6209076051141973
-0.113,0.974,0.0823,1.6774,-2.6214,-0.1738,-2.4063,1.2687,-16.0037,0,0,0,2.633043666604614
-0.1127,0.9744,0.0905,1.925,-2.6214,-0.2086,-2.4763,1.54,-16.0212,0,0,0,2.645130534063151
-0.1155,0.9746,0.0892,1.925,-2.6214,-0.2086,-2.6163,1.3825,-16.1437,0,0,0,2.654634891804982
-0.1133,0.9744,0.0863,1.8919,-2.6214,-0.2505,-2.2925,1.365,-15.75,0,0,0,2.6668236864662616
-0.1162,0.9764,0.0914,1.8337,-2.6214,-0.1235,-2.0213,1.0937,-15.8812,0,0,0,2.6794191281968156
-0.1149,0.9737,0.0876,1.8337,-2.6214,-0.1235,-2.4763,0.9625,-15.7412,0,0,0,2.690684561497141
-0.1129,0.9737,0.088,1.9926,-2.6214,-0.0354,-2.2662,1.19,-15.9775,0,0,0,2.7028818500919822
-0.1143,0.9765,0.0874,1.9926,-2.6214,-0.293,-2.4763,1.4437,-15.5575,0,0,0,2.7151067439708996
-0.1148,0.9745,0.0871,1.9259,-2.6214,-0.293,-2.2662,0.98,-16.1525,0,0,0,2.7273903875569534
-0.1128,0.9751,0.0888,1.9806,-2.6214,-0.2138,-2.3625,0.9363,-15.9512,0,0,0,2.7395621943511097
-0.1171,0.9725,0.0859,1.9806,-2.6214,-0.2138,-2.3888,1.1375,-15.6625,0,0,0,2.751736124628656
-0.1146,0.9743,0.0863,1.9176,-2.6214,-0.0008,-2.5725,1.5575,-16.1788,0,0,0,2.7639755289774084
-0.1118,0.9759,0.0906,1.9176,-2.6214,-0.2651,-2.5113,1.3825,-16.485,0,0,0,2.7761430888047833
-0.1131,0.974,0.087,1.8394,-2.6214,-0.2651,-2.3013,1.47,-16.1087,0,0,0,2.7850553485945726
-0.115,0.9741,0.0901,1.6038,-2.6214,-0.1738,-2.4325,1.4262,-15.9775,0,0,0,2.7972883824931536
-0.1133,0.9745,0.0891,1.6038,-2.6214,-0.1738,-2.7913,1.0237,-15.96,1.6012762535176437,-3.4837363715429923,27.927150661126607,20.895606017385667
-0.1147,0.9753,0.0841,1.6942,-2.6214,-0.1363,-2.835,1.2862,-15.995,2.6889662644248875,-5.195834094931322,38.54209568104531,20.900526482315275
-0.1151,0.9753,0.0886,1.6848,-2.6214,0.0346,-2.0125,1.3912,-15.7675,3.3192777425567273,-5.919719569406374,59.064664220120996,20.905255833739744
-0.1157,0.9719,0.0865,1.6848,-2.6214,0.0346,-2.6513,1.3037,-15.47,3.7290598542774673,-6.2442386927176585,68.78982261949636,20.909746647196684
-0.1175,0.9744,0.0919,1.6622,-2.6214,-0.2186,-3.0975,1.1987,-15.54,4.439005012937973,-6.49119331665624,69.99822621193528,20.914351067015012
-0.1145,0.9742,0.0894,1.6622,-2.6214,-0.2186,-2.8438,1.4787,-16.0387,4.705098842357366,-6.591566917066398,93.17576001016705,20.919318956407007
-0.1131,0.9726,0.0842,1.5938,-2.6214,-0.0992,-2.765,1.4787,-15.68,4.776386891452666,-6.599243416889002,110.75817432713167,20.921490218173762
-0.1136,0.9764,0.0925,1.6108,-2.6214,-0.178,-2.625,1.6275,-15.5575,4.91371000078265,-6.602459945172767,130.53893503274654,20.92338330361636
-0.1138,0.9724,0.0892,1.6108,-2.6214,-0.178,-2.975,1.4175,-15.645,5.039744873510559,-6.622410126975057,138.72444458278696,20.925263294244722
-0.115,0.9718,0.0879,1.7402,-2.6214,-0.1951,-2.2662,1.0675,-16.1525,5.049614837052949,-6.67866373852555,143.71866743763832,20.92713479093952
-0.1139,0.9759,0.0866,1.7402,-2.6214,-0.1951,-3.2462,1.2075,-16.0037,5.059756651835605,-6.653177430618723,143.79841815588907,20.929076362586205
-0.1174,0.9739,0.0835,1.7118,-2.6214,-0.2451,-2.7213,1.435,-16.03,5.0165570042647465,-6.759292152577244,84.38144443851,20.930978649790163
-0.1131,0.9747,0.0895,1.9618,-2.6214,-0.1586,-2.2662,1.1725,-16.0737,5.034189872112796,-6.666616485758725,87.74224241559753,20.93286111781581
-0.1149,0.9751,0.0899,1.9618,-2.6214,-0.1586,-2.0038,1.0675,-16.0825,5.094108502683065,-6.680818297982756,98.97112736551698,20.934756326741805
-0.1111,0.9761,0.0919,2.0922,-2.6214,-0.1395,-2.2138,1.0412,-15.6712,5.128052635510715,-6.583151208019638,110.28809447005422,20.936642333906438
-0.1119,0.9721,0.0863,2.0922,-2.6214,-0.1395,-2.7213,1.3737,-13.6675,5.1131910935824205,-6.560373226403368,119.79148170431891,20.938529756726663
-0.1154,0.9752,0.0886,1.7955,-2.6214,-0.0379,-2.3013,1.2512,-15.5575,5.116766687046836,-6.6273880929067355,121.9697942997544,20.940402669077056
-0.1177,0.9753,0.0899,1.9583,-2.6214,-0.2767,-2.8612,1.2512,-15.8287,5.16744884140487,-6.739072623572267,109.99183769814536,20.942287614499993
-0.1159,0.9753,0.0905,1.9583,-2.6214,-0.2767,-3.7362,1.2687,-15.8025,5.245284585611047,-6.743566990491734,93.90049547493498,20.94418140777039
-0.1141,0.9731,0.0921,1.9014,-2.6214,-0.2429,-2.8875,1.47,-15.6187,5.3017650256318305,-6.706268600949266,111.65163982794253,20.946232338811683
-0.1125,0.9754,0.0877,1.9014,-2.6214,-0.2429,-2.8788,1.0937,-15.8287,5.24498593448516,-6.63024435552725,81.33996827792292,20.948139226896323
-0.1133,0.9726,0.0877,1.9424,-2.6214,-0.0242,-3.1763,1.1638,-16.0737,5.203105990482398,-6.623454412508868,85.43810999793918,20.949817840516488
-0.1149,0.9775,0.0886,1.9338,-2.6214,-0.0606,-1.96,1.1112,-16.0387,5.196379768678378,-6.652569597513586,93.51619832052852,20.951041674777194
-0.1119,0.9722,0.0857,1.9338,-2.6214,-0.0606,-1.925,0.9013,-15.9337,5.149089233880618,-6.594223029535316,112.87300453502289,20.952265155124
-0.1193,0.9734,0.0899,1.9458,-2.6214,-0.0602,-2.4413,1.1812,-15.4875,5.159838059260961,-6.736707381507183,114.60955705160028,20.95355269388642
-0.1147,0.9728,0.0888,1.9458,-2.6214,-0.0602,-2.6513,1.2337,-15.4875,5.172788165104479,-6.721132346903775,116.03133474760968,20.954785729908483
-0.1102,0.9723,0.0858,1.8554,-2.6214,-0.1798,-2.17,1.015,-15.5137,5.1530497742782355,-6.608924609107087,126.23525271848838,20.95600496328851
-0.1144,0.9771,0.0874,2.0166,-2.6214,-0.2283,-2.3975,1.0937,-15.855,5.151135252499798,-6.630350739086054,131.81078880038663,20.957224550582435
-0.1128,0.9749,0.089,2.0166,-2.6214,-0.2283,-2.87,1.2687,-16.0475,5.173398103243916,-6.598979658162052,134.47741403980945,20.95845086224043
-0.1139,0.9749,0.0889,1.9181,-2.6214,-0.0854,-2.6338,1.2775,-15.82,5.181576941728396,-6.617520321274405,137.11364024498508,20.959661955600794
-0.1155,0.9734,0.0894,1.9181,-2.6214,-0.0854,-2.5375,1.3475,-15.505,5.1920177253038515,-6.6657848894010865,141.82105959193393,20.96086986373607
-0.1135,0.973,0.0869,1.9198,-2.6214,-0.1373,-2.625,1.3037,-15.6712,5.172915019652945,-6.648364533316086,144.88474376787676,20.962082018838128
-0.1151,0.9739,0.0848,1.8574,-2.6214,-0.2375,-2.0388,1.1112,-15.9337,5.126339737475069,-6.683138654856377,115.75649495914995,20.963302667873748
-0.1129,0.9756,0.0926,1.8574,-2.6214,-0.2375,-2.1263,0.91,-15.8812,5.180258230909318,-6.62646284028991,130.5038036676576,20.96451163775072
-0.1162,0.9736,0.0826,1.8244,-2.6214,-0.1286,-2.3625,1.3387,-15.8463,5.175948736073765,-6.704319112475269,135.86847184012248,20.965743258117193
-0.1136,0.9744,0.0859,1.8244,-2.6214,-0.1286,-2.6425,1.4787,-15.8812,5.14467035988371,-6.663583883674585,144.63569473088018,20.966969215861287
-0.116,0.9746,0.0933,1.6625,-2.6214,-0.0727,-2.5375,1.3825,-16.065,5.195937308779573,-6.7149407608038505,149.08210503162533,20.96818101704945
-0.115,0.9739,0.0842,1.8086,-2.6214,-0.2738,-2.4588,0.8575,-15.9687,5.17080801088796,-6.712119635894957,63.68876012405959,20.969575791723084
-0.1151,0.9737,0.0855,1.8086,-2.6214,-0.2738,-2.7037,1.2163,-15.8112,5.130885567116092,-6.714018678628678,62.11523055633511,20.97089164359738
-0.1136,0.9745,0.0884,1.8446,-2.6214,0.0203,-1.7762,1.2687,-15.4787,5.149979523815109,-6.678341215022654,68.29330864972088,20.972117955255374
-0.1146,0.9745,0.0889,1.8446,-2.6214,0.0203,-1.8725,1.155,-15.9862,5.1701496905705016,-6.679024653550325,73.73548822284457,20.973320554682175
-0.1133,0.9733,0.0912,1.7487,-2.6214,-0.157,-2.3275,1.2337,-16.4325,5.174053572372254,-6.637341822919238,76.16115941486834,20.974555006359832
-0.1152,0.9736,0.0876,1.9505,-2.6214,-0.1156,-2.4938,0.9275,-16.0387,5.169926381360556,-6.682982836626981,98.34683429870911,20.97577353191206
-0.1148,0.9742,0.0858,1.9505,-2.6214,-0.1156,-2.8263,1.4175,-15.7325,5.125764892707873,-6.688674046673952,111.88715062416114,20.976986748755817
-0.1131,0.9774,0.0908,1.8237,-2.6214,-0.099,-2.625,1.12,-15.2075,5.165044076585753,-6.657703331169898,117.17673550965483,20.978207397791437
-0.1133,0.9738,0.0896,1.8237,-2.6214,-0.099,-2.8875,0.6737,-15.2512,5.197225889785445,-6.643532851546772,137.76334579255519,20.979468039097576
-0.1172,0.9737,0.0897,1.8681,-2.6214,-0.1985,-2.8875,1.295,-15.7412,5.220377087540881,-6.733982995979192,140.99163652252466,20.980686918563702
-0.1167,0.9744,0.0875,1.7996,-2.6214,-0.2349,-2.4237,1.3212,-15.6712,5.214211279255751,-6.764982852991185,144.9012178432436,20.981905444115935
-0.1157,0.9741,0.0865,1.7996,-2.6214,-0.2349,-1.96,0.9713,-16.0037,5.175076036739079,-6.755508828223336,82.35213019835663,20.983147327985456
-0.1141,0.975,0.0899,1.8129,-2.6214,-0.1249,-3.1063,1.0937,-15.2163,5.215141748150378,-6.7259897915316555,92.17827620083212,20.984394874477356
-0.1127,0.9742,0.0881,1.8129,-2.6214,-0.1249,-2.9663,1.295,-15.6275,5.1969186240586325,-6.658467844150393,98.8365363057003,20.985618000910264
-0.1128,0.9738,0.0882,1.7995,-2.6214,-0.1698,-2.4413,0.9275,-14.9625,5.195099919332964,-6.650207618183462,116.29665866685977,20.9868577612964
-0.1156,0.974,0.0853,1.6679,-2.6214,-0.2074,-3.045,0.8663,-15.68,5.117116788639783,-6.692452792946239,132.41829347455217,20.988162641839843
-0.115,0.9754,0.0885,1.6679,-2.6214,-0.2074,-3.15,1.3037,-15.47,5.147019646105377,-6.694162890481371,136.42794564215086,20.989452304085653
-0.1167,0.9742,0.0844,1.8876,-2.6214,-0.0543,-2.5288,0.8838,-15.225,5.117260583474546,-6.72495275404716,146.03160821821587,20.990683924452124
-0.1164,0.9753,0.0895,1.8876,-2.6214,-0.0543,-2.5638,0.84,-15.33,5.139495305965812,-6.742220721176694,153.89041697341833,20.991905989143337
-0.1124,0.973,0.0852,1.905,-2.6214,-0.1989,-2.065,1.085,-15.785,5.1095666184010105,-6.6561155900943945,156.69825793185174,20.993117790331496
-0.1135,0.9735,0.0839,1.825,-2.6214,-0.2134,-1.6887,1.435,-16.1437,5.036462650274394,-6.638939972122066,160.9196638824231,20.99446195531766
-0.1165,0.9747,0.0875,1.825,-2.6214,-0.2134,-2.2662,1.6275,-15.9512,5.043621291765516,-6.717714442941097,166.36799369628017,20.99575657235805
-0.1144,0.9744,0.0823,1.8819,-2.6214,-0.0729,-3.0013,1.505,-15.645,4.9584707594645225,-6.697665581054652,168.58737776870274,20.99696448049333
-0.1138,0.9761,0.0903,1.8819,-2.6214,-0.0729,-2.6513,1.0062,-15.8463,5.0343121521544365,-6.659715676919418,169.76536515312608,20.998204948707258
-0.1131,0.9748,0.0896,1.8014,-2.6214,0.0677,-2.6075,1.0237,-13.9912,5.07891402940898,-6.627886110048807,170.05753021529424,20.999411441186943
-0.1154,0.9735,0.0852,1.7867,-2.6214,-0.2518,-1.9512,0.945,-15.6975,5.056938951528829,-6.677158329457855,96.90420620464482,21.00062147280561
-0.1167,0.9739,0.0872,1.7867,-2.6214,-0.2518,-2.3625,1.4962,-15.7325,5.057713892081428,-6.737816146804234,35.35402363840505,21.001839290530043
-0.1169,0.9731,0.088,1.5981,-2.6214,-0.0458,-2.2838,1.0762,-15.6012,5.064454258655995,-6.7743711630083725,51.722239302180036,21.00306984915482
-0.1146,0.9773,0.0902,1.5981,-2.6214,-0.0458,-2.1963,0.875,-15.5837,5.092152454003639,-6.72573557321507,82.41582309051213,21.004282712084674
-0.113,0.9752,0.0893,2.0408,-2.6214,-0.1218,-1.8812,0.9538,-15.7325,5.136754969983958,-6.658237933618684,101.71351307027014,21.00549557501453
-0.1116,0.9739,0.0875,1.835,-2.6214,-0.3043,-2.73,1.435,-15.8812,5.135982195684539,-6.583291703253626,50.26671063142184,21.006754092837276
-0.1144,0.9756,0.0919,1.835,-2.6214,-0.3043,-2.87,1.365,-15.3825,5.219978399285433,-6.609737663216469,19.531788030482538,21.007981466236966
-0.1151,0.9736,0.0865,1.8872,-2.6214,-0.2412,-2.6163,1.0325,-15.5487,5.18987847745967,-6.653702709707818,10.480314454602158,21.009195744822417
-0.1166,0.9754,0.0878,1.8872,-2.6214,-0.2412,-2.3975,0.84,-15.4875,5.187749732636906,-6.706943748665242,56.205221737623916,21.010447184367198
-0.112,0.9744,0.0902,1.6883,-2.6214,-0.0882,-2.5813,0.91,-15.5575,5.2067756382144825,-6.632941209086734,2.755571441548293,21.011683051700448
-0.1147,0.9735,0.0852,1.92,-2.6214,-0.0657,-2.3363,1.015,-15.8987,5.204143379026972,-6.664485391743927,26.349448830532108,21.012895914630306
-0.1127,0.9743,0.0907,1.92,-2.6214,-0.0657,-2.4063,1.6187,-15.7762,5.210308482517107,-6.6189307748744035,69.61006890185219,21.01410453059338
-0.1148,0.9744,0.086,1.6847,-2.6214,-0.0836,-2.5375,1.05,-16.1525,5.183939443913758,-6.661263240629721,84.23116961803706,21.015328364854085
-0.1154,0.976,0.0897,1.6847,-2.6214,-0.0836,-2.3888,1.2775,-15.5137,5.186489626817525,-6.682892695438011,90.01914200128651,21.01657414177649
-0.1136,0.9756,0.085,1.8842,-2.6214,-0.1011,-2.0213,1.435,-15.68,5.135333180322612,-6.652807384209728,105.94629256554411,21.017790189931432
-0.1159,0.9731,0.0859,1.9054,-2.6214,-0.2442,-2.2225,1.1287,-15.7587,5.125132081782477,-6.706935138113032,84.52814577147117,21.01907383564097
-0.1128,0.9735,0.0903,1.9054,-2.6214,-0.2442,-2.5463,1.1987,-15.995,5.1538257730529,-6.639761106191584,81.63243672491126,21.020315365596595
-0.1136,0.975,0.0887,1.7847,-2.6214,-0.176,-2.6513,1.47,-16.0737,5.164103858674058,-6.62811111594518,101.5902291377651,21.021527520698655
-0.118,0.9762,0.0921,1.7847,-2.6214,-0.176,-2.2838,1.3212,-15.925,5.1779694095929045,-6.749686337665845,109.25604111562645,21.022749939303765
-0.1125,0.9733,0.0874,1.8142,-2.6214,-0.2022,-2.7037,1.085,-15.6538,5.16574745076069,-6.667989747459112,117.00365092735245,21.02397872835905
-0.1156,0.9722,0.0874,1.7814,-2.6214,-0.1882,-2.7213,1.0062,-15.8812,5.157962617691622,-6.711769656803166,127.4383081936606,21.025189113891617
-0.1148,0.9752,0.0911,1.7814,-2.6214,-0.1882,-2.415,1.4175,-16.275,5.16899301377349,-6.6960612068757435,136.2110223388421,21.026447631714365
-0.1162,0.9751,0.0859,1.7702,-2.6214,-0.0937,-2.4413,1.1987,-16.0037,5.1576534959220215,-6.735641481621099,136.64898589348263,21.027690577325586
-0.1134,0.9756,0.0868,1.7702,-2.6214,-0.0937,-2.4938,1.2337,-15.7062,5.148388579961756,-6.674786389002554,137.57195326683234,21.02890556373883
-0.1147,0.973,0.089,1.7298,-2.6214,-0.2521,-2.5113,1.12,-14.9187,5.159247994846777,-6.6762298904588455,111.44077111923366,21.03013329105242
-0.1146,0.9743,0.0898,1.9418,-2.6214,-0.1603,-2.6075,1.0937,-15.75,5.181154958580154,-6.678219273510947,118.3549286882895,21.031357833140923
-0.1142,0.9746,0.089,1.9418,-2.6214,-0.1603,-3.0538,1.4,-15.5837,5.196280645833217,-6.6686780626005255,127.88462390367148,21.03260750311621
-0.1147,0.9733,0.0844,1.5631,-2.6214,-0.1948,-2.7913,1.3562,-16.0387,5.122637784230012,-6.683666237198412,134.4136850543948,21.03385080264133
-0.1143,0.9759,0.0865,1.5631,-2.6214,-0.1948,-2.6338,1.33,-15.8725,5.109924896759196,-6.6687977515137495,139.18249017221126,21.035081007352208
-0.1133,0.9759,0.0882,1.8658,-2.6214,-0.0818,-2.4588,1.19,-15.7062,5.115286585170031,-6.634914653335509,139.89424888169873,21.036311565976984
-0.1128,0.9764,0.0828,1.8961,-2.6214,-0.0919,-2.0388,1.295,-15.8725,5.051757992534489,-6.6002721950759105,142.77655856311972,21.037526906304127
-0.1121,0.9742,0.0913,1.8961,-2.6214,-0.0919,-2.8875,1.785,-16.0562,5.15750975131261,-6.564882343157962,154.90375666787116,21.038737291836693
-0.116,0.9745,0.0882,1.887,-2.6214,-0.03,-2.905,1.1987,-16.2925,5.162554565763552,-6.680858951417258,155.11933147465686,21.039970681772655
-0.1143,0.9795,0.0861,1.887,-2.6214,-0.03,-3.1588,1.0325,-16.5462,5.100347692757717,-6.649152662254731,158.07646107068047,21.041178589907933
-0.1088,0.9758,0.0867,1.7066,-2.6214,-0.1929,-2.2225,1.6712,-16.1525,5.09776606800744,-6.4723920197943485,164.63564132345496,21.042387205871005
-0.1137,0.9707,0.0871,1.8019,-2.6214,-0.0519,-2.485,1.6975,-16.1525,5.101302638717109,-6.575474330258711,168.0380591625041,21.043605377509337
-0.1198,0.9693,0.0924,1.8019,-2.6214,-0.0519,-2.3625,1.3912,-15.4437,5.105783262177034,-6.740013378817212,169.05462215249247,21.04482284131987
-0.1215,0.9738,0.0898,1.7292,-2.6214,-0.0205,-2.4763,0.9713,-15.4525,5.124140364842144,-6.869523803425298,169.97426576483034,21.046113565307376
-0.1125,0.9775,0.0817,1.7292,-2.6214,-0.2361,-1.9862,0.8225,-15.8287,5.031857676478288,-6.707315446025515,72.41000243857205,21.047351910037918
-0.1111,0.9756,0.0843,1.8655,-2.6214,-0.2361,-2.9138,0.8925,-15.9425,4.9981971994962775,-6.584569012866393,11.677451255736322,21.048561587742686
-0.1082,0.9734,0.0884,1.8406,-2.6214,-0.2238,-2.4763,0.9975,-16.0212,5.019711451362469,-6.439871734205156,41.0835661021047,21.049773742844746
-0.1172,0.9751,0.0889,1.8406,-2.6214,-0.2238,-2.4063,1.2512,-15.7587,5.02993238636013,-6.624191018741519,46.593931178375946,21.05098235880782
-0.1161,0.973,0.0875,1.977,-2.6214,-0.2264,-2.9313,0.9538,-15.6975,5.06993759338005,-6.694739537588326,73.73459429623814,21.052194867823776
-0.1195,0.9741,0.0819,1.6493,-2.6214,-0.1154,-2.205,0.84,-15.8725,5.0366517851919665,-6.83412378163572,101.59403095869396,21.05341693251499
-0.1183,0.9737,0.0844,1.639,-2.6214,-0.1154,-2.5638,0.9713,-15.855,5.022053964429242,-6.868047418990688,116.05907181288087,21.0546393511201
-0.1158,0.9753,0.0889,1.643,-2.6214,-0.0653,-2.975,1.12,-15.925,5.093697720599428,-6.803332099072653,120.90632605084654,21.05586707843369
-0.11,0.9748,0.0906,1.643,-2.6214,-0.0653,-3.0013,1.2163,-15.33,5.179041561244134,-6.674902853375913,121.25556230120341,21.057146123262548
-0.1129,0.9752,0.0879,1.8612,-2.6214,-0.0771,-2.275,1.435,-15.68,5.177064528052815,-6.630481884223241,131.2787142445628,21.058382698423596
-0.1157,0.9724,0.0868,1.8859,-2.6214,0.0244,-2.5725,1.47,-15.925,5.163169176197716,-6.69712483352978,139.94891815787494,21.059595207439553
-0.1158,0.974,0.0875,1.8859,-2.6214,0.0244,-3.22,0.9013,-15.9337,5.149326467365653,-6.7263664771300755,147.79418860699016,21.060809132111103
-0.1186,0.9718,0.0811,2.0168,-2.6214,-0.1851,-2.7125,0.9275,-15.7937,5.048388739115823,-6.82761609629432,154.70130536101868,21.062043229874863
-0.1152,0.9747,0.09,2.0168,-2.6214,-0.1851,-3.0538,0.9538,-15.4875,5.142261597938275,-6.782426457291739,159.57063484737967,21.063256800632516
-0.1125,0.9726,0.0891,1.8622,-2.6214,0.0426,-2.4675,1.1462,-15.6712,5.151986293679863,-6.686585021810651,160.34538091872642,21.064464354853893
-0.1114,0.9766,0.0896,1.8622,-2.6214,-0.1311,-2.0825,1.1638,-16.0475,5.170951352159572,-6.57405107346087,161.08146558755632,21.065682880406122
-0.1113,0.9758,0.0845,1.9942,-2.6214,-0.1311,-2.2225,1.26,-16.3625,5.145998451866269,-6.519145576703137,161.87142125939883,21.066896451163775
-0.1126,0.9719,0.0858,1.9302,-2.6214,-0.1551,-2.24,1.1287,-16.3975,5.136049736841532,-6.558114524667391,163.0836934200727,21.06811816194109
-0.1198,0.9723,0.0868,1.9302,-2.6214,-0.1551,-2.7388,0.8925,-15.5225,5.126346592194441,-6.735430901755707,166.67301118390108,21.069426227709616
-0.119,0.977,0.0863,1.7961,-2.6214,-0.1294,-2.7213,1.1812,-16.0212,5.10508458281376,-6.834065136238711,166.9660821672689,21.070653601109306
-0.1135,0.9745,0.0904,1.7296,-2.6214,-0.2193,-1.4875,1.0325,-15.5837,5.19526433157955,-6.740963601940088,168.8272077813257,21.07188239016459
-0.111,0.9747,0.0883,1.7296,-2.6214,-0.2193,-2.3363,1.2337,-16.24,5.195022253654332,-6.583452840238666,169.07630422990658,21.073108701822587
-0.1132,0.9764,0.09,1.9121,-2.6214,-0.0268,-2.4763,1.3562,-15.7237,5.203062789864397,-6.584389941257954,169.76190860022888,21.074324749977524
-0.1144,0.9762,0.0852,1.9121,-2.6214,-0.0268,-2.2925,1.3475,-15.9162,5.191501506025044,-6.622933437463506,170.36931148961858,21.07553973639077
-0.1163,0.9737,0.0822,1.6809,-2.6214,-0.0486,-2.1613,1.2425,-15.89,5.133578010404078,-6.706977186985275,170.51697921341372,21.076761093254188
-0.1164,0.9706,0.0888,1.6721,-2.6214,-0.1838,-2.2313,0.8663,-15.3912,5.143483697417794,-6.743572824430598,172.52699808005042,21.077979972720318
-0.1172,0.9717,0.0863,1.6721,-2.6214,-0.1838,-2.7475,1.3475,-15.3562,5.124070545293601,-6.779876583068879,173.26010720772382,21.07919531304746
-0.1118,0.9772,0.0858,1.6918,-2.6214,-0.0549,-2.2225,1.575,-15.7937,5.112112441057577,-6.644472302897225,173.71316205956163,21.080424102102743
-0.1107,0.9775,0.0884,1.6918,-2.6214,-0.0549,-3.0363,1.2775,-15.7237,5.13465759271261,-6.546451690999598,173.7789102429897,21.081647582449552
-0.1128,0.9747,0.0866,1.6972,-2.6214,0.0245,-2.695,1.1375,-15.5137,5.119916594497499,-6.558178617030445,173.70210345363407,21.08284593490957
-0.1189,0.9753,0.0878,1.5926,-2.6214,0.0022,-2.4588,1.1375,-15.925,5.1223037128034115,-6.747705727296907,173.64581414937228,21.084050657819763
-0.1188,0.9738,0.0889,1.5926,-2.6214,0.0022,-2.7037,1.68,-16.1175,5.146867312311289,-6.848137374626393,173.36560990201275,21.08531802348997
-0.115,0.9738,0.0889,1.6006,-2.6214,-0.1922,-2.7213,0.735,-14.9537,5.165660004302065,-6.834191393052558,175.04520868231148,21.08681932624703
-0.1143,0.9756,0.0891,1.6006,-2.6214,-0.1922,-2.5988,0.595,-15.295,5.176162293053216,-6.778400187961222,176.39034466373428,21.088073243189104
-0.1119,0.9731,0.091,1.8478,-2.6214,-0.0972,-2.6425,0.9713,-15.785,5.213876848806988,-6.658713430413928,176.32498906698714,21.089332114925753
-0.1149,0.9751,0.0867,1.8128,-2.6214,-0.2797,-2.6425,1.26,-16.1875,5.183758286485322,-6.679080911218616,159.34285740654903,21.090553471789168
-0.1147,0.9748,0.0866,1.8128,-2.6214,-0.2797,-2.3275,1.3387,-15.925,5.181474908857019,-6.682037772970398,120.73255900172688,21.091771997341397
-0.1148,0.9712,0.0849,1.79,-2.6214,-0.08,-2.1963,1.0412,-15.75,5.156856992626347,-6.698160160233885,128.69371067962763,21.093009280330243
-0.1204,0.9761,0.0864,1.79,-2.6214,-0.08,-2.3888,1.3475,-15.6975,5.1531155106483855,-6.839341014324814,134.4044278791054,21.094248332888583
-0.1154,0.9755,0.0888,1.6461,-2.6214,-0.2951,-2.1525,1.2687,-15.8375,5.161041254368362,-6.779412361668812,116.99963061415721,21.095579756974402
-0.1144,0.9762,0.0856,1.8608,-2.6214,-0.1192,-2.3013,1.0062,-15.7062,5.154181024274833,-6.7234804688653185,127.1594354047472,21.09682517998291
-0.1138,0.9714,0.0883,1.8608,-2.6214,-0.1192,-2.5725,1.2862,-16.4325,5.161427970733045,-6.681197221149859,130.6873642186523,21.09803768899887
-0.1154,0.9747,0.0882,1.7985,-2.6214,-0.212,-2.38,1.1462,-15.5662,5.161700452665169,-6.699529455295151,133.59370107474638,21.099246658875842
-0.1155,0.976,0.0845,1.7985,-2.6214,-0.212,-2.59,1.5137,-15.4787,5.120282815618306,-6.7090652534277195,144.31544367681698,21.100454920925017
-0.1149,0.9738,0.0902,1.8566,-2.6214,-0.1672,-3.255,0.7613,-16.2138,5.201904867684401,-6.704329194853197,154.7430711074667,21.1016610594908
-0.1177,0.9721,0.0812,1.8621,-2.6214,-0.1632,-2.8788,1.085,-16.6513,5.054066612348391,-6.817385435444659,157.38154399426995,21.102865782400993
-0.1181,0.9747,0.0908,1.8621,-2.6214,-0.1632,-2.94,1.2512,-15.8025,5.153612325415562,-6.847592665814457,158.19642127801555,21.104071213138983
-0.1139,0.9757,0.0849,1.855,-2.6214,-0.0694,-1.9337,1.085,-15.2425,5.1005969185970494,-6.786561931427148,160.14743240039982,21.105270981254595
-0.1115,0.9762,0.0852,1.855,-2.6214,-0.0694,-2.2838,1.0587,-15.8025,5.0936732031589536,-6.642144957241053,162.1957539463437,21.106472165025803
-0.1136,0.9721,0.0876,2.0276,-2.6214,-0.172,-2.8788,1.1375,-15.8025,5.112914787094298,-6.640467059804944,163.28917446952136,21.10766910183023
-0.1165,0.9744,0.0863,2.0237,-2.6214,-0.1814,-2.2662,1.2775,-15.8375,5.108956568022713,-6.715813669194628,164.27000938728952,21.108872409084828
-0.1182,0.9767,0.0869,2.0237,-2.6214,-0.1814,-1.5312,1.1638,-15.7937,5.097903705801372,-6.792624365020025,164.90537947267373,21.11007465459773
-0.1138,0.9726,0.089,1.8095,-2.6214,-0.129,-2.275,1.3475,-15.6712,5.106931017897538,-6.726269081262693,166.36848451817207,21.111274422713343
-0.116,0.9736,0.0885,1.8095,-2.6214,-0.129,-2.3888,1.3037,-16.0212,5.11023528845592,-6.748220504176253,167.28492715136372,21.112514890927276
-0.1155,0.9757,0.0877,1.7234,-2.6214,-0.0249,-2.345,1.3912,-15.2687,5.1103465108268065,-6.741056232991661,168.3255275326543,21.11376986961104
-0.1112,0.9754,0.088,1.6559,-2.6214,-0.2703,-2.4588,1.54,-15.855,5.114776398609301,-6.60869197397039,82.0998610665485,21.11499122647446
-0.1133,0.973,0.0841,1.6559,-2.6214,-0.2703,-2.45,1.085,-15.6363,5.098788160759561,-6.612535714075587,53.1675650058767,21.11620939811279
-0.1142,0.9742,0.0875,1.4865,-2.6214,-0.0832,-2.2313,1.155,-15.12,5.102333741394269,-6.622678964957606,59.50053431422422,21.117437833254176
-0.1161,0.9745,0.0866,1.4865,-2.6214,-0.0832,-2.905,1.2337,-15.9862,5.093753000661782,-6.6999924856755655,62.205148736247345,21.118674408415224
-0.1168,0.974,0.085,1.5842,-2.6214,-0.1622,-2.5725,1.2425,-16.0037,5.074366819241961,-6.760407021821908,65.87461960003655,21.119896827020334
-0.1143,0.9724,0.0911,1.5766,-2.6214,-0.2279,-2.4325,1.05,-14.9713,5.095703889915672,-6.750746241767174,81.52219543101188,21.121122076936633
-0.1147,0.9737,0.0863,1.5766,-2.6214,-0.2279,-2.5988,0.8138,-15.9425,5.089562484643409,-6.720187133471775,109.41723133262866,21.122365022547854
-0.1116,0.9755,0.0905,1.9534,-2.6214,-0.0705,-2.625,1.1462,-15.3212,5.135111377208441,-6.6486219469727805,113.37320496383596,21.123580362874996
-0.1127,0.9739,0.0849,1.9534,-2.6214,-0.0705,-2.4325,1.0237,-15.2337,5.12336545738759,-6.62830145210611,123.19496222971487,21.124806320619093
-0.1166,0.973,0.0863,1.8723,-2.6214,-0.1638,-2.5463,0.8312,-14.9012,5.114347847033883,-6.6380257870043655,138.298227911178,21.126049974058112
-0.1157,0.9747,0.0885,1.7946,-2.6214,-0.0967,-2.7475,0.91,-15.05,5.1353429741585295,-6.655816990248617,147.0274049138381,21.127265668299152
-0.115,0.974,0.0875,1.7946,-2.6214,-0.0967,-2.5725,0.9625,-15.0675,5.134993552513682,-6.665172064212869,152.81333219736393,21.1284803007985
-0.1124,0.974,0.089,1.7676,-2.6214,-0.1359,-2.2662,1.155,-15.4437,5.141588657750941,-6.6241425722218095,154.07575494839153,21.12976040736905
-0.1138,0.9737,0.0884,1.7676,-2.6214,-0.1359,-2.5113,1.155,-15.7937,5.147993616441876,-6.631416336134447,155.2750844087529,21.130996274702305
-0.1152,0.9733,0.0886,1.8573,-2.6214,-0.1552,-2.9488,1.1462,-15.295,5.167983815823642,-6.6597718565827275,156.620718959677,21.132216923737925
-0.1144,0.9756,0.0869,1.9389,-2.6214,-0.1052,-2.5463,1.2075,-15.6363,5.155165457246497,-6.660708758104747,156.66622084300022,21.1334694250244
-0.113,0.9737,0.0872,1.9389,-2.6214,-0.1052,-2.4763,1.0762,-15.5662,5.150919911842031,-6.632531161050056,159.02488216227098,21.134701045390873
-0.116,0.9744,0.0855,1.856,-2.6214,-0.259,-3.15,0.98,-15.54,5.090325990385784,-6.686182688820866,95.82528363929787,21.135921694426493
-0.1143,0.9736,0.0889,1.856,-2.6214,-0.259,-3.0363,1.4262,-15.3475,5.142010928996958,-6.680207088647291,46.842390205385165,21.137140219978722
-0.1127,0.9755,0.0876,1.8049,-2.6214,-0.1995,-2.5638,0.9625,-15.5575,5.140137453610245,-6.631809875243616,73.0466752498936,21.1383700707757
-0.1137,0.9742,0.0856,1.5349,-2.6214,-0.1975,-2.0213,1.5487,-15.1725,5.110837536141818,-6.631762255031359,99.8609037002592,21.139582933705555
-0.1164,0.9742,0.0883,1.5349,-2.6214,-0.1975,-2.66,1.4262,-15.2337,5.127007107610586,-6.675039418495643,113.89762987717192,21.140794734893717
-0.09,0.9709,-0.1319,-0.1187,0.1631,0.1118,-1.7237,2.1175,-17.15,0.17657385495868344,-5.679679769964041,81.2314795757594,21.14359171643286
-0.0979,0.9818,-0.1358,-0.1164,0.1636,0.1104,-1.715,2.7475,-17.4913,-2.948409261101678,-5.651647375892066,59.47519680882859,21.14480387153492
-0.1136,0.9929,-0.1343,-0.1164,0.1636,0.1104,-1.9775,2.2488,-17.6312,-4.2370885750992535,-6.252879225998061,51.99673826027269,21.146083624191572
-0.1102,0.99,-0.1329,-0.115,0.1636,0.1133,-3.5175,1.715,-17.1763,-6.073665358822858,-6.282789061520669,49.91187496370162,21.147307104538378
-0.1063,0.9809,-0.1308,-0.115,0.1636,0.1098,-4.0687,1.0762,-17.08,-7.035819694695597,-6.178003485595043,49.3421410007418,21.148515012673656
-0.1058,0.9757,-0.1258,-0.1146,0.1623,0.1098,-3.7013,1.0062,-17.1675,-7.214574171163524,-6.150222943070881,48.60768442359193,21.149779193118782
-0.1078,0.9622,-0.1257,-0.1142,0.1606,0.1098,-3.185,0.4375,-17.36,-7.318502114281087,-6.285351611716415,47.05147623597046,21.151135037263593
-0.1164,0.9646,-0.1274,-0.1142,0.1606,0.1098,-2.1788,-0.0175,-17.92,-7.348410402493938,-6.690377333817044,45.83464874547171,21.15247884833586
-0.1152,0.9715,-0.1358,-0.1154,0.1631,0.1108,-1.7675,-0.385,-16.9137,-7.5724265498418495,-6.6955214631148365,45.40822423761798,21.15376921840947
-0.1114,0.9789,-0.1417,-0.1177,0.1637,0.1132,-1.8725,-0.2713,-16.4587,-7.786863258977811,-6.529060376733786,45.445316810686194,21.15501676490137
-0.1124,0.9804,-0.1386,-0.1177,0.1637,0.1132,-2.0825,-0.595,-16.8875,-7.8415735929090555,-6.493698286872003,45.37245184270706,21.156255463545808
-0.1065,0.9771,-0.1453,-0.1162,0.1625,0.1123,-2.4938,-0.9625,-16.6688,-7.9194248237103295,-6.273801823151499,45.70617684293146,21.157503363951605
-0.1092,0.972,-0.1449,-0.1162,0.1625,0.1123,-2.6863,-0.6388,-16.8087,-8.06043633400566,-6.318050787985557,45.753288001609675,21.158774976588596
-0.1065,0.9695,-0.1432,-0.1143,0.1633,0.1094,-2.2488,-0.5338,-15.3737,-8.091641238386668,-6.277873939018926,45.65481062828078,21.16001650654422
-0.1024,0.9644,-0.1418,-0.1159,0.1642,0.1098,-2.3275,0.0875,-14.4112,-8.097464339302755,-6.193065455353921,45.532977386549,21.161241048632725
-0.0914,0.9601,-0.1461,-0.1159,0.1642,0.1098,-1.7937,1.015,-13.4925,-8.295672341341195,-5.723834822068476,45.5956240432925,21.1624712533436
-0.0676,0.9603,-0.1432,-0.1134,0.163,0.111,-1.9162,2.135,-13.2912,-8.351817693392487,-4.664889817162162,46.448667156117935,21.163693318034813
-0.0663,0.9683,-0.1477,-0.1134,0.163,0.111,-1.3037,3.1675,-13.1337,-8.515877661586073,-4.164777800688984,47.17210722577651,21.164904411395177
-0.0706,0.9778,-0.153,-0.1172,0.1612,0.1102,-1.4525,4.1213,-13.3,-8.694261195755193,-4.11349731402082,46.66249207786528,21.166128245655884
-0.0768,0.9825,-0.1498,-0.1171,0.1619,0.1112,-2.1,4.6813,-13.615,-8.689224285700933,-4.281780011711327,46.481481266540854,21.167352433830487
-0.0796,0.9831,-0.1479,-0.1171,0.1619,0.1112,-2.4413,5.6262,-14.5338,-8.67796360450707,-4.351795260899903,46.318089149819386,21.168571667210514
-0.0832,0.9868,-0.1474,-0.1162,0.1611,0.1105,-3.5263,5.8975,-14.5862,-8.579344683352296,-4.436752605353866,46.210437969723586,21.169781698829183
-0.0925,0.9861,-0.1449,-0.1162,0.1611,0.1105,-3.5788,6.055,-15.2075,-8.458031450288734,-4.667655657393871,45.89660241397154,21.171010487884466
-0.095,0.9769,-0.1367,-0.1159,0.1624,0.1148,-4.4538,5.7225,-15.3125,-8.124363810647964,-4.933678137515889,46.38834525009912,21.174136963263027
-0.0997,0.9789,-0.1432,-0.1155,0.1621,0.1082,-5.005,5.145,-16.485,-8.268355511256827,-5.443824834189693,45.473568279184654,21.182641514241848
-0.1032,0.9857,-0.1364,-0.1155,0.1621,0.1082,-5.3463,4.025,-17.255,-7.9760287808370265,-5.7810624759045846,45.03944000470126,21.194918433463833
-0.1028,0.9853,-0.1301,-0.1161,0.1603,0.1102,-5.2325,2.9313,-17.5963,-7.638831877777591,-5.872296031508618,44.998532420599034,21.207120322939353
-0.1005,0.9826,-0.1338,-0.1161,0.1603,0.1102,-5.6613,2.3625,-17.185,-7.727473237435847,-5.812421981038873,45.09301124259998,21.219681435021762
-0.1035,0.9796,-0.1339,-0.1152,0.1628,0.1128,-6.3,1.5312,-17.1238,-7.772131664622651,-5.926179014471659,45.28354439207419,21.232388005716416
-0.1012,0.9746,-0.129,-0.1142,0.1642,0.1113,-5.4862,1.3037,-17.5875,-7.59607836345986,-5.890360334673186,45.31791117501287,21.2445541498882
-0.102,0.9622,-0.1232,-0.1142,0.1642,0.1113,-4.795,1.2687,-17.4562,-7.383404489846423,-5.971470770753268,45.326243738288206,21.256687733981327
-0.1063,0.9647,-0.1223,-0.1144,0.1626,0.1105,-4.4888,0.77,-16.4675,-7.2755501130766245,-6.136731575092058,45.24890258737294,21.268870512106332
-0.1068,0.9628,-0.1198,-0.1144,0.1626,0.1105,-4.06,0.56,-15.6712,-7.160210214818592,-6.202371913224253,45.138392199843715,21.281079479859823
-0.1005,0.9642,-0.126,-0.1153,0.1633,0.1126,-3.4563,0.735,-15.4525,-7.309902066953387,-6.088218357138048,45.30275219172401,21.29321518743634
-0.0952,0.9601,-0.126,-0.1182,0.1628,0.1113,-3.1412,0.28,-14.9713,-7.383553608918235,-6.034640366070872,45.107475928260094,21.30534594021828
-0.0876,0.9738,-0.1304,-0.1182,0.1628,0.1113,-2.205,0.595,-14.805,-7.4142557334956605,-5.9996723544638755,45.16384717473446,21.31473527594313
-0.0845,0.9789,-0.1357,-0.1151,0.1626,0.1114,-1.33,1.2862,-15.3125,-7.655577041166175,-5.6445528397476865,45.23946487511296,21.32693221062407
-0.0824,0.9823,-0.1369,-0.1151,0.1626,0.1114,-2.1525,1.575,-15.5312,-7.701365511640088,-5.279817889071449,45.53040784795061,21.339111095696193
-0.0834,0.9799,-0.1358,-0.1158,0.1634,0.1121,-1.9687,1.9075,-16.1175,-7.753399118240075,-5.021618550633376,45.83298728526899,21.351308030377137
-0.0847,0.9759,-0.1323,-0.1162,0.1627,0.1127,-2.8175,1.785,-15.505,-7.742863253255597,-4.979424842176972,45.94786764818634,21.363386049988215
-0.0927,0.9703,-0.1397,-0.1162,0.1627,0.1127,-2.2662,2.1088,-15.1462,-7.777395516105208,-5.07756838696095,46.05404378969971,21.375579445530175
-0.0972,0.9706,-0.1314,-0.1139,0.1628,0.1111,-1.8725,2.3275,-15.6975,-7.755584164203087,-5.349240992080658,45.978895449046426,21.387755145377213
-0.0949,0.9711,-0.1327,-0.1139,0.1628,0.1111,-1.7675,2.3625,-16.0912,-7.7650155445913525,-5.4497917231683415,46.00464175175011,21.399896869490004
-0.1003,0.9772,-0.1349,-0.1166,0.1598,0.1102,-1.6275,2.4325,-15.785,-7.804775941224869,-5.6223454036807405,45.51554044772717,21.41204142491398
-0.0945,0.9833,-0.1416,-0.1154,0.1609,0.1092,-1.6975,2.5463,-15.6012,-7.958576438617321,-5.541093614645902,45.54019500818555,21.424237651767125
-0.0899,0.9867,-0.1421,-0.1154,0.1609,0.1092,-2.3712,2.1613,-16.3275,-7.96364476486367,-5.309291095142813,45.62007073080255,21.433148849815222
-0.091,0.9903,-0.1436,-0.1147,0.1626,0.1113,-2.6075,2.66,-16.3625,-8.022562953575559,-5.241096860737266,46.04940187012178,21.445359233224305
-0.0919,0.9859,-0.1405,-0.1147,0.1626,0.1113,-2.5288,2.6513,-16.87,-8.035956539515084,-5.262079190817147,46.151602181139125,21.45757563316966
-0.0968,0.9783,-0.138,-0.1146,0.163,0.1251,-4.7512,3.0188,-16.4762,-8.031203956147708,-5.469043848826463,47.898006096904815,21.46975593389738
-0.0978,0.9747,-0.1379,-0.115,0.165,0.1105,-3.4913,2.9313,-16.2663,-8.042679970437028,-5.589206587005654,46.54512114807212,21.481963132081376
-0.105,0.9715,-0.1316,-0.115,0.165,0.1105,-3.1937,2.9575,-16.6425,-7.892372246089166,-5.925979456191217,45.76691584717912,21.49422235560844
-0.1032,0.9715,-0.1302,-0.1144,0.1622,0.1104,-3.3338,2.905,-15.995,-7.763833741484985,-5.971110579325338,45.54762666309487,21.50641008852802
-0.1076,0.9722,-0.1387,-0.1144,0.1622,0.1104,-3.7975,2.8263,-15.8375,-7.974149748525639,-6.111523772891078,45.57334241870143,21.518591450997434
-0.1029,0.9722,-0.1342,-0.1154,0.1618,0.1057,-3.4738,2.6863,-15.6887,-7.913357685799631,-6.053800111929573,44.81313824652956,21.530736714249212
-0.1001,0.9758,-0.1365,-0.1155,0.1627,0.1114,-3.36,2.135,-15.7237,-7.938391513098595,-5.93544906786608,45.24184183280264,21.54299876908746
-0.0805,0.9719,-0.1401,-0.1155,0.1627,0.1114,-3.29,2.415,-16.1875,-8.066516244978592,-5.219439391830933,45.89112710732475,21.55520738292705
-0.0763,0.9769,-0.1387,-0.1152,0.1626,0.1117,-3.605,2.5375,-16.6075,-8.074484282640865,-4.710402866204256,46.31316538090204,21.564212014244326
-0.0752,0.9836,-0.1438,-0.1152,0.1626,0.1117,-4.305,2.6163,-17.5963,-8.235335130318793,-4.428557001067487,46.60950245082072,21.576390191488652
-0.0706,0.9743,-0.1393,-0.1111,0.164,0.1087,-4.1737,3.7713,-17.675,-8.171615233857267,-4.187942486117147,47.001654713716164,21.589012884589383
-0.0861,0.9638,-0.14,-0.1142,0.1622,0.1097,-4.7337,5.4513,-16.8437,-8.237325794101373,-4.764091836026238,46.346044028800414,21.601199201853376
-0.0926,0.9699,-0.1393,-0.1142,0.1622,0.1097,-3.71,5.8187,-17.3512,-8.200308346392541,-5.217736870054682,46.02401693652715,21.61335402078041
-0.0873,0.9725,-0.1361,-0.1152,0.161,0.1114,-3.64,5.4862,-18.305,-8.068693374634655,-5.111158744987781,46.11139610589162,21.625469555264715
-0.0857,0.9743,-0.1439,-0.1152,0.161,0.1114,-3.7713,5.6788,-18.2087,-8.264151707517522,-5.004772948806998,46.38127372794523,21.637689140435157
-0.0839,0.9776,-0.1373,-0.1125,0.1631,0.113,-3.8063,6.79,-17.7362,-8.10434997798039,-4.895556228513413,47.11161934918207,21.649826971495067
-0.0896,0.9826,-0.1383,-0.1126,0.1635,0.112,-3.5263,7.14,-17.6925,-8.05425730583704,-5.091013887120812,46.8932574813194,21.661996300891932
-0.1085,0.9887,-0.1325,-0.1126,0.1635,0.112,-4.2962,7.805,-17.955,-7.775935312820859,-5.935957944430274,46.17917924225454,21.67411643625692
-0.1132,0.99,-0.1302,-0.1126,0.1626,0.1085,-4.4713,7.5775,-17.71,-7.583126589509476,-6.330279695263074,45.22280540554414,21.686250374263945
-0.1246,0.9884,-0.1272,-0.1126,0.1626,0.1085,-5.425,6.4837,-17.4125,-7.3945586655502975,-6.903595900040391,44.72738566135754,21.696589968806027
-0.1246,0.9815,-0.1221,-0.1122,0.1648,0.1111,-6.02,5.7137,-17.5788,-7.156185318015252,-7.106112131144243,45.049068538228,21.707962638017573
-0.1238,0.974,-0.1183,-0.1102,0.1632,0.1099,-5.3113,4.6112,-17.1413,-6.983429388160373,-7.165558583826738,45.152596060391915,21.720068616826623
-0.1298,0.9675,-0.1207,-0.1102,0.1632,0.1099,-4.7075,3.675,-16.6425,-7.073129741157308,-7.433914157316031,45.114517104873386,21.732212464422805
-0.1255,0.9641,-0.1143,-0.115,0.164,0.1118,-4.6463,2.2225,-15.9687,-6.855816099960098,-7.397779134507808,44.738409885733205,21.744314550178974
-0.12,0.9631,-0.1155,-0.115,0.164,0.1109,-3.8063,1.7237,-14.9537,-6.84557781511395,-7.363530037986194,44.61488337357911,21.756549707560946
-0.115,0.9604,-0.1171,-0.111,0.1647,0.1109,-3.7888,0.9363,-13.72,-6.908178874832768,-7.053961223574681,44.796894856124524,21.76872859263307
-0.1118,0.9698,-0.1179,-0.1106,0.1642,0.1109,-3.5525,1.0237,-13.2125,-6.920923935674172,-6.728186621076253,44.93417475943461,21.78084802017026
-0.0875,0.979,-0.1214,-0.1106,0.1642,0.1109,-3.6488,0.7088,-12.1275,-7.004506446469636,-5.515283068095201,45.476665505351555,21.793058049665444
-0.0815,0.9809,-0.1172,-0.1126,0.1647,0.1112,-3.1937,1.1025,-11.8387,-6.9170695703567855,-4.915746437405335,45.54766555368574,21.805177831116534
-0.0768,0.9769,-0.1179,-0.1137,0.1632,0.1127,-3.5263,1.54,-12.04,-6.897905858279057,-4.581932664125925,45.77396264938929,21.817284517753382
-0.0739,0.9726,-0.1136,-0.1137,0.1632,0.1127,-3.57,1.9425,-12.075,-6.768219858358162,-4.386465878268049,46.04214846422254,21.826808340759627
-0.09,0.975,-0.1077,-0.1143,0.163,0.1107,-3.675,1.7587,-12.5825,-6.503277159511341,-4.979791144931914,45.7056534704572,21.838910426515795
-0.0974,0.9773,-0.1054,-0.1143,0.163,0.1107,-2.94,1.9687,-14.0,-6.3741145407614965,-5.290522452987582,45.3034143392604,21.85108046374046
-0.096,0.9805,-0.1041,-0.1146,0.1637,0.1124,-2.52,1.4612,-14.5162,-6.328374088789015,-5.3572205525591245,45.2589588252094,21.86325970272648
-0.0971,0.9787,-0.1072,-0.1161,0.1645,0.1106,-2.275,0.9975,-15.4962,-6.323012982227785,-5.46591665755259,45.11443308470267,21.875434694745724
-0.0978,0.9778,-0.1079,-0.1161,0.1645,0.1106,-1.505,0.1488,-15.505,-6.311149443694673,-5.550150230425925,44.766797910250695,21.887545274435453
-0.1006,0.975,-0.1014,-0.1136,0.164,0.1118,-0.7875,-0.4288,-15.7587,-6.083302825525519,-5.697973821700866,44.86808936161277,21.89977335353946
-0.0918,0.9778,-0.1115,-0.1136,0.164,0.1118,-0.5075,-0.4638,-15.015,-6.356883984479421,-5.644017025161466,45.31312908276088,21.911996123934983
-0.0818,0.9836,-0.1116,-0.1134,0.1638,0.11,0.0875,-0.665,-14.8487,-6.439313381343319,-5.639398895444213,45.45843891512403,21.924168284643038
-0.0765,0.9911,-0.1183,-0.1138,0.1619,0.1104,0.1925,-0.6212,-14.91,-6.703009572722267,-5.561214660292229,45.75495555857237,21.9363167331199
-0.0708,0.9887,-0.1175,-0.1138,0.1619,0.1104,-0.6212,-0.315,-14.525,-6.750138220652497,-5.2002280770467415,45.948227785546976,21.948509066920163
-0.0702,0.9843,-0.1208,-0.1155,0.1619,0.111,-1.3825,0.07,-14.5775,-6.871358226922001,-4.958259008560817,45.955656956766354,21.96064937537736
-0.0833,0.9824,-0.1195,-0.1155,0.1619,0.111,-1.05,0.4725,-14.7875,-6.907567795909717,-4.950448029730394,45.76645020044,21.97007374857815
-0.0873,0.975,-0.1176,-0.1155,0.1618,0.1123,-2.03,0.4987,-14.455,-6.90029772378096,-4.986681320238841,45.70428325751785,21.981684955757224
-0.0916,0.9755,-0.1205,-0.116,0.1618,0.1121,-1.5312,0.2713,-15.2687,-6.964001517519552,-5.0873358265642095,45.57285401291592,21.993882952179863
-0.0941,0.9749,-0.1225,-0.116,0.1618,0.1121,-1.1638,-0.28,-14.8662,-7.071351403912407,-5.095783692471245,45.486854233619766,22.00621225065881
-0.0942,0.9806,-0.1249,-0.117,0.1622,0.1099,-0.6475,-0.2888,-15.6187,-7.189380193666136,-5.2476049480629205,45.07514449925137,22.018411308823143
-0.096,0.9791,-0.1299,-0.117,0.1622,0.1099,-0.9625,-1.1638,-15.435,-7.403244964923173,-5.360558096838084,44.97126279187336,22.031138052610007
-0.0935,0.9765,-0.1297,-0.1148,0.1618,0.1094,-0.84,-0.805,-15.8287,-7.501029062771473,-5.391084345860737,45.23848257415384,22.043249694041435
-0.0912,0.9742,-0.134,-0.1149,0.1606,0.1107,-0.9363,-0.4025,-15.6538,-7.694732274362841,-5.349679811140927,45.61546854353345,22.05551493410477
-0.0865,0.969,-0.1319,-0.1149,0.1606,0.1107,-1.12,-0.14,-15.9425,-7.7260052551489355,-5.1952695091487024,45.795478229713645,22.06788174745695
-0.0796,0.9682,-0.133,-0.1168,0.1626,0.111,-0.7,-0.0438,-16.17,-7.785561394570595,-4.888058215927946,45.82181966411019,22.079985602782614
-0.0758,0.9726,-0.1326,-0.1168,0.1626,0.111,-0.6737,0.0788,-16.31,-7.771800939466025,-4.607208573119548,45.882706430354226,22.092151393040496
-0.0677,0.9708,-0.1306,-0.1162,0.1626,0.1139,-0.8138,1.4175,-15.7762,-7.705244286717677,-4.291828946074891,46.055087605810215,22.104298071947863
-0.0701,0.967,-0.134,-0.1141,0.1613,0.1104,-0.56,2.0825,-15.9337,-7.823377969945429,-4.195504469271859,46.3287703550101,22.11646032306676
-0.0828,0.9687,-0.1313,-0.1141,0.1613,0.1104,-1.0762,3.29,-15.9337,-7.764902453852305,-4.532389806073772,46.2041313806679,22.12852914091648
-0.0867,0.9732,-0.1337,-0.1171,0.162,0.1085,-0.035,4.0075,-15.785,-7.805073748006694,-4.780356125227754,45.33024296140292,22.138058272631202
-0.0895,0.9717,-0.1318,-0.1171,0.162,0.1085,-0.0525,3.9463,-16.205,-7.748854473076334,-5.030925439700918,44.99264839766443,22.1502428203257
-0.0921,0.9755,-0.1358,-0.1162,0.1617,0.0995,-0.875,3.395,-16.2663,-7.853958583489818,-5.213756193838195,43.66514545248769,22.16236861831306
-0.091,0.9788,-0.1348,-0.1164,0.1606,0.1083,-0.4025,3.115,-16.3013,-7.8456802735432625,-5.242482833990127,44.54817474654096,22.1747003941893
-0.098,0.9819,-0.1335,-0.1164,0.1606,0.1083,-0.98,3.255,-16.17,-7.786054826101557,-5.473680707008252,44.68647399468849,22.186680025736617
-0.1018,0.9817,-0.1332,-0.1154,0.1626,0.1117,-1.1812,2.9663,-17.0713,-7.754171618118569,-5.745071749988918,45.278441154717825,22.198805115896185
-0.1024,0.9832,-0.1338,-0.1154,0.1626,0.1117,-0.455,2.1175,-17.4212,-7.751154946547454,-5.850917192146363,45.43916879379159,22.21099921926594
-0.1011,0.9845,-0.1332,-0.1145,0.1624,0.107,-0.5163,1.75,-17.4737,-7.721398815989466,-5.821760642648358,45.211135342559814,22.22316359386823
-0.0953,0.9852,-0.1363,-0.1159,0.162,0.1074,-0.9013,1.2687,-17.7537,-7.813278237765945,-5.5624294605607085,45.19089913323528,22.23532726064272
-0.0849,0.9789,-0.1321,-0.1159,0.162,0.1074,-1.26,0.8838,-18.7075,-7.746651663682457,-5.046165366042427,45.149898471837545,22.247464029960934
-0.0845,0.9779,-0.1319,-0.1141,0.1618,0.1078,-1.0675,1.0412,-18.3225,-7.7101897703416675,-4.9283915702431775,45.203743940039686,22.25688274053935
-0.0789,0.9715,-0.1273,-0.1141,0.1618,0.1078,-0.6212,1.1287,-18.2262,-7.55499638568141,-4.677926063080309,45.229553722043946,22.269056316902997
-0.082,0.9724,-0.128,-0.1156,0.1633,0.1076,-0.9713,1.9162,-17.1063,-7.522493161123101,-4.7481376716705705,45.17856106932496,22.281223168902578
-0.0944,0.9732,-0.1277,-0.115,0.1617,0.1069,-0.7788,2.1875,-16.4412,-7.493750714121048,-5.206572392531272,44.92843179111676,22.293383650451982
-0.1002,0.9677,-0.1269,-0.115,0.1617,0.1069,-1.1025,2.8,-15.7762,-7.481065445713662,-5.522732811664146,44.65186110182592,22.305513695406127
-0.101,0.9656,-0.1316,-0.1154,0.1617,0.1088,-0.245,2.66,-15.2337,-7.6707758614542545,-5.6333673875416475,44.838591259361685,22.31769718135893
-0.1031,0.9684,-0.1399,-0.1154,0.1617,0.1088,0.0,2.73,-14.49,-8.05627686151019,-5.73309438083156,45.054886137842956,22.329841028955112
-0.0992,0.9768,-0.144,-0.1131,0.1621,0.1032,0.6125,2.4588,-14.7875,-8.30288603092678,-5.733316242328665,44.85795609440832,22.341932851208227
-0.0952,0.9795,-0.1421,-0.1144,0.1623,0.1054,0.5425,1.9162,-14.4725,-8.266963070425678,-5.668569523137596,44.898725909164675,22.354010162991507
-0.091,0.973,-0.1401,-0.1144,0.1623,0.1054,0.07,1.995,-13.9387,-8.215035074071888,-5.4881710051676045,44.9550302547512,22.363401622199746
-0.0868,0.9717,-0.138,-0.1158,0.1614,0.1007,0.2187,1.7237,-13.6237,-8.120036381652543,-5.249642089823086,44.521240018746774,22.375518218425746
-0.0858,0.9695,-0.1454,-0.1158,0.1614,0.1007,0.315,1.8288,-14.175,-8.417625732462529,-5.150330550992442,44.316814303380355,22.38761959635412
-0.0877,0.9697,-0.1469,-0.1154,0.1605,0.0994,0.2013,1.6625,-14.735,-8.55887083598006,-5.14635866587951,44.14203210840127,22.399669302853326
-0.087,0.974,-0.1461,-0.1155,0.1622,0.1054,0.1225,1.12,-14.5338,-8.538860887773911,-5.123108077549334,44.221998115711536,22.411789084304413
-0.0897,0.9789,-0.1534,-0.1155,0.1622,0.1054,0.1138,0.9013,-14.56,-8.800120673851259,-5.134090842956923,44.470231584808026,22.423919483172455
-0.0874,0.9821,-0.1608,-0.1167,0.1617,0.1034,0.0875,0.77,-14.5513,-9.153542311795041,-5.108064816396847,44.59233911646465,22.436014844564554
-0.0867,0.9852,-0.1541,-0.1167,0.1617,0.1034,-0.3588,0.1663,-14.8487,-8.978049229257465,-5.107367402205967,44.62110340460139,22.448165416524805
-0.088,0.9845,-0.1546,-0.1134,0.1611,0.1088,-1.0937,-0.245,-14.4025,-8.94824317965471,-5.088679908614006,45.76686207779541,22.460298292790135
-0.0868,0.9821,-0.1534,-0.1141,0.1607,0.1034,-1.3562,-0.8838,-15.4175,-8.913060560573172,-5.0529163915771775,45.381166452877615,22.469671702389554
-0.0817,0.9744,-0.1591,-0.1141,0.1607,0.1034,-1.9862,-1.26,-15.3475,-9.00905339119706,-4.94488972957225,45.51677476283738,22.48197127210104
-0.0857,0.9742,-0.1564,-0.1151,0.1602,0.1038,-2.5463,-0.945,-14.7613,-9.027403328655838,-4.9463518126109784,45.30966137703856,22.4942089068803
-0.0875,0.9762,-0.1559,-0.1151,0.1602,0.1038,-2.5288,-1.365,-15.0062,-9.034428292476445,-4.96198497763486,45.18520118660795,22.506387438038523
-0.0842,0.9781,-0.1569,-0.1164,0.1617,0.1059,-2.9225,-1.8463,-15.0237,-9.063183664295543,-4.946178114100637,45.39523995211004,22.5186438302544
-0.0806,0.9776,-0.154,-0.1159,0.1603,0.1054,-3.6575,-2.0213,-15.26,-9.000259758444455,-4.860888535715842,45.43860479414984,22.53088111111976
-0.0674,0.9711,-0.155,-0.1159,0.1603,0.1054,-4.095,-2.3712,-15.5925,-9.043738661085747,-4.458357933904428,45.80478203513035,22.543104943256985
-0.0666,0.9687,-0.1548,-0.1173,0.1602,0.1076,-4.0513,-2.3013,-16.5987,-9.066078262736823,-4.092400104312678,46.031007909886675,22.555253037819945
-0.0716,0.9736,-0.1542,-0.1164,0.161,0.1066,-3.99,-2.2225,-16.6338,-9.024912800815702,-4.132208916789227,45.935002688869,22.56749704304938
-0.0734,0.9744,-0.1516,-0.1164,0.161,0.1066,-3.4388,-2.1,-17.6837,-8.93024082204007,-4.224386583775442,45.80178889901904,22.579760513543224
-0.0644,0.9737,-0.1526,-0.1161,0.1602,0.1064,-4.1125,-1.8375,-17.6225,-8.915439058860475,-3.8670803720943288,46.013810114974206,22.592081672002507
-0.0613,0.9754,-0.1512,-0.1161,0.1602,0.1064,-4.2613,-2.2225,-17.7187,-8.847179433412807,-3.634607977382075,46.1016524777978,22.604167831633248
-0.0615,0.9776,-0.1505,-0.1164,0.1625,0.1126,-4.7337,-1.82,-18.515,-8.780043785504477,-3.5743063056751563,47.07648541937008,22.61641396034607
-0.066,0.981,-0.1485,-0.1166,0.1618,0.1058,-5.1538,-1.2337,-19.3375,-8.653119736851119,-3.763609498781822,46.06822862820856,22.628667521250758
-0.0667,0.9787,-0.1474,-0.1166,0.1618,0.1058,-5.8362,-0.6038,-18.935,-8.584506471543886,-3.8373911741534945,45.76848515300885,22.640893476871373
-0.0703,0.9785,-0.1499,-0.1152,0.1605,0.1071,-6.1512,-0.6388,-21.7087,-8.683579337950718,-4.033536102215398,46.02286097611376,22.653140313411992
-0.0755,0.9825,-0.1568,-0.1152,0.1605,0.1071,-6.8688,-0.7525,-22.2687,-8.997968343119,-4.303222112293268,46.15423540718239,22.665328046331577
-0.0781,0.9852,-0.1507,-0.1138,0.1624,0.1061,-7.7962,-1.2337,-23.6075,-8.74349255216892,-4.462472421635242,46.08621798307977,22.6775741750444
-0.0763,0.9867,-0.1501,-0.1154,0.163,0.109,-7.6038,-0.91,-24.3425,-8.664699448884742,-4.380345123231969,46.27857329082809,22.689881884775545
-0.0878,0.9855,-0.1509,-0.1154,0.163,0.109,-7.805,-0.8138,-25.34,-8.699203486942556,-4.976040935671714,46.12656576898671,22.70199175663748
-0.0902,0.9918,-0.1434,-0.11,0.1658,0.1118,-8.4,-1.1025,-26.25,-8.294085485617796,-5.1298377705989235,47.13370843261025,22.711335791383327
-0.091,0.9934,-0.1453,-0.11,0.1658,0.1118,-9.3187,-1.05,-25.9088,-8.3179557970192,-5.175059564629041,47.460817773222175,22.723570594851402
-0.0903,0.9972,-0.1527,-0.1103,0.1669,0.117,-10.8762,-1.4962,-26.9325,-8.665272763699635,-5.119519382061438,48.50111983363695,22.735905909866624
-0.0922,0.9938,-0.1487,-0.1078,0.1689,0.1135,-12.355,-1.1375,-27.5363,-8.524019467826944,-5.233449550700977,48.55731500067205,22.748181413433013
-0.0987,0.9836,-0.1442,-0.1078,0.1689,0.1135,-13.6763,-1.015,-27.7112,-8.355290256351832,-5.638515162490888,48.33586515505631,22.760362775902426
-0.1002,0.9719,-0.1372,-0.1074,0.169,0.1166,-14.7,-0.7788,-28.665,-8.059144750481773,-5.8159986856751615,48.5780166605171,22.77266623866679
-0.1052,0.9637,-0.1337,-0.1046,0.1695,0.1186,-15.4525,-0.8138,-28.91,-7.909960559738109,-6.147664301100667,49.18507667069974,22.78495766835861
-0.1089,0.9574,-0.1317,-0.1046,0.1695,0.1186,-15.4875,-0.385,-29.3125,-7.837935817770652,-6.411018715030893,49.25476125953849,22.79725405284501
-0.1138,0.9509,-0.1249,-0.1007,0.172,0.1178,-15.1812,-0.0525,-30.0037,-7.508586862909049,-6.744877663435622,49.47143752395868,22.809485671087995
-0.1173,0.9506,-0.1191,-0.1007,0.172,0.1178,-14.4987,-0.0088,-29.9687,-7.169265030476403,-6.965856208003265,49.379225679531416,22.821797627785923
-0.1202,0.9521,-0.1093,-0.1004,0.1718,0.1234,-14.3325,0.105,-29.8025,-6.596610540927987,-7.137435556619204,49.7301026652835,22.83398217548042
-0.1269,0.9586,-0.1082,-0.0974,0.1771,0.1215,-13.3525,0.4462,-28.84,-6.4529435152270835,-7.4701853871001695,49.871023402275924,22.846746434140517
-0.1446,0.9748,-0.115,-0.0974,0.1771,0.1215,-12.635,0.315,-28.2362,-6.703857129035439,-8.317099969154212,49.79110960291102,22.858512301693196
-0.1423,0.9794,-0.1102,-0.0952,0.1778,0.1226,-11.97,0.1138,-27.5363,-6.446543540829957,-8.223107236872261,50.0745732941471,22.870644470130728
-0.1382,0.9795,-0.1069,-0.0952,0.1778,0.1226,-11.76,0.4025,-26.3375,-6.249404992689075,-8.003317726632,50.1987168562167,22.88288352056558
-0.1375,0.9794,-0.1101,-0.0929,0.1774,0.1246,-12.1012,-0.175,-25.6987,-6.39871029289331,-7.94740965951554,50.92743627895928,22.895163625012653
-0.1417,0.9811,-0.1072,-0.0941,0.1787,0.1253,-12.495,-0.21,-25.27,-6.250318581049485,-8.150900264795984,50.9879009203181,22.907442667718026
-0.1424,0.9797,-0.1093,-0.0941,0.1787,0.1253,-12.1363,-0.5338,-25.62,-6.355154195676822,-8.213920415382054,51.0484908787015,22.919706138211872
-0.1498,0.9771,-0.1073,-0.0922,0.1818,0.1286,-12.6525,-0.4812,-25.3487,-6.274627301103213,-8.625705655387922,51.51346226087667,22.93199756790369
-0.1541,0.98,-0.1028,-0.0897,0.1822,0.1299,-13.2825,-0.315,-25.165,-6.012303471367857,-8.865116976364899,51.99060257612462,22.9442015808626
-0.157,0.9748,-0.0881,-0.0897,0.1822,0.1299,-13.7812,-0.6737,-25.0425,-5.232438321840877,-9.090770611218355,51.748434626053566,22.956549282864266
-0.1599,0.9734,-0.0822,-0.0887,0.1834,0.1318,-13.86,-0.8312,-25.2875,-4.859373003704356,-9.278187175159397,51.82001897494778,22.968790102868613
-0.1624,0.981,-0.088,-0.0887,0.1834,0.1318,-13.16,-1.3212,-25.9175,-5.103390734861174,-9.355861210849943,51.95659148180887,22.981255304284552
-0.1642,0.9864,-0.079,-0.0866,0.1857,0.1297,-12.9325,-2.5375,-25.76,-4.624271924104679,-9.415895167718487,51.71043848326086,22.99310540334505
-0.1667,0.9867,-0.0867,-0.0861,0.1863,0.1334,-13.51,-2.52,-25.6375,-4.988932095156199,-9.541622258089987,52.469258466799715,23.0053904625867
-0.1646,0.9827,-0.0824,-0.0861,0.1863,0.1334,-14.5425,-3.1412,-25.27,-4.807919499656351,-9.481739772573968,52.55238015532932,23.017644731319184
-0.1638,0.9752,-0.0764,-0.0858,0.1882,0.1321,-14.6125,-3.465,-24.8412,-4.504324676401084,-9.503904958387478,52.191998642928226,23.02990147744896
-0.1667,0.9731,-0.0722,-0.0826,0.1898,0.1404,-14.595,-3.8238,-24.9988,-4.263038720912599,-9.677630361414868,53.77859825667479,23.042229714186213
-0.1697,0.9728,-0.073,-0.0826,0.1898,0.1404,-14.14,-3.6925,-24.9725,-4.2892712090979765,-9.851062285212798,53.96756320729222,23.054841435956096
-0.1766,0.9778,-0.0698,-0.081,0.1918,0.1403,-14.2537,-3.885,-25.1125,-4.099093643767303,-10.18029810168906,53.94015646842908,23.067125787369946
-0.1739,0.9798,-0.0681,-0.081,0.1918,0.1403,-13.9912,-4.2875,-25.6812,-3.9856363206475467,-10.052418712130253,53.975923302963345,23.079333693381738
-0.1707,0.9864,-0.0615,-0.0789,0.1913,0.141,-13.65,-4.8562,-26.2413,-3.601635607309898,-9.819754632707708,54.45129107477866,23.09146692356097
-0.175,0.9936,-0.0714,-0.0801,0.1915,0.1436,-14.77,-4.8738,-26.635,-4.0723097293716055,-9.952468168227249,54.868318058495696,23.1037325175382
-0.1668,0.997,-0.065,-0.0801,0.1915,0.1436,-15.995,-3.9288,-27.1775,-3.7535152548952078,-9.513561597250481,55.00437461731907,23.1160281941968
-0.1647,0.9948,-0.0678,-0.0787,0.1954,0.1474,-17.4387,-3.4125,-27.8425,-3.889892288503379,-9.388889355194642,55.89756451989681,23.128270783770642
-0.1697,0.9906,-0.0627,-0.0787,0.1954,0.1474,-17.92,-3.0188,-28.7,-3.6378879956720187,-9.68087900721303,55.717892082083154,23.14057106130992
-0.183,0.9874,-0.0553,-0.0758,0.1966,0.1534,-18.5587,-2.8438,-29.4525,-3.2306626623773216,-10.432289187048458,56.337516032033705,23.153003702647204
-0.1931,0.9564,-0.0339,-0.0746,0.1999,0.1519,-19.355,-2.9838,-29.9512,-2.096704213719677,-11.34719694751504,55.1946065126925,23.165131978031855
-0.2165,0.9437,-0.028,-0.0746,0.1999,0.1519,-18.9962,-3.1325,-30.9487,-1.7220016065845687,-12.823808533910395,53.88805922204112,23.177376691089083
-0.2267,0.9385,-0.02,-0.0754,0.2009,0.1522,-18.2437,-2.8175,-30.0125,-1.2504881596811,-13.530430342057342,52.84308988592228,23.189703158256847
-0.2319,0.9402,-0.0128,-0.0704,0.2026,0.1568,-15.5662,-3.7625,-29.5225,-0.8130784395533163,-13.833548038254852,53.7214241930891,23.201963797439504
-0.2334,0.9495,-0.0296,-0.0704,0.2026,0.1568,-13.2212,-4.55,-28.7962,-1.7036615777960058,-13.80580685566156,54.539064620582764,23.21425522713132
-0.2257,0.9664,-0.0156,-0.069,0.2056,0.157,-12.39,-4.6725,-28.2362,-0.9953538530849518,-13.18997237316645,54.703909380058064,23.22647799752685
-0.2198,0.9712,-0.0182,-0.069,0.2056,0.157,-12.2937,-4.3925,-27.2038,-1.066432634760675,-12.782998805016351,55.07576407363533,23.238778275066128
-0.216,0.9731,-0.0181,-0.0685,0.205,0.1555,-12.4337,-4.4713,-26.9062,-1.0656738803541626,-12.533665336069351,55.192157321610686,23.25108244565829
-0.2177,0.9769,-0.0194,-0.069,0.2102,0.1605,-12.5037,-3.8413,-27.125,-1.1312175574090735,-12.558535593864026,55.60655649980348,23.26336255010536
-0.2127,0.979,-0.0252,-0.069,0.2102,0.1605,-13.1075,-3.64,-26.775,-1.4453042582733575,-12.277357499171515,56.074975882723955,23.27558744398428
-0.2106,0.9804,-0.0218,-0.0653,0.2105,0.1619,-13.7637,-3.43,-27.0637,-1.287623089543442,-12.132441436190888,57.01072439605547,23.28795815038934
-0.2118,0.9846,-0.0233,-0.0646,0.2119,0.163,-16.45,-2.5375,-27.3787,-1.3511162409167088,-12.136438034807204,57.42052415916913,23.30017844338758
-0.2133,0.9877,-0.0186,-0.0646,0.2119,0.163,-17.3775,-1.8375,-27.3175,-1.0958323434504889,-12.180602625979892,57.3252696045018,23.312454300867866
-0.2127,0.9814,-0.0224,-0.061,0.2132,0.1665,-18.3312,-1.6013,-27.4137,-1.295056937081567,-12.222252617380859,58.37845719977955,23.32475847146003
-0.213,0.9758,-0.0123,-0.061,0.2132,0.1665,-19.5562,-1.6013,-28.3237,-0.753642435420738,-12.30633298618973,58.297877741531565,23.337003538431155
-0.2172,0.9632,-0.0065,-0.0612,0.215,0.1642,-19.7925,-0.875,-28.6562,-0.4065442407555405,-12.680209622057369,57.556319180997285,23.349288597672803
-0.2289,0.954,0.0022,-0.0586,0.2178,0.171,-19.18,-0.4638,-29.295,0.10191798598662455,-13.439734060822026,57.63024415467637,23.3615400350941
-0.2483,0.9531,0.0102,-0.0586,0.2178,0.171,-19.5037,-0.5338,-29.4263,0.5849911302983626,-14.526691082583179,56.84635094376231,23.373845975255755
-0.2473,0.9517,0.018,-0.0578,0.2209,0.1737,-19.1537,-0.3675,-27.6325,1.0555346469842872,-14.561029419771039,56.61691977168719,23.38595053840921
-0.2496,0.9506,0.0176,-0.0578,0.2209,0.1737,-17.8237,-0.4288,-24.7625,1.0603756902417614,-14.696082581156876,56.462660107080005,23.39510169008043
-0.2483,0.9493,0.0191,-0.054,0.2237,0.171,-17.465,-0.4987,-24.6575,1.1469154732336482,-14.658916636221358,56.559213824117215,23.407418955486833
-0.2455,0.9482,0.0211,-0.0536,0.224,0.1757,-16.3187,-0.2625,-24.85,1.2662334106873954,-14.525665570839028,57.08301286294043,23.419634293690493
-0.248,0.9586,0.0215,-0.0536,0.224,0.1757,-16.6513,-0.35,-24.0625,1.2836290530866645,-14.50386760927624,57.300692461995745,23.431773894319893
-0.2453,0.9657,0.0212,-0.0521,0.2262,0.1757,-15.6712,-0.0438,-24.0012,1.2594281531933338,-14.274206916253602,57.62953040486412,23.444053998766964
-0.2439,0.964,0.0229,-0.0521,0.2262,0.1836,-15.4437,-0.0438,-23.7388,1.3536225183214796,-14.202563748117143,58.39564427701866,23.456245270825534
-0.2453,0.954,0.0339,-0.0502,0.2266,0.1836,-15.6975,-0.2713,-23.8875,1.9876283087331954,-14.390474068392125,58.586391926274864,23.468554042298372
-0.2671,0.9482,0.0486,-0.0502,0.2294,0.1825,-15.8638,-0.49,-24.2637,2.8689174663595067,-15.585607446794466,57.26797436921061,23.480802648408485
-0.2715,0.9516,0.0514,-0.0502,0.2294,0.1825,-15.9075,-0.07,-24.3512,3.0764776418704582,-15.871813650505857,56.66509887473741,23.492996397864342
-0.2751,0.9503,0.0517,-0.0498,0.2317,0.1839,-13.8425,-0.91,-24.7712,3.1110355893073334,-16.09953218049878,56.292677787008486,23.50525455964971
-0.2818,0.9506,0.0515,-0.0494,0.2314,0.1846,-12.7837,-1.1725,-23.31,3.101916302387546,-16.448120916190238,56.10302205760791,23.51749644139575
-0.2799,0.954,0.0549,-0.0494,0.2314,0.1846,-11.69,-1.6625,-22.785,3.2750427596830565,-16.33958746166327,56.028780699751685,23.52977831541231
-0.2657,0.9539,0.0504,-0.0492,0.2309,0.1854,-10.5525,-2.0738,-22.295,3.051680572022373,-15.63818538004704,56.864260705765524,23.541917562127814
-0.2633,0.958,0.0462,-0.0492,0.2309,0.1854,-10.325,-2.2925,-21.63,2.7933646922180655,-15.387807442571503,57.36351757819634,23.55419165003861
-0.2573,0.9618,0.0525,-0.049,0.2326,0.1817,-10.1062,-1.6013,-21.035,3.086595636017152,-15.015829060605634,57.05217402668344,23.566437424837535
-0.2564,0.9661,0.047,-0.047,0.2341,0.1873,-10.7362,-1.4437,-20.9562,2.8173067029481063,-14.870474295000218,58.10282070914519,23.578687800517137
-0.2576,0.9752,0.0433,-0.047,0.2341,0.1873,-11.06,-1.3212,-21.6212,2.570645626987665,-14.794104322147716,58.56771948287772,23.59090066132351
-0.2506,0.9728,0.0442,-0.0472,0.2367,0.1898,-11.9087,-1.2512,-22.2862,2.5985721691865566,-14.474399885467642,58.98956781854613,23.603141481327857
-0.2483,0.9707,0.0445,-0.0472,0.2367,0.1898,-12.425,-0.7088,-23.0737,2.622417846715679,-14.349093895554098,59.14994547603851,23.615384778729492
-0.2453,0.9678,0.0497,-0.0438,0.2369,0.1913,-12.3287,-0.0088,-23.17,2.9108577417589974,-14.22026504849184,59.664754004162795,23.627545614192798
-0.2527,0.9674,0.0485,-0.0454,0.2385,0.1914,-13.5537,1.19,-24.0713,2.8734262169480917,-14.582595547847589,59.6573704430113,23.63685815060169
-0.2576,0.9544,0.0494,-0.0454,0.2385,0.1914,-14.525,2.1263,-24.8587,2.9562022552917657,-15.03973374849623,59.23566915047221,23.64887281962495
-0.2564,0.9539,0.0578,-0.0447,0.2408,0.1968,-14.56,1.4962,-24.9725,3.428800253325377,-15.020597767037046,59.22134724335195,23.66107966389505
-0.2565,0.9517,0.0537,-0.0447,0.2408,0.1968,-14.7087,1.8025,-25.1912,3.2444272303936184,-15.057394315634644,59.25871517403408,23.67334808918347
-0.2639,0.9562,0.0586,-0.0446,0.2418,0.1975,-14.6037,2.38,-25.5675,3.4871369311166194,-15.3720230175015,59.02687603815441,23.68575489480617
-0.2728,0.9585,0.0601,-0.0411,0.2462,0.1962,-14.5075,2.6338,-25.6462,3.5802152583467746,-15.816261213079638,58.7883615858625,23.69791502244168
-0.277,0.9497,0.0686,-0.0411,0.2462,0.1962,-14.8137,2.7913,-26.3463,4.090546618003813,-16.188080740413195,58.19092862654089,23.710053207415488
-0.2783,0.9466,0.0701,-0.0374,0.2458,0.1992,-16.1087,2.6863,-25.9437,4.225473837393379,-16.328329160739713,58.59849105627295,23.72220838025642
-0.2804,0.9431,0.0777,-0.0374,0.2458,0.1992,-15.6887,2.8788,-26.3638,4.676061315533491,-16.491130680135125,58.418442977984974,23.734384434017354
-0.2838,0.9425,0.0816,-0.0386,0.2463,0.2006,-15.1462,2.555,-25.97,4.928502513103217,-16.681687565817207,58.066730071249815,23.746501738071153
-0.2912,0.9426,0.0863,-0.0399,0.2488,0.1996,-15.12,3.1588,-25.76,5.209169364754217,-17.065176856489558,57.062215884155435,23.755928588669235
-0.3004,0.9454,0.0894,-0.0399,0.2488,0.1996,-14.5425,3.1325,-25.725,5.387389231461872,-17.512982060478954,56.33671575400833,23.768113136363734
-0.3028,0.943,0.0888,-0.0378,0.252,0.2074,-14.84,2.8087,-25.9875,5.380121417098869,-17.710738129481843,56.80283765887867,23.780285650985686
-0.3054,0.9434,0.0947,-0.0378,0.252,0.187,-13.4137,2.2488,-25.3838,5.7030532473219075,-17.841543904683018,55.17563919603925,23.792408263747962
-0.3068,0.9402,0.0891,-0.0348,0.2538,0.2018,-12.8537,1.7762,-24.885,5.438747193072412,-17.982744222847995,55.66098720694821,23.804560251363807
-0.3076,0.9412,0.0997,-0.0342,0.2549,0.2026,-12.4075,1.925,-24.6312,5.9917339114935375,-18.002107255789067,55.83197369059334,23.81674161383322
-0.3033,0.9356,0.0971,-0.0342,0.2549,0.2026,-11.585,1.8112,-23.9837,5.931658280547739,-17.884527110382415,56.01382852514034,23.82892156064704
-0.3093,0.9428,0.1018,-0.0321,0.2576,0.2043,-11.13,1.8112,-23.8437,6.1390839244504685,-18.046723103971324,56.1454526924114,23.84107673348797
-0.3118,0.9396,0.1031,-0.0321,0.2576,0.2057,-10.5437,1.8112,-24.15,6.248519172911659,-18.23554604652561,56.19511108350954,23.853206424528214
-0.313,0.9384,0.1067,-0.032,0.2575,0.2057,-10.4562,2.4413,-23.8087,6.460732655212883,-18.325707098258633,56.095203670489894,23.86540512877865
-0.3173,0.9421,0.1086,-0.0304,0.2577,0.2042,-10.2025,2.135,-22.8113,6.562724614764206,-18.48009576285907,55.98896802716001,23.877581890367384
-0.3296,0.9396,0.1079,-0.0304,0.2577,0.2042,-9.6425,2.1263,-22.0937,6.552350487758689,-19.124430715142203,55.60501111434064,23.88688451718712
-0.3299,0.9362,0.1094,-0.03,0.2618,0.2052,-9.2137,1.5837,-22.0587,6.650756041724546,-19.26990471838767,55.401208633520746,23.899005714293803
-0.3317,0.9379,0.1107,-0.03,0.2618,0.2093,-8.5225,0.8575,-20.685,6.720206580073119,-19.340445599147497,55.37977055950551,23.911148854062187
-0.3297,0.9357,0.117,-0.0297,0.2614,0.2093,-8.1812,0.1837,-19.7225,7.0676933915774525,-19.283107540606927,55.242867877710324,23.923234305865133
-0.3329,0.933,0.11,-0.0302,0.2607,0.2065,-7.2537,0.1488,-19.3463,6.782283352293407,-19.470295826681102,55.02819410571024,23.93534523946876
-0.3299,0.938,0.1166,-0.0302,0.2607,0.2065,-6.125,-0.5075,-19.3288,7.022340388777853,-19.281972834426067,54.8438014577735,23.947551021997164
-0.3301,0.9406,0.1136,-0.0279,0.263,0.2024,-5.7663,-0.5513,-19.4862,6.917242686803346,-19.221990381876083,54.710077151551644,23.95964673730316
-0.3323,0.9478,0.1102,-0.0279,0.263,0.2024,-5.495,-0.5862,-19.3375,6.700774032254404,-19.20477594707358,54.831632486684136,23.971897466896664
-0.3278,0.9427,0.1147,-0.0283,0.262,0.2088,-4.9612,-0.2888,-18.6725,6.871729123068444,-19.07697641937143,55.347532068033175,23.983947173395865
-0.3216,0.9416,0.1179,-0.0268,0.2633,0.2082,-5.4688,-0.3938,-18.27,7.072604974801969,-18.80182350677735,55.71295099682677,23.99345754767397
-0.3253,0.9317,0.1137,-0.0268,0.2633,0.2082,-5.5913,-0.21,-18.1825,6.9847773730556275,-19.042871369140393,55.71230246212636,24.00565094321593
-0.3245,0.9312,0.1156,-0.0291,0.264,0.2084,-5.3463,-0.0613,-18.095,7.053586097670847,-19.06854220391812,55.37791477212954,24.017240207733302
-0.3214,0.9319,0.1199,-0.0291,0.264,0.2084,-4.6638,0.3413,-18.2087,7.247655068992771,-18.926379080364786,55.22846165831053,24.029408475388472
-0.3163,0.9338,0.1154,-0.0295,0.2654,0.207,-4.585,0.3063,-17.6575,7.107599486530321,-18.671489333837048,55.23380021827347,24.041601163102634
-0.3233,0.9356,0.1094,-0.0278,0.265,0.209,-4.34,0.1488,-16.5987,6.815872708939787,-18.844452055648635,55.58709202965597,24.05378889602222
-0.3208,0.9303,0.118,-0.0278,0.265,0.209,-4.2175,0.3588,-16.9837,7.084858662393471,-18.872436763691052,55.51349416656013,24.065959994988578
-0.3245,0.9273,0.115,-0.0272,0.2642,0.2121,-3.9988,0.455,-16.905,7.075294165559467,-19.06007826713769,55.70091101384958,24.078147020080365
-0.3257,0.9304,0.12,-0.0272,0.2642,0.2121,-3.3338,0.5338,-16.6163,7.211203338140521,-19.115280144527667,55.69223780790384,24.087018933685737
-0.3276,0.9349,0.1124,-0.0263,0.2646,0.2078,-2.8438,0.0438,-17.1675,7.09353590292134,-19.16270595202998,55.681915536597444,24.099162427368018
-0.3247,0.9407,0.1095,-0.0288,0.2647,0.212,-2.7825,-0.6913,-17.08,6.956300508985236,-18.99807575374116,56.02377388223752,24.111377057743884
-0.3215,0.9464,0.1096,-0.0288,0.2647,0.212,-2.87,-1.1375,-17.1675,6.836301310409568,-18.75271026344929,56.36926041405593,24.12360619858958
-0.3233,0.9495,0.1097,-0.0287,0.2655,0.2114,-3.325,-0.7962,-17.6487,6.714872563980602,-18.704896124534628,56.36203238606204,24.135823306362735
-0.3238,0.9457,0.1106,-0.0287,0.2655,0.2114,-4.1125,-1.015,-17.465,6.686535037151492,-18.760592298306175,56.24036388237087,24.148061295055893
-0.3242,0.939,0.1163,-0.0287,0.2662,0.2104,-4.0687,-0.35,-17.2025,6.922933107260414,-18.8680857067075,55.76952413285193,24.160528619955222
-0.3226,0.9345,0.1133,-0.0273,0.2646,0.2108,-3.4388,-0.2625,-16.8787,6.917688674689619,-18.90066764174118,55.96801766346207,24.172700780663277
-0.322,0.9338,0.1147,-0.0273,0.2646,0.2108,-3.36,-0.49,-16.835,6.960393357744882,-18.89608618562411,56.012493860225625,24.184816315147586
-0.3144,0.9387,0.1126,-0.0274,0.2655,0.2144,-3.5088,-0.7962,-16.8525,6.8958182874212035,-18.561143669726576,56.74062999812196,24.196979981922077
-0.3168,0.9426,0.1074,-0.0274,0.2655,0.2144,-3.4388,-0.0613,-16.0475,6.689566913449813,-18.509043315284796,57.08239919063185,24.20602354376818
-0.3137,0.9433,0.1096,-0.0269,0.267,0.215,-3.7538,-0.07,-16.1087,6.6532298329866135,-18.38119379623694,57.305511090303895,24.21821410799895
-0.3106,0.9453,0.1098,-0.0271,0.2664,0.213,-4.1912,0.7088,-16.835,6.635206729899261,-18.17774316070417,57.349111416024435,24.23038520696531
-0.3164,0.9448,0.1125,-0.0271,0.2664,0.213,-4.795,1.2512,-17.325,6.745359021375641,-18.331776764289668,57.333119056519145,24.24256833900421
-0.3131,0.9435,0.1154,-0.0274,0.268,0.2121,-5.8713,1.47,-17.4913,6.922848258325319,-18.25907341564014,57.18446518838388,24.254736606659385
-0.3154,0.9443,0.12,-0.0274,0.268,0.2121,-5.8013,1.4262,-17.8675,7.170490785662012,-18.313925746512737,57.01725710192308,24.26685249505759
-0.3204,0.9408,0.119,-0.0259,0.2672,0.2095,-5.8013,1.96,-18.1212,7.200311954712126,-18.585625803018978,56.55903297988153,24.279000589620555
-0.3231,0.9359,0.1185,-0.027,0.267,0.2125,-6.1163,1.9512,-17.9112,7.212842433799276,-18.827283120382276,56.279062691457256,24.291183013831663
-0.3265,0.9292,0.1286,-0.027,0.267,0.2125,-6.3438,2.9575,-17.8062,7.746103325150877,-19.099181233495393,55.42958484186933,24.30022905307505
-0.3267,0.9246,0.1303,-0.027,0.2635,0.2134,-6.1425,2.4325,-17.4825,7.964146196131584,-19.233325957141435,55.281295125147736,24.31232476838105
-0.3286,0.9257,0.1288,-0.027,0.2635,0.2134,-5.2413,2.3187,-17.6662,7.932206477407239,-19.33501726671547,55.223767960518586,24.324506130850462
-0.3295,0.9285,0.1359,-0.0271,0.2693,0.2098,-5.0575,2.3975,-17.64,8.220517682844301,-19.344447958635588,54.38754283773633,24.33669032463106
-0.3332,0.9312,0.1311,-0.0254,0.2694,0.2135,-4.3663,2.1875,-17.0362,8.082303720220795,-19.458445525750754,54.555116896984025,24.348858592286234
-0.3342,0.9334,0.1325,-0.0254,0.2694,0.2135,-4.095,0.9538,-17.465,8.080452984685833,-19.502284882288034,54.574484694474194,24.360933072758325
-0.3346,0.9294,0.1326,-0.025,0.2681,0.2125,-3.395,0.5775,-18.025,8.100537930240446,-19.58916710594289,54.57248561837817,24.37313885528673
-0.3362,0.9267,0.1355,-0.025,0.2681,0.2125,-2.7475,0.455,-18.2,8.162671982247053,-19.710692673459153,54.42419199127673,24.38219763543046
-0.3405,0.9282,0.1351,-0.0247,0.2678,0.213,-2.765,-0.0438,-17.7012,8.197498701817068,-19.889152623167227,54.30996041558419,24.3943952779392
-0.3416,0.9273,0.136,-0.0253,0.2675,0.2137,-2.3888,-0.2625,-17.01,8.203051620495692,-19.982710744183674,54.17623057628775,24.40657274735573
-0.3421,0.921,0.1419,-0.0253,0.2675,0.2137,-2.0388,-1.4787,-16.87,8.334724215102444,-20.100621605484342,53.694114976557714,24.418742784580395
-0.3425,0.9244,0.1314,-0.025,0.2691,0.2138,-1.2775,-1.5137,-16.3712,8.208215539810686,-20.126963971895886,54.02693447837529,24.430944320142018
-0.3366,0.9254,0.133,-0.025,0.2691,0.2138,-0.4288,-1.9075,-15.6363,8.18876522870992,-19.98268419495232,54.317081689212884,24.443209914119254
-0.3317,0.9278,0.1318,-0.0298,0.2704,0.2198,0.4025,-1.8987,-15.47,8.11276016086673,-19.793657745456926,54.51331625488593,24.455326156431358
-0.3339,0.934,0.1209,-0.0276,0.2669,0.213,0.7263,-1.75,-15.6712,7.5564267359953465,-19.67032371693606,54.929141580500946,24.467457617041095
-0.3301,0.9362,0.1208,-0.0276,0.2669,0.213,1.2337,-2.0738,-15.2775,7.3969019768441155,-19.550573997685586,55.246367526612424,24.47963260906034
-0.3243,0.9346,0.1157,-0.0261,0.2685,0.2144,1.4262,-2.1963,-15.4175,7.128254474375945,-19.35051863639119,56.0418444293081,24.48867581699254
-0.3201,0.9374,0.1168,-0.0261,0.2685,0.2144,0.84,-2.2575,-15.2687,7.108607406705762,-19.162236790401238,56.41637603831935,24.500816479363635
-0.3182,0.9384,0.1073,-0.0259,0.2678,0.2174,0.8663,-1.6013,-15.3825,6.661970277476551,-18.971767965868313,57.35308729845194,24.512990763555077
-0.3165,0.9424,0.1047,-0.0274,0.2671,0.2142,0.3938,-1.7587,-15.6275,6.425668396119045,-18.746250801154886,57.3478396345289,24.525113730231254
-0.3171,0.9476,0.1078,-0.0274,0.2671,0.2142,0.35,-1.7762,-15.4,6.47270339689649,-18.61942647318084,57.29188168786116,24.537289076164395
-0.3146,0.9434,0.1062,-0.0291,0.2686,0.214,-0.9975,-1.8463,-15.0587,6.444039284074865,-18.56895387905344,56.98472558020668,24.549542283155183
-0.3176,0.9404,0.1038,-0.0291,0.2686,0.214,-1.8375,-1.505,-14.8225,6.3948458504548595,-18.568693408060437,56.831662220371996,24.561705596015777
-0.3187,0.9415,0.1103,-0.0281,0.2674,0.2129,-1.085,-0.7263,-15.1637,6.555149391354073,-18.572114172231974,56.64212922676485,24.573851921009247
-0.3177,0.9442,0.1054,-0.0286,0.2644,0.211,-1.715,-0.665,-14.7175,6.48309335876272,-18.562898391411263,56.76640830349911,24.58606513572952
-0.3131,0.9419,0.1022,-0.0286,0.2644,0.211,-2.1263,-0.2013,-14.4637,6.430124259657113,-18.48703023541266,57.02390445409591,24.59516426205767
-0.3125,0.9427,0.1071,-0.0275,0.2659,0.2146,-2.3275,0.28,-14.735,6.431222172530775,-18.46190143488084,57.29275239891053,24.60731731141521
-0.3134,0.9446,0.1114,-0.0275,0.2659,0.2146,-2.6688,0.8925,-14.8487,6.502604058438242,-18.46077225399004,57.305514742278426,24.619411611065612
-0.3132,0.9425,0.109,-0.0298,0.267,0.2164,-3.6138,1.1375,-14.5338,6.55528259728683,-18.415275023640213,57.29153366836493,24.631619517077407
-0.315,0.9396,0.1085,-0.0292,0.2666,0.2116,-3.7713,2.345,-14.2537,6.573925898384031,-18.416884993853298,56.850921802559924,24.643788138646478
-0.318,0.9337,0.1196,-0.0292,0.2666,0.2116,-3.9025,2.1088,-13.9387,7.015264063877611,-18.535234679947457,56.21841947629786,24.656006308161324
-0.3293,0.937,0.1186,-0.029,0.2673,0.2145,-3.395,1.7237,-15.1287,7.116751924237819,-18.687474171197486,55.94732851276981,24.668132460062587
-0.3265,0.9417,0.1178,-0.029,0.2673,0.2145,-3.5875,1.6625,-14.7175,7.124223717203665,-18.720788521670492,55.88302037417872,24.68018429004518
-0.3266,0.9422,0.1221,-0.0297,0.2665,0.2189,-3.5875,2.0475,-14.8312,7.267839830992883,-18.723866493200376,55.95343138906206,24.689284124201127
-0.3267,0.944,0.116,-0.0297,0.2665,0.2132,-3.5088,2.3013,-14.1837,7.1269624368626685,-18.816727483022753,55.78818776019766,24.701453453597995
-0.3315,0.9475,0.1168,-0.029,0.2664,0.2132,-4.025,2.4763,-14.21,7.0646717353809505,-18.945620222796286,55.669172427866904,24.713588807260614
-0.326,0.9414,0.1215,-0.0283,0.2665,0.2138,-3.3863,2.905,-13.7637,7.212022952641871,-18.950352324449582,55.67024178325304,24.725711066108992
-0.3193,0.9324,0.1261,-0.0283,0.2665,0.2138,-4.165,2.8525,-13.1687,7.5280393429758865,-18.82187086172229,55.59061280200248,24.737901276425866
-0.3217,0.9297,0.1258,-0.0294,0.2667,0.2181,-3.7538,2.9663,-13.2212,7.632005635949567,-18.886835384219975,55.662622707855355,24.7500553875251
-0.3248,0.9343,0.1299,-0.0294,0.2667,0.2181,-3.3688,3.22,-13.0987,7.7750462255049095,-18.958780997309063,55.50298822558657,24.762312133654877
-0.3201,0.9307,0.1315,-0.0294,0.2661,0.2129,-2.5988,3.0275,-13.0113,7.828385125032516,-18.860192790078198,55.06006446202192,24.771681650201412
-0.3165,0.9287,0.1263,-0.0321,0.266,0.213,-2.1,3.3513,-13.1512,7.811648767213873,-18.73393544287183,54.83438062905115,24.783766748090457
-0.3175,0.9274,0.1321,-0.0321,0.266,0.213,-1.365,3.57,-13.1687,7.958031203004295,-18.727250064412548,54.45861158151692,24.796327506258965
-0.3135,0.9223,0.1353,-0.0334,0.265,0.2128,-1.2512,3.5,-12.5738,8.160916237994693,-18.63085505967462,54.130829575164796,24.808013035356705
-0.3139,0.9252,0.1311,-0.0334,0.265,0.2128,-0.5862,3.675,-13.16,8.099756243693632,-18.591640626353236,54.24575970549399,24.820092824537276
-0.3159,0.932,0.1255,-0.0302,0.2638,0.2142,0.49,3.3075,-13.3787,7.781290060578343,-18.577625919738537,55.20277503901553,24.8320703326012
-0.3109,0.9343,0.1277,-0.0306,0.2642,0.2125,0.2713,3.5875,-13.0288,7.782493841953841,-18.364612465903843,55.42401674891472,24.84415047569567
-0.3068,0.9359,0.1146,-0.0306,0.2642,0.2125,2.0213,3.1763,-13.6588,7.130283878544629,-18.17988752537982,56.155439472701,24.853368163179788
-0.3098,0.9423,0.1105,-0.0303,0.2648,0.2126,1.2687,2.9925,-13.265,6.784021169194971,-18.120907294661514,56.549616553365105,24.865426363612553
-0.3103,0.9457,0.1119,-0.0303,0.2648,0.2126,1.12,2.7213,-13.7637,6.756175739428487,-18.08298449625505,56.670530893671376,24.87750898410431
-0.3125,0.944,0.1108,-0.0306,0.2644,0.214,1.3912,2.4413,-13.9212,6.7073853587171905,-18.13908022740625,56.746252065820165,24.889550550583852
-0.3131,0.9431,0.1075,-0.0301,0.262,0.2123,0.9013,2.4588,-14.6475,6.550960264950934,-18.15814903830177,56.89359428249135,24.901650158942733
-0.311,0.9407,0.1075,-0.0301,0.262,0.2123,0.525,2.135,-14.4812,6.527461779446438,-18.16493287556145,56.97778959998577,24.913704112408716
-0.3113,0.9362,0.1022,-0.0299,0.2623,0.2098,0.035,1.4437,-14.3238,6.3178999131658555,-18.208168945695437,56.964397877475385,24.922928170343006
-0.3129,0.9415,0.1082,-0.0299,0.2623,0.2098,0.28,1.61,-14.6737,6.490280591935954,-18.2173853223008,56.865684014334484,24.93494425502186
-0.3201,0.9428,0.1078,-0.0287,0.2612,0.205,0.3413,0.98,-15.435,6.514051914977668,-18.374584800563955,56.69466663029142,24.947032538135993
-0.3169,0.9443,0.099,-0.0287,0.2612,0.205,0.4987,1.0412,-14.9713,6.122487854371047,-18.38392692389688,56.68894109036959,24.959124714303005
-0.3151,0.9447,0.1035,-0.0304,0.2632,0.2077,-0.0963,0.3588,-14.9713,6.212400741658859,-18.37935224209711,56.53722751355334,24.97127882540224
-0.3092,0.9442,0.1039,-0.0322,0.2616,0.2104,-0.2538,0.3237,-14.7962,6.257875651333552,-18.36354676856946,56.65066781555368,24.983295617908894
-0.3188,0.945,0.1051,-0.0322,0.2616,0.2104,-1.3212,0.0,-15.26,6.302640072589337,-18.414136468093123,56.41059778028498,24.99259152036456
-0.3172,0.9436,0.1002,-0.0316,0.2622,0.2099,-1.0237,-0.21,-15.1725,6.165172064184222,-18.431363481445576,56.484825620494185,25.004772882833972
-0.3175,0.9452,0.1046,-0.0316,0.2622,0.2099,-2.0213,-0.8225,-15.435,6.202155589915012,-18.442969711305924,56.3737232270439,25.017025735910863
-0.3127,0.9414,0.1046,-0.0313,0.262,0.2082,-2.1263,-1.1287,-15.3125,6.227325358613948,-18.38768715865824,56.34465086611506,25.029112603369402
-0.31,0.9431,0.1002,-0.0322,0.261,0.21,-1.89,-1.225,-15.3212,6.176127571177831,-18.294926793462093,56.7414628158444,25.041003756442116
-0.3068,0.9412,0.1056,-0.0322,0.261,0.21,-1.6975,-1.1375,-15.4263,6.265120495302662,-18.167545841521342,56.741986724045404,25.053231127718323
-0.3074,0.9355,0.1074,-0.0298,0.2615,0.2109,-1.785,-0.8487,-15.8725,6.367586141410362,-18.122782346992665,56.95814271602127,25.065401872770785
-0.3072,0.936,0.1105,-0.0298,0.2615,0.2109,-1.1025,0.0263,-15.7937,6.570319238360939,-18.08875873437125,56.935815826523275,25.07762499708021
-0.3054,0.9376,0.1048,-0.0337,0.2613,0.2129,0.07,-0.2888,-15.6887,6.43406729904871,-18.019368412235444,56.87284154761754,25.089777692523853
-0.3032,0.9395,0.106,-0.0326,0.2625,0.2091,-0.6038,0.14,-15.1637,6.436077672426019,-17.961463318347825,56.702309184612325,25.098604659064122
-0.2963,0.9436,0.1028,-0.0326,0.2625,0.2091,-0.8663,0.5163,-15.2075,6.305551685242352,-17.794720254624877,56.907406250447686,25.110802301572864
-0.2977,0.9442,0.1051,-0.0326,0.2615,0.2094,-0.5862,1.4175,-14.7175,6.334879597464191,-17.750368223579272,56.94716118845039,25.123002067564993
-0.3011,0.9438,0.1017,-0.0326,0.2615,0.2094,-0.6563,2.3712,-14.7,6.218794069270047,-17.73131398284246,57.04095207044139,25.135185907431698
-0.3016,0.9403,0.1048,-0.031,0.2605,0.209,-1.645,2.4938,-15.1462,6.276976292406924,-17.71962197406262,57.139080513842956,25.14735346725907
-0.3041,0.9381,0.1011,-0.0314,0.2606,0.2106,-1.47,2.6075,-15.3825,6.218072830055919,-17.77021591847028,57.25999948172234,25.159560665443067
-0.3093,0.9407,0.1026,-0.0314,0.2606,0.2106,-0.875,3.8763,-14.8662,6.221911846808009,-17.77749687203766,57.10043002730845,25.171740966170784
-0.3057,0.9434,0.0933,-0.0341,0.2605,0.2093,-0.7525,3.6663,-15.0675,5.869037097347709,-17.794933085912362,57.072190035980896,25.183921620812402
-0.3035,0.9447,0.0967,-0.0341,0.2605,0.2093,-0.315,3.9988,-15.5137,5.852567358934854,-17.766343369867712,57.03988328677007,25.192734784710638
-0.3007,0.9395,0.0968,-0.0324,0.2603,0.2052,-1.0587,4.1825,-15.2512,5.869504804925176,-17.735654008954498,56.9126106225423,25.204954723794977
-0.2985,0.9407,0.1038,-0.031,0.262,0.2134,-1.1725,4.1038,-15.6363,6.1004705900769505,-17.633847831127124,57.6622019516369,25.21754521073095
-0.3028,0.9418,0.0971,-0.031,0.262,0.2134,-0.84,4.235,-15.855,5.971724087609049,-17.684782091996116,57.96145132104759,25.229717371439005
-0.3079,0.9457,0.1017,-0.0322,0.2601,0.2083,-1.2687,3.745,-16.1788,6.058064392887933,-17.82922781186817,57.15863577572839,25.2417911440833
-0.31,0.9469,0.0933,-0.0322,0.2601,0.2083,-1.96,3.815,-16.7213,5.9373593215241405,-17.970630397409792,57.193017862388984,25.253919773381853
-0.3112,0.9448,0.0928,-0.0308,0.2626,0.2087,-2.205,3.6575,-16.66,5.8960395885258166,-18.085906580426062,57.24247643742853,25.266031414813277
-0.3116,0.9469,0.0998,-0.0297,0.261,0.2079,-2.2138,3.64,-16.2225,5.910422473289572,-18.106399346010935,57.19287992472789,25.27537226433404
-0.318,0.9492,0.1033,-0.0297,0.261,0.2079,-2.415,3.5875,-16.1262,5.928949779026299,-18.282870813139564,56.83647459151673,25.28753947024752
-0.3179,0.9428,0.0961,-0.0295,0.2595,0.2068,-3.2638,3.045,-16.2225,5.87694696286866,-18.434214240064854,56.90957969758144,25.299605810699948
-0.3257,0.9413,0.1009,-0.0295,0.2595,0.2068,-2.345,2.7125,-16.0125,5.877981523270403,-18.731188384527847,56.50086362910244,25.31169161641679
-0.321,0.9396,0.1018,-0.0301,0.2612,0.2067,-2.6688,2.2662,-15.4088,5.951965987756618,-18.741557954781552,56.29578699680026,25.323810690040084
-0.3143,0.9347,0.1019,-0.0301,0.2612,0.2026,-2.065,1.1462,-15.7937,6.011688582075018,-18.615882057264812,56.26355687710757,25.335931887146767
-0.3121,0.9348,0.1014,-0.0286,0.2606,0.2026,-1.5312,0.8138,-15.015,6.092287070071488,-18.578758673345813,56.27030662909928,25.347988318010042
-0.3102,0.9391,0.1064,-0.0302,0.2601,0.2073,-1.855,0.3588,-15.7062,6.2152617160043855,-18.389777992879477,56.41608804230259,25.35737729982099
-0.3015,0.9466,0.0917,-0.0302,0.2601,0.2073,-1.4875,0.525,-16.4062,5.899521124749001,-17.902029487011834,57.07796318704226,25.369499912583265
-0.3025,0.9488,0.0942,-0.0302,0.2598,0.2075,-0.2275,0.5338,-16.7562,5.743476556253314,-17.705246795032462,57.43332154348798,25.381630311451307
-0.305,0.949,0.098,-0.0302,0.2598,0.2075,-0.7175,0.4987,-17.0187,5.837947902838078,-17.72124713356773,57.51221700506628,25.39362268389897
-0.3065,0.9472,0.0999,-0.0311,0.2598,0.2072,-1.4875,0.8838,-16.835,5.922521155178223,-17.799102182808483,57.425770234297424,25.40571309049649
-0.3146,0.9458,0.0973,-0.0311,0.2606,0.2069,-1.5662,0.8225,-16.6513,5.901075533463164,-18.12703983648371,57.22729671799728,25.417858707662166
-0.3163,0.9472,0.0939,-0.0311,0.2606,0.2069,-1.4,0.9013,-16.5112,5.78439260350126,-18.286288268452026,57.13599961308624,25.430008217880722
-0.3184,0.9404,0.0925,-0.0297,0.2608,0.2065,-1.2512,1.26,-16.0212,5.697138401361445,-18.46751058444288,57.12310636070173,25.442100040133834
-0.3201,0.9425,0.0947,-0.0297,0.2608,0.2065,-2.1263,1.3737,-15.19,5.704530298850841,-18.51998787968408,57.06407608780393,25.451308525856597
-0.3256,0.9465,0.0919,-0.0304,0.2607,0.2025,-1.82,1.0062,-15.4787,5.6495664362757605,-18.667932534946267,56.87659256945589,25.463457682161252
-0.3188,0.9481,0.0922,-0.0295,0.2602,0.2075,-1.0675,0.84,-15.505,5.596097962928544,-18.60266897579139,56.983504931719494,25.475577463612343
-0.3095,0.9412,0.0908,-0.0295,0.2602,0.2075,-1.715,0.1138,-15.54,5.562844428572535,-18.406215605535873,57.354805899343766,25.48772874340039
-0.3059,0.9396,0.0957,-0.0317,0.2607,0.2067,-1.82,0.21,-15.2075,5.650334386381326,-18.28358380434888,57.16166015499979,25.499795437766718
-0.3036,0.9366,0.0972,-0.0317,0.2607,0.2067,-1.8463,0.6212,-15.3475,5.742230442054446,-18.14513073016247,57.08082809182281,25.511951318435447
-0.3016,0.9329,0.1006,-0.0314,0.2606,0.2078,-2.0213,0.8575,-15.1287,5.844119392272673,-18.07277535597954,57.06134349903435,25.524050926794324
-0.3028,0.9338,0.0994,-0.032,0.2582,0.2058,-1.26,1.3562,-14.84,5.965052361557631,-18.07204270506586,57.03076993621568,25.533317808310322
-0.3015,0.9358,0.1009,-0.032,0.2582,0.2058,-1.26,1.4612,-14.4637,6.063554776644958,-17.98659230270362,56.9965198182588,25.545479705515323
-0.3116,0.9489,0.0953,-0.0303,0.2598,0.2063,-0.6825,1.6013,-13.9912,5.858266210180449,-18.03606771256353,57.05795904619058,25.55747066230739
-0.3144,0.9547,0.0865,-0.0303,0.2598,0.2063,-1.2163,1.8025,-13.6588,5.4964526055546825,-18.102289606754802,57.28340793728028,25.569696617928003
-0.317,0.952,0.0876,-0.032,0.2598,0.2009,-1.61,1.4787,-13.2212,5.3948286209595135,-18.252208895079615,57.072747874543296,25.581848959457748
-0.3083,0.9518,0.0902,-0.0314,0.2609,0.2036,-1.47,0.7962,-14.455,5.4036244454826985,-18.14603135942739,57.061421136190546,25.59398325137867
-0.3049,0.9486,0.0898,-0.0314,0.2609,0.2036,-2.3975,0.6038,-15.3562,5.403818099939423,-18.009857053647067,57.10231195438838,25.606060209248053
-0.3036,0.9445,0.0911,-0.0309,0.259,0.2062,-2.6075,0.455,-15.0937,5.42546735254233,-17.95634525018255,57.360085454424286,25.618098944416406
-0.3047,0.9461,0.0946,-0.0309,0.259,0.2062,-2.0475,-0.07,-15.4787,5.491430706486771,-17.883436730343668,57.43364722963722,25.627507745405666
-0.303,0.9403,0.0958,-0.0325,0.2591,0.203,-2.38,-0.0613,-15.7587,5.501137094412068,-17.831485680119712,56.958019615724865,25.639665749557786
-0.306,0.9413,0.0944,-0.0302,0.2583,0.2076,-2.3275,-0.0088,-15.575,5.505954047401348,-17.870695877088995,57.375846423273615,25.651856667702454
-0.3056,0.9457,0.0958,-0.0302,0.2583,0.2076,-2.205,-0.3237,-15.6625,5.5410637789119885,-17.849077131846155,57.61372646896859,25.6639860048288
-0.303,0.9531,0.0941,-0.0334,0.2577,0.2055,-2.7388,-0.2275,-15.575,5.568394727371338,-17.72523540306179,57.3947136032548,25.676162766417534
-0.3036,0.9472,0.0881,-0.0334,0.2577,0.2055,-2.6863,-0.4288,-15.9337,5.504235279283158,-17.712221596515157,57.3946507631168,25.688368548945938
-0.3021,0.9443,0.0942,-0.0326,0.2595,0.2068,-2.8612,-0.7175,-16.1087,5.5694252859272915,-17.682121065652687,57.325177047842104,25.700540355740095
-0.305,0.9442,0.0972,-0.031,0.2602,0.2051,-3.4563,-0.1663,-16.52,5.731321153943806,-17.764470677869173,57.14585893271397,25.712693405097635
-0.3108,0.9406,0.0978,-0.031,0.2602,0.2051,-3.5175,-0.6388,-17.1325,5.8416351080672495,-18.062979615873022,56.775744398766825,25.72490555807621
-0.3059,0.935,0.1017,-0.0323,0.2595,0.207,-2.9575,-1.12,-16.765,5.980060547910928,-18.03272848947585,56.61458511654885,25.737075595300873
-0.3043,0.9318,0.0991,-0.0323,0.2595,0.207,-3.0188,-0.5513,-15.9775,6.0164384035383245,-18.010411578979358,56.66920842289519,25.749203516771626
-0.3076,0.9348,0.0969,-0.033,0.2593,0.2088,-1.7325,-0.6038,-15.8463,5.978907548541766,-18.066931778509666,56.771122978178205,25.758499773141192
-0.3021,0.9381,0.0943,-0.0311,0.2586,0.2106,-1.26,-0.5688,-15.5137,5.854463982698646,-17.9463747522947,57.58911323546486,25.77068467474959
-0.3004,0.9453,0.0952,-0.0311,0.2586,0.2106,-1.68,-0.6737,-15.6012,5.812899182154376,-17.773841152069977,58.028017054591324,25.782880193774936
-0.3045,0.9453,0.0953,-0.0338,0.2575,0.2081,-2.0913,0.1488,-15.4175,5.801393346703952,-17.772591989405537,57.60610536201957,25.794998559570434
-0.3044,0.945,0.0979,-0.0338,0.2575,0.2081,-2.0825,0.7,-15.1725,5.825240743411313,-17.77084772304769,57.42474249436014,25.807146654133394
-0.3048,0.9446,0.1013,-0.033,0.261,0.2114,-2.1525,0.8575,-15.575,5.873887815078221,-17.77815364578862,57.3625319091129,25.8191956528048
-0.304,0.9431,0.0921,-0.0318,0.2604,0.2067,-2.4938,1.015,-15.7325,5.836484442179486,-17.782327635410375,57.360963133785646,25.831406744041683
-0.304,0.9445,0.0948,-0.0318,0.2604,0.2067,-2.2838,1.6625,-16.2138,5.830037231137577,-17.76819923658732,57.32336869171899,25.84351803155921
-0.3109,0.9456,0.0942,-0.033,0.26,0.206,-1.855,1.0762,-16.1612,5.783381568340851,-17.96613495790517,57.23830275547811,25.852761200844014
-0.3193,0.9465,0.0979,-0.033,0.26,0.206,-2.1613,1.68,-15.8812,5.802677862676742,-18.26323544852741,56.83282190006187,25.864829664779833
-0.3198,0.9429,0.0984,-0.0302,0.2584,0.2076,-2.1525,1.2862,-15.8638,5.828179608628278,-18.45401299121087,56.829118454695404,25.876971034978727
-0.3219,0.9408,0.0954,-0.0302,0.2577,0.2081,-2.31,1.1638,-15.4175,5.826742351744068,-18.579830618495563,56.832661526163086,25.889092939913205
-0.3109,0.9381,0.1005,-0.0317,0.2577,0.2081,-1.3912,1.1025,-15.1462,5.967717275972986,-18.500560084310997,56.83381100860221,25.90125837625719
-0.3101,0.9396,0.0975,-0.0324,0.2602,0.208,-1.085,1.0237,-15.2425,5.943441433804042,-18.40731601913521,56.81484213099484,25.91340010036998
-0.3079,0.9417,0.0999,-0.0324,0.2602,0.208,-1.47,0.7263,-14.7875,5.9959000834375775,-18.38625894708962,56.794462245743325,25.925461839941732
-0.3054,0.9454,0.1041,-0.0324,0.2606,0.2106,-1.4875,0.8575,-14.4812,6.129093746188545,-18.230741418869663,56.86730551321485,25.934721997093657
-0.3129,0.943,0.0989,-0.0324,0.2606,0.2106,-1.3125,0.4025,-14.7962,6.056855583792963,-18.23220590833382,56.87662504614543,25.94681169586338
-0.3154,0.9417,0.0971,-0.035,0.2584,0.2066,-1.4175,0.455,-14.7613,5.974946553727713,-18.24695164528103,56.461187739537614,25.958986687882625
-0.3137,0.9382,0.1025,-0.0335,0.258,0.2062,-0.3413,0.2888,-15.1637,6.148503829979152,-18.280682965003486,56.19861384682151,25.97123635573443
-0.3169,0.9376,0.1028,-0.0335,0.258,0.2062,0.2013,0.56,-14.5775,6.226450490235121,-18.34174670246222,56.006472434592766,25.98315369843563
-0.3162,0.9425,0.1,-0.0333,0.2586,0.2078,-0.2625,0.3063,-13.8512,6.111536108970032,-18.395486052915622,56.114938086225685,25.99529152949554
-0.3162,0.9463,0.0989,-0.0333,0.2586,0.2078,-0.4638,-0.2538,-13.5012,6.0167334568586055,-18.388543485722934,56.2748636576403,26.00749058765987
-0.3064,0.9487,0.0996,-0.0329,0.2579,0.2108,-0.455,-0.2888,-12.8887,6.001387579382413,-18.0039169745729,56.99792147285999,26.019636204825545
-0.307,0.9477,0.0936,-0.0356,0.2576,0.2075,-0.5688,-0.0613,-12.8625,5.770323752730097,-17.913562258963047,56.85778311305789,26.02920816012197
-0.3027,0.9464,0.0976,-0.0356,0.2576,0.2075,-0.7962,0.0263,-12.81,5.841886702148509,-17.73607081749008,56.79145029887234,26.041055427871285
-0.3024,0.9512,0.0961,-0.0341,0.2591,0.2068,-1.365,-0.315,-13.0025,5.805748095806041,-17.61702914179118,56.941733975403416,26.0528135093182
-0.3046,0.9529,0.092,-0.0341,0.2591,0.2068,-1.8112,-0.4725,-13.0025,5.703912900013108,-17.63828983164589,57.08887697284201,26.0650203535883
-0.2972,0.9493,0.0942,-0.0359,0.2559,0.2058,-1.7937,0.0525,-13.0288,5.690716934773064,-17.42278593051582,57.10410993815917,26.077197823004827
-0.2969,0.9436,0.1,-0.0371,0.2539,0.2073,-1.7762,0.3413,-13.6237,5.82141262162956,-17.396295555582327,56.96903095495506,26.089396173341363
-0.3028,0.937,0.0964,-0.0371,0.2539,0.2073,-1.4612,0.1575,-13.7025,5.846153387699788,-17.622453282999576,56.74917699340927,26.101598416730784
-0.3088,0.9399,0.0996,-0.0347,0.2549,0.2067,0.0263,-0.0613,-13.51,5.9888980278718575,-17.891398729413186,56.58489551789075,26.11378721139206
-0.3096,0.9411,0.0971,-0.0347,0.2549,0.2067,0.21,-0.1575,-13.405,5.918339324143232,-18.026342983308318,56.579352487156285,26.12256427607266
-0.3034,0.941,0.0988,-0.0363,0.254,0.2109,0.9887,0.385,-13.86,5.976398463026457,-17.90368312819725,56.82547588688937,26.13473502112512
-0.3052,0.944,0.1003,-0.0379,0.2548,0.2072,1.4962,0.4025,-13.1337,6.046653145876188,-17.852371399303287,56.50460000616014,26.146911428799957
-0.3113,0.9423,0.0994,-0.0379,0.2548,0.2072,1.9687,-0.1925,-13.2825,6.026364804485306,-18.05657076580335,56.09187758474851,26.159115087844967
-0.3144,0.947,0.0927,-0.0369,0.2535,0.2057,1.2512,-0.5775,-12.39,5.68544748225306,-18.218438181747555,56.166676762287594,26.171262120666235
-0.3171,0.9454,0.0931,-0.0369,0.2535,0.2057,0.9713,-0.1312,-11.6812,5.638355170986425,-18.401172903131094,56.07855870862552,26.183486306717356
-0.3151,0.9399,0.0997,-0.0378,0.2522,0.2132,1.4525,-0.455,-10.9375,5.968242636618495,-18.429902478327413,56.39951374533124,26.195950092477702
-0.3129,0.9357,0.0964,-0.0379,0.2504,0.2049,1.8463,-1.3125,-10.3075,5.898692098235164,-18.40479484902425,55.94932386379497,26.205192553934708
-0.3057,0.9369,0.1019,-0.0379,0.2504,0.2049,2.4675,-1.7325,-9.7388,6.1542108948733505,-18.04273687055387,55.8941143908318,26.21726915789019
-0.2896,0.9377,0.0974,-0.0387,0.2497,0.2072,3.1937,-2.0388,-9.4062,5.964363678588857,-17.22645502824456,56.88924832815144,26.229258699026666
-0.2916,0.9439,0.0949,-0.0387,0.2497,0.2072,4.0513,-1.68,-9.31,5.771391590228264,-17.10788107588202,57.23389314719815,26.24128823243366
-0.2876,0.9514,0.0924,-0.0434,0.2504,0.2082,3.815,-2.0563,-9.1612,5.578467756959469,-16.799528936223176,57.002561359718904,26.253409429540344
-0.2863,0.9543,0.0868,-0.0434,0.2504,0.2082,3.6663,-1.8112,-8.5662,5.251490448970785,-16.657557750228474,57.255827644606,26.265426222046994
-0.2766,0.962,0.0886,-0.0441,0.2487,0.205,3.3688,-1.5225,-8.1725,5.26050761733442,-16.06586548575386,57.39831894048365,26.27471150708571
-0.2699,0.9614,0.0864,-0.0424,0.2463,0.2037,2.2925,-1.1025,-8.435,5.157505735070906,-15.681479974957703,58.00946014709143,26.28676192141271
-0.2703,0.9651,0.0785,-0.0424,0.2463,0.2037,2.625,-0.7437,-8.8812,4.735054997341864,-15.609320942117272,58.469058118157186,26.298822599242765
-0.2699,0.9617,0.0804,-0.0427,0.2461,0.2037,1.855,-0.4375,-9.905,4.770496317869065,-15.622261452762746,58.50008013691955,26.310870536172477
-0.2693,0.9615,0.0862,-0.0427,0.2461,0.2037,1.19,-0.2362,-10.9287,5.045314261131583,-15.594340300100937,58.3617262578715,26.322991379365263
-0.2696,0.9564,0.0831,-0.0454,0.2441,0.2072,0.1925,0.1138,-11.0513,4.9882954201072875,-15.667237000251431,58.344694320261766,26.33499366140208
-0.2711,0.9567,0.0791,-0.0461,0.2441,0.2042,0.5688,0.2187,-12.2325,4.79329243326126,-15.741552960519448,58.12209936438771,26.34434902139268
-0.2747,0.9495,0.0858,-0.0461,0.2441,0.2042,0.49,0.3675,-12.565,5.0670114557305235,-15.972327606410335,57.72198182360506,26.356418193156294
-0.2788,0.9476,0.0877,-0.0475,0.2434,0.2029,1.1287,0.9625,-12.39,5.238369671840121,-16.22553824579779,57.475207197259024,26.36843463174905
-0.2791,0.9466,0.0843,-0.0475,0.2434,0.2029,0.875,1.2337,-11.9437,5.124422803061678,-16.330419973929345,57.45507239863866,26.380451070341802
-0.2758,0.9451,0.0884,-0.0469,0.2442,0.1992,1.505,1.4437,-11.7862,5.29846305901991,-16.23317394817773,57.195639818522416,26.392519888191522
-0.2718,0.948,0.0853,-0.0469,0.2424,0.2006,2.4325,1.505,-11.8825,5.168701929067554,-16.01174741217847,57.11582279621106,26.404523231970032
-0.2682,0.9492,0.0815,-0.0463,0.2424,0.2006,2.1263,1.6975,-11.6287,4.955187656365658,-15.79140060380999,57.20105303134628,26.41382585878977
-0.2758,0.9518,0.0786,-0.0466,0.2419,0.2018,3.0188,2.0388,-11.3137,4.757602424437002,-16.037999149009472,57.252783087456905,26.426004743861895
-0.2755,0.95,0.0784,-0.0466,0.2419,0.2018,3.78,1.4962,-10.6487,4.723313140272457,-16.104391490043746,57.26472990892867,26.437961371005816
-0.2768,0.9489,0.0729,-0.0494,0.2415,0.2025,3.6925,1.4262,-10.8762,4.440048545816425,-16.194351396910147,57.22121856239038,26.45004894629215
-0.2761,0.949,0.0766,-0.0494,0.2415,0.2025,3.7975,1.6625,-10.36,4.590273295347176,-16.17597621498819,57.11332449902678,26.462089804943894
-0.2697,0.9511,0.0767,-0.0502,0.2389,0.2025,4.27,1.4787,-9.9488,4.607891189829865,-15.849565641781277,57.14112864349452,26.47138393783007
-0.2686,0.9545,0.0676,-0.0485,0.2401,0.1982,5.4338,1.61,-9.2312,4.114459475113244,-15.70519577098564,57.23985834992861,26.483333132782125
-0.2692,0.9602,0.0651,-0.0485,0.2401,0.1982,4.5938,0.8138,-9.1875,3.908315618829678,-15.638886208682983,57.36365201562862,26.495426370690833
-0.2704,0.9673,0.0651,-0.0489,0.2374,0.1975,4.865,0.7875,-9.5637,3.857311762721807,-15.593009849216495,57.47658994428252,26.50731716984965
-0.2759,0.9702,0.0616,-0.0489,0.2374,0.1975,4.1213,0.4987,-8.9512,3.6629832500055746,-15.80766630771734,57.564763212817944,26.519318036230874
-0.28,0.9693,0.0624,-0.0528,0.2354,0.1952,2.94,-0.1663,-8.9075,3.680162645823355,-16.04139213803229,56.90278781051785,26.52862455610349
-0.2754,0.9653,0.0678,-0.0528,0.2354,0.1952,3.2375,-0.3237,-8.3562,3.966454532797528,-15.907003068846931,56.54576034414157,26.540657274735572
-0.2761,0.9576,0.0663,-0.0523,0.2358,0.1995,3.6488,-0.77,-8.2075,3.9614251579401047,-16.02880700509483,56.7851080720749,26.55269707164562
-0.2756,0.9567,0.0637,-0.0542,0.2334,0.1962,3.115,-1.5312,-8.05,3.8328372366826806,-16.035614701193747,56.460696618142826,26.56447143313186
-0.2623,0.9551,0.0663,-0.0542,0.2334,0.1962,2.975,-1.4437,-7.8838,3.9490867418218127,-15.411177969044317,56.72606992529174,26.576654565170767
-0.2646,0.9505,0.0619,-0.0564,0.2336,0.1965,3.2462,-2.1875,-7.91,3.7598639087178234,-15.510507475900024,56.48092298632673,26.585402608911693
-0.2632,0.9504,0.0681,-0.0564,0.2336,0.1965,3.4913,-2.3363,-7.5862,4.048970067475188,-15.4499741634368,56.2429166605831,26.59778357881981
-0.259,0.9506,0.0642,-0.0566,0.2311,0.1967,3.6575,-2.8788,-7.63,3.890122074222698,-15.237287863110232,56.629013362419485,26.609913623773952
-0.2571,0.9482,0.0673,-0.0599,0.2298,0.1951,4.4625,-2.8,-7.21,4.038123435191618,-15.146317559607661,55.95230043461298,26.622047561780978
-0.2503,0.9496,0.0646,-0.0599,0.2298,0.1951,6.3963,-2.8438,-8.4787,3.906776615491001,-14.78986392558809,56.19663272627758,26.63418716241038
-0.2385,0.9442,0.0595,-0.0582,0.2282,0.1945,7.1663,-2.905,-7.84,3.6344225431242436,-14.229200616772426,57.14042489031187,26.64627332204112
-0.2307,0.9404,0.063,-0.0582,0.2282,0.1945,7.9888,-2.6863,-7.4812,3.815190452314416,-13.81082756492341,57.455448344764456,26.65529246382823
-0.2369,0.9347,0.0634,-0.0624,0.2287,0.1954,9.1875,-1.5487,-6.475,3.87518573092154,-14.150300587549962,56.610582984028355,26.66739702698169
-0.2433,0.9321,0.0684,-0.0624,0.225,0.1912,9.765,-0.77,-5.5738,4.172456436907384,-14.54860894274961,55.76816037357644,26.679510791896504
-0.2475,0.9279,0.0641,-0.0643,0.225,0.1912,11.69,0.035,-4.5062,3.9664304966186563,-14.86987121694366,55.288930691607845,26.691609692427587
-0.2435,0.9344,0.0595,-0.0636,0.2231,0.1888,13.615,0.7175,-1.3737,3.66255192775578,-14.598061001257312,55.29535693554856,26.7037464617458
-0.2389,0.9384,0.0514,-0.0636,0.2231,0.1888,17.0975,2.205,-1.1638,3.1609827722992896,-14.285425248201152,55.631335488645995,26.71585244055485
-0.2369,0.9392,0.0416,-0.0642,0.219,0.1886,18.5937,2.3538,-0.8487,2.5646206569489443,-14.152913064889331,56.15938048122533,26.724874413653147
-0.2421,0.942,0.0381,-0.0642,0.219,0.1886,20.1163,2.3625,-0.3763,2.3267048906261905,-14.38603896087202,56.385401706206544,26.73698924030966
-0.2464,0.9415,0.0371,-0.0681,0.2154,0.1853,21.315,2.6775,0.385,2.2594273987000077,-14.63849105805168,55.759584250052114,26.74902195894174
-0.2389,0.9456,0.0352,-0.074,0.2138,0.1818,22.2512,1.9425,0.9975,2.1368367319943493,-14.197165183671716,55.06230906526079,26.761096439413834
-0.2258,0.9523,0.0228,-0.074,0.2138,0.1818,22.8375,1.4525,1.6712,1.4007409932910795,-13.384590446024813,55.10862531044863,26.77320100256729
-0.2014,0.9753,0.006,-0.0738,0.2116,0.1792,23.0912,1.7587,1.5312,0.3921226697617089,-11.766227820245142,55.79796560829945,26.782144760694038
-0.1956,0.9842,-0.0043,-0.0738,0.2116,0.1792,22.995,2.3625,-0.0963,-0.22593882347666897,-11.273791730128016,56.86410768411803,26.794313736177006
-0.1949,0.9939,-0.0156,-0.0769,0.2093,0.1723,22.855,2.3975,-1.54,-0.8735322872504145,-11.105983840479666,56.78921384847688,26.80643988807827
-0.197,1.0028,-0.0213,-0.0769,0.2061,0.1742,21.245,1.365,-2.8963,-1.2028519629481285,-11.111328145670202,56.86280336782924,26.818616649667003
-0.1909,0.9991,-0.0204,-0.0786,0.2061,0.1742,19.8275,1.4437,-4.1825,-1.1711536088348518,-10.840442154154905,56.916036139974416,26.830791287772346
-0.1962,0.9548,-0.016,-0.0789,0.2017,0.1689,19.88,1.6625,-4.9263,-0.969128730766461,-11.539850233305625,56.55132163341067,26.842926287521067
-0.1902,0.9565,-0.0185,-0.0789,0.2017,0.1689,19.5387,1.505,-6.2125,-1.1019703432533634,-11.27517662241908,56.449692438533795,26.85503863678029
-0.1855,0.9569,-0.0243,-0.0792,0.2006,0.1657,19.74,1.225,-6.7288,-1.439409089502508,-11.001303244923294,56.44315146203058,26.86411298913555
-0.179,0.9652,-0.0334,-0.0792,0.2006,0.1657,20.3175,1.0937,-6.72,-1.9589639495085156,-10.555133379262335,56.469182487286005,26.8762642689236
-0.17,0.9731,-0.0434,-0.0825,0.1992,0.171,19.81,1.5575,-6.9738,-2.5280046107023173,-9.973761182915704,56.75327549342084,26.88841484088385
-0.1626,0.9861,-0.0563,-0.0828,0.1964,0.1626,18.6812,2.8525,-7.1925,-3.2341001107561467,-9.420692065249108,57.00011659948595,26.900569305896983
-0.161,0.9862,-0.0578,-0.0828,0.1964,0.1626,17.3512,3.99,-7.21,-3.3483981460696843,-9.275341237248158,57.19613314872963,26.912738635293852
-0.1671,0.9772,-0.0539,-0.0853,0.196,0.1589,16.8787,5.0838,-8.0237,-3.166555393427692,-9.636281955280587,56.015289971297825,26.924892746393088
-0.1818,0.9694,-0.0565,-0.0853,0.196,0.1589,16.73,5.8713,-7.98,-3.3272034934782666,-10.481120992232213,55.34925517577626,26.93709003498793
-0.1886,0.9695,-0.0564,-0.0855,0.1939,0.152,17.0975,6.0462,-7.3238,-3.329283418465141,-10.930550898440226,54.09370497997413,26.9465625404789
-0.1873,0.9705,-0.0597,-0.0858,0.1888,0.1524,17.4125,6.2825,-6.4837,-3.510905549850693,-10.906201912843574,54.17129376267871,26.958218340809175
-0.176,0.968,-0.0714,-0.0858,0.1888,0.1524,16.6513,6.195,-5.7488,-4.183136837215294,-10.339801000111258,54.886694172116975,26.9703745753918
-0.1809,0.9733,-0.0733,-0.0887,0.1899,0.1502,16.5112,6.825,-5.1712,-4.300631097509266,-10.484921032984435,54.03949734908689,26.982565139622572
-0.1826,0.9725,-0.075,-0.0887,0.1899,0.1502,16.2838,7.5862,-4.8125,-4.40439949724033,-10.592723439281968,53.90925928905966,26.994739423814018
-0.184,0.9769,-0.082,-0.0915,0.1906,0.1406,15.7412,6.9563,-3.7275,-4.777479286359345,-10.627124047785685,52.11308204293408,27.006898843621727
-0.1827,0.9776,-0.0927,-0.0912,0.1853,0.1456,15.9337,6.8425,-3.08,-5.383666064344423,-10.546337044994782,53.15785526960592,27.019018625072817
-0.1801,0.9796,-0.095,-0.0912,0.1853,0.1456,15.68,6.4225,-2.7825,-5.530959510711506,-10.38344469052495,53.462285796001396,27.031138406523908
-0.1611,0.9909,-0.1016,-0.0954,0.1839,0.1414,15.6712,6.72,-2.1613,-5.8372558618698065,-9.274430373369583,52.887258653871264,27.040182676197805
-0.1613,0.9927,-0.1073,-0.0954,0.1839,0.1414,14.9537,6.055,-1.785,-6.1509654112237415,-9.183539958206815,52.964424924197296,27.05233643338314
-0.1569,0.9948,-0.1046,-0.0961,0.1813,0.1426,11.7512,5.7488,-2.5288,-6.012247810514094,-8.934723260263143,53.10277053792333,27.064503639296618
-0.1497,0.9954,-0.1075,-0.0978,0.1802,0.1397,11.0162,5.2413,-3.0975,-6.15331574458892,-8.537792040184845,52.69700877228865,27.076683940024335
-0.153,0.9961,-0.1109,-0.0978,0.1802,0.1397,10.0362,4.7775,-3.3425,-6.337913466221584,-8.66818963121562,52.62545334922177,27.088837697209673
-0.1415,0.9889,-0.1071,-0.0985,0.1773,0.1361,9.1175,4.3663,-4.305,-6.19373774567815,-8.145926167089293,52.21178635796855,27.100978005666867
-0.1349,0.9806,-0.1088,-0.0985,0.1773,0.1361,8.12,3.6312,-4.3225,-6.319227027290238,-7.817023138761417,52.31177450083432,27.109964233461426
-0.1401,0.9769,-0.1077,-0.0997,0.1788,0.1342,7.9187,3.6663,-4.1825,-6.293745562582932,-8.087443299997862,51.73196792307439,27.122035528708434
-0.1413,0.9695,-0.1038,-0.1202,0.1758,0.1328,7.9187,4.235,-4.2088,-6.127328778253066,-8.232125213426544,47.960690590378015,27.134188578065974
-0.1413,0.9671,-0.1028,-0.1032,0.1758,0.1328,8.0325,4.0338,-4.55,-6.072843462631105,-8.263520944951281,49.65804925454771,27.146236514995685
-0.1393,0.9733,-0.1133,-0.1043,0.174,0.1302,8.715,3.2813,-4.2,-6.592813298692104,-8.105845459647368,49.87827923658715,27.158389210439328
-0.1262,0.9805,-0.1172,-0.1043,0.174,0.1302,8.0762,3.4125,-3.8763,-6.796715303443185,-7.35169080523077,50.33596811753583,27.170500851870752
-0.1168,0.9758,-0.1191,-0.1065,0.1722,0.1316,7.63,3.0188,-4.2438,-6.943985467704105,-6.825472425505108,50.56363519453102,27.179576973795506
-0.118,0.9678,-0.1204,-0.1065,0.1722,0.1316,8.2512,2.555,-5.1712,-7.0787805053511095,-6.891994298826891,50.640056561811775,27.191631989003188
-0.1236,0.96,-0.1095,-0.1103,0.1724,0.1263,9.2137,2.4237,-5.5475,-6.552676027505115,-7.251089160531892,49.34309451580422,27.20380839667802
-0.1291,0.9548,-0.1055,-0.1116,0.1711,0.126,9.4412,2.87,-4.7163,-6.324624198355347,-7.618087038729199,48.26907447722834,27.215847839674172
-0.1274,0.9537,-0.1149,-0.1116,0.1711,0.126,10.2375,3.15,-4.0687,-6.829654481025175,-7.560189286903577,48.103039118286844,27.228013276018157
-0.1085,0.9683,-0.1187,-0.1122,0.1692,0.1222,11.2175,2.7738,-3.3425,-6.9778660368237775,-6.443426259344637,47.947348186696935,27.2401879141235
-0.1088,0.9797,-0.1235,-0.1122,0.1692,0.1222,11.9875,2.9663,-3.2113,-7.171261705335839,-6.299958075856802,47.97850037071636,27.252300617296623
-0.1078,0.9786,-0.13,-0.1137,0.1668,0.1212,11.795,2.6163,-3.9025,-7.540896014622,-6.237595887740592,47.8241631779962,27.261362936579335
-0.1127,0.9744,-0.1296,-0.1171,0.1643,0.1196,11.0425,2.0038,-3.9988,-7.573704968034619,-6.514904418408797,47.2351277655431,27.273501121553142
-0.1133,0.9688,-0.1235,-0.1171,0.1643,0.1196,11.7512,1.7413,-4.6463,-7.28518951085317,-6.608157997591398,46.900940230711754,27.285680714453065
-0.1045,0.9708,-0.1361,-0.1197,0.1643,0.1167,12.25,1.4262,-4.4012,-7.935919725255798,-6.130530040177341,46.7055823657906,27.297851459505527
-0.1016,0.974,-0.1391,-0.1197,0.1643,0.1167,12.8537,1.015,-4.4275,-8.115799802559629,-5.9162836348152155,46.58764322266362,27.309962747023054
-0.0913,0.9797,-0.1455,-0.1217,0.1631,0.1164,12.1363,0.7788,-4.7775,-8.426105582733044,-5.325384933955683,46.40418898352252,27.322151187770434
-0.0875,0.9823,-0.1539,-0.12,0.1614,0.1134,11.9612,0.7088,-4.935,-8.873087955864149,-5.056397769439524,46.293629458052706,27.334309191922554
-0.0883,0.9895,-0.157,-0.12,0.1614,0.1134,11.2262,0.6825,-5.3288,-9.005949462576448,-5.038591701492124,46.23777953500372,27.343349568543566
-0.0837,0.9779,-0.1635,-0.1223,0.1594,0.1116,10.8238,0.6825,-6.1425,-9.457495478750937,-4.847424988462016,46.016713927055605,27.355478551756015
-0.0921,0.9685,-0.1648,-0.1223,0.1594,0.1116,10.1412,0.4025,-7.035,-9.642171868746953,-5.298007525881127,45.75789231410186,27.367637617649827
-0.1017,0.9645,-0.1638,-0.125,0.1564,0.1065,10.1062,0.28,-6.8863,-9.638790102779033,-5.863754741659955,44.6509578626826,27.379809070530083
-0.0975,0.9645,-0.1589,-0.125,0.1564,0.1092,10.5,-0.21,-6.0988,-9.375825946382818,-5.713281730382036,44.26483773099229,27.392081742785287
-0.0869,0.9651,-0.1669,-0.1262,0.1562,0.1092,10.1587,-0.8838,-6.1425,-9.779182370442724,-5.136597206808405,44.271199759365466,27.404197985097394
-0.0756,0.9764,-0.1828,-0.1274,0.156,0.1071,10.4212,-1.3562,-6.5625,-10.544163199878772,-4.436631176675412,44.30988544009524,27.41639350412274
-0.0646,0.9837,-0.1829,-0.1274,0.156,0.1071,9.9312,-1.1112,-7.7788,-10.533626414129547,-3.7861810226348926,44.50346944459362,27.428551154360964
-0.0664,0.9923,-0.1911,-0.1277,0.1563,0.104,9.5113,-1.8375,-8.61,-10.872186586944785,-3.763083515435733,44.1498440912567,27.437636124133174
-0.0664,0.9967,-0.1948,-0.1277,0.1563,0.104,7.8663,-1.4525,-9.38,-11.04213197139669,-3.7442752013521643,44.13348632042712,27.449762276034438
-0.0586,0.9887,-0.1971,-0.131,0.1534,0.103,6.2475,-1.5662,-10.2462,-11.250077427255622,-3.401244240953321,43.62330310822389,27.46232940465312
-0.0586,0.9828,-0.1969,-0.1314,0.1534,0.1038,4.9437,-1.33,-11.025,-11.319474736264777,-3.3574005581793207,43.57051901773913,27.474436445203864
-0.074,0.972,-0.1899,-0.1314,0.1534,0.1038,3.6138,-1.2163,-11.3837,-11.092683319812117,-4.067819438828768,43.16927278794573,27.486558350138345
-0.0807,0.9762,-0.1881,-0.1308,0.1539,0.1019,2.8612,-1.33,-12.005,-10.936414893471982,-4.491511772114879,42.679648424889635,27.49875528481929
-0.0777,0.9742,-0.1942,-0.1308,0.1539,0.1027,2.7475,-1.5137,-12.4512,-11.218407804020432,-4.478103650690914,42.864224449714435,27.510933815977513
-0.0633,0.974,-0.1973,-0.1309,0.1541,0.1027,2.5813,-1.9687,-13.5625,-11.412004875076747,-4.0099813339583275,43.24872951135675,27.522946007603487
-0.057,0.976,-0.2028,-0.1314,0.1522,0.1035,2.1175,-1.855,-13.8075,-11.678596112397978,-3.6347569691660206,43.58160838700554,27.535120291794932
-0.0597,0.973,-0.2023,-0.1314,0.1522,0.1035,1.7237,-1.7237,-15.1287,-11.732104816351784,-3.591055119979346,43.6120210293492,27.54732536649554
-0.07,0.9709,-0.1983,-0.1324,0.1514,0.1049,-0.2625,-0.77,-14.3675,-11.604615924220393,-3.7360773533299505,43.427835203302585,27.559567602155475
-0.0744,0.9619,-0.1985,-0.1344,0.1515,0.099,0.6212,-0.4375,-15.1637,-11.646064699729905,-3.8805409355524727,42.28800017977605,27.56857718826733
-0.0676,0.9575,-0.1928,-0.1344,0.1515,0.099,0.2538,-0.4812,-14.8487,-11.457247103130365,-3.880935731239239,41.857055848498,27.580815884788286
-0.0697,0.9579,-0.1914,-0.134,0.1512,0.1002,1.3737,-0.3675,-14.49,-11.332962546650197,-3.933283672511974,41.84831000726421,27.593014235124823
-0.0685,0.9646,-0.1973,-0.134,0.1512,0.1002,1.61,-0.0875,-14.945,-11.514117430527095,-3.9375687264745025,41.94663631341883,27.605293277830196
-0.0667,0.9716,-0.1948,-0.1343,0.1519,0.1003,1.2425,-0.385,-15.3825,-11.375687540453344,-3.907177659599215,41.943773356627624,27.61740102620874
-0.0681,0.9787,-0.2034,-0.1346,0.1522,0.1075,0.3325,-0.2013,-16.2925,-11.641390117878329,-3.901353091429791,42.926566501556344,27.629615656584605
-0.0619,0.9827,-0.2025,-0.1346,0.1522,0.1075,-0.5075,-0.21,-16.5812,-11.642866941036887,-3.6658441787483995,43.39618163032783,27.641859307900138
-0.0641,0.9824,-0.2044,-0.1339,0.153,0.1006,-1.5837,-0.21,-16.7737,-11.69078889541086,-3.6587717513840063,42.82604527868894,27.654094819196008
-0.0648,0.975,-0.1987,-0.1339,0.153,0.1006,-1.365,0.4462,-17.5,-11.605497705643431,-3.7076192949661175,42.58559713532691,27.66632289830001
-0.0722,0.9664,-0.1978,-0.1358,0.1527,0.1026,-2.52,0.5338,-17.3337,-11.599938918611052,-4.0490567077076,42.41149622459013,27.678492581610776
-0.0763,0.9614,-0.1962,-0.133,0.1529,0.1028,-3.115,1.8463,-17.5175,-11.57151233477577,-4.3382531867389575,42.49758461975305,27.690754282535128
-0.0766,0.9596,-0.188,-0.133,0.1529,0.1028,-2.9138,1.6712,-17.7362,-11.395863877037188,-4.442959896053862,42.46077445911907,27.702827701265527
-0.0684,0.9711,-0.1954,-0.1313,0.1526,0.1013,-3.325,1.8812,-18.0338,-11.386478900239528,-4.067719579830927,42.58347661688819,27.711985577300812
-0.0757,0.978,-0.1918,-0.1313,0.1526,0.1013,-3.115,2.1088,-18.4275,-11.260388536751718,-4.283427473720683,42.519400064603346,27.72410288135461
-0.0781,0.9798,-0.1966,-0.133,0.1543,0.1039,-3.395,2.415,-18.41,-11.3041063663508,-4.428141479606031,42.672746175989,27.736345470928452
-0.0776,0.9744,-0.189,-0.1303,0.1534,0.1007,-3.9638,2.9488,-18.1125,-11.102172947582998,-4.460488551406735,42.51313133962157,27.74853886647041
-0.0833,0.9642,-0.1819,-0.1303,0.1534,0.1007,-4.4363,2.94,-18.2787,-10.819128103680386,-4.764118056985408,42.2491077684067,27.760780394302554
-0.0904,0.9532,-0.1739,-0.131,0.1522,0.1003,-3.3688,2.8438,-17.9112,-10.576860197728804,-5.191014274079328,41.75132051844878,27.772950431527217
-0.0992,0.9583,-0.179,-0.131,0.1522,0.1003,-2.485,2.94,-17.4913,-10.577271466376677,-5.640473130058447,41.51911537326334,27.785104188712552
-0.1006,0.9644,-0.1816,-0.1299,0.1546,0.0995,-2.2488,2.6863,-17.0275,-10.58520378754164,-5.786287022318368,41.51007792552629,27.797325189538586
-0.0942,0.9717,-0.1844,-0.1308,0.1527,0.1003,-1.89,2.1088,-17.1238,-10.635585162770635,-5.546021594382441,41.58980640105834,27.809530264239193
-0.0902,0.9727,-0.1917,-0.1308,0.1527,0.1003,-0.8925,1.3562,-16.065,-10.940017257167558,-5.35497093589367,41.64232743261524,27.821762944223877
-0.0886,0.9676,-0.1879,-0.1321,0.1534,0.1014,-1.1462,1.7062,-16.0825,-10.967090280255947,-5.234013388958481,41.741692567226124,27.830770406852338
-0.088,0.965,-0.1918,-0.1321,0.1534,0.1014,-1.26,1.3825,-16.8175,-11.110111744982165,-5.1524033114283965,41.7929098709681,27.842983975486508
-0.0856,0.9634,-0.1934,-0.1295,0.1547,0.1005,-1.715,1.05,-16.625,-11.203643814162676,-5.041150076408644,41.898754174060635,27.855183741478637
-0.0906,0.9661,-0.1893,-0.1294,0.153,0.1008,-1.1638,0.1488,-16.45,-11.139948491261876,-5.174841050428675,42.12652403475676,27.867388462265346
-0.0847,0.9639,-0.1944,-0.1294,0.153,0.1008,-1.1812,0.2713,-16.1525,-11.281399664187362,-5.03217930532298,42.38201484850222,27.879617249197146
-0.0819,0.9677,-0.1945,-0.1315,0.1547,0.1008,-1.5312,0.4375,-16.1175,-11.318826974411921,-4.870294182126341,42.36014652323889,27.89178445511062
-0.0825,0.9723,-0.1934,-0.1315,0.1547,0.1008,-1.7762,0.805,-15.6887,-11.293700787084761,-4.818493461029647,42.33223887846648,27.904004394194963
