AcclX,AcclY,AcclZ,MagX,MagY,MagZ,GyroX,GyroY,GyroZ,Roll,Pitch,Yaw,Time Elapsed(s)
0.493,0.0741,0.7437,-0.3747,0.474,0.4155,-1.0325,0.3588,-2.4762,0,0,0,0.0
0.4827,0.0965,0.7671,-0.3757,0.4736,0.4126,-1.0325,0.3588,-2.695,0,0,0,0.01600000000325963
0.4827,0.0965,0.7671,-0.3757,0.4736,0.4126,0.0962,0.84,-2.695,0,0,0,0.01600000000325963
0.5014,0.077,0.7529,-0.3744,0.4734,0.4083,-0.6212,0.7262,-2.24,0,0,0,0.031000000002677552
0.471,0.0893,0.761,-0.3744,0.4734,0.4083,-0.2625,1.3563,-2.7125,0,0,0,0.031000000002677552
0.486,0.0963,0.7305,-0.3744,0.4734,0.4083,-0.2625,1.3563,-2.7125,0,0,0,0.04700000000593718
0.4859,0.0744,0.772,-0.3742,0.4722,0.4139,-0.8487,1.295,-2.5113,0,0,0,0.04700000000593718
0.4859,0.0744,0.772,-0.3742,0.4722,0.4139,0.1138,1.015,-2.66,0,0,0,0.06300000000919681
0.4996,0.0925,0.7555,-0.3758,0.4742,0.4175,0.0613,1.505,-2.3363,0,0,0,0.06300000000919681
0.481,0.0752,0.7781,-0.3758,0.4742,0.4175,0.0613,1.505,-2.3363,0,0,0,0.07800000000133878
0.4967,0.0941,0.7424,-0.3758,0.4742,0.4175,-0.2275,0.9363,-2.7387,0,0,0,0.07800000000133878
0.4967,0.0883,0.7646,-0.3751,0.4749,0.4063,0.07,1.5225,-2.1263,0,0,0,0.0940000000045984
0.4726,0.0883,0.7646,-0.3751,0.4749,0.4063,-0.6125,0.6825,-2.1175,0,0,0,0.0940000000045984
0.4921,0.0823,0.7526,-0.3751,0.4734,0.4132,-0.6125,0.6825,-2.1175,0,0,0,0.10900000000401633
0.4805,0.0941,0.7715,-0.3764,0.4734,0.4132,-0.035,0.6212,-2.3275,0,0,0,0.10900000000401633
0.4983,0.084,0.7548,-0.3764,0.4734,0.4132,-0.5075,0.3675,-2.9225,0,0,0,0.12500000000727596
0.4983,0.084,0.7663,-0.3747,0.4742,0.4161,-0.63,0.84,-2.38,0,0,0,0.12500000000727596
0.4846,0.0813,0.7663,-0.3747,0.4742,0.4161,-0.63,0.84,-2.38,0,0,0,0.1410000000105356
0.4984,0.1067,0.7578,-0.3747,0.4742,0.4161,-0.3762,0.6388,-2.0825,0,0,0,0.1410000000105356
0.4762,0.0709,0.7606,-0.3738,0.4726,0.4188,-1.155,1.085,-1.82,0,0,0,0.15600000000267755
0.4906,0.093,0.7415,-0.3738,0.4726,0.4188,-0.0525,1.2862,-2.5113,0,0,0,0.15600000000267755
0.4906,0.093,0.7415,-0.3746,0.4737,0.4031,-0.0525,1.2862,-2.5113,0,0,0,0.17200000000593718
0.4775,0.0945,0.777,-0.3746,0.4737,0.4031,-1.19,1.2163,-2.205,0,0,0,0.17200000000593718
0.5068,0.0704,0.7515,-0.3746,0.4737,0.4031,-1.0938,1.0938,-2.31,0,0,0,0.1870000000053551
0.4713,0.1058,0.7757,-0.3766,0.4747,0.4098,-0.14,1.2075,-2.8525,0,0,0,0.1870000000053551
0.4981,0.0719,0.7485,-0.3766,0.4747,0.4098,-0.14,1.2075,-2.8525,0,0,0,0.20300000000133878
0.4981,0.0719,0.7485,-0.3751,0.4741,0.4175,-0.9275,1.2075,-2.1525,0,0,0,0.20300000000133878
0.4854,0.0858,0.7701,-0.3751,0.4741,0.4175,0.4375,1.2337,-2.5638,0,0,0,0.2190000000045984
0.4902,0.1023,0.744,-0.3751,0.4741,0.4175,0.4375,1.2337,-2.0213,0,0,0,0.2190000000045984
0.4806,0.0618,0.7662,-0.3746,0.4724,0.4106,-0.9975,1.6625,-2.0213,0,0,0,0.23400000000401633
0.4954,0.1126,0.7576,-0.3746,0.4724,0.4106,-0.56,0.8925,-2.5638,0,0,0,0.23400000000401633
0.4954,0.1126,0.7576,-0.3727,0.4735,0.4161,-0.7262,1.155,-2.2138,0,0,0,0.25000000000727596
0.4808,0.0728,0.7587,-0.3727,0.4735,0.4161,-0.7262,1.155,-4.4538,0,0,0,0.25000000000727596
0.4995,0.0819,0.7588,-0.3727,0.4735,0.4161,-0.9013,0.9887,-2.3012,0,0,0,0.2649999999994179
0.4808,0.1069,0.7635,-0.3739,0.4735,0.4107,0.3413,1.61,-3.0625,0,0,0,0.2649999999994179
0.4953,0.0611,0.7472,-0.3739,0.4735,0.4107,-1.5488,0.1663,-2.2838,0,0,0,0.28100000000267755
0.4953,0.0611,0.7472,-0.3752,0.4751,0.4138,-1.5488,0.1663,-2.2838,0,0,0,0.28100000000267755
0.4827,0.108,0.7688,-0.3752,0.4751,0.4138,-0.14,1.6013,-3.255,0,0,0,0.2969999999986612
0.4979,0.081,0.7512,-0.3752,0.4751,0.4138,-1.2513,0.4812,-2.3187,0,0,0,0.2969999999986612
0.4843,0.0731,0.7795,-0.3759,0.4724,0.4103,-0.2713,1.4175,-2.9925,0,0,0,0.3120000000053551
0.492,0.1123,0.7429,-0.3759,0.4724,0.4103,-0.2713,1.4175,-2.9925,0,0,0,0.3120000000053551
0.492,0.1123,0.7429,-0.3736,0.4719,0.4141,-0.3063,0.8225,-2.8525,0,0,0,0.32800000000861473
0.4781,0.0583,0.7673,-0.3736,0.4719,0.4141,-1.1725,0.49,-1.7763,0,0,0,0.32800000000861473
0.4966,0.1035,0.76,-0.3736,0.4719,0.4141,0.175,0.7788,-2.765,0,0,0,0.3430000000007567
0.4845,0.0945,0.7686,-0.3732,0.4726,0.4112,0.175,0.7788,-2.765,0,0,0,0.3430000000007567
0.4951,0.0681,0.7612,-0.3732,0.4726,0.4112,-2.0387,0.2013,-1.9863,0,0,0,0.35900000000401633
0.4951,0.0681,0.7612,-0.375,0.4736,0.4133,0.1488,1.6538,-2.625,0,0,0,0.375
0.4854,0.1091,0.7559,-0.375,0.4736,0.4133,-0.735,0.8925,-2.3363,0,0,0,0.375
0.5008,0.0667,0.7598,-0.375,0.4736,0.4133,-0.735,0.8925,-2.3363,0,0,0,0.3900000000066939
0.4809,0.0948,0.7645,-0.3739,0.4743,0.4106,-1.1725,1.3825,-1.9512,0,0,0,0.3900000000066939
0.4885,0.1009,0.7583,-0.3739,0.4743,0.4106,-0.2975,0.9013,-2.6513,0,0,0,0.4060000000099535
0.4885,0.1009,0.7583,-0.3743,0.4739,0.4124,-1.7237,0.9363,-1.4438,0,0,0,0.4060000000099535
0.4823,0.0607,0.7665,-0.3743,0.4739,0.4124,-1.7237,0.9363,-1.4438,0,0,0,0.4210000000020955
0.4909,0.119,0.7557,-0.3743,0.4739,0.4124,0.5512,1.2775,-2.5725,0,0,0,0.4210000000020955
0.4882,0.0634,0.7597,-0.3742,0.4734,0.4058,-1.6013,0.7,-1.7325,0,0,0,0.4370000000053551
0.4882,0.0875,0.751,-0.3742,0.4734,0.4058,-0.4988,1.0325,-2.2487,0,0,0,0.4370000000053551
0.4887,0.0875,0.751,-0.3745,0.4738,0.4141,-0.4988,1.0325,-2.2487,0,0,0,0.4530000000013388
0.4879,0.1071,0.7595,-0.3745,0.4738,0.4141,-0.91,0.6562,-2.17,0,0,0,0.4530000000013388
0.4818,0.0504,0.7443,-0.3745,0.4738,0.4141,-1.4438,1.4963,-1.9688,0,0,0,0.46800000000803266
0.4782,0.1107,0.7585,-0.3752,0.4739,0.423,-1.4438,1.9338,-2.7562,0,0,0,0.46800000000803266
0.4782,0.0897,0.7748,-0.3752,0.4739,0.423,0.4988,1.9338,-2.7562,0,0,0,0.48400000000401633
0.4976,0.0897,0.7748,-0.3759,0.4736,0.4138,-1.2513,0.8138,-2.1613,0,0,0,0.48400000000401633
0.5,0.0813,0.7799,-0.3759,0.4736,0.4138,-0.77,0.98,-2.6163,0,0,0,0.49900000000343425
0.4748,0.1143,0.7624,-0.3759,0.4736,0.4138,-0.77,0.98,-0.3762,0,0,0,0.49900000000343425
0.4909,0.048,0.736,-0.3759,0.4755,0.4226,-1.5838,1.645,-1.4612,0,0,0,0.5150000000066939
0.4909,0.048,0.762,-0.3759,0.4755,0.4226,-0.7613,1.2163,-2.0475,0,0,0,0.5150000000066939
0.4903,0.1031,0.762,-0.3758,0.4722,0.4133,0.3762,1.1725,-2.6425,0,0,0,0.5310000000026776
0.4862,0.0999,0.7579,-0.3758,0.4722,0.4133,0.3762,1.1725,-2.6425,0,0,0,0.5310000000026776
0.4875,0.0554,0.7512,-0.3758,0.4722,0.4133,-2.2138,0.4812,-1.75,0,0,0,0.5460000000020955
0.4765,0.1185,0.7498,-0.3739,0.4725,0.4138,-0.0613,1.3038,-2.87,0,0,0,0.5460000000020955
0.4765,0.1185,0.7498,-0.3739,0.4725,0.4138,-1.6625,0.455,-1.7587,0,0,0,0.5619999999980791
0.4833,0.0608,0.7565,-0.3754,0.4727,0.4121,-1.6625,0.455,-1.7587,0,0,0,0.5619999999980791
0.4835,0.0946,0.753,-0.3754,0.4727,0.4121,-0.3237,0.805,-2.6775,0,0,0,0.577000000004773
0.4875,0.0957,0.7714,-0.3754,0.4727,0.4121,-0.8838,0.875,-2.7562,0,0,0,0.577000000004773
0.4951,0.057,0.7596,-0.3746,0.4744,0.414,-1.155,1.05,-2.3625,0,0,0,0.5930000000080327
0.4951,0.057,0.7596,-0.3746,0.4744,0.414,-1.155,1.05,-2.3625,0,0,0,0.5930000000080327
0.487,0.1225,0.7628,-0.3752,0.473,0.4123,0.8662,1.7763,-2.7387,0,0,0,0.6090000000040163
0.4868,0.0668,0.7613,-0.3752,0.473,0.4123,-1.9775,0.9275,-1.6013,0,0,0,0.6090000000040163
0.4873,0.0917,0.7699,-0.3752,0.473,0.4123,0.3237,1.435,-2.94,0,0,0,0.6240000000034343
0.4872,0.1019,0.7521,-0.3738,0.4726,0.4218,0.3237,1.435,-2.94,0,0,0,0.6240000000034343
0.4872,0.1019,0.7521,-0.3738,0.4726,0.4218,-1.0063,0.98,-1.9863,0,0,0,0.6399999999994179
0.4867,0.0528,0.7522,-0.3746,0.4731,0.4186,0.3063,1.085,-2.5988,0,0,0,0.6399999999994179
0.4865,0.1224,0.7724,-0.3746,0.4731,0.4186,-0.0175,1.05,-2.9313,0,0,0,0.6550000000061118
0.4876,0.0651,0.7513,-0.3746,0.4731,0.4186,-0.0175,1.05,-2.9313,0,0,0,0.6550000000061118
0.4897,0.0913,0.7557,-0.3759,0.4737,0.4139,-1.155,0.6737,-2.2225,0,0,0,0.6710000000093714
0.4897,0.0913,0.7557,-0.3759,0.4737,0.4139,0.56,1.4,-2.9925,0,0,0,0.6870000000053551
0.4793,0.1002,0.7541,-0.3754,0.4737,0.4134,-1.0588,1.12,-1.6712,0,0,0,0.6870000000053551
0.4907,0.0603,0.7592,-0.3754,0.4737,0.4134,-1.0588,1.12,-1.6712,0,0,0,0.702000000004773
0.4829,0.1197,0.7631,-0.3754,0.4737,0.4134,0.4812,1.0675,-3.0625,0,0,0,0.702000000004773
0.4901,0.062,0.7496,-0.3747,0.4741,0.4173,-0.9363,0.8925,-2.3012,0,0,0,0.7180000000007567
0.4901,0.062,0.7496,-0.3747,0.4741,0.4173,-0.9363,0.8925,-3.0712,0,0,0,0.7180000000007567
0.4907,0.0874,0.7604,-0.3747,0.4726,0.4156,-0.245,0.9538,-3.0712,0,0,0,0.7330000000074506
0.481,0.1051,0.7569,-0.3747,0.4726,0.4156,-0.0088,1.2337,-2.6688,0,0,0,0.7330000000074506
0.4987,0.066,0.7588,-0.3747,0.4726,0.4156,-1.2425,0.49,-1.8637,0,0,0,0.7490000000034343
0.4903,0.1099,0.7585,-0.375,0.4725,0.4174,-1.2425,0.49,-4.1038,0,0,0,0.7490000000034343
0.4903,0.1099,0.7585,-0.375,0.4725,0.4174,0.3063,0.7262,-3.1237,0,0,0,0.7649999999994179
0.4748,0.0645,0.7261,-0.3757,0.4738,0.4143,-1.1725,0.91,-2.1525,0,0,0,0.7649999999994179
0.4991,0.0909,0.7748,-0.3757,0.4738,0.4143,0.455,0.6913,-2.94,0,0,0,0.7800000000061118
0.4788,0.1015,0.7645,-0.3757,0.4738,0.4143,0.455,0.6913,-2.94,0,0,0,0.7800000000061118
0.5004,0.0604,0.7573,-0.3751,0.4738,0.4166,-0.7088,1.0412,-2.1263,0,0,0,0.7960000000020955
0.5004,0.0604,0.7573,-0.3751,0.4738,0.4166,-0.3762,0.8662,-2.485,11.495283921141779,5.574619892182121,0.0,10.379000000000815
0.4783,0.11,0.7615,-0.3752,0.4742,0.4082,-0.0088,1.12,-2.6775,35.626966218838774,12.993009112279056,0.01612800000328571,10.395000000004075
0.487,0.0736,0.7467,-0.3752,0.4742,0.4082,-0.0088,1.12,-2.6775,52.36264064934659,18.633964465794683,0.029635200002370403,10.410000000003492
0.4864,0.0885,0.7565,-0.3752,0.4742,0.4082,-0.9363,0.7437,-2.2925,61.28284232651645,18.745125593704095,0.037380959999445115,10.425999999999476
0.494,0.0989,0.7599,-0.3748,0.474,0.419,0.245,1.0675,-2.5812,70.59485711919208,21.96320492752023,0.04901486400263229,10.442000000002736
0.494,0.0989,0.7599,-0.3748,0.474,0.419,-0.8575,0.8487,-2.0475,73.54151101069945,24.040629733331265,0.05557082760192445,10.457000000002154
0.4837,0.0649,0.761,-0.3748,0.4737,0.4076,-0.8575,0.8487,-2.0475,76.38841066249378,25.631743121421803,0.06223502484422181,10.473000000005413
0.4808,0.1089,0.7515,-0.375,0.4737,0.4076,-0.315,1.085,-2.8087,77.34401147504882,27.939278017489652,0.07065902235923124,10.488000000004831
0.4878,0.0706,0.7681,-0.375,0.4737,0.4076,-1.6625,0.7962,-2.1263,81.2735390360146,28.536076228345447,0.07505840012043011,10.504000000000815
0.4878,0.0863,0.7638,-0.3754,0.4728,0.4122,-0.14,1.1287,-2.3537,81.91522861489524,28.786284269488366,0.08380584011169832,10.520000000004075
0.4903,0.0917,0.7638,-0.3754,0.4728,0.4122,-0.14,1.1287,-2.3537,82.2638516866689,29.027512237203354,0.09066270609993721,10.535000000003492
0.4839,0.092,0.7651,-0.3754,0.4728,0.4161,-0.35,0.9013,-2.275,82.39905795572628,29.056538488583193,0.09457515549258759,10.551000000006752
0.492,0.0703,0.7495,-0.3766,0.4744,0.4161,-1.2163,0.9275,-2.2138,83.3104195200072,29.327822785927644,0.09763888993676934,10.565999999998894
0.4871,0.1116,0.7738,-0.3766,0.4744,0.4161,-0.0962,0.9013,-2.2487,82.85015911606145,29.41747017410688,0.10085372094573651,10.582000000002154
0.4871,0.1116,0.7604,-0.3754,0.4738,0.407,-0.0962,0.9013,-2.2487,82.48626324842039,29.519265572642137,0.10374706885380697,10.598000000005413
0.4916,0.0697,0.7604,-0.3754,0.4738,0.407,-1.5925,0.665,-1.5662,83.65812269407085,30.87960342238178,0.1023498619680779,10.613000000004831
0.4879,0.09,0.7578,-0.3754,0.4738,0.4274,0.2275,1.6363,-2.485,83.47207387069236,31.165747426334335,0.11567759576535538,10.629000000000815
0.4908,0.095,0.7549,-0.3737,0.4731,0.4192,-2.0125,0.8925,-2.1788,83.08722970017656,31.324267807922602,0.1161585861883523,10.644000000000233
0.488,0.0659,0.7559,-0.3737,0.4731,0.4192,-1.5137,0.8925,-2.1788,84.04362199748148,31.46022597944052,0.11739472757213539,10.660000000003492
0.488,0.0659,0.7559,-0.3742,0.4731,0.4147,-0.6475,1.0063,-2.59,84.14472623317414,31.761386886300357,0.120145974817874,10.676000000006752
0.4948,0.1079,0.7568,-0.3742,0.4731,0.4147,-1.0237,0.6212,-2.765,83.39978199949083,32.135289279688244,0.11651757733169332,10.690999999998894
0.484,0.0667,0.7683,-0.3742,0.4731,0.4147,-1.0237,0.6212,-2.5463,83.94012998062992,32.13054961486365,0.1138110996003464,10.707000000002154
0.5014,0.0886,0.7651,-0.376,0.4731,0.4162,-1.3737,0.8138,-2.5463,83.6906930486057,32.32418251385863,0.11341628963988544,10.722000000001572
0.477,0.1016,0.7632,-0.376,0.4731,0.4162,-0.0175,1.0412,-2.695,83.25824293264623,32.16569137790159,0.11706794067895143,10.738000000004831
0.477,0.1016,0.7632,-0.3754,0.4737,0.413,-1.6538,0.21,-1.7675,82.81349616820368,32.03413126021319,0.10838514661167237,10.75400000000809
0.4964,0.0642,0.7578,-0.3754,0.4737,0.413,-1.6538,0.21,-1.7675,84.05296781181067,32.408651285158285,0.10038163194901996,10.769000000000233
0.4872,0.107,0.763,-0.3754,0.4737,0.413,0.5337,1.1812,-2.5287,83.0028386235533,32.38869503513758,0.10735274875758322,10.785000000003492
0.4959,0.0716,0.7541,-0.3751,0.4738,0.4247,-1.015,0.8575,-2.0563,83.515500701527,32.54149169653671,0.10819372388137569,10.80000000000291
0.4814,0.0888,0.7626,-0.3751,0.4738,0.4247,-0.2275,1.0675,-2.4325,83.47880921430855,32.48310666241548,0.1127463514963698,10.81600000000617
0.4814,0.0888,0.7626,-0.3744,0.4734,0.4154,-0.2275,1.0675,-2.4325,83.45067497963876,32.43225061224216,0.1168437163498645,10.83200000000943
0.489,0.1031,0.7622,-0.3744,0.4734,0.4154,-0.1138,0.5425,-2.6862,83.11054667026765,32.43651660050821,0.11248309471104136,10.847000000001572
0.4792,0.0605,0.7578,-0.3744,0.4734,0.4154,-1.1725,0.7875,-1.9688,84.01853185197558,32.38584765542636,0.11257478524224748,10.863000000004831
0.4927,0.1109,0.7552,-0.3751,0.4743,0.4123,-0.2537,1.0325,-2.6862,83.50248238279595,32.51650459734888,0.11525605671748183,10.87800000000425
0.4836,0.071,0.7729,-0.3751,0.4743,0.4123,-0.2537,1.0325,-2.6862,83.77413185714542,32.34722929519257,0.11859845104876267,10.894000000007509
0.4836,0.071,0.7729,-0.3756,0.4728,0.4122,-1.33,0.8225,-1.7325,84.20798862974756,32.19737552816495,0.11858260594091333,10.910000000003492
0.4904,0.0852,0.7457,-0.3756,0.4728,0.4122,-0.5512,1.3038,-2.7475,84.19407198695158,32.502055514785724,0.12432564534613899,10.92500000000291
0.4793,0.1037,0.7707,-0.3756,0.4728,0.4122,-0.9275,0.91,-2.0475,83.66734808563152,32.33835708774318,0.12499708081419472,10.94100000000617
0.4953,0.0636,0.7616,-0.3745,0.4746,0.4115,-0.9275,0.91,-2.0475,84.1094733290643,32.45489115441741,0.12478237273229853,10.956000000005588
0.4828,0.1086,0.761,-0.3745,0.4746,0.4115,-0.0437,0.9187,-2.4325,83.37779670765096,32.41318886094121,0.12553341545574787,10.972000000001572
0.4828,0.1086,0.761,-0.3746,0.4739,0.4171,-0.0787,0.945,-2.3275,82.91033976965657,32.40156405096317,0.12658807391294538,10.988000000004831
0.4943,0.0751,0.7594,-0.3746,0.4739,0.4171,-0.6913,0.98,-1.9338,83.10882824316393,32.53956088206085,0.12715926652113746,11.00300000000425
0.4831,0.0827,0.756,-0.3746,0.4739,0.4171,-0.6913,0.98,-1.9338,83.19807932451572,32.50982072767722,0.1285553398718987,11.019000000007509
0.4938,0.1116,0.7668,-0.3746,0.4743,0.4146,0.56,1.2337,-2.8087,82.4262983283073,32.50911833813901,0.13235475587598383,11.03399999999965
0.4851,0.0584,0.7579,-0.3746,0.4743,0.4146,-1.3212,0.77,-1.505,83.82378401286184,32.52468110868261,0.13020728029064438,11.05000000000291
0.4851,0.0584,0.7579,-0.373,0.473,0.4147,0.385,0.9363,-2.7562,84.67029936198986,32.53108097059943,0.13066927225819552,11.065999999998894
0.4808,0.1085,0.746,-0.373,0.473,0.4147,0.385,0.9363,-2.7562,83.26158488510198,32.53056391466504,0.1302423950380167,11.081000000005588
0.501,0.0736,0.7549,-0.373,0.473,0.4147,-0.8838,0.735,-2.1,83.56626114733471,32.67313143455875,0.12780215553637128,11.097000000008848
0.4713,0.0785,0.754,-0.3757,0.4746,0.4167,-0.4638,0.9363,-2.24,83.59739915044067,32.63892507278707,0.12766198997611242,11.11200000000099
0.486,0.1084,0.7498,-0.3757,0.4746,0.4167,1.7763,0.805,-2.6337,82.3249635459404,32.6496380676668,0.1264877909808628,11.12800000000425
0.486,0.1084,0.7498,-0.3741,0.4742,0.4117,0.6125,0.805,-2.6337,82.03076729892133,32.65757805994377,0.1254310118798667,11.144000000000233
0.4944,0.0495,0.7544,-0.3741,0.4742,0.4117,-0.5075,0.35,-2.1875,82.1301948764333,32.70398599918551,0.11761291069398859,11.159000000006927
0.5062,0.1295,0.7907,-0.3741,0.4742,0.4117,0.9363,1.7675,-3.0975,81.27875360739716,32.515501899253465,0.131303619629775,11.175000000010186
0.4775,0.0841,0.7452,-0.3741,0.4731,0.4126,0.9363,1.7675,-1.9162,82.63630489100062,32.50754872531291,0.14203450765429734,11.190000000002328
0.4706,0.0548,0.7487,-0.3741,0.4731,0.4126,-2.1875,1.0762,-1.9162,84.61737297415672,32.39321600087805,0.14332833689202482,11.206000000005588
0.4706,0.0548,0.7487,-0.3751,0.4726,0.4149,-0.0263,1.1638,-2.765,85.01901565501085,32.29244528331229,0.14575422319861556,11.222000000001572
0.4939,0.1175,0.7644,-0.3751,0.4726,0.4149,0.3413,0.9887,-2.765,83.26753480407812,32.38038814901365,0.1445262508847104,11.237000000008265
0.4834,0.0685,0.767,-0.3751,0.4726,0.4149,0.3413,0.9887,-2.765,84.02677666042442,32.29539091795569,0.14431090579266553,11.25300000000425
0.4985,0.0895,0.7616,-0.3763,0.473,0.423,-1.1113,0.5075,-1.995,83.75920281979847,32.45954886358678,0.1367310652131331,11.268000000003667
0.4985,0.0985,0.7648,-0.3763,0.473,0.423,-0.0525,0.98,-2.7562,83.40350650989002,32.59471830560607,0.1371699586946948,11.284000000006927
0.4763,0.0985,0.7648,-0.3758,0.4732,0.4128,-1.1725,0.8662,-2.0038,83.11358207496316,32.39921270288556,0.13592624282209428,11.30000000000291
0.5101,0.0637,0.7609,-0.3758,0.4732,0.4128,-1.1725,0.8662,-2.0038,83.93412858848033,32.694149912494126,0.1340273185394311,11.315000000002328
0.4637,0.1085,0.7571,-0.3758,0.4732,0.4128,0.3675,1.4088,-2.6688,82.9447786142994,32.28691669918271,0.14091130668039561,11.330999999998312
0.4973,0.0683,0.7435,-0.3744,0.4739,0.4134,-0.665,0.5512,-2.3275,83.1573320886842,32.343827790186744,0.13426137601567675,11.346000000005006
0.4973,0.0839,0.7557,-0.3744,0.4739,0.4134,-0.5337,1.365,-2.1,83.15836622890599,32.47506699144101,0.14049123841811353,11.362000000008265
0.4784,0.0791,0.7557,-0.3744,0.473,0.4139,-0.5337,1.365,-2.1,83.16013135756829,32.431478059033516,0.14609811457136812,11.37800000000425
0.4932,0.1264,0.7719,-0.3744,0.473,0.4139,0.175,1.575,-2.8087,82.14159447838561,32.363307222514955,0.15275080311340622,11.393000000003667
0.477,0.0491,0.7538,-0.3744,0.473,0.4139,-1.6975,1.1375,-1.6187,84.36558450008967,32.32625317290293,0.1538557227979539,11.40899999999965
0.4878,0.1104,0.7563,-0.3747,0.473,0.4128,1.155,1.155,-3.2638,82.68900066609439,32.43535805179012,0.1540626505251168,11.424000000006345
0.4878,0.1104,0.7672,-0.3747,0.473,0.4128,1.155,1.155,-3.2638,82.13802366535815,32.310835731915155,0.15528838547599352,11.440000000009604
0.4826,0.0898,0.7672,-0.374,0.4741,0.413,-1.4,0.8575,-2.0387,82.68920825886856,32.248751925201624,0.15210754692529457,11.456000000005588
0.4948,0.0597,0.7532,-0.374,0.4741,0.413,-0.4288,0.8225,-2.7475,82.94838212487389,32.55609819556529,0.14800054223233425,11.471000000005006
0.4859,0.1322,0.7637,-0.374,0.4741,0.413,-0.49,1.6187,-2.555,82.83763529767967,32.45567013881064,0.15650976800324973,11.48700000000099
0.4982,0.0435,0.7472,-0.3738,0.4726,0.4123,-0.49,1.6187,-2.555,82.99082539520782,32.70974798502484,0.1627112412126766,11.502000000007683
0.4982,0.0435,0.7472,-0.3738,0.4726,0.4123,-2.1875,1.1463,-1.82,85.28353439915651,33.007596129334225,0.16294683708726543,11.518000000003667
0.473,0.1018,0.7616,-0.375,0.4725,0.4158,0.9887,1.3825,-3.4037,83.53603308196834,32.272580068502776,0.16656015337354158,11.53399999999965
0.5008,0.0979,0.7563,-0.375,0.4725,0.4158,-1.015,0.4725,-1.6538,83.23894960250826,32.6670683075538,0.15628288803903398,11.549000000006345
0.4768,0.0617,0.7635,-0.375,0.4725,0.4158,-1.015,0.4725,-1.6538,83.9365549858708,32.37069364641715,0.14745859923342264,11.565000000002328
0.4951,0.126,0.7527,-0.3747,0.4726,0.4109,0.91,1.1113,-3.01,81.90566573347662,32.623962675852205,0.1477152893094982,11.580000000001746
0.4951,0.126,0.7527,-0.3747,0.4726,0.4109,-0.6825,0.9363,-1.8375,81.72102370020043,32.731789423942,0.14642648037516395,11.59599999999773
0.4815,0.0457,0.7548,-0.3749,0.473,0.4145,-0.6825,1.4088,-2.45,82.35202366882083,32.697021241296696,0.15207055234178052,11.61200000000099
0.5005,0.1095,0.7641,-0.3749,0.473,0.4145,-0.2625,1.4088,-2.45,82.24443340498267,32.73425481704491,0.15588229711608978,11.627000000007683
0.4814,0.0972,0.7771,-0.3749,0.473,0.4145,0.1138,1.365,-3.0975,82.48999733174966,32.2160766766643,0.15995006739954676,11.643000000003667
0.4932,0.0553,0.7343,-0.3743,0.4726,0.4182,-1.2337,0.49,-1.7062,83.81122168362823,32.80107282855138,0.1505700606593354,11.658000000003085
0.4932,0.0553,0.7343,-0.3743,0.4726,0.4182,-1.2337,0.49,-3.9462,84.58748005555947,33.43265744946701,0.14256905459163066,11.673999999999069
0.4745,0.128,0.7639,-0.375,0.4721,0.4137,1.1812,1.575,-3.2375,81.99901426885303,32.48576469771386,0.15099214913708814,11.690000000002328
0.5007,0.057,0.7531,-0.375,0.4721,0.4137,-1.4175,0.3762,-1.7062,83.7241943784539,32.87298385356303,0.14097163422564574,11.705000000009022
0.4789,0.0969,0.7722,-0.375,0.4721,0.4137,1.0063,1.8725,-2.6513,83.19298694577162,32.53295966089967,0.15383847079631263,11.721000000005006
0.4897,0.1081,0.7499,-0.3736,0.4742,0.4158,1.0063,1.8725,-2.6513,82.34714863902471,32.6250763367585,0.16373337371570043,11.736000000004424
0.4897,0.1081,0.7499,-0.3736,0.4742,0.4158,-1.0675,0.8313,-2.1263,82.15526714752158,32.65936668482268,0.1593307563411255,11.752000000000407
0.4841,0.0535,0.7639,-0.3748,0.472,0.4168,-0.4288,1.6363,-2.4062,82.51326883788654,32.620361490478366,0.1669604007118133,11.768000000003667
0.4879,0.1293,0.7619,-0.3748,0.472,0.4168,-0.2537,0.9625,-2.66,82.04672459211798,32.523640214483066,0.16325811064012777,11.783000000003085
0.4839,0.0574,0.7594,-0.3748,0.472,0.4168,-0.2537,0.9625,-2.66,82.83641587915467,32.498599412047,0.16079229957893865,11.799000000006345
0.4932,0.0946,0.7635,-0.3755,0.4724,0.4078,-1.6888,1.085,-1.4525,82.89030403453775,32.57313682129166,0.15936056962047637,11.814000000005763
0.4932,0.0946,0.7635,-0.3755,0.4724,0.4078,0.7175,0.875,-3.1762,82.91616853346282,32.61536988091701,0.15602451265526587,11.830000000001746
0.4741,0.1094,0.7661,-0.3759,0.4732,0.4126,-1.1287,0.805,-1.4438,82.52620242130801,32.10278597133809,0.1520140613921009,11.846000000005006
0.4978,0.0478,0.7472,-0.3759,0.4732,0.4126,-1.1287,0.805,-1.4438,83.9518318586303,32.79499135026716,0.1476801552471977,11.860999999997148
0.4815,0.1268,0.7752,-0.3759,0.4732,0.4126,0.5163,1.7325,-3.045,82.29314037021189,32.238856626649834,0.1578601397275605,11.877000000000407
0.4962,0.068,0.7436,-0.3761,0.4741,0.415,-0.735,1.19,-2.485,82.71252838003876,32.46704589584844,0.1581391257619736,11.892000000007101
0.4962,0.068,0.7436,-0.3761,0.4741,0.415,-1.1375,0.9538,-2.6163,83.49064642003724,32.750553670224605,0.15605993318232853,11.908000000003085
0.4795,0.082,0.775,-0.3745,0.4734,0.4113,-1.1375,0.9538,-2.6163,83.66779985075533,32.46461641927403,0.1541886598668938,11.924000000006345
0.4931,0.1147,0.7609,-0.3745,0.4734,0.4113,0.4112,1.0762,-2.905,82.58065838670841,32.536407764717794,0.15329849387259328,11.938999999998487
0.4828,0.0489,0.7579,-0.3745,0.4734,0.4113,-2.3625,0.665,-1.6187,84.99154995491782,32.49954843043451,0.14754464448728485,11.955000000001746
0.4954,0.1205,0.773,-0.374,0.4738,0.412,0.4112,0.9625,-3.255,83.12226496482377,32.422590661893054,0.14578393004435494,11.97000000000844
0.4954,0.1205,0.773,-0.374,0.4738,0.412,0.4112,0.9625,-3.255,82.16013340909811,32.38353660905922,0.14506553703644032,11.986000000004424
0.4741,0.0727,0.7548,-0.3743,0.4732,0.4134,-1.4963,0.7788,-2.03,83.30823473494856,32.30867030357442,0.14177370333508102,12.002000000007683
0.4983,0.0808,0.7587,-0.3743,0.4732,0.4134,0.0,0.7875,-2.8,83.52094364503094,32.59421287793211,0.13822758299600352,12.016999999999825
0.4731,0.1178,0.7618,-0.3743,0.4732,0.4134,-0.315,1.3475,-2.38,83.10937647804077,32.50217564061199,0.14380882470035627,12.033000000003085
0.4731,0.0503,0.7399,-0.3754,0.4735,0.414,-0.315,1.3475,-2.38,83.64387555694516,32.505069957223014,0.14761919222961473,12.048000000002503
0.4973,0.0503,0.7399,-0.3754,0.4735,0.414,-1.645,0.7962,-2.1088,84.94353940909247,32.705213064182374,0.14432255300898905,12.064000000005763
0.4829,0.1116,0.7671,-0.3754,0.474,0.407,0.42,1.5838,-3.3163,83.37291732449043,32.30700154327977,0.15269701771273647,12.080000000009022
0.4954,0.0805,0.7534,-0.375,0.474,0.407,0.42,1.5838,-1.785,83.63048933046441,32.59708749518532,0.15880861593026183,12.095000000001164
0.4834,0.0769,0.7515,-0.375,0.474,0.407,-1.8725,0.7875,-1.785,83.93226841497894,32.603184971333334,0.1542677543395459,12.111000000004424
0.4834,0.1238,0.7651,-0.3746,0.4744,0.4154,0.035,0.9625,-2.3275,82.8024765113099,32.57630398484599,0.15270097890211218,12.127000000000407
0.4946,0.1135,0.7651,-0.3746,0.4744,0.4154,-1.1113,0.805,-2.1263,82.34725436532698,32.57913400740317,0.14829838101147924,12.141999999999825
0.4823,0.0565,0.7534,-0.3746,0.4744,0.4164,-1.1113,0.805,-2.1263,83.5816470608571,32.57556809188394,0.14506054291269294,12.158000000003085
0.4966,0.1065,0.7521,-0.3754,0.4743,0.4164,-0.7788,0.875,-2.94,83.25638700141107,32.81298711521253,0.14236698862096525,12.173000000002503
0.4802,0.0829,0.7653,-0.3754,0.4743,0.4164,-0.735,1.3737,-2.7738,83.3512255605164,32.5316157695002,0.1479115697628987,12.189000000005763
0.4802,0.0829,0.7497,-0.3752,0.4742,0.4098,-0.8138,0.9538,-2.45,83.42577621647284,32.52464850125197,0.14685513278316115,12.205000000001746
0.4949,0.0789,0.7501,-0.3752,0.4742,0.4098,-0.8138,0.9538,-2.45,83.55111781256197,32.63068783050732,0.14504591950434537,12.220000000001164
0.4776,0.1155,0.7584,-0.3752,0.4742,0.4098,0.4988,1.5137,-2.8875,82.42933856480035,32.35772705847345,0.15233860755835152,12.236000000004424
0.4922,0.0597,0.7579,-0.375,0.4727,0.4137,-2.1613,0.84,-1.7587,84.32986909985371,32.55142778331514,0.1484447468020763,12.251000000003842
0.4782,0.1066,0.7641,-0.375,0.4727,0.4137,0.2975,1.3475,-3.08,83.29998312927658,32.21492274005425,0.1530042721258218,12.267000000007101
0.4782,0.1066,0.7641,-0.3751,0.4732,0.4101,0.2975,1.3475,-3.08,82.73694485123983,32.02751165135366,0.15710784490836882,12.283000000003085
0.4955,0.0925,0.7599,-0.3751,0.4732,0.4101,-1.225,1.2163,-2.3712,82.86910869822212,32.09829112075162,0.15781711041689475,12.298000000002503
0.4828,0.0614,0.7554,-0.3751,0.4732,0.4101,-0.5163,0.91,-2.5113,82.90668128819857,32.17226959267677,0.1551393993778749,12.314000000005763
0.4895,0.1195,0.7668,-0.3734,0.4726,0.4146,-0.1838,1.0063,-2.6425,82.45128375857499,32.19060905649243,0.15321050943956024,12.32900000000518
0.4942,0.0591,0.7584,-0.3734,0.4726,0.4146,-0.1838,1.0063,-2.6425,83.24948540301075,32.40674184729653,0.15238017849855637,12.34500000000844
0.4942,0.0591,0.7584,-0.3742,0.4734,0.4163,-1.4438,0.8662,-2.135,84.3440790801961,32.48522953291505,0.14961544064556967,12.361000000004424
0.495,0.0987,0.7549,-0.3742,0.4734,0.4163,0.1575,1.085,-2.9488,83.61255145529196,32.703164285550464,0.14930139658044433,12.376000000003842
0.4848,0.0951,0.7706,-0.3742,0.4734,0.4163,-1.1638,0.4112,-1.6888,83.36162601558082,32.43319802428309,0.14029253692091356,12.391999999999825
0.4912,0.0616,0.751,-0.3741,0.4727,0.4118,-1.1638,0.4112,-1.6888,84.11658424129232,32.681817553371424,0.1318144832312995,12.40700000000652
0.4839,0.1193,0.7601,-0.3741,0.4727,0.4118,0.3325,1.0675,-2.9137,82.70894196932281,32.48295005792812,0.13400503491130122,12.423000000009779
0.4839,0.1193,0.7601,-0.3757,0.4739,0.4151,-0.5425,1.1988,-2.2575,82.6914706673478,32.4746547606706,0.1378672514079876,12.438999999998487
0.4889,0.0646,0.7493,-0.3757,0.4739,0.4151,-0.98,1.2862,-2.1263,83.42853022459502,32.55000717817847,0.14144422627493755,12.45400000000518
0.4814,0.0914,0.7702,-0.3757,0.4739,0.4151,-0.98,1.2862,-2.1263,83.36779637300967,32.4512663823051,0.14582108364279459,12.470000000001164
0.4849,0.1047,0.7523,-0.3746,0.4745,0.4163,0.385,1.5313,-3.1675,82.75039327430801,32.499588265135955,0.15191152527771293,12.485000000000582
0.4901,0.058,0.7647,-0.3746,0.4745,0.4163,-1.8463,1.5575,-2.0563,84.40443652685043,32.51478646065596,0.15914837275451083,12.501000000003842
0.4901,0.058,0.7647,-0.3748,0.4726,0.4168,0.6037,1.505,-3.1588,85.07339858608731,32.54586033000118,0.16490553547361964,12.516999999999825
0.4837,0.1185,0.7657,-0.3748,0.4726,0.4168,0.6037,1.505,-3.1588,83.01535701752888,32.279853772075334,0.16873248193532453,12.53200000000652
0.4852,0.071,0.7528,-0.3748,0.4726,0.4168,-1.7062,0.9975,-1.8725,83.87781694760307,32.3987767412093,0.16622323373818643,12.548000000002503
0.4852,0.0861,0.7546,-0.375,0.4737,0.4126,-0.8138,0.6388,-2.4675,83.79262796906256,32.42561793063427,0.15822471036403313,12.56300000000192
0.4831,0.1005,0.7637,-0.375,0.4737,0.4126,-0.8138,0.6388,-2.3712,83.50887649336335,32.39920733286555,0.15160095932950385,12.57900000000518
0.4831,0.1005,0.7637,-0.3756,0.4732,0.415,-0.9712,0.7262,-2.3712,83.20180010230563,32.37490485365588,0.14689814339392845,12.595000000001164
0.4903,0.0619,0.7555,-0.3756,0.4732,0.415,-0.6913,0.9187,-2.5113,83.4928616947801,32.47108300440253,0.1446107790600703,12.610000000007858
0.4896,0.113,0.7587,-0.3756,0.4732,0.415,-0.2013,1.3125,-3.2375,83.00511544033102,32.50911688780289,0.14904970114931898,12.626000000003842
0.4868,0.0769,0.7694,-0.3754,0.4738,0.4182,-0.2013,1.3125,-3.2375,83.32476643152073,32.35487995410586,0.1518634810336995,12.64100000000326
0.4946,0.0905,0.775,-0.3754,0.4738,0.4182,-1.015,0.9363,-1.9425,83.32956631245187,32.358745432734175,0.15015985292694514,12.656999999999243
0.4946,0.0905,0.775,-0.3753,0.4734,0.4121,0.105,1.0325,-2.555,83.33342930786338,32.361152475346735,0.15001186763727964,12.673000000002503
0.4703,0.0967,0.758,-0.3753,0.4734,0.4121,-1.155,0.98,-1.6975,83.10168226967525,32.08357234677201,0.14824068087945566,12.688000000009197
0.4984,0.0415,0.7416,-0.3753,0.4734,0.4121,-1.155,0.98,-1.6975,84.52066023055036,32.74135678903865,0.1475286127879677,12.70400000000518
0.4934,0.1388,0.7529,-0.3746,0.473,0.4134,1.05,1.3737,-2.835,81.47818328449569,32.7624170409211,0.15132070150845128,12.719000000004598
0.471,0.0608,0.7521,-0.3746,0.473,0.4134,-0.6388,1.4,-2.24,81.8556055643485,32.72880994126069,0.1563486313525456,12.735000000000582
0.471,0.0608,0.7521,-0.3746,0.475,0.4142,-1.5575,0.7875,-2.135,83.6393913132667,32.63051551446541,0.1520537682196013,12.751000000003842
0.4906,0.0788,0.7658,-0.3746,0.475,0.4142,-1.5575,0.7875,-2.135,83.88529423398666,32.614616324711285,0.14747964139722863,12.76600000000326
0.481,0.1272,0.7573,-0.3746,0.475,0.4142,0.3588,1.1638,-3.1937,82.27438556872569,32.35147942730117,0.149490397253299,12.781999999999243
0.5004,0.0386,0.7581,-0.375,0.4724,0.4175,-1.9775,0.8575,-1.3563,85.11826491401192,32.85310549816731,0.14611760753313507,12.797000000005937
0.4792,0.1212,0.74,-0.375,0.4724,0.4175,0.5512,1.6538,-3.0275,82.82045327559106,32.73699504757478,0.1553205667738436,12.81300000000192
0.4792,0.1212,0.74,-0.3739,0.4735,0.4126,0.5512,1.6538,-3.0275,81.71725198274207,32.67038147730406,0.16360323010131095,12.82900000000518
0.4858,0.0741,0.7577,-0.3739,0.4735,0.4126,-1.4612,1.1725,-1.7237,83.01661394162517,32.62433471172994,0.16307165709056562,12.844000000004598
0.4911,0.0683,0.7694,-0.3739,0.4735,0.4126,0.1663,1.3563,-2.3537,83.80194297011073,32.61290020094899,0.16629521137660644,12.860000000000582
0.4806,0.1315,0.7682,-0.3746,0.473,0.41,0.1575,1.7325,-2.6688,82.36759580843223,32.3483441200881,0.1730544402493832,12.875000000007276
0.5119,0.0406,0.7504,-0.3746,0.473,0.41,0.1575,1.7325,-2.6688,84.21801615583969,32.87954635774419,0.18069699621818242,12.89100000000326
0.5009,0.0406,0.7504,-0.3754,0.4735,0.4129,-1.505,0.56,-1.6187,85.54240251112347,33.20141385608385,0.17069129659800703,12.90700000000652
0.4779,0.1121,0.7646,-0.3754,0.4735,0.4129,0.5688,1.715,-2.835,83.50790970706733,32.68022128396352,0.17677466692607746,12.921999999998661
0.4977,0.0958,0.7582,-0.3754,0.4735,0.4129,-2.2225,0.5337,-1.7237,83.06228350510611,32.821697396011345,0.16678248023503542,12.93800000000192
0.4767,0.0523,0.7549,-0.375,0.4755,0.42,-2.2225,0.5337,-1.7237,84.93140358133135,32.60173155842848,0.15730918221474716,12.953000000008615
0.4767,0.1304,0.7502,-0.375,0.4755,0.42,0.2887,1.365,-3.0275,82.7718287167543,32.36583172983574,0.1612342639883384,12.969000000004598
0.4956,0.1332,0.7502,-0.3749,0.4734,0.413,-1.1725,0.9187,-2.5025,81.66267760709516,32.48687706833204,0.15834011759219974,12.985000000007858
0.4744,0.0492,0.7524,-0.3749,0.4734,0.413,-1.0588,1.26,-2.45,83.24914632822666,32.44285770848179,0.15951610582406878,13.0
0.4925,0.1033,0.757,-0.3749,0.4734,0.413,-1.0588,1.26,-2.45,82.89715854666915,32.49452802368187,0.16170849524535832,13.01600000000326
0.4744,0.0978,0.7615,-0.3746,0.4723,0.412,0.6037,1.9512,-2.73,82.78250679520917,32.253386760037245,0.17187884573257747,13.031000000009954
0.4744,0.0978,0.7533,-0.3746,0.4723,0.412,-1.8813,1.05,-1.5662,82.67924628168495,32.14146735633072,0.16981096114864852,13.046999999998661
0.5048,0.0495,0.7533,-0.3762,0.4738,0.4126,-1.8813,1.05,-3.3338,84.72481285908384,32.97518567080421,0.16794986503686402,13.06300000000192
0.4719,0.1296,0.7679,-0.3762,0.4738,0.4126,0.6388,1.925,-3.3338,82.40355639533355,32.0735626459879,0.17714237853216916,13.078000000001339
0.5001,0.0558,0.7492,-0.3762,0.4738,0.4126,-1.3913,0.665,-1.6975,83.9461019795391,32.65679277183604,0.16900414068090314,13.094000000004598
0.4799,0.0972,0.7642,-0.3756,0.4738,0.4206,-0.0787,1.4088,-2.94,83.57364451312355,32.36551224522952,0.1711225266120748,13.109000000004016
0.4799,0.0972,0.7642,-0.3756,0.4738,0.4206,-0.0787,1.4088,-2.94,83.31730023722878,32.18956986576745,0.17429699394577494,13.125
0.4849,0.1058,0.7574,-0.3754,0.4722,0.4135,-0.3675,1.3388,-2.6337,83.13830203430778,32.238126541716845,0.17614601455512505,13.14100000000326
0.4554,0.0737,0.7793,-0.3758,0.4686,0.4129,1.26,1.6888,-3.7975,84.0747934054299,31.004854994275703,0.18133021309872785,13.156000000002678
0.5469,0.1487,0.7655,-0.3757,0.4684,0.4129,1.26,1.6888,-3.7975,80.82238423084426,33.436105451775184,0.18751591179380944,13.172000000005937
0.4576,0.0254,0.7857,-0.3757,0.4691,0.4113,-1.6538,0.9538,-1.4262,84.69621748360943,31.943305651652548,0.18164062060768302,13.18699999999808
0.4643,0.0698,0.7857,-0.3758,0.4691,0.4113,-0.5163,1.155,-2.4325,84.69965205701384,31.75485292862388,0.1801085585503031,13.203000000001339
0.533,0.0659,0.7256,-0.3759,0.4694,0.4128,-1.47,0.5075,-2.5025,84.75333957878819,32.54834573059889,0.16940570269676164,13.219000000004598
0.5195,0.0012,0.7211,-0.3742,0.4677,0.4119,-3.36,0.5512,-0.945,88.55907990059478,34.39288311972456,0.15990633242679672,13.234000000004016
0.4362,0.1411,0.7747,-0.3751,0.4676,0.4101,1.8112,2.8,-3.7538,82.3344396176399,31.17440018595724,0.18423569919233132,13.250000000007276
0.459,0.0449,0.7805,-0.3751,0.4676,0.4101,0.0175,1.8375,-2.8437,83.88465907521491,30.903030001212244,0.19061837926010294,13.264999999999418
0.516,0.1642,0.7409,-0.3771,0.4688,0.4078,-0.7175,0.9538,-2.2575,82.88469120331803,30.989929995480214,0.18529126133689078,13.281000000002678
0.5222,0.1437,0.7496,-0.3757,0.4683,0.4105,-1.0675,1.6363,-1.4,81.58096728404554,32.580635321720486,0.19032485520800208,13.297000000005937
0.4559,0.0887,0.783,-0.3765,0.4675,0.4114,-3.0013,0.7962,-0.8138,82.97321360107647,31.0751197959132,0.18204106968678477,13.312000000005355
0.4438,0.1573,0.7878,-0.3765,0.4675,0.4114,2.03,2.2313,-3.64,79.90571642686353,29.83367810590938,0.19596768271004084,13.328000000001339
0.4629,0.1238,0.7845,-0.3748,0.4666,0.415,0.35,1.6363,-2.4325,80.43355754823317,29.885499986001278,0.19846096443817957,13.343000000000757
0.5148,0.1046,0.7468,-0.3748,0.4671,0.4121,0.35,1.0237,-3.045,81.18006694024753,31.801379648771146,0.1933561479973648,13.359000000004016
0.51,0.1723,0.7437,-0.3766,0.4684,0.4126,1.8813,0.9712,-3.6575,78.19356999344285,32.92625698853446,0.18800581320047752,13.375000000007276
0.4643,0.0222,0.7753,-0.3759,0.468,0.4159,-2.7738,1.1287,-0.7875,85.22417287298227,31.714827979278695,0.18444268187244733,13.389999999999418
0.4621,0.1063,0.7803,-0.3759,0.468,0.4159,-1.4963,1.5838,-1.785,83.76010370560279,31.278172184266637,0.18880513368984894,13.406000000002678
0.5162,0.0295,0.7366,-0.3757,0.4682,0.4157,-0.5775,1.1025,-2.6775,83.93308874311788,32.328479917360724,0.18480837032028646,13.421000000002095
0.5106,0.0367,0.7251,-0.3752,0.4686,0.4128,0.6388,1.9512,-1.6538,85.64226114545876,33.4072851931542,0.194424813293982,13.437000000005355
0.4647,0.0944,0.787,-0.376,0.4681,0.4137,1.5838,1.645,-3.4913,83.95682253489306,31.752709393702226,0.1986703319694097,13.453000000008615
0.4704,0.0218,0.763,-0.376,0.4681,0.4137,-2.4325,0.4112,-1.26,86.84434662692841,31.69767873397501,0.18435449876956064,13.468000000000757
0.5025,0.0405,0.7715,-0.3764,0.4678,0.4205,-1.1725,1.3825,-2.2575,86.90318859520731,31.732945535982786,0.18582704889666038,13.484000000004016
0.5058,0.091,0.7474,-0.3762,0.4686,0.4125,-1.0412,0.9625,-2.1,85.60528784926922,32.069270154118044,0.18023809400649013,13.499000000003434
0.512,0.0255,0.7354,-0.3758,0.4695,0.4132,-2.31,0.3675,-1.4963,87.14708077368326,33.286214776360964,0.16750628460691924,13.515000000006694
0.4585,0.1405,0.7725,-0.3754,0.4677,0.4127,2.5025,2.485,-3.3688,81.53990664336366,31.723686525322346,0.18653965615351747,13.531000000009954
0.4659,0.0731,0.7754,-0.3754,0.4677,0.4127,0.6825,2.0387,-2.5725,83.22584965728139,31.536760331598593,0.19540814052374758,13.546000000002095
0.5009,0.1372,0.7473,-0.3755,0.4682,0.4162,-0.2275,0.595,-2.0038,82.37944799271177,31.944059629896532,0.18443532647311836,13.562000000005355
0.498,0.1357,0.7438,-0.3752,0.4674,0.4118,-1.0063,0.91,-3.7887,81.50432968153314,32.801437175304024,0.1782767938253298,13.577000000004773
0.4736,0.0695,0.7765,-0.3767,0.4682,0.4126,-2.4938,0.9887,-1.3913,83.74398344413027,32.08278940074884,0.17468639444569733,13.593000000008033
0.462,0.1362,0.768,-0.3767,0.4682,0.4126,1.19,1.855,-3.3688,81.33989164549556,31.331741374469363,0.18392975499442235,13.609000000004016
0.511,0.0355,0.7929,-0.3755,0.4694,0.41,-0.245,1.5225,-2.7125,82.69815919533802,31.76417719668603,0.18609052949418253,13.624000000003434
0.5025,0.0861,0.7523,-0.3754,0.4675,0.4131,-0.3063,1.1287,-3.0187,82.84028690782962,32.52831545078571,0.1837347565480755,13.640000000006694
0.4934,0.143,0.7629,-0.3751,0.4668,0.4116,0.9625,1.2163,-3.36,80.76946478432316,32.48409369089207,0.18178133089263077,13.655000000006112
0.483,0.0369,0.7755,-0.3759,0.4677,0.4102,-2.2313,0.9625,-1.3125,84.86572361064741,32.18958299759204,0.17746319779988856,13.671000000002095
0.4738,0.0944,0.765,-0.3759,0.4677,0.4102,-0.6125,1.1025,-1.7763,84.7235835271462,31.983646005137153,0.1755928780159145,13.68699999999808
0.5015,0.0487,0.7382,-0.3754,0.468,0.4174,-0.6212,1.1988,-2.38,84.84702343294092,32.171063395275944,0.17421739022154523,13.702000000004773
0.5027,0.0496,0.7554,-0.3758,0.4682,0.4141,-2.1962,1.0325,-1.4262,85.71929039011764,32.82454994822236,0.17166365120241972,13.718000000008033
0.4774,0.1018,0.7627,-0.3758,0.4677,0.4132,1.0063,1.75,-3.395,83.70633384016702,32.294278308103806,0.17812228606980135,13.733000000000175
0.4827,0.0449,0.7704,-0.3758,0.4677,0.4132,-1.6187,0.8487,-1.5488,85.24710043347876,32.1804940626126,0.17253133746531102,13.749000000003434
0.4975,0.1332,0.7569,-0.3758,0.4685,0.4097,-0.3063,1.0325,-2.205,84.28563213407725,32.23467286609008,0.17014620371504774,13.764999999999418
0.5007,0.0927,0.762,-0.3757,0.4697,0.413,-0.7088,0.84,-2.2138,84.10177228912414,32.29280139262659,0.16447158334860354,13.780000000006112
0.5012,0.0509,0.753,-0.3758,0.4672,0.4133,-2.0387,0.8662,-1.7587,85.3227316733231,32.739003120907874,0.16049770501628433,13.796000000009371
0.4782,0.1268,0.7637,-0.3758,0.4692,0.4106,0.9363,2.0125,-3.1675,82.4975373153817,32.253579909082966,0.17161668450042303,13.811000000001513
0.4851,0.0872,0.7647,-0.3756,0.4692,0.4106,-0.07,1.0412,-3.1937,82.81244489990596,32.23877149840385,0.16944829605343525,13.827000000004773
0.4932,0.1116,0.7521,-0.3762,0.4686,0.4119,-0.9275,1.2163,-2.5988,82.45720571303258,32.41363829361201,0.17001818644369518,13.843000000000757
0.4885,0.1246,0.7496,-0.3763,0.4677,0.4125,0.665,1.4612,-3.1325,81.4250234509273,32.561271141231146,0.17274256780812863,13.85800000000745
0.4893,0.0673,0.7591,-0.3762,0.4675,0.4122,-1.7763,0.3325,-1.5925,83.37047670172221,32.61920312633753,0.16025631102611387,13.874000000003434
0.4767,0.1132,0.7666,-0.3762,0.4675,0.4122,0.9013,1.3563,-3.0625,82.32777602886635,32.17252280320769,0.16254072992279198,13.889000000002852
0.492,0.0473,0.7366,-0.3754,0.4676,0.4138,0.1838,1.015,-2.8087,83.99523636447213,32.69302036579889,0.16090265693349046,13.905000000006112
0.4907,0.0745,0.7527,-0.3754,0.4688,0.4139,0.1488,1.1812,-2.5725,84.1378541650482,32.755739904075284,0.16182167123587174,13.921000000002095
0.4864,0.1182,0.7691,-0.375,0.4664,0.4134,1.0675,1.4175,-3.0363,82.36894510994205,32.43527138361537,0.1647757541208243,13.93600000000879
0.4917,0.0564,0.7484,-0.375,0.4678,0.4162,-1.6363,1.2337,-2.0912,84.11218674834988,32.56407441303534,0.1660634586962037,13.951999999997497
0.4914,0.0868,0.7635,-0.3758,0.4678,0.4162,-1.12,0.8925,-2.4237,83.89063445841379,32.568310696549005,0.1615058628319602,13.967000000004191
0.4816,0.0664,0.7537,-0.3757,0.4686,0.4133,-1.2075,0.98,-2.24,84.32403667135958,32.56444095238694,0.15946727655163917,13.98300000000745
0.4829,0.0571,0.7582,-0.375,0.4674,0.4114,-1.4787,0.9887,-1.5313,84.98999236887468,32.50231297543946,0.1577578288929014,13.999000000003434
0.4865,0.1053,0.761,-0.3746,0.4686,0.413,0.6037,0.6562,-3.15,83.46508349517646,32.429008049334996,0.15084074600326752,14.014000000002852
0.4919,0.0598,0.7567,-0.3746,0.4686,0.413,-1.3737,1.015,-2.7475,84.38681666020474,32.59225680502639,0.15037267139927185,14.029999999998836
0.479,0.1214,0.7642,-0.3747,0.4693,0.4074,-0.6825,1.3913,-2.3888,83.93942732032396,32.513529131535016,0.15411795426772656,14.04500000000553
0.4799,0.0992,0.7729,-0.3762,0.4678,0.4122,-1.085,1.1725,-1.9162,83.4929939795618,32.2749553909805,0.15559015884439364,14.06100000000879
0.4868,0.054,0.7644,-0.3751,0.468,0.413,-1.365,0.6737,-1.5225,84.61397150974094,32.34027739316904,0.14973242295751907,14.077000000004773
0.4881,0.1275,0.7608,-0.3751,0.468,0.408,0.9363,1.82,-2.975,82.1588602599303,32.333252875016605,0.15932918066081372,14.092000000004191
0.4917,0.0963,0.7443,-0.3764,0.4678,0.408,0.49,0.7788,-2.7037,82.39586067385532,32.598507781346356,0.15461098259191722,14.108000000000175
0.4824,0.0998,0.7712,-0.375,0.468,0.4184,-0.1138,1.19,-2.3975,82.4638047338438,32.5187516298936,0.15521488433989464,14.123000000006869
0.4805,0.1235,0.7694,-0.3748,0.4674,0.4127,0.7088,1.8112,-2.9838,81.58744935932374,32.16484665406238,0.16577467589935824,14.139000000002852
0.4928,0.0595,0.7451,-0.3766,0.4679,0.4122,-1.82,1.0325,-1.6275,83.7532528199487,32.653146867147555,0.16406520831245142,14.155000000006112
0.4912,0.1053,0.7571,-0.3766,0.4679,0.4122,-1.4525,0.63,-1.89,82.952018016973,32.67348304644893,0.15616368748087622,14.17000000000553
0.4906,0.0534,0.7643,-0.3766,0.4693,0.4174,-0.035,1.7938,-2.4325,83.96459018786052,32.668236631464424,0.16637803872630458,14.186000000001513
0.4785,0.0592,0.7444,-0.3759,0.4678,0.4134,-0.315,1.1375,-2.3012,84.22964085686148,32.66794933336773,0.16509648486052697,14.201000000008207
0.4845,0.0921,0.7631,-0.3758,0.4682,0.413,0.7262,1.47,-2.6337,83.6104260047411,32.5532176291057,0.16975483636916067,14.217000000004191
0.4978,0.0567,0.7441,-0.3758,0.4682,0.413,-1.855,0.7613,-1.8988,84.76787429107522,32.87399230596938,0.16374207272949276,14.233000000000175
0.4982,0.0656,0.756,-0.3757,0.468,0.4066,-1.4525,0.3237,-1.8112,84.89867742111574,33.00634438292314,0.1517378154584936,14.248000000006869
0.4768,0.0867,0.7496,-0.3761,0.4682,0.4121,-0.2625,1.015,-2.3012,84.58135059163239,32.99450002675145,0.15118003390897533,14.264000000002852
0.4878,0.0569,0.766,-0.3766,0.4675,0.4111,-1.2075,0.8838,-1.7675,85.05335838789614,32.79810551845416,0.14799333051761482,14.27900000000227
0.4773,0.0707,0.758,-0.3753,0.4674,0.4127,0.21,1.1638,-2.3975,84.89068099220769,32.72579706501105,0.14995271746164654,14.294999999998254
0.4895,0.0806,0.7588,-0.3753,0.4674,0.4127,-0.21,0.7525,-2.87,84.65852024272338,32.70877952245186,0.14579344571768946,14.311000000001513
0.4776,0.1082,0.7521,-0.3754,0.467,0.411,-0.9712,0.7875,-2.0387,83.78980022659806,32.59883214663012,0.1418453511506648,14.326000000008207
0.4821,0.1063,0.767,-0.375,0.4668,0.4134,-0.4812,1.0762,-2.485,83.70908970451117,32.4831765217446,0.1431580960317082,14.342000000004191
0.4974,0.08,0.7688,-0.377,0.4678,0.4115,-1.05,0.4112,-1.6975,83.8286403651704,32.586152303063784,0.13439348642832197,14.357000000003609
0.4921,0.1125,0.753,-0.377,0.4678,0.4115,0.2537,0.8313,-2.9925,82.80549725627436,32.70648060735037,0.1329248577824849,14.372999999999593
0.4893,0.105,0.7573,-0.3762,0.4681,0.4179,0.2187,0.9712,-2.4062,82.50573371007346,32.69696363639713,0.13361765200708559,14.389000000002852
0.4857,0.0817,0.7591,-0.3753,0.468,0.4128,-0.6475,1.1725,-2.1875,82.64602140975468,32.67628440274324,0.1360846368057628,14.40400000000227
0.4783,0.1146,0.7739,-0.3758,0.4678,0.4133,-0.3413,1.4438,-2.5725,82.47503315047878,32.399912555605766,0.14326689312942215,14.42000000000553
0.495,0.0614,0.7552,-0.3756,0.4675,0.4129,-1.435,0.735,-1.5488,83.84042137609465,32.720624774896315,0.1388627038160949,14.435000000004948
0.4917,0.0896,0.7515,-0.3756,0.4675,0.4129,-1.2775,0.6475,-1.9512,83.5671782985186,32.793299871509156,0.13430043343214487,14.451000000000931
0.4803,0.0701,0.7424,-0.3766,0.4686,0.4201,-0.1225,0.84,-2.8963,83.86878511838887,32.79023145517394,0.1329663900913947,14.467000000004191
0.4857,0.0643,0.759,-0.3772,0.4676,0.4123,-0.4725,0.7788,-2.625,83.9407731808337,32.72236763385866,0.13018355108184726,14.482000000003609
0.496,0.0981,0.7589,-0.3755,0.4682,0.4137,-0.1663,0.7088,-2.6513,83.5912111859659,32.78364438279601,0.1273719159757419,14.498000000006869
0.4965,0.0699,0.7541,-0.3755,0.4682,0.4137,-1.4262,0.3063,-1.4875,84.11672840404158,32.98979219475528,0.11876977437800725,14.513000000006286
0.4948,0.0703,0.7623,-0.3756,0.4692,0.4092,-0.91,1.0325,-2.2138,84.28534963515746,32.98231113799835,0.12176079693647435,14.52900000000227
0.4835,0.0933,0.7613,-0.3757,0.4672,0.4128,-0.315,1.05,-2.4413,84.0587815806407,32.879848361935004,0.12470471724590726,14.54500000000553
0.4843,0.0666,0.7648,-0.3766,0.4671,0.4119,-0.7613,1.1113,-1.96,84.23888185370072,32.72451898742823,0.12723679551345718,14.559999999997672
0.4887,0.1107,0.7555,-0.376,0.4673,0.411,0.8313,1.6275,-2.8612,82.75370177420514,32.68634285845267,0.137949115966886,14.576000000000931
0.4921,0.0892,0.756,-0.376,0.4673,0.411,-0.21,1.19,-2.835,82.87955425147642,32.75521559034427,0.14021920437736654,14.591000000007625
0.4809,0.0966,0.7602,-0.377,0.4686,0.4169,-0.6825,0.7788,-1.9338,82.86363946635922,32.58779440965949,0.13741200393681477,14.607000000003609
0.4847,0.1069,0.7543,-0.3762,0.4681,0.4134,-0.63,0.945,-2.52,82.78037687033266,32.56448794516658,0.1372788035459056,14.623000000006869
0.4978,0.075,0.7582,-0.3758,0.4682,0.4135,-0.9538,0.8838,-2.5812,83.246523791008,32.700591130996436,0.13548222318506462,14.63799999999901
0.4904,0.0996,0.7595,-0.3758,0.4682,0.4135,0.4375,0.9887,-2.8875,82.89334515583077,32.67314585389959,0.13617128086945868,14.65400000000227
0.4916,0.1049,0.7547,-0.3757,0.4684,0.4127,0.1575,0.9013,-2.38,82.56429883070459,32.686771648225466,0.13472170278204065,14.669000000001688
0.4873,0.076,0.7686,-0.375,0.4683,0.4103,-0.4112,1.26,-2.1175,82.75658619833487,32.6241654424182,0.13939353250753303,14.685000000004948
0.4823,0.0959,0.7532,-0.3742,0.4667,0.4138,-0.6388,0.7788,-2.5725,82.75536308021049,32.57939788640921,0.13666889925906447,14.701000000008207
0.4887,0.0751,0.7532,-0.3757,0.4677,0.4098,-1.1113,0.6212,-2.2138,83.3243533673134,32.597091285005526,0.13138820932876477,14.71600000000035
0.4903,0.0827,0.7552,-0.3757,0.4677,0.4098,-0.7875,0.56,-2.625,83.41118664533731,32.65807262876019,0.12631338839753115,14.732000000003609
0.4904,0.0831,0.7641,-0.3746,0.4678,0.4101,0.0525,0.4988,-2.5463,83.55204253083915,32.63345696825932,0.12041584955751673,14.747000000003027
0.4899,0.0731,0.7526,-0.3756,0.4685,0.413,-0.5775,0.77,-1.9775,83.59150170359679,32.705211825456175,0.119462264604024,14.763000000006286
0.4833,0.095,0.7551,-0.3759,0.4674,0.4126,-0.4025,0.8313,-2.3363,83.50430949174496,32.69101799926416,0.11948675814606036,14.779000000009546
0.4934,0.0811,0.7549,-0.3759,0.4674,0.4126,-0.7262,0.6475,-2.3275,83.56356414780423,32.70451667387094,0.11627933232687505,14.794000000001688
0.4873,0.0724,0.7584,-0.3752,0.4678,0.4121,-1.3125,0.8838,-2.4413,83.99469618115934,32.690910024260674,0.11737811909678032,14.810000000004948
0.4842,0.0963,0.7511,-0.3754,0.4679,0.4143,-0.4638,1.0588,-2.6425,83.91203309288979,32.66580271291608,0.11993410718654764,14.825000000004366
0.4909,0.0789,0.761,-0.3766,0.4675,0.4122,-0.5688,1.1812,-2.66,83.91807547386367,32.67119845617979,0.12494997646362321,14.84100000000035
0.4871,0.0947,0.7594,-0.3754,0.4677,0.4117,-0.0263,1.05,-2.7825,83.57351455755376,32.60651783343091,0.12757497882034124,14.857000000003609
0.4895,0.095,0.7593,-0.3754,0.4677,0.4117,-0.1575,1.1375,-2.5638,83.38154732054328,32.60650389210833,0.13017373093771123,14.872000000003027
0.4812,0.0767,0.7563,-0.376,0.4684,0.4122,-0.7262,0.4988,-2.4062,83.51633149943407,32.57694592871506,0.12433907784540342,14.888000000006286
0.487,0.0885,0.7687,-0.3755,0.4671,0.4126,-0.9538,0.77,-2.3537,83.4914426525133,32.55159428580563,0.12230017005541745,14.902999999998428
0.4941,0.0811,0.7613,-0.3749,0.4672,0.413,-0.2887,0.9538,-2.3888,83.57507689160889,32.57855896437731,0.12380487305267385,14.919000000001688
0.4931,0.0773,0.7626,-0.3749,0.4672,0.413,-0.9013,1.5575,-2.555,83.74698555626,32.61580442590611,0.13385238575197567,14.935000000004948
0.4889,0.0908,0.7563,-0.377,0.4686,0.4083,-0.6475,0.7613,-2.7387,83.68541813315672,32.640061977400315,0.13074469717637927,14.950000000004366
0.4865,0.0785,0.7595,-0.3759,0.4665,0.414,-0.735,0.8138,-2.555,83.75530673549827,32.611005414861495,0.12938894746112875,14.966000000007625
0.4871,0.0764,0.7496,-0.3758,0.4665,0.4129,-0.8138,0.945,-2.3888,83.8488619120188,32.636537057049125,0.12920755270833262,14.980999999999767
0.4935,0.087,0.7584,-0.3759,0.4684,0.4132,0.0962,1.2513,-2.4675,83.69730183238283,32.674446042007986,0.13430551744117025,14.997000000003027
0.4866,0.0784,0.7599,-0.3759,0.4684,0.4132,-0.9887,0.7875,-2.3625,83.82661538832038,32.661510405319994,0.13221496569420665,15.01299999999901
0.4817,0.0951,0.7616,-0.3766,0.4691,0.4099,-0.525,1.0063,-2.8437,83.82037032273108,32.464709031790754,0.13257851913084842,15.028000000005704
0.4903,0.0861,0.7624,-0.3753,0.4686,0.4122,-0.3938,1.5137,-2.5638,83.78842809878503,32.48991473698213,0.14111794722220428,15.044000000008964
0.4868,0.0917,0.7536,-0.3761,0.4674,0.4124,-0.5775,1.2075,-2.1613,83.75659600064164,32.50960228468749,0.14330740249144414,15.059000000001106
0.4854,0.097,0.7663,-0.3761,0.4674,0.4124,-0.5688,0.8487,-2.5025,83.72182775355874,32.44451765075116,0.14119794224478951,15.075000000004366
0.4811,0.0863,0.7599,-0.3762,0.4683,0.4095,-1.1812,0.9625,-2.31,83.64267568463497,32.43774448653009,0.1409381480168314,15.09100000000035
0.4887,0.0947,0.762,-0.3757,0.4679,0.4078,0.0437,1.2425,-0.245,83.3771692534019,32.46234472291215,0.14361808322263372,15.106000000007043
0.4892,0.0934,0.7626,-0.3752,0.4679,0.4131,-0.3762,1.5662,-2.3625,83.3287693605608,32.464072095676464,0.15180955489470901,15.122000000003027
0.4913,0.0863,0.7549,-0.3749,0.4672,0.411,-0.3413,1.0063,-2.2575,83.3526772726665,32.47516860271372,0.15021364940471094,15.137000000002445
0.4895,0.0922,0.7613,-0.3749,0.4672,0.411,0.0787,1.1812,-2.205,83.25486713880501,32.480728195216095,0.1522015644677051,15.153000000005704
0.4923,0.0802,0.7672,-0.3755,0.469,0.4122,-0.7437,0.735,-2.2662,83.39085936486637,32.48190340667888,0.1475654080182778,15.169000000001688
0.4903,0.0847,0.7482,-0.374,0.4685,0.413,-1.015,0.6825,-2.3975,83.43988850295257,32.54163701548728,0.1420226172160925,15.184000000001106
0.4906,0.0831,0.749,-0.3756,0.4682,0.4126,-0.9275,0.4988,-2.2575,83.50487390463061,32.55536389501883,0.13500307549594656,15.200000000004366
0.489,0.0791,0.769,-0.3756,0.4682,0.4126,-0.49,1.2425,-2.3975,83.52976042090503,32.53100570735274,0.138276517945701,15.215000000003783
0.4853,0.0906,0.7659,-0.3761,0.4675,0.4153,-0.1138,1.2687,-2.205,83.4484043291781,32.50516988369196,0.14271814615485284,15.231000000007043
0.488,0.0787,0.7482,-0.3758,0.4667,0.4125,-0.8313,1.0063,-2.1962,83.57451334504923,32.542834160926354,0.1429370515357301,15.247000000003027
0.4923,0.0814,0.7683,-0.3758,0.469,0.4122,-0.35,0.5425,-2.2662,83.6325721400606,32.54216031346319,0.1359670963818729,15.262000000002445
0.4791,0.0887,0.7559,-0.3772,0.4681,0.4132,-0.3675,0.98,-2.4237,83.58670766160661,32.499142386174,0.13648238674014324,15.277999999998428
0.4832,0.0833,0.7655,-0.3772,0.4681,0.4132,-0.595,1.19,-2.52,83.59879593358158,32.42476006726975,0.13889914807329806,15.293000000005122
0.4922,0.0953,0.7607,-0.3756,0.4671,0.413,-0.3325,0.6125,-2.8525,83.47596685378903,32.52488750346962,0.13382923326776514,15.309000000008382
0.4914,0.0879,0.7581,-0.3766,0.4688,0.413,-0.4638,1.05,-2.1875,83.47026350880576,32.54716241648133,0.1355663099371932,15.325000000004366
0.481,0.0909,0.7534,-0.3761,0.4679,0.4121,-0.4812,1.2163,-2.3187,83.45345538365129,32.54123845728438,0.1384297289428367,15.340000000003783
0.4884,0.0908,0.753,-0.3761,0.4679,0.4121,-0.3325,0.8138,-2.415,83.398776218351,32.56870904870295,0.13630547604561138,15.355999999999767
0.4882,0.0867,0.7681,-0.3761,0.4669,0.4123,-0.8313,0.9887,-2.275,83.43593469996384,32.565965846159024,0.13602237844700665,15.371000000006461
0.4893,0.0885,0.7473,-0.3752,0.4674,0.4154,-0.7437,1.015,-2.0825,83.40272867453406,32.64434783166858,0.13703614060528366,15.38700000000972
0.4892,0.0914,0.7542,-0.3757,0.468,0.4142,0.1312,1.0412,-2.6775,83.27812044639853,32.682175679354565,0.13832580654099166,15.403000000005704
0.4826,0.0812,0.7584,-0.3755,0.4682,0.4138,-0.8138,0.8838,-2.8612,83.41249584208528,32.55061077803734,0.1364245258864295,15.418000000005122
0.4835,0.0902,0.7599,-0.3755,0.4682,0.4138,-0.6562,1.0237,-2.4062,83.3923593131187,32.52189448606782,0.13752335329408621,15.434000000001106
0.487,0.0844,0.7494,-0.3756,0.4681,0.4081,-0.8487,1.12,-2.3888,83.43613963653219,32.55319692349892,0.13889101797142503,15.4490000000078
0.4959,0.0863,0.7623,-0.3751,0.4672,0.4117,-0.1225,0.7525,-2.4062,83.46659917080251,32.5885259667216,0.1358379161715625,15.465000000003783
0.4824,0.0865,0.7613,-0.3744,0.4664,0.4124,-0.3063,1.5575,-2.3625,83.47601021596334,32.56000764312226,0.14468212454877635,15.480999999999767
0.4814,0.082,0.7606,-0.3744,0.4664,0.4124,-0.7613,1.0675,-2.5375,83.54524400674903,32.483505364643506,0.14462516210032986,15.496000000006461
0.4898,0.0852,0.7724,-0.376,0.4686,0.4135,-0.5337,1.2513,-2.31,83.54557038934782,32.47702679415008,0.1481813658857738,15.512000000002445
0.4905,0.0855,0.7596,-0.3762,0.4679,0.4102,0.0088,1.4,-2.6075,83.55689945041838,32.52843657025276,0.152263229296463,15.527000000001863
0.4922,0.0828,0.7487,-0.375,0.4684,0.4125,-0.3762,0.98,-2.1613,83.5747004826502,32.59785288604478,0.1511489063632743,15.542999999997846
0.485,0.0832,0.7618,-0.377,0.4683,0.4106,0.0787,0.91,-2.1962,83.64764036067487,32.57606382681807,0.1491380157296165,15.559000000001106
0.4793,0.0833,0.7543,-0.377,0.4683,0.4106,-0.2537,1.05,-2.0387,83.65862869921108,32.51683956476099,0.14839921416298057,15.5740000000078
0.4953,0.0891,0.7537,-0.3753,0.4686,0.4084,-0.5425,1.2862,-2.4237,83.65433132125156,32.591663063334224,0.15208057274203332,15.590000000003783
0.4864,0.0873,0.7521,-0.3758,0.4672,0.4151,-0.5163,0.7262,-2.835,83.65016708386841,32.63618903158082,0.14667621546744955,15.605000000003201
0.4884,0.084,0.7477,-0.376,0.468,0.4133,-0.7,0.8575,-2.2487,83.64149931230395,32.64834739131167,0.144356593917605,15.620999999999185
0.4763,0.0915,0.7626,-0.376,0.468,0.4133,-0.2275,0.9275,-2.45,83.52876366892177,32.528441128360484,0.14327693452856546,15.637000000002445
0.4856,0.0891,0.7594,-0.3762,0.4667,0.4155,-0.7613,0.8838,-2.3012,83.48755581045748,32.526646215328135,0.14088054108103337,15.652000000009139
0.4912,0.0881,0.757,-0.3763,0.4677,0.409,-0.9275,1.295,-2.3888,83.4518802043854,32.55274560886002,0.145440486968249,15.668000000005122
0.492,0.0918,0.756,-0.3753,0.4672,0.4128,-0.4725,1.0938,-2.1263,83.43091664650886,32.5953051592651,0.14566273827085108,15.68300000000454
0.4862,0.0831,0.7465,-0.3742,0.4671,0.415,-0.4812,1.12,-2.0825,83.4413448031898,32.64907030256327,0.1472244644397175,15.699000000000524
0.4834,0.0892,0.7656,-0.3742,0.4671,0.415,-0.7437,1.0588,-2.205,83.42614028230011,32.60822848681763,0.14774873799885194,15.715000000003783
0.4924,0.0841,0.7518,-0.3762,0.4664,0.4118,-0.6388,0.875,-2.1175,83.44462514965568,32.67288621624965,0.14478636419850835,15.730000000003201
0.4891,0.0861,0.7535,-0.3757,0.469,0.4124,-0.5075,0.945,-2.4588,83.44548954651717,32.694471119131784,0.14391572777524161,15.745999999999185
0.4889,0.0881,0.7694,-0.376,0.4674,0.4126,0.1225,0.9538,-2.2225,83.4543153496289,32.66938199128609,0.14240045500346363,15.761000000005879
0.4798,0.0842,0.765,-0.376,0.4674,0.4126,-0.4462,1.3825,-2.2487,83.47515406265804,32.644218149546504,0.14806840949811995,15.777000000001863
0.4896,0.0925,0.7625,-0.3748,0.4685,0.418,-0.805,0.9275,-2.6688,83.39100724560882,32.60819302947003,0.14661756855102892,15.793000000005122
0.4862,0.0883,0.754,-0.3758,0.468,0.4146,0.105,0.8838,-2.9575,83.36361372364415,32.62000853675764,0.1438871116896756,15.807999999997264
0.4903,0.0832,0.7638,-0.3762,0.4677,0.4128,-0.4725,1.3388,-2.4237,83.38705683554895,32.61070213530558,0.14877712052463565,15.824000000000524
0.4809,0.0907,0.7464,-0.3767,0.469,0.413,-0.3938,0.98,-2.5113,83.34883501643645,32.60918239188548,0.1471294084780761,15.839000000007218
0.4835,0.088,0.7499,-0.3767,0.469,0.413,-0.98,0.9363,-2.6337,83.33588763791023,32.61555873311271,0.14589918762688406,15.855000000003201
0.4844,0.0903,0.7554,-0.3759,0.4682,0.4088,-0.7875,0.9538,-2.3888,83.30479176669273,32.60327789391589,0.1450439888669938,15.871000000006461
0.4902,0.0902,0.7665,-0.3753,0.4674,0.4134,-0.4288,1.26,-2.4413,83.30326563703699,32.578642847952686,0.1475495899713834,15.885999999998603
0.4856,0.0842,0.7569,-0.3758,0.4672,0.4144,-0.8225,1.1375,-2.5463,83.38191417339566,32.56706509034488,0.1491746309775821,15.902000000001863
0.4926,0.0881,0.764,-0.3758,0.4672,0.4144,-0.4812,1.1113,-2.1175,83.38384161210928,32.577552526897364,0.14925971788651893,15.917000000008557
0.4848,0.0844,0.7707,-0.3756,0.4664,0.4121,-0.7437,0.9538,-2.4325,83.44796869780177,32.50536386363697,0.14806846609441934,15.93300000000454
0.4881,0.0877,0.7543,-0.3758,0.4679,0.4103,-0.8838,0.98,-2.4675,83.427189776403,32.540320879952404,0.1473736194878524,15.9490000000078
0.4864,0.0888,0.7526,-0.3767,0.4673,0.4133,0.0088,0.56,-2.6163,83.37229656596445,32.57860948087336,0.14019625753510673,15.963999999999942
0.4862,0.0824,0.754,-0.3758,0.4687,0.4142,-0.1838,0.4988,-2.1962,83.47319417681962,32.585236408816485,0.13335935178305938,15.980000000003201
0.4821,0.09,0.7547,-0.3758,0.4687,0.4142,-0.175,0.4288,-2.5638,83.40122584788334,32.541964436103015,0.12581221660452882,15.99500000000262
0.4896,0.089,0.7729,-0.3754,0.4691,0.4146,-0.63,1.0325,-2.7912,83.40391681924966,32.42097145232887,0.12809899494710494,16.01100000000588
0.4903,0.0833,0.7673,-0.375,0.4686,0.4127,-0.8313,1.0675,-2.2225,83.49618029173774,32.421277393522324,0.13066109544853574,16.027000000001863
0.4832,0.0891,0.7538,-0.376,0.4686,0.4122,-0.7962,0.63,-1.855,83.44653157115283,32.439012561339005,0.1260999859033521,16.04200000000128
0.5034,0.0775,0.7533,-0.376,0.4686,0.4122,-1.1463,0.9712,-1.7325,83.70519788096531,32.856901869622924,0.1274752673158661,16.05800000000454
0.4892,0.0802,0.7544,-0.375,0.4692,0.4189,-0.245,1.2775,-2.4588,83.75566045929261,32.85069386269319,0.1319739905752447,16.072999999996682
0.4892,0.0765,0.764,-0.375,0.467,0.4135,-0.1663,1.05,-2.3888,83.89649949120374,32.81778103145132,0.13389659152080058,16.088999999999942
0.4878,0.077,0.7627,-0.3746,0.4674,0.413,-0.7175,0.805,-2.66,83.94956652264354,32.72284142756736,0.13209893237108214,16.1050000000032
0.485,0.0876,0.7557,-0.3756,0.4667,0.413,-0.2275,0.63,-2.5812,83.81855982651378,32.67604137734291,0.1273940391336439,16.12000000000262
0.4882,0.0807,0.7569,-0.3756,0.4667,0.413,-1.2337,0.3762,-2.5025,83.857994681746,32.675794260415095,0.12007191522138315,16.13600000000588
0.4823,0.0947,0.7518,-0.3753,0.4676,0.4099,-0.9275,0.3938,-2.2138,83.56379979006576,32.662651583904186,0.1133810236964598,16.15099999999802
0.4892,0.0825,0.7611,-0.3761,0.4664,0.413,-0.7962,0.7,-2.1875,83.61604446926872,32.65525950458925,0.11212292132886739,16.16700000000128
0.4907,0.1021,0.7637,-0.3757,0.468,0.4118,-0.4025,0.9712,-2.45,83.47525618439883,32.63201100416024,0.11489590919882983,16.18300000000454
0.4873,0.0959,0.7521,-0.3757,0.468,0.4118,0.0437,1.085,-2.2575,83.20433031883647,32.63456927006337,0.11805381827837846,16.198000000003958
0.4941,0.0841,0.7646,-0.3746,0.4679,0.4082,-0.4638,0.9625,-2.2925,83.23729891342212,32.6352072657359,0.12010843645336429,16.214000000007218
0.48,0.0974,0.7516,-0.3744,0.4686,0.411,-0.6737,1.0762,-2.3363,83.16004674474459,32.62104030285863,0.12262629280041673,16.22899999999936
0.4794,0.0936,0.7562,-0.3765,0.4692,0.4107,-0.8662,1.1638,-2.275,83.10588860586516,32.61687541603393,0.12712238352378924,16.24500000000262
0.4921,0.0847,0.7513,-0.3762,0.4679,0.4133,-0.9363,1.0588,-1.75,83.23893986095905,32.77089969708384,0.1296568651745165,16.26100000000588
0.487,0.0953,0.7723,-0.3762,0.4679,0.4133,-0.4112,1.0325,-2.8525,83.20953188959987,32.50607190759146,0.13062992865652395,16.276000000005297
0.4867,0.0697,0.7511,-0.3742,0.4674,0.4173,-1.1025,0.9275,-2.6775,83.75054608113284,32.59762190253752,0.13092293579359252,16.292000000008557
0.4895,0.0879,0.761,-0.3754,0.4674,0.4147,-0.9625,1.435,-2.6075,83.6483643711743,32.5928147017114,0.13720314220408464,16.3070000000007
0.4805,0.0749,0.7514,-0.3757,0.4682,0.4118,-1.435,0.56,-2.2838,83.96120832880051,32.5927339127633,0.13154682798531903,16.323000000003958
0.4927,0.0753,0.762,-0.3757,0.4682,0.4118,-0.875,0.7962,-1.855,84.06221885048419,32.64280904888638,0.1298574251891229,16.339000000007218
0.4907,0.0985,0.7498,-0.3757,0.4687,0.4168,-0.0525,0.6825,-2.45,83.56133809698957,32.69044193927458,0.12608543266538383,16.35399999999936
0.486,0.0776,0.7608,-0.3752,0.4678,0.4129,-0.0875,1.0063,-2.1875,83.75040864753232,32.66796391404614,0.12796760940179758,16.37000000000262
0.4877,0.0672,0.7683,-0.375,0.4678,0.4124,-0.9275,1.085,-2.0825,84.10514406252877,32.60744495828532,0.12981834846104942,16.385000000002037
0.4815,0.1052,0.7616,-0.375,0.4683,0.4191,0.1663,1.0762,-2.7037,83.29550168066807,32.445107528106874,0.13233379361810169,16.401000000005297
0.4903,0.0881,0.7428,-0.3766,0.4683,0.4191,-0.7,0.7,-2.38,83.28693073775153,32.514769391400556,0.1291804142583451,16.417000000008557
0.4849,0.0981,0.7638,-0.3762,0.469,0.4144,-1.26,0.5512,-2.0563,83.03166240329075,32.45588364508152,0.12370357282861237,16.4320000000007
0.4853,0.1008,0.7562,-0.3769,0.4678,0.412,0.1925,0.9187,-2.2225,82.76944354721309,32.4562322148446,0.12456249554844628,16.448000000003958
0.4937,0.0777,0.7691,-0.3766,0.4674,0.413,-1.1375,0.7613,-1.9775,83.32090425212108,32.48179500953762,0.12238379599320283,16.463000000003376
0.4882,0.0976,0.7526,-0.3766,0.4674,0.413,-0.245,0.77,-2.4588,83.16272194498306,32.522070684314926,0.12123341639614148,16.479000000006636
0.4841,0.0712,0.7493,-0.3764,0.4673,0.4158,-0.4288,0.9187,-2.3275,83.29415233116359,32.531394907351235,0.12233935475320652,16.49500000000262
0.4898,0.0812,0.7664,-0.3762,0.468,0.4122,-1.3212,0.6562,-2.0912,83.58442895283267,32.51616809737413,0.11896411927754211,16.510000000002037
0.4887,0.0964,0.763,-0.3768,0.4665,0.4106,-0.63,0.7788,-2.4938,83.51412300690357,32.5019046928539,0.11828242735207264,16.526000000005297
0.4911,0.0744,0.7508,-0.3768,0.4665,0.4147,-0.6125,1.1725,-2.2138,83.57595392432303,32.53877924296556,0.12228293461625116,16.541000000004715
0.4891,0.0842,0.7363,-0.3756,0.4679,0.4147,-0.0263,0.5688,-2.4675,83.54248200146375,32.67565963819755,0.11824536115629472,16.557000000007974
0.484,0.0775,0.7557,-0.3754,0.4678,0.4158,0.5425,1.0412,-2.765,83.85428598327944,32.61935796895279,0.12141410503690163,16.573000000003958
0.484,0.0735,0.7608,-0.3767,0.469,0.413,-0.8575,0.735,-1.9688,84.00851672430242,32.55304969918606,0.11919519453282643,16.588000000003376
0.4917,0.0828,0.7649,-0.3758,0.4682,0.4135,-0.6825,0.5163,-2.4413,83.98404627917141,32.55703804225511,0.11471039508105843,16.604000000006636
0.4919,0.0822,0.7492,-0.3758,0.4682,0.4135,-0.3675,0.9887,-2.4062,83.94945295485698,32.61927647568701,0.11658680557243466,16.619000000006054
0.485,0.0712,0.7602,-0.3751,0.4679,0.4102,-0.3063,1.1375,-2.3537,84.07816531612937,32.606638138079475,0.12130812501852824,16.635000000009313
0.4813,0.0966,0.7705,-0.3761,0.4681,0.4121,0.2275,1.2075,-2.7912,83.5498531267378,32.3323007395215,0.12656531250440353,16.65099999999802
0.4909,0.0773,0.757,-0.3756,0.4688,0.4143,-1.0938,1.2862,-2.2138,83.77284606324804,32.36495499288108,0.1312724812617119,16.666000000004715
0.4902,0.0973,0.7609,-0.376,0.4674,0.414,-0.455,0.945,-2.1525,83.69737487705781,32.39001663156445,0.13175323313831303,16.682000000007974
0.4878,0.0936,0.7621,-0.376,0.4674,0.414,-0.525,0.7962,-2.1962,83.69274978398123,32.393079916838694,0.1293266098188508,16.697000000000116
0.4827,0.0866,0.7476,-0.3759,0.467,0.409,-0.8138,0.5688,-2.2925,83.62666899989499,32.3953314118575,0.12458466883863438,16.713000000003376
0.4896,0.0956,0.774,-0.3762,0.4681,0.412,-0.0875,0.9275,-2.7475,83.42126828483234,32.30821964880402,0.12548220195141832,16.72899999999936
0.4878,0.0775,0.756,-0.3769,0.4679,0.4107,-0.5512,1.0412,-2.5725,83.43517622435506,32.39479531883698,0.1269901817625492,16.744000000006054
0.489,0.0902,0.7546,-0.3769,0.4679,0.4107,-0.7788,0.9975,-2.6775,83.38531734795141,32.497568551969565,0.1286551635826886,16.760000000002037
0.4876,0.103,0.7547,-0.3757,0.469,0.4069,0.2187,1.1375,-2.695,82.88935919936644,32.534759701573,0.13114589722382386,16.775000000001455
0.4951,0.0803,0.7666,-0.3756,0.4676,0.4137,-1.1812,0.7,-1.8813,83.33464179053763,32.58615222234145,0.12811130750349506,16.791000000004715
0.4892,0.0908,0.7473,-0.376,0.4685,0.4125,-0.42,1.2513,-2.2925,83.30829020986901,32.58959538307702,0.1333188967486225,16.8070000000007
0.4785,0.0773,0.755,-0.376,0.469,0.4198,-0.5512,0.91,-2.3625,83.32450397882596,32.56360363751489,0.13227200707924253,16.822000000007392
0.4914,0.0855,0.7526,-0.376,0.469,0.4198,-0.2537,0.7088,-2.5113,83.36672768984334,32.639491595174434,0.1292515263687562,16.838000000003376
0.4869,0.0856,0.761,-0.3758,0.4675,0.4099,-0.385,0.385,-2.2138,83.39427934441153,32.62688506514664,0.12152387373167889,16.853000000002794
0.4802,0.0831,0.7537,-0.3748,0.468,0.4118,-0.91,1.1725,-2.1525,83.48044916454508,32.59408376074627,0.12625548636195072,16.869000000006054
0.4937,0.0911,0.7627,-0.3754,0.4675,0.4136,-0.4725,1.3388,-2.5113,83.46414986286075,32.61928001624197,0.13290865772091628,16.885000000002037
0.4879,0.088,0.7627,-0.3754,0.4675,0.4136,-0.8313,1.4963,-2.3363,83.45358817365666,32.61021423211264,0.1398178419578391,16.90000000000873
0.4846,0.0847,0.7592,-0.3745,0.4686,0.4118,0.0437,0.98,-2.31,83.5195269742245,32.60472215336923,0.13994805775851282,16.916000000004715
0.4907,0.0929,0.7559,-0.3756,0.4665,0.4118,-0.7962,0.49,-2.24,83.4094806117846,32.612785929439944,0.13256825198240485,16.931000000004133
0.4956,0.0946,0.7562,-0.3756,0.4665,0.4118,-0.14,0.98,-2.4062,83.2574810689674,32.65877070139757,0.13342342678703936,16.947000000007392
0.4851,0.0922,0.7563,-0.3763,0.4672,0.4062,-0.6737,0.595,-2.0387,83.23160206253594,32.62445852089067,0.12864908410618467,16.963000000003376
0.4814,0.0946,0.7578,-0.3752,0.4681,0.4139,-0.49,0.3762,-2.4062,83.21771233195162,32.58121161494768,0.12086287569536912,16.978000000002794
0.4928,0.098,0.7587,-0.3762,0.4669,0.4118,-0.1575,0.805,-2.5113,83.0603990688524,32.61960265344803,0.12036858812292238,16.993999999998778
0.489,0.0809,0.762,-0.3764,0.4671,0.4099,-0.7437,0.7,-2.0475,83.21423362445164,32.6050846756551,0.11778172931484729,17.00900000000547
0.4807,0.0886,0.7486,-0.3764,0.4671,0.4099,0.105,1.19,-2.6425,83.22822447497887,32.58394290489965,0.12313955637906109,17.025000000001455
0.493,0.0832,0.7599,-0.3765,0.4688,0.4182,-0.315,1.0412,-2.275,83.32144000161304,32.58614080836983,0.12581888074420952,17.041000000004715
0.491,0.0776,0.7595,-0.375,0.469,0.4131,-0.6388,0.9275,-1.9863,83.40318959734931,32.62292043486766,0.1257582426693027,17.056000000004133
0.4823,0.0862,0.7535,-0.3746,0.469,0.4122,-0.6125,1.3125,-2.1962,83.40846828891645,32.609187351050856,0.13208241839762813,17.072000000000116
0.4918,0.0869,0.7649,-0.3746,0.469,0.4122,-0.8487,1.3388,-2.205,83.43494073158169,32.60648571210195,0.1369479765659309,17.08700000000681
0.483,0.0909,0.7495,-0.3758,0.4682,0.416,-0.805,0.9275,-2.2662,83.3597974758066,32.606526248432644,0.1366091789059852,17.103000000002794
0.4906,0.0944,0.7474,-0.3754,0.4665,0.4113,-0.805,0.3938,-2.625,83.2399294470426,32.725174061734066,0.12861898101654196,17.119000000006054
0.4917,0.0908,0.7555,-0.3753,0.469,0.4134,-1.0237,1.2425,-2.3363,83.2092043132199,32.73229377048859,0.13253083291423687,17.13400000000547
0.4819,0.0859,0.7571,-0.3757,0.4678,0.4116,-0.5337,0.7613,-2.3363,83.20985181721845,32.71154345828434,0.1302404696200613,17.150000000001455
0.4782,0.0952,0.7529,-0.3757,0.4678,0.4116,-0.07,0.9187,-2.3187,83.07835295389873,32.695139700250174,0.12961887266358987,17.16500000000815
0.4932,0.0831,0.7553,-0.3756,0.4678,0.4114,-0.5512,0.7962,-2.1263,83.09067903722756,32.73490657810889,0.12812226539435287,17.181000000004133
0.492,0.091,0.7598,-0.3761,0.4692,0.4121,-0.5425,0.8575,-2.3537,83.0915331416823,32.735155062243294,0.1276580388574332,17.197000000007392
0.4795,0.0808,0.7559,-0.3758,0.4663,0.411,0.0175,1.19,-2.345,83.3776575801003,32.70698308717594,0.13095723497106648,17.21200000000681
0.4882,0.0806,0.7615,-0.3758,0.4663,0.411,-0.8575,1.2425,-2.5725,83.52030753737282,32.664992924839005,0.1357535114694686,17.228000000002794
0.4925,0.0872,0.7595,-0.3762,0.4682,0.4182,-0.385,0.9887,-2.7213,83.5113680685347,32.7031439246936,0.13552561032847815,17.243000000009488
0.4907,0.0812,0.7512,-0.3743,0.4683,0.4138,-0.875,0.8313,-2.1,83.5929701066425,32.74956680201083,0.1339437692871818,17.258999999998196
0.4957,0.0864,0.7584,-0.3754,0.4674,0.4144,-0.56,0.9363,-2.17,83.59042578673686,32.77530544553999,0.1340321123612104,17.275000000001455
0.4825,0.0831,0.7649,-0.3762,0.4672,0.4111,-0.5425,0.875,-2.2313,83.59266943570412,32.74083229227442,0.132441401124631,17.290000000000873
0.4818,0.0811,0.763,-0.3762,0.4672,0.4111,-0.7088,1.225,-2.205,83.64384746778914,32.69553533430638,0.13683726101576163,17.306000000004133
0.495,0.0943,0.7551,-0.3763,0.4672,0.4125,-0.2887,1.3125,-2.59,83.49483734547252,32.776989407801956,0.1408722849134979,17.32100000000355
0.4964,0.087,0.7473,-0.3759,0.467,0.414,-0.6737,1.0762,-2.38,83.47801327099027,32.83279736615409,0.14228233641825797,17.336999999999534
0.4787,0.0897,0.7598,-0.376,0.4676,0.413,-0.4025,1.26,-2.4938,83.45387383950411,32.69447966887814,0.1461981027801286,17.353000000002794
0.4859,0.093,0.7671,-0.376,0.4676,0.413,-0.35,1.1988,-2.2838,83.39754059132197,32.694131457498216,0.14776209250148772,17.368000000002212
0.496,0.0855,0.7521,-0.3757,0.4689,0.4119,-0.8575,1.1287,-1.8375,83.42625097663127,32.86134745147696,0.14923916325465017,17.38400000000547
0.4961,0.0917,0.7541,-0.3773,0.4672,0.4128,-0.5337,1.47,-2.205,83.42551840026152,32.882368320609096,0.15416024692841507,17.39900000000489
0.4899,0.0925,0.7521,-0.3758,0.4675,0.4114,-0.175,1.4525,-2.3012,83.31061885713382,32.88237651389113,0.15966022223032322,17.415000000000873
0.4831,0.0833,0.762,-0.3762,0.4674,0.4112,-0.5337,1.1113,-2.0213,83.3115373468096,32.7444997987325,0.15969692001055108,17.431000000004133
0.4776,0.0917,0.7641,-0.3762,0.4674,0.4112,-0.2362,1.3563,-2.0213,83.27620847417485,32.55264151778542,0.16203727800878545,17.44600000000355
0.4926,0.0828,0.7481,-0.3738,0.4678,0.4117,-0.6562,1.295,-2.8437,83.32139171589706,32.786120168019636,0.16448155021170602,17.46200000000681
0.4901,0.0825,0.7577,-0.3742,0.4682,0.4117,-0.8838,0.9625,-2.3012,83.44238880484873,32.78539439558275,0.1610271451900312,17.477000000006228
0.483,0.091,0.7596,-0.3758,0.4677,0.4114,-0.5075,1.1113,-2.275,83.43592896353368,32.78053069619385,0.16092715066701108,17.493000000002212
0.4798,0.0752,0.7567,-0.3758,0.4677,0.4114,-0.6737,0.91,-2.2138,83.5464633199939,32.74554109005495,0.1579384356029796,17.50900000000547
0.4873,0.0824,0.7596,-0.3764,0.4683,0.4081,-0.0088,1.3913,-2.4762,83.63655768554447,32.710689239904,0.1609271420419528,17.52400000000489
0.4937,0.0902,0.7638,-0.3758,0.4665,0.4136,-0.7262,0.7437,-2.205,83.57603325508752,32.70967607087573,0.15554370783506927,17.540000000000873
0.4979,0.0753,0.7554,-0.3753,0.4684,0.4139,-0.8575,0.7875,-2.1875,83.75578320417111,32.75828911058193,0.1506205870511498,17.55500000000029
0.487,0.099,0.7612,-0.3767,0.467,0.4123,-0.9275,0.7175,-2.5375,83.42513486723763,32.68442305024924,0.14589052834813973,17.57100000000355
0.4866,0.0869,0.7694,-0.3767,0.467,0.4123,-0.5075,0.6737,-2.3712,83.42822239385637,32.641534120946936,0.14100275551530217,17.58700000000681
0.4906,0.0917,0.7503,-0.3764,0.4694,0.4121,-0.7875,0.63,-2.24,83.34750216805033,32.65616480386155,0.13540747995931646,17.601999999998952
0.4903,0.0962,0.7462,-0.3758,0.4679,0.4115,-0.0525,1.085,-2.9225,83.12283475942914,32.8255604731704,0.13749073196656783,17.618000000002212
0.4854,0.0793,0.7611,-0.3769,0.4684,0.4127,-0.8838,0.9538,-2.3975,83.36475222029034,32.78112770235555,0.13661795876941138,17.63300000000163
0.4815,0.0889,0.7529,-0.3769,0.4684,0.4127,-0.665,1.12,-1.785,83.35311951496874,32.66092097436913,0.13908416289575595,17.64900000000489
0.5012,0.078,0.7669,-0.3746,0.4684,0.4039,-0.6737,0.9625,-1.8813,83.45752047399526,32.76735454633139,0.13903574660900403,17.66500000000815
0.4917,0.0764,0.7543,-0.3754,0.4693,0.4138,-1.1988,0.6737,-2.4762,83.76122835251572,32.79918722866139,0.13422712194333905,17.68000000000029
0.4925,0.0891,0.7596,-0.376,0.4677,0.4118,-0.1138,0.9187,-2.1,83.62820461945776,32.796139570855004,0.13403368975170032,17.69600000000355
0.4811,0.0778,0.7573,-0.3753,0.467,0.4153,-0.7,0.6913,-1.995,83.70113865008489,32.682775859140456,0.12996287077616814,17.71100000000297
0.4825,0.0732,0.759,-0.3753,0.467,0.4153,-1.2075,1.155,-2.3275,84.01979006483555,32.66798443937433,0.13359858370193972,17.727000000006228
0.4923,0.0986,0.7623,-0.3744,0.4681,0.4141,-0.5337,0.8138,-1.8988,84.01695784248005,32.65977225502319,0.13195744533413317,17.743000000009488
0.4869,0.0764,0.7468,-0.375,0.468,0.4135,-1.6363,0.7525,-1.9775,84.0913956784825,32.73199960728053,0.128920450795398,17.75800000000163
0.4879,0.1042,0.7656,-0.3755,0.4672,0.4119,-0.6825,0.4988,-1.96,83.84998036415553,32.61897429768083,0.12321112571732151,17.77400000000489
0.4917,0.0971,0.7688,-0.3755,0.4672,0.4119,-0.1838,1.12,-2.3187,83.57941623999899,32.61159929772633,0.12601001314500265,17.789000000004307
0.4872,0.085,0.742,-0.3757,0.4674,0.4137,-0.5075,1.1638,-2.0387,83.57671629181178,32.7114822083433,0.1301677318339166,17.805000000007567
0.4888,0.0988,0.7603,-0.3756,0.4694,0.4123,-0.9013,1.05,-2.5113,83.31203249866908,32.67594550827977,0.13227095864672953,17.82100000000355
0.4889,0.0988,0.7562,-0.3759,0.4677,0.4119,-0.35,0.8662,-2.0912,83.19585012179643,32.673826177298814,0.13073756278160278,17.83600000000297
0.4862,0.0803,0.7583,-0.3759,0.4668,0.4106,-0.4288,0.8838,-2.03,83.26667128061652,32.64299522889676,0.1303905265060353,17.852000000006228
0.4911,0.0906,0.7576,-0.375,0.4668,0.4106,0.105,1.015,-1.925,83.23314636007515,32.67582574847689,0.13105397385490003,17.867000000005646
0.4834,0.0783,0.7604,-0.3759,0.4671,0.4134,-0.07,0.8925,-2.4588,83.51352446452714,32.621248585805915,0.13080057646618393,17.88300000000163
0.4762,0.0798,0.7461,-0.3753,0.4678,0.4113,-0.4462,0.9887,-2.1613,83.5435636255608,32.59704799837356,0.13195779881599168,17.898999999997613
0.4934,0.0937,0.7628,-0.3771,0.4681,0.413,-0.4988,0.9013,-2.17,83.52617738732829,32.60767732795492,0.13092956893982238,17.914000000004307
0.4843,0.0801,0.7537,-0.3771,0.4681,0.413,-0.595,0.7262,-2.3712,83.5504483192211,32.605241179738634,0.12829389204797056,17.930000000007567
0.4874,0.0941,0.7571,-0.3757,0.469,0.4106,0.21,0.63,-2.7825,83.27986881187579,32.59443773511027,0.12396950283871801,17.94499999999971
0.495,0.0933,0.763,-0.3758,0.4679,0.4121,-0.35,0.9187,-2.6425,83.24121859347659,32.643321094093054,0.12480183255754136,17.96100000000297
0.4952,0.0816,0.7524,-0.3754,0.4669,0.4114,-1.12,0.7788,-1.9075,83.45201202275335,32.79508094747966,0.12353636929897212,17.976999999998952
0.4832,0.0925,0.7558,-0.3763,0.4672,0.4096,-0.5337,0.735,-2.415,83.45113664135465,32.749311280887696,0.12110523237350292,17.992000000005646
0.4817,0.0962,0.7473,-0.3763,0.4672,0.4096,-0.6125,0.6913,-2.2313,83.392311098168,32.74133412792394,0.11894942913818067,18.008000000008906
0.4846,0.0772,0.7632,-0.3765,0.4665,0.413,-0.4988,0.9625,-2.3187,83.41876949814751,32.726125375880756,0.12004823621755559,18.023000000001048
0.4905,0.0978,0.7804,-0.3744,0.4672,0.4134,-0.0525,0.6825,-2.6513,83.23676158836027,32.51770150572756,0.11787141259780226,18.039000000004307
0.4925,0.0775,0.7441,-0.3751,0.4675,0.4126,-0.4025,1.225,-2.1875,83.3302329114151,32.59191931671124,0.12372427133359404,18.05500000000029
0.5043,0.0885,0.756,-0.3751,0.4675,0.4126,-0.4375,0.3063,-2.6688,83.32962294862777,32.85126461528923,0.11989761420097275,18.08600000000297
0.4778,0.0969,0.7486,-0.3765,0.4683,0.4143,-0.6475,1.4,-2.7825,83.25642535835608,32.67892136651646,0.12680785278014206,18.101000000002387
0.4746,0.075,0.7562,-0.376,0.468,0.4104,-0.8838,1.1812,-2.4062,83.53756150974887,32.60379730102954,0.1311363475055931,18.117000000005646
0.484,0.088,0.7766,-0.3767,0.4692,0.413,-0.1138,0.77,-2.835,83.53684676086131,32.307226843627056,0.12911071275225047,18.13300000000163
0.4939,0.0784,0.7474,-0.3742,0.4681,0.4141,-0.4988,1.3038,-2.6513,83.55195457355876,32.57733849680084,0.13380094148488017,18.148000000008324
0.4945,0.0786,0.7529,-0.3742,0.4681,0.4141,-0.4025,1.225,-2.345,83.60779300275456,32.61027770643384,0.13806084732394241,18.16399999999703
0.4809,0.0967,0.76,-0.3766,0.4674,0.4131,-0.14,0.6737,-2.905,83.36605239951703,32.42123571761341,0.13334971259560688,18.179000000003725
0.4859,0.075,0.774,-0.3754,0.4678,0.4127,-1.2075,0.98,-2.2313,83.80938776776011,32.39993713480148,0.1341267413389212,18.195000000006985
0.4933,0.1022,0.7587,-0.375,0.47,0.4117,-1.0938,1.0412,-2.0912,83.27637860556811,32.4641741341508,0.13570734720126545,18.21100000000297
0.4931,0.0954,0.7611,-0.375,0.47,0.4117,-0.6212,0.3588,-2.415,83.24179172821414,32.495428793615865,0.12698041248095093,18.226000000002387
0.491,0.0756,0.7483,-0.3755,0.4677,0.4121,-1.0938,0.7788,-1.9863,83.59777574682646,32.64295154497986,0.1254970912300407,18.24199999999837
0.4786,0.1,0.7581,-0.3757,0.4673,0.413,-0.105,0.9712,-2.59,83.26515825560615,32.502348344417456,0.12605858211288765,18.257000000005064
0.4753,0.0922,0.7589,-0.3757,0.4683,0.414,-1.3475,0.5425,-2.3625,83.17881894402608,32.4566013733731,0.1212647239031904,18.273000000008324
0.4959,0.0933,0.7576,-0.375,0.4683,0.4134,-0.665,0.9887,-2.03,83.15533978685137,32.568880547216864,0.12337553150929753,18.289000000004307
0.4919,0.0978,0.7498,-0.375,0.4683,0.4134,0.2975,1.2075,-2.3975,82.88936681046137,32.6172629525831,0.12733922835773523,18.304000000003725
0.4806,0.0794,0.7679,-0.3761,0.4674,0.4046,-0.875,0.91,-1.785,83.19793614789894,32.37970395907493,0.12770930551867232,18.31999999999971
0.478,0.093,0.7637,-0.3753,0.4666,0.4126,-0.3675,1.3475,-2.7475,83.17805701332587,32.21304118030439,0.1331296249749231,18.335000000006403
0.4902,0.0716,0.7425,-0.3763,0.4671,0.4149,-0.35,1.1988,-2.4588,83.38004260189854,32.376055240307664,0.1370793824730975,18.351000000002387
0.4839,0.0769,0.7579,-0.3763,0.4671,0.4149,-1.12,0.5337,-2.0038,83.68611212138042,32.38661861461292,0.13105672422735345,18.367000000005646
0.4905,0.0848,0.7712,-0.3749,0.4684,0.4175,-0.2887,0.9275,-2.3012,83.69372331546269,32.38521736615161,0.13047230180413222,18.382000000005064
0.484,0.072,0.7559,-0.375,0.4678,0.4134,-0.5863,0.8487,-1.6187,83.73855166199282,32.43664766122676,0.12964635162065122,18.398000000001048
0.4837,0.0777,0.7651,-0.3759,0.4682,0.4129,-0.2713,0.6037,-2.6075,83.83412054039826,32.371212232415964,0.12483166646222309,18.41300000000774
0.4866,0.0845,0.7393,-0.3744,0.4681,0.4154,-0.2013,0.8313,-2.3888,83.74607079504491,32.44781841818576,0.12431921981299587,18.429000000003725
0.4913,0.0723,0.7554,-0.3744,0.4681,0.4154,-0.1488,1.1638,-2.275,83.9638912488629,32.45224145287098,0.1286460178274895,18.44499999999971
0.4906,0.0997,0.7591,-0.3749,0.4692,0.4099,-0.4375,0.595,-2.555,83.83943162523248,32.494623883131034,0.12381391604832512,18.460000000006403
0.4829,0.0819,0.7591,-0.3758,0.4672,0.4122,-0.9538,1.1025,-2.0213,83.8402311731622,32.456668129676736,0.1273085244395074,18.476000000002387
0.4929,0.0999,0.7565,-0.3763,0.4683,0.4136,-1.3475,0.665,-2.1088,83.227879492341,32.51696746642771,0.12355517199520831,18.491000000001804
0.4925,0.0999,0.7534,-0.3763,0.4683,0.4136,-0.5775,0.84,-2.4938,83.19363862324553,32.59097425433075,0.12329565479265113,18.506999999997788
0.478,0.0823,0.7614,-0.3762,0.4671,0.4154,-1.0938,0.7788,-2.3275,83.42293408292491,32.565370979512885,0.12218080931567075,18.523000000001048
0.4832,0.1,0.7704,-0.376,0.4682,0.4126,-0.6037,0.63,-2.4675,83.36791487752795,32.45950491865878,0.11846772838789912,18.53800000000774
0.482,0.0968,0.7611,-0.3754,0.4673,0.4142,-0.8225,0.8838,-2.5725,83.22909442091196,32.38769680621287,0.12093851554623865,18.556000000004133
0.4932,0.0875,0.7587,-0.3754,0.4699,0.411,-0.7875,0.49,-2.1263,83.26823216526594,32.45130830966593,0.1154596639913581,18.57100000000355
0.4893,0.0998,0.7653,-0.3767,0.4699,0.411,-0.3938,0.6388,-2.4938,83.18366065248647,32.43796928339945,0.11368733759212189,18.588000000003376
0.489,0.0737,0.7564,-0.377,0.4692,0.4166,-0.9538,0.98,-2.45,83.55508447402732,32.48352330826658,0.10761060383398782,18.5940000000046
0.4867,0.0858,0.7433,-0.3763,0.4674,0.4122,-0.5337,0.9187,-2.6513,83.5547998647525,32.63355542347683,0.10511784344625753,18.60399999999936
0.4951,0.0795,0.7648,-0.3759,0.4682,0.4138,-0.525,0.8138,-2.6425,83.55817754575077,32.67138903519955,0.10412751910623609,18.617000000005646
0.4952,0.082,0.7623,-0.3759,0.4682,0.4138,-0.9187,0.7875,-2.31,83.64249535895917,32.67603451511046,0.10292851719491115,18.630000000004657
0.4849,0.0875,0.7634,-0.3752,0.4693,0.4079,-0.245,0.735,-2.45,83.60213972568003,32.61610586879876,0.09991216547449594,18.64100000000326
0.4853,0.0814,0.7593,-0.377,0.4694,0.4122,-0.5688,1.2513,-2.3975,83.61212740892817,32.59780918668286,0.09555179893229049,18.646000000007916
0.4804,0.084,0.7527,-0.3769,0.4682,0.4124,-1.2075,0.805,-2.2138,83.6202382395098,32.583889333182775,0.08961911903716373,18.651000000005297
0.494,0.0878,0.7625,-0.3769,0.4685,0.413,-0.6212,0.98,-2.3712,83.60472389746495,32.59842425180826,0.08506720713755449,18.656000000009954
0.4901,0.0817,0.7498,-0.3772,0.4685,0.413,-0.91,0.9975,-2.275,83.65323302254517,32.60233176080804,0.08104923641491554,18.661000000000058
0.4818,0.0909,0.7555,-0.3754,0.4676,0.4102,-0.8225,0.7962,-2.555,83.53743432172179,32.54652065950154,0.07652721277676083,18.666000000004715
0.4828,0.0856,0.7537,-0.3754,0.4678,0.4137,-0.9363,1.1025,-2.31,83.53255835349354,32.544763936122436,0.07383574149648571,18.671000000002095
0.4925,0.0907,0.7555,-0.376,0.4666,0.4124,-0.8313,0.7788,-2.38,83.44533339095852,32.57683537605793,0.06925584735250818,18.675000000010186
0.4985,0.0911,0.7578,-0.376,0.4666,0.4124,-0.7262,0.9975,-2.4325,83.39642189544388,32.650678525495934,0.07579651261020282,18.69000000000233
0.486,0.0823,0.7572,-0.376,0.4685,0.4245,-0.3675,1.54,-2.6163,83.45289013238269,32.6233884184792,0.0751468613556366,18.695000000006985
0.4863,0.0911,0.7625,-0.3765,0.469,0.411,0.1138,1.1287,-2.5463,83.3485348636778,32.5655622798835,0.07779047522214247,18.705000000009022
0.4913,0.0911,0.7608,-0.3756,0.4667,0.4132,-0.2187,0.5775,-2.0738,83.3064029745922,32.58329501424754,0.07468917769520869,18.713999999999942
0.4831,0.0824,0.7571,-0.3756,0.4667,0.4125,-0.5337,0.7262,-2.345,83.3073855838043,32.57219536101822,0.07375605993177475,18.724000000009255
0.4861,0.088,0.7527,-0.3754,0.4686,0.4125,-0.6212,0.6388,-2.5638,83.30938235523693,32.59523610882348,0.06925505393709136,18.729000000006636
0.4819,0.0866,0.755,-0.3751,0.4685,0.4116,-0.6212,1.0237,-2.4938,83.3214857847402,32.55791095255542,0.06785752854450842,18.735000000007858
0.4896,0.0843,0.7654,-0.3766,0.4687,0.4115,-0.6212,0.8925,-2.5287,83.35381465219577,32.53654106103174,0.0650880256879536,18.74000000000524
0.4901,0.0882,0.7571,-0.3754,0.4676,0.4129,-1.0063,0.735,-2.3712,83.35424662551955,32.55283031958505,0.06188672311742555,18.74500000000262
0.4819,0.0839,0.7577,-0.3754,0.4676,0.4129,-1.015,0.9887,-2.2487,83.46084452840374,32.54405492437595,0.07260482081236454,18.764000000010128
0.4902,0.0933,0.769,-0.3753,0.4692,0.415,-0.4638,0.9975,-2.205,83.43679085862412,32.52800962903768,0.07970833872099044,18.779999999998836
0.4862,0.085,0.7533,-0.3748,0.4675,0.4138,-0.4462,1.155,-2.7475,83.44666076865671,32.57432793460777,0.08836950485227978,18.796000000002095
0.4903,0.0822,0.7591,-0.3751,0.4682,0.4121,-0.6125,1.0762,-2.415,83.4745656091752,32.58956081163469,0.094061254366488,18.811000000001513
0.487,0.0908,0.7515,-0.3751,0.4687,0.4119,-0.4112,1.5488,-2.45,83.43543992062023,32.61313443065598,0.10695784893438286,18.827000000004773
0.4851,0.0888,0.7535,-0.3757,0.4687,0.4119,-0.56,0.9625,-2.4325,83.43111982961436,32.610623945287855,0.10925581404044034,18.84200000000419
0.487,0.0909,0.7527,-0.3756,0.4683,0.4157,-0.4288,1.0063,-2.7125,83.40154437250591,32.64165112273229,0.11282095263275883,18.858000000000175
0.4864,0.0929,0.7626,-0.3745,0.4672,0.4134,-0.7,0.9013,-2.5463,83.35153224079829,32.57893717469407,0.11451757737212706,18.874000000003434
0.4893,0.0877,0.7537,-0.3758,0.4675,0.413,-1.0412,1.4175,-2.2662,83.35538635278208,32.58318368946182,0.12220206963417177,18.889000000002852
0.4844,0.0877,0.7678,-0.3758,0.4675,0.413,-0.0613,1.4088,-2.1788,83.39645740253489,32.535120686871196,0.13026858267488753,18.905000000006112
0.4892,0.0817,0.7493,-0.3769,0.469,0.4084,-0.385,0.805,-2.3625,83.44517128311679,32.567671943951666,0.12810922440697706,18.92000000000553
0.491,0.0886,0.7569,-0.3756,0.4676,0.4115,-0.4375,0.8487,-2.3363,83.4347047000245,32.57881094588201,0.12751958196321156,18.936000000001513
0.4878,0.091,0.75,-0.3762,0.4674,0.413,-0.3063,0.8313,-2.3012,83.3698249530972,32.58325915580484,0.12673834376932916,18.952000000004773
0.4826,0.0836,0.7621,-0.3762,0.4674,0.413,-0.7875,0.8838,-1.9688,83.44520932059848,32.488752999625554,0.12599580939193325,18.96700000000419
0.4827,0.0877,0.7515,-0.3761,0.4681,0.4142,-0.2713,0.7175,-1.9688,83.42423893495075,32.50039925032895,0.12372822845484484,18.98300000000745
0.487,0.0843,0.7502,-0.3758,0.4686,0.417,-0.7088,0.49,-2.2925,83.44896778011173,32.502998348148935,0.11797040560589496,18.997999999999593
0.4882,0.0841,0.7391,-0.3759,0.4679,0.4123,-0.7262,0.7788,-2.5287,83.4586474243336,32.6548977498957,0.1173880850475902,19.014000000002852
0.4846,0.0869,0.7456,-0.3743,0.4673,0.411,-0.5425,0.6562,-2.6775,83.4575051156776,32.7086283959748,0.11509855654475624,19.030000000006112
0.4851,0.0817,0.7488,-0.3743,0.4673,0.411,-0.5425,0.3675,-2.6163,83.46089125963653,32.72694064894859,0.1085499508900881,19.04500000000553
0.4832,0.1001,0.7729,-0.3759,0.4684,0.4104,-0.3325,0.2625,-2.555,83.32132982694598,32.52932789995589,0.10147495580013044,19.061000000001513
0.4888,0.0868,0.763,-0.3758,0.4674,0.4132,-0.945,0.5512,-2.4762,83.37646385682483,32.52102305407083,0.09876866021982864,19.07600000000093
0.4898,0.0825,0.7582,-0.3762,0.4682,0.4122,-0.7962,0.9275,-2.5025,83.46298764119473,32.55469244485522,0.10224779420056675,19.09200000000419
0.4873,0.0904,0.7616,-0.3771,0.469,0.4102,-0.4112,0.8138,-2.4062,83.43802645323285,32.541260722973846,0.10374173478289749,19.10800000000745
0.4854,0.0864,0.7724,-0.3771,0.469,0.4102,-0.0787,1.2337,-2.52,83.4939694856098,32.43545359204412,0.11002251129588272,19.122999999999593
0.4907,0.0928,0.7598,-0.3758,0.4683,0.4198,-0.3588,1.225,-2.3363,83.42655141803877,32.44664315456952,0.11666026016988822,19.139000000002852
0.491,0.0883,0.7474,-0.3754,0.4679,0.4131,-0.7175,0.91,-2.8,83.400785816591,32.67593869738676,0.11727923415242268,19.15400000000227
0.4892,0.0841,0.7551,-0.3757,0.4678,0.4134,-0.525,1.365,-2.065,83.40239983724831,32.69406721768586,0.12520731074118488,19.17000000000553
0.4864,0.0902,0.7699,-0.3757,0.4678,0.4134,-0.385,0.8575,-2.3187,83.39157937412894,32.674641793241754,0.125034579669582,19.18600000000879
0.4887,0.0808,0.7457,-0.3756,0.468,0.4097,-0.4375,1.0588,-2.4938,83.4280915703482,32.745850963036574,0.12682492169513573,19.20100000000093
0.4869,0.0853,0.7444,-0.3758,0.4678,0.4119,-0.2887,0.9187,-2.4588,83.43492477170136,32.78611741727017,0.12737170952831733,19.21700000000419
0.4852,0.0879,0.7519,-0.3756,0.4676,0.4116,-0.525,0.9887,-2.485,83.43424514581965,32.764579406381586,0.12798198857496768,19.23200000000361
0.4833,0.0848,0.7616,-0.3756,0.4676,0.4116,-0.7262,0.7175,-2.3888,83.46882862516368,32.71493116108426,0.12551578971957583,19.24800000000687
0.4851,0.089,0.7676,-0.3756,0.4691,0.4114,-0.455,1.0063,-2.7475,83.46295444431412,32.526364056571445,0.1274549307439808,19.264000000002852
0.494,0.0858,0.7502,-0.3763,0.4692,0.4144,-0.4638,0.8662,-2.7912,83.46374909160265,32.750822142196164,0.12640313766912892,19.27900000000227
0.4906,0.0905,0.7564,-0.3757,0.4678,0.4122,-0.4112,1.1375,-2.1,83.43294709177927,32.75563981148458,0.13014282390555307,19.29500000000553
0.4829,0.0841,0.7521,-0.3753,0.4678,0.4117,-0.6913,0.805,-2.1437,83.45865324166006,32.729232588138814,0.12799604151457605,19.310000000004948
0.4878,0.086,0.7662,-0.3753,0.4678,0.4117,-0.3588,0.5863,-2.2313,83.4788658898282,32.708604814680925,0.12363915736483846,19.326000000008207
0.4934,0.0841,0.7662,-0.3759,0.4684,0.4141,-0.5075,0.7525,-2.345,83.48493472315754,32.7037649256672,0.12211124162070691,19.341999999996915
0.4892,0.0817,0.7592,-0.3758,0.4694,0.4149,-1.0063,0.7437,-2.5287,83.60496489259073,32.6924659567648,0.11994006746311665,19.35700000000361
0.4825,0.0924,0.7585,-0.3742,0.4677,0.4131,-0.8313,0.7175,-2.7387,83.47804789415677,32.56069274246835,0.11827806071890988,19.37300000000687
0.4903,0.0847,0.7629,-0.3742,0.4677,0.4131,-0.8662,1.1812,-2.6337,83.52485126327493,32.56273741253793,0.12239645463866518,19.38799999999901
0.4881,0.0794,0.7542,-0.377,0.4678,0.4056,-0.6825,0.4462,-2.7037,83.58584539356828,32.62281072334871,0.11658208917610767,19.40400000000227
0.4884,0.0919,0.7605,-0.3751,0.4677,0.4123,0.0263,0.5863,-2.7738,83.41532090088249,32.58916087088197,0.11336660025637761,19.419999999998254
0.4853,0.0836,0.7488,-0.376,0.4692,0.4128,-0.0613,1.68,-2.1175,83.48385989911844,32.617273515572755,0.12470994024086099,19.435000000004948
0.4875,0.094,0.7721,-0.3753,0.4674,0.4134,-0.4112,0.5688,-2.0475,83.438144901982,32.51399312043938,0.12042966621844355,19.451000000008207
0.485,0.0902,0.7519,-0.3753,0.4674,0.4134,-0.5863,0.9887,-2.1613,83.4236992352581,32.527497817402974,0.12173414958960688,19.46600000000035
0.4845,0.0866,0.7544,-0.3754,0.4675,0.4189,-0.455,0.7788,-2.2225,83.42567845210762,32.52820327935523,0.12077545463293093,19.48200000000361
0.4857,0.0913,0.7552,-0.3751,0.4678,0.413,-0.4462,1.0237,-2.6163,83.40056318443447,32.535602306017594,0.12343918916593749,19.497999999999593
0.4872,0.0813,0.7568,-0.3767,0.4674,0.4116,-0.2537,0.84,-2.5725,83.50233106751283,32.555037955862375,0.12243527025440432,19.513000000006286
0.4905,0.0851,0.7492,-0.3767,0.4674,0.4116,-0.7613,0.7788,-2.7475,83.50556954127067,32.70998658212217,0.12140646322614876,19.52900000000227
0.4859,0.092,0.7675,-0.3762,0.4677,0.4099,-0.385,1.3737,-2.7825,83.46195761181083,32.52488981652477,0.12781076690281423,19.544000000001688
0.479,0.082,0.7461,-0.3755,0.4682,0.4122,-0.2713,1.2775,-2.3363,83.51693355255807,32.52585592216744,0.1334256902162806,19.560000000004948
0.4975,0.094,0.7648,-0.3761,0.468,0.4149,-0.2187,0.9363,-2.7213,83.3920566675568,32.62375032218406,0.1335658411912681,19.57600000000093
0.4854,0.088,0.772,-0.3757,0.4682,0.4166,-0.6737,0.9975,-2.38,83.40510208471659,32.56878230422884,0.13367550707815073,19.591000000007625
0.4859,0.0797,0.7533,-0.3757,0.4682,0.4166,-0.7613,1.0237,-2.6513,83.50882726337119,32.59811558971356,0.13504923636663532,19.60700000000361
0.4925,0.098,0.7793,-0.3761,0.4689,0.4052,-0.3237,1.19,-2.3275,83.39238577977278,32.57711790105632,0.1376093127293484,19.622000000003027
0.4903,0.0784,0.7603,-0.3754,0.4679,0.4135,-0.8138,1.0675,-1.9863,83.55087891754188,32.60055929133699,0.13922038145954524,19.638000000006286
0.485,0.0966,0.7676,-0.3756,0.4669,0.4134,-1.0588,1.0237,-2.52,83.30108391174547,32.501964969926355,0.14003962330989037,19.65400000000227
0.4893,0.0872,0.7572,-0.3756,0.4669,0.4134,-0.2625,0.7613,-2.3975,83.3285708444272,32.52193441960604,0.1363132109785025,19.669000000001688
0.4864,0.0797,0.765,-0.3761,0.4692,0.4134,-0.6212,0.8487,-2.5463,83.38804185898067,32.47775345521459,0.13490316987758447,19.68499999999767
0.4846,0.0944,0.7541,-0.3761,0.4675,0.4129,-0.0962,1.3737,-2.6513,83.22928103731059,32.4899941258347,0.1399578028981019,19.700000000004366
0.4884,0.086,0.7602,-0.3753,0.4673,0.4118,-0.21,1.0762,-2.66,83.30628370364656,32.50740645534469,0.14145930261144893,19.716000000007625
0.4839,0.0938,0.7605,-0.3749,0.467,0.4124,-0.2975,0.7175,-2.3975,83.24222520348526,32.48356675491399,0.13764537234771052,19.73200000000361
0.4806,0.0946,0.7551,-0.3749,0.467,0.4124,-0.5163,1.3038,-2.31,83.23643028938463,32.47834301991734,0.14148213511225646,19.747000000003027
0.4869,0.0829,0.7505,-0.375,0.4677,0.4162,-0.595,1.015,-2.2662,83.26384676160039,32.484392161186925,0.14194992159736192,19.76299999999901
0.4923,0.0938,0.7713,-0.3758,0.4678,0.4135,-0.9887,0.6562,-2.1263,83.20183229287055,32.467206709171926,0.136613629441579,19.778000000005704
0.4734,0.0966,0.7656,-0.3766,0.4678,0.4121,-0.6825,0.6475,-2.52,83.15030084506554,32.28816615362942,0.1322762664950806,19.794000000001688
0.4892,0.0798,0.7585,-0.3766,0.4678,0.417,-1.0063,0.5425,-2.4413,83.42190669394046,32.34085807575478,0.12686063984716406,19.810000000004948
0.4819,0.091,0.7599,-0.3771,0.4683,0.417,-0.9363,1.0762,-2.1875,83.3496846385236,32.328154233477726,0.12870327586188388,19.825000000004366
0.4836,0.0819,0.7659,-0.3746,0.4682,0.4142,-0.455,0.6562,-2.2138,83.38860953891863,32.31455145822432,0.12528222827332353,19.84100000000035
0.4904,0.083,0.7555,-0.377,0.4681,0.4132,-0.8225,0.665,-1.8813,83.46565715763266,32.462965841844735,0.12173150544999746,19.856000000007043
0.4911,0.0886,0.7647,-0.3758,0.4684,0.413,-0.3588,1.1812,-2.2487,83.45465990738036,32.46547444555427,0.12656763490072806,19.872000000003027
0.4876,0.0794,0.7543,-0.3758,0.4684,0.413,-0.5163,1.225,-2.1263,83.46277233634359,32.502411807229464,0.131550871414249,19.888000000006286
0.488,0.0919,0.744,-0.3762,0.468,0.407,-0.3675,1.1812,-2.1,83.39165174834035,32.589678973830054,0.1343419842722053,19.903000000005704
0.4846,0.0871,0.7684,-0.3754,0.4673,0.4121,-0.2013,0.4725,-2.3012,83.42674877597355,32.58117359961853,0.12771178584327683,19.919000000001688
0.4946,0.0777,0.761,-0.3754,0.4685,0.4124,-0.5163,0.4025,-2.5113,83.43799339657478,32.63746418598033,0.12037435726137401,19.934000000008382
0.4816,0.0886,0.7437,-0.3754,0.4685,0.4124,-0.385,0.7875,-2.1875,83.40833951565686,32.646709297623964,0.1196769215272332,19.94999999999709
0.4862,0.0845,0.7603,-0.3758,0.4674,0.4114,-0.4375,0.9275,-2.415,83.42983735677356,32.62270886836778,0.12106522937723084,19.96600000000035
0.4875,0.0927,0.7532,-0.375,0.4683,0.4173,-0.385,0.9712,-2.4062,83.37276515861244,32.632871071741306,0.13605518644184816,19.997000000003027
0.4842,0.0899,0.7515,-0.377,0.4681,0.413,-0.28,1.2163,-2.2313,83.33366045979149,32.6316702908178,0.13886971779702617,20.012000000002445
0.4883,0.0874,0.7613,-0.3761,0.4683,0.4125,-0.5775,1.3212,-2.3712,83.33879974589587,32.62163883158481,0.14400802601254784,20.02799999999843
0.4781,0.0925,0.7512,-0.3761,0.4683,0.4125,-0.28,1.015,-2.2838,83.2666889538802,32.62141499411329,0.14422322341427074,20.044000000001688
0.4934,0.083,0.7602,-0.3759,0.4684,0.4071,-0.2187,0.7,-2.2662,83.3864262573527,32.6251603572734,0.13925090107247698,20.059000000001106
0.4873,0.0888,0.7613,-0.3766,0.4674,0.4124,-0.2975,0.9975,-2.3363,83.3789337711571,32.616395635527056,0.1396898109681556,20.075000000004366
0.487,0.0816,0.7467,-0.3759,0.4674,0.4121,-0.385,1.085,-2.1962,83.42810934290019,32.64402456497137,0.14036832987077166,20.090000000003783
0.4868,0.0863,0.7614,-0.3759,0.4674,0.4121,-0.9975,0.7788,-2.3712,83.46159389607352,32.62670275625802,0.13754621688087937,20.105999999999767
0.4908,0.0902,0.762,-0.3764,0.4688,0.413,0.0175,0.945,-2.38,83.38628786510601,32.62473611372192,0.13739959519556375,20.122000000003027
0.4885,0.0833,0.7466,-0.3766,0.4679,0.4118,-0.6825,0.7175,-2.1788,83.41871622035697,32.66389502279512,0.13334588567563152,20.137000000002445
0.4875,0.0864,0.7507,-0.375,0.4669,0.4141,-0.9975,1.05,-2.0912,83.4237540252953,32.690389162607964,0.1351312971111487,20.153000000005704
0.4848,0.0891,0.7648,-0.3763,0.4685,0.416,-0.8925,0.7788,-2.275,83.4055064639581,32.685757211072286,0.13213196739962588,20.168000000005122
0.4904,0.0819,0.7581,-0.3763,0.4685,0.416,-0.7088,0.84,-2.31,83.46999801043421,32.68727316099493,0.13101477065662695,20.184000000001106
0.4863,0.0922,0.7586,-0.3763,0.4673,0.413,0.105,0.9975,-2.4588,83.31450729357877,32.65520998800879,0.1322772935938906,20.200000000004366
0.4832,0.0867,0.75,-0.3749,0.4683,0.4122,-0.6913,0.77,-2.9313,83.32708571626635,32.64115564980949,0.12944456423409817,20.215000000003783
0.489,0.0923,0.7641,-0.3752,0.4685,0.4125,-0.9975,0.6737,-2.4413,83.25882317114448,32.612504898522936,0.12620138781266477,20.231000000007043
0.4895,0.0878,0.7564,-0.3752,0.4685,0.4125,-0.8838,0.5512,-2.0825,83.29010994551861,32.63292784432878,0.12102244903110955,20.24600000000646
0.4852,0.0863,0.7646,-0.375,0.4698,0.4132,-0.49,1.2075,-2.1088,83.30091576514363,32.573407259740826,0.12630820412363386,20.262000000002445
0.4923,0.0877,0.7516,-0.3759,0.4686,0.4137,-0.7,1.5137,-2.3012,83.30720605383243,32.58121638104745,0.13547466371571118,20.278000000005704
0.491,0.0875,0.7604,-0.3754,0.4681,0.4138,0.5163,1.12,-2.5638,83.37300249038914,32.602643592335625,0.13704719733621917,20.292999999997846
0.4879,0.087,0.7543,-0.3761,0.4678,0.4125,-0.245,0.8838,-1.9863,83.38361804252193,32.63037369074756,0.13606919760519004,20.309000000001106
0.4894,0.0875,0.7615,-0.3761,0.4678,0.4125,-0.8225,1.0588,-2.2925,83.39749034997197,32.62979072495443,0.13675607784411636,20.324000000000524
0.4875,0.0865,0.7607,-0.3754,0.4682,0.4068,-1.05,0.4725,-2.2225,83.43682187635186,32.6214657638705,0.12988447006109088,20.340000000003783
0.4971,0.0975,0.7726,-0.3752,0.4693,0.4118,-0.9363,0.7175,-2.625,83.25551604722973,32.603838976889556,0.12722802305708672,20.356000000007043
0.4801,0.0829,0.754,-0.3749,0.4672,0.4135,-0.9887,0.4812,-1.855,83.40300389334355,32.52177215282196,0.1210014207479749,20.370999999999185
0.4924,0.0987,0.7621,-0.3749,0.4672,0.4135,-1.0762,0.9887,-2.275,83.12718380140173,32.522973617664505,0.12313855867607792,20.387000000002445
0.498,0.1001,0.7674,-0.3752,0.4684,0.4075,-0.2537,1.0325,-2.6862,83.00561973381684,32.59119383494912,0.12476345280792923,20.402000000001863
0.4879,0.0772,0.7563,-0.3763,0.4689,0.4117,-0.665,0.6037,-2.275,83.14280984268528,32.59213350485938,0.12098038752890737,20.418000000005122
0.4757,0.0917,0.7408,-0.3759,0.4674,0.4122,-0.2625,0.7962,-2.7562,83.10054773794823,32.56533792497951,0.12034762877835241,20.434000000008382
0.4976,0.0675,0.7602,-0.3756,0.4681,0.4169,-1.33,0.7437,-1.96,83.91086978487716,32.697375444684944,0.11835281589525755,20.449000000000524
0.4932,0.0733,0.7511,-0.3756,0.4681,0.4169,-1.1988,0.735,-2.1962,84.1170674173448,32.73537254797829,0.11710153430788806,20.465000000003783
0.4802,0.0885,0.7522,-0.3747,0.4681,0.4165,-0.42,1.1988,-2.7825,84.03396648262674,32.61574464305835,0.12157518087647125,20.4800000000032
0.4879,0.0631,0.7577,-0.3764,0.4683,0.4122,-0.77,1.1113,-1.8813,84.26599144298618,32.63660049157987,0.1254203827920843,20.49600000000646
0.4841,0.1108,0.7615,-0.3766,0.4682,0.4131,-0.1225,0.945,-2.8612,83.5271611987661,32.46730769324031,0.1264863445156482,20.51200000000972
0.4836,0.0766,0.7648,-0.3766,0.4682,0.4131,0.455,1.2775,-2.6337,83.90130398538005,32.39217545469167,0.1310839600550486,20.527000000001863
0.4949,0.0525,0.7617,-0.3758,0.4674,0.41,-1.225,0.9887,-1.9425,84.78401385229527,32.534580889553304,0.13221284405244427,20.543000000005122
0.4878,0.1133,0.7568,-0.3747,0.4675,0.4123,-0.665,0.875,-2.4237,84.39593400491769,32.53225566483471,0.13080405964674147,20.55800000000454
0.4956,0.0773,0.7496,-0.3741,0.4674,0.4136,-0.8662,0.9975,-1.575,84.3248515916502,32.86396532453527,0.13208765367846165,20.574000000000524
0.4791,0.1106,0.7614,-0.3759,0.4681,0.4105,0.6125,1.4438,-2.8437,82.94291442618189,32.52200531803237,0.1396696083148511,20.590000000003783
0.4835,0.1149,0.7551,-0.3759,0.4681,0.4105,0.5688,1.3913,-3.5612,82.10728700074264,32.41706308237078,0.14448519748263713,20.6050000000032
0.489,0.0762,0.7655,-0.3752,0.4693,0.4107,-1.1375,0.9625,-1.7587,82.9403293881763,32.42577705917823,0.14389667773719708,20.62100000000646
0.4904,0.1112,0.7609,-0.3758,0.4672,0.4131,-0.4638,1.1375,-2.8437,82.86059000015541,32.46197663844008,0.14486325995543273,20.635999999998603
0.4853,0.0575,0.7496,-0.3748,0.4684,0.4131,-0.7962,0.98,-2.2313,83.43651289129271,32.4812013576009,0.14448893396276447,20.652000000001863
0.4909,0.0791,0.7679,-0.3748,0.4684,0.4131,-1.1113,0.2362,-1.855,83.68687752199364,32.4726489699377,0.13344132056718094,20.668000000005122
0.4781,0.0998,0.7548,-0.3756,0.4678,0.4118,0.245,1.225,-2.3275,83.1540573606298,32.458370878090776,0.1366346885098211,20.68300000000454
0.4763,0.0837,0.7554,-0.3757,0.4682,0.4122,-0.2013,0.7088,-2.6862,83.28398810177309,32.34850331981281,0.13317793966091837,20.6990000000078
0.4839,0.0766,0.7573,-0.3757,0.4682,0.4122,-0.9538,0.5863,-2.205,83.56308915281393,32.355651671830955,0.12777519569068008,20.713999999999942
0.4825,0.0644,0.7526,-0.3751,0.4685,0.417,-1.3125,0.6475,-1.7587,84.24097091763592,32.429334742537264,0.12432167612351161,20.7300000000032
0.4943,0.1042,0.7609,-0.3748,0.4672,0.4149,-0.07,1.1988,-2.8875,83.5970477517291,32.55601409219947,0.12915222851467734,20.74600000000646
0.487,0.0652,0.7502,-0.3765,0.4665,0.4131,-0.6388,1.085,-1.8637,83.73599978785184,32.65541283941222,0.1308845056626412,20.76100000000588
0.4871,0.1173,0.7685,-0.3766,0.4681,0.4125,0.14,1.435,-2.485,82.76593026368141,32.557663401791565,0.1384600551005869,20.77700000000914
0.4895,0.1077,0.7599,-0.3766,0.4681,0.4125,1.0412,1.33,-3.2812,82.25688583641339,32.54351369107151,0.14256904958112215,20.79200000000128
0.4807,0.0897,0.7584,-0.3763,0.4695,0.4078,-1.6625,1.0063,-1.61,82.78640689698547,32.400412666654205,0.1428028646259621,20.80800000000454
0.4976,0.1305,0.7826,-0.3751,0.4678,0.4132,0.3325,1.1988,-2.3363,81.74177388713802,32.385343319360665,0.1457852981590326,20.824000000000524
0.4815,0.0851,0.7483,-0.3751,0.468,0.4142,-1.0762,0.8313,-2.3888,82.36586314218282,32.40489815233641,0.14242931834813752,20.839000000007218
0.4886,0.1067,0.7654,-0.3758,0.4685,0.4124,0.595,1.4,-3.01,82.2058741996934,32.36202109513979,0.1483463865082632,20.8550000000032
0.4943,0.1118,0.7626,-0.3758,0.4685,0.4124,0.1488,1.1812,-2.6075,81.98469032321248,32.43793963288109,0.1494579478568181,20.87000000000262
0.4824,0.0764,0.7554,-0.3768,0.4674,0.412,-1.1638,0.875,-2.0213,82.85231500910479,32.43634310765173,0.14711215307370326,20.88600000000588
0.4881,0.0998,0.7666,-0.3752,0.4682,0.4114,-0.2537,1.2513,-2.3187,82.79366272396015,32.43075188364757,0.15041965776180985,20.902000000001863
0.5003,0.0658,0.7493,-0.3751,0.4668,0.4127,-0.8487,0.735,-2.0213,83.320307673294,32.68040092818114,0.14530019198524383,20.91700000000128
0.4934,0.0883,0.7578,-0.3751,0.4668,0.4127,-0.945,1.0325,-2.38,83.33009698132156,32.69881539597964,0.14563817278974844,20.93300000000454
0.4858,0.0763,0.7536,-0.3766,0.4693,0.4106,0.0787,1.26,-2.0912,83.66687851927061,32.69487650046663,0.14808435551011354,20.948000000003958
0.4815,0.0759,0.7532,-0.3758,0.4665,0.4126,-0.4112,1.05,-2.0038,83.72910921062149,32.64306325321729,0.14839591996218254,20.964000000007218
0.4887,0.09,0.7656,-0.3766,0.4676,0.4126,-0.4988,0.9538,-2.275,83.71531091665265,32.640533365632166,0.1472910479625166,20.9800000000032
0.4976,0.0908,0.7591,-0.3766,0.4676,0.4126,-0.7262,1.1463,-2.1263,83.62796040083866,32.697682394885604,0.14803699316566443,20.99500000000262
0.4926,0.0786,0.7483,-0.376,0.469,0.4022,-0.9013,0.56,-2.3975,83.72937896664125,32.749957540388394,0.14129729385074086,21.01100000000588
0.4906,0.096,0.7746,-0.3755,0.4679,0.4094,-0.2887,0.5863,-2.555,83.57411857228564,32.62250902352043,0.13508261446535963,21.026000000005297
0.4756,0.0838,0.7522,-0.376,0.4681,0.4146,-0.805,0.735,-2.3625,83.58892397110104,32.58793161122231,0.13215835302097992,21.042000000008557
0.5036,0.0974,0.7578,-0.3758,0.4672,0.4117,-0.49,0.5512,-2.3712,83.55241154309228,32.651969551276096,0.12687979771688954,21.05800000000454
0.4893,0.1033,0.7538,-0.3758,0.4672,0.4117,0.2013,1.2163,-2.7475,82.97907336081153,32.681443838582766,0.1306118679445634,21.073000000003958
0.4777,0.0802,0.751,-0.3758,0.4688,0.4118,-1.2163,0.63,-2.2575,83.35514078423292,32.67177044892825,0.12662268114782982,21.088999999999942
0.4781,0.1062,0.7627,-0.3761,0.4679,0.4109,0.0,0.4638,-2.1525,82.91008645751694,32.574176822341165,0.12105655303297394,21.105999999999767
0.4984,0.0641,0.7528,-0.375,0.4674,0.4132,-0.5863,0.7613,-2.3975,83.0252615450456,32.659250943365656,0.11648776772871937,21.11699999999837
0.4972,0.0927,0.7458,-0.375,0.4674,0.4132,-0.245,0.9625,-2.415,83.00062912697636,32.75490742899231,0.1143677409609401,21.12800000000425
0.5028,0.1124,0.7502,-0.376,0.4685,0.4158,0.3938,1.0588,-2.765,82.26924212558511,33.008861931099254,0.11341308686351487,21.139000000002852
0.4814,0.0639,0.7677,-0.3764,0.468,0.4126,-1.2163,0.4288,-1.7763,83.47734344784509,32.669458727322905,0.10593097817794961,21.14900000000489
0.4785,0.0951,0.7649,-0.3758,0.4671,0.4124,-0.0088,1.3825,-2.1088,83.28350818132976,32.54428761242833,0.10653613035790947,21.158000000003085
0.4968,0.0699,0.7415,-0.3761,0.4682,0.4122,-0.8925,0.8838,-1.8813,83.63649724932445,32.877702013654805,0.09985961732003505,21.163000000000466
0.4717,0.1062,0.7767,-0.3761,0.4682,0.4122,0.1925,1.2687,-2.2662,83.03907916794407,32.84468311276304,0.09900829558989252,21.171000000002095
0.4972,0.0738,0.7426,-0.3761,0.4682,0.4122,-1.2425,1.015,-1.9863,83.57318231321356,33.03511826974569,0.0936749660285105,21.175999999999476
0.4787,0.0868,0.7734,-0.3763,0.4685,0.4071,0.21,1.1375,-2.9488,83.5830665718516,32.46043762500104,0.08942621943042665,21.181000000004133
0.4866,0.0706,0.7622,-0.3752,0.4677,0.4147,-0.4112,0.5425,-2.1962,83.70400426127858,32.45909417790988,0.08878384748729873,21.198000000003958
0.4981,0.098,0.7508,-0.3752,0.4677,0.4147,-0.4725,1.1025,-2.2487,83.64029562361534,32.48945992505428,0.09578146273458366,21.213999999999942
0.4981,0.098,0.7508,-0.3754,0.469,0.4085,-0.0962,0.8838,-2.3888,83.31360202949962,32.56970420107833,0.09813461646644973,21.229000000006636
0.4703,0.0802,0.7593,-0.3754,0.469,0.4085,-0.4288,0.8313,-2.205,83.37487404959529,32.500639031393085,0.10029187481679987,21.24500000000262
0.5025,0.09,0.7368,-0.3754,0.469,0.4085,-0.4288,0.8313,-2.205,83.34325308589607,32.61813307203892,0.10148523733468438,21.260000000002037
0.4677,0.0855,0.7677,-0.3767,0.4672,0.414,-0.0875,0.7962,-2.1613,83.43607656983754,32.46197759731033,0.10280199360355173,21.276000000005297
0.5027,0.0815,0.7432,-0.3767,0.4672,0.414,-0.7788,0.7788,-2.1613,83.49668008667071,32.621374045325126,0.10373651424038142,21.29200000000128
0.5027,0.0815,0.7432,-0.3763,0.4687,0.4143,-0.7875,0.9363,-2.8,83.54663613858527,33.0616493577495,0.10600291282198403,21.307000000007974
0.476,0.087,0.7762,-0.3763,0.4687,0.4143,-0.7875,0.9363,-2.8,83.5584695595372,32.48255665741158,0.10888534153640118,21.323000000003958
0.5022,0.0878,0.7538,-0.3763,0.4687,0.4143,-0.7,0.5775,-2.45,83.52934310244598,32.626303090851856,0.10579305738245853,21.338000000003376
0.4779,0.0891,0.7718,-0.376,0.4691,0.4098,-0.3413,1.575,-2.31,83.51100562297798,32.60064848146439,0.11789375163851953,21.35399999999936
0.494,0.0825,0.7423,-0.376,0.4691,0.4098,-1.0762,1.12,-2.2138,83.56286995778542,32.65879174884071,0.12223237647795329,21.37000000000262
0.494,0.0825,0.7423,-0.3751,0.4678,0.4125,-1.0762,1.12,-2.2138,83.5964490607217,32.7130980075107,0.1251291388369054,21.385000000009313
0.4746,0.0916,0.7575,-0.3751,0.4678,0.4125,-0.595,1.1463,-2.415,83.56717625621508,32.61710228173486,0.12912294494907134,21.401000000005297
0.4964,0.0893,0.763,-0.3751,0.4678,0.4125,-0.9712,0.6475,-2.1263,83.49310483239356,32.65159685985944,0.124951900453825,21.416000000004715
0.4782,0.0808,0.7685,-0.3762,0.4688,0.4158,-0.455,1.3737,-2.415,83.52905191148785,32.54759065069274,0.132237990403477,21.4320000000007
0.4977,0.0944,0.7458,-0.3762,0.4688,0.4158,-0.455,1.3737,-2.415,83.47615525142564,32.658344037357736,0.13879547136715928,21.448000000003958
0.4977,0.0944,0.7458,-0.3767,0.4675,0.4166,-0.7525,1.0063,-2.6337,83.35133272264197,32.87794596724959,0.13850097423650579,21.463000000010652
0.4727,0.0756,0.749,-0.3767,0.4675,0.4166,-0.385,1.0325,-2.2838,83.46453246476491,32.877453397959805,0.13951887680236186,21.47899999999936
0.4967,0.0985,0.7648,-0.3767,0.4675,0.4166,-0.0088,0.35,-2.6337,83.18870615080223,32.85399450827187,0.13029198912423423,21.494000000006054
0.4745,0.0845,0.76,-0.3757,0.4682,0.4124,-0.6037,0.56,-2.1175,83.22008653248584,32.70611440959571,0.12532679020978657,21.510000000002037
0.486,0.0992,0.7767,-0.3759,0.4691,0.4131,-0.1925,0.8313,-2.5725,83.09383813045582,32.509550235200514,0.12476483119124666,21.526000000005297
0.4915,0.0784,0.7463,-0.376,0.4681,0.4128,-0.35,1.085,-2.4762,83.233602373245,32.62448864941439,0.12693584807155361,21.541000000004715
0.4969,0.0841,0.7612,-0.376,0.4681,0.4128,-0.6913,0.9887,-2.6688,83.29716669733881,32.72235897023963,0.1284795432608244,21.5570000000007
0.4862,0.0808,0.7643,-0.3751,0.468,0.406,-0.4988,1.155,-2.4675,83.31841991659167,32.65978749523882,0.13122408894170023,21.572000000007392
0.4857,0.0744,0.7571,-0.3758,0.4689,0.4118,-0.7525,0.6913,-2.17,83.51182371666994,32.64915506700355,0.12805640004503138,21.588000000003376
0.4975,0.0863,0.7583,-0.3761,0.469,0.4134,-0.2887,0.8662,-2.4325,83.51093225567521,32.707153714647774,0.1277240400430694,21.604000000006636
0.4857,0.0825,0.7504,-0.3761,0.469,0.4134,-0.105,0.8313,-2.485,83.57525692391451,32.71537089428861,0.1261741860328833,21.618999999998778
0.4848,0.0803,0.7447,-0.3764,0.4682,0.416,-0.385,1.0237,-2.7037,83.60984053829635,32.773721678578546,0.12829804743259818,21.635000000002037
0.4941,0.0933,0.753,-0.3755,0.4678,0.4065,-0.1488,0.9275,-2.5025,83.42350269577504,32.82711724227092,0.1279894926949261,21.65000000000873
0.4896,0.0851,0.7596,-0.3762,0.4674,0.4123,-0.9712,0.7262,-2.17,83.47973144937077,32.8080324442738,0.1256478234228085,21.666000000004715
0.4865,0.0899,0.756,-0.3756,0.467,0.4114,-0.56,0.8138,-2.2575,83.47253164040332,32.80202719596941,0.12480176108291507,21.682000000007974
0.4826,0.0922,0.7587,-0.3756,0.467,0.4114,-0.3675,0.4988,-2.555,83.4159373281736,32.68875168477103,0.11905538497109593,21.697000000000116
0.4893,0.0853,0.7487,-0.3753,0.4673,0.4171,-0.7875,0.7875,-2.5988,83.43311795131024,32.76246401614609,0.1184898464762966,21.713000000003376
0.4839,0.0895,0.7601,-0.3746,0.4681,0.4125,-1.015,1.0237,-2.6775,83.38468401097276,32.63296364390878,0.1204608118348342,21.72800000001007
0.4823,0.0883,0.7684,-0.3754,0.4666,0.4131,-0.6388,0.9363,-2.6163,83.39048816523378,32.461845565333306,0.12189745064796635,21.744000000006054
0.4834,0.0872,0.7541,-0.3754,0.4666,0.4131,-0.7088,0.735,-2.52,83.39251016853962,32.466909216010905,0.17188870558139854,21.838000000003376
0.483,0.0852,0.7515,-0.3765,0.4674,0.4148,-0.5075,0.77,-2.5287,83.39579598686623,32.48582164046033,0.16509483502285532,21.853000000002794
0.4939,0.0878,0.7654,-0.3763,0.4676,0.4092,-0.525,1.3563,-2.5812,83.39619504489204,32.526388940285244,0.16811607152454874,21.869000000006054
0.4814,0.0856,0.7692,-0.3755,0.4671,0.4122,-0.7175,1.1725,-2.1875,83.43597035129537,32.46941953054979,0.16713321436380169,21.883999999998196
0.4909,0.0941,0.7587,-0.375,0.4669,0.4153,-0.7525,1.2163,-2.0387,83.3444126742796,32.51586203123955,0.16793461293098974,21.900000000001455
0.4882,0.0938,0.7508,-0.375,0.4669,0.4153,-0.49,0.805,-2.3363,83.3257895118835,32.53139853151849,0.16273315164025237,21.916000000004715
0.4855,0.0828,0.7674,-0.3748,0.4673,0.4149,-0.35,0.5863,-2.0825,83.40511542989714,32.47069184160382,0.15437488647592,21.931000000004133
0.4868,0.0924,0.7653,-0.3758,0.4676,0.4122,-0.56,0.4638,-2.1962,83.39713625951443,32.45462572814403,0.14561611782968864,21.947000000007392
0.4957,0.1082,0.7584,-0.3761,0.469,0.4122,-0.6125,0.9187,-2.2313,83.28369696344956,32.477373339599495,0.14345695604022252,21.961999999999534
0.4906,0.0804,0.7662,-0.3761,0.469,0.4122,-0.7088,1.0325,-2.0738,83.39294627222787,32.47943934876271,0.1439792604392293,21.978000000002794
0.4848,0.0949,0.7498,-0.375,0.467,0.4146,-0.1925,1.6888,-2.52,83.23938040550348,32.517359059589744,0.15390005440026075,21.994000000006054
0.4826,0.0789,0.7562,-0.3756,0.4681,0.413,-0.7788,1.1463,-2.31,83.39872129741958,32.51456397619533,0.15398509895963416,22.00900000000547
0.4896,0.0841,0.7546,-0.3767,0.4695,0.4137,-0.0263,1.2075,-2.7738,83.47993544274284,32.613297516640685,0.15597458906721315,22.02500000000873
0.4898,0.0867,0.7599,-0.3766,0.4671,0.4132,-0.0263,1.3913,-2.625,83.48366450630571,32.61897629632843,0.15915968015065224,22.040000000000873
0.4847,0.0761,0.7568,-0.3766,0.4671,0.4132,-0.6125,1.3388,-2.3012,83.54157570344476,32.61713495716471,0.16252243213951462,22.056000000004133
0.4866,0.0925,0.7641,-0.3767,0.4694,0.4167,-0.5863,0.8575,-2.5988,83.51856806038629,32.54166171232098,0.15861818892807877,22.072000000007392
0.487,0.082,0.7514,-0.3761,0.4687,0.4129,-0.805,1.4787,-2.5025,83.57296648298848,32.58676432299355,0.1627188200248132,22.086999999999534
0.491,0.0937,0.7487,-0.3756,0.4691,0.4127,-0.455,1.2775,-2.0125,83.52266659812658,32.6864808520597,0.16484293802607963,22.103000000002794
0.484,0.0913,0.7591,-0.3756,0.4691,0.4127,-0.5775,1.2337,-2.3275,83.5059700418463,32.67198556081647,0.16501359422282538,22.118000000002212
0.4892,0.0793,0.7592,-0.3757,0.4682,0.4094,-1.085,1.1988,-1.925,83.69512337992263,32.66745002868073,0.16577495480405974,22.13400000000547
0.4851,0.0925,0.7527,-0.3758,0.4682,0.4109,-0.9625,1.0412,-2.2925,83.4840064395839,32.6669575136236,0.16419073931989014,22.150000000001455
0.4887,0.0877,0.7493,-0.3766,0.4673,0.4135,-1.2163,0.8662,-2.3187,83.41911248256477,32.67582058828119,0.15946536538744735,22.165000000000873
0.4892,0.0891,0.757,-0.3766,0.4686,0.4106,-1.26,1.0762,-2.3537,83.36347644254158,32.67690341426261,0.15901610885185982,22.181000000004133
0.4781,0.0894,0.7527,-0.3766,0.4686,0.4106,-0.9275,0.9363,-2.6513,83.324652573767,32.5600577902208,0.15575454796618335,22.19600000000355
0.4987,0.092,0.7785,-0.3762,0.4693,0.4086,-0.595,0.9625,-2.4938,83.32081760961732,32.543265794970615,0.15403909317238867,22.21200000000681
0.4904,0.0866,0.767,-0.3756,0.469,0.4126,-0.35,0.8925,-2.5812,83.35730490156833,32.51719048744158,0.1514871838519237,22.228000000002794
0.485,0.0885,0.7518,-0.3767,0.468,0.4112,-0.5075,0.945,-2.0825,83.35562728068835,32.53907904099668,0.14909596546623627,22.243000000002212
0.4879,0.0977,0.7544,-0.3767,0.468,0.4112,-0.105,0.8662,-2.2838,83.13589082243148,32.539168283371616,0.14665964892215377,22.25900000000547
0.492,0.0893,0.7554,-0.3761,0.4692,0.4068,-0.595,1.05,-2.5287,83.1431670908845,32.60902971550095,0.14616868402938832,22.27400000000489
0.4782,0.0877,0.7516,-0.3762,0.4681,0.4119,-0.21,0.8225,-2.24,83.192183976255,32.59549553136399,0.14339581562886244,22.29000000000815
0.4802,0.0937,0.7551,-0.375,0.4677,0.4146,-0.4375,0.8313,-1.8288,83.16930785499842,32.48925697187803,0.1410269540629713,22.306000000004133
0.4961,0.0831,0.7582,-0.3752,0.4691,0.4148,-0.4812,0.9187,-2.1437,83.19697288379979,32.557297903565335,0.1393267086561929,22.32100000000355
0.4942,0.0884,0.7647,-0.3752,0.4691,0.4148,-0.1663,0.6037,-2.73,83.25286040704668,32.601312855636415,0.13408731779234467,22.33700000000681
0.4865,0.0867,0.7613,-0.3762,0.4674,0.4114,-0.28,0.7875,-2.5638,83.30313547360159,32.5601654441552,0.13130983601269766,22.352000000006228
0.4762,0.0805,0.7597,-0.3757,0.4671,0.4129,-1.015,0.6475,-2.3187,83.51435242022312,32.53952516638994,0.12750285240908737,22.368000000002212
0.4919,0.0883,0.7495,-0.3758,0.4683,0.4138,-0.5512,0.8925,-2.3363,83.50987676052998,32.56696174232121,0.12760456716495253,22.383999999998196
0.4831,0.0839,0.7525,-0.3758,0.4683,0.4138,-0.56,0.875,-2.0563,83.51341018782078,32.56185963570828,0.1266566104537287,22.39900000000489
0.4882,0.0883,0.7463,-0.3765,0.4685,0.4127,-0.1138,0.7788,-2.38,83.43645927724101,32.600849919342195,0.1252056694055407,22.415000000000873
0.4879,0.0845,0.771,-0.3767,0.4682,0.4125,-0.21,0.9975,-2.2925,83.51166325401142,32.59742621186706,0.12615135246446407,22.43000000000029
0.4895,0.0812,0.7663,-0.3755,0.4687,0.4125,-0.7088,1.3737,-2.45,83.57782152966642,32.572912509878826,0.13331749722204764,22.44600000000355
0.4926,0.0866,0.7515,-0.3767,0.4684,0.4127,-0.3063,0.6913,-2.4413,83.54998206345489,32.640491480685995,0.12994046749734403,22.461999999999534
0.4879,0.077,0.7511,-0.3767,0.4684,0.4127,-0.9013,0.9538,-2.3275,83.71102460733333,32.64997522171278,0.1298227207533558,22.477000000006228
0.4901,0.0961,0.7634,-0.3757,0.4683,0.4108,-1.1113,0.6212,-2.3012,83.38594158118183,32.64743740949267,0.12578572867577478,22.493000000002212
0.4803,0.0824,0.7602,-0.3762,0.4671,0.4125,-1.4438,0.2362,-2.135,83.59000197660998,32.58069089113891,0.11639585580807357,22.50800000000163
0.4898,0.0943,0.7574,-0.3757,0.4674,0.4115,-0.7788,0.595,-2.2925,83.45384460489231,32.58155974075927,0.11332427022901174,22.52400000000489
0.4934,0.0972,0.7625,-0.3757,0.4674,0.4115,-0.3325,1.1638,-2.6075,83.33452055792361,32.60947903900436,0.11875056320190379,22.540000000000873
0.4981,0.0825,0.7524,-0.3762,0.4679,0.4045,-0.6388,0.9013,-2.4237,83.37400851232418,32.699714056280186,0.1190430568871433,22.555000000007567
