AcclX,AcclY,AcclZ,MagX,MagY,MagZ,GyroX,GyroY,GyroZ,Roll,Pitch,Yaw,Time(s)
0.3947,-0.0952,0.8146,-0.41,0.2345,0.4014,3.3688,-2.9838,0.4638,0,0,0,0.1464499999999589
0.3947,0.0332,0.8175,-0.41,0.2345,0.4014,6.755,-2.695,-0.0175,0,0,0,0.1464499999999589
0.3692,0.0332,0.8175,-0.41,0.2345,0.4218,6.755,-2.695,-0.0175,0,0,0,0.1464499999999589
0.3977,-0.0062,0.819,-0.411,0.2342,0.4114,5.6962,-2.24,1.82,0,0,0,0.1467166666666344
0.3977,-0.0062,0.819,-0.411,0.2342,0.4114,5.6962,-2.24,1.82,0,0,0,0.1467166666666344
0.4499,-0.1111,0.7979,-0.411,0.2342,0.4114,2.415,-2.6862,1.925,0,0,0,0.1467166666666344
0.4499,-0.1111,0.7979,-0.4119,0.2338,0.4114,6.895,-2.7125,-0.3762,0,0,0,0.14696666666657165
0.375,-0.0479,0.819,-0.4119,0.2338,0.4114,7.2013,-2.7125,-0.3762,0,0,0,0.14696666666657165
0.3362,-0.047,0.8258,-0.4067,0.2363,0.4266,-0.4288,0.805,-2.765,0,0,0,0.14696666666657165
0.3362,-0.047,0.8258,-0.4062,0.2357,0.4176,-0.4288,0.805,-2.765,0,0,0,0.14723333333324717
0.3196,-0.0404,0.8495,-0.4062,0.2357,0.4176,0.0525,1.2775,-2.6688,0,0,0,0.14723333333324717
0.3296,-0.0436,0.8428,-0.4062,0.2357,0.4176,0.0525,1.2775,-2.6688,0,0,0,0.14723333333324717
0.3296,-0.0436,0.8428,-0.4058,0.2348,0.413,-0.7962,1.155,-2.94,0,0,0,0.14723333333324717
0.3412,-0.0506,0.8496,-0.4058,0.2348,0.413,-0.7962,1.155,-2.94,0,0,0,0.14723333333324717
0.3412,-0.0506,0.8496,-0.4058,0.2348,0.413,-0.35,1.3125,-2.765,0,0,0,0.14723333333324717
0.3227,-0.0311,0.8489,-0.4058,0.2348,0.413,-0.35,0.91,-2.625,0,0,0,0.14723333333324717
0.3443,-0.0525,0.8373,-0.405,0.2351,0.4209,-0.8838,0.91,-2.625,0,0,0,0.14723333333324717
0.3443,-0.0525,0.8373,-0.405,0.2351,0.4209,-1.1463,0.805,-2.5812,0,0,0,0.1474999999999227
0.3297,-0.0472,0.8603,-0.405,0.2351,0.4209,-1.1463,0.805,-2.5812,0,0,0,0.1474999999999227
0.3297,-0.0472,0.8603,-0.4064,0.235,0.4162,-0.2187,1.4875,-2.7213,0,0,0,0.1474999999999227
0.3259,-0.0475,0.8444,-0.4064,0.235,0.4162,-0.2187,1.4875,-2.7213,0,0,0,0.1474999999999227
0.3259,-0.0528,0.8624,-0.4064,0.235,0.4162,-0.7088,1.3563,-2.5725,0,0,0,0.1474999999999227
0.3417,-0.0528,0.8624,-0.4064,0.2353,0.4137,-0.7088,1.3563,-2.5725,0,0,0,0.1474999999999227
0.327,-0.0376,0.8403,-0.4069,0.2353,0.4137,0.1312,1.3388,-2.8612,0,0,0,0.1474999999999227
0.327,-0.0376,0.8403,-0.4069,0.2353,0.4137,0.1312,1.3388,-2.7125,0,0,0,0.1474999999999227
0.3345,-0.0415,0.8592,-0.4069,0.2353,0.4137,-0.1663,0.9538,-2.7125,0,0,0,0.1474999999999227
0.3345,-0.0415,0.8509,-0.4068,0.2352,0.4234,-0.7175,0.8225,-2.975,0,0,0,0.14774999999997362
0.3339,-0.0489,0.8509,-0.4068,0.2352,0.4234,-0.7175,0.8225,-2.975,0,0,0,0.1482666666665864
0.3334,-0.0383,0.8495,-0.4068,0.2352,0.4234,-0.1312,1.3212,-2.8087,0,0,0,0.1482666666665864
0.3334,-0.0383,0.8495,-0.4064,0.2354,0.425,-0.1312,1.3212,-2.8087,0,0,0,0.1485333333332619
0.3312,-0.045,0.8455,-0.4064,0.2354,0.425,-0.9538,0.7262,-2.66,0,0,0,0.1485333333332619
0.3312,-0.045,0.8455,-0.4064,0.2354,0.425,-0.9538,0.7262,-2.66,0,0,0,0.1485333333332619
0.3371,-0.0512,0.8482,-0.4064,0.2354,0.425,-0.7,0.7437,-2.66,0,0,0,0.14879999999993743
0.3326,-0.0422,0.8478,-0.4069,0.2349,0.4182,-0.7,0.7437,-2.66,0,0,0,0.14879999999993743
0.3326,-0.0422,0.8478,-0.4069,0.2349,0.4182,-0.2537,0.7613,-2.8525,0,0,0,0.14879999999993743
0.329,-0.0495,0.8441,-0.4069,0.2349,0.4182,-0.5512,0.8225,-2.5638,0,0,0,0.14879999999993743
0.329,-0.0495,0.8441,-0.4062,0.2362,0.4204,-0.5512,0.8225,-2.5638,0,0,0,0.14879999999993743
0.3395,-0.0441,0.8561,-0.4062,0.2362,0.4204,-0.07,0.8662,-2.8087,0,0,0,0.14879999999993743
0.3296,-0.0396,0.842,-0.4062,0.2362,0.4204,-0.07,0.8662,-2.8087,0,0,0,0.14879999999993743
0.3296,-0.0396,0.842,-0.4065,0.2364,0.4174,-0.3413,0.63,-2.59,0,0,0,0.14879999999993743
0.3334,-0.048,0.8561,-0.4065,0.2364,0.4174,-0.3413,0.63,-2.59,0,0,0,0.14904999999998836
0.3334,-0.048,0.8561,-0.4065,0.2364,0.4174,-0.2887,0.7788,-2.7562,0,0,0,0.14904999999998836
0.3296,-0.0434,0.8486,-0.4065,0.2364,0.4174,-0.2887,0.7788,-2.7562,0,0,0,0.14904999999998836
0.3351,-0.0426,0.8483,-0.407,0.235,0.4205,-0.4725,0.9538,-2.9488,0,0,0,0.14904999999998836
0.3351,-0.0426,0.8483,-0.407,0.235,0.4205,-0.8225,0.8313,-2.3625,0,0,0,0.14904999999998836
0.3296,-0.0479,0.8417,-0.407,0.235,0.4205,-0.8225,0.8313,-2.3625,0,0,0,0.14904999999998836
0.3296,-0.0479,0.8417,-0.4074,0.2356,0.4194,-0.5163,0.7088,-2.6425,0,0,0,0.14904999999998836
0.3302,-0.0406,0.8457,-0.4074,0.2356,0.4194,-0.5163,0.7088,-2.6425,0,0,0,0.1503500000000031
0.3302,-0.0436,0.8478,-0.4074,0.2356,0.4194,-0.4288,1.015,-2.695,0,0,0,0.1503500000000031
0.3346,-0.0436,0.8478,-0.4074,0.235,0.4085,-0.4288,1.015,-2.695,0,0,0,0.1506166666666786
0.3319,-0.0459,0.84,-0.4052,0.235,0.4085,-0.3325,1.365,-2.6688,0,0,0,0.1506166666666786
0.3319,-0.0459,0.84,-0.4052,0.235,0.4085,-0.3325,1.365,-2.6688,0,0,0,0.1506166666666786
0.3293,-0.0447,0.8523,-0.4052,0.235,0.4085,-0.2537,1.0762,-2.8175,0,0,0,0.15086666666661586
0.3293,-0.0447,0.8456,-0.4066,0.2363,0.4133,-0.2537,1.085,-2.8437,0,0,0,0.15086666666661586
0.3339,-0.0486,0.8456,-0.4066,0.2363,0.4133,-0.4462,1.085,-2.8437,0,0,0,0.15086666666661586
0.3299,-0.0458,0.8474,-0.4066,0.2363,0.4133,-0.4812,0.9275,-2.345,0,0,0,0.15086666666661586
0.3299,-0.0458,0.8474,-0.4071,0.2354,0.4102,-0.4812,0.9275,-2.345,0,0,0,0.15113333333329138
0.3367,-0.0422,0.8546,-0.4071,0.2354,0.4102,-0.6737,0.9275,-2.4325,0,0,0,0.15113333333329138
0.3367,-0.0422,0.8546,-0.4071,0.2354,0.4102,-0.6737,0.9275,-2.4325,0,0,0,0.15113333333329138
0.331,-0.0459,0.837,-0.4071,0.2354,0.4102,-0.7175,0.8138,-2.7037,0,0,0,0.15113333333329138
0.3325,-0.0421,0.8469,-0.4057,0.2343,0.4136,-0.7175,0.8138,-2.7037,0,0,0,0.15113333333329138
0.3325,-0.0421,0.8469,-0.4057,0.2343,0.4136,-0.5425,0.98,-3.0363,0,0,0,0.15113333333329138
0.3337,-0.0462,0.8438,-0.4057,0.2343,0.4136,-0.5425,0.98,-2.6513,0,0,0,0.15113333333329138
0.3337,-0.0462,0.8438,-0.4066,0.2367,0.4158,-0.4638,0.9712,-2.6513,0,0,0,0.15113333333329138
0.3299,-0.0483,0.8493,-0.4066,0.2367,0.4158,-0.5775,0.9887,-2.7912,0,0,0,0.1513999999999669
0.3345,-0.04,0.862,-0.4066,0.2367,0.4158,-0.5775,0.9887,-2.7912,0,0,0,0.1513999999999669
0.3345,-0.04,0.862,-0.4065,0.236,0.4249,-0.4725,0.7962,-2.905,0,0,0,0.1513999999999669
0.3336,-0.0452,0.8489,-0.4065,0.236,0.4249,-0.4725,0.7962,-2.905,0,0,0,0.15223333333324263
0.3336,-0.0452,0.8489,-0.4065,0.236,0.4249,-1.19,0.9625,-2.8437,0,0,0,0.15249999999991815
0.3324,-0.0464,0.842,-0.4065,0.236,0.4249,-1.19,0.9625,-2.8437,0,0,0,0.15249999999991815
0.3337,-0.0428,0.8524,-0.4057,0.236,0.4204,-0.2975,1.2425,-2.3363,0,0,0,0.15249999999991815
0.3337,-0.0428,0.8524,-0.4057,0.236,0.4204,-0.2975,1.2425,-2.3363,0,0,0,0.15278333333333194
0.335,-0.0456,0.8508,-0.4057,0.236,0.4204,-0.5075,0.63,-2.4938,0,0,0,0.1528166666665811
0.335,-0.0456,0.8508,-0.4066,0.2359,0.4111,0.07,0.98,-2.6688,0,0,0,0.1528333333333194
0.3349,-0.0439,0.8574,-0.4066,0.2359,0.4111,0.07,0.98,-2.6688,0,0,0,0.1528333333333194
0.3349,-0.0436,0.8419,-0.4066,0.2359,0.4111,0.035,1.3475,-2.8612,0,0,0,0.1528333333333194
0.3291,-0.0436,0.8419,-0.4066,0.2359,0.4126,0.035,1.3475,-2.8612,0,0,0,0.1528333333333194
0.3333,-0.045,0.8506,-0.4066,0.2359,0.4126,-0.4988,1.3825,-2.8963,0,0,0,0.1528333333333194
0.3333,-0.045,0.8506,-0.4066,0.2359,0.4126,-0.4988,1.3825,-2.8963,0,0,0,0.1528333333333194
0.3346,-0.0451,0.8464,-0.4066,0.2359,0.4126,-0.56,1.1025,-2.87,0,0,0,0.15308333333325663
0.3346,-0.0451,0.8464,-0.4074,0.2362,0.4094,-0.56,1.1025,-2.87,0,0,0,0.15308333333325663
0.3364,-0.0432,0.8509,-0.4074,0.2362,0.4094,-0.4112,0.7788,-2.59,0,0,0,0.15308333333325663
0.3346,-0.0456,0.8532,-0.4074,0.2362,0.4094,-0.4288,1.1287,-2.5375,0,0,0,0.15308333333325663
0.3346,-0.0456,0.8532,-0.4068,0.2354,0.4156,-0.4288,1.1287,-2.5375,0,0,0,0.15308333333325663
0.3308,-0.0433,0.8411,-0.4068,0.2354,0.4156,-0.8138,1.085,-2.7475,0,0,0,0.15308333333325663
0.3308,-0.0433,0.8411,-0.4068,0.2354,0.4156,-0.8138,1.085,-2.7475,0,0,0,0.15308333333325663
0.3308,-0.0426,0.8505,-0.4068,0.2354,0.4156,-0.5337,0.8225,-2.2925,0,0,0,0.15308333333325663
0.3468,-0.0549,0.8233,-0.4065,0.2342,0.4119,-0.5337,0.8225,-2.2925,0,0,0,0.15308333333325663
0.3468,-0.0549,0.8233,-0.4065,0.2342,0.4119,-0.5337,0.8925,-2.45,0,0,0,0.15438333333327137
0.3282,-0.0419,0.8469,-0.4065,0.2342,0.4119,-0.5337,0.8925,-2.45,0,0,0,0.15438333333327137
0.3282,-0.0419,0.8469,-0.406,0.236,0.429,-0.525,0.735,-2.3537,0,0,0,0.15438333333327137
0.3317,-0.0438,0.8575,-0.406,0.236,0.429,-0.525,1.2163,-2.3537,0,0,0,0.15464999999994689
0.331,-0.0459,0.8489,-0.406,0.236,0.429,-0.6562,1.2163,-2.3537,0,0,0,0.15464999999994689
0.331,-0.0459,0.8489,-0.4071,0.237,0.4245,-0.6825,1.4262,-2.3187,0,0,0,0.15464999999994689
0.333,-0.0464,0.8503,-0.4071,0.237,0.4245,-0.6825,1.4262,-2.3187,0,0,0,0.15489999999999782
0.333,-0.0464,0.8503,-0.4071,0.237,0.4245,-1.1725,1.0237,-2.7125,0,0,0,0.15489999999999782
0.335,-0.0519,0.8472,-0.4071,0.237,0.4245,-1.1725,1.0237,-2.7125,0,0,0,0.15489999999999782
0.3292,-0.0407,0.8434,-0.4064,0.2348,0.4164,-0.8838,0.8487,-2.94,0,0,0,0.15516666666667334
0.3292,-0.0407,0.8434,-0.4064,0.2348,0.4164,-0.8838,0.8487,-2.94,0,0,0,0.15516666666667334
0.3353,-0.0429,0.8466,-0.4064,0.2348,0.4164,-0.21,0.7437,-2.9662,0,0,0,0.15516666666667334
0.3353,-0.0429,0.8466,-0.4046,0.2365,0.4156,-0.21,0.7437,-2.5988,7.557262977109051,3.2573473614743897,4.075295065076012,0.19336666666663405
0.3375,-0.0435,0.8465,-0.4046,0.2365,0.4156,-0.1138,0.875,-2.5988,20.872184005558562,6.042680539076385,5.76658217035513,0.19336666666663405
0.3375,-0.0436,0.8602,-0.4046,0.2365,0.4156,-0.6037,0.735,-2.4762,37.71294745556399,6.845464222711729,9.646886926733282,0.1936166666665713
0.3318,-0.0436,0.8602,-0.4046,0.2365,0.4113,-0.6037,0.735,-2.4762,50.61627378076167,7.589053078430374,13.119480444803498,0.1936166666665713
0.3369,-0.0465,0.8506,-0.4061,0.2361,0.4113,-0.5688,1.12,-2.52,59.660993537348105,8.848805336812738,20.875336252533238,0.1936166666665713
0.3369,-0.0465,0.8506,-0.4061,0.2361,0.4113,-0.5688,1.12,-2.52,66.78142406442306,9.995112191057876,26.913540365478198,0.1938833333332468
0.3329,-0.0498,0.848,-0.4061,0.2361,0.4113,-0.5688,0.91,-2.6513,72.4362846485762,12.12973677685447,28.379925555117932,0.1938833333332468
0.3329,-0.0498,0.848,-0.4067,0.2362,0.4286,-0.5688,0.91,-2.6513,76.88805794983693,13.864828688519584,29.802206727487917,0.1938833333332468
0.3336,-0.0455,0.8483,-0.4067,0.2362,0.4286,-0.7175,1.1812,-3.0625,81.66588856623879,16.82495061461859,34.67680330149374,0.1938833333332468
0.3334,-0.0447,0.8564,-0.4067,0.2362,0.4286,-0.7175,1.1812,-3.0625,85.00873364022536,18.55218834904619,38.22839671099024,0.19413333333329774
0.3334,-0.0447,0.8564,-0.4054,0.2334,0.4208,-0.6737,0.5512,-2.9925,87.18548651701211,19.531371389214165,40.38159737714215,0.19413333333329774
0.3342,-0.0438,0.8474,-0.4054,0.2334,0.4208,-0.3588,1.1113,-3.185,87.51355942947555,20.38282830289589,42.077354752296294,0.19413333333329774
0.3342,-0.0438,0.8474,-0.4054,0.2334,0.4208,-0.3588,1.1113,-3.185,87.82298949020984,20.865522931750263,43.406564053667196,0.19439999999997326
0.3261,-0.0414,0.8517,-0.4054,0.2334,0.4208,-0.665,1.0063,-2.9313,89.15311396582439,20.886747176151648,43.99950749168237,0.19439999999997326
0.3313,-0.0468,0.8419,-0.4066,0.2355,0.4074,-0.665,1.0063,-2.9313,90.23348851311431,21.077139925400168,44.54049715347453,0.19439999999997326
0.3313,-0.0468,0.8419,-0.4066,0.2355,0.4074,-1.3913,1.0063,-3.1325,91.77293315999775,21.232249872009266,45.002579743810564,0.19466666666664878
0.3314,-0.0457,0.8449,-0.4066,0.2355,0.4074,-1.3913,1.0063,-3.1325,92.46382086883527,21.2971844705384,45.38038717342863,0.19466666666664878
0.3314,-0.0457,0.8449,-0.4054,0.2373,0.4074,-0.4988,1.0938,-2.6425,92.56930473813054,21.313732553450674,45.90228940207644,0.19466666666664878
0.3362,-0.044,0.8572,-0.4054,0.2373,0.4074,-0.4988,1.0938,-2.6425,92.63088583044862,21.327534869004484,46.29931162341733,0.19466666666664878
0.3372,-0.0479,0.8428,-0.4054,0.2373,0.4074,-0.385,1.3563,-2.8788,92.6803772280548,21.467812810383684,47.030513368923565,0.19466666666664878
0.3372,-0.0479,0.8428,-0.4054,0.2358,0.4084,-0.2187,0.945,-2.765,92.72271093204664,21.54624116160258,47.15834755727938,0.19466666666664878
0.332,-0.0431,0.8497,-0.4054,0.2358,0.4084,-0.2187,0.945,-2.765,92.73609959199649,21.487556667926768,47.20429879458076,0.19466666666664878
0.332,-0.0431,0.8497,-0.4054,0.2358,0.4084,-0.3938,0.8313,-2.66,92.7506811628167,21.454649949776638,47.206069498960034,0.19466666666664878
0.3293,-0.0416,0.8514,-0.4054,0.2358,0.4084,-0.3938,0.8313,-2.66,92.75473429055012,21.3905358162222,47.20667440162052,0.19491666666658602
0.3331,-0.0456,0.8542,-0.4066,0.2351,0.4092,-0.105,1.085,-2.9137,92.80354597480338,21.35272945504746,47.263975327669016,0.19491666666658602
0.3331,-0.0456,0.8542,-0.4066,0.2351,0.4092,-0.105,1.085,-2.9137,92.84444216126988,21.327401376847288,47.30983573344982,0.19491666666658602
0.3289,-0.0454,0.8469,-0.4066,0.2351,0.4092,-0.1575,1.1812,-2.9575,92.87214319446136,21.28163653552031,47.33658727976478,0.19491666666658602
0.3289,-0.0454,0.8469,-0.4066,0.2347,0.4182,-0.1575,1.1812,-2.9575,92.89641996490496,21.25185075351994,47.46070377360069,0.19491666666658602
0.3391,-0.0472,0.8535,-0.4066,0.2347,0.4182,-0.4288,1.3737,-2.7825,92.9274089161385,21.354420660030627,47.780977927312414,0.19491666666658602
0.3391,-0.0504,0.842,-0.4066,0.2347,0.4182,-0.4288,1.3737,-2.6163,92.984807837082,21.44366769985057,48.146042185608074,0.19491666666658602
0.3323,-0.0504,0.842,-0.4066,0.2347,0.4109,-0.1575,0.8225,-2.6163,93.03928323910658,21.453194531056486,48.14408477072893,0.19491666666658602
0.329,-0.0406,0.8444,-0.4059,0.2358,0.4109,0.21,1.3125,-2.6688,92.94268795391423,21.415785876616916,47.951305570061194,0.19491666666658602
0.329,-0.0406,0.8444,-0.4059,0.2358,0.4109,0.21,1.3125,-2.6688,92.87865612125339,21.385805371907235,47.820781602877325,0.19518333333326154
0.3356,-0.045,0.8519,-0.4059,0.2358,0.4109,-0.63,0.7962,-2.59,92.91477072938552,21.39861154278393,47.82511947271018,0.19518333333326154
0.3356,-0.045,0.8519,-0.4065,0.2346,0.4171,-0.63,0.7962,-2.59,92.94189501888674,21.40956666968812,47.83370879437526,0.19518333333326154
0.3301,-0.0461,0.8441,-0.4065,0.2346,0.4171,-1.2337,0.6737,-2.6862,93.03089549091659,21.392874298857866,47.84969745179646,0.19518333333326154
0.3345,-0.0433,0.8483,-0.4065,0.2346,0.4171,-1.2337,0.6737,-2.6862,92.97828574637936,21.414234073153708,47.87284624541609,0.19518333333326154
0.3345,-0.0433,0.8483,-0.406,0.2361,0.4221,-0.4988,0.9712,-2.5638,92.96889966355127,21.42429750947794,47.94685769220512,0.19518333333326154
0.3342,-0.0478,0.8501,-0.406,0.2361,0.4221,-0.4988,0.9712,-2.5638,93.01050568952242,21.42507420442922,48.023712137188674,0.19518333333326154
0.3342,-0.0478,0.8501,-0.406,0.2361,0.4221,-0.5337,1.19,-2.5638,93.05006144330561,21.42575386671465,48.17196703171717,0.19518333333326154
0.3337,-0.0456,0.8425,-0.406,0.2361,0.4221,-0.2187,1.3825,-2.4938,93.05361297164721,21.43614894106852,48.355783902823276,0.19518333333326154
0.3296,-0.0421,0.8423,-0.4068,0.2343,0.4305,-0.2187,1.3825,-2.4938,93.03939860118506,21.430077083696844,48.38044976229434,0.19518333333326154
0.3296,-0.0421,0.8423,-0.4068,0.2343,0.4305,-0.7788,1.1113,-2.52,92.98164501408735,21.422562674855843,48.39019752025447,0.19518333333326154
0.3301,-0.0445,0.8469,-0.4068,0.2343,0.4305,-0.7788,1.1113,-2.52,92.99013595864726,21.408630590755205,48.39705719237973,0.19518333333326154
0.3301,-0.0445,0.8469,-0.4058,0.2358,0.4192,-0.7962,0.9363,-2.7738,92.99601088776178,21.37191976854997,48.37225004737999,0.19543333333331248
0.3364,-0.0438,0.8522,-0.4058,0.2358,0.4192,-0.7962,0.9363,-2.7738,92.97813260315714,21.40935738293448,48.372036886442714,0.19543333333331248
0.3337,-0.0455,0.8434,-0.4058,0.2358,0.4192,-0.525,0.98,-2.7387,92.9984213697928,21.445259412197988,48.38858585545982,0.19543333333331248
0.3337,-0.0455,0.8434,-0.4064,0.2359,0.4231,-0.525,0.98,-2.7387,93.01496406063085,21.47250609630725,48.42106952299556,0.19543333333331248
0.3374,-0.0449,0.8533,-0.4064,0.2359,0.4231,-0.6037,1.1988,-3.045,93.01429037659672,21.501155789824477,48.46577219327228,0.19543333333331248
0.3374,-0.0449,0.8533,-0.4064,0.2359,0.4231,-0.4988,1.1025,-2.8,93.01392204132647,21.513774232071757,48.4917020150262,0.19543333333331248
0.3298,-0.0418,0.8467,-0.4064,0.2359,0.4231,-0.4988,1.1025,-2.8,92.98261779396586,21.44346820363931,48.41889739308209,0.19543333333331248
0.3349,-0.0426,0.8516,-0.406,0.2354,0.4138,-0.42,1.0237,-2.6513,92.96974455431669,21.443444751253995,48.336865470976,0.19543333333331248
0.3349,-0.0426,0.8516,-0.406,0.2354,0.4138,-0.42,1.0237,-2.6513,92.9582654414465,21.443425688396605,48.26782456239259,0.19543333333331248
0.3309,-0.0433,0.8436,-0.406,0.2354,0.4138,-0.525,1.225,-2.905,92.9545751542909,21.4266085883346,48.160879311310836,0.19543333333331248
0.3309,-0.0433,0.8436,-0.4074,0.2366,0.4219,-0.525,1.225,-2.905,92.95156623410293,21.41527605102444,48.19019139440183,0.19543333333331248
0.3276,-0.0449,0.8492,-0.4074,0.2366,0.4219,-0.5337,1.1025,-2.5638,92.96585090807282,21.37195548500496,48.139657792673695,0.195699999999988
0.3276,-0.0462,0.8424,-0.4074,0.2366,0.4219,-0.5337,1.1025,-2.5638,92.99884284874534,21.35315380257978,48.15000853120517,0.195699999999988
0.3337,-0.0462,0.8424,-0.4074,0.2366,0.4118,-0.5512,0.6562,-2.4325,93.02714066446234,21.35573175418111,48.13929452988752,0.195699999999988
0.3328,-0.0443,0.8341,-0.4073,0.2354,0.4118,-0.4462,0.6737,-2.485,93.02881919840974,21.377865475389573,48.129075823327256,0.195699999999988
0.3328,-0.0443,0.8341,-0.4073,0.2354,0.4118,-0.4462,0.6737,-2.485,93.03028178317861,21.39866850970502,48.12028051438497,0.195699999999988
0.3298,-0.0415,0.8446,-0.4073,0.2354,0.4118,-0.3237,0.4725,-2.7037,93.0249515404573,21.37831068953242,47.947039452700714,0.195699999999988
0.3298,-0.0415,0.8489,-0.4066,0.2358,0.4325,-0.3237,0.4725,-2.7037,93.0194030611667,21.34082558491795,48.097656616933854,0.195699999999988
0.3393,-0.0467,0.8489,-0.4066,0.2358,0.4325,-0.455,0.7088,-2.52,93.0369087499763,21.378255178387278,48.24118658883404,0.195699999999988
0.3346,-0.0433,0.8433,-0.4066,0.2358,0.4325,-0.455,0.7088,-2.52,93.02370686489174,21.399671708731066,48.33573492226686,0.195699999999988
0.3346,-0.0433,0.8433,-0.4056,0.235,0.4138,-0.175,1.1113,-2.94,93.01442753465547,21.47360736781967,48.29383242987408,0.195699999999988
0.3353,-0.0454,0.8443,-0.4056,0.235,0.4138,-0.175,1.1113,-2.94,93.02141438456682,21.527496806663954,48.28186845939893,0.195699999999988
0.3353,-0.0454,0.8443,-0.4056,0.235,0.4138,-0.1488,1.19,-2.8087,93.02877986507205,21.556506124803168,48.27051462827757,0.195699999999988
0.3284,-0.0468,0.8453,-0.4056,0.235,0.4138,-0.1488,1.19,-2.625,93.04703564858995,21.496385009653647,48.14989718679196,0.1959666666666635
0.3354,-0.0455,0.8654,-0.4057,0.2358,0.4247,-0.3938,0.7,-2.625,93.04378525453293,21.439062963856763,48.16675284003531,0.1959666666666635
0.3354,-0.0455,0.8654,-0.4057,0.2358,0.4247,-0.35,0.8838,-2.87,93.04211545507367,21.351982815305742,48.17247873747662,0.1959666666666635
0.3334,-0.0434,0.8466,-0.4057,0.2358,0.4247,-0.35,0.8838,-2.87,93.03685627202597,21.388371372564123,48.192464968484614,0.1959666666666635
0.3334,-0.0434,0.8466,-0.4058,0.2358,0.4189,-0.2537,1.0588,-2.835,93.03246834782504,21.412100244362826,48.21162851169072,0.1959666666666635
0.3287,-0.0439,0.8309,-0.4058,0.2358,0.4189,-0.2537,1.0588,-2.835,93.03212067688804,21.454290567702124,48.25489188601795,0.1959666666666635
0.3323,-0.0422,0.85,-0.4058,0.2358,0.4189,-0.6475,0.7875,-2.8525,92.98300019578222,21.416426491635917,48.24701395049782,0.1959666666666635
0.3323,-0.0422,0.85,-0.4056,0.2361,0.4138,-0.6475,0.7875,-2.8525,92.94658630533432,21.38997523392794,48.230280664123825,0.1959666666666635
0.3263,-0.0453,0.8248,-0.4056,0.2361,0.4138,-0.56,1.0237,-2.9313,92.98743272405015,21.445663581152477,48.24259513250256,0.1959666666666635
0.3263,-0.0453,0.8248,-0.4056,0.2361,0.4138,-0.56,1.0237,-2.9313,93.01981327904352,21.48253678575652,48.25295941586641,0.1959666666666635
0.3371,-0.0468,0.8531,-0.4056,0.2361,0.4138,-0.9275,0.6388,-2.5375,93.06622883712419,21.48768664822402,48.25744581413997,0.1959666666666635
0.334,-0.05,0.8403,-0.4064,0.2354,0.4357,-0.5863,0.455,-2.7213,93.14197914195728,21.5233114864489,48.61029264897947,0.1959666666666635
0.334,-0.05,0.8403,-0.4064,0.2354,0.4357,-0.5863,0.455,-2.7213,93.20080295376616,21.55070960208438,48.86587948977136,0.19621666666660076
0.3307,-0.0417,0.8578,-0.4064,0.2354,0.4357,-0.2975,0.5337,-2.66,93.20036442284069,21.456067209517414,48.77396286649042,0.19621666666660076
0.3307,-0.0417,0.8578,-0.4058,0.2353,0.4172,-0.2975,0.5337,-2.66,93.19992635232732,21.379679001473804,48.50304339528153,0.19621666666660076
0.3289,-0.0448,0.8321,-0.4058,0.2353,0.4172,-0.4462,0.5425,-2.3712,93.18473042164086,21.387233186790375,48.46164924751596,0.19621666666660076
0.3289,-0.0436,0.8505,-0.4058,0.2353,0.4172,-0.4462,0.5425,-2.3712,93.15255539410146,21.374400304333356,48.302350995556495,0.19621666666660076
0.3326,-0.0436,0.8505,-0.4058,0.2353,0.4073,-0.3325,1.2775,-2.9137,93.14540028457442,21.36079925932967,48.05785247319252,0.19621666666660076
0.3379,-0.0438,0.8503,-0.4076,0.2354,0.4073,-0.3325,1.2775,-2.9137,93.13894406195308,21.455029614216468,47.93696085265639,0.19621666666660076
0.3379,-0.0438,0.8503,-0.4076,0.2354,0.4073,-0.3413,0.9712,-2.765,93.13114759775524,21.503981053899707,47.90428521566658,0.19621666666660076
0.3297,-0.0477,0.8447,-0.4076,0.2354,0.4073,-0.4725,0.9712,-2.625,93.14609813054051,21.467836228747192,47.84817956559892,0.19621666666660076
0.3297,-0.0477,0.8291,-0.4068,0.2358,0.4207,-0.4725,0.9712,-2.625,93.16782462966724,21.49924867831716,47.94886339054978,0.19621666666660076
0.329,-0.0458,0.8359,-0.4068,0.2358,0.4207,-0.525,0.9363,-2.66,93.16198019482066,21.49066436856171,47.987795483613255,0.19621666666660076
0.336,-0.0442,0.8646,-0.4068,0.2358,0.4207,-0.525,0.9363,-2.66,93.11850564413001,21.436885989718384,47.98667405884686,0.19621666666660076
0.336,-0.0442,0.8646,-0.4067,0.2354,0.4124,-0.6037,0.98,-2.6688,93.07361906058229,21.39219909731705,47.928946001656115,0.19648333333327628
0.3307,-0.0443,0.8392,-0.4067,0.2354,0.4124,-0.6037,0.98,-2.6688,93.06149095077708,21.409737603932655,47.92307527654336,0.19648333333327628
0.3307,-0.0443,0.8392,-0.4067,0.2354,0.4124,-0.875,0.7,-2.5812,93.04695772120111,21.419510000830492,47.91822478371076,0.19648333333327628
0.3329,-0.0426,0.8571,-0.4067,0.2354,0.4124,-0.875,0.7,-2.5812,92.97325594504987,21.38954574162492,47.8649358860931,0.19648333333327628
0.3292,-0.0451,0.8379,-0.4066,0.2352,0.4193,-0.7175,0.665,-2.66,93.0050601804342,21.39561732268958,47.91237957469909,0.19648333333327628
0.3292,-0.0451,0.8379,-0.4066,0.2352,0.4193,-0.3413,0.9625,-2.5287,93.0081723982098,21.398086972848244,47.943722023704204,0.19648333333327628
0.3338,-0.0484,0.8549,-0.4066,0.2352,0.4193,-0.3413,0.9625,-2.5287,93.0176900564448,21.388296937064247,47.96616672832697,0.19648333333327628
0.3338,-0.0484,0.8549,-0.4077,0.2349,0.4118,-0.4725,0.84,-2.2925,93.05067964142856,21.37794053086614,47.96456908414116,0.19648333333327628
0.3342,-0.0448,0.8456,-0.4077,0.2349,0.4118,-0.4725,0.84,-2.2925,93.04801590938781,21.39612532550805,47.96363097600107,0.19648333333327628
0.3379,-0.0444,0.846,-0.4077,0.2349,0.4118,-0.2537,0.9625,-2.415,93.04613749451808,21.39821830154012,47.96425944501044,0.19648333333327628
0.3379,-0.0444,0.846,-0.4075,0.2362,0.4192,-0.2537,0.9625,-2.415,93.04433971199238,21.40029872430125,48.02636238643165,0.19648333333327628
0.3295,-0.0454,0.8434,-0.4075,0.2362,0.4192,-0.595,0.77,-2.7387,93.05277808285726,21.37890087874333,48.02882213694193,0.19648333333327628
0.3295,-0.0454,0.8434,-0.4075,0.2362,0.4192,-0.595,0.77,-2.7387,93.05928691649814,21.362661675820956,48.03113060001617,0.1967333333333272
0.3354,-0.0411,0.8418,-0.4075,0.2362,0.4192,-0.7788,1.0938,-2.8087,92.97360273404388,21.457034465862968,48.09520272246105,0.1967333333333272
0.3317,-0.0415,0.845,-0.4082,0.236,0.4285,-0.7788,1.0938,-2.7562,92.92106741155463,21.444912681191145,48.15526923489902,0.1967333333333272
0.3317,-0.0415,0.845,-0.4082,0.236,0.4285,-0.5512,1.4525,-2.7562,92.89900397689456,21.435833821579816,48.24401099053328,0.1967333333333272
0.3313,-0.0435,0.8596,-0.4082,0.236,0.4285,-0.6475,0.875,-2.4938,92.89847984770488,21.40984420902117,48.235762762049816,0.1967333333333272
0.3313,-0.0435,0.8596,-0.4067,0.2356,0.421,-0.6475,0.875,-2.4938,92.89809130137017,21.38561747871964,48.21856636206983,0.1967333333333272
0.3329,-0.0472,0.8514,-0.4067,0.2356,0.421,-0.9013,1.3737,-2.8175,93.00152233668034,21.36864959348851,48.23103654482864,0.1967333333333272
0.3329,-0.044,0.8394,-0.4067,0.2356,0.421,-0.9013,1.3737,-2.8175,93.0011779227473,21.43603381114425,48.31623670141009,0.1967333333333272
0.3364,-0.044,0.8394,-0.4067,0.2356,0.4095,-0.595,1.2687,-2.8263,93.00104726391692,21.54443864661183,48.255173660194934,0.1967333333333272
0.3364,-0.045,0.8479,-0.407,0.2347,0.4095,-0.595,1.2687,-2.8263,93.00948973719764,21.564165913353747,48.1118857849902,0.1967333333333272
0.3364,-0.045,0.8479,-0.407,0.2347,0.4095,-0.8487,0.735,-2.8263,93.01959683780034,21.578204014853334,48.08166717832922,0.1967333333333272
0.3265,-0.044,0.8374,-0.407,0.2347,0.4095,-0.8487,0.735,-2.8263,93.01539588495487,21.490462249640796,48.01848965262305,0.1967333333333272
0.3265,-0.044,0.853,-0.4064,0.2346,0.4291,-0.5075,1.1113,-2.4675,93.00458592674329,21.465122385096592,48.01297153427247,0.19700000000000273
0.3332,-0.0422,0.8458,-0.4064,0.2346,0.4291,-0.525,0.9625,-2.5463,92.97721108939943,21.466501492911732,48.077338473227165,0.19700000000000273
0.3354,-0.0465,0.8539,-0.4064,0.2346,0.4291,-0.525,0.9625,-2.5463,93.00302543396793,21.460807998322966,48.14380074260553,0.19700000000000273
0.3354,-0.0465,0.8539,-0.4062,0.2351,0.4201,-0.4812,0.8838,-2.3712,93.02063108646419,21.458650498262298,48.15013007424936,0.19700000000000273
0.3295,-0.043,0.8392,-0.4062,0.2351,0.4201,-0.4812,0.8838,-2.3712,93.007132657019,21.45639856843276,48.15100693320648,0.19700000000000273
0.3295,-0.043,0.8392,-0.4062,0.2351,0.4201,-0.28,1.1375,-2.9488,93.00578664019567,21.440788181298572,48.15522062361952,0.19700000000000273
0.3337,-0.0472,0.8499,-0.4062,0.2351,0.4201,-0.28,1.1375,-2.9488,93.00893611547136,21.429007591253956,48.1904601778607,0.19700000000000273
0.3386,-0.0459,0.8447,-0.4068,0.235,0.4221,-0.8487,0.42,-2.9225,93.04491948617475,21.557703679948425,48.35781461814063,0.19700000000000273
0.3386,-0.0459,0.8447,-0.4068,0.235,0.4221,-0.8487,0.42,-2.9225,93.06813233261946,21.643417301631814,48.47604152319988,0.19700000000000273
0.3329,-0.0437,0.85,-0.4068,0.235,0.4221,-0.8138,0.4288,-2.835,93.02561124777723,21.56102196473529,48.37894493231207,0.19700000000000273
0.3329,-0.0437,0.85,-0.4066,0.2355,0.415,-0.3588,1.1375,-2.66,93.0209217195959,21.522632267554307,48.25819857811642,0.19700000000000273
0.3368,-0.0435,0.8522,-0.4066,0.2355,0.415,-0.3588,1.1375,-2.66,93.01530557755231,21.525803966923167,48.208852841533144,0.19726666666667825
0.3318,-0.0437,0.8563,-0.4066,0.2355,0.415,-0.5863,1.0938,-2.3888,92.99433804598863,21.514234475897382,48.086985314447084,0.19726666666667825
0.3318,-0.0437,0.8563,-0.4058,0.2364,0.4085,-0.5863,1.0938,-2.3888,92.97805573354756,21.503026270174853,47.962835938169164,0.19726666666667825
0.3337,-0.0467,0.8453,-0.4058,0.2364,0.4085,-0.4112,0.91,-2.555,92.9966977869636,21.504189364042222,47.96610696877647,0.19726666666667825
0.3337,-0.0467,0.8453,-0.4058,0.2364,0.4085,-0.4112,0.91,-2.555,93.01345244491593,21.50521505076243,47.969151305866696,0.19726666666667825
0.3377,-0.0451,0.8441,-0.4058,0.2364,0.4085,-0.6125,1.1113,-2.9838,93.02418903887046,21.603004670726886,48.028830332620586,0.19726666666667825
0.3262,-0.0453,0.8467,-0.4062,0.2368,0.4098,-0.6125,1.1113,-2.9838,93.03334509107972,21.40106968449414,47.91490917215194,0.19726666666667825
0.3262,-0.0453,0.8467,-0.4062,0.2368,0.4098,-0.595,1.1025,-3.0013,93.04001382990431,21.26931057650635,47.82786188187926,0.19726666666667825
0.339,-0.0451,0.8592,-0.4062,0.2368,0.4098,-0.6037,1.2337,-2.73,93.03176604828857,21.324934753157294,47.870247447639194,0.19726666666667825
0.339,-0.0451,0.8592,-0.407,0.2359,0.4239,-0.6037,1.2337,-2.73,93.02544663064683,21.36742949836149,48.05168036455615,0.19726666666667825
0.3339,-0.044,0.8499,-0.407,0.2359,0.4239,-0.4638,1.1287,-2.4938,93.01667622396111,21.371149864968316,48.12785356281089,0.19726666666667825
0.3339,-0.0446,0.8413,-0.407,0.2359,0.4239,-0.4638,1.1287,-2.4938,93.01921687954459,21.38802067360922,48.24803902262665,0.19726666666667825
0.334,-0.0446,0.8413,-0.407,0.2356,0.4111,-0.7525,1.1113,-2.4762,93.0240171404814,21.400449501315762,48.1885830643277,0.1975166666666155
0.3343,-0.0453,0.8475,-0.4062,0.2356,0.4111,-0.7525,1.1113,-2.4762,93.03513419832234,21.405606259603243,48.1342995150061,0.1975166666666155
0.3343,-0.0453,0.8475,-0.4062,0.2356,0.4111,-0.8225,0.7962,-2.6862,93.04355399073133,21.425198116742273,48.12684936716318,0.1975166666666155
0.3395,-0.0469,0.8442,-0.4062,0.2356,0.4111,-0.8225,0.7962,-2.6862,93.09040709512202,21.519948186649774,48.1382724024784,0.1975166666666155
0.3395,-0.0469,0.8458,-0.4068,0.2376,0.4214,-0.8313,0.4988,-2.6775,93.11940202355774,21.585255482490698,48.37230595152631,0.1975166666666155
0.3334,-0.0456,0.8458,-0.4068,0.2376,0.4214,-0.8313,0.4988,-2.5725,93.1078011723322,21.572089252673138,48.43185899392273,0.1975166666666155
0.3302,-0.0439,0.8439,-0.4068,0.2376,0.4214,-1.3475,0.4812,-2.5725,93.0412805477952,21.541965548917602,48.41937659220466,0.1975166666666155
0.3302,-0.0439,0.8439,-0.4072,0.2346,0.4266,-0.4725,1.1287,-2.9137,93.03188386317508,21.47632334368773,48.38744299774756,0.1975166666666155
0.3359,-0.0443,0.8555,-0.4072,0.2346,0.4266,-0.4725,1.1287,-2.9137,93.02186609889954,21.454653451180835,48.37869594008471,0.1975166666666155
0.3359,-0.0443,0.8555,-0.4072,0.2346,0.4266,-0.4988,1.0237,-2.8263,93.01225776968636,21.44196858773036,48.37397083471218,0.1975166666666155
0.3337,-0.0457,0.8506,-0.4072,0.2346,0.4266,-0.4988,1.0237,-2.8263,93.0227858839737,21.4277251757041,48.377153677696796,0.1975166666666155
0.3362,-0.0432,0.8503,-0.4058,0.2357,0.4181,-0.7788,0.9275,-2.7125,92.98568956176133,21.45489204386654,48.372374032721474,0.1975166666666155
0.3362,-0.0432,0.8503,-0.4058,0.2357,0.4181,-0.7788,0.9275,-2.7125,92.96062869550687,21.47592772592278,48.3679969241581,0.197783333333291
0.3332,-0.045,0.8447,-0.4058,0.2357,0.4181,-0.5775,0.8662,-2.8525,92.98000254139413,21.483042000714708,48.367356675719606,0.197783333333291
0.3332,-0.045,0.8447,-0.4066,0.2365,0.418,-0.5775,0.8662,-2.8525,92.99515079663124,21.4880119230125,48.36640164420039,0.197783333333291
0.3367,-0.0449,0.8539,-0.4066,0.2365,0.418,0.3325,1.3475,-2.8612,93.000884354654,21.489462649517833,48.34557383677831,0.197783333333291
0.3337,-0.0438,0.8393,-0.4066,0.2365,0.418,-0.5775,1.2075,-2.7213,92.99793183633996,21.527850664899752,48.38138433101195,0.197783333333291
0.3337,-0.0438,0.8393,-0.4077,0.2376,0.4205,-0.5775,1.2075,-2.7213,92.99562328587075,21.557373866599956,48.43999193663618,0.197783333333291
0.3319,-0.0425,0.8565,-0.4077,0.2376,0.4205,-0.5775,1.3913,-2.73,92.96183722184514,21.463103554280703,48.26355732448613,0.197783333333291
0.3319,-0.0425,0.8565,-0.4077,0.2376,0.4205,-0.5775,1.3913,-2.73,92.9354201684477,21.391084638343052,48.15015027036349,0.197783333333291
0.3287,-0.0432,0.8297,-0.4077,0.2376,0.4205,-0.1575,1.3563,-2.31,92.94099624835731,21.41049464841789,48.274367879237346,0.197783333333291
0.3309,-0.045,0.8384,-0.4055,0.237,0.4102,-0.1575,1.3563,-2.31,92.9572306193606,21.420443702121457,48.229054750848576,0.197783333333291
0.3309,-0.045,0.8384,-0.4055,0.237,0.4102,-0.5863,1.3125,-2.5638,92.98294889809482,21.43163790750153,48.200955238469035,0.197783333333291
0.3519,-0.0489,0.8849,-0.4055,0.237,0.4102,-0.5863,1.3125,-2.5638,93.02317601913234,21.459712065647807,48.25082365942205,0.197783333333291
0.3519,-0.0489,0.8849,-0.4061,0.2354,0.4162,-0.5337,1.0412,-2.415,93.04979116889649,21.46089150224021,48.28050854040933,0.19803333333334194
0.3461,-0.0503,0.865,-0.4061,0.2354,0.4162,-0.0088,1.1988,-2.6688,93.11229672132774,21.523022073841197,48.3793769644527,0.19803333333334194
0.3172,-0.0445,0.8195,-0.4061,0.2354,0.4162,-0.0088,1.1988,-2.6688,93.1113738162096,21.44524109309583,48.2257869668226,0.19803333333334194
0.3172,-0.0445,0.8195,-0.4061,0.2367,0.4218,-0.21,1.4262,-2.485,93.11111471060934,21.426367562512972,48.22489442800964,0.19803333333334194
0.3187,-0.0431,0.8344,-0.4064,0.2367,0.4218,-0.21,1.4262,-2.485,93.09857146872766,21.39345847093424,48.07309193755964,0.19803333333334194
0.3187,-0.0431,0.8344,-0.4064,0.2367,0.4218,-0.8313,0.9013,-2.3975,93.04933715043973,21.381629140158314,48.05723331113134,0.19803333333334194
0.3419,-0.0445,0.8531,-0.4064,0.2367,0.4218,-0.8313,0.9013,-2.3975,93.02732130438267,21.391541740324442,48.10928816135038,0.19803333333334194
0.3419,-0.0445,0.8547,-0.4063,0.2359,0.4164,-0.5075,1.1988,-2.6163,93.0192145204499,21.454322234882387,48.212970677422085,0.19803333333334194
0.34,-0.0458,0.8547,-0.4063,0.2359,0.4164,-0.5075,1.1988,-2.6163,93.02752902512006,21.48865568474309,48.26833496880001,0.19803333333334194
0.329,-0.0404,0.8469,-0.4063,0.2359,0.4164,0.0525,1.575,-2.5113,92.95051467209697,21.465416494597243,48.03074788517899,0.19803333333334194
0.329,-0.0404,0.8469,-0.4062,0.2355,0.4194,-0.805,0.9887,-2.7125,92.87676115399103,21.407313072002374,48.003615157634165,0.19803333333334194
0.3315,-0.0468,0.8376,-0.4062,0.2355,0.4194,-0.805,0.9887,-2.7125,92.9847625875112,21.442182178452924,48.06982241562371,0.19803333333334194
0.3315,-0.0468,0.8376,-0.4062,0.2355,0.4194,-0.9538,0.7788,-2.6775,93.06918093270946,21.466601408978132,48.09303059716557,0.19829999999990378
0.3321,-0.0447,0.856,-0.4062,0.2355,0.4194,-0.9538,0.7788,-2.6775,93.03753899196839,21.407760425737155,48.085120501261436,0.19829999999990378
0.3397,-0.0465,0.8587,-0.4077,0.2359,0.4134,-0.9363,1.0325,-2.5812,93.06171841790477,21.42808386354615,48.07123692214839,0.19829999999990378
0.3397,-0.0465,0.8587,-0.4077,0.2359,0.4134,-0.9363,1.0325,-2.5812,93.07648223454358,21.445601561710884,48.059637927430884,0.19829999999990378
0.3371,-0.0458,0.851,-0.4077,0.2359,0.4134,-0.9363,0.4112,-2.5025,93.07809802180516,21.455820829311623,48.047634426915614,0.19829999999990378
0.3261,-0.0416,0.8477,-0.4059,0.2358,0.418,-0.4288,1.0412,-2.7387,93.0471423714832,21.35028285529545,47.98097279710435,0.19829999999990378
0.3377,-0.0502,0.8604,-0.4059,0.2358,0.418,-0.4288,1.0412,-2.5463,93.08079127925568,21.35542929550972,48.05065171994753,0.19829999999990378
0.3407,-0.05,0.8425,-0.4059,0.2358,0.418,-0.8138,0.8575,-2.5463,93.18809780947878,21.425292819214043,48.07300441261696,0.19829999999990378
0.3407,-0.05,0.8425,-0.407,0.2354,0.4204,-0.0525,1.5313,-2.87,93.22922208980728,21.59810427750763,48.473154786909355,0.19829999999990378
0.3224,-0.0393,0.8612,-0.407,0.2354,0.4204,-0.0525,1.5313,-2.87,93.10750504258567,21.25921638634916,47.83356872046717,0.19829999999990378
0.3224,-0.0393,0.8612,-0.407,0.2354,0.4204,-0.1488,1.3563,-2.66,93.0430744376582,21.113630483686077,47.51878216814417,0.1985666666665793
0.3342,-0.0434,0.8436,-0.407,0.2354,0.4204,-0.1488,1.3563,-2.66,93.03030746059736,21.204650147449044,47.797021254887035,0.1985666666665793
0.3342,-0.0422,0.8512,-0.4076,0.2366,0.4224,-0.175,1.2513,-2.73,93.00918603144102,21.25363035322927,47.924837858031694,0.1985666666665793
0.3421,-0.0422,0.8512,-0.4076,0.2366,0.4224,-0.175,1.2513,-2.73,92.99038721487075,21.399360003964112,48.171315923583755,0.1985666666665793
0.3271,-0.0411,0.8511,-0.4076,0.2366,0.4224,-0.1663,0.9712,-2.66,92.9640250970462,21.322475806832564,48.117435510949214,0.1985666666665793
0.3271,-0.0411,0.8511,-0.4059,0.235,0.4224,-0.1663,0.9712,-2.66,92.94074216965244,21.26042067607712,48.072365378781114,0.1985666666665793
0.3345,-0.0556,0.8336,-0.4059,0.235,0.4224,-0.7613,0.6125,-2.5375,93.21760322042793,21.318822763119996,48.29366548583444,0.1985666666665793
0.3345,-0.0556,0.8649,-0.4059,0.235,0.4224,-0.2887,0.8487,-2.8875,93.22209621604038,21.250571871493335,48.29496287794953,0.1985666666665793
0.3299,-0.042,0.859,-0.4059,0.235,0.4224,-0.2887,0.8487,-2.8875,93.21797084781055,21.166561893566172,48.287814589465974,0.1985666666665793
0.3286,-0.0411,0.8447,-0.4056,0.2349,0.4198,-0.4462,1.1638,-2.7825,93.1623455373371,21.184425584394585,48.19488213850015,0.1985666666665793
0.3286,-0.0411,0.8447,-0.4056,0.2349,0.4198,-0.4462,1.1638,-2.7825,93.11387661480639,21.19754650759679,48.124916792028486,0.1985666666665793
0.3415,-0.0484,0.8472,-0.4056,0.2349,0.4198,-0.5337,1.225,-2.7912,93.14354577622584,21.393170404930235,48.365752497181425,0.1985666666665793
0.3415,-0.0484,0.8472,-0.4052,0.2345,0.4039,-0.5337,1.225,-2.7912,93.16756649066551,21.53594427125989,48.30450757181928,0.19881666666663023
0.3285,-0.0374,0.8441,-0.4052,0.2345,0.4039,-0.5075,1.365,-2.9925,93.05857824785579,21.430362504294187,47.84982335572851,0.19881666666663023
0.3287,-0.0483,0.8497,-0.4052,0.2345,0.4039,-0.5075,1.365,-2.9925,93.09224976081228,21.31659152027022,47.64673842759439,0.19881666666663023
0.3287,-0.0483,0.8497,-0.4064,0.2365,0.4154,-0.4988,1.2513,-2.5287,93.11913546011675,21.29724018795513,47.725672809712634,0.19881666666663023
0.3339,-0.0483,0.8412,-0.4064,0.2365,0.4154,-0.5337,1.085,-2.5025,93.15094127832647,21.321360986588946,47.87868052507782,0.19881666666663023
0.3339,-0.0483,0.8412,-0.4064,0.2365,0.4154,-0.5337,1.085,-2.5025,93.1766918705301,21.343664784058138,48.001139207653054,0.19881666666663023
0.3326,-0.0407,0.8462,-0.4064,0.2365,0.4154,-0.5163,1.0237,-2.6688,93.10104742788059,21.361770196014273,47.998131461712006,0.19881666666663023
0.3287,-0.0488,0.8472,-0.4077,0.2355,0.4166,-0.5163,1.0237,-2.6688,93.13602913109028,21.324380422788156,47.96797919226439,0.19881666666663023
0.3287,-0.0488,0.8472,-0.4077,0.2355,0.4166,-1.2775,0.77,-2.9575,93.21550041816607,21.27169015936317,47.95812331533064,0.19881666666663023
0.3356,-0.0464,0.8464,-0.4077,0.2355,0.4166,-1.2775,0.77,-2.9575,93.17708208575536,21.38598188002085,47.97255388470616,0.19908333333330575
0.3356,-0.0464,0.8464,-0.4063,0.2346,0.4254,-0.21,0.9187,-3.0363,93.17388964290302,21.467132423590446,48.029466470211325,0.19908333333330575
0.3321,-0.0407,0.8353,-0.4063,0.2346,0.4254,-0.21,0.9187,-3.0363,93.14262301006943,21.54004513338129,48.07156467430416,0.19908333333330575
0.3343,-0.0464,0.8559,-0.4063,0.2346,0.4254,-0.49,0.6475,-2.7825,93.13626866432156,21.477985583768316,48.11620239738363,0.19908333333330575
0.3343,-0.0464,0.8559,-0.4058,0.2352,0.4205,-0.7525,0.8313,-2.7037,93.12590589978858,21.440149937495875,48.11666685978025,0.19908333333330575
0.3317,-0.0418,0.8526,-0.4058,0.2352,0.4205,-0.7525,0.8313,-2.7037,93.02626425389214,21.394953296292158,48.11605089274902,0.19908333333330575
0.3317,-0.0418,0.8526,-0.4058,0.2352,0.4205,-0.4812,0.9887,-2.7475,92.99236460041709,21.355600606369745,48.09673711897149,0.19908333333330575
0.33,-0.0421,0.8426,-0.4058,0.2352,0.4205,-0.4812,0.9887,-2.7475,92.97197933093251,21.35749523648926,48.10366617608689,0.199333333333243
0.33,-0.0522,0.8461,-0.4063,0.2352,0.4224,-0.8138,0.875,-2.695,93.16185894131684,21.338722481517575,48.1176355300083,0.199333333333243
0.3354,-0.0522,0.8461,-0.4063,0.2352,0.4224,-0.8138,0.875,-2.695,93.28717142156552,21.391999492071353,48.14476068853471,0.199333333333243
0.3335,-0.0418,0.8425,-0.4063,0.2352,0.4224,-0.2362,1.3563,-2.5463,93.26094724246133,21.412018474846185,48.23785045008259,0.199333333333243
0.3335,-0.0418,0.8425,-0.4057,0.2357,0.4134,-0.2362,1.3563,-2.5463,93.23626220041386,21.429808919749725,48.18347607095282,0.199333333333243
0.3356,-0.0451,0.8511,-0.4057,0.2357,0.4134,-0.6475,1.19,-2.765,93.18375447922487,21.445873007318877,48.161735117197594,0.199333333333243
0.3356,-0.0451,0.8389,-0.4057,0.2357,0.4134,-0.6475,1.19,-2.8263,93.15621892144073,21.540867195601635,48.235722916402366,0.199333333333243
0.3321,-0.0484,0.8389,-0.4057,0.2357,0.4134,-0.77,0.8575,-2.8263,93.2029257610672,21.54778067426558,48.23782065280396,0.199333333333243
0.3325,-0.0384,0.8611,-0.407,0.2358,0.4151,-0.8838,0.8225,-2.73,92.96311755697936,21.44070720455731,48.22603091867425,0.199333333333243
0.3325,-0.0384,0.8611,-0.407,0.2358,0.4151,-0.8838,0.8225,-2.73,92.8118427704393,21.35890716566534,48.21439289778484,0.199333333333243
0.3294,-0.0486,0.8512,-0.407,0.2358,0.4151,-0.385,1.085,-2.4762,92.84812372825746,21.34663788273674,48.12630497035112,0.199333333333243
0.3294,-0.0486,0.8512,-0.4062,0.2346,0.4195,-0.385,1.085,-2.4762,92.88151780181097,21.335010060262746,48.09222123851275,0.199333333333243
0.3303,-0.0473,0.8512,-0.4062,0.2346,0.4195,-0.1312,1.225,-2.4237,92.9243906333563,21.334593899055466,48.056739118680404,0.1995999999999185
0.3321,-0.0461,0.8453,-0.4062,0.2346,0.4195,-0.1312,1.225,-2.4237,92.95266808025035,21.33482057168947,48.098116127003465,0.1995999999999185
0.3321,-0.0461,0.8453,-0.4059,0.2348,0.4233,-0.3762,1.2337,-2.8175,92.9648431209149,21.3589593079158,48.19995069003712,0.20116666666660876
0.3393,-0.0457,0.8533,-0.4059,0.2348,0.4233,-0.3762,1.2337,-2.8175,92.97210656455592,21.443356172020135,48.341492351543124,0.20116666666660876
0.3393,-0.0457,0.8533,-0.4059,0.2348,0.4233,-0.4462,0.91,-2.6513,92.98414106677484,21.48319909168959,48.36612872570155,0.2014166666666597
0.3344,-0.0411,0.8414,-0.4059,0.2348,0.4233,-0.175,0.735,-2.5287,92.96350862619047,21.499516815225803,48.381353163842505,0.2014166666666597
0.3318,-0.0423,0.8486,-0.4057,0.2354,0.4137,-0.175,0.735,-2.5287,92.95142801809942,21.48316075497567,48.328124361223715,0.2014166666666597
0.3318,-0.0423,0.8486,-0.4057,0.2354,0.4137,-0.5512,1.0588,-2.8437,92.93170693703622,21.438027725630324,48.231491775385706,0.2016833333333352
0.3348,-0.0474,0.8594,-0.4057,0.2354,0.4137,-0.5512,1.0588,-2.8437,92.97713385259271,21.38370622371704,48.16896575974219,0.2016833333333352
0.3348,-0.0474,0.8594,-0.4058,0.2361,0.4124,-0.3588,0.9975,-2.59,92.98735118769821,21.365129381237242,48.12974815054847,0.2016833333333352
0.3355,-0.0389,0.8542,-0.4058,0.2361,0.4124,-0.3588,0.9975,-2.59,92.96576205957155,21.373491720111897,48.07792707497997,0.2016833333333352
0.3342,-0.0464,0.8459,-0.4058,0.2361,0.4124,-0.3413,1.3125,-2.7213,92.97289243078878,21.40933238441394,48.11146472949645,0.2016833333333352
0.3342,-0.0464,0.8459,-0.4072,0.2357,0.4158,-0.3413,1.3125,-2.7213,92.97973048214844,21.436896486145464,48.124652760270955,0.2016833333333352
0.3387,-0.0466,0.8535,-0.4072,0.2357,0.4158,-0.6562,0.8225,-2.7912,93.01804472488446,21.48522064482596,48.126165878253126,0.20193333333327246
0.3387,-0.0466,0.8535,-0.4072,0.2357,0.4158,-0.7525,0.8925,-2.8087,93.05149202922594,21.521691046066465,48.13242147468045,0.20193333333327246
0.3295,-0.0417,0.8371,-0.4072,0.2357,0.4158,-0.7525,0.8925,-2.8087,92.98915162203927,21.504860312822583,48.12046310554794,0.20193333333327246
0.3401,-0.0475,0.8696,-0.4061,0.2352,0.4114,-0.6037,0.7262,-2.485,93.02127584277586,21.49443786805888,48.0862200635167,0.20193333333327246
0.3401,-0.0475,0.8696,-0.4061,0.2352,0.4114,-0.6037,0.7262,-2.485,93.04588929360528,21.484642024240845,48.05535201088771,0.20193333333327246
0.3371,-0.048,0.8578,-0.4061,0.2352,0.4114,-0.3237,1.0588,-2.695,93.0497377898778,21.471485985340955,48.03029568029041,0.20193333333327246
0.3371,-0.048,0.8578,-0.407,0.2348,0.4146,-0.3237,1.0588,-2.695,93.05349187467182,21.461159148596575,48.01290269021245,0.20193333333327246
0.3272,-0.0455,0.8369,-0.407,0.2348,0.4146,-0.5512,0.77,-2.9313,93.06528312219136,21.41521751707526,47.998159196300165,0.20219999999994798
0.3272,-0.0455,0.8427,-0.407,0.2348,0.4146,-0.5512,0.77,-2.9313,93.07038464972408,21.339753673771877,47.97445546220864,0.20219999999994798
0.3278,-0.0406,0.8427,-0.407,0.2348,0.4105,-0.525,0.4988,-2.4062,93.01276021298297,21.338193174631193,47.79465489735111,0.20219999999994798
0.3284,-0.0392,0.8398,-0.4052,0.235,0.4105,-0.49,0.8575,-2.835,92.95808520697734,21.33773241784622,47.78944419585249,0.20219999999994798
0.3284,-0.0392,0.8398,-0.4052,0.235,0.4105,-0.49,0.8575,-2.835,92.91219570100134,21.337406556556076,47.784345482494075,0.2032333333332872
0.34,-0.0459,0.8558,-0.4052,0.235,0.4105,-0.6125,0.7525,-2.7825,92.94991551626109,21.41752216207827,47.8099801936489,0.2032333333332872
0.34,-0.0459,0.8558,-0.4068,0.2365,0.4201,-0.6125,0.7525,-2.7825,92.9786227303613,21.476367263992085,47.86989790610751,0.2032333333332872
0.332,-0.0449,0.8454,-0.4068,0.2365,0.4201,-0.5512,1.2687,-2.975,92.99103773483557,21.453836576885802,48.00469293589334,0.2034999999999627
0.324,-0.0453,0.8501,-0.4068,0.2365,0.4201,-0.5512,1.2687,-2.975,93.00298718102884,21.23373200505925,47.90458757506714,0.2034999999999627
0.324,-0.0453,0.8501,-0.4057,0.2359,0.4249,-0.2362,1.19,-2.5812,93.00576309234013,21.178879540086804,47.92165251906581,0.2034999999999627
0.3348,-0.0503,0.8519,-0.4057,0.2359,0.4249,-0.2362,1.19,-2.5812,93.02767344799732,21.212319171329806,48.15932578928877,0.20376666666663823
0.3348,-0.0503,0.8519,-0.4057,0.2359,0.4249,-0.3938,0.7613,-2.7125,93.05823346303023,21.259438172286448,48.20566227242229,0.20376666666663823
0.3329,-0.0432,0.8466,-0.4057,0.2359,0.4249,-0.3938,0.7613,-2.59,93.04631059359511,21.285592475816216,48.23193961382345,0.20376666666663823
0.3365,-0.0439,0.8472,-0.4067,0.2365,0.4282,-0.49,0.9187,-2.59,93.03345169659887,21.33626702273803,48.28786525296609,0.20376666666663823
0.3365,-0.0439,0.8472,-0.4067,0.2365,0.4282,-0.5688,0.77,-3.1063,93.01916190651109,21.458216874535868,48.32922590624557,0.20376666666663823
0.3333,-0.0437,0.8497,-0.4067,0.2365,0.4282,-0.5688,0.77,-3.1063,93.00319721562792,21.43136634738839,48.34961302622992,0.20401666666657547
0.3333,-0.0437,0.8497,-0.4056,0.2358,0.4186,-0.2975,0.9538,-2.905,93.00313519403296,21.418587710383264,48.33619396210417,0.20401666666657547
0.3325,-0.0414,0.8402,-0.4056,0.2358,0.4186,-0.2975,0.9538,-2.905,93.00294387613553,21.4669515295967,48.33773364783356,0.20401666666657547
0.3348,-0.0426,0.8598,-0.4056,0.2358,0.4186,-0.525,0.6737,-2.6337,92.97220841215156,21.42922822357386,48.29073779487765,0.20401666666657547
0.3348,-0.0426,0.8598,-0.4049,0.2346,0.4159,-0.525,0.6737,-2.6337,92.94714788049963,21.398120477481495,48.22437443896729,0.204283333333251
0.3337,-0.0501,0.8539,-0.4049,0.2346,0.4159,-0.56,1.0412,-2.6425,93.03226146986675,21.38249921496144,48.21746862602831,0.204283333333251
0.3337,-0.0501,0.8539,-0.4049,0.2346,0.4159,-0.56,1.0412,-2.6425,93.09973434381341,21.36971026912091,48.2117408171703,0.204283333333251
0.3326,-0.0461,0.8504,-0.4049,0.2346,0.4159,-0.63,1.3475,-2.6862,93.10053599899192,21.361904522686118,48.16057781320244,0.204283333333251
0.3311,-0.0443,0.8394,-0.4063,0.2354,0.4077,-0.5775,1.575,-2.7213,93.08319454431383,21.393677145012152,47.96925384531733,0.204283333333251
0.3311,-0.0443,0.8394,-0.4063,0.2354,0.4077,-0.5775,1.575,-2.7213,93.06963539951751,21.418112623849588,47.85926365990096,0.2053166666665902
0.3341,-0.0442,0.8501,-0.4063,0.2354,0.4077,-0.665,1.5488,-2.8612,93.04461846604963,21.421481503922063,47.75458634658621,0.20558333333326573
0.3341,-0.0442,0.8501,-0.4066,0.2358,0.4158,-0.665,1.5488,-2.8612,93.02631047689827,21.42382073431111,47.8675822246867,0.20558333333326573
0.3314,-0.0449,0.8452,-0.4066,0.2358,0.4158,-0.3938,1.0412,-2.87,93.02757883936573,21.411033231184998,47.89202356911071,0.20558333333326573
0.3314,-0.043,0.8527,-0.4066,0.2358,0.4158,-0.3938,1.0412,-2.87,93.01534193230607,21.34996699325611,47.86483742352742,0.20558333333326573
0.334,-0.043,0.8527,-0.4066,0.2358,0.421,-1.085,0.8925,-2.9838,92.9587843053662,21.355535658873073,47.8810202406377,0.20583333333331666
0.3345,-0.0447,0.8508,-0.4067,0.2372,0.421,-1.085,0.8925,-2.9838,92.9802240824527,21.38446092651315,47.91197880817329,0.20583333333331666
0.3345,-0.0447,0.8508,-0.4067,0.2372,0.421,-0.5075,1.1638,-2.8963,92.98493583004937,21.401019234176974,48.04629217474359,0.20583333333331666
0.3323,-0.0401,0.8393,-0.4067,0.2372,0.421,-0.1925,1.0237,-2.7912,92.96100897565059,21.448700633037525,48.111845433757786,0.20609999999999218
0.3323,-0.0401,0.8393,-0.4058,0.2345,0.4101,-0.1925,1.0237,-2.7912,92.93937628927463,21.483500357202736,48.04883117804138,0.20609999999999218
0.331,-0.0442,0.8371,-0.4058,0.2345,0.4101,-0.5337,0.6825,-2.8263,92.95519900057309,21.501874730888872,48.021814935745645,0.20609999999999218
0.3276,-0.0443,0.8524,-0.4058,0.2345,0.4101,-0.5337,0.6825,-2.8263,92.95897577634334,21.35634063994974,47.914367864809,0.20609999999999218
0.3276,-0.0443,0.8524,-0.4065,0.2356,0.4163,-0.4288,1.0412,-2.7125,92.96082665663577,21.27529503071342,47.853516528870585,0.20609999999999218
0.3333,-0.0434,0.8539,-0.4065,0.2356,0.4163,-0.4288,1.0412,-2.7125,92.95492219108448,21.280195406383303,47.853536165036566,0.20609999999999218
0.3333,-0.0434,0.8539,-0.4065,0.2356,0.4163,-0.5075,0.8575,-3.0363,92.94708719990051,21.286599539325866,47.853538217021914,0.20609999999999218
0.3365,-0.0447,0.8488,-0.4065,0.2356,0.4163,-0.5075,0.8575,-3.0363,92.95874869916881,21.405323749323696,47.86215927799122,0.20609999999999218
0.3324,-0.0489,0.8479,-0.4068,0.2367,0.4229,-0.7437,0.9187,-2.8263,93.06407990228108,21.396357666761876,47.91772678509248,0.2063666666666677
0.3324,-0.0489,0.8479,-0.4068,0.2367,0.4229,-0.105,1.1375,-2.7213,93.10245116412008,21.39124865955015,48.072694681455424,0.2063666666666677
0.3287,-0.0461,0.8499,-0.4068,0.2367,0.4229,-0.105,1.1375,-2.7213,93.10282825780315,21.32762816989141,48.0972901773687,0.2063666666666677
0.3287,-0.0461,0.8499,-0.4065,0.2354,0.4213,-0.1925,1.155,-2.6862,93.10301506493526,21.283220174014613,48.07204814272687,0.2063666666666677
0.3352,-0.0442,0.8542,-0.4065,0.2354,0.4213,-0.1925,1.155,-2.6862,93.08950276300337,21.30763309889248,48.110767499624,0.2063666666666677
0.3379,-0.0438,0.8363,-0.4065,0.2354,0.4213,-0.1312,0.6737,-2.5638,93.07639129555191,21.390821800155816,48.22319900876556,0.2074000000000069
0.3379,-0.0438,0.8363,-0.4075,0.2355,0.4207,-0.1312,0.6737,-2.5638,93.06515948313951,21.46361771923578,48.30072456560217,0.2074000000000069
0.325,-0.0428,0.844,-0.4075,0.2355,0.4207,-0.175,1.0938,-2.8,93.04733137367774,21.345987893427715,48.167203789673145,0.2074000000000069
0.325,-0.0428,0.844,-0.4075,0.2355,0.4207,-0.175,1.0938,-2.8,93.0314637277393,21.260684973842995,48.06108871689904,0.20766666666668243
0.3345,-0.0472,0.8519,-0.4075,0.2355,0.4207,-0.6825,1.1375,-2.6775,93.07024813464528,21.29068992752765,48.09983036654735,0.20766666666668243
0.3307,-0.042,0.8488,-0.4077,0.2345,0.4274,-0.6825,1.1375,-2.73,93.00436668131506,21.2840695795018,48.092799870456055,0.20766666666668243
0.3307,-0.042,0.8488,-0.4077,0.2345,0.4274,-0.7,1.1725,-2.73,92.9552145094392,21.279011886616072,48.08693180981731,0.20791666666661968
0.3351,-0.0444,0.8517,-0.4077,0.2345,0.4274,-0.6913,1.0588,-2.7475,92.96338455336124,21.32124290156107,48.140306163844095,0.20791666666661968
0.3351,-0.0444,0.8517,-0.4053,0.2354,0.4202,-0.6913,1.0588,-2.7475,92.96925068137284,21.353080140468812,48.18513716336505,0.20791666666661968
0.3237,-0.045,0.8319,-0.4053,0.2354,0.4202,-0.84,1.2163,-2.5287,93.01387282297918,21.34142780958899,48.19014137451084,0.2081833333332952
0.3237,-0.044,0.8425,-0.4053,0.2354,0.4202,-0.84,1.2163,-2.5287,93.00534176063424,21.30739957849458,48.10115754409521,0.2081833333332952
0.3311,-0.044,0.8425,-0.4053,0.2363,0.4194,-0.0875,1.9425,-2.8263,93.0025959502604,21.34221696977001,48.26844955556614,0.2081833333332952
0.3454,-0.0469,0.8588,-0.4066,0.2363,0.4194,-0.0875,1.9425,-2.8263,93.02408071786654,21.497290188858067,48.58247015678108,0.2081833333332952
0.3454,-0.0469,0.8588,-0.4066,0.2363,0.4194,-0.2275,1.19,-2.625,93.03083381956236,21.562114840070368,48.65670867775727,0.2081833333332952
0.3333,-0.0459,0.8453,-0.4066,0.2363,0.4194,-0.2275,1.19,-2.625,93.0359609801913,21.549973311401374,48.59183145793101,0.2081833333332952
0.3333,-0.0459,0.8369,-0.4067,0.2353,0.421,-0.14,0.875,-2.4675,93.05009732673459,21.555996841901578,48.59268211522368,0.2081833333332952
0.3286,-0.0436,0.8369,-0.4067,0.2353,0.421,-0.1488,1.2862,-2.66,93.04125961324777,21.527940015107465,48.472859114435785,0.2081833333332952
0.3367,-0.0464,0.8453,-0.4067,0.2353,0.421,-0.1488,1.2862,-2.66,93.05436932843365,21.558960873555293,48.51838156368411,0.2081833333332952
0.3367,-0.0464,0.8453,-0.4068,0.2347,0.4256,-0.4812,1.2425,-2.6425,93.06788958569197,21.582497454601654,48.59519067082278,0.20843333333334613
0.3292,-0.0443,0.852,-0.4068,0.2347,0.4256,-0.4812,1.2425,-2.6425,93.05376469923888,21.494977518596652,48.424152558474965,0.20843333333334613
0.3292,-0.0443,0.852,-0.4068,0.2347,0.4256,-0.4638,0.9538,-2.6775,93.04279770115352,21.414313661095825,48.379705285386436,0.20843333333334613
0.332,-0.0429,0.8409,-0.4068,0.2347,0.4256,-0.4638,0.9538,-2.6775,93.02545604721452,21.435769893445347,48.38771744082939,0.20948333333330993
0.3365,-0.0434,0.8539,-0.4063,0.2355,0.4227,-0.4375,1.2513,-2.5638,93.01132067862363,21.441660849724325,48.39203422491131,0.20948333333330993
0.3365,-0.0434,0.8539,-0.4063,0.2355,0.4227,-0.4375,1.2513,-2.5638,92.9989097905234,21.44681584757951,48.395083309421096,0.20948333333330993
0.331,-0.0451,0.8424,-0.4063,0.2355,0.4227,-0.2713,1.2337,-2.485,93.0006510404339,21.445396583529305,48.403446770264935,0.20973333333324717
0.331,-0.0451,0.8424,-0.4066,0.2352,0.4207,-0.42,1.1375,-2.765,93.00757083304346,21.439717983993816,48.369022535820164,0.20973333333324717
0.3362,-0.0445,0.8445,-0.4066,0.2352,0.4207,-0.42,1.1375,-2.765,93.00852141931075,21.501338227469752,48.40462425404906,0.20973333333324717
0.336,-0.0466,0.8546,-0.4066,0.2352,0.4207,-0.6913,0.91,-2.625,93.04028447982834,21.489953550286337,48.39740496985106,0.2099999999999227
0.336,-0.0466,0.8546,-0.4071,0.2358,0.4147,-0.6913,0.91,-2.625,93.06309049908778,21.48049757131068,48.369987606995934,0.2099999999999227
0.3353,-0.0453,0.8427,-0.4071,0.2358,0.4147,-0.2713,1.1463,-2.7475,93.06345996935441,21.5267982888703,48.33921244337201,0.2099999999999227
0.3353,-0.0453,0.8427,-0.4071,0.2358,0.4147,-0.2713,1.1463,-2.7475,93.06381963828309,21.561703606880425,48.31573364503461,0.2102666666665982
0.3294,-0.0444,0.8557,-0.4071,0.2358,0.4147,-0.315,1.295,-2.8612,93.06230561461409,21.39867633661847,48.04767954728148,0.2102666666665982
0.3334,-0.0481,0.8408,-0.406,0.2354,0.4167,-0.315,1.295,-2.8612,93.06573425859114,21.45947895515134,48.17707021843871,0.2102666666665982
0.3334,-0.0481,0.8408,-0.406,0.2354,0.4167,-0.6562,0.9538,-3.0363,93.12064437971132,21.51209578213181,48.206852618721015,0.21051666666664914
0.3342,-0.0438,0.8542,-0.406,0.2354,0.4167,-0.595,1.085,-2.8612,93.07827005400887,21.46013168844574,48.160579446614946,0.21051666666664914
0.3342,-0.0438,0.8542,-0.4067,0.2359,0.4251,-0.595,1.085,-2.8612,93.04558513874998,21.42404967172956,48.20325361642382,0.21051666666664914
0.3318,-0.0431,0.8396,-0.4067,0.2359,0.4251,-0.7437,0.91,-2.8,93.01264293119722,21.455252382576653,48.23096629284898,0.21078333333332466
0.3303,-0.0475,0.8554,-0.4067,0.2359,0.4251,-0.7437,0.91,-2.8,93.06368448851086,21.353144250133695,48.23031684484784,0.21078333333332466
0.3303,-0.0475,0.8554,-0.4067,0.235,0.4186,-0.385,1.0237,-2.8175,93.07280814958776,21.276648788807528,48.16203144733124,0.21078333333332466
0.3306,-0.0467,0.8407,-0.406,0.235,0.4186,-0.385,1.0237,-2.8175,93.08129387811479,21.322139155350204,48.18028455793218,0.21078333333332466
0.3306,-0.0467,0.8407,-0.406,0.235,0.4186,-0.4288,1.05,-2.9225,93.0926056184211,21.36046038863599,48.19741506051645,0.2110333333332619
0.3387,-0.0454,0.8612,-0.406,0.235,0.4186,-0.4288,1.05,-2.9225,93.08397080729284,21.387718204879008,48.19601445512674,0.21156666666661295
0.3387,-0.0454,0.8402,-0.4063,0.2361,0.418,-0.8662,0.9275,-2.835,93.08722416407844,21.545403768306198,48.25032654883642,0.21156666666661295
0.3288,-0.0432,0.8402,-0.4063,0.2361,0.418,-0.8662,0.9275,-2.6513,93.03512586281809,21.50817723404798,48.236984223830085,0.21156666666661295
0.3318,-0.0459,0.8464,-0.4063,0.2361,0.418,-0.3938,1.0762,-2.6513,93.04112347523703,21.483674972794013,48.23362205266234,0.21156666666661295
0.3318,-0.0459,0.8464,-0.4074,0.2363,0.4309,-0.8225,1.19,-2.5113,93.06277241115153,21.474865131630974,48.37493201376463,0.21156666666661295
0.3345,-0.0441,0.8435,-0.4074,0.2363,0.4309,-0.8225,1.19,-2.5113,93.03872278333237,21.485606980708567,48.53218416513782,0.21181666666666388
0.3345,-0.0441,0.8435,-0.4074,0.2363,0.4309,-0.9975,1.0588,-2.7825,93.019839196496,21.51720177277768,48.613153946794164,0.21181666666666388
0.3382,-0.0442,0.8522,-0.4074,0.2363,0.4309,-0.9975,1.0588,-2.7825,92.9989357274876,21.54437142519794,48.68001002939529,0.21181666666666388
0.3347,-0.0443,0.8469,-0.4056,0.2359,0.4166,-0.9887,0.7875,-2.8175,92.99705203506467,21.542417095134542,48.66376961689547,0.21181666666666388
0.3347,-0.0443,0.8469,-0.4056,0.2359,0.4166,-0.9887,0.7875,-2.8175,92.9959375224253,21.541017612394974,48.64827357238954,0.21181666666666388
0.3339,-0.0456,0.8491,-0.4056,0.2359,0.4166,-0.6737,0.9625,-2.695,93.01724845199668,21.519003047814557,48.60446043543285,0.21181666666666388
0.3339,-0.0456,0.8491,-0.4074,0.2366,0.4221,-0.6737,0.9625,-2.9838,93.03274563053618,21.490066459308135,48.58234991262749,0.2120833333333394
0.3348,-0.0415,0.853,-0.4074,0.2366,0.4221,-0.5075,1.2425,-2.9838,92.98998651908711,21.460094717600285,48.472580223395795,0.2120833333333394
0.3286,-0.0456,0.8374,-0.4074,0.2366,0.4221,-0.4375,1.0675,-2.7387,93.00547222296171,21.444754929328035,48.45605991934388,0.2120833333333394
0.3286,-0.0456,0.8374,-0.405,0.2356,0.426,-0.4375,1.0675,-2.7387,93.01906870873462,21.433113293077074,48.512502636989474,0.2120833333333394
0.332,-0.0478,0.8503,-0.405,0.2356,0.426,-0.8838,1.1638,-2.8,93.09233445424869,21.395864671403128,48.55881185012617,0.2120833333333394
0.332,-0.0478,0.8503,-0.405,0.2356,0.426,-0.8838,1.1638,-2.8,93.13855163875033,21.36885267714515,48.593676314672905,0.2120833333333394
0.3366,-0.0431,0.8375,-0.405,0.2356,0.426,-0.56,1.155,-2.73,93.09864235979371,21.487025587162414,48.7436457872478,0.2120833333333394
0.3271,-0.0436,0.844,-0.4062,0.2345,0.4111,-0.56,1.155,-2.73,93.06932703634818,21.409501682607456,48.414074505634304,0.2120833333333394
0.3271,-0.0436,0.844,-0.4062,0.2345,0.4111,-0.6913,1.3212,-2.5113,93.03770790477047,21.3887278476555,48.07683165757751,0.2120833333333394
0.3346,-0.0434,0.8331,-0.4062,0.2345,0.4111,-0.6913,1.3212,-2.5113,93.02202791768147,21.427344782272463,48.10846432269682,0.2120833333333394
0.3346,-0.0434,0.8331,-0.4069,0.236,0.4146,-0.6125,1.1988,-2.4237,93.01248873407131,21.428482298119633,48.1961687109943,0.2120833333333394
0.335,-0.0445,0.8434,-0.4069,0.236,0.4146,-0.3762,1.1725,-2.4062,93.01304978336367,21.43151204970369,48.19970094119917,0.2138999999999669
0.3305,-0.0447,0.8419,-0.4069,0.236,0.4146,-0.3762,1.1725,-2.4062,93.01493541076579,21.431136060664524,48.13992777909485,0.2138999999999669
0.3305,-0.0447,0.8419,-0.4063,0.2356,0.4114,-0.5775,1.2775,-2.4325,93.02023194270956,21.430848732923394,48.04370945945479,0.2138999999999669
0.3327,-0.0423,0.8525,-0.4063,0.2356,0.4114,-0.5775,1.2775,-2.4325,92.98105633929484,21.429309434491433,47.90436561663424,0.2141666666666424
0.3327,-0.0423,0.8525,-0.4063,0.2356,0.4114,-0.8925,1.155,-2.8875,92.92872454572675,21.386606385432348,47.82803034287097,0.2141666666666424
0.3317,-0.0422,0.8428,-0.4063,0.2356,0.4114,-0.8925,1.155,-2.8875,92.90552828908778,21.40951602112742,47.817800648056526,0.2141666666666424
0.3317,-0.0478,0.8443,-0.4063,0.2349,0.4242,-0.6212,1.33,-2.625,92.98720238855942,21.410814935587695,48.05433900575966,0.21441666666657966
0.3284,-0.0478,0.8443,-0.4063,0.2349,0.4242,-0.6212,1.33,-2.625,93.04895278452362,21.379022823970338,48.13897849882619,0.21441666666657966
0.3348,-0.0438,0.8476,-0.4063,0.2349,0.4242,-0.6388,1.3212,-2.66,93.02589978026643,21.40772051829794,48.2554510417367,0.21441666666657966
0.3348,-0.0438,0.8476,-0.4064,0.2356,0.4194,-0.3588,1.47,-2.4325,93.02204967463948,21.40908187376586,48.277575702316,0.21468333333325518
0.3326,-0.0464,0.8481,-0.4064,0.2356,0.4194,-0.3588,1.47,-2.4325,93.02827265864819,21.40880402646835,48.26677810227866,0.21546666666665715
0.3326,-0.0464,0.8427,-0.4064,0.2356,0.4194,-0.7613,1.155,-2.7213,93.06728387053445,21.431883364407028,48.299643053935526,0.2157166666665944
0.3281,-0.0422,0.8427,-0.4064,0.2356,0.4194,-0.7613,1.155,-2.7213,93.00386395080315,21.389626256691518,48.21287816955028,0.2157166666665944
0.3321,-0.0453,0.8465,-0.4076,0.2366,0.4176,-0.7088,0.8313,-2.8612,93.0211342666265,21.39074813999248,48.21239695973546,0.2157166666665944
0.3321,-0.0453,0.8465,-0.4076,0.2366,0.4176,-0.7088,0.8313,-2.8612,93.03338055492264,21.39152713581724,48.211917779727145,0.2159833333332699
0.3359,-0.0459,0.8541,-0.4076,0.2366,0.4176,-0.4725,1.0063,-2.5988,93.03971947853819,21.39892958754996,48.20426704578832,0.2159833333332699
0.3359,-0.0459,0.8541,-0.4064,0.2374,0.4196,-0.4725,1.0063,-2.5988,93.0451191369693,21.405214750929385,48.2451937753355,0.2159833333332699
0.3359,-0.0476,0.8488,-0.4064,0.2374,0.4196,-0.1488,0.9363,-2.6163,93.06656014467043,21.430450326982722,48.28650299476711,0.21623333333332084
0.3291,-0.0464,0.8427,-0.4064,0.2374,0.4196,-0.1488,1.3475,-2.8175,93.07763459823906,21.39420648569592,48.31538967298962,0.21623333333332084
0.3291,-0.0464,0.8427,-0.4058,0.2358,0.4157,-0.2275,1.3475,-2.8175,93.08254042964526,21.36825251238988,48.23282382357349,0.21623333333332084
0.3318,-0.0418,0.8596,-0.4058,0.2358,0.4157,-0.6562,0.8925,-2.59,93.00388048163238,21.32709973725964,48.19941481491451,0.21649999999999636
0.3318,-0.0418,0.8596,-0.4058,0.2358,0.4157,-0.6562,0.8925,-2.59,92.94594212789522,21.291895312896365,48.16780635080507,0.21649999999999636
0.3331,-0.0416,0.842,-0.4058,0.2358,0.4157,-0.2625,0.8925,-2.59,92.94185434483943,21.330670139287655,48.168234789804146,0.21649999999999636
0.3353,-0.0435,0.8533,-0.4066,0.2353,0.4204,-0.2625,0.8925,-2.59,92.94103576720539,21.344565300754233,48.16827821749631,0.21676666666667188
0.3353,-0.0435,0.8533,-0.4066,0.2353,0.4204,-0.4462,0.7875,-2.5287,92.93811454908659,21.352558746436035,48.16831316023242,0.21676666666667188
0.3351,-0.0447,0.8486,-0.4066,0.2353,0.4204,-0.4462,0.7875,-2.5287,92.94804062354648,21.368955797453648,48.1759032992085,0.21676666666667188
0.3351,-0.0447,0.8486,-0.4071,0.2358,0.4192,-0.525,1.435,-2.5113,92.96045337137397,21.38156474675345,48.21066087078532,0.21676666666667188
0.3359,-0.0442,0.8566,-0.4071,0.2358,0.4192,-0.525,1.435,-2.7738,92.95922585385007,21.38268029644471,48.161264089719126,0.21676666666667188
0.3341,-0.0434,0.8423,-0.4071,0.2358,0.4192,-0.4725,1.0588,-2.7738,92.95779808500245,21.44191570660553,48.19239505458669,0.21676666666667188
0.3341,-0.0434,0.8423,-0.4073,0.2355,0.4143,-0.6037,0.9363,-2.695,92.9558790282357,21.478026207335066,48.17707124773161,0.21676666666667188
0.3347,-0.045,0.8544,-0.4073,0.2355,0.4143,-0.6037,0.9363,-2.695,92.96967820686409,21.453757197808883,48.14148349473548,0.21676666666667188
0.3347,-0.045,0.8544,-0.4073,0.2355,0.4143,-0.1575,1.1025,-2.4762,92.97526821447333,21.449125863945053,48.067064535098325,0.21676666666667188
0.3268,-0.0448,0.8422,-0.4073,0.2355,0.4143,-0.1575,1.1025,-2.4762,92.98387856275257,21.435083110055213,47.968799970930185,0.21701666666660913
0.3325,-0.0445,0.8476,-0.407,0.2344,0.4234,-0.7437,0.9538,-2.7213,92.99048833114729,21.425247836511332,47.99220295597883,0.21701666666660913
0.3325,-0.0445,0.8476,-0.407,0.2344,0.4234,-0.7437,0.9538,-2.7213,92.99506209371069,21.41768378919803,48.01313091668279,0.21701666666660913
0.3291,-0.0449,0.8443,-0.407,0.2344,0.4234,-0.805,1.0237,-2.5463,93.0115582799963,21.401020207405494,48.02218970269897,0.21701666666660913
0.3291,-0.0449,0.8443,-0.4062,0.236,0.4188,-0.805,1.0237,-2.5463,93.02250865819404,21.38621163610543,48.03496005968147,0.21701666666660913
0.3335,-0.0429,0.847,-0.4062,0.236,0.4188,-0.2887,0.8138,-2.5375,93.02130887939566,21.394604249667083,48.03941150268558,0.21701666666660913
0.3335,-0.0586,0.86,-0.4062,0.236,0.4188,-0.455,0.6388,-2.3888,93.13992225836691,21.387001283766313,48.10797873315595,0.21701666666660913
0.3397,-0.0473,0.86,-0.4062,0.236,0.4218,-0.455,0.6388,-2.3888,93.14102804797048,21.391294084873113,48.190234671129666,0.21701666666660913
0.3304,-0.0467,0.8463,-0.4066,0.2351,0.4218,-0.9975,0.7262,-2.6337,93.14819826517886,21.374660576797453,48.19224735368912,0.21728333333328465
0.3304,-0.0467,0.8463,-0.4066,0.2351,0.4218,-0.9975,0.7262,-2.6337,93.1524186491977,21.360944097506646,48.19406166653884,0.21728333333328465
0.3342,-0.0404,0.8491,-0.4066,0.2351,0.4218,-0.9187,0.9363,-2.6425,92.98845720574631,21.379301935961678,48.189490697279986,0.21728333333328465
0.3342,-0.0404,0.8491,-0.4077,0.2354,0.4243,-0.9187,0.9363,-2.6425,92.88725574621922,21.39433128467465,48.18829876858626,0.21728333333328465
0.3293,-0.046,0.8466,-0.4077,0.2354,0.4243,-0.4725,0.98,-2.7037,92.92027659000333,21.357215125453354,48.18151072824668,0.21806666666657293
0.334,-0.0433,0.8438,-0.4077,0.2354,0.4243,-0.4725,0.98,-2.7037,92.92284104404098,21.40395230409144,48.21259733550213,0.21831666666662386
0.334,-0.0433,0.8438,-0.4056,0.2354,0.4159,-0.1488,0.9275,-2.7562,92.92476121067324,21.445458564893162,48.21483154381486,0.21831666666662386
0.3391,-0.0472,0.852,-0.4056,0.2354,0.4159,-0.7875,1.4088,-2.6862,93.00558667253402,21.493074059385908,48.315125685299776,0.21831666666662386
0.3391,-0.0472,0.852,-0.4056,0.2354,0.4159,-0.7875,1.4088,-2.6862,93.0598702389025,21.53070982772994,48.37887477094905,0.21858333333329938
0.3334,-0.0489,0.8517,-0.4056,0.2354,0.4159,-0.35,1.33,-2.8437,93.07093539284874,21.475831982931275,48.31529746434984,0.21858333333329938
0.3321,-0.0431,0.8496,-0.4077,0.2361,0.4258,-0.35,1.33,-2.8437,93.06277243721199,21.431040860029814,48.302824148442745,0.21858333333329938
0.3321,-0.0431,0.8496,-0.4077,0.2361,0.4258,-0.3413,0.6737,-2.7475,93.05626789590059,21.40495912539676,48.29931034430056,0.21858333333329938
0.3282,-0.0467,0.8443,-0.4077,0.2361,0.4258,-0.3413,0.6737,-2.7475,93.06076338434923,21.357661047500358,48.299885878506956,0.21858333333329938
0.3282,-0.0467,0.8443,-0.4063,0.2362,0.4131,-0.56,0.9363,-2.59,93.08255895350041,21.336719779374707,48.25732943186927,0.21858333333329938
0.3356,-0.0478,0.8491,-0.4063,0.2362,0.4131,-0.56,0.9363,-2.59,93.11147193225976,21.36538645629742,48.25432774669639,0.21858333333329938
0.3345,-0.0456,0.8427,-0.4063,0.2362,0.4131,-0.2625,1.19,-3.0538,93.11098074892371,21.464572382407574,48.25346924492479,0.21858333333329938
0.3345,-0.0456,0.8427,-0.4053,0.2349,0.4234,-0.5337,0.9975,-3.2025,93.10838686765102,21.533332952173453,48.32420134758432,0.21883333333323662
0.3348,-0.0445,0.8474,-0.4053,0.2349,0.4234,-0.5337,0.9975,-3.2025,93.08890287023544,21.53256207904053,48.36308031283139,0.21883333333323662
0.3348,-0.0445,0.8474,-0.4053,0.2349,0.4234,-0.7,0.735,-2.9662,93.06516793726776,21.53221404121917,48.38500904647487,0.21883333333323662
0.3266,-0.0464,0.835,-0.4053,0.2349,0.4234,-0.7,0.735,-2.9662,93.09823096621561,21.461714269775516,48.39323349215572,0.21883333333323662
0.3326,-0.0426,0.8531,-0.4067,0.2358,0.4212,-0.0875,0.9887,-3.0013,93.05649125553437,21.393261829956263,48.3468718927502,0.21883333333323662
0.3326,-0.0426,0.8531,-0.4067,0.2358,0.4212,-0.0875,0.9887,-3.0013,93.02202556360129,21.349944793571723,48.30666807143291,0.21883333333323662
0.336,-0.0458,0.8556,-0.4067,0.2358,0.4212,-0.665,0.7788,-2.5988,93.03330911360821,21.35937181705883,48.307445703407026,0.21883333333323662
0.336,-0.0458,0.8556,-0.4062,0.2348,0.4251,-0.665,0.7788,-2.5988,93.04156668488008,21.36737597364605,48.31622923335946,0.21883333333323662
0.3343,-0.0445,0.8344,-0.4062,0.2348,0.4251,-0.9975,0.4375,-2.7562,93.0461844671036,21.477305824882635,48.4891673272682,0.21883333333323662
0.3343,-0.9949,0.6845,-0.4062,0.2348,0.4251,-0.9975,0.4375,32.7513,114.61407775565192,15.63932520574108,49.46357765272283,0.21909999999991214
0.3504,-0.9949,0.6845,-0.4062,0.2252,0.4138,44.345,6.6675,32.7513,144.79562815300818,16.16541891959227,50.9633546207313,0.21909999999991214
0.6097,0.1005,0.3778,-0.4068,0.2252,0.4138,227.4913,34.4575,44.7125,75.40812542689577,56.476808725531676,143.38756325179205,0.2206666666666024
0.6097,0.1005,0.3778,-0.4068,0.2252,0.4138,227.4913,34.4575,44.7125,75.10484491675587,57.31429948209942,146.05708854593945,0.2206666666666024
-0.3001,0.9944,1.3329,-0.4068,0.2252,0.4138,209.545,36.1375,48.4663,53.37903170238113,-8.92780257270857,3.6470142940090824,0.2206666666666024
-0.3001,0.9944,0.6819,-0.4089,0.2142,0.4139,209.545,36.1375,48.4663,34.52982211964199,-13.879174512849136,23.38120410565327,0.22091666666665333
0.4369,0.1961,0.6819,-0.4089,0.2142,0.4139,124.1188,10.7975,103.6612,73.64152638316428,31.197908645688397,34.31762907319602,0.22091666666665333
0.5616,-0.3739,0.7734,-0.4089,0.2142,0.4139,124.1188,10.7975,103.6612,115.46527421195736,33.15632925364322,60.4599792364561,0.22091666666665333
0.5616,-0.3739,0.7734,-0.41,0.2069,0.4081,78.5225,11.795,39.7163,115.797219705111,33.174362630850794,62.10668098515631,0.22118333333332885
0.1171,0.5679,0.9439,-0.41,0.2069,0.4081,78.5225,11.795,7.2187,59.67864099181264,8.61557468358425,0.37127707336864807,0.22118333333332885
0.1171,0.5679,0.9439,-0.41,0.2069,0.4081,60.6987,12.1538,7.2187,58.97815045645416,6.307360216261425,4.804496772952329,0.22118333333332885
0.4158,-0.0942,0.8219,-0.41,0.2069,0.4081,42.42,7.385,38.7275,95.67914729583697,26.201124075053396,44.72992635710023,0.22118333333332885
0.3838,-0.2042,0.8075,-0.4103,0.2073,0.4106,42.42,7.385,38.7275,103.99669735968195,24.77441024478412,51.90244210513806,0.22118333333332885
0.3838,-0.2042,0.8075,-0.4103,0.2073,0.4106,51.5025,9.2487,2.03,104.18771563280127,24.746098637540296,52.881232008430906,0.22118333333332885
0.2477,0.3594,0.8211,-0.4103,0.2073,0.4106,51.5025,9.2487,2.03,67.07714526345602,17.15407658050788,10.340904349106431,0.22118333333332885
0.2477,0.3594,0.8211,-0.4098,0.2045,0.4082,27.16,5.5388,-15.2513,66.38591317652391,15.571729767230948,5.890062944528061,0.22118333333332885
0.1987,0.35,0.9856,-0.4098,0.2045,0.4082,27.16,5.5388,-15.2513,70.30657110686158,11.104994613114249,9.284004449877257,0.22118333333332885
0.3422,-0.2114,0.89,-0.4098,0.2045,0.4082,-11.4888,-1.855,0.315,100.65013441513764,17.992720796700787,37.73515168157643,0.2214333333332661
0.3422,-0.2114,0.89,-0.4122,0.2034,0.4084,-11.4888,-1.855,0.315,103.13930123267157,19.836313811000583,45.20628949467265,0.2214333333332661
0.2961,0.0549,0.8336,-0.4122,0.2034,0.4084,35.5775,4.725,29.5487,86.69049296115051,19.525992812360634,37.398327516844475,0.2214333333332661
0.2961,0.0549,0.8336,-0.4122,0.2034,0.4084,60.6987,5.4687,40.3725,86.23939835353684,19.516507747572227,35.7472281467927,0.2214333333332661
0.4235,0.0314,0.7569,-0.4122,0.2034,0.4084,60.6987,5.4687,40.3725,87.60210600098807,28.9855862804997,47.43347393962414,0.2214333333332661
0.2114,0.0035,0.9385,-0.413,0.2026,0.4028,58.38,10.3863,37.625,89.74972494161115,13.091005857700415,34.02236153975705,0.2214333333332661
0.2114,0.0035,0.9385,-0.413,0.2026,0.4028,58.38,10.3863,37.625,89.78571138740509,12.703767947630974,32.751258101194004,0.2214333333332661
0.2836,0.1815,0.8608,-0.413,0.2026,0.4028,50.015,5.95,25.3225,78.32142098738876,17.68825110978755,25.381713837422115,0.2214333333332661
0.2836,0.1815,0.8608,-0.4142,0.2014,0.3997,50.015,5.95,25.3225,78.09800455690208,17.861663438353574,23.948046747333922,0.2214333333332661
0.2929,0.0146,0.885,-0.4142,0.2014,0.3997,34.3438,6.7638,17.605,88.7474558917014,18.288844841120717,34.38778697689115,0.22273333333328083
0.2975,0.092,0.8618,-0.4142,0.2014,0.3997,34.3438,6.7638,17.605,84.04238215458508,18.913944237057077,32.068029263727176,0.22299999999995634
0.2975,0.092,0.8618,-0.4134,0.2002,0.4086,25.1213,5.8187,4.5062,83.9117043851247,18.941220967392624,31.75258312671561,0.22299999999995634
0.2796,0.119,0.8826,-0.4134,0.2002,0.4086,14.91,5.2063,-4.3488,82.41930822312028,17.94597647731214,29.086979472255976,0.22299999999995634
0.2796,0.119,0.8826,-0.4134,0.2002,0.4086,14.91,5.2063,-4.3488,82.32723360386504,17.606043405447625,28.5906620666765,0.22326666666663186
0.2241,0.2522,0.9171,-0.4134,0.2002,0.4086,7.7175,4.1475,-0.9975,75.47829680481044,15.051919701155997,18.744700838635207,0.22326666666663186
0.2241,0.0319,0.8699,-0.4142,0.2014,0.409,7.7175,4.1475,-0.9975,86.52213832703295,14.690664113932263,28.974082077447616,0.22326666666663186
0.2791,0.0319,0.8699,-0.4142,0.2014,0.409,1.7938,6.7812,7.8138,87.45433050017836,17.502470455147616,34.01603537332641,0.22326666666663186
0.3448,-0.0178,0.8563,-0.4142,0.2014,0.409,1.7938,6.7812,7.8138,89.98253431819418,21.534557970052497,40.84854986257589,0.22326666666663186
0.3448,-0.0178,0.8563,-0.4141,0.2002,0.4075,3.6837,7.8575,-6.6675,90.94831956957492,21.853425233774097,41.65887581253438,0.22326666666663186
0.3386,0.1513,0.8106,-0.4141,0.2002,0.4075,3.6837,7.8575,-6.6675,81.73970949604151,22.23447923348889,30.890736937528377,0.2235166666666828
0.3386,0.1513,0.7836,-0.4141,0.2002,0.4075,1.1025,5.2413,-11.2087,80.1828432422698,22.912942649884,29.831060972393463,0.2235166666666828
0.4352,0.016,0.7836,-0.4141,0.2002,0.4075,1.4438,5.3463,-16.45,85.67697665677613,28.63426341147016,46.15483256871416,0.2235166666666828
0.2744,0.3216,0.9123,-0.413,0.1998,0.4017,1.4438,5.3463,-16.45,76.08617015384114,16.688494985002368,17.587656821134892,0.2235166666666828
0.2744,0.3216,0.9123,-0.413,0.1998,0.4017,-6.2737,1.4,-9.8263,71.37081150699152,15.938294000133322,15.302648026741752,0.2235166666666828
0.2347,0.2615,0.8705,-0.413,0.1998,0.4017,-6.2737,1.4,-9.8263,73.00596449159755,14.652110763557243,15.077144448572605,0.22378333333324463
0.2347,0.2615,0.8705,-0.4134,0.2017,0.4065,-19.6437,-0.6388,14.8488,73.26617261828429,14.487932467686788,14.913725704992943,0.22378333333324463
0.2843,0.0151,0.8774,-0.4134,0.2017,0.4065,-19.6437,-0.6388,14.8488,88.24000497972462,17.76160058484691,27.539294975935817,0.22378333333324463
0.3035,-0.0544,0.8549,-0.4134,0.2017,0.4065,-13.055,0.0787,17.605,93.2483874845132,19.425910179201203,33.469515123980116,0.22378333333324463
0.3035,-0.0544,0.8549,-0.4134,0.2054,0.4058,-13.055,0.0787,17.605,93.6124627269532,19.50506488780457,37.0254704180477,0.22378333333324463
0.35,0.0002,0.8042,-0.4134,0.2054,0.4058,6.79,2.94,12.9762,90.43412682881603,23.27458506660084,41.34662673664676,0.22378333333324463
0.35,0.0002,0.8042,-0.4134,0.2054,0.4058,6.79,2.94,7.49,90.04118427357501,23.496965421697734,42.73854376921633,0.22378333333324463
0.3622,0.0362,0.8599,-0.4134,0.2054,0.4058,21.4463,5.9938,7.49,87.69718589403668,22.885003018102406,40.850558120354606,0.22508333333325936
0.2719,0.1053,0.8258,-0.4135,0.2048,0.4069,30.8175,9.0562,2.3712,82.8878363875148,18.915892671713344,31.433431768862565,0.22508333333325936
0.2719,0.1053,0.8258,-0.4135,0.2048,0.4069,30.8175,9.0562,2.3712,82.73808729456057,18.23064577968704,30.41212502224518,0.2253333333333103
0.3396,0.0229,0.9695,-0.4135,0.2048,0.4069,35.2887,9.66,6.7725,88.4854018077764,19.19467858801226,36.78689868609321,0.2253333333333103
0.3396,0.0229,0.9695,-0.414,0.2002,0.4081,35.2887,9.66,6.7725,88.64248697695774,19.28925156028323,36.83033549981748,0.2253333333333103
0.2396,0.2431,0.8732,-0.414,0.2002,0.4081,30.695,6.545,9.3188,74.88656105866201,15.158728774574453,19.322769434689604,0.2255999999999858
0.2993,0.2147,0.7659,-0.414,0.2002,0.4081,30.695,6.545,9.3188,74.35761751489002,20.191494936782593,19.68918077639018,0.2255999999999858
0.2993,0.2147,0.7659,-0.417,0.203,0.3955,20.7725,4.1125,19.3463,74.3413245107697,20.601357128927656,20.33457486440379,0.2255999999999858
0.4591,0.2682,0.8287,-0.417,0.203,0.3955,20.7725,4.1125,28.3062,72.16944781506906,27.566304810209708,22.741664175616464,0.2255999999999858
0.4591,0.2682,0.8287,-0.417,0.203,0.3955,2.24,-0.5075,27.545,72.09550271506133,27.78565502922001,23.16270986615783,0.2255999999999858
0.4013,-0.0522,0.7895,-0.417,0.203,0.3955,-17.5263,-4.1737,16.0125,92.59297111068773,26.939523715504382,44.618797232820256,0.2255999999999858
0.3099,0.2169,0.8534,-0.4158,0.2057,0.3919,-17.5263,-4.1737,16.0125,76.66425289606676,19.777839415886326,26.109157845760674,0.22586666666666133
0.3099,0.2169,0.8534,-0.4158,0.2057,0.3919,-40.0838,-6.8513,1.785,75.76232617000082,19.463953125670518,22.839423587630098,0.22586666666666133
0.1951,0.2616,0.797,-0.4158,0.2057,0.3919,-40.0838,-6.8513,1.785,71.92501809216108,14.317029898742295,14.533376613097351,0.22586666666666133
0.1951,0.2616,0.797,-0.4172,0.2127,0.3982,-61.3025,-8.9513,0.9538,71.83012312357756,13.373043475183056,14.322894117565085,0.22586666666666133
0.2805,0.0285,0.0886,-0.4172,0.2127,0.3982,-61.3025,-8.9513,0.9538,72.16309400339898,58.324383596649284,150.56741601457045,0.22586666666666133
0.2805,-0.2297,0.6884,-0.4172,0.2127,0.3982,-44.5812,-4.5675,4.3837,107.651029472907,25.89769844523033,65.5184044792971,0.22586666666666133
0.5312,-0.2297,0.6884,-0.4172,0.2127,0.4004,-44.5812,-4.5675,4.3837,108.43472778237445,34.88267103364247,65.21446265236453,0.22611666666659858
0.3978,0.0545,0.7347,-0.417,0.2163,0.4004,-11.5325,2.485,6.3,87.6111979279569,29.037585196928152,54.281260264628415,0.22611666666659858
0.3978,0.0545,0.7347,-0.417,0.2163,0.4004,-13.86,0.735,-19.6262,85.88486957437331,28.404171956249098,53.67574946317937,0.22611666666659858
0.2441,0.4383,0.8885,-0.417,0.2163,0.4004,-13.86,0.735,-19.6262,65.26332395178699,14.641068881473002,49.06979143010519,0.22611666666659858
0.2441,0.4383,1.0134,-0.4169,0.2204,0.4036,-88.9875,-5.32,-35.7262,66.5962737499389,12.529847864675391,13.544599836902961,0.22611666666659858
0.112,0.5888,1.006,-0.4169,0.2204,0.4036,-88.9875,-5.32,-35.7262,59.73739828522318,5.693640742186994,0.07966551446506871,0.22611666666659858
-0.6527,1.4283,1.2766,-0.4169,0.2204,0.4036,-238.0,-37.5375,-166.46,41.86520787562231,-18.666414654390692,15.670700102096436,0.22611666666659858
-0.6527,1.4283,1.2766,-0.4142,0.2454,0.4094,-238.0,-37.5375,-166.46,41.79033530788351,-18.81401649647069,14.752639994566554,0.22768333333328883
1.2039,-1.6352,-0.0354,-0.4142,0.2454,0.4094,-237.6938,-68.215,-103.565,-177.83466807770063,35.81546995944379,39.05673670278795,0.22768333333328883
1.2039,-1.6352,-0.0354,-0.4142,0.2454,0.4094,-237.6938,-68.215,-103.565,-178.7559322568604,36.35029828651221,39.82488752318073,0.22793333333333976
0.3661,-0.2904,0.7731,-0.4142,0.2454,0.4094,23.135,2.45,-10.8062,98.74565097374081,25.233690807653264,49.40932190959556,0.22793333333333976
0.2428,1.5623,0.8671,-0.4121,0.2338,0.4166,100.3713,14.3763,-30.9575,29.716630618852875,8.330607913784341,29.518123203350907,0.22793333333333976
0.2428,1.5623,0.8671,-0.4121,0.2338,0.4166,100.3713,14.3763,-30.9575,29.03767791383821,7.7583294667328575,34.946135453116206,0.22820000000001528
0.1824,-0.08,0.9812,-0.4121,0.2338,0.4166,-59.045,-7.5075,13.8863,93.56280950425221,10.338507828184166,30.82517731448811,0.22820000000001528
0.1824,-0.08,0.9812,-0.4129,0.2434,0.4136,-59.045,-7.5075,13.8863,94.64279220900532,10.487587886467626,38.61432270816673,0.22820000000001528
0.8292,-0.8768,0.4881,-0.4129,0.2434,0.4136,-25.48,-0.7437,4.6287,148.74744797426249,35.95460670832043,49.158497945459914,0.2284666666665771
0.1322,0.2802,1.0091,-0.4129,0.2434,0.4136,-25.48,-0.7437,4.6287,77.31804158893654,10.767299122063202,30.942665449271605,0.2284666666665771
0.1322,0.2802,1.0091,-0.4126,0.2397,0.4124,44.0213,13.37,-11.0863,74.54404359657363,7.5641504006974785,19.824857523264278,0.2284666666665771
0.1258,0.334,0.9869,-0.4126,0.2397,0.4124,44.0213,13.37,-11.0863,71.37398647767102,6.955005833531559,15.370775441771256,0.22871666666662804
0.1258,0.334,0.9869,-0.4126,0.2397,0.4124,-13.6588,-4.0775,-3.115,71.3074405662253,6.926207193441846,15.0755241053435,0.22871666666662804
0.5617,-0.5158,0.6666,-0.4126,0.2397,0.4124,-11.4275,-2.6775,-1.6013,123.07984554829522,18.97818362517798,50.913889395496724,0.22871666666662804
0.1783,0.2153,0.9473,-0.412,0.2393,0.4166,-11.4275,-2.6775,-1.6013,80.97851859963555,15.114080081193068,29.67557926093045,0.22898333333330356
0.1783,0.2153,0.9473,-0.412,0.2393,0.4166,17.2025,7.1137,-2.0563,77.39994987533463,13.8542730005657,24.460652938961857,0.22898333333330356
0.2444,0.0806,0.8968,-0.412,0.2393,0.4166,17.2025,7.1137,-2.0563,84.46087632907515,14.210169560978978,33.86323589292796,0.22898333333330356
0.2444,0.0806,0.8968,-0.4133,0.2416,0.4212,-18.0075,-3.2462,6.1425,84.84276867458195,15.083909446546608,35.26850764127038,0.2292333333332408
0.3916,-0.3742,0.7899,-0.4133,0.2416,0.4212,-18.0075,-3.2462,6.1425,113.71782386819058,23.18743491022588,52.32507581480594,0.2292333333332408
0.1676,0.1684,0.9314,-0.4133,0.2416,0.4212,9.555,2.8525,-2.1175,82.88097875669771,20.126333266512884,35.02878273315132,0.2292333333332408
0.1676,0.1684,0.9314,-0.4122,0.2405,0.414,9.555,2.8525,-2.1175,80.03980307958588,17.778023484249438,29.305695054986757,0.22949999999991633
0.2119,-0.0385,0.9078,-0.4122,0.2405,0.414,9.0738,3.0975,5.4513,91.23407800477138,13.651588697333786,36.56087007776885,0.22949999999991633
0.2119,-0.0385,0.9078,-0.4122,0.2405,0.414,9.0738,-1.3825,9.5988,92.31331982036221,13.167678808482938,38.77162142105213,0.22949999999991633
0.4907,-0.1899,0.7489,-0.4122,0.2405,0.414,-2.1613,-1.9338,9.5988,100.06648224698579,30.94197819907197,57.18901158418733,0.22976666666659185
0.4907,0.1601,0.8268,-0.4133,0.2407,0.3981,11.1475,0.35,-4.62,80.73031267689379,30.451230915274973,54.66848974850906,0.22976666666659185
0.4011,0.1601,0.8268,-0.4133,0.2407,0.3981,11.1475,0.35,-4.62,79.17671390326736,27.025320801249293,50.16993172318536,0.23001666666664278
0.4403,-0.0192,0.7926,-0.4133,0.2407,0.3981,-3.0013,0.1225,-0.0525,88.08985866772804,28.445870151017257,52.458468687246494,0.2302833333333183
0.4403,-0.0192,0.7926,-0.4137,0.2419,0.4071,-3.0013,0.1225,-0.0525,90.49702825023572,28.86758159871764,54.118697946239124,0.2302833333333183
0.3139,-0.1052,0.8491,-0.4137,0.2419,0.4071,-2.1875,3.0013,3.6312,94.79002803078973,21.383655014749678,50.06362308232157,0.2302833333333183
0.3139,-0.1052,0.8647,-0.4137,0.2419,0.4071,-2.1875,3.0013,3.6312,96.19354176634305,20.039220820506003,48.531105608972446,0.23053333333325554
0.3181,-0.0039,0.8664,-0.4137,0.2419,0.4071,1.1725,1.5137,-2.275,92.6599768697476,20.05468700395851,46.88344837194996,0.23053333333325554
0.385,-0.0688,0.8075,-0.4139,0.2414,0.4103,1.1725,1.5137,-5.7663,93.97558084903976,24.17791954867909,49.36978226471282,0.23053333333325554
0.385,-0.0688,0.8075,-0.4139,0.2414,0.4103,-2.835,0.3237,-5.7663,94.6170210631701,25.12682176656876,50.61100826574358,0.23053333333325554
0.3146,-0.0282,0.8641,-0.4139,0.2414,0.4103,-0.5163,2.8525,-10.1587,94.12567407680797,20.582908545838883,47.10502726270314,0.23079999999993106
0.3146,-0.0282,0.8641,-0.4133,0.2415,0.4047,-0.5163,2.8525,-10.1587,93.72218617711586,20.062871133018366,45.83406740341671,0.23079999999993106
0.3107,-0.0201,0.8721,-0.4133,0.2415,0.4047,-6.6413,1.0762,-14.2187,91.64741755043104,19.64028924476661,45.56915825962434,0.23079999999993106
0.3687,-0.0316,0.8305,-0.4133,0.2415,0.4047,-6.6413,1.0762,-14.2187,92.10661915278443,23.58875240329844,46.37513330709591,0.23106666666660658
0.3687,-0.0316,0.8305,-0.4125,0.2411,0.4162,-7.2888,1.2163,-17.2113,92.16995625677659,23.902238678720007,47.49517337851427,0.23106666666660658
0.3628,0.0844,0.8386,-0.4125,0.2411,0.4162,-7.2888,1.2163,-17.2113,85.2437222417023,23.328324173204827,46.51745504084961,0.23106666666660658
0.3628,0.0844,0.8386,-0.4125,0.2411,0.4162,-9.1263,1.785,-21.3062,84.35370087048098,23.291472025548043,45.266847154120754,0.2313166666666575
0.4266,0.0323,0.8125,-0.4125,0.2411,0.4162,-9.1263,1.785,-21.3062,87.38058791729911,27.46208964086006,49.148771279045896,0.2313166666666575
0.3811,0.062,0.8187,-0.4117,0.2382,0.415,-16.2138,0.63,-33.775,85.77043776311343,24.97829577449496,48.798479505608306,0.2313166666666575
0.3811,0.062,0.8187,-0.4117,0.2382,0.415,-18.8038,2.38,-48.9125,85.67445430900214,24.90074596555429,47.76399612769555,0.23158333333333303
0.2875,0.0818,0.8794,-0.4117,0.2382,0.415,-18.8038,2.38,-48.9125,84.73644366495103,18.175867500934615,41.680944339239424,0.23158333333333303
0.2875,0.0818,0.8794,-0.4094,0.2361,0.4094,-28.2188,1.4438,-55.58,84.68750748183147,18.033890708687828,40.12444499148485,0.23158333333333303
0.3465,-0.0172,0.827,-0.4094,0.2361,0.4094,-28.2188,1.4438,-55.58,90.96657657049305,22.64182038673023,43.046577284389336,0.23158333333333303
0.3157,0.0342,0.8617,-0.4094,0.2361,0.4094,-30.8525,1.1113,-65.2663,87.82984356485392,20.14640503929954,42.90622796295297,0.23158333333333303
0.3157,0.0342,0.8617,-0.4069,0.2329,0.4082,-30.8525,1.1113,-65.2663,87.73043499302543,20.107319677082856,42.755844263812705,0.23158333333333303
0.3625,-0.0778,0.8394,-0.4069,0.2329,0.4082,-35.2363,2.0125,-67.4187,95.08484460375762,23.22043815557181,46.97650783179958,0.23158333333333303
0.3625,-0.0778,0.8394,-0.4069,0.2329,0.4082,-35.2363,2.0125,-67.4187,95.28948762719051,23.26760828547442,48.915292105672215,0.23158333333333303
0.3808,-0.1653,0.8295,-0.4069,0.2329,0.4082,-39.5588,1.5313,-74.1387,101.1215290654651,24.22485015075511,50.92882397856324,0.23366666666663605
0.3487,0.0122,0.8713,-0.4054,0.2313,0.4046,-37.3975,1.155,-89.0313,89.5107607256379,21.8372427525942,49.51605856366517,0.23366666666663605
0.3487,0.0122,0.8713,-0.4054,0.2313,0.4046,-37.3975,1.155,-89.0313,89.2060077430864,21.80999015415829,48.44534696039439,0.2339166666665733
0.411,-0.0955,0.8714,-0.4054,0.2313,0.4046,-48.265,-1.4963,-103.1012,96.11035849577931,25.08687182358252,51.58184479076437,0.2339166666665733
0.411,-0.0955,0.8714,-0.4018,0.2257,0.4199,-48.265,-1.4963,-103.1012,96.25136015903435,25.119099167403185,53.195801716697424,0.2339166666665733
0.4814,-0.0825,0.969,-0.4018,0.2257,0.4199,-50.505,1.2775,-120.19,94.8934347826227,26.32562419201567,53.722954974861516,0.2341833333332488
0.4814,0.0112,0.8536,-0.4018,0.2257,0.4199,-50.505,1.2775,-120.19,89.35851417945382,29.393291948547507,54.76584111593258,0.2341833333332488
0.3324,0.0084,0.8536,-0.4018,0.2257,0.4199,-52.7537,9.0475,-134.5838,89.4347359809432,21.33643780054203,46.09489338488814,0.2341833333332488
0.2652,0.0375,0.8438,-0.3953,0.2187,0.425,-52.7537,9.0475,-134.5838,87.49237519852595,17.460705000919614,39.7150718983632,0.2341833333332488
0.2652,0.0375,0.8438,-0.3953,0.2187,0.425,-61.845,9.9575,-146.9125,87.45593823998735,17.431581110622524,39.01493163159801,0.2341833333332488
0.4064,0.0096,0.8236,-0.3953,0.2187,0.425,-61.845,9.9575,-161.0788,89.30218478778477,26.206878171008572,50.96676592909989,0.2341833333332488
0.4064,0.0096,0.8236,-0.3887,0.2122,0.4241,-71.1375,9.5375,-161.0788,89.33176483307416,26.261841341797183,52.2145567519438,0.2341833333332488
0.4241,0.0314,0.8237,-0.3887,0.2122,0.4241,-69.2038,15.365,-164.3425,87.838573494203,27.219823510341108,52.87269300189111,0.23443333333329974
0.2693,-0.0241,0.919,-0.3887,0.2122,0.4241,-69.2038,15.365,-164.3425,91.44978090135888,16.394023509075495,41.91052978543211,0.23443333333329974
0.2693,-0.0241,0.919,-0.3782,0.2057,0.4325,-72.1175,17.0625,-156.4413,91.50146950084313,16.327596459427426,41.77816645601869,0.23443333333329974
0.3076,-0.2721,0.8542,-0.3782,0.2057,0.4325,-72.1175,17.0625,-156.4413,107.44692569081585,18.9210537836283,52.59834011681707,0.23443333333329974
0.3076,-0.2721,0.8542,-0.3782,0.2057,0.4325,-66.2375,11.8125,-152.95,107.66563186052629,18.9377810762974,53.20946849954961,0.23443333333329974
0.3267,-0.0435,0.8505,-0.3782,0.2057,0.4325,-66.2375,11.8125,-152.95,93.14808710269853,20.974558359780076,48.781054521616525,0.23443333333329974
0.6213,0.0617,0.8917,-0.3702,0.2016,0.4359,-53.5763,12.2413,-140.6475,86.1727278165712,34.7037243995977,72.31106056039626,0.23443333333329974
0.6213,0.0617,0.8917,-0.3702,0.2016,0.4359,-53.5763,12.2413,-140.6475,86.04421549956028,34.80233471726401,74.20776003322031,0.23469999999997526
0.9822,0.0938,0.6436,-0.3702,0.2016,0.4359,-51.1263,33.0313,-115.0975,81.79160707572267,56.29725178140168,140.65790046322334,0.23469999999997526
0.9822,0.0938,0.6436,-0.3602,0.1994,0.4422,-44.45,91.665,-73.185,81.70979304538643,56.48536022491616,144.84462997309936,0.23469999999997526
0.6512,0.3047,0.7537,-0.3602,0.1994,0.4422,-44.45,91.665,-73.185,68.29179119228436,38.94340058981051,138.928829449379,0.23469999999997526
0.6512,-0.029,0.6936,-0.3602,0.1994,0.4422,-59.0887,143.8325,-18.9788,91.99107374283213,42.92848246234801,99.11989943325187,0.23469999999997526
0.6018,-0.029,0.6936,-0.3602,0.1994,0.4581,-59.0887,143.8325,-18.9788,92.38744811130123,41.03597604214859,95.82303655137717,0.23469999999997526
0.1948,0.1821,0.856,-0.3385,0.2073,0.4581,-52.8413,173.6613,6.1512,78.25918366937324,15.524856330236902,26.05968771395758,0.23469999999997526
0.1948,0.1821,0.856,-0.3385,0.2073,0.4581,-52.8413,173.6613,6.1512,77.9953148037323,12.859739732386112,25.65834704251707,0.23469999999997526
0.2407,0.4322,0.6963,-0.3385,0.2073,0.4581,-55.9038,183.6975,19.81,58.521941565660285,16.216754994085576,19.309469942953854,0.23469999999997526
0.2407,0.4322,0.6963,-0.3168,0.2182,0.4687,-55.9038,183.6975,19.81,58.17792093891466,16.36126062658129,21.1888708006121,0.23469999999997526
0.009,-0.2301,0.9766,-0.3168,0.2182,0.4687,-70.8138,188.51,34.4137,102.62749588962464,0.9327876787614259,45.2550101733009,0.23469999999997526
0.2331,-0.1441,0.9077,-0.3168,0.2182,0.4687,-70.8138,188.51,7.5338,99.07102837099482,13.017679624819174,55.0365044920281,0.23469999999997526
0.2331,-0.1441,0.9077,-0.2924,0.2274,0.4837,-61.215,181.72,8.33,99.02140750482404,14.12834415262576,59.788619913842666,0.23496666666665078
0.372,0.0325,0.8098,-0.2924,0.2274,0.4837,-58.625,188.9825,0.9187,87.89256358016779,22.229564938662257,73.7398855067555,0.23496666666665078
0.372,0.0325,0.8098,-0.2924,0.2274,0.4837,-58.625,188.9825,0.9187,87.70497702961161,24.096320086797256,73.81364437286615,0.23496666666665078
0.2259,0.0216,0.863,-0.2924,0.2274,0.4837,-64.4788,206.22,20.965,88.55303143341517,15.05108548394294,53.6390119477823,0.23496666666665078
-0.0852,-0.6046,1.3331,-0.265,0.238,0.4999,-64.4788,206.22,20.965,113.9992077114726,-2.5773332576612225,56.00484846158071,0.23496666666665078
-0.0852,-0.6046,1.3331,-0.265,0.238,0.4999,-54.7663,197.4,27.7375,114.38853963869133,-3.3069419376321423,56.016309218921066,0.23496666666665078
-0.0344,-0.4767,1.1609,-0.265,0.238,0.4999,-54.7663,197.4,27.7375,112.36171995351299,-1.6258916524300906,56.14243737733111,0.23496666666665078
-0.0344,-0.4767,1.1609,-0.2412,0.2409,0.5094,-23.3013,168.7787,1.1463,112.32605887750647,-1.5823553562329395,58.84745375428345,0.23496666666665078
0.1383,-0.25,0.8976,-0.2412,0.2409,0.5094,-23.3013,168.7787,1.1463,105.84534632231252,6.247720856585691,64.44805469540213,0.23496666666665078
0.1383,-0.0439,0.9294,-0.2412,0.2409,0.5094,-3.6925,163.2663,-25.9,95.69504772824538,8.36438874775673,58.03061478808056,0.23496666666665078
0.1061,-0.0439,0.9294,-0.2412,0.2409,0.5105,-3.6925,178.9462,-28.4725,93.38498482262968,6.574199580062046,55.33550805866368,0.23496666666665078
0.1175,0.0639,0.9032,-0.2148,0.2418,0.5105,-5.3987,178.9113,-28.4725,87.171458309014,7.363575448600279,54.7003744627334,0.23521666666658803
0.1175,0.0639,0.9032,-0.2148,0.2418,0.5105,-13.2563,205.0912,-15.5575,86.04044042902704,7.391732642490553,54.69682519118646,0.2352333333333263
-0.034,-0.1923,1.1122,-0.2148,0.2418,0.5105,-13.2563,205.0912,-15.5575,98.82300862551436,-1.0804671150065825,54.89598156781949,0.2352499999999509
-0.034,-0.1923,1.1122,-0.1855,0.2442,0.523,-14.105,211.82,-14.56,99.74286417589255,-1.676318766102888,58.78338001410895,0.23528333333331375
-0.2083,-0.3686,1.1494,-0.1855,0.2442,0.523,-14.105,211.82,-14.56,107.23763176869588,-9.173409760459402,57.00014846741129,0.23568333333332703
-0.1032,-0.1612,1.034,-0.1855,0.2442,0.523,7.6475,211.3737,-24.9025,99.79739410620935,-5.782849991031925,54.27117179435485,0.23568333333332703
-0.1032,-0.1612,1.034,-0.1538,0.2426,0.528,7.6475,211.3737,-24.9025,98.96571567485609,-5.638456971898132,57.984537454750274,0.23568333333332703
-0.1996,0.0583,0.8556,-0.1538,0.2426,0.528,20.3612,216.1163,-31.2025,86.69583285451222,-12.851536927515792,37.15861292239212,0.23593333333326427
-0.1996,0.0583,0.8556,-0.1538,0.2426,0.528,20.3612,216.1163,-31.2025,86.12934975780699,-13.09373722603762,37.06232176756544,0.23593333333326427
-0.0018,0.1562,0.5353,-0.1538,0.2426,0.528,14.9012,235.6812,-29.4,74.49803867251013,-0.6463238165398475,28.66983464018191,0.23593333333326427
-0.0465,0.0234,0.6335,-0.1154,0.2421,0.5318,4.1825,262.3075,-35.77,85.44225739797083,-4.091911083725301,55.07884693946033,0.23593333333326427
-0.0465,0.0234,0.6335,-0.1154,0.2421,0.5318,4.1825,262.3075,-35.77,87.43899465246102,-4.192222320668661,55.17946344682672,0.23593333333326427
-0.3694,-0.2068,0.9614,-0.1154,0.2421,0.5318,-2.4675,271.8625,-31.5263,97.50059187009201,-20.043532242625126,51.944867934455985,0.23593333333326427
-0.3694,-0.2068,0.9614,-0.0745,0.2448,0.5143,-2.4675,271.8625,-31.5263,100.67564997851565,-20.57006171829747,56.660011576511394,0.23593333333326427
-0.4263,-0.472,1.0957,-0.0745,0.2448,0.5143,7.5862,263.4625,-30.6075,111.88368014967615,-19.694042346376186,65.3214331230369,0.23593333333326427
-0.4419,-0.3427,1.0557,-0.0745,0.2448,0.5143,7.5862,263.4625,-30.6075,108.42327466778401,-21.640092844416554,60.44940297391674,0.24088333333327228
-0.4463,-0.3427,1.0557,-0.0745,0.2417,0.5187,30.695,247.2663,-34.09,107.99811907148556,-21.89681671774375,59.985997998954986,0.24088333333327228
-0.3098,-0.1345,0.7551,-0.0374,0.2417,0.5187,30.695,247.2663,-34.09,100.34659552225487,-21.99172871220351,57.44643020248987,0.2411333333333232
-0.3098,-0.1345,0.7551,-0.0374,0.2417,0.5187,45.5438,235.3575,-31.6138,100.10499115513325,-21.994626453171605,57.436168557256536,0.2411333333333232
-0.476,-0.0883,0.6848,-0.0374,0.2417,0.5187,45.5438,235.3575,-29.0675,97.40620624694898,-34.1265491555486,45.128652809181496,0.2411333333333232
-0.476,-0.0883,0.6536,-0.0036,0.2378,0.5048,47.4162,233.2312,-29.0675,97.68805077393563,-35.75744780979315,47.57411158967743,0.24139999999999873
-0.4864,0.0179,0.6475,-0.0036,0.2378,0.5048,41.9388,236.95,-29.7675,88.63090809458517,-36.862831792318886,35.886870066273154,0.24139999999999873
-0.6806,0.0528,0.8065,-0.0036,0.2378,0.5048,41.9388,236.95,-29.7675,86.30926765003393,-39.986203411001505,31.230331379016558,0.24139999999999873
-0.6806,0.0528,0.8065,0.0315,0.235,0.4821,36.785,243.5562,-26.775,86.25574443830004,-40.09591341762676,34.46012332305316,0.24139999999999873
-0.7386,0.2456,0.7024,0.0315,0.235,0.4821,36.785,243.5562,-26.775,71.13514053170859,-44.60241537421074,10.176281174082165,0.24166666666667425
-0.7386,0.2456,0.7024,0.0315,0.235,0.4821,25.165,250.3813,-17.92,70.7428040698703,-44.77624182651038,10.076631980759213,0.24166666666667425
-0.4927,0.2977,0.4072,0.0315,0.235,0.4821,25.165,250.3813,-17.92,54.468926518582315,-44.353965815003775,15.210707874817388,0.24166666666667425
-0.3682,0.1563,0.2697,0.0701,0.2379,0.4776,-8.26,275.1,-19.285,59.29954900041828,-49.44681142063427,5.358371741124595,0.24166666666667425
-0.3682,0.1563,0.2697,0.0701,0.2379,0.4776,-8.26,275.1,-19.285,59.83859380018626,-49.731901842639694,5.322579485231757,0.24166666666667425
-0.5951,0.0439,0.6844,0.0701,0.2379,0.4776,-28.9538,286.4575,-18.8475,85.4365525257137,-41.45337556656273,37.366011933889574,0.24166666666667425
-0.5951,0.0439,0.6844,0.1123,0.245,0.4437,-44.6338,286.58,-8.96,86.3101558830376,-41.016250021355496,45.03084311753223,0.24166666666667425
-0.7842,-0.5869,1.0713,0.1123,0.245,0.4437,-42.6388,286.58,-8.96,117.96795009807299,-33.80286426175347,82.9240960465945,0.24166666666667425
-0.7853,-0.6543,0.8173,0.1123,0.245,0.4437,-13.1775,286.58,-29.0763,127.90768460352906,-36.762148852144335,86.79467282459613,0.2419166666666115
-0.7853,-0.6543,0.8173,0.1533,0.2516,0.4206,-13.1775,286.58,-29.0763,128.62385803319265,-36.86915504005773,92.46932394258259,0.2419166666666115
-1.0954,0.0809,0.7767,0.152,0.2516,0.4206,25.4363,280.0525,-56.2537,85.72071529996917,-54.19341801760294,37.26154955809469,0.2419166666666115
-1.0954,0.0809,0.7767,0.152,0.2516,0.4206,25.4363,280.0525,-56.2537,84.11595069016367,-54.50936586842502,37.064531598880464,0.2419166666666115
-1.1824,-0.0944,0.8341,0.152,0.2516,0.4206,4.4363,242.6025,-55.3787,94.30508154124135,-54.62560156141219,52.24436530528054,0.2419166666666115
-1.1824,-0.0944,0.7716,0.1808,0.2578,0.4054,4.4363,242.6025,-55.3787,96.5095101106617,-56.63958258374292,55.35279316028118,0.2419166666666115
-0.964,-0.0747,0.7693,0.1808,0.2578,0.4054,-5.0925,207.0075,-54.0313,95.71238303021441,-51.37988730909541,58.34192565123063,0.2419166666666115
-1.1702,0.1735,0.814,0.1808,0.2578,0.4054,-5.0925,207.0075,-54.0313,81.0303631994935,-54.517508941547895,32.72409520741715,0.2419166666666115
-1.1702,0.1735,0.814,0.1991,0.2638,0.3822,-11.2087,178.5175,-46.8475,78.22489155266969,-54.576965160751875,37.281315295047186,0.242183333333287
-0.9855,0.1745,0.5894,0.1991,0.2638,0.3822,-39.5938,143.5875,-24.2638,73.62494678333692,-57.894939264573495,28.287085329110237,0.242183333333287
-0.9855,0.1745,0.5894,0.1991,0.2638,0.3822,-39.5938,143.5875,-24.2638,73.51079077528415,-58.04019199376671,28.224517627663484,0.242183333333287
-0.9515,0.0053,0.5641,0.1991,0.2638,0.3822,-60.0775,126.8925,-13.02,89.19925226064994,-59.22534699648744,48.44622478393671,0.242183333333287
-0.9715,-0.0125,0.6052,0.2141,0.2726,0.3808,-60.0775,126.8925,-13.02,91.15059501040925,-58.17280656363119,53.771018262496135,0.242183333333287
-0.9715,-0.0125,0.6052,0.2141,0.2726,0.3808,-65.4238,114.0912,-3.29,91.18274400238337,-58.12663477781264,53.81288972373102,0.242183333333287
-0.8653,-0.0937,0.4729,0.2141,0.2726,0.3808,-65.4238,114.0912,-3.29,101.05577659840662,-59.404965998314104,62.67375946888243,0.242183333333287
-0.8653,-0.0937,0.4729,0.2239,0.2779,0.3622,-72.8438,110.4775,2.4413,101.20531596165911,-60.62512054093161,65.76247477622977,0.242183333333287
-0.7861,-0.1843,0.4265,0.2239,0.2779,0.3622,-72.8438,110.4775,2.4413,113.20482399078492,-59.621590581649464,78.89503176756031,0.242183333333287
-0.8057,-0.0639,0.4418,0.2239,0.2779,0.3622,-59.7013,124.2325,9.4937,98.47785381328409,-60.90378941732516,62.61986653611214,0.242183333333287
-0.8057,-0.0639,0.4418,0.2384,0.2812,0.3508,-59.7013,124.2325,19.7838,98.23404090043967,-61.006766383296046,65.01607254741305,0.242183333333287
-0.8406,-0.2305,0.3875,0.2384,0.2812,0.3508,-54.0575,148.295,19.7838,120.33471319019824,-61.75835573353512,86.27892867185646,0.24243333333333794
-0.8406,-0.2305,0.3875,0.2384,0.2812,0.3508,-48.3175,171.5175,19.3113,120.73743334968854,-61.790714758679385,86.42228336262768,0.24243333333333794
-0.9946,-0.2473,0.5178,0.2384,0.2812,0.3508,-48.3175,171.5175,19.3113,115.63527854883763,-60.09564773049847,82.96961237420074,0.24243333333333794
-0.9946,-0.2473,0.3225,0.2542,0.2839,0.3242,-38.2287,181.1862,12.6525,127.17747248846975,-67.29686161057606,92.37592387137039,0.24243333333333794
-1.0462,-0.149,0.3225,0.2542,0.2839,0.3242,-38.2287,181.1862,12.6525,115.11566954550995,-70.99855376946697,78.00838548072977,0.24243333333333794
-1.3686,-0.0312,0.2265,0.2542,0.2839,0.3242,-33.39,186.305,13.615,98.3496968429081,-79.95708325406666,54.10569905281244,0.24243333333333794
-1.3686,-0.0312,0.2265,0.2678,0.2825,0.2941,-33.39,186.305,13.615,97.85790276567184,-80.48294094398439,57.309846177955926,0.24243333333333794
-1.2631,-0.117,0.377,0.2678,0.2825,0.2941,-33.005,184.7475,32.62,106.96306885613114,-72.8626520708543,73.03842229290446,0.24243333333333794
-1.2631,-0.117,0.377,0.2678,0.2825,0.2941,-33.005,184.7475,32.62,107.23320013250674,-72.65121837910368,73.12348210068924,0.24243333333333794
-1.1915,-0.4312,0.3493,0.2678,0.2825,0.2941,-31.0975,173.0838,45.08,139.92870246486552,-65.18401104846961,109.33295237153864,0.24243333333333794
-1.124,-0.2477,0.3398,0.279,0.2786,0.2749,-9.7563,144.4625,33.3725,127.41373553134275,-69.3717110883279,96.48815619086074,0.24243333333333794
-1.124,-0.2477,0.3398,0.279,0.2786,0.2749,-9.7563,144.4625,33.3725,126.21701844303601,-69.48552728331093,96.39934290303788,0.24270000000001346
-1.0906,-0.3579,0.4751,0.279,0.2786,0.2749,-3.85,116.4538,21.6213,126.82115620297223,-61.71483017673139,102.72530504714781,0.24270000000001346
-1.0906,-0.3579,0.4751,0.285,0.2764,0.2706,-3.85,116.4538,21.6213,126.95389146155387,-61.40452774619199,103.58133274617028,0.24270000000001346
-1.0979,-0.2948,0.3748,0.285,0.2764,0.2706,18.445,94.36,12.1975,128.12446826727611,-66.19571681666672,101.08943722258391,0.24270000000001346
-1.1248,0.0564,0.245,0.285,0.2764,0.2706,18.445,94.36,12.1975,79.62372666234857,-76.68329345786309,39.8689428365895,0.24451666666664096
-1.1248,0.0564,0.245,0.2882,0.2714,0.2615,19.9937,92.7588,20.1513,77.15765805074037,-77.37027521932289,40.00237126614892,0.24478333333331648
-0.7311,0.068,0.0761,0.2882,0.2714,0.2615,19.9937,92.7588,20.1513,49.57646374436545,-81.8547083217147,5.217212739474559,0.24478333333331648
-0.7311,0.068,0.0761,0.2882,0.2714,0.2615,3.4037,101.0275,44.205,48.50631808596968,-82.04920632186507,4.84253713649296,0.24478333333331648
-1.2263,-0.05,0.2579,0.2882,0.2714,0.2615,3.4037,101.0275,46.445,89.8144498442664,-77.99169107198232,65.49156663054855,0.24503333333325372
-1.2263,0.0201,0.1044,0.2929,0.2656,0.2425,-2.2487,91.6825,44.8963,82.73332757174006,-84.89900301103351,39.65621971982733,0.24503333333325372
-1.2592,0.0201,0.1044,0.2929,0.2656,0.2425,-23.6775,92.6625,62.5975,79.25120300090019,-85.16966227166787,39.299528985621805,0.24503333333325372
-0.9443,0.3551,0.0726,0.2929,0.2656,0.2425,-23.6775,92.6625,62.5975,14.331687346136205,-69.24686709615375,44.254518292718906,0.24529999999992924
-0.9443,0.3551,0.0726,0.293,0.2556,0.2377,-45.5962,89.9938,87.2025,11.61482889851041,-69.00467319303655,46.33813447583843,0.24529999999992924
-0.8452,-0.1207,-0.1879,0.293,0.2556,0.2377,-45.5962,89.9938,87.2025,-119.8137432900305,-75.13067047884861,166.4904599131265,0.24529999999992924
-0.8452,-0.1207,-0.1879,0.293,0.2556,0.2377,-57.0325,94.815,81.9088,-122.66493143979461,-75.19822199172566,167.8239009798606,0.24556666666660476
-1.074,0.0894,-0.1019,0.293,0.2556,0.2377,-57.0325,94.815,81.9088,-50.01899550406458,-82.71712786773566,98.36677861380825,0.24556666666660476
-1.2052,0.037,0.1806,0.2933,0.2455,0.2206,-65.1612,105.9625,89.565,76.47174428352437,-81.3184720833271,40.67091873493018,0.24556666666660476
-1.2052,0.037,0.1806,0.2933,0.2455,0.2206,-65.1612,105.9625,89.565,78.39226739803787,-81.3034305149943,41.98102591324105,0.2458166666666557
-1.0303,-0.3403,-0.0057,0.2933,0.2455,0.2206,-67.7862,98.5425,100.0825,-175.28157092008468,-71.8122170018216,145.5646430684761,0.2458166666666557
-1.0303,-0.3403,-0.0057,0.2928,0.2336,0.2034,-67.7862,88.2787,86.2487,-178.98550647667128,-71.72065560093222,147.7844177149073,0.2458166666666557
-1.0514,0.128,-0.1384,0.2928,0.2336,0.2034,-40.6875,88.2787,86.2487,-50.418850598444585,-79.74435185090584,95.045920686269,0.2458166666666557
-1.0339,0.0793,-0.2026,0.2928,0.2336,0.2034,-40.0662,89.1712,84.0875,-68.17748653862495,-78.13506555723464,118.82836721889662,0.2458166666666557
-1.0339,0.0793,-0.2026,0.2905,0.2229,0.2074,-40.0662,89.1712,84.0875,-68.6130926227575,-78.1166755074862,120.85370257971113,0.2460833333333312
-1.0041,-0.0675,-0.1434,0.2905,0.2229,0.2074,-34.3263,102.935,97.86,-113.87669903318319,-81.00137990747123,160.35471665031378,0.2460833333333312
-1.0041,-0.0675,-0.1434,0.2905,0.2229,0.2074,-34.3263,102.935,97.86,-115.16892042058736,-81.0298620850918,160.73785165934353,0.2460833333333312
-1.1012,-0.0564,-0.0083,0.2905,0.2229,0.2074,-17.0538,113.435,97.3875,-168.44839689974128,-86.97694484061466,144.23370252386133,0.2460833333333312
-1.1012,-0.0872,-0.0989,0.2886,0.2092,0.1793,-17.0538,113.435,97.3875,-133.48905313215522,-83.20992720648043,170.04955646164586,0.2460833333333312
-1.0792,-0.0872,-0.0989,0.2886,0.2092,0.1793,2.4062,115.1763,93.87,-131.96576993485394,-83.0361551743186,172.83053788026783,0.2460833333333312
-1.0822,0.0625,-0.1614,0.2886,0.2092,0.1793,2.4062,115.1763,93.87,-85.87313058842211,-80.93532843755271,118.12152902794064,0.2460833333333312
-1.0822,0.0625,-0.1614,0.2842,0.1941,0.171,22.4438,120.7763,89.6175,-69.54953133879987,-80.91374546693132,118.73634752845705,0.2460833333333312
-1.0193,0.1438,-0.261,0.2842,0.1941,0.171,29.6887,127.0675,86.8,-61.418246233853154,-73.78363478066778,117.8883662652272,0.2460833333333312
-1.0193,0.1438,-0.261,0.2842,0.1941,0.171,29.6887,127.0675,86.8,-61.155838797164215,-73.70460541944072,117.88170142066635,0.2460833333333312
-0.9831,0.0966,-0.3003,0.2842,0.1941,0.171,30.1262,142.9138,82.075,-71.81770829564695,-72.22721771211627,127.92387407474561,0.2460833333333312
-1.1405,0.0908,-0.1719,0.2819,0.1832,0.1519,30.1262,142.9138,82.075,-62.46379923072857,-80.23171588987631,112.38617059709439,0.24633333333326846
-1.1405,0.0908,-0.1719,0.2819,0.1832,0.1519,37.6338,143.5262,78.4088,-62.16425204662144,-80.32529045165015,112.27757150503811,0.24633333333326846
-1.2016,0.091,-0.149,0.2819,0.1832,0.1519,37.6338,143.5262,78.4088,-58.67790091143425,-81.71564907141979,107.54814570937477,0.24633333333326846
-1.2016,0.091,-0.149,0.2771,0.1729,0.1265,44.0825,131.3813,71.925,-58.588016496010724,-81.73262183475538,105.09219774272678,0.24633333333326846
-1.0713,0.0961,-0.1391,0.2771,0.1729,0.1265,44.0825,131.3813,71.925,-55.43169204594599,-81.04108638226282,102.88539485587573,0.24633333333326846
-0.9608,0.1286,-0.174,0.2771,0.1729,0.1265,53.4275,125.6763,69.4313,-53.56731885969924,-77.36032386586794,105.5912103640802,0.24633333333326846
-0.9608,0.1286,-0.174,0.2732,0.1624,0.0977,53.4275,125.6763,66.255,-53.53325147949951,-77.30983231596595,102.71853575152126,0.24633333333326846
-1.1032,0.2535,-0.256,0.2732,0.1624,0.0977,63.245,131.6438,66.255,-45.40898849487088,-71.99180079854627,102.90059864066053,0.24633333333326846
-1.1032,0.2535,-0.256,0.2732,0.1624,0.0977,58.31,130.7513,58.0213,-45.28327991742969,-71.915624613083,102.90197983934267,0.24659999999994398
-1.0147,0.3108,-0.4025,0.2732,0.1624,0.0977,58.31,130.7513,58.0213,-52.20747341270636,-63.520558059057464,118.5189305371019,0.24659999999994398
-1.1147,0.2835,-0.2708,0.2687,0.1541,0.0812,40.635,131.5825,53.0863,-43.890659713079096,-70.49698559036916,102.72860017256531,0.2468666666666195
-1.1147,0.2835,-0.2708,0.2687,0.1541,0.0812,40.635,131.5825,53.0863,-43.6923265526075,-70.62044615800647,102.60874670585063,0.2468666666666195
-1.0608,0.3366,-0.3364,0.2687,0.1541,0.0812,30.87,127.3737,59.9813,-44.94285164879065,-65.91405590343716,110.64816448381964,0.2468666666666195
-1.0608,0.3366,-0.3364,0.2622,0.146,0.0698,30.87,127.3737,59.9813,-44.98172579939144,-65.8398253513794,110.85057195777961,0.2468666666666195
-1.0513,0.1768,-0.3125,0.2622,0.146,0.0698,10.0188,112.0263,60.585,-59.1293124519308,-71.0607485972013,114.64920148231708,0.2468666666666195
-1.0513,0.1768,-0.1718,0.2622,0.146,0.0698,10.0188,112.0263,60.585,-45.499331689582874,-76.71325209375682,92.19269677743019,0.24711666666667043
-1.0649,0.2083,-0.1718,0.2622,0.146,0.0698,10.885,97.6762,63.7875,-40.006049236461855,-75.78636728014403,89.37081379565488,0.24711666666667043
-1.0652,0.2386,-0.1956,0.2547,0.1358,0.0562,14.7437,85.7325,70.5687,-39.385536668070564,-73.87292868396104,91.83121483141419,0.24711666666667043
-1.0652,0.2386,-0.1956,0.2547,0.1358,0.0562,14.7437,85.7325,70.5687,-39.34685677405872,-73.84706781796329,91.85985846351927,0.24711666666667043
-0.8657,0.1937,-0.4199,0.2547,0.1358,0.0562,5.5738,73.8063,58.7475,-61.46894835333009,-62.08290138505157,127.53716815556002,0.24711666666667043
-0.8657,0.1937,-0.4199,0.2474,0.1289,0.0494,5.5738,73.8063,58.7475,-64.68794743810781,-61.89367114788832,128.22027609380132,0.24711666666667043
-0.939,0.3048,-0.3465,0.2474,0.1289,0.0494,-1.2163,74.0075,45.36,-57.019318469059115,-63.78804848365931,117.17357740596215,0.24711666666667043
-0.8248,0.2763,-0.3848,0.2474,0.1289,0.0494,-1.2163,74.0075,45.36,-55.72769684834691,-60.20418784830187,124.70364786182807,0.24711666666667043
-0.8248,0.2763,-0.3848,0.242,0.121,0.0429,-16.17,76.1862,44.94,-54.40373466430968,-60.13073288149929,125.97041399731822,0.24711666666667043
-0.8672,0.1869,-0.2708,0.242,0.121,0.0429,-16.17,76.1862,44.94,-55.32913863834476,-69.03412974210516,113.93227314648144,0.24711666666667043
-0.8672,0.1869,-0.2708,0.242,0.121,0.0429,-13.5975,77.315,45.7713,-55.38336718753689,-69.21829813059395,113.77457355632822,0.24711666666667043
-0.9257,0.2993,-0.381,0.242,0.121,0.0429,-13.5975,77.315,45.7713,-52.09532756472296,-62.51208576069587,121.84892550523773,0.24711666666667043
-0.7094,0.286,-0.6319,0.2338,0.1148,0.0322,-9.625,84.21,50.3563,-64.33588149930964,-45.95848708575177,141.71028763633677,0.24738333333334594
-0.7094,0.286,-0.6319,0.2338,0.1148,0.0322,-20.9125,101.9638,45.9463,-65.58761485990249,-45.65119070250254,141.94617385977963,0.24738333333334594
-0.939,0.1867,-0.4306,0.2338,0.1148,0.0322,-20.9125,101.9638,45.9463,-66.514399860603,-63.08271388979382,127.47701162792211,0.24738333333334594
-0.939,0.1867,-0.4306,0.227,0.1098,0.0219,-17.185,113.9425,37.8175,-66.55684539476114,-63.434373200017504,126.30767568690243,0.24738333333334594
-1.106,0.1581,-0.2845,0.227,0.1098,0.0219,-17.185,113.9425,37.8175,-61.252665327256366,-73.35514845414359,106.52810051239628,0.24738333333334594
-1.106,0.1269,-0.3647,0.227,0.1098,0.0219,-15.3125,101.1588,26.8363,-70.21720853368636,-70.83990553172166,118.41055150919834,0.24738333333334594
-1.0804,0.1366,-0.3647,0.227,0.1098,0.0014,-15.3125,101.1588,26.8363,-69.51322838571538,-70.19959768891765,112.17492400492736,0.2518000000000029
-1.0427,0.219,-0.4338,0.2235,0.1078,0.015,-7.7613,84.6913,17.0888,-63.957894858650704,-65.26524268559461,121.14980550648866,0.25206666666667843
-1.0427,0.219,-0.4338,0.2235,0.1078,0.015,-7.7613,84.6913,17.0888,-63.30144935529657,-65.02465785183519,121.25557182192203,0.25206666666667843
-1.1289,0.279,-0.5109,0.2235,0.1078,0.015,2.5725,75.4163,18.7687,-61.8624657326525,-62.825895449067566,123.789816804055,0.25206666666667843
-1.1289,0.279,-0.5109,0.219,0.1049,-0.0019,2.5725,68.6963,18.7862,-61.49073629208352,-62.72680259048641,120.7799708379914,0.2523166666666157
-1.0759,0.2638,-0.4764,0.219,0.1049,-0.0019,1.8988,67.2787,18.7862,-61.17073652937045,-63.1347296526737,119.83636673622338,0.2523166666666157
-1.1599,0.1665,-0.3761,0.219,0.1049,-0.0019,3.0975,64.3825,14.7613,-64.99489883978589,-70.0714945041792,108.5133041551033,0.2523166666666157
-1.1599,0.1665,-0.3761,0.2158,0.1035,-0.0138,3.0975,64.3825,14.7613,-65.86480738052289,-70.45300574753803,103.19499186501696,0.2523166666666157
-1.1873,0.2006,-0.4099,0.2158,0.1035,-0.0138,10.1587,56.1138,0.0787,-64.09288873067712,-69.39740724605286,105.02959580166298,0.2523166666666157
-1.1873,0.2006,-0.4099,0.2158,0.1035,-0.0138,10.1587,56.1138,0.0787,-63.9382339491902,-69.09578475089033,105.0621946028031,0.2523166666666157
-1.1755,0.3177,-0.4702,0.2158,0.1035,-0.0138,6.0375,46.655,-22.4788,-57.04260523171634,-64.46221814879692,111.7340445960527,0.2525833333332912
-1.1813,0.3168,-0.4859,0.2162,0.1062,-0.011,6.0375,46.655,-22.4788,-56.91616753081034,-63.876806481844355,112.82687223440219,0.2525833333332912
-1.1813,0.3168,-0.4859,0.2162,0.1062,-0.011,-1.19,41.9825,-40.4338,-56.90676250931842,-63.848368318629305,112.85015706946416,0.2525833333332912
-1.2138,0.2814,-0.4839,0.2162,0.1062,-0.011,-1.19,41.9825,-40.4338,-58.28022072795666,-65.20637418140542,111.21773239553272,0.2525833333332912
-1.2138,0.2814,-0.4839,0.2206,0.1122,-0.0113,-10.2725,41.5275,-55.6937,-59.68052739324569,-65.24144092585013,109.51896869881374,0.2525833333332912
-1.2482,0.4114,-0.5251,0.2206,0.1122,-0.0113,-21.0263,33.215,-73.2113,-52.27943434766868,-61.92571648879539,113.22572269590496,0.2525833333332912
-1.2482,0.4232,-0.42,0.2206,0.1122,-0.0113,-21.0263,33.215,-73.2113,-45.12759662933651,-64.43185332662549,103.04335735224751,0.2525833333332912
-1.3643,0.4232,-0.42,0.2206,0.1122,-0.0102,-37.7212,33.5825,-74.2525,-44.791539794090255,-66.36641323186615,97.15447853889262,0.2525833333332912
-1.0822,0.0595,-0.3345,0.2289,0.1207,-0.0102,-37.7212,33.5825,-74.2525,-78.99976264228198,-72.4854248340789,108.01410159015464,0.2525833333332912
-1.0822,0.0595,-0.3345,0.2289,0.1207,-0.0102,-43.3387,17.1413,-89.5125,-79.89311126668045,-72.56964349080717,108.32656134215915,0.2525833333332912
-1.4692,0.1051,-0.2345,0.2289,0.1207,-0.0102,-43.3387,17.1413,-89.5125,-66.17734130608768,-79.9936114555507,81.79897968543558,0.2525833333332912
-1.4692,0.1051,-0.2345,0.2392,0.1327,-0.011,-31.6838,-16.9312,-120.33,-65.86850754929868,-80.07813792244707,79.38565916571562,0.2525833333332912
-1.4589,0.3852,-0.4126,0.2392,0.1327,-0.011,-31.6838,-16.9312,-120.33,-47.55066373125469,-68.94251064825826,86.01962614144803,0.2528333333333421
-1.1815,0.3999,-0.4513,0.2392,0.1327,-0.011,-43.4613,-42.3325,-130.9088,-48.435137323376374,-63.00841624149502,103.63292933924016,0.2528333333333421
-1.1815,0.3999,-0.4513,0.2554,0.1487,-0.001,-43.4613,-42.3325,-131.7575,-48.455164917041834,-62.96258646681456,103.99632094458596,0.2528333333333421
-1.0659,0.2597,-0.4956,0.2554,0.1487,-0.001,-57.54,-43.365,-131.7575,-62.10646726870077,-62.308816985391985,113.197207935077,0.2528333333333421
-1.0659,0.2597,-0.4956,0.2554,0.1487,-0.001,-54.4688,-24.2987,-138.005,-62.340630851592955,-62.30379919786559,113.397405154263,0.2528333333333421
-0.9989,0.2952,-0.4283,0.2554,0.1487,-0.001,-54.4688,-24.2987,-138.005,-55.54933952962488,-62.49039286085179,109.33929013047562,0.2528333333333421
-1.064,0.2051,-0.4885,0.2673,0.1654,0.0026,-61.9588,-5.88,-147.7612,-67.03824774267723,-63.52228612065796,112.1980944186184,0.2528333333333421
-1.064,0.2051,-0.4885,0.2673,0.1654,0.0026,-61.9588,-5.88,-147.7612,-67.22160016141805,-63.529337453781395,112.56862010706605,0.2528333333333421
-1.0571,0.2728,-0.4396,0.2673,0.1654,0.0026,-55.6675,16.1875,-153.3875,-58.33818516271185,-63.91934322102189,106.56333840380572,0.2528333333333421
-1.0571,0.2728,-0.4396,0.2786,0.1853,0.0151,-55.6675,16.1875,-153.3875,-58.18059104119104,-63.921909614631645,105.67494354905818,0.2528333333333421
-1.0659,0.1218,-0.3453,0.2786,0.1853,0.0151,-53.6463,33.8187,-151.7688,-70.34240870415417,-70.99430733586617,104.29987431545585,0.2528333333333421
-1.0659,0.1222,-0.4624,0.2786,0.1853,0.0151,-53.6463,33.8187,-151.7688,-75.1073629243793,-65.86831259766888,114.39489202675189,0.25309999999990396
-1.0629,0.1222,-0.4624,0.2786,0.2058,-0.0018,-41.51,47.6087,-153.5538,-75.19456568974128,-65.77423957959937,108.20631159978501,0.25309999999990396
-1.1178,0.2876,-0.4066,0.2912,0.2054,-0.0018,-35.3937,54.1538,-153.1425,-55.29416182778326,-65.98335007187393,93.3106639007385,0.25309999999990396
-1.1178,0.2876,-0.4066,0.2912,0.2054,-0.0018,-35.3937,54.1538,-153.1425,-54.74283001690867,-65.98472832439012,93.03643481825077,0.25309999999990396
-1.0646,0.1489,-0.3409,0.2912,0.2054,-0.0018,-41.0988,56.4025,-148.0762,-66.1260191636798,-70.70678517685067,95.1089442985183,0.25309999999990396
-1.0646,0.1489,-0.3409,0.3007,0.2226,0.0023,-41.0988,56.4025,-148.0762,-66.39834264067083,-70.73898354381757,94.76774638242682,0.25309999999990396
-0.7703,-0.1061,-0.2441,0.3007,0.2226,0.0023,-37.2487,63.6912,-146.615,-112.2516079964776,-70.93706727810115,131.5813788318893,0.25309999999990396
-0.9583,-0.0038,-0.5074,0.3007,0.2226,0.0023,-37.2487,63.6912,-146.615,-91.00412043645343,-62.15991328935502,123.07622692309363,0.25309999999990396
-0.9583,-0.0038,-0.5074,0.3074,0.2437,-0.0083,-15.3212,77.0612,-151.4975,-90.46497790817992,-62.09944841912126,119.58389879042652,0.25309999999990396
-1.2013,0.3023,-0.4635,0.3074,0.2437,-0.0083,-15.3212,77.0612,-151.4975,-58.98279749873281,-65.24610864273086,90.77387403220123,0.25309999999990396
-1.2013,0.3023,-0.4635,0.3074,0.2437,-0.0083,-16.695,75.635,-140.07,-57.007613869408445,-65.26706409699665,90.40090328853839,0.25309999999990396
-1.1222,0.0122,-0.4438,0.3074,0.2437,-0.0083,-16.695,75.635,-140.07,-86.6193583802806,-68.39242469440839,111.87702327766509,0.2533666666665795
-0.9797,-0.0684,-0.5004,0.3133,0.2622,-0.0213,-27.3263,61.5913,-124.9675,-97.38523281295784,-62.77391855434719,120.62087237755873,0.2533666666665795
-0.9797,-0.0684,-0.5004,0.3133,0.2622,-0.0213,-12.0312,51.9137,-121.555,-97.75227564252991,-62.72845222921198,120.7620268947341,0.2533666666665795
-0.9745,0.167,-0.4776,0.3133,0.2622,-0.0213,-12.0312,51.9137,-121.555,-72.84956896925058,-62.56328350799318,102.04640604175523,0.2533666666665795
-0.9745,0.167,-0.4776,0.3187,0.2761,-0.0258,-19.3025,35.4025,-113.015,-70.8331601307135,-62.561909520034696,100.03717471498821,0.2533666666665795
-0.9589,-0.1128,-0.5592,0.3187,0.2761,-0.0258,-19.3025,35.4025,-113.015,-99.87621564749789,-59.280647428871724,123.62120741126822,0.2533666666665795
-0.9589,0.1007,-0.5457,0.3187,0.2761,-0.0258,-16.45,21.9713,-106.96,-80.73003654001634,-59.93585281106087,110.10375725178496,0.2554333333332579
-1.004,0.1007,-0.5457,0.3187,0.2966,-0.0255,-16.45,21.9713,-106.96,-79.61373557282218,-61.05970308740843,106.67743843806412,0.2556999999999334
-0.9999,0.1262,-0.5499,0.3243,0.2898,-0.0255,-14.0612,16.905,-90.4225,-77.24664382756185,-60.571602888370634,106.38270567096025,0.2556999999999334
-0.9999,0.1262,-0.5499,0.3243,0.2898,-0.0255,-14.0612,16.905,-90.4225,-77.08630053515813,-60.56611870680629,106.36543900300256,0.2556999999999334
-0.8497,0.0059,-0.7246,0.3243,0.2898,-0.0255,-21.1488,20.8512,-70.9975,-88.9638251666708,-49.70090013345001,122.36439209109234,0.25596666666660894
-0.8497,0.0059,-0.7246,0.3266,0.2996,-0.0294,-21.1488,20.8512,-68.3988,-89.50741277665698,-49.54482622175686,122.10183384688146,0.25596666666660894
-0.9104,0.1872,-0.6497,0.3266,0.2996,-0.0294,-26.0837,36.4613,-68.3988,-74.50826115127789,-53.34208604869137,110.96724097713691,0.25596666666660894
-0.8682,-0.0706,-0.6068,0.3266,0.2996,-0.0294,-45.71,51.0737,-65.5725,-96.15963222765434,-54.84476090858186,122.3578324927612,0.2562166666666599
-0.8682,-0.0706,-0.6068,0.3282,0.3046,-0.0411,-45.71,51.0737,-65.5725,-96.62614149514944,-54.86818476704662,120.97489703493196,0.2562166666666599
-1.0428,-0.1118,-0.457,0.3282,0.3046,-0.0411,-43.1987,54.075,-66.535,-103.5845829321124,-65.55008214330782,118.34771045958996,0.2562166666666599
-1.0428,-0.1118,-0.457,0.3282,0.3046,-0.0411,-43.1987,54.075,-66.535,-103.74308903278559,-65.71413139468135,118.29927365027079,0.2562166666666599
-0.9029,0.0139,-0.5347,0.3282,0.3046,-0.0411,-44.6688,43.995,-67.095,-88.846612056029,-59.4541662919966,112.5420686366548,0.2562166666666599
-0.714,-0.1,-0.6668,0.3287,0.3125,-0.039,-44.6688,43.995,-67.095,-98.31567471273976,-46.834943650967915,125.99663313815513,0.2562166666666599
-0.714,-0.1,-0.6668,0.3287,0.3125,-0.039,-44.8175,52.43,-60.9613,-98.52439650791807,-46.6431001772484,126.3024466528417,0.2562166666666599
-0.7404,-0.0039,-0.6685,0.3287,0.3125,-0.039,-44.8175,52.43,-60.9613,-90.51418542639767,-47.899478383622416,121.72839191177518,0.2562166666666599
-0.7404,-0.0039,-0.6685,0.327,0.3161,-0.0491,-39.0513,71.5137,-47.8363,-90.33878348075494,-47.92047777565681,120.21184281665559,0.2564833333333354
