AcclX,AcclY,AcclZ,MagX,MagY,MagZ,GyroX,GyroY,GyroZ,Roll,Pitch,Yaw,Time Elapsed(s)
0.4843,0.0835,0.7691,-0.3706,0.4706,0.405,0.0175,1.0237,-2.4588,0,0,0,0.0
0.48,0.088,0.7454,-0.3706,0.4706,0.405,0.0175,1.0237,-2.4588,0,0,0,0.0
0.4821,0.0867,0.7698,-0.3706,0.4706,0.405,0.1312,1.155,-2.7213,0,0,0,0.014999999999417923
0.4925,0.0857,0.7486,-0.3703,0.4701,0.4001,-0.3675,1.155,-2.625,0,0,0,0.014999999999417923
0.4925,0.0877,0.7505,-0.3703,0.4701,0.4001,-0.9712,1.0063,-2.8875,0,0,0,0.030999999995401595
0.4854,0.0877,0.7505,-0.3703,0.4701,0.4038,-0.9712,1.0063,-2.8875,0,0,0,0.030999999995401595
0.4915,0.0833,0.763,-0.3703,0.4701,0.4038,-0.49,1.1463,-2.4062,0,0,0,0.046999999998661224
0.4878,0.0863,0.7599,-0.3703,0.4701,0.4038,-0.8487,1.2425,-2.4325,0,0,0,0.046999999998661224
0.4961,0.0894,0.7468,-0.3699,0.4702,0.4054,-0.9013,0.7875,-2.4413,0,0,0,0.062000000005355105
0.4961,0.0894,0.7598,-0.3699,0.4702,0.4054,-0.9013,0.7875,-2.4413,0,0,0,0.062000000005355105
0.4789,0.0814,0.7598,-0.3706,0.467,0.4047,-0.4462,1.0675,-2.1525,0,0,0,0.07800000000133878
0.4905,0.0907,0.7574,-0.3706,0.467,0.4047,-0.6562,1.1463,-2.31,0,0,0,0.07800000000133878
0.4828,0.0833,0.7642,-0.3706,0.467,0.4047,-0.5075,0.9275,-2.2138,0,0,0,0.0930000000007567
0.4896,0.0875,0.7496,-0.3706,0.4688,0.4131,-0.5075,0.9275,-2.2138,0,0,0,0.0930000000007567
0.4896,0.0875,0.7496,-0.3706,0.4688,0.4131,-0.0437,0.7262,-1.995,0,0,0,0.10899999999674037
0.4912,0.0849,0.7639,-0.3698,0.4682,0.4053,-0.4638,0.735,-2.2925,0,0,0,0.10899999999674037
0.4928,0.0873,0.7555,-0.3698,0.4682,0.4053,-0.2013,1.2337,-2.3275,0,0,0,0.125
0.4819,0.0857,0.7645,-0.3698,0.4682,0.4053,-0.2013,1.2337,-2.3275,0,0,0,0.125
0.4898,0.0856,0.7457,-0.3712,0.4688,0.4042,-0.42,0.9275,-2.3012,0,0,0,0.14000000000669388
0.4898,0.0856,0.7457,-0.3712,0.4688,0.4042,-0.5337,0.8838,-2.0825,0,0,0,0.14000000000669388
0.4807,0.0866,0.7627,-0.3704,0.4686,0.4038,0.1925,1.3038,-2.1525,0,0,0,0.1559999999954016
0.4923,0.0864,0.758,-0.3704,0.4686,0.4038,0.1925,1.3038,-2.1525,0,0,0,0.1559999999954016
0.4822,0.0838,0.7624,-0.3704,0.4686,0.4038,-0.1138,1.0675,-2.135,0,0,0,0.17100000000209548
0.4873,0.0899,0.7468,-0.371,0.4695,0.4005,-0.4725,0.6037,-2.8612,0,0,0,0.18699999999807915
0.4873,0.0899,0.7468,-0.371,0.4695,0.4005,-0.4725,0.6037,-2.3187,0,0,0,0.1879999999946449
0.4837,0.0845,0.7624,-0.3704,0.4689,0.4051,-0.7962,0.5775,-2.3187,0,0,0,0.1879999999946449
0.494,0.0857,0.7524,-0.3704,0.4689,0.4051,-0.2275,0.5337,-2.5725,0,0,0,0.20399999999790452
0.4875,0.0854,0.763,-0.3704,0.4689,0.4051,-0.0962,0.9013,-2.2575,0,0,0,0.2190000000045984
0.4923,0.0827,0.7496,-0.3711,0.4692,0.3941,-0.0962,0.9013,-2.2575,0,0,0,0.2190000000045984
0.4923,0.0827,0.7496,-0.3711,0.4692,0.3941,-0.1225,1.1025,-2.1613,0,0,0,0.23500000000058208
0.4867,0.0892,0.7706,-0.3702,0.4685,0.4015,-0.0962,0.735,-2.3537,0,0,0,0.23500000000058208
0.4907,0.0873,0.7572,-0.3702,0.4685,0.4015,-0.0263,0.9187,-2.3012,0,0,0,0.25
0.4849,0.0852,0.7539,-0.3702,0.4685,0.4015,-0.0263,0.9187,-2.3012,0,0,0,0.25
0.4909,0.0852,0.753,-0.3698,0.4693,0.4066,-0.42,0.5163,-2.31,0,0,0,0.26599999999598367
0.4909,0.0852,0.753,-0.3698,0.4693,0.4066,-0.6825,0.4462,-2.17,0,0,0,0.26599999999598367
0.4891,0.0863,0.7632,-0.3707,0.4699,0.4055,-0.28,0.98,-2.3537,0,0,0,0.2819999999992433
0.4887,0.0891,0.754,-0.3707,0.4699,0.4055,-0.28,0.98,-2.3537,0,0,0,0.2819999999992433
0.4869,0.0847,0.7707,-0.3707,0.4699,0.4055,-0.3762,1.085,-2.1962,0,0,0,0.2969999999986612
0.4882,0.0863,0.7544,-0.3697,0.4692,0.4062,-0.9538,0.595,-2.4062,0,0,0,0.2969999999986612
0.4882,0.0863,0.7544,-0.3697,0.4692,0.4062,-0.7262,0.805,-2.3975,0,0,0,0.31300000000192085
0.4857,0.0874,0.757,-0.3713,0.4686,0.4042,-0.7262,0.805,-2.3975,0,0,0,0.31300000000192085
0.4828,0.0839,0.7465,-0.3713,0.4686,0.4042,-1.0588,1.1463,-2.4938,0,0,0,0.3280000000013388
0.488,0.0895,0.7576,-0.3713,0.4686,0.4042,-0.6388,0.7962,-2.6425,0,0,0,0.3280000000013388
0.4935,0.0867,0.7622,-0.371,0.4701,0.4045,-0.7175,0.7525,-2.5725,0,0,0,0.34399999999732245
0.4935,0.0867,0.7622,-0.371,0.4701,0.4045,-0.7175,0.7525,-2.5725,0,0,0,0.34399999999732245
0.4849,0.0888,0.7663,-0.3694,0.4694,0.4079,-0.525,1.0588,-2.66,0,0,0,0.3600000000005821
0.4908,0.0838,0.7588,-0.3694,0.4694,0.4079,-1.0412,0.8925,-2.3187,0,0,0,0.3600000000005821
0.4814,0.0878,0.7556,-0.3694,0.4694,0.4079,-1.1463,0.6388,-2.6425,0,0,0,0.375
0.4814,0.0873,0.7614,-0.3698,0.469,0.4119,-1.1463,0.6388,-2.6425,0,0,0,0.375
0.4931,0.0873,0.7614,-0.3698,0.469,0.4119,-0.2362,0.6388,-2.3275,0,0,0,0.39099999999598367
0.4892,0.0833,0.7575,-0.3698,0.4696,0.4009,-0.0875,0.805,-2.2225,0,0,0,0.39099999999598367
0.4889,0.0853,0.7519,-0.3715,0.4696,0.4009,-0.0875,0.805,-2.1175,0,0,0,0.40600000000267755
0.4878,0.0853,0.7477,-0.3715,0.4696,0.4009,-0.0787,0.6825,-2.1175,0,0,0,0.40600000000267755
0.4878,0.0853,0.765,-0.3707,0.4698,0.392,-0.2187,0.98,-2.3363,0,0,0,0.4219999999986612
0.4907,0.0845,0.765,-0.3707,0.4698,0.392,-0.1663,1.0588,-2.4675,0,0,0,0.4219999999986612
0.4839,0.0925,0.751,-0.3707,0.4698,0.392,-0.1663,1.0588,-2.4675,0,0,0,0.43800000000192085
0.4851,0.0861,0.7553,-0.3705,0.4681,0.402,-0.1488,1.2862,-2.8437,0,0,0,0.43800000000192085
0.4898,0.0828,0.7596,-0.3705,0.4681,0.402,-0.35,0.98,-2.6775,0,0,0,0.4529999999940628
0.4898,0.0828,0.7596,-0.3702,0.4687,0.4045,-0.3762,0.5163,-2.765,0,0,0,0.4529999999940628
0.4862,0.0893,0.7491,-0.3702,0.4687,0.4045,-0.3762,0.5163,-2.765,0,0,0,0.46899999999732245
0.4876,0.0841,0.7574,-0.3702,0.4687,0.4045,-0.9538,0.9712,-2.1875,0,0,0,0.46899999999732245
0.4898,0.0892,0.7569,-0.371,0.4702,0.4083,-0.5075,1.9425,-2.3537,0,0,0,0.48400000000401633
0.4914,0.0814,0.7574,-0.371,0.4702,0.4083,-0.8138,1.225,-2.17,0,0,0,0.48400000000401633
0.4914,0.0814,0.7574,-0.3701,0.4694,0.4006,-0.8138,1.225,-2.17,0,0,0,0.5
0.4898,0.0875,0.7602,-0.3701,0.4694,0.4006,-0.4812,0.9275,-2.1875,0,0,0,0.5
0.4938,0.0909,0.761,-0.3701,0.4694,0.4006,-0.0437,0.98,-2.1437,0,0,0,0.5160000000032596
0.4873,0.0941,0.7613,-0.3711,0.468,0.4021,-0.6388,0.7437,-2.4062,0,0,0,0.5160000000032596
0.4877,0.075,0.7464,-0.3711,0.468,0.4021,-0.6388,0.7437,-2.4062,0,0,0,0.5309999999954016
0.4877,0.075,0.7464,-0.3707,0.4688,0.4048,-1.1025,0.8225,-2.4237,0,0,0,0.5309999999954016
0.4917,0.0797,0.7604,-0.3707,0.4688,0.4048,-0.2975,1.4963,-2.2838,0,0,0,0.5469999999986612
0.4848,0.0917,0.7646,-0.3707,0.4688,0.4048,-0.4725,0.6737,-2.3012,0,0,0,0.5469999999986612
0.4953,0.0889,0.7532,-0.3698,0.4693,0.405,-0.4725,0.6737,-2.3012,0,0,0,0.5619999999980791
0.4782,0.0926,0.7523,-0.3698,0.4693,0.405,-0.3938,0.8575,-2.765,0,0,0,0.5780000000013388
0.4782,0.0926,0.7523,-0.3699,0.4693,0.404,-0.6037,0.35,-2.275,0,0,0,0.5780000000013388
0.4896,0.0832,0.7577,-0.3699,0.4693,0.404,-1.1463,0.9363,-2.1437,0,0,0,0.5940000000045984
0.4827,0.0846,0.76,-0.3699,0.4693,0.404,-1.1463,0.9363,-2.1437,0,0,0,0.5940000000045984
0.4875,0.0913,0.7729,-0.3706,0.4686,0.4066,-0.4988,0.875,-2.1525,0,0,0,0.6089999999967404
0.4834,0.0828,0.7494,-0.3706,0.4686,0.4066,-0.6825,0.7437,-2.17,0,0,0,0.6089999999967404
0.4834,0.0828,0.7494,-0.371,0.4707,0.403,-0.6825,0.7437,-2.1875,0,0,0,0.625
0.4918,0.087,0.7641,-0.371,0.4707,0.403,-0.4375,1.0588,-2.1875,0,0,0,0.625
0.4846,0.0873,0.76,-0.371,0.4707,0.403,-1.1113,0.8925,-2.485,0,0,0,0.6399999999994179
0.4911,0.0835,0.7512,-0.3701,0.4697,0.4015,-0.56,0.3938,-2.275,0,0,0,0.6399999999994179
0.4767,0.0886,0.7513,-0.3701,0.4697,0.4015,-0.56,0.3938,-2.275,0,0,0,0.6560000000026776
0.4767,0.0886,0.7513,-0.3703,0.4687,0.4049,-0.1575,0.49,-2.1175,0,0,0,0.6560000000026776
0.4824,0.0833,0.7565,-0.3703,0.4687,0.4049,-0.2975,1.0675,-2.2487,0,0,0,0.6719999999986612
0.493,0.0859,0.763,-0.3703,0.4687,0.4049,-0.56,0.875,-2.8,0,0,0,0.6719999999986612
0.4832,0.0861,0.7481,-0.3706,0.4695,0.4018,-0.56,0.875,-2.8,0,0,0,0.6869999999980791
0.4832,0.0847,0.7593,-0.3706,0.4695,0.4018,-1.0938,0.98,-2.6775,0,0,0,0.6869999999980791
0.4871,0.0847,0.7593,-0.3718,0.4688,0.4034,-0.4375,0.6825,-2.1962,0,0,0,0.7030000000013388
0.4823,0.096,0.7556,-0.3718,0.4688,0.4034,-1.0412,0.9187,-2.0738,0,0,0,0.7030000000013388
0.4997,0.071,0.7495,-0.3718,0.4688,0.4034,-1.0412,0.9187,-2.0738,0,0,0,0.7179999999934807
0.48,0.0963,0.7569,-0.3693,0.4698,0.4071,-0.6913,1.0237,-2.4062,0,0,0,0.7179999999934807
0.48,0.0963,0.753,-0.3693,0.4698,0.4071,-0.5863,1.1025,-2.4062,0,0,0,0.7339999999967404
0.4914,0.0797,0.753,-0.3694,0.4686,0.4043,-0.4725,0.7613,-2.4762,0,0,0,0.7339999999967404
0.4745,0.0894,0.7668,-0.3694,0.4686,0.4043,-0.4725,0.7613,-2.4762,0,0,0,0.75
0.4979,0.0857,0.741,-0.3694,0.4686,0.4043,0.0088,0.7788,-2.2313,0,0,0,0.75
0.476,0.0798,0.7562,-0.3701,0.4683,0.4115,-0.35,1.1287,-2.1525,0,0,0,0.7649999999994179
0.476,0.0798,0.7718,-0.3701,0.4683,0.4115,-0.3762,0.7613,-2.5812,0,0,0,0.7649999999994179
0.51,0.0918,0.7672,-0.3709,0.4694,0.4044,-0.3762,0.7613,-2.5812,0,0,0,0.7810000000026776
0.4627,0.0901,0.7587,-0.3709,0.4694,0.4044,-0.525,0.8662,-2.3625,0,0,0,0.7810000000026776
0.5037,0.0931,0.7437,-0.3709,0.4694,0.4044,-1.12,0.2362,-2.8875,32.47638439929838,13.583605120483712,0.0,13.809000000001106
0.4645,0.0802,0.7607,-0.3702,0.4694,0.4105,-0.6388,1.4525,-2.4237,39.707418301235755,16.588701781306195,0.01960874999923908,13.824000000000524
0.4645,0.0802,0.7607,-0.3702,0.4694,0.4105,-0.6388,1.4525,-2.4237,45.92325662481318,19.083158256991204,0.03856387499406483,13.839999999996508
0.5178,0.0828,0.7523,-0.3711,0.4692,0.4018,-0.5512,0.8487,-2.4413,48.583843679174656,21.864989875045815,0.046928767497148145,13.855999999999767
0.4712,0.0881,0.7639,-0.3711,0.4692,0.4018,-0.2013,1.8288,-2.4062,56.08011061821867,23.384142352003728,0.06692469074647528,13.870999999999185
0.495,0.0871,0.7391,-0.3711,0.4692,0.4018,-0.2013,0.5337,-2.135,61.93272475435669,24.17794510212826,0.06791750167339344,13.887000000002445
0.4718,0.0818,0.7737,-0.371,0.4702,0.4085,-0.8838,0.5337,-2.135,68.32061404340132,24.724613489318006,0.06833070150227964,13.901999999994587
0.4718,0.0818,0.7737,-0.371,0.4702,0.4085,-0.6475,0.9187,-2.1962,70.61678918197701,24.86964228175783,0.07472691135474684,13.917999999997846
0.5065,0.092,0.7483,-0.3702,0.4686,0.4065,-1.19,0.4812,-2.6425,75.77368225015913,27.554360760183492,0.07418350022068385,13.934000000001106
0.474,0.079,0.7825,-0.3702,0.4686,0.4065,-1.19,0.4812,-0.4025,79.29993382527638,29.826169583556133,0.07326135019836338,13.949000000000524
0.5066,0.0902,0.7429,-0.3702,0.4686,0.4065,-0.14,1.05,-1.9688,80.24880989218711,30.680667426087222,0.0810552151816074,13.965000000003783
0.467,0.0791,0.7691,-0.3697,0.4694,0.3978,0.1925,1.4438,-2.1175,81.80228069044843,30.722316632915526,0.09244099365323577,13.979999999995925
0.467,0.0791,0.7691,-0.3697,0.4694,0.3978,-0.6475,0.9275,-2.3975,82.14362665430247,30.784476884074245,0.09655289429063317,13.995999999999185
0.5106,0.0884,0.7569,-0.37,0.4686,0.4064,-0.6475,0.9275,-2.3975,82.31900148170526,31.244822274656805,0.10025360486429083,14.012000000002445
0.4593,0.0925,0.7738,-0.37,0.4686,0.4064,-0.2187,1.3475,-2.7387,82.49557149919096,30.994808598473046,0.10841949437715584,14.027000000001863
0.5116,0.085,0.7463,-0.37,0.4686,0.4064,-0.6388,0.1138,-2.4237,82.63690823490323,31.549515430013198,0.09921626493977412,14.043000000005122
0.4619,0.0857,0.769,-0.3712,0.4717,0.4054,-0.2275,1.3737,-2.5025,82.83642391758931,31.39175180310941,0.10783958843608157,14.057999999997264
0.4619,0.0857,0.769,-0.3712,0.4717,0.4054,-0.2275,1.3737,-2.5025,82.99629532752516,31.26883602769373,0.1168369095965034,14.074000000000524
0.5136,0.0867,0.7557,-0.3699,0.4678,0.4066,-0.6212,0.735,-2.3012,83.05466078491278,31.478393305916335,0.11573721863900932,14.090000000003783
0.4691,0.0822,0.7841,-0.3699,0.4678,0.4066,-0.3325,1.4525,-2.4938,83.17483299031719,31.321988890132,0.12377224676483597,14.104999999995925
0.512,0.0943,0.7446,-0.3699,0.4678,0.4066,-1.1287,0.595,-2.1175,83.01969174540444,31.596432934245232,0.1199630220900979,14.120999999999185
0.462,0.0821,0.7602,-0.3701,0.4685,0.4074,-1.1287,0.595,-2.1175,83.34225889365416,31.554494502755563,0.11599921988077641,14.135999999998603
0.462,0.0821,0.7602,-0.3701,0.4685,0.4074,-1.225,1.3825,-1.9162,83.55381406269845,31.458453642199387,0.12430729789675458,14.152000000001863
0.5105,0.0893,0.7479,-0.3713,0.4698,0.4072,-0.385,0.5775,-2.6163,83.52371683411911,32.21750849113905,0.12019256810499164,14.167999999997846
0.4737,0.0836,0.7717,-0.3713,0.4698,0.4072,-0.28,1.3825,-2.2138,83.57169389528687,32.213258731180225,0.12683706129376823,14.182999999997264
0.5049,0.0881,0.749,-0.3713,0.4698,0.4072,-0.28,1.3825,-2.2138,83.52587765356864,32.22145993876572,0.13406135516844722,14.199000000000524
0.4646,0.0901,0.7727,-0.37,0.469,0.409,-0.35,0.6737,-2.5988,83.5061704355591,31.843005502842857,0.12975016965124958,14.213999999999942
0.4646,0.0901,0.7727,-0.37,0.469,0.409,-0.6562,0.8313,-2.3187,83.48213056666995,31.752659748793786,0.12874587268856338,14.230000000003201
0.505,0.0838,0.7397,-0.37,0.4689,0.4042,-0.3413,1.0588,-2.2487,83.48857043611694,31.821881195019017,0.1311180054158798,14.245999999999185
0.4759,0.0819,0.7714,-0.3698,0.4689,0.4042,-0.3413,1.0588,-2.2487,83.54192559731763,31.813412836610247,0.13230000487373716,14.260999999998603
0.5125,0.0884,0.7429,-0.3698,0.4689,0.4042,-0.455,0.84,-2.3012,83.53534779959126,32.01084192903381,0.13116600438882775,14.277000000001863
0.5125,0.0884,0.7662,-0.3697,0.4692,0.4098,-0.875,1.1287,-2.0912,83.50202621735771,32.19126580108076,0.1332868539493537,14.29200000000128
0.4687,0.0815,0.7662,-0.3697,0.4692,0.4098,-0.6037,0.7613,-2.6775,83.55047617384062,31.914749802942662,0.13092088855665174,14.30800000000454
0.5018,0.092,0.7317,-0.3697,0.4692,0.404,-0.6037,0.7613,-2.6775,83.4689962044415,32.64354837346317,0.1287915196982347,14.324000000000524
0.4752,0.0814,0.7851,-0.3698,0.469,0.404,-0.7437,1.295,-2.065,83.59836111520396,32.43088610115063,0.13339486772773285,14.338999999999942
0.5056,0.0907,0.7421,-0.3698,0.469,0.404,-0.5863,0.4112,-2.0125,83.54183956895439,32.71135131963756,0.1259766609561659,14.355000000003201
0.5056,0.0907,0.7726,-0.3705,0.4691,0.3979,-0.5863,0.4112,-2.1,83.51814713221857,32.74437030181071,0.11893019486033388,14.37000000000262
0.4763,0.0836,0.7726,-0.3705,0.4691,0.3979,-0.7875,1.2775,-2.1,83.59095074531442,32.61254058025973,0.12543317536968274,14.385999999998603
0.4992,0.0836,0.7305,-0.3705,0.4691,0.3979,-0.7875,0.6125,-2.7387,83.56250746769801,33.146526292744404,0.12170985783050046,14.401999999994587
0.4676,0.0853,0.765,-0.3712,0.4697,0.4051,-0.2362,1.12,-2.3712,83.5770088860281,32.899652437907136,0.12465887205419784,14.41700000000128
0.512,0.0868,0.7523,-0.3712,0.4697,0.4051,-0.2362,1.12,-2.3712,83.54637438800796,33.05325419783144,0.1283209848447296,14.432999999997264
0.512,0.0868,0.7523,-0.37,0.4682,0.4038,-0.455,0.6037,-2.2925,83.54380544804937,33.122356630138434,0.12363883635994039,14.447999999996682
0.4662,0.0841,0.776,-0.37,0.4682,0.4038,-0.455,0.91,-2.3625,83.54923972742881,32.83703260430291,0.12437895272661598,14.463999999999942
0.501,0.0922,0.7425,-0.37,0.4682,0.4038,-1.2075,0.6037,-2.5375,83.28394205358445,33.071213592392425,0.12063433745177218,14.479999999995925
0.4675,0.0811,0.7652,-0.3696,0.469,0.3992,-1.2075,0.6037,-2.5375,83.56547543782068,32.638686579229194,0.11672085371023196,14.49500000000262
0.5125,0.0903,0.7562,-0.3696,0.469,0.3992,-0.84,1.0675,-2.555,83.46527434750446,32.96561168226854,0.12042076833535008,14.510999999998603
0.5125,0.0903,0.7562,-0.3706,0.4682,0.4014,-0.6562,0.7,-2.4938,83.423200351698,33.175352587094814,0.11782869150144837,14.525999999998021
0.4674,0.0813,0.7636,-0.3706,0.4682,0.4014,-0.2275,0.595,-1.855,83.52244226203682,32.682166654086814,0.11461382235304907,14.54200000000128
0.4999,0.0889,0.7315,-0.3706,0.4682,0.4014,-0.2275,0.595,-1.855,83.43269225392274,33.074647044217464,0.11172044011559341,14.557999999997264
0.4715,0.0886,0.7702,-0.3706,0.4688,0.4098,-0.7613,1.085,-2.345,83.43383237623836,32.8767905052431,0.11519589611057064,14.573000000003958
0.5069,0.0834,0.7411,-0.3706,0.4688,0.4098,-0.9625,0.5688,-2.065,83.48144559936576,33.05385100491362,0.11186702649745754,14.588999999999942
0.5069,0.0834,0.7411,-0.37,0.4688,0.4031,-0.9975,1.2075,-2.2662,83.5149765748209,33.10568675486368,0.11698157384707922,14.60399999999936
0.4718,0.0872,0.784,-0.37,0.4688,0.4031,-0.9975,1.2075,-2.2662,83.56245012246242,33.00550870736151,0.12267141646591369,14.62000000000262
0.5037,0.0849,0.7497,-0.37,0.4688,0.4031,-1.0762,0.525,-2.1875,83.55366772236422,33.02753899214988,0.1179642748174246,14.635999999998603
0.4734,0.0858,0.7712,-0.3698,0.469,0.3982,-0.07,1.4525,-2.4588,83.5819365337844,32.71016326599538,0.12577659734443272,14.651000000005297
0.4977,0.0912,0.7369,-0.3698,0.469,0.3982,-0.5688,0.6388,-2.7037,83.52755623016643,33.07682419036175,0.1223976576034973,14.666999999994005
0.4977,0.0912,0.7369,-0.3702,0.4688,0.4044,-0.5688,0.6388,-2.7037,83.47781772299201,33.32378213121645,0.11878169184699602,14.682000000000698
0.4739,0.0826,0.775,-0.3702,0.4688,0.4044,-0.5337,0.9625,-2.5812,83.50194571360849,32.78600122368658,0.12076352265881728,14.697999999996682
0.504,0.0883,0.7451,-0.3702,0.4688,0.4044,-0.035,0.2625,-2.8175,83.42231655360146,33.19935896755165,0.11246717039370564,14.713999999999942
0.4786,0.0836,0.7701,-0.3686,0.4682,0.4114,-0.35,0.805,-2.3712,83.46491223091802,33.0025783632579,0.11208795335391337,14.72899999999936
0.4989,0.0864,0.7444,-0.3686,0.4682,0.4114,-0.35,0.805,-2.3712,83.45538933282857,33.08851334946104,0.11247115801561221,14.744999999995343
0.4989,0.0864,0.7444,-0.3695,0.4701,0.403,-0.07,0.9275,-2.4413,83.43349406859102,33.191197747014414,0.11374529221963871,14.760000000002037
0.475,0.0834,0.7748,-0.3695,0.4701,0.403,-0.6212,1.1025,-2.415,83.48727031813347,32.89174363145757,0.11824676299368964,14.775999999998021
0.4935,0.089,0.732,-0.3695,0.4701,0.403,-0.6212,1.1025,-2.415,83.43390994997893,33.03936324855382,0.12229808669755506,14.79200000000128
0.4696,0.0842,0.7685,-0.3716,0.4707,0.4054,-0.385,1.085,-2.415,83.45991834184191,32.75030018795901,0.12471577802723116,14.807000000000698
0.4852,0.0875,0.7372,-0.3716,0.4707,0.4054,-0.595,0.7437,-2.1788,83.4354886635513,32.76642974611032,0.1229534802218198,14.822999999996682
0.4953,0.0875,0.7372,-0.3709,0.4694,0.4051,-0.5512,1.0675,-2.0912,83.42110083288856,32.873409013246,0.12506938220606897,14.838000000003376
0.4811,0.0821,0.7643,-0.3709,0.4694,0.4051,-0.5512,1.0675,-2.0912,83.45262158238297,32.77908675354312,0.1279344439816034,14.85399999999936
0.5025,0.0899,0.744,-0.3709,0.4694,0.4051,-0.2537,1.0762,-2.8087,83.39045863619795,33.17370419446096,0.13063827958660026,14.87000000000262
0.4733,0.0808,0.7537,-0.3698,0.4701,0.4014,0.0263,0.9363,-2.17,83.55436152042519,33.11796891944471,0.13021450162744974,14.885000000002037
0.4733,0.0808,0.7521,-0.3698,0.4701,0.4014,-0.455,0.595,-2.8788,83.56065650227113,32.68722093691756,0.125761051462554,14.900999999998021
0.4961,0.0899,0.7521,-0.3699,0.4685,0.405,-0.455,0.595,-2.8788,83.55309207497436,32.90023979375908,0.12121744631988318,14.916000000004715
0.4761,0.0863,0.7725,-0.3699,0.4685,0.405,-0.6388,1.1025,-2.3275,83.5632746192214,32.76194809568058,0.12497170168390967,14.932000000000698
0.5,0.0835,0.7415,-0.3699,0.4685,0.405,-0.5688,1.1287,-2.3275,83.56427663695376,32.86600802323099,0.1287278115114388,14.947999999996682
0.4749,0.0862,0.769,-0.3701,0.469,0.4099,-0.315,1.295,-2.345,83.56979835176502,32.71738446676147,0.1333375303596165,14.9629999999961
0.4749,0.0862,0.7534,-0.3701,0.469,0.4099,-0.315,1.295,-2.345,83.55639961799609,32.64349664800984,0.13865177732745396,14.97899999999936
0.4987,0.086,0.7532,-0.3697,0.4684,0.4031,-0.945,0.1488,-2.3187,83.53397205023226,32.70649260195351,0.126795399595605,14.994000000006054
0.4815,0.0828,0.7751,-0.3697,0.4684,0.4031,-0.3588,0.7437,-1.9425,83.57247839980691,32.489231378725286,0.12482513962848626,15.009999999994761
0.5029,0.0908,0.7444,-0.3697,0.4684,0.4031,-0.245,1.295,-2.1088,83.4737837314425,32.623904236968805,0.13099062566943676,15.025999999998021
0.4732,0.0827,0.7612,-0.3706,0.4682,0.3998,-0.245,1.295,-2.1088,83.53478555043571,32.53385314759659,0.13537406310181468,15.040999999997439
0.4732,0.0827,0.7612,-0.3706,0.4682,0.3998,-0.4462,1.2775,-2.24,83.5423138513415,32.517036367522394,0.140232656795381,15.057000000000698
0.4974,0.0913,0.7656,-0.3704,0.4682,0.4016,-0.4288,0.7525,-2.4413,83.5270231074436,32.57335537980686,0.1363681411154487,15.072000000000116
0.4859,0.0823,0.7639,-0.3704,0.4682,0.4016,-0.8838,0.8662,-2.4325,83.62091652652876,32.52702130337966,0.13520460700077278,15.0879999999961
0.497,0.0849,0.7516,-0.3704,0.4682,0.4016,-0.8838,0.8662,-2.4325,83.60187549819635,32.664430604712045,0.13415742630323663,15.10399999999936
0.4842,0.0904,0.7635,-0.3706,0.4699,0.3995,-0.1488,0.9712,-2.2225,83.5146146171234,32.662813607100205,0.1338528836724042,15.118999999998778
0.4842,0.0904,0.7635,-0.3706,0.4699,0.3995,-0.1838,0.6388,-2.3888,83.45429626478467,32.59594070135903,0.12966631530703782,15.135000000002037
0.4925,0.0846,0.7619,-0.3699,0.4682,0.4084,-0.8225,0.7613,-2.73,83.5083040146982,32.637624591809264,0.1269772337759352,15.150000000001455
0.4926,0.0861,0.7642,-0.3699,0.4682,0.4084,-0.8225,0.7613,-2.73,83.52465522878563,32.638870689142365,0.1252422303955898,15.165999999997439
0.4907,0.0847,0.7569,-0.3699,0.4682,0.4084,-0.4812,0.9275,-2.5287,83.52516911899578,32.67529617430333,0.1260740073587518,15.182000000000698
0.4881,0.0834,0.7588,-0.3691,0.4703,0.4061,-0.1838,1.2775,-2.4675,83.5709199100979,32.659299731048826,0.13071285662220739,15.197000000000116
0.4881,0.0834,0.7588,-0.3691,0.4703,0.4061,-0.1838,1.2775,-2.6337,83.60633962146679,32.6404303938825,0.13603757096373442,15.213000000003376
0.4834,0.0894,0.7658,-0.369,0.4681,0.4049,-0.4462,1.2775,-2.6337,83.59880364470185,32.47813360688163,0.1396800638583262,15.227999999995518
0.4917,0.0831,0.7579,-0.369,0.4681,0.4049,-1.0063,0.5075,-2.3537,83.64873367618065,32.5184848072797,0.1330200574739824,15.243999999998778
0.4842,0.086,0.7576,-0.369,0.4681,0.4049,-1.015,0.6562,-2.6688,83.6049207158342,32.48711881726615,0.12916733172850925,15.260000000002037
0.4903,0.0902,0.7692,-0.3706,0.4688,0.4059,-1.015,0.6562,-2.6688,83.50218756748941,32.44053938421025,0.12510929855531458,15.275000000001455
0.4903,0.0902,0.7692,-0.3706,0.4688,0.4059,-0.6562,1.2337,-2.38,83.47304235214608,32.42617847351485,0.1303636486953237,15.290999999997439
0.4842,0.0841,0.7574,-0.3711,0.469,0.4026,-0.3237,0.6212,-2.4675,83.49820060474032,32.427209942699825,0.1257134838254659,15.305999999996857
0.4969,0.0899,0.7524,-0.3711,0.469,0.4026,-0.5337,0.455,-1.995,83.4810427296786,32.57871092075595,0.11969413544425413,15.322000000000116
0.4849,0.0811,0.7593,-0.3711,0.469,0.4026,-0.5337,0.455,-1.995,83.50428180874422,32.54887206824548,0.11427672190116354,15.338000000003376
0.4919,0.0849,0.7565,-0.3706,0.4702,0.4023,-0.3063,1.1725,-2.2313,83.51764566365888,32.55277130804023,0.118677799702755,15.352999999995518
0.4919,0.0849,0.7565,-0.3706,0.4702,0.4023,-0.0437,1.225,-2.2487,83.54146756491534,32.56191053815855,0.12445001973607323,15.368999999998778
0.4861,0.0869,0.7645,-0.3713,0.4696,0.4069,-0.5163,1.2425,-2.2925,83.54043243678218,32.54284965915518,0.12877876776181502,15.383999999998196
0.495,0.0826,0.7549,-0.3713,0.4696,0.4069,-0.5163,1.2425,-2.2925,83.54887287276333,32.58081909272875,0.1337928909892786,15.400000000001455
0.4828,0.0911,0.7745,-0.3713,0.4696,0.4069,-0.2275,0.8575,-2.1962,83.4977224658378,32.56256791026527,0.13276160189286637,15.416000000004715
0.485,0.0816,0.7507,-0.3708,0.4682,0.4027,0.14,0.9625,-2.31,83.61151031514102,32.575019836348346,0.13247919169677272,15.430999999996857
0.485,0.0816,0.7507,-0.3708,0.4682,0.4027,-0.6475,0.8575,-2.4588,83.63864578233168,32.601484085324245,0.13157927252961107,15.447000000000116
0.4961,0.0865,0.7673,-0.3702,0.4694,0.4072,-0.6475,0.8575,-2.4588,83.62828155427606,32.624420033816875,0.12999759527620075,15.461999999999534
0.4858,0.091,0.7465,-0.3702,0.4694,0.4072,-0.9712,0.5512,-2.345,83.43656000622593,32.651005426549894,0.12493511575019771,15.478000000002794
0.4839,0.0815,0.7526,-0.3702,0.4694,0.4072,-0.7962,0.7525,-1.9338,83.52954148383833,32.637043988692625,0.12327760417738554,15.494000000006054
0.4839,0.0913,0.7519,-0.3703,0.4692,0.4038,0.0088,0.7875,-2.24,83.38179642121293,32.635737904460946,0.1215810937540776,15.508999999998196
0.4884,0.0913,0.7519,-0.3703,0.4692,0.4038,0.0088,0.7875,-2.24,83.28225626653456,32.6394196826438,0.1207629843809801,15.525000000001455
0.4845,0.077,0.7634,-0.3703,0.4686,0.4017,-0.3237,0.6737,-2.3712,83.40851180843366,32.59070275506345,0.11778163594252916,15.540000000000873
0.4815,0.0897,0.7503,-0.3704,0.4686,0.4017,-0.3762,0.77,-2.625,83.38810258419343,32.566105251650605,0.11709147235053516,15.556000000004133
0.4919,0.0889,0.7623,-0.3704,0.4686,0.4017,-0.07,0.6125,-2.0563,83.37658222963842,32.57888575992987,0.11420232511326764,15.572000000000116
0.4919,0.0889,0.7416,-0.3715,0.4697,0.4054,-0.07,0.6125,-2.0563,83.31532025117465,32.68931977128229,0.11105084260162001,15.586999999999534
0.4767,0.0813,0.7416,-0.3715,0.4697,0.4054,-0.56,1.1287,-2.5463,83.34871220903739,32.661721835585,0.11619903834476925,15.603000000002794
0.4921,0.0986,0.7563,-0.3715,0.4697,0.4054,-0.2887,1.1375,-2.66,83.2264968005326,32.713349344791034,0.11993538450224767,15.617999999994936
0.4777,0.0779,0.7585,-0.3711,0.4684,0.4014,-0.2887,1.1375,-2.3888,83.36965547150365,32.619547140595664,0.12432184605535995,15.633999999998196
0.4965,0.085,0.7581,-0.3711,0.4684,0.4014,-0.2187,1.0938,-2.3888,83.41724463602152,32.68319761641135,0.1276403814530328,15.650000000001455
0.4965,0.085,0.7581,-0.3702,0.4689,0.4098,-0.2275,0.9712,-2.5287,83.45407084963102,32.77183531620037,0.12798754330722076,15.665000000000873
0.4937,0.0888,0.7743,-0.3702,0.4689,0.4098,-0.5075,0.6913,-2.6513,83.4541822321636,32.64525647558882,0.12514350897852672,15.681000000004133
0.4856,0.0816,0.7319,-0.3702,0.4689,0.4098,-0.5075,0.6913,-2.6513,83.45989635561234,32.87323429821086,0.12196170807578502,15.695999999996275
0.4922,0.0983,0.7814,-0.3722,0.4692,0.4068,-0.2537,0.6825,-2.625,83.34553352414339,32.622260835119526,0.11959353727020876,15.711999999999534
0.4841,0.085,0.7532,-0.3722,0.4692,0.4068,-0.7437,0.8313,-2.2225,83.39116880363774,32.62206112583745,0.11960490354018298,15.727999999995518
0.4841,0.085,0.7532,-0.3706,0.4687,0.4012,-0.8487,1.2163,-2.1613,83.43741023384263,32.61895775785886,0.12406446319349228,15.743000000002212
0.4843,0.0816,0.7631,-0.3706,0.4687,0.4012,-0.8487,1.2163,-2.1613,83.56216478364585,32.59905150846516,0.12917273687771127,15.759000000005472
0.4915,0.0931,0.7482,-0.3706,0.4687,0.4012,-0.28,1.0762,-2.5638,83.45504180463452,32.72740064711856,0.130784163182329,15.773999999997613
0.4865,0.0781,0.7613,-0.3717,0.4695,0.4064,-0.7875,1.1463,-1.8375,83.61856789158948,32.64919822858005,0.13421246686745894,15.790000000000873
0.4931,0.0943,0.7671,-0.3717,0.4695,0.4064,-0.1138,0.9013,-2.555,83.4520813161904,32.62128121635454,0.1337699401774551,15.805999999996857
0.4931,0.0943,0.7671,-0.3711,0.469,0.4108,-0.1138,0.9013,-2.555,83.32981539140428,32.60038540552564,0.13256049616513949,15.82100000000355
0.4723,0.0864,0.7524,-0.3711,0.469,0.4108,-0.6913,0.735,-2.17,83.35102070818263,32.56995277908032,0.12988844655078177,15.83700000000681
0.5003,0.0801,0.7657,-0.3711,0.469,0.4108,-0.0787,0.945,-2.3363,83.54332737962432,32.616946863933904,0.12965710188902033,15.851999999998952
0.4766,0.0952,0.7625,-0.3692,0.4687,0.4024,-0.2275,1.26,-2.1788,83.41217969888629,32.58571405209293,0.13483539170381473,15.868000000002212
0.4904,0.078,0.749,-0.3692,0.4687,0.4024,-0.2275,1.26,-2.1788,83.5398528002394,32.604537471997475,0.13949585252887875,15.883999999998196
0.4904,0.078,0.749,-0.3718,0.4682,0.4064,-0.1663,0.7262,-2.1875,83.66144269898601,32.61883589571917,0.13534996727561044,15.898999999997613
0.4824,0.0924,0.7552,-0.3718,0.4682,0.4064,0.21,1.1725,-2.3537,83.40237406988528,32.59006110230959,0.1386989705514891,15.915000000000873
0.4899,0.0837,0.7554,-0.3718,0.4682,0.4064,-0.63,0.7875,-1.7587,83.4391695418076,32.65789090620995,0.13546032349592765,15.930000000000291
0.4862,0.0756,0.7668,-0.3705,0.4694,0.4047,-0.63,0.7875,-1.7587,83.56366253050327,32.529984148449664,0.13325429114864515,15.94600000000355
0.4868,0.0977,0.7438,-0.3705,0.4694,0.4047,-0.315,0.63,-2.485,83.41891074937948,32.6244689129445,0.12900086203150338,15.961999999999534
0.4868,0.0977,0.7438,-0.3702,0.4684,0.405,-0.2975,0.945,-2.485,83.28262864683992,32.69910083883358,0.12885827582785797,15.976999999998952
0.4949,0.0791,0.769,-0.3702,0.4684,0.405,-0.3413,0.8925,-2.1088,83.38253905097545,32.691922134827124,0.12882444824184608,15.992999999994936
0.4773,0.0928,0.7442,-0.3702,0.4684,0.405,-0.3413,0.8925,-2.1088,83.32451178141109,32.67028599732231,0.12799075342303834,16.00800000000163
0.4929,0.0867,0.7695,-0.3706,0.4705,0.4018,-0.3588,0.9625,-2.3363,83.3503249435848,32.650044941641845,0.12905167808355816,16.02400000000489
0.4873,0.0802,0.7621,-0.3706,0.4705,0.4018,-0.7088,1.1287,-2.0825,83.47182483200078,32.62632288516289,0.13239979027112245,16.040000000000873
0.4873,0.0802,0.7621,-0.3706,0.4687,0.4051,-0.7088,1.1375,-2.7213,83.57033900055339,32.56821116008545,0.1345160612434143,16.05500000000029
0.4892,0.093,0.7638,-0.3706,0.4687,0.4051,-0.2187,1.1375,-2.7213,83.46563266159822,32.52789701807247,0.13744445511496117,16.070999999996275
0.4921,0.0797,0.745,-0.3706,0.4687,0.4051,-0.6562,0.5863,-2.2575,83.53115800112437,32.5563975147859,0.1316150596069972,16.08600000000297
0.4765,0.0909,0.7468,-0.3703,0.4691,0.4042,-0.8838,0.9712,-2.3363,83.39459117437029,32.53466339300985,0.13243883364914666,16.102000000006228
0.4921,0.0865,0.761,-0.3703,0.4691,0.4042,-0.8838,0.9712,-0.0962,83.42957075388982,32.66148293888898,0.1331802302807214,16.118000000002212
0.4916,0.0865,0.761,-0.3706,0.4688,0.4048,-0.665,0.6212,-2.1962,83.44321974913473,32.662224027356835,0.12824840725232384,16.13300000000163
0.4882,0.078,0.7598,-0.3706,0.4688,0.4048,-0.1488,1.155,-2.5113,83.61445482181529,32.64494416128706,0.1320555665229165,16.148999999997613
0.4928,0.099,0.7749,-0.3706,0.4688,0.4048,-0.2887,0.7175,-2.4675,83.47359373068359,32.565293264223705,0.12853625987494743,16.164000000004307
0.4801,0.0796,0.7577,-0.3718,0.4685,0.402,-0.2887,0.7175,-2.4675,83.55688123974963,32.496066635460835,0.12601463388485917,16.18000000000029
0.4801,0.0796,0.7477,-0.3718,0.4685,0.402,-0.9887,0.6125,-2.1,83.68111852810274,32.50265276681479,0.12223317049415926,16.195999999996275
0.4945,0.087,0.7477,-0.3703,0.4693,0.4054,-0.1575,0.7788,-2.4762,83.60439061608503,32.66620769104869,0.12052365344943522,16.21100000000297
0.4758,0.0861,0.7501,-0.3703,0.4693,0.4054,-0.7,0.6037,-2.7562,83.57644499658359,32.5096454309395,0.1171645681023095,16.226999999998952
0.4929,0.0778,0.7753,-0.3703,0.4693,0.4054,-0.7,0.6037,-2.7562,83.70354870834957,32.442147134325324,0.1135980612917623,16.24199999999837
0.4856,0.0967,0.7612,-0.3692,0.4675,0.3959,-0.1225,0.9887,-2.4062,83.45742374337102,32.424121598582865,0.11647553515901223,16.257999999994354
0.4856,0.0967,0.7612,-0.3692,0.4675,0.3959,-0.7613,0.5425,-2.31,83.30242518632141,32.41608967586297,0.11263998164470251,16.273999999997613
0.4898,0.0808,0.7551,-0.37,0.4692,0.4046,-0.9625,0.77,-2.2575,83.49560749153933,32.43110287388793,0.11177098348487112,16.289000000004307
0.4839,0.0836,0.7453,-0.37,0.4692,0.4046,-0.9625,0.77,-2.2575,83.52976760038503,32.445932276817636,0.1116818851336007,16.30500000000029
0.484,0.0875,0.7641,-0.37,0.4692,0.4046,-0.4725,1.0762,-2.135,83.52958224342446,32.42553695706241,0.11504239661967684,16.31999999999971
0.4916,0.0801,0.7708,-0.3711,0.4692,0.4077,0.0263,0.7088,-2.0038,83.70922254797956,32.419160037322236,0.11374487695514705,16.335999999995693
0.4916,0.0801,0.7708,-0.3711,0.4692,0.4077,0.2975,0.5163,-2.66,83.86530606792242,32.41009080957445,0.109805109261147,16.351999999998952
0.4762,0.0999,0.7452,-0.3692,0.4693,0.4038,0.2975,0.5163,-2.66,83.21101901294604,32.391217041705445,0.10579464833814275,16.367000000005646
0.4915,0.0764,0.7599,-0.3692,0.4693,0.4038,-0.315,0.5425,-1.89,83.35591115464099,32.4833398610376,0.1030271835023675,16.38300000000163
0.4758,0.0897,0.7416,-0.3692,0.4693,0.4038,0.0,0.7613,-2.3975,83.2745095574888,32.4850803606376,0.10300201515173193,16.398000000001048
0.4908,0.0911,0.7682,-0.3698,0.4696,0.4147,-0.4812,1.3388,-2.3975,83.27429574287235,32.47114845662737,0.11198053363171939,16.41399999999703
0.4908,0.0911,0.7682,-0.3698,0.4696,0.4147,-0.4812,1.3388,-2.3975,83.27408314516516,32.45932683100669,0.12006120027247505,16.43000000000029
0.4849,0.0804,0.7477,-0.3699,0.4689,0.4059,-1.155,1.1463,-2.0825,83.51218543572999,32.501937456118846,0.12353013024462703,16.44499999999971
0.4834,0.0942,0.7674,-0.3699,0.4689,0.4059,-0.5075,1.0063,-2.5988,83.49634894278724,32.36782134278106,0.12566783722311647,16.46100000000297
0.4896,0.0817,0.7499,-0.3699,0.4689,0.4059,-0.5075,0.4375,-2.3888,83.50522117958958,32.4574755318981,0.11900730350057563,16.476000000002387
0.4875,0.0838,0.7531,-0.3707,0.4706,0.413,-0.9363,0.4375,-2.3888,83.55108893808418,32.500715599561076,0.11340657314893665,16.49199999999837
0.4875,0.0838,0.7531,-0.3707,0.4706,0.413,-0.2362,0.21,-2.4325,83.5703067318561,32.545517657559806,0.10508991583465906,16.50800000000163
0.4803,0.0944,0.7699,-0.3707,0.4697,0.4062,-0.6475,0.91,-1.9863,83.4880185301264,32.398410092945774,0.10686592424475742,16.522999999993772
0.4885,0.0849,0.7502,-0.3707,0.4697,0.4062,-0.6475,0.91,-4.2263,83.49613508989741,32.7359184824067,0.10928333182295133,16.53899999999703
0.4896,0.0898,0.762,-0.3707,0.4697,0.4062,-0.5512,0.7788,-2.3975,83.48083755802557,32.706561805256314,0.10886879864534807,16.554000000003725
0.494,0.0661,0.7391,-0.371,0.4691,0.4047,-1.0237,0.2713,-2.1613,83.97962791268674,32.75816396000843,0.10188863877983259,16.56999999999971
0.4744,0.1097,0.7629,-0.371,0.4691,0.4047,0.1925,1.7587,-2.8788,83.11369141832618,32.30277302758832,0.11702505490700876,16.58600000000297
0.5055,0.0735,0.7405,-0.369,0.4686,0.4097,-1.1638,0.5688,-2.1,83.61020603411406,32.50330743472347,0.11300134941228519,16.60099999999511
0.4718,0.081,0.7519,-0.3705,0.4687,0.4055,-0.4375,1.6363,-2.5287,83.6190306533792,32.37452234291972,0.12526393447585704,16.61699999999837
0.4749,0.0628,0.7779,-0.3705,0.4687,0.4055,-0.945,0.98,-2.3537,84.18311509482488,32.24944283285198,0.12596754103417535,16.632000000005064
0.5068,0.117,0.7476,-0.3706,0.4701,0.4073,0.3063,0.4988,-2.94,82.83269220927099,32.904157715969895,0.12055350692895482,16.648000000001048
0.5018,0.0859,0.7355,-0.3706,0.468,0.4041,-0.2713,0.5863,-2.695,82.91846036210394,33.29741497660169,0.11694087623777935,16.664000000004307
0.5041,0.0662,0.7414,-0.3711,0.47,0.4041,-0.875,1.1638,-2.2838,83.48343686468108,33.34670592722237,0.12095808860577076,16.67899999999645
0.4721,0.105,0.7681,-0.3711,0.471,0.4101,0.3762,1.365,-2.5463,82.90041696688931,32.85189783600065,0.12851827974919813,16.69499999999971
0.479,0.0765,0.764,-0.3708,0.471,0.4101,-1.1725,0.2713,-2.1263,83.46787141688166,32.77604707341938,0.11932900177413619,16.709999999999127
0.4961,0.1112,0.7568,-0.3699,0.4692,0.3966,-0.035,1.1113,-1.96,82.90926858059537,32.81508361231866,0.12339882159998275,16.726000000002387
0.4958,0.1034,0.7548,-0.3704,0.4691,0.4046,0.035,1.0412,-2.4413,82.6694337829632,32.85880326255991,0.126052219443039,16.742000000005646
0.4769,0.0843,0.7613,-0.3702,0.4685,0.4038,-0.4812,0.9538,-2.24,82.67519266072073,32.839224395662896,0.1263232974919896,16.756999999997788
0.4701,0.1062,0.762,-0.3702,0.4685,0.4038,0.2887,0.7788,-2.8263,82.41122219558386,32.30521298656009,0.12490568774507538,16.773000000001048
0.5112,0.0642,0.7467,-0.3706,0.4692,0.4148,-1.1638,0.1138,-2.1263,83.50167566462211,32.474233335957905,0.11395141897050823,16.788000000000466
0.4986,0.0837,0.738,-0.3702,0.4678,0.4058,-0.8925,0.3063,-2.0912,83.50985507013101,32.63280731304817,0.10696699707235023,16.80399999999645
0.4949,0.1097,0.7562,-0.371,0.4692,0.4047,0.0525,0.945,-2.3012,82.90031418345013,32.65539867471412,0.10987829736788753,16.81999999999971
0.4716,0.0644,0.7709,-0.371,0.4692,0.4047,-1.0588,1.015,-2.1175,83.75664781719527,32.53675121952914,0.11259296763056706,16.834999999999127
0.4746,0.0863,0.7685,-0.3712,0.4684,0.3998,0.21,0.9625,-2.3888,83.68997792795284,32.39174658757016,0.11519367087033403,16.851000000002387
0.5012,0.075,0.7453,-0.3704,0.4686,0.4084,0.3413,1.0762,-2.7562,83.94338375109189,32.87918718483734,0.11820300377568949,16.86599999999453
0.5062,0.073,0.7431,-0.3698,0.469,0.4059,-0.6825,0.5425,-2.1437,84.01988785342098,32.96710294046091,0.11419470339971206,16.881999999997788
0.4748,0.0959,0.7691,-0.3702,0.4693,0.4056,-0.42,0.5425,-2.345,83.96062717087719,32.801990341999286,0.11058723306133236,16.898000000001048
0.4742,0.0667,0.7652,-0.3702,0.4693,0.4056,-0.4812,1.0412,-1.6275,83.96664685908107,32.38863021362409,0.11358470975465368,16.913000000000466
0.4989,0.1054,0.7473,-0.3711,0.4694,0.4001,0.2362,0.0962,-2.5988,83.13727438201168,32.68549851057813,0.10361151877947053,16.929000000003725
0.4924,0.0936,0.7369,-0.3704,0.4691,0.4038,-0.2887,0.4725,-2.8263,83.07807713333449,33.00819526862263,0.09962911689818185,16.943999999995867
0.4763,0.0885,0.7418,-0.3691,0.4696,0.4046,-1.0938,0.77,-2.0213,83.12333113065026,32.92764319239583,0.1007542052106226,16.959999999999127
0.471,0.1033,0.762,-0.3691,0.4696,0.4046,-0.42,0.7088,-2.3537,83.07899504478485,32.756706988663545,0.10088550469163973,16.976000000002387
0.4765,0.0877,0.762,-0.3699,0.47,0.4003,-0.9625,0.77,-2.2225,83.19546425591857,32.7535344394253,0.10119195422207239,16.991000000001804
0.4965,0.0975,0.7479,-0.37,0.4674,0.4048,-1.6538,0.6913,-2.1962,82.8584952866734,32.766968770418366,0.1010274788018932,17.007000000005064
0.5018,0.1034,0.7466,-0.3723,0.4688,0.404,-0.2362,0.6913,-2.3712,82.71494464997704,32.884154568465796,0.10025728091681484,17.021999999997206
0.4795,0.075,0.7639,-0.3708,0.4693,0.4038,-0.6475,1.1638,-2.1875,82.96118997177686,32.85694485465212,0.10699027282854756,17.038000000000466
0.4732,0.0942,0.7734,-0.3708,0.4693,0.4038,-0.35,0.9975,-2.555,82.97171420976714,32.45848387783813,0.11065524554208714,17.05399999999645
0.4926,0.0759,0.7498,-0.3711,0.4687,0.4051,-1.2163,0.595,-1.9775,83.50285302383911,32.596891223822176,0.107622220991463,17.069000000003143
0.4956,0.0801,0.746,-0.3706,0.4684,0.4053,-1.5225,0.91,-2.2575,83.69140042832367,32.62840057001919,0.10996399888902732,17.084999999999127
0.4811,0.0819,0.7745,-0.3694,0.469,0.4066,-0.28,0.7088,-2.6425,83.73591746442656,32.35364940959229,0.10853639899975327,17.099999999998545
0.4808,0.0711,0.765,-0.3694,0.469,0.4066,-0.7875,0.735,-2.52,83.96284402947934,32.2806927758274,0.10826675910193419,17.116000000001804
0.4805,0.0829,0.7632,-0.3712,0.4685,0.4028,-0.6212,0.98,-2.4413,83.94222685136737,32.23739452819662,0.11155208318819837,17.131999999997788
0.4917,0.085,0.7451,-0.3706,0.4698,0.4034,-0.4025,1.1988,-2.485,83.9115995592783,32.45041366476807,0.11658067486875054,17.146999999997206
0.495,0.0744,0.7535,-0.3703,0.4694,0.4029,-0.9538,0.8662,-2.1962,84.05698676606498,32.46655590435513,0.11739588738441661,17.163000000000466
0.4812,0.0957,0.768,-0.3689,0.4699,0.4048,-0.175,0.98,-2.7037,83.78897589241303,32.27227174611907,0.11888629864546156,17.177999999999884
0.4806,0.0791,0.7579,-0.3689,0.4699,0.4048,-0.3237,0.9187,-1.8375,83.82228712213805,32.26320096521606,0.12022694878361057,17.194000000003143
0.4943,0.1002,0.753,-0.3705,0.4691,0.4074,0.0437,0.77,-2.1788,83.34316342715391,32.293688009793264,0.11929225390246619,17.209999999999127
0.4953,0.0959,0.7544,-0.3706,0.4694,0.4036,-0.1838,1.1988,-2.7738,83.21043179328868,32.57301334658386,0.12354682851159156,17.224999999998545
0.4901,0.0781,0.741,-0.3707,0.4699,0.403,-1.3563,0.7875,-2.1875,83.57240184841883,32.59628569766104,0.12253214566274268,17.241000000001804
0.4782,0.0987,0.7708,-0.3707,0.4699,0.403,-0.3675,0.56,-2.31,83.4876809520217,32.51375241648064,0.11783893109617503,17.256000000001222
0.4846,0.0931,0.7538,-0.3709,0.469,0.4056,-0.875,0.5863,-2.0563,83.3368130505845,32.51728872681664,0.11449775798827753,17.272000000004482
0.4864,0.0841,0.7509,-0.3706,0.4696,0.4047,-0.7525,0.6913,-2.2838,83.3959809504097,32.53270950908673,0.11300270218695095,17.288000000000466
0.4837,0.1007,0.7554,-0.3711,0.4697,0.4066,-0.0088,0.4462,-2.8525,83.08125225327821,32.48265066576023,0.10772613196802211,17.302999999999884
0.4818,0.0764,0.7541,-0.3706,0.4687,0.4078,-0.4638,0.665,-2.345,83.09433644488293,32.47812585870485,0.10652951876881614,17.318999999995867
0.4824,0.0911,0.7653,-0.3706,0.4687,0.4078,-0.6475,1.3038,-2.4675,83.1115408811217,32.391586411170856,0.11347786689978927,17.33400000000256
0.4934,0.0769,0.7549,-0.371,0.4703,0.4015,-0.6562,0.7613,-2.2575,83.27561240347907,32.41537832752926,0.11309280021204374,17.35000000000582
0.4879,0.0767,0.7656,-0.3701,0.4693,0.4044,-1.0762,0.7175,-2.1875,83.65217896682478,32.41426585774436,0.11211552018354738,17.36599999999453
0.4824,0.0878,0.7574,-0.3711,0.4698,0.4054,-0.595,1.2075,-2.1875,83.62393393809894,32.41140867212407,0.11720521817246722,17.381000000001222
0.4906,0.0761,0.7598,-0.3711,0.4698,0.4054,-0.6913,0.84,-2.52,83.740473327062,32.48280708730587,0.11758069635218416,17.396999999997206
0.4885,0.0783,0.7595,-0.369,0.4697,0.4147,-0.3588,0.8313,-2.415,83.7794945283688,32.50380333543015,0.11704517672197391,17.4120000000039
0.49,0.0903,0.7523,-0.3708,0.4691,0.4044,-0.2713,0.8138,-2.38,83.67367936105718,32.5574311015514,0.11705937904683489,17.427999999999884
0.4913,0.0778,0.7559,-0.3703,0.4691,0.4034,-1.225,0.7788,-2.3363,83.86643257922948,32.591741023707186,0.11656816113933627,17.443999999995867
0.4889,0.0959,0.7457,-0.37,0.47,0.401,-0.9975,0.3063,-2.24,83.45668282602148,32.600857128185666,0.10904639502724794,17.45900000000256
0.4852,0.0872,0.7601,-0.37,0.47,0.401,-0.7437,0.7,-2.2662,83.45644085248269,32.590988414790274,0.10822175552199287,17.474999999998545
0.4911,0.0895,0.7674,-0.3711,0.4688,0.4041,-0.4812,0.2713,-2.205,83.45582244473258,32.58893092913197,0.10106212996965146,17.489999999997963
0.4845,0.0962,0.7476,-0.3708,0.4683,0.4042,-0.315,1.2337,-2.24,83.34681813078717,32.591872075046545,0.10872119697630558,17.506000000001222
0.4796,0.0784,0.7508,-0.3703,0.4686,0.4042,-0.7962,0.9013,-1.8463,83.514826552473,32.54766686648099,0.11082779727541711,17.521999999997206
0.4832,0.0903,0.7607,-0.3703,0.4686,0.4042,-0.4462,0.665,-2.6513,83.50673368919786,32.45563033434461,0.1087225175518817,17.5370000000039
0.4833,0.0955,0.759,-0.3713,0.4686,0.4032,-0.5688,1.085,-2.5375,83.44884388064152,32.41411603260357,0.11347426579277158,17.552999999999884
0.4814,0.0809,0.7422,-0.3696,0.4689,0.4073,-0.4812,1.05,-2.2575,83.45072466404504,32.42893135116151,0.11630183921294436,17.5679999999993
0.4901,0.0939,0.7454,-0.3707,0.469,0.4055,-0.315,0.7088,-2.485,83.36352171006432,32.57375082699794,0.11487837528908783,17.583999999995285
0.4859,0.078,0.7508,-0.3707,0.4696,0.407,-0.8838,0.4988,-2.275,83.56802628779613,32.58415260169473,0.11147109776182527,17.601999999998952
0.4849,0.0802,0.7615,-0.3707,0.4696,0.407,-0.5425,0.6825,-2.1088,83.5943977517847,32.56038972323563,0.10953773798528521,17.61699999999837
0.4866,0.083,0.7465,-0.371,0.4687,0.4034,-0.5163,1.1113,-2.2313,83.59679812670682,32.5649715609993,0.11458668418273969,17.632999999994354
0.4805,0.0779,0.7541,-0.3713,0.4694,0.4038,-0.5425,0.6388,-2.0912,83.62854153723981,32.54253433954102,0.11175181576831417,17.648000000001048
0.49,0.0957,0.752,-0.3704,0.4695,0.4054,-0.3413,0.9538,-2.2662,83.52431047053874,32.557654274984415,0.11431135419428089,17.664000000004307
0.4859,0.0838,0.7579,-0.3704,0.4695,0.4054,-0.7788,1.0063,-2.5725,83.56299032957443,32.54429876068575,0.11737093877121532,17.68000000000029
0.4931,0.0786,0.7634,-0.37,0.4693,0.4078,-0.6037,1.1025,-2.2138,83.62646735044487,32.54521594752808,0.12051759489351621,17.69499999999971
0.486,0.0927,0.7591,-0.371,0.4699,0.4041,-0.595,0.8138,-2.5463,83.56359904883878,32.518381548308916,0.12018455540122294,17.710999999995693
0.4857,0.0847,0.7702,-0.371,0.4694,0.4038,-0.875,0.5688,-2.3363,83.60947986016785,32.47245777642662,0.11584489986452737,17.726000000002387
0.487,0.0947,0.7543,-0.3714,0.4699,0.4044,-0.77,0.4725,-2.6688,83.43535214539295,32.525598998250125,0.11106440987946078,17.742000000005646
0.4848,0.0908,0.7636,-0.3714,0.4699,0.4044,-0.5512,1.0588,-2.4062,83.42010661488447,32.47886199949765,0.11520468888768748,17.75800000000163
0.4816,0.0884,0.7568,-0.3701,0.4694,0.4081,-0.5775,1.0675,-2.3888,83.41246899739815,32.4522596582234,0.11809546999835949,17.773000000001048
0.4821,0.0939,0.7474,-0.3698,0.4694,0.4054,-0.42,1.3913,-2.52,83.38233436448908,32.49093999961029,0.1263206429934944,17.78899999999703
0.4884,0.0806,0.7614,-0.3698,0.4682,0.4046,-1.0675,0.56,-2.38,83.59614933064839,32.49680466143329,0.12124857869751869,17.804000000003725
0.4834,0.0878,0.7632,-0.3698,0.4682,0.4046,0.0437,0.63,-2.6775,83.54190814811666,32.39707378916296,0.11819572082548957,17.81999999999971
0.4855,0.0954,0.7483,-0.3699,0.4689,0.3962,-0.0263,0.805,-2.4413,83.29168488679232,32.464012690399414,0.1179681487400308,17.835999999995693
0.4823,0.0806,0.7656,-0.3704,0.4696,0.4031,-0.77,1.0325,-2.3187,83.45061114603683,32.428033190118754,0.12011008387224799,17.851000000002387
0.4843,0.0905,0.7596,-0.3707,0.467,0.404,-0.3938,1.1113,-2.4237,83.43211919354488,32.4126822456923,0.12410179548100618,17.86699999999837
0.4927,0.0813,0.7515,-0.3701,0.4693,0.4058,-0.2275,1.225,-2.2487,83.51029443416047,32.43242863091995,0.12822911593226383,17.881999999997788
0.4884,0.0783,0.7544,-0.3701,0.4693,0.4058,-0.6388,0.8662,-2.0387,83.58949520719923,32.48540060033338,0.1278794843359064,17.897999999993772
0.4885,0.0864,0.7621,-0.3697,0.4702,0.4047,-0.4112,1.1988,-2.555,83.58601921419202,32.48744967175836,0.13235425590583266,17.91399999999703
0.4862,0.0833,0.7607,-0.3699,0.4694,0.4042,-0.105,0.91,-2.2925,83.63055277576258,32.48350504990464,0.1314038303207317,17.929000000003725
0.4862,0.0891,0.7529,-0.3706,0.4698,0.4039,0.28,1.3212,-1.995,83.46715463578435,32.51796959818577,0.1372887272838828,17.94499999999971
0.4896,0.0854,0.7727,-0.3706,0.4698,0.4039,-0.6475,1.1113,-2.2138,83.5003292423806,32.51633929448099,0.13856240455491234,17.959999999999127
0.4711,0.0769,0.7591,-0.3709,0.4684,0.4046,-0.455,0.7525,-2.2225,83.51467789399284,32.51345938617787,0.13554216409670106,17.97599999999511
0.4862,0.093,0.7496,-0.3701,0.4681,0.4062,-0.2975,1.0063,-2.6163,83.42598923318407,32.58597110565082,0.1364786676899831,17.99199999999837
0.4887,0.0843,0.7543,-0.3706,0.4689,0.4044,-0.665,0.6562,-2.415,83.45739892524796,32.617204228994446,0.13168950092493806,18.007000000005064
0.482,0.0909,0.7542,-0.37,0.4686,0.4033,-0.3413,0.7437,-1.89,83.41837950816213,32.56218833716684,0.129229830829756,18.023000000001048
0.4928,0.0929,0.7628,-0.37,0.4686,0.4033,-0.3325,0.9712,-2.7213,83.37308025056812,32.598954964031066,0.1294180477462716,18.038000000000466
0.4872,0.0858,0.7549,-0.3707,0.4692,0.4046,-0.7262,0.7875,-2.4762,83.40167710781286,32.613535410430885,0.12781624296879787,18.05399999999645
0.4857,0.0946,0.7504,-0.371,0.4686,0.4048,-0.245,1.1812,-2.3712,83.29176034568107,32.62594059052476,0.13204389867538335,18.06999999999971
0.4871,0.0803,0.7669,-0.3714,0.4681,0.4061,-1.05,0.5688,-2.135,83.55839704849993,32.59918645909944,0.12651830880754705,18.084999999999127
0.4864,0.0844,0.7648,-0.3714,0.4681,0.4061,-0.98,0.6475,-2.66,83.60674329031946,32.50727074019213,0.1231904779286919,18.101000000002387
0.4823,0.0936,0.7493,-0.3709,0.469,0.4086,-0.9013,1.1113,-2.5988,83.38960776347619,32.523578014934074,0.12587398013524054,18.116000000001804
0.4896,0.0816,0.7593,-0.3716,0.469,0.4037,-1.0938,0.3675,-1.8725,83.5716693174557,32.55982960625918,0.11857858212038809,18.131999999997788
0.4885,0.086,0.7451,-0.3705,0.4686,0.4044,-0.4462,0.5512,-2.5463,83.56724191789463,32.687092892033476,0.11465800390996633,18.148000000001048
0.491,0.0838,0.7577,-0.3708,0.4686,0.4023,-0.665,0.7962,-2.5463,83.58661876004928,32.71124590251366,0.11394090351333878,18.16299999999319
0.4846,0.077,0.7643,-0.3708,0.4686,0.4023,-0.805,0.595,-2.5025,83.75032051037118,32.60843790363538,0.11111481316375044,18.17899999999645
0.4862,0.0872,0.7508,-0.3699,0.4691,0.4025,0.0875,0.5512,-2.7912,83.61520044662468,32.660407878493444,0.10744453185069609,18.194000000003143
0.4865,0.0844,0.7507,-0.3715,0.4696,0.405,-0.105,0.77,-2.5725,83.60710793920157,32.692090860859,0.10778807866284318,18.209999999999127
0.4876,0.0943,0.7623,-0.3703,0.4694,0.4034,-0.7875,0.9187,-2.2487,83.45037764188012,32.68388144262081,0.11023855079925403,18.226000000002387
0.4862,0.0909,0.7581,-0.3703,0.4694,0.4034,0.0263,1.2775,-2.5375,83.35422187894244,32.63659341899011,0.11646094571029385,18.24099999999453
0.4857,0.0817,0.7566,-0.3696,0.4705,0.3994,-0.35,0.9887,-2.7562,83.40803487474992,32.605517432866485,0.119052131142165,18.256999999997788
0.4861,0.0851,0.7498,-0.3704,0.4688,0.4043,-0.105,1.0325,-2.3712,83.43960320615693,32.62968213922115,0.12108566803416877,18.272000000004482
0.4855,0.0896,0.7555,-0.3696,0.4693,0.4052,0.035,0.9625,-2.0912,83.37095867076339,32.6199651111581,0.12283710122727275,18.288000000000466
0.4893,0.0878,0.7548,-0.3707,0.4698,0.3981,-0.5337,0.6825,-2.0738,83.37063340366711,32.639984701781145,0.12038139110654769,18.304000000003725
0.4834,0.0935,0.752,-0.3707,0.4698,0.3981,-0.28,1.365,-2.555,83.2957219686776,32.61335442532114,0.12677075198623936,18.318999999995867
0.483,0.0802,0.7539,-0.3708,0.4706,0.4002,-0.875,1.2163,-2.52,83.476134582394,32.587162015449685,0.13160839679118363,18.334999999999127
0.4939,0.0888,0.749,-0.3702,0.4689,0.4044,-0.4638,0.595,-2.6688,83.4733941039607,32.78283303752526,0.12648005711175356,18.349999999998545
0.4846,0.0805,0.758,-0.3719,0.4694,0.4058,-0.4462,1.12,-2.4237,83.48660562658712,32.725547301559736,0.1299600514038639,18.366000000001804
0.4874,0.0816,0.7569,-0.3719,0.4694,0.4058,-0.3237,0.8487,-2.0038,83.53407209820803,32.708396357028164,0.12918532626596732,18.382000000005064
0.4868,0.0877,0.761,-0.3704,0.4697,0.4074,0.245,0.6825,-2.4588,83.48883914700468,32.655531623144036,0.12548054363454378,18.396999999997206
0.4889,0.0871,0.7574,-0.3708,0.4699,0.403,-0.6825,1.1638,-2.0912,83.48044156860983,32.657271943548565,0.1296912092745036,18.413000000000466
0.4855,0.0838,0.7616,-0.3705,0.4704,0.4042,-0.7962,0.7788,-2.2225,83.53883864691701,32.65623346567515,0.12723588834664526,18.427999999999884
0.492,0.0925,0.7582,-0.3701,0.4699,0.4055,-0.4988,0.8225,-2.4413,83.5275673478284,32.679976332988,0.12635629950900765,18.443999999995867
0.4906,0.0897,0.7466,-0.3701,0.4699,0.4055,-0.3588,1.0063,-2.2838,83.48801857570133,32.706834434333416,0.128211389561059,18.459999999999127
0.4859,0.0866,0.7623,-0.3707,0.4694,0.4082,-1.0762,0.9712,-2.275,83.499563331656,32.68778560234031,0.12850145060444432,18.474999999998545
0.4829,0.0874,0.7601,-0.3702,0.469,0.4052,-0.2975,0.5163,-2.1175,83.4906637182353,32.64820153974949,0.12308602554551454,18.491000000001804
0.486,0.0875,0.7503,-0.3706,0.4693,0.4034,-1.4438,0.63,-2.6337,83.42058399563066,32.679931764509874,0.11928242298650758,18.505999999993946
0.4902,0.091,0.7527,-0.3706,0.4693,0.4034,-0.9625,1.1287,-2.2313,83.31771816653013,32.682420460086476,0.12360746069116807,18.521999999997206
0.4865,0.0846,0.7517,-0.372,0.4693,0.4081,-0.2537,1.2775,-4.4713,83.36508651311772,32.72691299738838,0.12964271462579904,18.538000000000466
0.4847,0.0849,0.7559,-0.3705,0.4696,0.4052,-1.1113,1.2163,-2.3975,83.45312904785695,32.69344033259526,0.13309849316258196,18.552999999999884
0.4815,0.0885,0.7441,-0.3698,0.4696,0.4065,-0.7525,0.945,-2.485,83.40198219547807,32.699702934275784,0.13339664384909608,18.569000000003143
0.485,0.0842,0.7581,-0.3705,0.4691,0.4043,-0.6913,0.6475,-2.5375,83.44819130327711,32.63941549698167,0.1287982294596072,18.583999999995285
0.4898,0.087,0.7477,-0.3705,0.4691,0.4043,-0.385,1.0237,-2.5812,83.44113048208425,32.748981124626305,0.1306596865166497,18.599999999998545
0.4868,0.0856,0.7629,-0.3708,0.4705,0.4041,-0.42,1.015,-2.065,83.44937522508546,32.69964893734791,0.1322097178679624,18.616000000001804
0.4842,0.0847,0.7574,-0.3698,0.4688,0.4044,-0.1225,0.6737,-2.1175,83.49366168745698,32.67472080690875,0.12808369608081324,18.631000000001222
0.4866,0.0861,0.7567,-0.3702,0.4694,0.4055,-0.9712,0.9013,-2.3363,83.49861322325185,32.66433870376856,0.12825404647537605,18.647000000004482
0.487,0.0851,0.7454,-0.3702,0.4694,0.4055,-0.525,0.98,-2.1962,83.49806139149395,32.671563117072246,0.12865864182090767,18.661999999996624
0.4801,0.0886,0.7477,-0.3706,0.4707,0.4058,-0.6388,0.4025,-2.065,83.46213295328009,32.651774462308744,0.1215887776399977,18.677999999999884
0.4848,0.0844,0.7604,-0.3707,0.4689,0.4046,-0.6212,1.1113,-2.3275,83.48811666841219,32.62332281317221,0.1254326198792581,18.694000000003143
0.4845,0.0844,0.762,-0.3721,0.468,0.4044,-0.56,0.9275,-2.2138,83.50304141672993,32.6216086961388,0.1254106078908464,18.70900000000256
0.4848,0.0913,0.7438,-0.3698,0.471,0.4041,-0.3938,0.9275,-2.3012,83.46521300002087,32.642767806206045,0.12622554709840914,18.724999999998545
0.49,0.0841,0.7591,-0.3698,0.471,0.4041,-0.4112,0.7875,-2.3625,83.47806614722043,32.647848311556125,0.12423424238815568,18.739999999997963
0.4859,0.0898,0.7602,-0.3706,0.4702,0.3988,-0.63,0.98,-2.24,83.44928822905051,32.64286687841583,0.1259228181522151,18.756000000001222
0.4806,0.0903,0.7498,-0.3706,0.4687,0.4053,-0.2187,1.4088,-2.065,83.38462976127018,32.62000715793369,0.13361725634112653,18.772000000004482
0.4876,0.0823,0.7489,-0.3704,0.4694,0.4046,-0.5337,1.015,-2.2838,83.40355920660421,32.63769543528213,0.13395803069983556,18.786999999996624
0.4835,0.0866,0.7576,-0.3704,0.4694,0.4046,-0.595,0.77,-2.5463,83.41160480687778,32.573551640177996,0.13165022763211093,18.802999999999884
0.4895,0.0851,0.7579,-0.3706,0.4674,0.4035,-0.6388,0.5337,-2.2662,83.43713314600095,32.57896249673311,0.12569015486862026,18.8179999999993
0.4878,0.0878,0.7642,-0.3707,0.4692,0.4045,-0.595,0.665,-2.8437,83.43807396684366,32.50266753382982,0.12269713938370913,18.83400000000256
0.4828,0.089,0.7535,-0.3698,0.4703,0.4054,-0.6825,0.9187,-2.59,83.4081649226241,32.49366666202552,0.1236567054420174,18.849999999998545
0.4884,0.0877,0.7583,-0.3698,0.4688,0.4042,-0.6212,1.155,-2.3625,83.4074896745712,32.50844458159377,0.1268835348972106,18.864999999997963
0.489,0.0864,0.7582,-0.3698,0.4688,0.4042,-0.5775,0.7262,-2.24,83.41595732530703,32.51139462201776,0.12465246140961997,18.881000000001222
0.4857,0.0861,0.7649,-0.3703,0.4686,0.4065,-0.3413,1.3563,-2.5812,83.43508093663523,32.442401865052,0.13049726526794747,18.89600000000064
0.4854,0.0814,0.7645,-0.3694,0.4691,0.4046,-0.28,1.1375,-2.2575,83.51475424807302,32.43587962099668,0.13382753874448977,18.9120000000039
0.4911,0.0888,0.7598,-0.3705,0.4682,0.4039,-0.1312,0.8925,-2.59,83.46844161376337,32.50731022237565,0.1332967848668147,18.927999999999884
0.4902,0.0791,0.7465,-0.3705,0.4682,0.4039,-0.4638,1.0237,-2.1788,83.47401605167437,32.53194443214962,0.13378705637959695,18.9429999999993
0.481,0.0932,0.7407,-0.3696,0.4688,0.4104,-0.6913,0.6562,-2.1875,83.35940015092821,32.53994151021031,0.12985763074356232,18.95900000000256
0.4886,0.0806,0.7644,-0.3714,0.4684,0.4054,-0.6562,0.8487,-1.7237,83.45452045954342,32.507799539218,0.1283293176687615,18.97400000000198
0.4927,0.079,0.7594,-0.371,0.4686,0.4033,-0.4988,1.015,-2.625,83.46834157077994,32.602264313729464,0.13011238590486301,18.99000000000524
0.4854,0.0888,0.7598,-0.3708,0.4686,0.4056,-0.385,0.6212,-2.4762,83.4571886937319,32.56016562474736,0.12604642730806342,19.005999999993946
0.4834,0.0813,0.7487,-0.3708,0.4686,0.4056,-0.6125,0.8487,-2.31,83.49881889176152,32.57146017974703,0.12489923458237008,19.02100000000064
0.4903,0.0919,0.7571,-0.371,0.4688,0.4075,-0.5688,0.3237,-2.5025,83.46298864910784,32.607873015555576,0.1170705911250827,19.0370000000039
0.4835,0.0916,0.7435,-0.3703,0.4681,0.4051,-0.4375,0.805,-2.5812,83.4451893626953,32.66936131730076,0.11623103201215272,19.052000000003318
0.4846,0.0859,0.7701,-0.3707,0.4672,0.4058,-0.4638,0.91,-2.2925,83.44738361121418,32.62499575122311,0.11771192880764808,19.0679999999993
0.4925,0.0891,0.7569,-0.3707,0.4672,0.4058,-0.4638,0.7875,-2.2225,83.44552347174351,32.62585721267249,0.1172807359240367,19.083999999995285
0.4871,0.0792,0.7654,-0.3709,0.4694,0.4096,-0.3063,1.0762,-2.6163,83.53911378839408,32.543042246844585,0.12008136233811659,19.09900000000198
0.4891,0.0894,0.7513,-0.3717,0.4696,0.4038,-0.4375,0.7962,-2.4938,83.52722151280811,32.61577040155266,0.11953850610142691,19.114999999997963
0.487,0.0942,0.7502,-0.3703,0.4688,0.4037,-0.0525,0.8487,-2.3275,83.32384622399131,32.63240242787759,0.11904210549083961,19.12999999999738
0.4832,0.0838,0.7493,-0.3714,0.4692,0.405,-0.49,0.91,-2.1788,83.32806719893895,32.633264601852396,0.1202418949444253,19.14600000000064
0.4928,0.0916,0.753,-0.3714,0.4692,0.405,-0.3413,1.1375,-2.4413,83.2968548663817,32.70181305496818,0.12459770544587107,19.161999999996624
0.4846,0.0808,0.7527,-0.3709,0.4695,0.4098,-0.21,0.4112,-2.3363,83.4177079130236,32.693732210342695,0.11768913490376123,19.177000000003318
0.4812,0.084,0.7626,-0.371,0.469,0.4042,-0.9887,1.19,-2.38,83.51827918386608,32.61086226052009,0.12305622140908364,19.1929999999993
0.4878,0.0853,0.7604,-0.3713,0.4684,0.405,0.4375,1.19,-2.6425,83.5570153608586,32.58316025111615,0.12681559926755187,19.20799999999872
0.4923,0.0797,0.756,-0.3713,0.4684,0.405,-0.4725,1.3913,-2.24,83.55827612618629,32.590238991172455,0.1341687593448783,19.22400000000198
0.4813,0.0867,0.7559,-0.371,0.4709,0.4007,-0.42,0.84,-1.8112,83.55294767363121,32.510947985539076,0.13284788340735412,19.239999999997963
0.4818,0.0794,0.7516,-0.3703,0.4686,0.4054,-1.0063,0.7262,-2.5025,83.69741316997687,32.512263858632615,0.1293667950709937,19.255000000004657
0.4832,0.0828,0.7572,-0.3697,0.4683,0.4056,-0.9275,1.085,-2.5988,83.7167373399919,32.47843625531353,0.13205411555997237,19.27100000000064
0.4932,0.0927,0.7511,-0.3707,0.471,0.4022,-0.6475,1.26,-2.2662,83.60628249746333,32.50609578216152,0.13585870400331507,19.286000000000058
0.4875,0.0848,0.7641,-0.3707,0.471,0.4022,-0.28,1.0237,-2.2662,83.61624582295619,32.500379175449005,0.13701411360598675,19.302000000003318
0.4806,0.091,0.7523,-0.3706,0.4694,0.4004,-0.9975,0.5863,-1.9688,83.44016986669044,32.47700893099128,0.1317554222432688,19.3179999999993
0.4804,0.0903,0.772,-0.3704,0.4691,0.4058,-0.5863,0.49,-2.3012,83.42902793035533,32.41941192803916,0.12519488002189394,19.333000000005995
0.4931,0.0856,0.7501,-0.3706,0.4691,0.4052,-0.9538,0.6825,-2.1175,83.44865150708152,32.48674170243676,0.12250339201276826,19.348999999994703
0.4941,0.0933,0.7558,-0.3706,0.4691,0.4052,-0.2975,0.7962,-2.6337,83.37523159154223,32.630249180589146,0.12100175281628815,19.364000000001397
0.4793,0.0853,0.7514,-0.3699,0.4691,0.4056,-0.385,1.3737,-2.0738,83.3875273263538,32.5968396396151,0.12868285752969383,19.37999999999738
0.4892,0.0855,0.7595,-0.3706,0.4701,0.4038,-0.665,0.91,-2.345,83.4177192015697,32.599642378278,0.1289185717793941,19.39600000000064
0.4861,0.0921,0.7597,-0.3705,0.4693,0.4035,-0.0875,1.1375,-2.4325,83.32545521301569,32.56873873759683,0.1313829646008588,19.411000000000058
0.4883,0.0839,0.7595,-0.3702,0.4698,0.4084,-0.4812,0.9887,-2.205,83.32756551862985,32.56889452896701,0.13248194813719907,19.426999999996042
0.487,0.0879,0.7553,-0.3702,0.4698,0.4084,-0.525,0.6737,-2.1263,83.32918639430953,32.57473196449415,0.12832870332753787,19.442000000002736
0.4881,0.0822,0.7599,-0.3697,0.4689,0.405,-0.2013,0.4725,-2.3537,83.43613315360871,32.573237149339526,0.12229983299307615,19.45799999999872
0.4854,0.0841,0.7647,-0.3698,0.469,0.4054,-0.735,1.0237,-2.5638,83.49543967007337,32.490374255033295,0.12481112969677174,19.47400000000198
0.489,0.0906,0.7512,-0.3706,0.4705,0.4048,-0.2187,0.945,-2.4675,83.41933357835595,32.566649165753056,0.1250875167265995,19.489000000001397
0.4911,0.0803,0.7574,-0.3706,0.4705,0.4048,-0.875,1.0762,-2.205,83.57027409761,32.570054500386746,0.142604745056533,19.520000000004075
0.4843,0.0911,0.7607,-0.3714,0.4703,0.4022,-0.2713,0.5775,-2.1613,83.50255572954897,32.55523505584682,0.13666027054879223,19.536000000000058
0.4861,0.0854,0.7554,-0.37,0.4685,0.4042,-0.4288,1.0762,-2.0038,83.50466900010653,32.56244347186754,0.13849152349707022,19.552000000003318
0.4862,0.082,0.7515,-0.3706,0.4691,0.4046,-1.0588,0.2275,-2.3012,83.60345348510195,32.57648706071061,0.12771362114724405,19.567000000002736
0.491,0.0922,0.7515,-0.3708,0.468,0.4046,-0.9538,0.525,-2.45,83.40996540968808,32.64907726750023,0.12250225903062194,19.58299999999872
0.4895,0.0892,0.7576,-0.3708,0.468,0.4046,-0.4112,0.7613,-2.3975,83.40241205575774,32.65493596364397,0.12052958313214619,19.598000000005413
0.4811,0.087,0.7521,-0.3712,0.4702,0.4046,-0.7613,0.4375,-2.31,83.40222578574483,32.63645925641319,0.11477662481735014,19.614000000001397
0.4785,0.0894,0.7546,-0.3703,0.4688,0.4039,-0.9712,0.5863,-2.03,83.34960984169848,32.566910019774085,0.11174168233349584,19.62999999999738
0.4932,0.0872,0.7634,-0.3698,0.4702,0.4054,-1.33,0.9187,-2.4062,83.41134267997913,32.58722243844984,0.11296996409966498,19.6449999999968
0.4841,0.0889,0.7619,-0.3698,0.4702,0.4054,-0.6913,1.2337,-2.4675,83.39951443572993,32.52132824897596,0.11943824769331775,19.661000000000058
0.4908,0.0888,0.7571,-0.3712,0.4683,0.4046,-0.9013,0.945,-2.6075,83.37288896764811,32.59243021728135,0.12025192292349093,19.675999999999476
0.4814,0.0883,0.7526,-0.3702,0.4684,0.4057,-1.0325,0.875,-2.1263,83.34977304662814,32.57843556332724,0.12082673062797898,19.69199999999546
0.4872,0.0928,0.7615,-0.3698,0.4692,0.4033,-0.525,0.735,-2.8612,83.33571845213802,32.51619503379997,0.11932805756733735,19.70799999999872
0.4912,0.0837,0.7454,-0.3702,0.468,0.3988,-0.8225,0.6475,-2.345,83.40204346461557,32.59486330599821,0.11613650181026441,19.722999999998137
0.4921,0.086,0.7602,-0.3702,0.468,0.3988,-0.7962,1.12,-2.3712,83.43692328789282,32.61538470047001,0.12065085163252369,19.739000000001397
0.4904,0.0826,0.762,-0.3701,0.4692,0.3998,-1.1638,0.9975,-2.135,83.59039278094694,32.61512136023913,0.12205201646874878,19.754000000000815
0.4814,0.0834,0.7565,-0.3693,0.4685,0.4054,-0.5425,0.7088,-2.3012,83.59783404170946,32.59225802574628,0.12005353481931182,19.7699999999968
0.4937,0.0847,0.7601,-0.3695,0.4689,0.404,0.0613,1.4525,-2.5463,83.61312356686953,32.65414618217388,0.12896418134164178,19.786000000000058
0.4956,0.0851,0.7587,-0.3695,0.4689,0.404,-0.595,1.1375,-1.8988,83.61173710658497,32.73552734640498,0.1314240132068817,19.800999999999476
0.4839,0.0869,0.7411,-0.3698,0.4693,0.397,-0.9712,1.015,-2.1175,83.51244371091084,32.75654354649592,0.1328976118891712,19.817000000002736
0.4879,0.0819,0.7621,-0.3704,0.4685,0.405,-0.7962,1.2687,-2.3537,83.59834498106186,32.72351897736727,0.13673530069958945,19.832000000002154
0.481,0.0947,0.7554,-0.3693,0.4682,0.405,-0.385,1.1025,-2.6425,83.5366243232688,32.59300536470358,0.1389377706256453,19.847999999998137
0.4884,0.1075,0.7479,-0.3694,0.4698,0.4038,-0.4288,0.6212,-2.5725,83.46009762045593,32.66745070677817,0.13398927356490317,19.864000000001397
0.4942,0.0738,0.7541,-0.3694,0.4698,0.4038,-0.2187,1.0675,-2.5463,83.65428710436984,32.77751611444933,0.13500159620785362,19.879000000000815
0.4801,0.0938,0.7518,-0.3698,0.469,0.4032,0.2187,1.2425,-2.4325,83.34035413783243,32.70439496552208,0.13939343659071335,19.895000000004075
0.4838,0.105,0.7504,-0.3699,0.469,0.4033,0.3237,0.91,-2.8788,82.7603437617527,32.64633156568727,0.13773909292520628,19.909999999996217
0.4902,0.0877,0.7689,-0.3689,0.4687,0.4035,-0.9275,0.5337,-1.5488,82.98842985264733,32.52793788139218,0.13165046363425134,19.925999999999476
0.4929,0.0944,0.7543,-0.3689,0.4687,0.4035,-0.6913,0.7,-2.3712,82.96679818347316,32.584908327260166,0.1285654172728798,19.942000000002736
0.4773,0.1064,0.7584,-0.3701,0.4695,0.403,-0.6388,0.665,-2.4062,82.83300170585125,32.482128769550734,0.12468637554088878,19.956999999994878
0.4881,0.0888,0.7465,-0.3692,0.469,0.4064,-0.1663,1.0237,-2.7475,82.92351015194082,32.65932665015508,0.1269590179898031,19.972999999998137
0.4923,0.0999,0.7548,-0.3706,0.4701,0.4044,-0.4988,0.7788,-2.4762,82.9129582942518,32.70573974234713,0.12477691619041482,19.987999999997555
0.4853,0.069,0.7551,-0.3706,0.4696,0.4074,-0.9712,0.5863,-1.9338,83.53137942257992,32.68681399608342,0.12074194457309335,20.004000000000815
0.478,0.0911,0.7677,-0.3706,0.4696,0.4074,-1.0762,0.8662,-2.4762,83.41924433737977,32.49076269177551,0.12114103011832517,20.020000000004075
0.4944,0.0778,0.7522,-0.3706,0.4689,0.4019,-0.2887,0.8838,-2.6163,83.52557945261958,32.68561068455733,0.12095822710024222,20.034999999996217
0.4887,0.0762,0.7458,-0.3706,0.4674,0.4043,-1.0325,0.525,-2.3975,83.75476446243998,32.74828134750387,0.11642240439175817,20.050999999999476
0.4925,0.0914,0.7596,-0.371,0.4684,0.4063,-0.385,0.8138,-2.7213,83.70365721799814,32.7556654489547,0.11576646395215603,20.065999999998894
0.4823,0.0759,0.7554,-0.371,0.4684,0.4063,-0.735,0.6913,-2.4413,83.81878022035721,32.69581835194212,0.11414453755896847,20.082000000002154
0.4871,0.1016,0.7697,-0.371,0.4686,0.4002,-0.5688,1.0237,-2.2138,83.7045437313396,32.69276385858906,0.11747136380607481,20.098000000005413
0.494,0.0908,0.7541,-0.3714,0.4688,0.4041,-0.28,1.1812,-2.3187,83.6112782452888,32.724200723296114,0.12167042741711363,20.112999999997555
0.4909,0.0795,0.7473,-0.3706,0.4707,0.4042,-1.0675,0.5425,-2.1437,83.72888744972947,32.7542288421363,0.11731538467699378,20.129000000000815
0.4817,0.098,0.7723,-0.3702,0.468,0.402,0.035,0.805,-2.4413,83.40420866506093,32.57113691940839,0.11645134620887268,20.144000000000233
0.4837,0.089,0.7688,-0.3702,0.468,0.402,0.0525,1.1988,-2.4062,83.40156502450746,32.48184826128753,0.1220689315915023,20.160000000003492
0.4968,0.0916,0.7554,-0.3718,0.468,0.406,-0.3063,0.7,-2.4413,83.35591169924524,32.60151624265486,0.11994203842982178,20.175999999999476
0.4915,0.0983,0.7537,-0.3712,0.469,0.4036,-0.0787,1.12,-2.3537,83.13244590881511,32.63556390351552,0.12306783458625287,20.190999999998894
0.4803,0.0816,0.7601,-0.3702,0.4685,0.4037,-1.19,0.5337,-2.2313,83.44086997478917,32.62954187598967,0.11844633112919328,20.207000000002154
0.4878,0.0932,0.7652,-0.3702,0.4685,0.4037,-0.5688,0.805,-2.2138,83.4079909372081,32.62797353702439,0.11746919801585225,20.22200000000157
0.4895,0.0744,0.7446,-0.3706,0.4701,0.4068,-0.35,1.05,-2.3012,83.50676703205417,32.670698897474445,0.12084227821047161,20.237999999997555
0.4945,0.081,0.7502,-0.3701,0.469,0.4046,-0.1663,1.1025,-2.485,83.5848916540043,32.790061513165426,0.12463405038543926,20.25399999999354
0.4884,0.0931,0.7574,-0.3702,0.4697,0.4066,-0.1838,0.805,-2.8437,83.45108320903016,32.72470203854678,0.12303814535174507,20.269000000000233
0.486,0.0781,0.7547,-0.3702,0.4697,0.4006,-0.9187,0.595,-2.1525,83.6478476695121,32.71950493221164,0.1193023308183161,20.285000000003492
0.4871,0.0831,0.7595,-0.3703,0.469,0.4006,-0.7613,1.1113,-2.3537,83.67186036696695,32.69570948668119,0.12237464772862512,20.299999999995634
0.4884,0.0844,0.756,-0.3706,0.4701,0.4071,-0.1838,0.7875,-2.3012,83.66237718673572,32.6962033330056,0.12147718295807287,20.315999999998894
0.4896,0.078,0.7695,-0.3704,0.4695,0.4035,-0.7525,0.6388,-2.5638,83.78160869533767,32.60342810112993,0.11852818465995653,20.331999999994878
0.4835,0.0957,0.7484,-0.3692,0.468,0.4055,-0.0962,0.4462,-2.6075,83.48775361453991,32.617254259312766,0.11269906619664902,20.34700000000157
0.4803,0.0862,0.754,-0.3692,0.468,0.4055,-0.3588,1.12,-2.5463,83.48674026768116,32.546149917749055,0.11755715958026983,20.36300000000483
0.4878,0.094,0.7643,-0.3692,0.4702,0.4056,-0.6212,0.84,-1.8112,83.42336900109815,32.490069748261426,0.11714144361630217,20.377999999996973
0.4834,0.0939,0.7438,-0.3702,0.4695,0.4036,-0.3063,0.6475,-2.205,83.33386938590026,32.494531276688264,0.11475129925657152,20.394000000000233
0.4884,0.0784,0.7519,-0.3698,0.4686,0.4034,-0.91,0.7525,-2.0912,83.54997877924686,32.536459497384165,0.11411216932819432,20.409999999996217
0.4924,0.094,0.7676,-0.3697,0.4678,0.4042,-0.5075,0.665,-1.9075,83.53348194614529,32.52444239892818,0.11167845239938118,20.42500000000291
0.4825,0.0929,0.7468,-0.3697,0.4678,0.4042,0.0525,0.9275,-2.3537,83.31769180961511,32.541234809024694,0.11386660715609044,20.440999999998894
0.4822,0.0874,0.7489,-0.3704,0.4691,0.4046,-0.6913,0.9275,-2.345,83.32226179448773,32.54785894193469,0.11500119643999553,20.455999999998312
0.4833,0.0983,0.7666,-0.3706,0.4693,0.4042,-0.0525,1.2862,-2.52,83.1351917456984,32.42545647610953,0.12202235679976926,20.47200000000157
0.4845,0.0903,0.7665,-0.371,0.4696,0.4038,-0.9013,0.8225,-2.4762,83.17875415982834,32.36268944990135,0.12166412111681926,20.487999999997555
0.4855,0.0868,0.7514,-0.371,0.4692,0.4031,-0.5863,0.7,-2.0738,83.20187787207183,32.40478698788393,0.11894770900935447,20.50300000000425
0.4896,0.0939,0.7637,-0.3709,0.4692,0.4031,-0.7962,0.9975,-2.2925,83.15053094220136,32.40915031167751,0.12141693810481337,20.519000000000233
0.4829,0.08,0.7596,-0.371,0.4679,0.3997,-0.77,0.8925,-2.3975,83.3410344910109,32.392982290544786,0.12132399429386449,20.53399999999965
0.4851,0.0877,0.7661,-0.3712,0.4686,0.4062,-0.7,1.1113,-2.2925,83.36457864486236,32.377982797544995,0.12519431486773824,20.55000000000291
0.4922,0.0836,0.7491,-0.3708,0.4684,0.4058,-0.6212,1.0762,-2.66,83.39860540655816,32.61259608059189,0.12817216337707427,20.565999999998894
0.4964,0.0808,0.7364,-0.3708,0.4684,0.4058,-1.12,0.8225,-2.2838,83.53177207114022,32.68637740135005,0.12645869703893597,20.580999999998312
0.4825,0.0936,0.7663,-0.3712,0.4699,0.4016,-0.5512,0.8838,-2.3537,83.49687867201935,32.605550284820836,0.12653954733184772,20.596999999994296
0.4801,0.0816,0.7557,-0.3717,0.4691,0.4036,-0.4462,0.7875,-2.0125,83.50655616192991,32.549468846468926,0.12451684260340723,20.61200000000099
0.4841,0.0823,0.7557,-0.3706,0.4694,0.4046,-0.3588,0.5075,-2.1875,83.53561395724292,32.54766301876075,0.11937315834455534,20.62800000000425
0.4884,0.0928,0.7566,-0.3706,0.4694,0.4038,-0.3413,0.7875,-2.31,83.47312140723574,32.55606760570199,0.11877584250725323,20.644000000000233
0.4903,0.0794,0.7501,-0.3701,0.4694,0.4038,-0.7175,0.8925,-2.1,83.56752743916468,32.605874968930074,0.11894700825606036,20.65899999999965
0.4843,0.0944,0.7584,-0.3701,0.4688,0.4035,-0.7437,0.3675,-2.73,83.42735069704926,32.52342236138568,0.11234430742912592,20.674999999995634
0.4796,0.0847,0.7508,-0.3698,0.469,0.4042,-0.56,0.9887,-2.2313,83.43796204516907,32.52199081832793,0.11445732669216975,20.69000000000233
0.4906,0.0881,0.7595,-0.3706,0.4698,0.403,-1.0063,0.8925,-2.135,83.41904607803612,32.53471528548138,0.11586359401972667,20.705999999998312
0.497,0.0931,0.7457,-0.3706,0.4698,0.403,-0.4025,0.91,-2.905,83.38262178370027,32.918845572069614,0.11738123462042364,20.72200000000157
0.485,0.0806,0.7579,-0.3697,0.4691,0.4026,-0.8138,0.7875,-2.5025,83.5208989506196,32.81973293886417,0.11627436115796873,20.73700000000099
0.4793,0.0837,0.7601,-0.3692,0.4687,0.4058,-0.805,1.2075,-2.1263,83.56927306683109,32.756891727021156,0.12203492503780712,20.752999999996973
0.4822,0.0928,0.7568,-0.3698,0.4692,0.4056,-0.1488,1.05,-2.24,83.43136277747952,32.74769706412051,0.12400643254035212,20.768000000003667
0.4876,0.0822,0.7534,-0.3698,0.4692,0.4056,-0.7437,1.0938,-2.1,83.50369184994365,32.748630048513384,0.12735650928236317,20.78399999999965
0.4913,0.0891,0.7504,-0.3703,0.469,0.4055,-0.3588,1.2163,-2.555,83.47494811518438,32.81937731433877,0.13213557835769507,20.80000000000291
0.4833,0.0804,0.7563,-0.3706,0.4686,0.4028,-0.5163,0.5337,-2.1437,83.49286895412486,32.79239248748352,0.12612697052164598,20.81500000000233
0.4843,0.0802,0.7552,-0.3695,0.4688,0.4044,-0.6212,0.7262,-2.52,83.54949490019844,32.7306905319481,0.12397155346685639,20.830999999998312
0.4923,0.0875,0.7518,-0.3701,0.469,0.4054,-0.4288,1.2687,-2.1,83.54110533813892,32.76374088569996,0.12870184812781402,20.846000000005006
0.4927,0.0794,0.7379,-0.3701,0.469,0.4054,-1.1375,0.98,-2.555,83.66751218117483,32.96881276906341,0.12994366330507284,20.861999999993714
0.4772,0.0913,0.7717,-0.3701,0.4692,0.401,-0.6125,0.9975,-2.24,83.61752129523931,32.93969425690722,0.1313132969774919,20.877999999996973
0.4848,0.0876,0.7522,-0.3701,0.4692,0.4034,-0.84,0.84,-2.4938,83.54801775327428,32.87221641085458,0.12952196728480328,20.893000000003667
0.491,0.0821,0.7568,-0.3711,0.4706,0.4035,-1.1812,0.9013,-2.765,83.6558262674973,32.854488245247545,0.12954849055306503,20.90899999999965
0.496,0.0905,0.7501,-0.3711,0.4706,0.4035,-0.2537,1.1638,-2.415,83.55865111433101,32.92492410537749,0.13230494149714883,20.92399999999907
0.4924,0.0854,0.7491,-0.3702,0.4688,0.4106,-0.7962,0.8138,-2.03,83.54347619477134,32.960417436124416,0.1307931673444923,20.939999999995052
0.4768,0.0899,0.7649,-0.3699,0.4692,0.4025,-0.84,0.8138,-2.4675,83.47754679161022,32.7217109056038,0.1294325706124305,20.955999999998312
0.4823,0.0887,0.762,-0.3699,0.4694,0.4048,-0.6037,1.1463,-2.6163,83.46423425196092,32.56124169563952,0.13196436355058694,20.97099999999773
0.4899,0.0877,0.7389,-0.3705,0.4709,0.4042,-0.6737,1.0063,-2.275,83.42568852661738,32.6036369762978,0.13325864719848038,20.98700000000099
0.4947,0.0923,0.7485,-0.3705,0.4709,0.4042,-0.9275,0.77,-2.485,83.28387898278712,32.742181852828146,0.13032778247822896,21.002000000000407
0.4851,0.082,0.7538,-0.3707,0.4682,0.4041,-0.0088,0.9363,-2.1788,83.44544561462442,32.73706303171496,0.13077772422702164,21.01799999999639
0.4858,0.0874,0.7493,-0.3702,0.47,0.405,-0.21,0.9887,-2.415,83.42478453795884,32.74416887966977,0.13193723180721997,21.03399999999965
0.4911,0.0816,0.7648,-0.3703,0.4702,0.4052,-0.8225,0.7613,-2.5638,83.54975914902376,32.696543050303106,0.12902105862609914,21.04899999999907
0.4973,0.0839,0.749,-0.3703,0.4702,0.4052,-0.525,1.0675,-2.3712,83.55253558895627,32.7918277029492,0.1314909527666209,21.06500000000233
0.4879,0.0884,0.7493,-0.3718,0.4694,0.4031,-0.2887,1.0237,-2.6425,83.5083106901071,32.82073339848009,0.13216180748942255,21.080000000001746
0.4848,0.0818,0.754,-0.3706,0.47,0.4015,-0.6475,1.2163,-2.1875,83.55234275597427,32.81361408523666,0.13646034673608373,21.09599999999773
0.4895,0.0808,0.76,-0.3708,0.4697,0.4053,-0.4988,1.2075,-2.1,83.56098124155575,32.794974086455234,0.14020231206601777,21.11200000000099
0.4915,0.0878,0.7586,-0.3698,0.469,0.4058,-0.4462,1.05,-2.3537,83.55634519901922,32.79149170852849,0.14035708085886592,21.127000000000407
0.4901,0.0795,0.754,-0.3698,0.469,0.4058,-1.0063,0.8925,-2.5725,83.70363373039227,32.81442702198993,0.13917337276975322,21.14299999999639
0.4829,0.0915,0.754,-0.3709,0.47,0.4069,-0.8138,0.735,-2.0213,83.54619101815354,32.75388756232156,0.13517853549720593,21.158000000003085
0.4842,0.0875,0.7582,-0.3722,0.4701,0.4043,-0.7437,0.6825,-1.9775,83.5188482153,32.68336491251863,0.1314886819450183,21.17399999999907
0.4884,0.0803,0.7466,-0.3711,0.4686,0.4046,-0.6212,0.9975,-2.38,83.56239100136315,32.7329004677437,0.1327038137534428,21.19000000000233
0.4829,0.0919,0.7606,-0.3711,0.4686,0.4008,-0.2625,1.1812,-2.9925,83.48306414903037,32.5107759731935,0.13537963236974482,21.20499999999447
0.4876,0.0875,0.748,-0.3706,0.4701,0.4008,-0.875,0.9363,-2.555,83.43878138521484,32.61402719923058,0.13532438913551714,21.22099999999773
0.4895,0.0855,0.763,-0.3711,0.4696,0.4039,-0.6388,0.6037,-2.7475,83.46229183043182,32.581445677443426,0.12994190022164917,21.235999999997148
0.4844,0.0918,0.7619,-0.3718,0.4683,0.4041,-0.455,0.8925,-2.6163,83.45561733279037,32.49023984617448,0.12979971020210254,21.252000000000407
0.4889,0.0845,0.7574,-0.3707,0.4702,0.4022,-1.1375,0.4988,-2.205,83.52669961729133,32.49287020961674,0.1240024591833556,21.268000000003667
0.4903,0.0889,0.7503,-0.3707,0.4702,0.4022,-0.6825,0.9887,-2.3537,83.47799936058132,32.550802715245574,0.12494966325802773,21.28299999999581
0.4821,0.0813,0.7587,-0.3706,0.4693,0.3958,-0.455,1.1287,-2.2925,83.48613973279586,32.532614304731325,0.12870797693553618,21.29899999999907
0.489,0.0869,0.7626,-0.3714,0.4701,0.4043,-0.8487,0.945,-2.1437,83.48965065674915,32.53042779269953,0.12859467924148751,21.313999999998487
0.4889,0.092,0.7625,-0.3708,0.47,0.4047,-0.2362,1.1113,-2.8087,83.4183165582295,32.51147865058707,0.13173793132059894,21.330000000001746
0.4865,0.0823,0.7493,-0.3708,0.47,0.4047,-0.8575,0.7437,-1.96,83.50502453813401,32.578616977162234,0.12927341819072083,21.346000000005006
0.4879,0.0872,0.7649,-0.37,0.4682,0.4056,-0.1663,1.015,-2.1962,83.50295337793237,32.57385113872395,0.13004857636447043,21.360999999997148
0.4838,0.08,0.7545,-0.371,0.4692,0.4057,-0.7525,0.2275,-1.89,83.59939180163612,32.56136650608827,0.12031971872869081,21.377000000000407
0.4859,0.0841,0.7563,-0.37,0.4705,0.4042,-0.4812,1.0063,-2.1788,83.59970726328088,32.56129918861448,0.12187279685529455,21.391999999999825
0.4854,0.0863,0.7429,-0.3698,0.4692,0.405,-0.0175,0.9625,-2.2138,83.52876347684071,32.56348381555977,0.12354551717258874,21.408000000003085
0.4893,0.0814,0.7591,-0.3698,0.4692,0.405,-0.8225,0.3588,-2.1,83.61910387808064,32.57332241273698,0.11635768545403292,21.42399999999907
0.4835,0.09,0.7609,-0.371,0.4706,0.4058,-0.9975,1.085,-2.205,83.4939972853511,32.568906685500956,0.11936941690806124,21.438999999998487
0.4851,0.0844,0.7496,-0.3708,0.4701,0.4054,-0.7437,0.7875,-2.03,83.51132565121412,32.59679023973794,0.11877247521956537,21.455000000001746
0.4882,0.0788,0.7556,-0.3713,0.4693,0.4045,-0.9275,0.7788,-2.5113,83.67785422985544,32.625964423881065,0.11740902769720085,21.470000000001164
0.487,0.0889,0.7618,-0.3713,0.4693,0.4045,-0.6388,0.9975,-2.5025,83.63096105830235,32.57918355625681,0.1200321249238751,21.485999999997148
0.49,0.0845,0.7639,-0.3713,0.4708,0.3999,-0.525,0.6125,-2.1,83.63364308467395,32.57287018075772,0.11684891243328446,21.502000000000407
0.4873,0.0892,0.744,-0.3713,0.4692,0.4059,-0.4638,0.7525,-2.3363,83.62821474068062,32.62155761866044,0.11532277118956182,21.516999999999825
0.4828,0.0887,0.7559,-0.3704,0.4683,0.4045,-0.2713,0.455,-2.0387,83.5738041327404,32.58607389122955,0.11034249407194045,21.533000000003085
0.4878,0.0837,0.7653,-0.3708,0.4698,0.4057,-0.5863,1.0675,-2.1,83.5922240155736,32.561939976338465,0.1137194946571968,21.547999999995227
0.4821,0.0908,0.7543,-0.3708,0.4698,0.4057,-0.8925,0.9538,-2.4588,83.45794792599996,32.53010600040026,0.11608226519427525,21.563999999998487
0.4895,0.0831,0.7653,-0.3711,0.4698,0.4085,-0.7525,0.5863,-2.2487,83.53276199378595,32.527837810654844,0.11291675867656775,21.580000000001746
0.4784,0.0856,0.7605,-0.3693,0.4703,0.4039,-0.6825,1.12,-2.1875,83.54051389937794,32.51202941805966,0.11674508280832425,21.595000000001164
0.4879,0.0884,0.7582,-0.371,0.469,0.4053,-0.5163,1.1638,-2.38,83.53303355961303,32.522206765745764,0.12182929453090603,21.611000000004424
0.4925,0.0852,0.7546,-0.371,0.469,0.4053,-0.5425,0.9363,-1.7587,83.53461172843319,32.661821129957154,0.1222864150711937,21.625999999996566
0.4896,0.0878,0.7557,-0.3703,0.4678,0.4015,-0.6562,0.9712,-2.0738,83.50985651163857,32.674673319746304,0.12404305356692351,21.641999999999825
0.4848,0.0846,0.7519,-0.3712,0.467,0.3978,-0.5075,1.1463,-2.38,83.51204446358977,32.67106424810371,0.12814546821359402,21.658000000003085
0.4946,0.0849,0.7547,-0.3713,0.4702,0.4057,-0.6125,1.0325,-2.3888,83.52041395182373,32.72959249240849,0.1292696713916937,21.673000000002503
0.4781,0.0863,0.7562,-0.3706,0.4698,0.4038,-0.5688,1.26,-2.9313,83.51776555567939,32.482457103255804,0.13448670425622078,21.689000000005763
0.4896,0.0847,0.7523,-0.3706,0.4698,0.4038,-1.015,0.735,-2.45,83.53825459147306,32.55921456828393,0.13096053382540063,21.703999999997905
0.4778,0.0901,0.7538,-0.3707,0.4695,0.4072,-0.9363,0.9275,-2.5113,83.42647274589497,32.474636431956235,0.13122048044558154,21.720000000001164
0.4841,0.0872,0.7616,-0.3704,0.4683,0.4048,-0.6825,0.6913,-2.905,83.43364967173595,32.39251507774992,0.12805315239852455,21.735999999997148
0.4871,0.0875,0.7488,-0.3698,0.4708,0.4038,-1.05,0.6913,-2.0213,83.39765608449989,32.47082577423078,0.12458038716283681,21.75100000000384
0.4824,0.0888,0.763,-0.3698,0.4708,0.4038,-0.49,0.7962,-2.0038,83.39714029087062,32.41027937579612,0.12358762844367512,21.766999999999825
0.4823,0.088,0.7645,-0.3709,0.4698,0.4018,-0.3938,0.8662,-2.2575,83.399900972863,32.39790836192023,0.12292256559885384,21.781999999999243
0.4948,0.0875,0.7458,-0.3703,0.4695,0.4037,-0.6037,1.2163,-2.6337,83.38950623527455,32.68640110028934,0.1281450290425367,21.798000000002503
0.4912,0.0928,0.7458,-0.3706,0.4704,0.4058,-1.0588,0.98,-2.4062,83.21179195881221,32.762325638999826,0.12944252613474064,21.813999999998487
0.489,0.0845,0.7643,-0.3696,0.4692,0.4046,-0.5688,1.3038,-2.0912,83.25270271248488,32.72731643519667,0.13409957352058358,21.828999999997905
0.4893,0.0879,0.7508,-0.3696,0.4692,0.4046,-0.6825,0.875,-2.5287,83.26467195072871,32.7715406186142,0.13328961617109217,21.845000000001164
0.4878,0.0858,0.763,-0.3703,0.4685,0.4108,-0.4812,0.56,-2.4325,83.26648934775494,32.71116303757939,0.12752065455368958,21.860000000000582
0.4904,0.0844,0.7643,-0.371,0.47,0.4047,-0.6475,1.2075,-2.3975,83.32989515496762,32.68341080229291,0.19953508909977555,21.93800000000192
0.4826,0.0862,0.7648,-0.3705,0.4699,0.4046,-0.3237,0.9187,-2.2925,83.3614529965267,32.64274466607227,0.19281086019249316,21.95400000000518
0.4871,0.0836,0.7557,-0.3705,0.4699,0.4046,-0.56,0.8313,-2.17,83.38684608501491,32.64289891749719,0.18550049417023895,21.970000000001164
0.4779,0.0842,0.7726,-0.37,0.47,0.4106,-0.35,1.1113,-2.5463,83.4307111582721,32.38280842413578,0.18195299475263288,21.985000000000582
0.486,0.0852,0.7506,-0.3698,0.4689,0.4059,-0.6562,0.8838,-2.7738,83.44500848584141,32.51570186575489,0.17648441527417494,22.000999999996566
0.4904,0.0839,0.7669,-0.3714,0.4693,0.4053,-0.7613,0.8313,-0.0437,83.514268618258,32.465680591348324,0.1700585237517656,22.01600000000326
0.4869,0.0853,0.7481,-0.3706,0.4695,0.4054,-0.2013,0.9363,-2.4413,83.51014455251423,32.5426877402081,0.16653539137933585,22.03200000000652
0.491,0.0841,0.7504,-0.3706,0.4695,0.4054,-0.2187,0.8138,-2.415,83.52959469658339,32.62317518262622,0.16160057223313157,22.047999999995227
0.4873,0.0841,0.7629,-0.3699,0.4702,0.4019,-0.28,0.735,-2.0038,83.55897409536243,32.58569041978269,0.15536301501424643,22.06300000000192
0.4898,0.099,0.7656,-0.3696,0.4694,0.4053,-0.3762,1.2513,-2.3712,83.47525412833181,32.56039268120218,0.15784543350829872,22.078999999997905
0.4874,0.0822,0.7609,-0.3715,0.469,0.4058,-1.0412,0.875,-2.4675,83.60496592478513,32.546599724791974,0.15387339015701046,22.093999999997322
0.4893,0.0849,0.7519,-0.3715,0.469,0.4058,-0.6913,0.8662,-2.3712,83.5965921587572,32.591754708551214,0.15095933114385054,22.110000000000582
0.4851,0.0867,0.7512,-0.3711,0.4691,0.4026,-1.2862,0.7613,-2.52,83.51587731392549,32.61228882698867,0.1468261180267136,22.125999999996566
0.4866,0.085,0.751,-0.3702,0.4681,0.4025,-0.6212,0.7525,-2.5287,83.51927678004785,32.650638840765076,0.14230225622857567,22.14100000000326
0.4782,0.0814,0.7583,-0.3708,0.4701,0.4042,-0.735,1.085,-1.9863,83.59216629957814,32.54452407522668,0.14369603060179617,22.156999999999243
0.4903,0.094,0.7499,-0.3702,0.4697,0.405,-0.5337,0.98,-2.6337,83.55162008295127,32.67019682625062,0.14255642754110315,22.17199999999866
0.4868,0.0884,0.7467,-0.3702,0.4697,0.405,-0.6562,0.98,-2.6075,83.50519601416046,32.739976667611096,0.14241278478986782,22.18800000000192
0.4852,0.084,0.7624,-0.3706,0.469,0.405,-0.525,0.6562,-2.17,83.51498296107474,32.720211783961815,0.13762078630850907,22.203999999997905
0.4899,0.1002,0.74,-0.3716,0.4693,0.4043,-0.6737,0.4725,-2.345,83.31212393939651,32.7813444424976,0.13023745768050474,22.2190000000046
0.4871,0.0809,0.7532,-0.3702,0.4693,0.4043,-0.8575,0.8138,-1.925,83.46618353338815,32.7722648405242,0.12893243190951262,22.235000000000582
0.486,0.0911,0.7585,-0.3704,0.469,0.4037,-0.245,1.085,-2.275,83.4071981055316,32.75586924354433,0.13068668871799297,22.25
0.4918,0.0924,0.7511,-0.3704,0.469,0.4037,-0.2013,1.1025,-2.3537,83.31672330350742,32.787082478568195,0.1334940198422085,22.265999999995984
0.4847,0.0833,0.7591,-0.3702,0.4702,0.406,-0.8313,0.7788,-2.3888,83.42720274538864,32.73142653689338,0.13135933786027237,22.281999999999243
0.4814,0.0971,0.7682,-0.37,0.4695,0.4072,-0.665,1.155,-2.38,83.32664309638317,32.611928431351494,0.13381590408120342,22.297000000005937
0.4913,0.0778,0.7535,-0.3698,0.4684,0.4042,-0.7175,0.9887,-2.3275,83.4783185665147,32.64663370239277,0.13467159366950923,22.31300000000192
0.4804,0.0799,0.7474,-0.3701,0.4674,0.4025,-0.315,0.8925,-2.2138,83.53635830848467,32.646307494932024,0.13325318430209077,22.32800000000134
0.4835,0.0825,0.7632,-0.3706,0.4687,0.4023,-0.2013,0.945,-2.1962,83.5996356429223,32.63646694532088,0.1335358658684658,22.343999999997322
0.493,0.0898,0.749,-0.3699,0.4687,0.4044,-0.7788,1.1638,-2.3363,83.49807735263606,32.69204826253731,0.13694099928503342,22.360000000000582
0.4821,0.081,0.7715,-0.3699,0.4687,0.4044,-0.6125,0.7788,-2.1175,83.55934285405296,32.6153605562296,0.13376069935612211,22.375
0.4873,0.0787,0.7545,-0.3696,0.4701,0.404,-0.6475,0.63,-2.1,83.63064803168619,32.626019569368154,0.12945662941823266,22.390999999995984
0.487,0.0845,0.7694,-0.3712,0.4696,0.4061,-0.6825,0.4638,-2.1525,83.64812776424002,32.59803711525883,0.12277226647920356,22.406000000002678
0.485,0.0805,0.7606,-0.3706,0.4693,0.405,-0.9712,0.8575,-2.3537,83.75097688390085,32.572070224147595,0.12284303982818359,22.42199999999866
0.4904,0.0925,0.7579,-0.371,0.4702,0.4048,-0.7175,0.6212,-2.485,83.61274433320423,32.601478007463456,0.11950401584718763,22.43800000000192
0.4916,0.087,0.7441,-0.371,0.4702,0.4048,-0.42,1.0675,-2.5638,83.59794991070433,32.77356514245445,0.13733686425805097,22.468999999997322
0.4872,0.0898,0.7597,-0.3699,0.4688,0.4073,-0.8575,0.8575,-2.8525,83.50416195163027,32.664335631155055,0.13517942783741188,22.484000000004016
0.4867,0.0941,0.7558,-0.3698,0.4685,0.4053,-0.6825,0.8313,-2.38,83.40104891483968,32.652553713424204,0.1336322050506658,22.5
0.4867,0.0885,0.7618,-0.3706,0.4693,0.4039,-0.98,0.9187,-2.31,83.39181930971135,32.631466678222594,0.1334982645482944,22.51600000000326
0.4832,0.0895,0.7567,-0.3706,0.4693,0.4039,-0.7088,1.0412,-2.555,83.36585613595172,32.5683475218715,0.13420463808610134,22.5309999999954
0.4887,0.0933,0.7502,-0.3707,0.4689,0.4084,0.0962,0.805,-2.695,83.20030138493854,32.669013419657794,0.13237617427985282,22.54699999999866
0.4855,0.0834,0.7578,-0.37,0.4705,0.4064,-0.35,1.0675,-2.3187,83.25819243757076,32.652783768737855,0.13354980685829868,22.562000000005355
0.4909,0.0916,0.7545,-0.3707,0.4688,0.4053,-0.8662,0.8313,-2.6425,83.20753573476316,32.71380630870727,0.1321655461694639,22.57800000000134
0.4874,0.0848,0.7514,-0.3706,0.4701,0.4058,-0.8225,0.9013,-2.3275,83.29861460328945,32.722671879852946,0.13192771155516164,22.5940000000046
0.4879,0.0877,0.7645,-0.3706,0.4701,0.4058,-0.7613,0.455,-2.2313,83.33357557066626,32.718458634004435,0.12487744039642763,22.60899999999674
0.4974,0.085,0.7521,-0.3702,0.4699,0.4088,-1.435,0.6475,-2.52,83.44051705551837,32.85566886723118,0.12171369635868443,22.625
0.4863,0.0842,0.7698,-0.3707,0.4692,0.4034,-0.77,1.155,-2.4062,83.51271647353393,32.74090521336029,0.12513482672977427,22.640000000006694
0.4806,0.0849,0.7671,-0.3703,0.4701,0.4038,-0.455,0.3938,-2.45,83.51616138752459,32.58517829892853,0.11829206405279465,22.6559999999954
0.4906,0.0873,0.7527,-0.3703,0.4701,0.4078,-0.49,0.6125,-2.0038,83.51427298527058,32.644630262464254,0.11528285764931206,22.67199999999866
0.4896,0.0879,0.7544,-0.3706,0.469,0.4078,-0.7437,0.8313,-2.31,83.480390108509,32.658183594567504,0.11497712188394538,22.68699999999808
0.4857,0.085,0.7571,-0.3704,0.469,0.4022,-0.7525,1.0412,-2.3625,83.50507844837273,32.64063956653167,0.11847268969860539,22.70300000000134
0.4886,0.0831,0.7653,-0.37,0.4693,0.4034,-0.4812,0.84,-2.2662,83.50677305247986,32.6299610250976,0.1179654207283048,22.718000000000757
0.4873,0.0845,0.7485,-0.3698,0.4697,0.4044,-0.3063,1.0412,-2.3712,83.51433149084505,32.66561789642887,0.12116215865171072,22.73399999999674
0.4895,0.0835,0.7464,-0.3698,0.4697,0.4044,-0.7437,0.7613,-2.1175,83.53601232036932,32.70511209563021,0.12000866278877305,22.75
0.4895,0.0883,0.7499,-0.3709,0.4699,0.405,-0.4725,0.9187,-2.3363,83.53526574487282,32.73127883371588,0.12041024650941447,22.764999999999418
0.4839,0.0801,0.7587,-0.3706,0.4687,0.4051,-0.3325,1.1113,-2.5812,83.59006047176709,32.639467781224866,0.12437194186173321,22.781000000002678
0.4837,0.0834,0.7606,-0.3703,0.469,0.4055,-0.4812,0.735,-2.6775,83.59092807182046,32.53252626802101,0.1218572476703618,22.79599999999482
0.4921,0.0919,0.7485,-0.3702,0.4703,0.4022,-0.3413,0.8575,-2.4762,83.5210575891291,32.654022266519824,0.12201952290584124,22.81199999999808
0.4964,0.0842,0.749,-0.3702,0.4703,0.4022,-0.4812,0.9275,-2.6337,83.52142683149836,32.86360440844218,0.1231735706179781,22.82800000000134
0.4767,0.093,0.7641,-0.3721,0.47,0.4053,-0.4638,0.7613,-2.7037,83.51610783881777,32.506569368301385,0.12113376355578145,22.843000000000757
0.4821,0.0841,0.7547,-0.3705,0.4683,0.4066,-0.8138,0.9013,-2.5025,83.54780084475611,32.48526619964703,0.12199910720284743,22.859000000004016
0.4856,0.0864,0.7546,-0.3714,0.4687,0.4049,-0.7,0.9363,-2.24,83.5332067466139,32.48747309402931,0.12243924647594095,22.87399999999616
0.489,0.0906,0.7466,-0.3714,0.4687,0.4049,-0.7962,0.9363,-2.66,83.42338838864461,32.65408924818489,0.12367804183109365,22.889999999999418
0.4898,0.0795,0.7608,-0.3707,0.4694,0.411,-0.7962,1.1988,-2.2313,83.57179340943738,32.65381853541157,0.12857295765150117,22.906000000002678
0.4806,0.0947,0.7636,-0.371,0.4695,0.4052,-0.2713,1.225,-2.5025,83.46304089695788,32.506966264428996,0.13225316188570932,22.921000000002095
0.4818,0.0862,0.758,-0.371,0.4686,0.4048,-0.4988,1.295,-2.1263,83.46416083811009,32.48724143370486,0.13767584569245736,22.93699999999808
0.4979,0.0869,0.762,-0.3709,0.4699,0.4071,-0.7175,0.665,-2.0912,83.46997200129151,32.5444127247887,0.13288576112286327,22.951999999997497
0.4939,0.0941,0.747,-0.3709,0.4699,0.4071,-0.245,0.7788,-2.5638,83.34827256171805,32.72907473774717,0.1308119050128617,22.968000000000757
0.4812,0.0808,0.7673,-0.3689,0.469,0.4038,-0.56,0.8225,-2.3187,83.39818225736914,32.65854503261057,0.12957471451398847,22.984000000004016
0.4816,0.0833,0.7571,-0.3694,0.468,0.4059,-0.8225,1.1025,-2.1,83.48141979197271,32.620949903979,0.1315009930547925,22.99899999999616
0.4932,0.0855,0.7462,-0.371,0.4682,0.4039,-0.2975,0.7262,-2.1875,83.47871602032902,32.64140560478391,0.12880817375144366,23.014999999999418
0.4961,0.0806,0.76,-0.371,0.4682,0.4039,-0.84,0.4462,-2.3187,83.60361743311078,32.67287898462489,0.12195105637606553,23.029999999998836
0.4795,0.0889,0.7531,-0.3711,0.4709,0.4063,-0.665,1.1638,-2.485,83.55008884443338,32.59571410497823,0.1432733907376664,23.06199999999808
0.4853,0.0854,0.76,-0.3706,0.4694,0.406,-0.525,1.435,-2.4762,83.55190881479396,32.55516961469909,0.148318551663148,23.076999999997497
0.4765,0.0817,0.7616,-0.3702,0.4701,0.4047,-0.6388,0.7788,-2.0125,83.59755800839491,32.44050820450194,0.14470141649911794,23.093000000000757
0.4961,0.0887,0.7578,-0.37,0.4693,0.4024,-0.2537,0.9187,-2.5988,83.5478917695781,32.60351514837894,0.14428738484906176,23.110000000000582
0.4962,0.085,0.7558,-0.37,0.4693,0.4024,-0.5688,0.8313,-2.485,83.55091175233366,32.712211889012494,0.14182936636115068,23.125999999996566
0.4792,0.0906,0.7537,-0.3715,0.4687,0.4066,-0.3938,1.1812,-2.3363,83.52030235223059,32.66497071271395,0.14465570972850086,23.141999999999825
0.4799,0.0839,0.7595,-0.3704,0.4686,0.4028,-0.63,1.2775,-2.275,83.54385053041065,32.63662671396975,0.14743638875498155,23.156999999999243
0.4939,0.0852,0.7643,-0.3697,0.469,0.404,-0.0175,1.2075,-2.17,83.57381385831405,32.64005163735828,0.1500807498830258,23.173000000002503
0.4931,0.0893,0.7486,-0.3697,0.469,0.404,-0.4112,0.7962,-2.3187,83.55107885239055,32.68964818351902,0.1458213748890923,23.187999999994645
0.4835,0.0822,0.7677,-0.3706,0.469,0.401,-0.5688,0.5688,-2.0475,83.57987613315305,32.596858427953194,0.13942995740185174,23.203999999997905
0.4733,0.0901,0.7691,-0.3703,0.4691,0.4039,-1.12,0.9887,-2.5375,83.47734325945757,32.31592176619584,0.13972424166456707,23.220000000001164
0.4705,0.0867,0.7587,-0.3698,0.4689,0.4033,-0.6475,0.525,-2.4675,83.47785608367501,32.18107668408912,0.13283931749783534,23.235000000000582
0.4951,0.0867,0.7467,-0.3698,0.4689,0.4033,-0.5425,1.0063,-2.38,83.47152048234422,32.34594880349559,0.13404610575100395,23.25100000000384
0.4931,0.0916,0.7621,-0.3711,0.4712,0.4028,0.1663,0.8925,-2.5113,83.34437421219913,32.429846661010195,0.1326902451695916,23.265999999995984
0.4792,0.0827,0.7697,-0.3699,0.469,0.4022,-0.4112,0.6913,-2.2838,83.37596264894096,32.38896843303602,0.1293759406546605,23.281999999999243
0.4799,0.0838,0.763,-0.3712,0.4687,0.4049,-0.4638,0.63,-1.9425,83.38007576830462,32.30771370238008,0.12551034659104265,23.298000000002503
0.4931,0.0869,0.7468,-0.371,0.4694,0.4038,-0.1575,0.8662,-2.2487,83.37589146536898,32.33516693377898,0.1246530119314846,23.31300000000192
0.4901,0.0816,0.7555,-0.371,0.4694,0.4038,-0.5337,0.3938,-2.1437,83.4011792283955,32.36913749343536,0.11785843073949143,23.32900000000518
0.4968,0.0834,0.7632,-0.3708,0.4687,0.4114,-0.3325,1.365,-2.2925,83.44652101029331,32.405937751617266,0.12450008765588867,23.343999999997322
0.4812,0.0858,0.7519,-0.3706,0.4693,0.4025,-0.4288,0.4812,-2.4325,83.4484636960739,32.413749099968186,0.11897935889171148,23.360000000000582
0.4785,0.0813,0.7623,-0.3707,0.4681,0.4048,-0.7875,0.7525,-2.2925,83.55878783382465,32.38343157011794,0.11791742299982026,23.375999999996566
0.4975,0.0898,0.7418,-0.3698,0.4694,0.4082,-0.315,1.4175,-2.1175,83.49500412837617,32.500673297994126,0.12526193070837796,23.39100000000326
0.4921,0.0839,0.7466,-0.3698,0.4694,0.4082,-0.5163,0.7437,-2.275,83.4986604427354,32.539077275764576,0.12344501763485191,23.406999999999243
0.4792,0.0916,0.7706,-0.3711,0.4686,0.4006,-0.6212,1.0675,-2.2313,83.46336402248626,32.5288199867402,0.12551176587080748,23.42199999999866
0.4807,0.09,0.7563,-0.3706,0.4692,0.4037,-0.3237,0.8662,-2.3975,83.43046350404563,32.48775509537739,0.12543386928626787,23.43800000000192
0.4932,0.085,0.7446,-0.3707,0.469,0.4042,-0.7,0.6825,-2.5113,83.44093560911654,32.682496972998514,0.12271848235517405,23.453999999997905
0.4898,0.0904,0.7642,-0.3707,0.469,0.4042,-0.6737,1.0237,-2.1613,83.40994858198796,32.67126123895625,0.12426658411912037,23.468999999997322
0.4858,0.0822,0.7607,-0.3705,0.4697,0.4036,-0.6737,0.98,-2.2662,83.47987537969114,32.65959734661508,0.12595192571008335,23.485000000000582
0.4837,0.0858,0.7465,-0.3699,0.4694,0.4047,-0.7525,0.6737,-2.0738,83.47196318631002,32.67361494963412,0.12245168313872208,23.5
0.4887,0.0885,0.7602,-0.3714,0.4698,0.4049,-0.63,0.5775,-2.2838,83.45693807130061,32.666702706799796,0.11852251482654405,23.51600000000326
0.4856,0.0836,0.761,-0.3707,0.4702,0.4105,-0.7525,0.6125,-2.17,83.5163651033686,32.65362240608251,0.11549026334167564,23.531999999999243
0.4949,0.0881,0.7557,-0.3707,0.4702,0.4105,-0.2625,0.805,-2.38,83.48723121885907,32.70767155371249,0.11480873700708637,23.54699999999866
0.4817,0.0827,0.7526,-0.3701,0.4698,0.3964,-0.2187,0.6737,-2.205,83.53666262904855,32.70432703628685,0.11302914330835416,23.56300000000192
0.4867,0.0812,0.7612,-0.3706,0.4689,0.4054,-0.6037,1.2862,-2.2138,83.57921503145387,32.702999983590516,0.11908992897684495,23.57800000000134
0.4908,0.0912,0.7688,-0.3703,0.4697,0.406,-0.7437,0.8138,-2.3012,83.50637729703432,32.677913099818475,0.11889965608154787,23.5940000000046
0.4909,0.0773,0.7518,-0.3703,0.4697,0.406,-0.8313,1.0325,-2.4762,83.66990595071645,32.74491452999237,0.1218776904696609,23.610000000000582
0.4829,0.0895,0.7577,-0.3708,0.4698,0.3994,-0.77,1.3212,-2.625,83.57741998760095,32.625295561342604,0.12752612142200268,23.625
0.4934,0.0833,0.7711,-0.3699,0.4692,0.4058,-0.2013,0.9187,-2.485,83.632714657759,32.5912041962469,0.1280027892764816,23.640999999995984
0.4899,0.0763,0.7448,-0.371,0.4683,0.4039,-0.7,0.875,-2.5287,83.72771216296789,32.73473339343019,0.12701501035410487,23.656000000002678
0.4832,0.0975,0.7543,-0.371,0.4697,0.4066,-0.5688,1.0325,-2.695,83.63442734258986,32.635859520909946,0.1291815093217234,23.672000000005937
0.4882,0.0842,0.7551,-0.3725,0.4697,0.4066,-0.5337,0.735,-2.24,83.63458668066409,32.637651678152096,0.1268473583820812,23.687999999994645
0.4853,0.0873,0.7433,-0.3709,0.4691,0.3994,-0.8487,0.4462,-2.3187,83.54401587298952,32.66697627681981,0.12018632254656121,23.70300000000134
0.4791,0.0919,0.7486,-0.3712,0.469,0.4037,-0.9712,0.77,-2.4237,83.36412696606112,32.62581968597173,0.11925569028912178,23.718999999997322
0.4948,0.0852,0.7637,-0.3706,0.4696,0.4055,-0.7437,0.8925,-2.4588,83.42126383955028,32.65518478352327,0.11937887125974204,23.73399999999674
0.4893,0.0906,0.7699,-0.3706,0.4696,0.4055,-0.6212,0.6737,-2.6513,83.40436954670112,32.53571865979779,0.11714226413574426,23.75
0.4801,0.0779,0.7519,-0.3714,0.4701,0.4169,-0.875,1.1025,-2.3712,83.59867565443983,32.520470684133684,0.12130403771818463,23.765999999995984
0.4933,0.0843,0.7589,-0.37,0.469,0.405,-0.4375,0.665,-2.9225,83.60097292219363,32.66247475643742,0.11815113395037245,23.781000000002678
0.4926,0.0916,0.745,-0.3704,0.4694,0.405,0.1575,1.0325,-2.5988,83.36433744132249,32.83122695864953,0.12120402055160304,23.79699999999866
0.4786,0.0742,0.7651,-0.3716,0.4707,0.3999,-0.875,1.0762,-2.3888,83.67732695291234,32.69708595741829,0.12361231849587895,23.81199999999808
0.4858,0.0882,0.7786,-0.3716,0.4707,0.3999,-0.5863,0.9625,-2.5463,83.66333398318413,32.475346467118854,0.12511108664911472,23.82800000000134
0.4987,0.0834,0.7549,-0.3713,0.4701,0.4101,-0.4638,0.5512,-2.38,83.66370673243439,32.58829489979218,0.12053725798221084,23.843999999997322
0.4952,0.0824,0.7544,-0.371,0.4694,0.4062,-0.4025,0.595,-2.0825,83.67069995459097,32.65285355532655,0.11651603218757434,23.859000000004016
0.4806,0.0892,0.7635,-0.3704,0.4692,0.4054,-0.1925,0.4988,-2.1613,83.59694852053552,32.61802618202987,0.1120471489670139,23.875
0.4849,0.0783,0.7651,-0.3704,0.4692,0.4054,-0.77,0.9712,-1.9425,83.72430461706396,32.534114373476065,0.11395363406980374,23.889999999999418
0.4865,0.0959,0.7412,-0.3704,0.4684,0.4074,0.0613,0.6125,-2.59,83.34129372706762,32.67691150374101,0.11137827066060937,23.9059999999954
0.4929,0.0907,0.7504,-0.3714,0.4702,0.4039,-0.2975,0.4812,-2.7738,83.30606978055792,32.83092225933795,0.10716972359596012,23.92199999999866
0.4943,0.0849,0.7507,-0.371,0.4701,0.4038,-0.9187,1.0938,-2.3187,83.38023983182984,32.86402072219216,0.11121905124295371,23.937000000005355
0.4844,0.0908,0.7663,-0.371,0.4701,0.4038,-0.6388,1.0675,-2.3975,83.36089467471305,32.75102213916743,0.11546914611479965,23.95300000000134
0.4816,0.085,0.762,-0.3701,0.4702,0.403,-0.9363,1.225,-2.0213,83.44737871814206,32.64917090163069,0.12045973150267794,23.968000000000757
0.4925,0.0916,0.7505,-0.3698,0.4702,0.407,-0.805,0.8225,-2.1788,83.3467452582774,32.665818156484995,0.12025775834943706,23.98399999999674
0.4936,0.0938,0.7535,-0.3695,0.4691,0.4049,-0.4812,0.945,-2.38,83.34422539373988,32.715801190931536,0.12183998251726566,24.0
0.4746,0.0802,0.7618,-0.3705,0.4692,0.405,-0.49,1.085,-2.3363,83.3534733714127,32.617683420452195,0.12430348426497072,24.014999999999418
0.4803,0.0903,0.7649,-0.3705,0.4692,0.405,-0.35,0.98,-2.1525,83.34384720093966,32.5758978530899,0.12598513583493123,24.0309999999954
0.4942,0.0798,0.7479,-0.3712,0.4686,0.4055,-0.84,0.91,-2.3363,83.49499890623193,32.652666327922326,0.1256716222569204,24.046000000002095
0.4923,0.0826,0.7519,-0.3706,0.47,0.4053,-0.7525,0.525,-1.96,83.54617457678106,32.7358682820443,0.12066446002933066,24.06199999999808
0.4824,0.0865,0.7526,-0.3703,0.4698,0.4057,-0.42,0.98,-2.3363,83.5407772122314,32.709886183235234,0.12271001402927259,24.07800000000134
0.4839,0.0833,0.7574,-0.3703,0.4698,0.4057,-0.6737,0.945,-2.0475,83.57104633228107,32.66719892142187,0.12319651262585027,24.093000000000757
0.4774,0.0839,0.7657,-0.3697,0.469,0.4022,-0.4375,0.9187,-2.485,83.57747944398623,32.482777270183846,0.12410614135994442,24.10899999999674
0.489,0.0857,0.7559,-0.3721,0.469,0.4022,-0.6737,0.77,-2.3537,83.56990989051262,32.51243856681262,0.12209052722858885,24.124000000003434
0.4911,0.083,0.7465,-0.3716,0.4694,0.4037,-0.315,1.0762,-2.03,83.58175899859333,32.61827809037333,0.12537875450183986,24.139999999999418
0.4773,0.0853,0.7498,-0.3697,0.4693,0.4058,-0.385,1.05,-2.6337,83.57578241212806,32.52877214101416,0.12796087905473622,24.156000000002678
0.481,0.0837,0.7588,-0.3697,0.4693,0.4058,-0.3675,1.05,-2.555,83.58841345669369,32.449597254139086,0.12933979114183675,24.17099999999482
0.49,0.0907,0.7612,-0.3706,0.4698,0.4102,-0.4025,0.84,-2.4237,83.56233764959141,32.472888912068306,0.12850181203011737,24.18699999999808
0.4926,0.0935,0.7585,-0.3705,0.4698,0.4034,-0.3762,0.7088,-2.4062,83.50908031707795,32.5251406393657,0.1252204308313758,24.202000000004773
0.4935,0.0869,0.7613,-0.3721,0.4692,0.4054,-0.0437,1.1725,-1.6363,83.50273884595474,32.6202968646308,0.129582387744,24.218000000000757
0.4824,0.0899,0.7498,-0.3721,0.4692,0.4044,-0.5688,1.2075,-2.625,83.47373528226828,32.60585739976319,0.1340121489731424,24.234000000004016
0.4735,0.0873,0.757,-0.3711,0.4703,0.4044,-0.595,0.735,-2.4062,83.46815876957072,32.487592228013256,0.1305334340706301,24.24899999999616
0.4925,0.0858,0.7474,-0.37,0.4687,0.4051,-0.385,0.8838,-2.3012,83.46675407330896,32.54253233987028,0.13020681066615986,24.264999999999418
0.4967,0.091,0.7374,-0.3699,0.4694,0.4046,-0.525,0.5688,-2.4413,83.4430727403862,32.76454162596834,0.12486492960297059,24.280000000006112
0.475,0.0809,0.7637,-0.3702,0.4695,0.405,-0.6475,0.8487,-3.0013,83.51793423142013,32.31363700092127,0.12459971663960574,24.296000000002095
0.4829,0.0867,0.7718,-0.3702,0.4695,0.405,-0.665,1.2862,-2.3888,83.5295055694545,32.24954132744616,0.13066102497099594,24.31199999999808
0.4976,0.0828,0.753,-0.371,0.4696,0.4113,-1.0938,1.015,-2.59,83.60418299320362,32.53366516726468,0.13129742247336462,24.326999999997497
0.488,0.0844,0.7449,-0.3714,0.469,0.4038,-0.875,0.735,-1.9162,83.58464408874696,32.65654568342359,0.1287516802281844,24.343000000000757
0.4936,0.092,0.7473,-0.3722,0.4691,0.4054,-0.7175,1.33,-2.2575,83.46714099179198,32.678452974809936,0.1338315122046692,24.358000000000175
0.4798,0.0798,0.7623,-0.3722,0.4691,0.4054,-0.5337,0.945,-1.9775,83.49777201204252,32.55546350996851,0.1340563609807864,24.37399999999616
0.482,0.0831,0.748,-0.3709,0.4698,0.4159,-1.0412,0.4462,-1.8637,83.55662236204341,32.57692244235103,0.12707600488401677,24.389999999999418
0.4903,0.0848,0.7463,-0.3705,0.4697,0.3986,-0.4112,0.6388,-2.2575,83.55425616468953,32.59763387383893,0.12299220439528044,24.404999999998836
0.4967,0.0809,0.7474,-0.3715,0.4708,0.4033,-0.56,0.7262,-2.17,83.57514247498091,32.63759000571313,0.12115026395788282,24.421000000002095
0.4767,0.0946,0.7702,-0.3712,0.4693,0.4033,-0.525,1.12,-2.2838,83.54789481873584,32.57218331505116,0.12415523755417365,24.435999999994237
0.4771,0.0814,0.7546,-0.3712,0.4693,0.4033,-0.56,1.3038,-2.2575,83.57091086821312,32.556669847425205,0.1305144338025812,24.451999999997497
0.4972,0.0911,0.752,-0.3714,0.4693,0.3986,-0.5863,1.3913,-1.9775,83.52319514466629,32.69732042959397,0.1374977104264047,24.468000000000757
0.5015,0.0941,0.7472,-0.371,0.4681,0.4068,-0.1838,1.015,-2.4938,83.36488824454013,32.90487475725688,0.1374504393832325,24.483000000000175
0.4782,0.0842,0.7536,-0.3694,0.4686,0.4042,-0.875,0.7613,-2.3888,83.43907501988653,32.807891454536325,0.13466811544714266,24.499000000003434
0.4866,0.0942,0.7657,-0.3694,0.4686,0.4042,-0.315,1.2687,-2.1088,83.37648348204847,32.75165928495618,0.13832875389345586,24.513999999995576
0.4877,0.0916,0.7561,-0.3705,0.4695,0.4024,-0.7525,0.7,-2.0125,83.31485608811246,32.73135111559013,0.13457587850616384,24.529999999998836
0.4885,0.0833,0.7493,-0.3706,0.4701,0.4005,-0.9625,0.8838,-1.8988,83.42673393199608,32.7822526690696,0.13384501065814025,24.546000000002095
0.4943,0.0943,0.7582,-0.3702,0.4696,0.405,-0.0962,0.805,-2.555,83.28473190367863,32.812122409048605,0.13132800959190452,24.561000000001513
0.4865,0.0769,0.7602,-0.3697,0.4686,0.4049,-0.5863,0.5775,-2.38,83.37841488699988,32.76682171110146,0.12651120863440826,24.577000000004773
0.4865,0.0842,0.7574,-0.3697,0.4686,0.4049,-0.3762,0.5512,-2.5025,83.40352768983918,32.71981411912371,0.12130128776706924,24.591999999996915
0.4851,0.0808,0.7544,-0.3704,0.47,0.4026,-1.12,0.7613,-2.7912,83.59287039705342,32.6738997601356,0.12013387899259571,24.608000000000175
0.4874,0.0793,0.7658,-0.3702,0.4685,0.4034,-1.0588,1.015,-2.1263,83.77528027274819,32.64530569445444,0.12273649109631381,24.624000000003434
0.4919,0.0881,0.7571,-0.3699,0.4695,0.4045,-0.84,1.0237,-2.0738,83.66504156082154,32.66956285817572,0.12428279197944257,24.638999999995576
0.4859,0.0759,0.766,-0.3699,0.4695,0.4045,-0.6475,0.945,-2.1263,83.76429247975408,32.63498034177042,0.12546251278427065,24.654999999998836
0.4849,0.0823,0.7603,-0.3702,0.4681,0.4027,-0.4375,1.3125,-2.1175,83.76640283120815,32.61126388266913,0.130635011505156,24.669999999998254
0.4843,0.0837,0.7567,-0.3702,0.4685,0.4014,-1.0412,1.015,-2.3712,83.73809816609018,32.5915342905922,0.13218751035761808,24.686000000001513
0.487,0.0772,0.7554,-0.3694,0.4687,0.4046,-0.9887,0.875,-2.1788,83.88280879470226,32.59472531495175,0.13156875932442325,24.702000000004773
0.4839,0.0941,0.763,-0.3709,0.4691,0.405,-0.7437,1.2862,-2.2487,83.6895999015384,32.58298672666379,0.13577558338288462,24.716999999996915
0.4844,0.0924,0.7515,-0.3697,0.4694,0.4046,-0.7525,0.84,-2.4588,83.53792965066016,32.58811092200364,0.13429402504706045,24.733000000000175
0.4848,0.0905,0.7519,-0.3701,0.469,0.3995,-0.455,0.84,-2.1788,83.5298808238864,32.58954365119998,0.13220462254191437,24.747999999999593
0.4895,0.082,0.7615,-0.3716,0.4698,0.403,-1.05,0.6212,-2.2575,83.64812830503408,32.58931125954052,0.12792944028954534,24.764000000002852
0.4901,0.0922,0.768,-0.3701,0.4691,0.4048,-0.2625,0.5425,-2.4938,83.56141858304206,32.53953551977878,0.12294849626218232,24.780000000006112
0.4884,0.0786,0.7444,-0.3693,0.4691,0.4041,-0.7875,1.0063,-2.7825,83.6591967638912,32.74993712693405,0.12423869662884729,24.794999999998254
0.486,0.0839,0.7538,-0.3693,0.4691,0.4041,-0.3063,1.015,-2.4237,83.657716008671,32.73309031445785,0.12643082696894023,24.811000000001513
0.4863,0.0839,0.7608,-0.3715,0.4706,0.4041,-0.5775,1.1463,-2.1788,83.66227191562955,32.721363853541725,0.12926279427144569,24.82600000000093
0.4905,0.0767,0.7461,-0.3708,0.4707,0.4037,-0.8138,0.4462,-2.1437,83.78064898364295,32.75372633252739,0.1227617948456101,24.84200000000419
0.4898,0.092,0.7701,-0.371,0.4693,0.4026,-0.2537,0.7962,-2.4413,83.67297121857062,32.66641477733537,0.12195089535817107,24.858000000000175
0.4879,0.0814,0.7545,-0.371,0.4693,0.4026,0.0088,0.7875,-1.96,83.72825189402681,32.681116243389155,0.12038705582194141,24.872999999999593
0.4903,0.0772,0.7641,-0.3704,0.4699,0.4044,-0.3938,1.3913,-2.345,83.76619576633679,32.666998908333085,0.1283830702438289,24.889000000002852
0.4866,0.0926,0.7431,-0.3703,0.4691,0.4016,-0.315,0.8138,-2.1263,83.64597320788388,32.69658309685488,0.12653106321901966,24.90400000000227
0.4922,0.0797,0.7552,-0.3716,0.4676,0.4051,-0.805,0.98,-2.555,83.72766963222284,32.760123851832915,0.1279899568935753,24.919999999998254
0.4841,0.093,0.7609,-0.3712,0.4696,0.4038,-0.3762,1.085,-2.5638,83.66481283328868,32.63529159184151,0.13081496120029584,24.935999999994237
0.4818,0.0898,0.7576,-0.3712,0.4696,0.4038,-0.5775,0.8313,-2.5025,83.62549765927037,32.55544942042928,0.12895601508527443,24.95100000000093
0.4878,0.0855,0.7586,-0.3706,0.4694,0.4041,-0.9013,0.5425,-2.4762,83.60876388963966,32.56002260544222,0.12387241357833852,24.96700000000419
0.4876,0.0903,0.7693,-0.3705,0.4675,0.4055,-0.5337,0.8138,-2.5025,83.59206649808203,32.47839195153226,0.12247147221474929,24.981999999996333
0.4934,0.0796,0.7573,-0.3703,0.4696,0.4046,-0.8138,0.735,-2.3625,83.69510446268572,32.53650513931652,0.12080832499543062,24.997999999999593
0.4857,0.087,0.7678,-0.3703,0.4696,0.4046,-0.5075,0.7788,-2.1,83.69014707997411,32.49561832270736,0.11994221249307244,25.013999999995576
0.4876,0.0806,0.7546,-0.37,0.4698,0.4041,-0.77,0.4812,-1.8112,83.73863439780372,32.561011083895266,0.11444419124666418,25.02900000000227
0.4847,0.0794,0.7502,-0.3702,0.4697,0.4042,-0.9013,1.085,-2.1088,83.80426639863072,32.57688850313594,0.11862377212518078,25.04500000000553
0.4815,0.0904,0.7607,-0.3701,0.47,0.4033,-0.455,1.015,-2.7125,83.79260065746655,32.4362543106788,0.1204638949054844,25.05999999999767
0.4907,0.0833,0.7487,-0.3714,0.4677,0.4044,-0.5075,0.4462,-2.4588,83.78821944254264,32.56068477612971,0.11484278541624494,25.07600000000093
0.4879,0.0798,0.7501,-0.3714,0.4677,0.4044,-0.42,1.015,-2.205,83.79553389736863,32.56529256314046,0.11797450687095153,25.091999999996915
0.4832,0.09,0.7598,-0.3699,0.4702,0.4008,-0.4725,0.98,-2.345,83.7938993748789,32.532707781948375,0.11940705618976039,25.10700000000361
0.4945,0.0819,0.7521,-0.3713,0.4691,0.4061,-0.6913,0.2537,-2.2225,83.79236553134876,32.534936047503045,0.11111963056986729,25.122999999999593
0.483,0.094,0.7588,-0.3712,0.4685,0.4048,-0.8225,0.5425,-2.1613,83.5723097438551,32.521069842984936,0.10733141751259635,25.13799999999901
0.4873,0.0839,0.7665,-0.3712,0.4685,0.4048,-0.6212,1.0412,-2.0125,83.59533661664024,32.481822212984504,0.11159155576439125,25.15400000000227
0.4847,0.0806,0.753,-0.3707,0.4687,0.4051,-0.56,0.805,-4.2525,83.6183333798355,32.574918077794294,0.1120244001850423,25.169999999998254
0.4872,0.0915,0.7613,-0.3695,0.469,0.4052,-0.42,0.9975,-2.0475,83.59353600512802,32.55389048551673,0.11428821017254749,25.185000000004948
0.4894,0.085,0.7643,-0.3698,0.4691,0.4047,-0.4988,1.19,-2.1613,83.59491523657871,32.54946289619425,0.11999538914319871,25.200999999993655
0.4869,0.0864,0.7527,-0.3698,0.4692,0.4022,-1.0063,0.6475,-2.1525,83.54531042962437,32.560524010867304,0.11673710023277971,25.21600000000035
0.4857,0.0978,0.7571,-0.3698,0.4692,0.4022,-1.2337,0.4638,-2.5638,83.15466615044123,32.53633121560014,0.11174211021086237,25.23200000000361
0.4896,0.0928,0.7555,-0.3713,0.4682,0.4045,-0.3762,0.6125,-2.1613,83.14045351367473,32.54796742500165,0.10938789918756214,25.247999999999593
0.4875,0.0796,0.7559,-0.3716,0.4697,0.4054,-0.3762,0.9275,-2.5287,83.2170523271676,32.578080168693866,0.11097035926832004,25.26299999999901
0.4868,0.0809,0.766,-0.3716,0.4697,0.4054,-0.5337,0.9275,-2.5812,83.25854244743982,32.502184472402,0.1132293233381354,25.278999999994994
0.4871,0.0917,0.7543,-0.3699,0.471,0.4043,-0.3237,0.5775,-2.31,83.23351061974054,32.51548951101054,0.10970264100780101,25.294000000001688
0.4907,0.0825,0.7505,-0.3708,0.4692,0.4046,-0.9975,0.77,-2.0475,83.40271630872996,32.58941268133303,0.10982037690927984,25.310000000004948
0.4864,0.0853,0.7574,-0.371,0.47,0.4034,-0.2013,0.9363,-2.1525,83.43963825423563,32.5866123723389,0.11232105921496742,25.32600000000093
0.4964,0.0838,0.7565,-0.3708,0.4698,0.4022,-0.0787,0.8662,-3.0275,83.50761228936253,32.821496253935216,0.11278265329301691,25.34100000000035
0.4907,0.0804,0.7634,-0.3708,0.4698,0.4022,-1.085,0.6125,-2.6688,83.68948451738616,32.74924481512821,0.11032438796150122,25.356999999996333
0.481,0.0938,0.7618,-0.3693,0.4685,0.4034,-0.3063,1.1287,-2.4237,83.58690176654741,32.63450500752767,0.11452939917215094,25.372000000003027
0.4908,0.0827,0.7587,-0.3702,0.4695,0.405,-0.7437,0.9975,-2.415,83.62757024286397,32.65253808323535,0.11744045925133018,25.38799999999901
0.4828,0.0977,0.7593,-0.3703,0.4696,0.4046,-0.5425,0.7437,-2.0563,83.56729414378417,32.59447286394229,0.11640569332837894,25.40400000000227
0.484,0.0894,0.7513,-0.3703,0.4696,0.4046,-0.28,0.6562,-2.3712,83.50953721986485,32.596153672329606,0.11362382399519728,25.419000000001688
0.4843,0.0853,0.7499,-0.3716,0.4702,0.4021,-0.9538,0.6475,-2.4588,83.50987570940559,32.613829894796865,0.11158544159333704,25.43499999999767
0.483,0.0929,0.753,-0.371,0.4695,0.4029,-0.7613,0.1488,-2.555,83.38915133447792,32.58045889747925,0.10243569743489978,25.450000000004366
0.482,0.0894,0.7616,-0.3705,0.47,0.4043,-0.6913,0.3588,-2.2313,83.37421419821472,32.57524781159327,0.09735884769011285,25.46600000000035
0.4846,0.0886,0.7545,-0.37,0.4676,0.405,-0.6388,0.6388,-1.9425,83.36414598071565,32.56624062200158,0.0968216829187925,25.481999999996333
0.4878,0.0891,0.7593,-0.37,0.4676,0.405,-0.6125,0.805,-2.0825,83.35728800686269,32.56310730841448,0.09800701463176298,25.497000000003027
0.4867,0.0824,0.7605,-0.3716,0.469,0.3994,-0.56,0.455,-2.0825,83.39304924643419,32.551511512101705,0.094758313166942,25.51299999999901
0.4869,0.0899,0.762,-0.3704,0.4682,0.4044,-0.665,0.7262,-2.2313,83.37366789431677,32.54964723120588,0.0950861818546228,25.528000000005704
0.4843,0.0838,0.7654,-0.3702,0.469,0.4033,-0.5425,1.0938,-2.1525,83.39742265139381,32.52592668646314,0.10132828365804417,25.543999999994412
0.4908,0.0859,0.7473,-0.3702,0.469,0.4033,-0.4988,1.0588,-2.4675,83.39845674025703,32.64480371228614,0.10644217529534593,25.55999999999767
0.4848,0.0872,0.753,-0.3706,0.4693,0.4067,-0.5688,1.785,-2.03,83.39810825862169,32.637837119529266,0.11989545777656507,25.575000000004366
0.4879,0.087,0.759,-0.3716,0.4683,0.4058,-0.8838,1.26,-2.4062,83.416353839783,32.62616809464845,0.12604991199435406,25.59100000000035
0.4773,0.0854,0.7535,-0.3712,0.4702,0.4034,-0.5337,1.3125,-2.73,83.42281675586877,32.4776105622659,0.13116367079423108,25.605999999999767
0.4946,0.0883,0.7488,-0.3713,0.4707,0.4093,-0.9887,0.84,-2.52,83.3725562426408,32.65955651773125,0.13014330371177163,25.62199999999575
0.4867,0.087,0.7526,-0.3713,0.4707,0.4093,-0.56,0.6913,-2.38,83.37515643655095,32.6675549298903,0.1270836933426225,25.63799999999901
0.4842,0.0871,0.771,-0.3722,0.4686,0.41,-0.665,0.98,-2.2925,83.40374876619653,32.619519357196715,0.12760532400784685,25.65299999999843
0.4812,0.0849,0.7508,-0.3702,0.4697,0.4058,-0.525,1.0762,-2.0213,83.41057604967051,32.59836057234423,0.13034207161021938,25.669000000001688
0.4906,0.0871,0.7607,-0.3713,0.4685,0.4055,-0.7262,1.0762,-2.0825,83.42210553813725,32.60450808258718,0.13183656444863368,25.684000000001106
0.4956,0.0875,0.7631,-0.3713,0.4685,0.4055,-0.5775,1.0938,-2.24,83.42550375053108,32.60917399756011,0.13440362799981656,25.69999999999709
0.4864,0.0849,0.7452,-0.3711,0.4697,0.4049,-0.7962,0.9275,-2.5638,83.44368313982368,32.70015960430338,0.13431926520255588,25.71600000000035
0.4742,0.0885,0.7641,-0.3711,0.4687,0.4039,-0.4025,0.9712,-2.2662,83.44025612130126,32.652948570369965,0.13399853868179154,25.730999999999767
0.479,0.0853,0.7647,-0.3707,0.468,0.4039,-0.525,0.9887,-4.3313,83.44945206789734,32.1442591222587,0.1348359648165129,25.747000000003027
0.4909,0.0892,0.7587,-0.3714,0.4703,0.4004,-0.07,0.9275,-2.2487,83.40476175519572,32.161011499771554,0.13387361833437572,25.762000000002445
0.4938,0.0873,0.7565,-0.3714,0.4703,0.4004,-0.2537,0.9538,-2.4237,83.40701825383907,32.29694396099664,0.13422097649749046,25.77799999999843
0.4788,0.0838,0.7485,-0.371,0.4699,0.4053,-0.77,0.9712,-2.0475,83.45363741392529,32.318534253863525,0.13478415885059059,25.794000000001688
0.4816,0.0845,0.7549,-0.3715,0.4703,0.4046,-0.35,0.9975,-2.1437,83.47142241458474,32.32248318902725,0.13477199296500897,25.809000000001106
0.4917,0.0843,0.7592,-0.3709,0.4683,0.4042,-0.2362,0.9275,-2.3975,83.50859508362348,32.39017172602208,0.13465079366515545,25.82499999999709
0.4839,0.0871,0.765,-0.3713,0.4698,0.4037,-0.6825,1.0237,-2.4588,83.50789116360832,32.3435018131283,0.13500566430480718,25.840000000003783
0.4824,0.0854,0.7425,-0.3698,0.4706,0.4054,-0.63,0.5075,-2.3537,83.49865076056861,32.402431482805504,0.12881309787249198,25.855999999999767
0.484,0.0899,0.7621,-0.37,0.4699,0.4062,-0.2713,0.735,-1.8813,83.460267998398,32.36147940823468,0.12651578808739902,25.872000000003027
0.4912,0.085,0.7568,-0.3713,0.4688,0.4038,-0.5337,0.735,-2.2662,83.46749835788707,32.38222875839679,0.12378670927346104,25.88699999999517
0.4856,0.0875,0.7525,-0.3713,0.4688,0.4038,-1.015,0.5337,-1.9512,83.43244895348764,32.44084629838876,0.11909331834768065,25.90299999999843
0.4859,0.0856,0.7629,-0.3696,0.47,0.4098,-0.4288,0.5163,-2.3275,83.4398313273415,32.43012854288675,0.11415403651264211,25.917999999997846
0.4889,0.084,0.748,-0.3701,0.4679,0.4042,-0.6913,0.8925,-2.1875,83.46694253099466,32.447672617218785,0.11559063286399619,25.934000000001106
0.4832,0.087,0.7652,-0.3698,0.4689,0.405,-0.245,1.0762,-2.2575,83.47567544619268,32.43497509490954,0.11952884958075378,25.950000000004366
0.4909,0.0856,0.7524,-0.3698,0.4689,0.405,-0.6475,0.8662,-2.555,83.4806266102385,32.565479391405326,0.11926966461655245,25.964999999996508
0.4821,0.0849,0.7498,-0.3706,0.4688,0.4062,-0.4288,0.5688,-2.275,83.48326998641875,32.56593433241863,0.11553341815656586,25.980999999999767
0.4909,0.0867,0.7541,-0.3713,0.4692,0.4049,-0.2625,1.0588,-2.4675,83.47592117620657,32.63070313188184,0.1182738763403546,25.995999999999185
0.4886,0.0827,0.756,-0.371,0.4695,0.4046,-0.0613,1.2075,-2.345,83.55828576397056,32.64061483080722,0.12383448870986154,26.012000000002445
0.4833,0.0867,0.7509,-0.3698,0.4691,0.4044,0.1312,1.4963,-2.3975,83.5036948212888,32.63355847021821,0.13299775984326503,26.028000000005704
0.4825,0.0829,0.7558,-0.3698,0.4691,0.4044,-0.6212,0.7525,-2.3012,83.53381759743698,32.61572683745289,0.12985673385361668,26.042999999997846
0.4916,0.0917,0.7502,-0.3687,0.47,0.4042,-0.4288,0.665,-2.24,83.51139801123125,32.624498890637135,0.1264470604702059,26.059000000001106
0.4929,0.0887,0.7468,-0.3701,0.4686,0.4054,-0.42,0.3938,-2.6425,83.49642456781424,32.80797603506968,0.11911865442297903,26.074000000000524
0.4848,0.0849,0.7454,-0.3716,0.4691,0.4043,0.0088,0.77,-2.1788,83.49827450228193,32.81041059947,0.11829478898294005,26.090000000003783
0.4857,0.0897,0.7546,-0.3704,0.471,0.4036,-0.4988,0.455,-2.4762,83.49195493555729,32.76424879932189,0.11301731008300137,26.105999999999767
0.4865,0.0878,0.7449,-0.3704,0.471,0.4036,-0.4375,0.735,-2.4938,83.48411489736765,32.8082053225996,0.11163807907431618,26.120999999999185
0.4907,0.0872,0.7581,-0.3703,0.4678,0.4065,-0.49,0.98,-2.7125,83.48346077822835,32.78648866123429,0.11458627116975956,26.137000000002445
0.4878,0.0888,0.7447,-0.3701,0.4695,0.4052,-0.3063,0.42,-2.5025,83.44244600114835,32.8426680904506,0.10879764404981326,26.151999999994587
0.4887,0.0858,0.7584,-0.3697,0.4698,0.4057,-0.315,0.9975,-2.205,83.45668376764162,32.83975278316754,0.11228187964775828,26.167999999997846
0.4886,0.087,0.7618,-0.3697,0.4698,0.4057,-0.4375,0.9712,-2.6513,83.45771481882454,32.739215655438805,0.11503897168583165,26.184000000001106
0.4895,0.087,0.7521,-0.3709,0.4702,0.4001,-0.6475,0.77,-2.24,83.44947475499325,32.7421950623456,0.1139300745168451,26.199000000000524
0.4903,0.0814,0.761,-0.3708,0.4685,0.4053,-0.4812,0.9013,-2.0475,83.45200814278407,32.7279405830589,0.1155157870678047,26.215000000003783
0.4953,0.0859,0.7538,-0.3699,0.4691,0.4048,-0.3413,1.0237,-2.6163,83.45754954846075,32.84463160625391,0.11778415835378438,26.229999999995925
