AcclX,AcclY,AcclZ,MagX,MagY,MagZ,GyroX,GyroY,GyroZ,Roll,Pitch,Yaw,Time(s)
-0.8612,0.8189,-0.0582,0.0748,0.0051,-0.0508,-180.2238,-19.9587,87.3775,0,0,0,0.11181666666664114
-0.8246,0.8373,-0.05,0.0748,0.0051,-0.0508,-180.2238,-19.9587,87.3775,0,0,0,0.11181666666664114
-0.774,0.8369,-0.0297,0.0622,-0.0111,-0.0224,-187.1975,-28.3325,82.81,0,0,0,0.11208333333331666
-0.774,0.8369,-0.0297,0.0622,-0.0111,-0.0224,-187.1975,-28.3325,82.81,0,0,0,0.11208333333331666
-0.7553,0.9229,0.0095,0.0622,-0.0111,-0.0224,-190.4263,-33.95,79.59,0,0,0,0.11208333333331666
-0.7553,0.9229,0.0095,0.0511,-0.0248,0.0094,-195.0813,-38.3512,74.9875,0,0,0,0.11233333333336759
-0.7236,0.9689,0.0445,0.0511,-0.0248,0.0094,-195.0813,-38.3512,74.9875,0,0,0,0.11233333333336759
0.3516,-0.0231,0.8601,-0.4339,0.2841,0.3992,0.3588,1.1113,-3.5525,0,0,0,0.11259999999992942
0.3516,-0.0231,0.8601,-0.4344,0.285,0.4023,-0.7175,1.3038,-2.3363,0,0,0,0.11259999999992942
0.3074,-0.0828,0.8233,-0.4344,0.285,0.4023,-0.7175,1.3038,-2.3363,0,0,0,0.11259999999992942
0.3455,-0.0553,0.8674,-0.4344,0.285,0.4023,-0.4462,0.9013,-2.6775,0,0,0,0.11259999999992942
0.3455,-0.0553,0.8674,-0.4339,0.2851,0.4018,-0.4462,0.9013,-3.4913,0,0,0,0.11284999999998035
0.3392,-0.0461,0.8359,-0.4339,0.2851,0.4018,0.1925,0.8662,-3.4913,0,0,0,0.11284999999998035
0.3392,-0.0461,0.8359,-0.4339,0.2851,0.4018,-0.7175,1.2513,-1.6275,0,0,0,0.11284999999998035
0.329,-0.0743,0.8531,-0.4339,0.2851,0.4018,-0.7175,1.2513,-1.6275,0,0,0,0.11284999999998035
0.3134,-0.0367,0.8316,-0.4346,0.2852,0.3942,0.2362,1.1287,-3.3338,0,0,0,0.11284999999998035
0.3276,-0.0367,0.8316,-0.4346,0.2852,0.3942,0.2362,1.1287,-3.3338,0,0,0,0.11284999999998035
0.3352,-0.0627,0.8452,-0.4346,0.2852,0.3942,-0.84,0.56,-2.9225,0,0,0,0.11284999999998035
0.3352,-0.0627,0.8452,-0.4342,0.2854,0.4007,-0.84,0.56,-2.9225,0,0,0,0.11284999999998035
0.3298,-0.0681,0.8732,-0.4342,0.2854,0.4007,-0.3675,0.875,-2.3625,0,0,0,0.11284999999998035
0.3298,-0.0681,0.8732,-0.4342,0.2854,0.4007,-0.3675,0.875,-2.3625,0,0,0,0.11779999999998836
0.3341,-0.0516,0.8436,-0.4342,0.2854,0.4007,-0.875,0.35,-3.01,0,0,0,0.11805000000003929
0.3339,-0.0568,0.8425,-0.4336,0.2842,0.4014,-0.805,0.6388,-2.5812,0,0,0,0.11805000000003929
0.3339,-0.0568,0.8425,-0.4336,0.2842,0.4014,-0.805,0.6388,-2.5812,0,0,0,0.11805000000003929
0.3268,-0.0594,0.8489,-0.4336,0.2842,0.4014,-0.3762,1.2862,-2.6163,0,0,0,0.11831666666660112
0.3268,-0.0594,0.8489,-0.4331,0.284,0.3922,-0.3762,1.2862,-2.6163,0,0,0,0.11831666666660112
0.3351,-0.0571,0.8467,-0.4331,0.284,0.3922,-0.3588,0.9538,-3.0712,0,0,0,0.11831666666660112
0.3346,-0.0608,0.8254,-0.4331,0.284,0.3922,-0.3588,0.9538,-3.0712,0,0,0,0.11858333333327664
0.3346,-0.0608,0.8254,-0.4344,0.2852,0.399,-0.4112,1.0412,-2.8525,0,0,0,0.11858333333327664
0.3248,-0.0526,0.8577,-0.4344,0.2852,0.399,-0.4112,1.0412,-2.8525,0,0,0,0.11858333333327664
0.3248,-0.0526,0.8577,-0.4344,0.2852,0.399,-0.2625,0.8925,-2.6688,0,0,0,0.11858333333327664
0.3346,-0.0589,0.8255,-0.4344,0.2852,0.399,-0.2625,0.8925,-2.6688,0,0,0,0.11858333333327664
0.319,-0.0537,0.8498,-0.4343,0.2855,0.3885,-0.77,0.7788,-2.6425,0,0,0,0.11858333333327664
0.3277,-0.0537,0.8498,-0.4343,0.2855,0.3885,-0.4375,1.0412,-2.5287,0,0,0,0.11858333333327664
0.3343,-0.058,0.8593,-0.4343,0.2855,0.3885,-0.4375,1.0412,-2.5287,0,0,0,0.11858333333327664
0.3343,-0.058,0.8593,-0.4345,0.2841,0.398,-0.9625,0.7088,-2.73,0,0,0,0.11883333333332757
0.3303,-0.0636,0.8409,-0.4345,0.2841,0.398,-0.9625,0.7088,-2.73,0,0,0,0.11883333333332757
0.3303,-0.0636,0.8409,-0.4345,0.2841,0.398,-0.35,0.9975,-2.8788,0,0,0,0.11883333333332757
0.32,-0.0477,0.8413,-0.4345,0.2841,0.398,-0.35,0.9975,-2.8788,0,0,0,0.11883333333332757
0.3331,-0.0651,0.85,-0.4334,0.284,0.397,-0.7,1.1463,-2.4062,0,0,0,0.11883333333332757
0.3331,-0.0651,0.85,-0.4334,0.284,0.397,-0.7,1.1463,-2.4062,0,0,0,0.11883333333332757
0.3343,-0.0562,0.8488,-0.4334,0.284,0.397,-0.665,0.9187,-3.1588,0,0,0,0.11883333333332757
0.3343,-0.0562,0.8488,-0.4337,0.2847,0.401,-0.665,0.9187,-3.0013,0,0,0,0.11883333333332757
0.3345,-0.0511,0.8472,-0.4337,0.2847,0.401,-0.0613,1.0237,-3.0013,0,0,0,0.11883333333332757
0.3299,-0.0645,0.845,-0.4337,0.2847,0.401,-0.525,0.9887,-2.4762,0,0,0,0.11910000000000309
0.3299,-0.0645,0.845,-0.4342,0.2854,0.4001,-0.525,0.9887,-2.4762,0,0,0,0.11910000000000309
0.33,-0.0496,0.8551,-0.4342,0.2854,0.4001,-0.42,1.2425,-2.7125,0,0,0,0.11910000000000309
0.33,-0.0496,0.8551,-0.4342,0.2854,0.4001,-0.42,1.2425,-2.7125,0,0,0,0.11910000000000309
0.3328,-0.059,0.8523,-0.4342,0.2854,0.4001,-1.1375,0.98,-2.3712,0,0,0,0.11910000000000309
0.3328,-0.0615,0.8571,-0.434,0.2846,0.3979,-1.1375,0.98,-2.3712,0,0,0,0.11910000000000309
0.3387,-0.0615,0.8571,-0.434,0.2846,0.3979,-0.3762,0.7,-2.8175,0,0,0,0.11910000000000309
0.3223,-0.0522,0.8367,-0.434,0.2846,0.3979,-0.3762,0.7,-2.8175,0,0,0,0.11910000000000309
0.3223,-0.0522,0.8367,-0.4334,0.2853,0.3969,-0.3413,1.12,-2.7037,0,0,0,0.11910000000000309
0.3303,-0.0633,0.8377,-0.4334,0.2853,0.3969,-0.3413,1.1025,-2.38,0,0,0,0.11910000000000309
0.3303,-0.0633,0.8377,-0.4334,0.2853,0.3969,-0.8575,1.1025,-2.38,0,0,0,0.11910000000000309
0.3334,-0.055,0.866,-0.4334,0.2853,0.3969,-0.6388,0.4638,-2.73,0,0,0,0.11910000000000309
0.3348,-0.0539,0.8479,-0.4334,0.284,0.4074,-0.6388,0.4638,-2.73,0,0,0,0.11934999999994034
0.3348,-0.0539,0.8479,-0.4334,0.284,0.4074,-0.6737,0.455,-2.73,0,0,0,0.11934999999994034
0.3307,-0.0609,0.8456,-0.4334,0.284,0.4074,-0.6737,0.455,-2.73,0,0,0,0.11934999999994034
0.3307,-0.0609,0.8456,-0.4341,0.2838,0.3971,-0.035,0.9187,-2.7912,0,0,0,0.11934999999994034
0.3282,-0.0534,0.8364,-0.4341,0.2838,0.3971,-0.035,0.9187,-2.7912,0,0,0,0.11934999999994034
0.3306,-0.0611,0.8541,-0.4341,0.2838,0.3971,-0.3938,0.9363,-3.185,0,0,0,0.11934999999994034
0.3306,-0.0611,0.8541,-0.4329,0.285,0.4095,-0.3938,0.9363,-3.185,0,0,0,0.11934999999994034
0.3312,-0.0605,0.848,-0.4329,0.285,0.4095,-0.91,0.945,-3.0275,0,0,0,0.11934999999994034
0.3312,-0.0605,0.848,-0.4329,0.285,0.4095,-0.4375,0.8575,-2.6513,0,0,0,0.11934999999994034
0.3263,-0.0565,0.8538,-0.4329,0.285,0.4095,-0.4375,0.8575,-2.6513,0,0,0,0.11934999999994034
0.3263,-0.0572,0.8644,-0.4341,0.2839,0.407,-0.6737,0.84,-2.7912,0,0,0,0.11934999999994034
0.3331,-0.0572,0.8644,-0.4341,0.2839,0.407,-0.6737,0.84,-2.7912,0,0,0,0.11934999999994034
0.3292,-0.0532,0.8417,-0.4341,0.2839,0.407,-0.7262,0.9013,-2.8263,0,0,0,0.11961666666661586
0.3292,-0.0532,0.8417,-0.4331,0.2844,0.3991,-0.7262,0.9013,-2.8263,0,0,0,0.11961666666661586
0.3291,-0.0555,0.8608,-0.4331,0.2844,0.3991,-0.7262,0.7262,-2.73,0,0,0,0.11961666666661586
0.3291,-0.0555,0.8608,-0.4331,0.2844,0.3991,-0.7262,0.7262,-2.73,0,0,0,0.11961666666661586
0.3301,-0.0567,0.8261,-0.4331,0.2844,0.3991,-0.5688,0.875,-3.1237,0,0,0,0.11961666666661586
0.3256,-0.0546,0.8455,-0.4334,0.2841,0.4037,-0.5688,0.875,-3.1237,0,0,0,0.11961666666661586
0.3256,-0.0546,0.8455,-0.4334,0.2841,0.4037,-0.7525,0.8138,-2.7475,0,0,0,0.11961666666661586
0.3301,-0.062,0.8451,-0.4334,0.2841,0.4037,-0.6388,0.7262,-2.7738,0,0,0,0.11961666666661586
0.3301,-0.062,0.8451,-0.4334,0.2847,0.4032,-0.6388,0.7262,-2.7738,0,0,0,0.11961666666661586
0.3309,-0.0582,0.8499,-0.4334,0.2847,0.4032,-0.42,0.49,-2.8963,0,0,0,0.11961666666661586
0.3266,-0.0557,0.8319,-0.4334,0.2847,0.4032,-0.42,0.49,-2.8963,0,0,0,0.11961666666661586
0.3266,-0.0557,0.8319,-0.4335,0.2855,0.4002,-0.5863,0.35,-2.5025,0,0,0,0.11961666666661586
0.3294,-0.0506,0.8475,-0.4335,0.2855,0.4002,-0.5863,0.35,-2.5025,0,0,0,0.11988333333329138
0.3294,-0.0506,0.8475,-0.4335,0.2855,0.4002,-0.6388,1.0675,-2.9488,0,0,0,0.12403333333327282
0.3393,-0.0554,0.8641,-0.4335,0.2855,0.4002,-0.6388,1.0675,-2.9488,0,0,0,0.12403333333327282
0.3393,-0.0554,0.8625,-0.4339,0.2846,0.3986,-0.8662,0.6475,-2.8087,0,0,0,0.12403333333327282
0.3351,-0.0581,0.8625,-0.4339,0.2846,0.3986,-0.8662,0.6475,-2.5988,0,0,0,0.12429999999994834
0.3289,-0.0545,0.8347,-0.4339,0.2846,0.3986,-0.49,1.1287,-2.5988,0,0,0,0.12429999999994834
0.3289,-0.0545,0.8347,-0.4339,0.2839,0.4057,-0.8225,0.8662,-2.7125,0,0,0,0.12429999999994834
0.3262,-0.0589,0.8367,-0.4339,0.2839,0.4057,-0.8225,0.8662,-2.7125,0,0,0,0.12429999999994834
0.3262,-0.0589,0.8367,-0.4339,0.2839,0.4057,-0.6825,0.3325,-2.5988,0,0,0,0.12454999999999927
0.3291,-0.0578,0.8467,-0.4339,0.2839,0.4057,-0.6825,0.3325,-2.5988,0,0,0,0.12454999999999927
0.3346,-0.0581,0.8463,-0.434,0.2833,0.4033,-0.3938,0.7875,-2.5287,0,0,0,0.12454999999999927
0.3346,-0.0581,0.8463,-0.434,0.2833,0.4033,-0.3938,0.7875,-2.5287,0,0,0,0.12454999999999927
0.3343,-0.0623,0.8472,-0.434,0.2833,0.4033,-0.3588,0.9187,-3.1675,0,0,0,0.12454999999999927
0.3343,-0.0623,0.8472,-0.434,0.2846,0.3969,-0.3588,0.9187,-3.1675,0,0,0,0.12454999999999927
0.332,-0.0575,0.8477,-0.434,0.2846,0.3969,-0.4812,1.1725,-3.1675,0,0,0,0.12454999999999927
0.3314,-0.0598,0.85,-0.434,0.2846,0.3969,-0.5775,1.0237,-2.8175,0,0,0,0.12454999999999927
0.3314,-0.0598,0.85,-0.4345,0.2845,0.3978,-0.5775,1.0237,-2.8175,0,0,0,0.12481666666667479
0.3303,-0.0506,0.8469,-0.4345,0.2845,0.3978,-0.1225,1.1463,-2.66,0,0,0,0.12481666666667479
0.3303,-0.0506,0.8469,-0.4345,0.2845,0.3978,-0.1225,1.1463,-2.66,0,0,0,0.12481666666667479
0.3329,-0.0559,0.8381,-0.4345,0.2845,0.3978,-0.1225,1.33,-2.6337,0,0,0,0.12481666666667479
0.3329,-0.0647,0.8527,-0.433,0.2842,0.3988,-0.1225,1.33,-2.6337,76.42039469203982,13.089089098258453,27.873985039649423,0.22126666666667916
0.3367,-0.0647,0.8527,-0.433,0.2842,0.3988,-0.3762,0.9187,-3.045,90.76332267532779,18.700849841749147,38.08717897965283,0.22126666666667916
0.3301,-0.0554,0.8478,-0.433,0.2842,0.3988,-0.3762,0.9187,-3.045,93.1449567531812,20.391914023777037,43.317948095283604,0.22153333333335468
0.3301,-0.0554,0.8478,-0.4338,0.2838,0.4015,-0.5863,0.7962,-2.8437,93.61503952083889,20.933504021466078,45.88912952146832,0.22153333333335468
0.3307,-0.0568,0.8433,-0.4338,0.2838,0.4015,-0.5863,0.7962,-2.8437,93.80367729498477,21.21374673516151,47.43335398567557,0.22153333333335468
0.3307,-0.0568,0.8433,-0.4338,0.2838,0.4015,-0.4725,1.1375,-2.8087,93.84320766288914,21.31278630163521,48.50744465969622,0.22178333333329192
0.3292,-0.0575,0.8398,-0.4338,0.2838,0.4015,-0.6562,0.8487,-2.9488,93.90128731814802,21.3435384844455,48.952988447093354,0.22178333333329192
0.3331,-0.0555,0.8483,-0.435,0.2852,0.3985,-0.6562,0.8487,-2.9488,93.77664553140535,21.378485824887502,49.12763976378044,0.22178333333329192
0.3331,-0.0555,0.8483,-0.435,0.2852,0.3985,-0.805,0.8138,-2.7562,93.7505298348604,21.390031772424912,49.22213293378673,0.22178333333329192
0.326,-0.0517,0.8322,-0.435,0.2852,0.3985,-0.805,0.8138,-2.7562,93.5975940125256,21.36752308513148,49.22576182261655,0.22204999999996744
0.326,-0.0517,0.8322,-0.4335,0.2857,0.3982,-0.42,0.8575,-2.7825,93.56349687242567,21.359209148554687,49.30844784752138,0.22204999999996744
0.3349,-0.0565,0.8474,-0.4335,0.2857,0.3982,-0.42,0.8575,-2.7825,93.76398815457871,21.462120372404367,49.470597102769474,0.22204999999996744
0.345,-0.0652,0.8886,-0.4335,0.2857,0.3982,-0.2362,1.1638,-2.7912,94.11252893335083,21.273974775607133,49.47726012195018,0.22204999999996744
0.345,-0.0652,0.8886,-0.4337,0.2855,0.399,-0.2362,1.1638,-2.7912,94.18019177667719,21.205741407749322,49.479651280867735,0.22204999999996744
0.3272,-0.0626,0.8551,-0.4337,0.2855,0.399,-0.4288,0.5688,-2.5463,94.18565039853745,21.01449905416824,49.39000126026176,0.22204999999996744
0.3272,-0.0626,0.8551,-0.4337,0.2855,0.399,-0.4288,0.5688,-2.625,94.1867512511796,20.93685370621315,49.33113523011896,0.22230000000001837
0.3125,-0.0426,0.7798,-0.4337,0.2855,0.399,-0.4725,0.6825,-2.625,93.3425633507931,21.47221911668364,49.46552015493307,0.22230000000001837
0.3125,-0.0554,0.8682,-0.4345,0.2858,0.4024,-0.9887,1.2775,-2.5988,93.58095947422599,20.426787139643608,48.68900354154368,0.22230000000001837
0.3314,-0.0554,0.8682,-0.4345,0.2858,0.4024,-0.9887,1.2775,-2.5988,93.63515716338287,20.687179006921234,48.898531196219324,0.22230000000001837
0.3534,-0.0704,0.8921,-0.4345,0.2858,0.4024,-1.1113,0.9625,-2.9925,94.30704832505414,21.25828689610331,49.455628786771115,0.22230000000001837
0.3534,-0.0704,0.8921,-0.4343,0.284,0.4021,-1.1113,0.9625,-2.9925,94.46417762264518,21.45131456961697,49.67510232987075,0.22230000000001837
0.3311,-0.0523,0.8309,-0.4343,0.284,0.4021,0.3675,1.7325,-3.2462,93.75153886115451,21.614006946162423,49.687069406278255,0.2225666666666939
0.3311,-0.0523,0.8309,-0.4343,0.284,0.4021,0.3675,1.7325,-3.2462,93.62770592027505,21.664652316250635,49.69152368071203,0.2225666666666939
0.3138,-0.0484,0.8075,-0.4343,0.284,0.4021,-0.595,0.7613,-2.7125,93.47133002174752,21.374592705866114,49.46789989410752,0.2225666666666939
0.3374,-0.0628,0.8461,-0.4342,0.2839,0.4082,-0.595,0.7613,-2.7125,94.08346265232221,21.570106052417856,49.78481835009477,0.2225666666666939
0.3374,-0.0628,0.8461,-0.4342,0.2839,0.4082,-1.0237,0.9013,-2.695,94.20788513368417,21.642808711312014,49.98904556668369,0.2225666666666939
0.3431,-0.061,0.8889,-0.4342,0.2839,0.4082,-0.1225,1.0588,-2.6337,93.97931344720455,21.284504995346833,49.73957032386575,0.2225666666666939
0.3431,-0.061,0.8889,-0.4345,0.2838,0.4007,-0.1225,1.0588,-2.6337,93.93589870212594,21.14668972514048,49.429354309198125,0.2225666666666939
0.328,-0.0625,0.8431,-0.4345,0.2838,0.4007,-0.4462,1.12,-2.9313,94.17817527462995,21.18490889891607,49.40539916227642,0.2225666666666939
0.3232,-0.0483,0.8177,-0.4345,0.2838,0.4007,-0.4462,1.12,-2.9313,93.54187647098153,21.412581820931592,49.37860522319138,0.2225666666666939
0.3232,-0.0483,0.8177,-0.4342,0.2844,0.4053,-0.4812,0.8838,-2.905,93.41333386149596,21.49077857555156,49.49964761136336,0.2225666666666939
0.336,-0.0586,0.848,-0.4342,0.2844,0.4053,-0.4812,0.8838,-2.905,93.8430577480024,21.541157582298286,49.6859496787802,0.2228333333333694
0.336,-0.0586,0.848,-0.4342,0.2844,0.4053,-0.9975,0.5688,-2.3625,93.92800947237698,21.556519458172065,49.76229353468965,0.2228333333333694
0.3419,-0.0645,0.8733,-0.4342,0.2844,0.4053,-0.9975,0.5688,-2.3625,94.156627431141,21.42594034387821,49.76925163282928,0.2228333333333694
0.3419,-0.055,0.8561,-0.434,0.2853,0.3983,-0.56,0.77,-2.8963,93.77548903307971,21.623540314072404,49.75533736980001,0.2228333333333694
0.3306,-0.055,0.8561,-0.434,0.2853,0.3983,-0.56,0.77,-2.8963,93.69653490967814,21.26691292689603,49.48597211718502,0.2228333333333694
0.3237,-0.0587,0.8297,-0.434,0.2853,0.3983,-0.4988,1.225,-2.9313,93.97518585990368,21.265272976279178,49.45960955663557,0.2228333333333694
0.3237,-0.0587,0.8297,-0.4341,0.2843,0.4009,-0.7525,0.7088,-2.7037,94.03138433220708,21.26473241297716,49.45814708744872,0.2228333333333694
0.3305,-0.0548,0.8414,-0.4341,0.2843,0.4009,-0.7525,0.7088,-2.7037,93.79219089098284,21.351558363607516,49.459641169945215,0.2228333333333694
0.3305,-0.0548,0.8414,-0.4341,0.2843,0.4009,-0.49,1.1113,-2.8175,93.73982216518992,21.384875005963135,49.46080372141771,0.2228333333333694
0.3417,-0.0551,0.8696,-0.4341,0.2843,0.4009,-0.49,1.1113,-2.8175,93.64888755512342,21.402749651903445,49.4451775538395,0.22308333333330665
0.3295,-0.0622,0.8422,-0.4343,0.2851,0.3984,-0.245,1.0325,-2.2487,94.11205258422187,21.354325143693107,49.47723758553425,0.22308333333330665
0.3295,-0.0622,0.8422,-0.4343,0.2851,0.3984,-0.245,1.0325,-2.2487,94.20212150792167,21.332461918255415,49.49337532076427,0.22308333333330665
0.3278,-0.0508,0.8308,-0.4343,0.2851,0.3984,0.0175,1.05,-2.66,93.62912746125842,21.433546567233062,49.446119819546325,0.22308333333330665
0.3278,-0.0508,0.8308,-0.4339,0.2856,0.4025,0.0175,1.05,-2.66,93.52311247345799,21.472037643630472,49.55684495690192,0.22308333333330665
0.3262,-0.0571,0.8466,-0.4339,0.2856,0.4025,-0.735,1.1988,-2.9662,93.78644293028024,21.179678389097433,49.453083935337105,0.22308333333330665
0.338,-0.0611,0.8694,-0.4339,0.2856,0.4025,-0.735,1.1988,-2.6775,93.9698319383476,21.19054457440641,49.52471895400345,0.22308333333330665
0.338,-0.0611,0.8694,-0.4337,0.2841,0.4074,-0.8313,0.7875,-2.6775,94.00902247504054,21.194654818031967,49.59705636161992,0.22308333333330665
0.3316,-0.0562,0.8608,-0.4337,0.2841,0.4074,-0.0787,1.085,-2.4325,93.78696831443226,21.096889856342667,49.5042910081847,0.22308333333330665
0.3316,-0.0562,0.8608,-0.4337,0.2841,0.4074,-0.0787,1.085,-2.4325,93.74513949186975,21.056132106806132,49.45879884064666,0.22308333333330665
0.3296,-0.0556,0.8416,-0.4337,0.2841,0.4074,-0.56,0.945,-2.9838,93.77256638932315,21.24689233692167,49.59233421544386,0.22308333333330665
0.3296,-0.0556,0.8279,-0.4346,0.2848,0.4035,-0.56,0.945,-2.9838,93.82769050431794,21.522615313330924,49.7241364898644,0.22308333333330665
0.332,-0.0557,0.8279,-0.4346,0.2848,0.4035,-0.2975,1.19,-2.5375,93.84479943701055,21.693322027512387,49.87798789208975,0.22334999999998217
0.3348,-0.0587,0.8657,-0.4346,0.2848,0.4035,-0.2975,1.19,-2.5375,93.87234716992177,21.336535313036848,49.59250799089319,0.22334999999998217
0.3348,-0.0587,0.8657,-0.4342,0.2845,0.3998,-0.98,1.2075,-2.5375,93.87755454022522,21.19403062215911,49.37764449930169,0.22334999999998217
0.3318,-0.0611,0.8471,-0.4342,0.2845,0.3998,-0.98,1.2075,-2.5375,94.06925084128275,21.281285752567246,49.45183779891971,0.22334999999998217
0.3318,-0.0611,0.8471,-0.4342,0.2845,0.3998,-0.4988,0.8575,-2.6425,94.11400214159677,21.317069322132067,49.48045214884854,0.22334999999998217
0.3289,-0.0536,0.8301,-0.4342,0.2845,0.3998,-0.525,1.295,-2.8,93.78076799705424,21.480823999103617,49.53051578249949,0.22334999999998217
0.3258,-0.0545,0.8503,-0.4348,0.2838,0.399,-0.525,1.295,-2.8,93.69068206530899,21.12629760228903,49.118290751987416,0.22334999999998217
0.3258,-0.0545,0.8503,-0.4348,0.2838,0.399,-0.5163,1.1025,-2.6425,93.67214621831276,21.002514347351653,48.94874358633761,0.22334999999998217
0.3337,-0.0576,0.855,-0.4348,0.2838,0.399,-0.5163,1.1025,-2.6425,93.81674788511084,21.17142399226367,49.07433732790159,0.22334999999998217
0.3337,-0.0576,0.855,-0.4334,0.2845,0.4006,-0.5425,0.385,-2.7825,93.84639240851834,21.2382230334118,49.173270429564965,0.22334999999998217
0.3351,-0.0555,0.8499,-0.4334,0.2845,0.4006,-0.5425,0.385,-2.7825,93.75895441160226,21.390031042168587,49.283886846652045,0.22334999999998217
0.3285,-0.059,0.8391,-0.4334,0.2845,0.4006,-0.6125,0.875,-2.6688,93.96694427290166,21.354006149326967,49.41980741182621,0.22334999999998217
0.3285,-0.059,0.8391,-0.4336,0.2844,0.4016,-0.6125,0.875,-2.6688,94.01050381862453,21.340334380222636,49.501547124102174,0.2236000000000331
0.3242,-0.0534,0.8482,-0.4336,0.2844,0.4016,-0.7,0.7613,-2.8087,93.6894708990426,21.04598869568775,49.293752823525736,0.2236000000000331
0.3242,-0.0534,0.8482,-0.4336,0.2844,0.4016,-0.7,0.7613,-2.8087,93.6209815384283,20.93991374461417,49.172621749710444,0.2236000000000331
0.3395,-0.0565,0.8539,-0.4336,0.2844,0.4016,-0.56,0.77,-2.8525,93.75147627642751,21.391123518430568,49.437221303403426,0.2236000000000331
0.3395,-0.0565,0.8455,-0.4341,0.285,0.3986,-0.4462,0.77,-2.7475,93.8085808212163,21.670301185096353,49.61894234918336,0.2236000000000331
0.3359,-0.0592,0.8455,-0.4341,0.285,0.3986,-0.4462,0.77,-2.7475,93.96539533972576,21.637835784662123,49.6672852543234,0.2236000000000331
0.3281,-0.0531,0.8431,-0.4341,0.285,0.3986,-0.5425,0.6475,-3.1237,93.67846232530125,21.359046705802157,49.49307117262874,0.2236000000000331
0.3281,-0.0531,0.8431,-0.4337,0.2846,0.4086,-0.5425,0.6475,-3.1237,93.61923786909125,21.2688203157953,49.55241741333882,0.2236000000000331
0.3326,-0.0584,0.8363,-0.4337,0.2846,0.4086,-0.5337,0.91,-2.7125,93.91723193043578,21.501500814082558,49.859187880821324,0.2236000000000331
0.3326,-0.0584,0.8363,-0.4337,0.2846,0.4086,-0.5337,0.91,-2.7125,93.97862792629547,21.58836454951654,50.02375106912833,0.2236000000000331
0.3343,-0.0625,0.8601,-0.4337,0.2846,0.4086,-0.35,1.2337,-2.8788,94.12090741872241,21.329375834069083,49.923259662241776,0.2236000000000331
0.3364,-0.0558,0.8477,-0.4346,0.2838,0.4062,-0.35,1.2337,-2.8788,93.83651264733082,21.506596407031378,49.865050958567515,0.2236000000000331
0.3364,-0.0558,0.8477,-0.4346,0.2838,0.4062,-0.2975,0.9712,-3.2812,93.7799110782341,21.573072451571992,49.84149923661414,0.22386666666659494
0.3283,-0.054,0.8428,-0.4346,0.2838,0.4062,-0.2975,0.9712,-2.485,93.68842190648817,21.377648960105915,49.64161932459705,0.22386666666659494
0.3283,-0.054,0.8428,-0.4339,0.2846,0.4018,-0.5775,1.085,-2.485,93.67070289518314,21.29792279859945,49.50359221679275,0.22386666666659494
0.3296,-0.0591,0.8366,-0.4339,0.2846,0.4018,-0.2625,1.19,-2.6425,93.9686137378863,21.394564358943402,49.6197762706704,0.22386666666659494
0.3412,-0.0562,0.8618,-0.4339,0.2846,0.4018,-0.2625,1.19,-2.6425,93.7774529659996,21.49522867337853,49.66216348924066,0.22386666666659494
0.3412,-0.0562,0.8618,-0.4338,0.2843,0.3994,-0.6125,1.3388,-3.185,93.74081499679491,21.53794644545203,49.612422871218364,0.22386666666659494
0.3256,-0.0622,0.8459,-0.4338,0.2843,0.3994,-0.6125,1.3388,-3.185,94.10814578159379,21.171225678578942,49.39863743398247,0.22386666666659494
0.3256,-0.0622,0.8459,-0.4338,0.2843,0.3994,-0.2713,1.1812,-2.6862,94.18643544637811,21.065023719851105,49.310723627842,0.22386666666659494
0.3223,-0.0534,0.8492,-0.4338,0.2843,0.3994,-0.2713,1.1812,-2.6862,93.71315966043406,20.866254298348313,49.01376335557922,0.22386666666659494
0.3223,-0.0533,0.8427,-0.4337,0.2845,0.4005,-0.6037,0.7262,-2.975,93.63875053171321,20.883098862222624,48.99705896759504,0.22386666666659494
0.3433,-0.0533,0.8427,-0.4337,0.2845,0.4005,-0.6037,0.7262,-2.975,93.62319561355028,21.70283135204811,49.46813209783601,0.22386666666659494
0.3319,-0.0584,0.8369,-0.4337,0.2845,0.4005,-1.12,0.9275,-2.6775,93.90534947822445,21.629428290883535,49.61375125570761,0.22386666666659494
0.3319,-0.0584,0.8369,-0.4343,0.2849,0.4023,-0.4988,1.0325,-2.5025,93.97404035681328,21.60286030048874,49.724276120011005,0.22413333333327046
0.3358,-0.0594,0.8577,-0.4343,0.2849,0.4023,-0.4988,1.0325,-2.5025,93.96421848093426,21.443179544089734,49.65497314255078,0.22413333333327046
0.3358,-0.0594,0.8577,-0.4343,0.2849,0.4023,-0.3588,0.9712,-3.15,93.96219493232267,21.36934585802566,49.621214489255784,0.22413333333327046
0.3397,-0.0562,0.8404,-0.4343,0.2849,0.4023,-0.3588,0.9712,-3.15,93.85295596314718,21.77370631552252,49.87114434213778,0.22413333333327046
0.3226,-0.0546,0.8538,-0.4333,0.2837,0.4018,-0.2887,1.2337,-3.0625,93.69707961534569,21.027689428576853,49.28697759400307,0.22413333333327046
0.3226,-0.0546,0.8538,-0.4333,0.2837,0.4018,-0.2887,1.2337,-3.0625,93.66650747300937,20.78137225354451,49.01997265850259,0.22413333333327046
0.3309,-0.0591,0.8458,-0.4333,0.2837,0.4018,-0.7175,1.3475,-2.9575,93.9262497439673,21.13543574350252,49.32293435912191,0.22413333333327046
0.3309,-0.0591,0.8458,-0.4337,0.2859,0.4025,-0.7175,1.3475,-2.9575,93.98187097958947,21.25653757597074,49.558956291950125,0.22413333333327046
0.3415,-0.0592,0.8567,-0.4337,0.2859,0.4025,-0.7262,1.0412,-2.835,93.95918619658678,21.532970402966622,49.81682305618084,0.22413333333327046
0.3331,-0.056,0.8408,-0.4337,0.2859,0.4025,-0.7262,1.0412,-2.835,93.84236496496229,21.55589068644542,49.86175947428979,0.22413333333327046
0.3331,-0.056,0.8408,-0.4349,0.2854,0.396,-0.7262,1.3388,-2.695,93.81730216238084,21.56383405548942,49.62934196041714,0.22413333333327046
0.326,-0.058,0.8519,-0.4349,0.2854,0.396,-0.6825,0.6125,-2.66,93.87837862949445,21.150524679327663,49.34927981697721,0.2243833333333214
0.326,-0.058,0.8519,-0.4349,0.2854,0.396,-0.6825,0.6125,-2.66,93.89136025418595,20.993144474375622,49.17051484494137,0.2243833333333214
0.3357,-0.0545,0.8547,-0.4349,0.2854,0.396,-0.4462,0.735,-2.8175,93.69767412703278,21.256312606156882,49.19520738216999,0.2243833333333214
0.3357,-0.0586,0.8354,-0.4346,0.2854,0.4029,-0.4462,0.735,-2.8175,93.94878429667855,21.63275163894413,49.57907212160353,0.2243833333333214
0.326,-0.0586,0.8354,-0.4346,0.2854,0.4029,-0.315,1.2337,-2.485,93.99993812156247,21.417844559631348,49.581757957768566,0.2243833333333214
0.3331,-0.0606,0.8524,-0.4346,0.2854,0.4029,-0.315,1.2337,-2.485,94.05338466810221,21.34546902020278,49.607809716617254,0.2243833333333214
0.3331,-0.0606,0.8524,-0.4345,0.2846,0.4063,-0.6737,0.7525,-2.8875,94.0637246316725,21.313072441120315,49.65534634476335,0.2243833333333214
0.3314,-0.055,0.8406,-0.4345,0.2846,0.4063,-0.6737,0.7525,-2.8875,93.81143238229811,21.418079509487995,49.70169568562696,0.2243833333333214
0.3314,-0.055,0.8406,-0.4345,0.2846,0.4063,-0.2625,0.8313,-2.6075,93.75675208036135,21.452716897854852,49.730549952913464,0.2243833333333214
0.3296,-0.0577,0.8517,-0.4345,0.2846,0.4063,-0.2625,0.8313,-2.8963,93.8524794748997,21.230936495515447,49.61586230511315,0.2243833333333214
0.3331,-0.0567,0.8387,-0.4334,0.2832,0.3974,-0.8575,1.1375,-2.8963,93.86424239544866,21.48169542222488,49.57364161093778,0.2243833333333214
0.3331,-0.0567,0.8387,-0.4334,0.2832,0.3974,-0.1838,0.9712,-2.5287,93.86693440397138,21.562367081090514,49.555053370114855,0.2243833333333214
0.3309,-0.0561,0.8435,-0.4334,0.2832,0.3974,-0.1838,0.9712,-2.5287,93.8169491994383,21.451195747376236,49.424093302842486,0.2246499999999969
0.3309,-0.0561,0.8435,-0.4337,0.2862,0.4002,-0.28,1.225,-2.695,93.80738624308562,21.404773286580667,49.54272096700035,0.2246499999999969
0.3286,-0.0588,0.8501,-0.4337,0.2862,0.4002,-0.28,1.225,-2.695,93.9275063287016,21.206851722546475,49.48113190439273,0.2246499999999969
0.3313,-0.0558,0.8526,-0.4337,0.2862,0.4002,-0.2713,1.4,-2.8,93.78026239091186,21.198411422957932,49.46062902453925,0.2246499999999969
0.3313,-0.0558,0.8526,-0.4339,0.2844,0.3946,-0.2713,1.4,-2.8,93.75148154912996,21.19536017995004,49.20678608029839,0.2246499999999969
0.3317,-0.0566,0.8529,-0.4339,0.2844,0.3946,-0.6825,1.05,-2.73,93.78707760282832,21.203932685303617,49.130322038706325,0.2246499999999969
0.3317,-0.0566,0.8529,-0.4339,0.2844,0.3946,-0.6825,1.05,-2.73,93.79464344007216,21.20711218097363,49.09216918508156,0.2246499999999969
0.3284,-0.0557,0.8401,-0.4339,0.2844,0.3946,-0.6125,1.0237,-2.4675,93.79354329865006,21.26668897108525,49.11856252776171,0.2246499999999969
0.3284,-0.0558,0.8391,-0.435,0.2844,0.3953,-0.6125,0.8662,-2.7562,93.80225077489024,21.30744185506434,49.10756680461486,0.2246499999999969
0.3276,-0.0558,0.8391,-0.435,0.2844,0.3953,-0.3325,0.8662,-2.7562,93.80410115119446,21.292480408614665,49.08158517017733,0.2246499999999969
0.3301,-0.0581,0.8534,-0.435,0.2844,0.3953,-0.315,0.805,-2.7387,93.87685649556659,21.172559704961145,49.01030105925415,0.2246499999999969
0.3301,-0.0581,0.8534,-0.434,0.2834,0.3994,-0.315,0.805,-2.7387,93.89120004201104,21.12822482640313,49.051754938145436,0.2246499999999969
0.3302,-0.0563,0.8474,-0.434,0.2834,0.3994,-0.4812,0.7962,-2.555,93.81943331216078,21.199495091804806,49.11743473856607,0.22489999999993415
0.3302,-0.0563,0.8474,-0.434,0.2834,0.3994,-0.4812,0.7962,-2.555,93.8048053704693,21.22776366141403,49.1549585483302,0.22489999999993415
0.3334,-0.0579,0.843,-0.434,0.2834,0.3994,0.0,1.05,-2.625,93.9060211567248,21.414799407365983,49.34169728765051,0.22489999999993415
0.3339,-0.0572,0.8541,-0.4347,0.2845,0.4009,0.0,1.05,-2.625,93.8452829222371,21.34981185388921,49.356641593118184,0.22489999999993415
0.3339,-0.0572,0.8541,-0.4347,0.2845,0.4009,-0.6388,0.8225,-2.8788,93.83435436273955,21.32332547663088,49.36314739164608,0.22489999999993415
0.3325,-0.0558,0.8449,-0.4347,0.2845,0.4009,-0.6388,0.8225,-2.8788,93.79027521228413,21.398376324057175,49.41188345636358,0.22489999999993415
0.3325,-0.0558,0.8449,-0.4326,0.2842,0.395,-0.385,0.7962,-2.8963,93.7808668975155,21.424843797065297,49.40316003262824,0.22489999999993415
0.3308,-0.0611,0.8464,-0.4326,0.2842,0.395,-0.3325,0.9187,-2.9225,94.06005719448885,21.341061482184276,49.39837986564482,0.22489999999993415
0.336,-0.055,0.8442,-0.4326,0.2842,0.395,-0.3325,0.9187,-2.9225,93.79335170644393,21.550498663051474,49.48435962637492,0.22489999999993415
0.336,-0.055,0.8442,-0.4333,0.2836,0.4009,-0.6825,0.84,-2.7738,93.74155730381392,21.620917964106475,49.59249351501008,0.22489999999993415
0.3268,-0.0567,0.8499,-0.4333,0.2836,0.4009,-0.6825,0.84,-2.7738,93.80077547971375,21.2202375847147,49.384295761716665,0.22489999999993415
0.3268,-0.0567,0.8499,-0.4333,0.2836,0.4009,-1.12,0.9363,-2.9225,93.81301382358244,21.069676724691064,49.26080972808183,0.22489999999993415
0.3333,-0.0581,0.8503,-0.4333,0.2836,0.4009,-1.12,0.9363,-2.9225,93.88641304278089,21.258744773461395,49.377771440843766,0.22516666666660967
0.3333,-0.0536,0.8511,-0.435,0.2858,0.3946,-0.315,1.4,-2.9225,93.65933647741477,21.3166935422237,49.23178937290927,0.22516666666660967
0.3312,-0.0536,0.8511,-0.435,0.2858,0.3946,-0.315,1.4,-2.9225,93.6145688621985,21.256662583864703,49.1038675008115,0.22516666666660967
0.3284,-0.0558,0.8369,-0.435,0.2858,0.3946,-0.3325,1.5225,-2.9575,93.77497102861415,21.339060453738448,49.18403585670468,0.22516666666660967
0.3284,-0.0558,0.8369,-0.4336,0.285,0.3986,-0.3325,1.5225,-2.9575,93.80670342101736,21.36724334555362,49.3631659554665,0.22516666666660967
0.3294,-0.0572,0.8398,-0.4336,0.285,0.3986,-0.875,1.05,-2.66,93.87658488567256,21.370111805881564,49.43520047198039,0.22516666666660967
0.3294,-0.0572,0.8398,-0.4336,0.285,0.3986,-0.4988,0.9887,-2.6075,93.89241094709114,21.371190358830695,49.47001378754107,0.22516666666660967
0.3321,-0.0553,0.8481,-0.4336,0.285,0.3986,-0.4988,0.9887,-2.6075,93.7637523835603,21.354040282910823,49.44320231386014,0.22516666666660967
0.3319,-0.0573,0.8578,-0.4338,0.2827,0.395,-0.3237,1.0588,-2.8525,93.81018490662348,21.196298098216367,49.14341949695483,0.22516666666660967
0.3319,-0.0573,0.8578,-0.4338,0.2827,0.395,-0.3237,1.0588,-2.8525,93.81935469812981,21.140335037194113,48.99449239150992,0.22516666666660967
0.334,-0.057,0.8485,-0.4338,0.2827,0.395,-0.8925,0.9712,-3.0187,93.83789933088912,21.341234361101876,49.07776362889422,0.22516666666660967
0.334,-0.057,0.8485,-0.4332,0.2859,0.3972,-0.8925,0.9712,-3.0187,93.84202509126308,21.40853993274478,49.333143667295175,0.22516666666660967
0.3384,-0.0585,0.8592,-0.4332,0.2859,0.3972,-0.63,0.9538,-2.7387,93.88391427760997,21.435993812915054,49.47830273994244,0.2254333333332852
0.3322,-0.0564,0.8442,-0.4332,0.2859,0.3972,-0.63,0.9538,-2.7387,93.83515909399954,21.436394127719893,49.5340816486894,0.2254333333332852
0.3322,-0.0564,0.8442,-0.4342,0.2846,0.3969,-0.42,1.0412,-2.905,93.82479537010624,21.436547152684245,49.45141094690923,0.2254333333332852
0.3257,-0.0553,0.8584,-0.4342,0.2846,0.3969,-0.42,1.0412,-2.9838,93.71396189845623,20.97530392252605,49.0576399159856,0.2254333333332852
0.3257,-0.0553,0.8584,-0.4342,0.2846,0.3969,-0.385,0.8313,-2.9838,93.6916101094792,20.818949437159965,48.88360403611164,0.2254333333332852
0.3322,-0.0585,0.8418,-0.4342,0.2846,0.3969,-0.1663,1.1463,-2.9662,93.92097889462961,21.260249927101057,49.194392534083406,0.2254333333332852
0.3322,-0.0574,0.8459,-0.4353,0.2848,0.4002,-0.1663,1.1463,-2.9662,93.88942758062971,21.349759045791814,49.3074009537932,0.2254333333332852
0.3276,-0.0574,0.8459,-0.4353,0.2848,0.4002,-0.9013,0.9887,-2.94,93.88361903764692,21.203057452786574,49.23342514155738,0.2254333333332852
0.332,-0.0542,0.8467,-0.4353,0.2848,0.4002,-0.9013,0.9887,-2.94,93.71193841698675,21.313136495570717,49.2654056800206,0.2254333333332852
0.332,-0.0542,0.8467,-0.4326,0.2838,0.4013,-0.4462,0.875,-2.8437,93.67265731961172,21.35033300387766,49.38455160268745,0.2254333333332852
0.3292,-0.061,0.8319,-0.4326,0.2838,0.4013,-0.4462,0.875,-2.8437,94.08830734340432,21.470709240993635,49.61649113584701,0.2254333333332852
0.3292,-0.061,0.8319,-0.4326,0.2838,0.4013,-0.21,0.9625,-3.0363,94.1734013721085,21.515067896630597,49.750274589418304,0.22568333333333612
0.3314,-0.0564,0.8523,-0.4326,0.2838,0.4013,-0.21,0.9625,-3.0363,93.86079760344623,21.308497408343623,49.59181375135958,0.22568333333333612
0.3323,-0.058,0.8549,-0.4342,0.2842,0.401,-0.56,0.6212,-2.7912,93.8770039207324,21.237269151177326,49.48968241308207,0.22568333333333612
0.3323,-0.058,0.8549,-0.4342,0.2842,0.401,-0.84,0.7262,-2.8875,93.88030710409049,21.210941296563362,49.41781044388838,0.22568333333333612
0.3347,-0.0556,0.8403,-0.4342,0.2842,0.401,-0.84,0.7262,-2.8875,93.80639801690118,21.512320877695185,49.54504111654648,0.22568333333333612
0.3347,-0.0556,0.8403,-0.4338,0.2853,0.3997,-0.5688,1.015,-3.08,93.78988688304406,21.621531951009285,49.67527657104708,0.22568333333333612
0.3305,-0.0584,0.8511,-0.4338,0.2853,0.3997,-0.5688,1.015,-3.08,93.89721054818136,21.322842233653365,49.53466054536158,0.22568333333333612
0.3385,-0.0576,0.8453,-0.4338,0.2853,0.3997,-0.3675,1.1812,-3.045,93.89799784066156,21.626743282462964,49.75663905879842,0.22568333333333612
0.3385,-0.0576,0.8453,-0.4336,0.2832,0.3996,-0.3675,1.1812,-3.045,93.89815467683165,21.72766738700443,49.770607585636526,0.22568333333333612
0.3301,-0.0598,0.8559,-0.4336,0.2832,0.3996,-0.3413,1.7938,-2.9313,93.97712689644145,21.279709780628032,49.35838622252783,0.22568333333333612
0.3301,-0.0598,0.8559,-0.4336,0.2832,0.3996,-0.3413,1.7938,-2.9313,93.9927772320729,21.125107509700424,49.20837571902205,0.22568333333333612
0.3298,-0.0583,0.8387,-0.4336,0.2832,0.3996,-0.28,1.295,-2.555,93.97958039893848,21.302511817151917,49.353339264185756,0.22568333333333612
0.3298,-0.0572,0.8553,-0.4355,0.2834,0.3909,-0.28,1.295,-2.555,93.85613433989107,21.146261358642732,48.882527784668994,0.22595000000001164
0.3325,-0.0572,0.8553,-0.4355,0.2834,0.3909,-0.21,1.1287,-2.59,93.83188445321447,21.179328560160624,48.7613562261201,0.22595000000001164
0.3261,-0.0576,0.8516,-0.4355,0.2834,0.3909,-0.3325,0.98,-2.7387,93.8620131159239,21.00927112808979,48.587184972725375,0.22595000000001164
0.3261,-0.0576,0.8516,-0.4337,0.2836,0.3946,-0.3325,0.98,-2.7387,93.86797347524478,20.94640061975345,48.667662686093465,0.22595000000001164
0.3407,-0.0566,0.8469,-0.4337,0.2836,0.3946,-0.1225,0.98,-2.73,93.83195075717578,21.52762672498511,49.136263141655846,0.22595000000001164
0.3407,-0.0566,0.8469,-0.4337,0.2836,0.3946,-0.1225,0.98,-2.73,93.82510862748728,21.743200330210744,49.37854034640335,0.22595000000001164
0.3377,-0.0562,0.8457,-0.4337,0.2836,0.3946,-0.0175,1.5313,-3.01,93.80624946319045,21.73050885602505,49.44525606474332,0.22595000000001164
0.3348,-0.0569,0.8495,-0.4329,0.2837,0.3998,-0.0175,1.5313,-3.01,93.82718881500716,21.555136301352228,49.526210146778396,0.22595000000001164
0.3348,-0.0569,0.8495,-0.4329,0.2837,0.3998,-0.2713,1.225,-2.7213,93.83104398340599,21.49941413068801,49.55569932323476,0.22595000000001164
0.3354,-0.0539,0.8455,-0.4329,0.2837,0.3998,-0.2713,1.225,-2.7213,93.68347888380941,21.561226577345327,49.59832416970224,0.22595000000001164
0.3354,-0.0539,0.8455,-0.4346,0.2854,0.4006,-0.7788,0.7962,-2.6775,93.65540695647057,21.58400087830265,49.621119886325765,0.22595000000001164
0.3269,-0.0589,0.8407,-0.4346,0.2854,0.4006,-0.7788,0.7962,-2.9925,93.93120303716594,21.330360617795122,49.53246102248912,0.22595000000001164
0.3382,-0.0579,0.8538,-0.4346,0.2854,0.4006,-0.6825,0.7088,-2.9925,93.89052356872766,21.48511256038319,49.603090522480755,0.2261999999999489
0.3382,-0.0579,0.8538,-0.4335,0.2843,0.394,-0.665,0.5163,-2.9838,93.88186861800946,21.537338122262458,49.54549289258302,0.2261999999999489
0.3311,-0.0565,0.8499,-0.4335,0.2843,0.394,-0.665,0.5163,-2.9838,93.8199660776222,21.34209040682542,49.40024153528426,0.2261999999999489
0.3311,-0.0565,0.8499,-0.4335,0.2843,0.394,-0.42,1.0588,-2.835,93.80668394027889,21.27770738500491,49.244873473576526,0.2261999999999489
0.3259,-0.058,0.8574,-0.4335,0.2843,0.394,-0.42,1.0588,-2.835,93.85721825076475,20.950300361718405,48.96080307793403,0.2261999999999489
0.3259,-0.0566,0.8473,-0.3282,-0.0373,0.835,-0.4338,0.2858,0.3932,93.82887397727674,20.977002831037204,52.87645666063495,0.2261999999999489
0.3282,-0.0373,0.835,-0.434,0.2836,0.4046,0.0437,0.5425,-2.8875,92.7917896803575,21.276497879504014,51.630162899506594,0.2261999999999489
0.3334,-0.0737,0.8547,-0.434,0.2836,0.4046,-1.2337,0.4988,-2.1525,94.41398401636121,21.25613341738191,51.08655739527837,0.2261999999999489
0.3334,-0.0737,0.8547,-0.434,0.2836,0.4046,-1.2337,0.4988,-2.1525,94.80453166517135,21.246521572424335,50.7124182272215,0.2261999999999489
0.3368,-0.0457,0.8423,-0.434,0.2836,0.4046,-0.175,0.455,-3.0013,93.431549378921,21.59051748713363,50.412020785414484,0.2261999999999489
0.3313,-0.0554,0.8424,-0.4335,0.2838,0.4053,-0.175,0.735,-2.7475,93.6990945265054,21.4870672214028,50.12660897512522,0.2261999999999489
0.3313,-0.0554,0.8424,-0.4335,0.2838,0.4053,-0.175,0.735,-2.7475,93.75042370832863,21.448945514626754,49.95764126338306,0.2261999999999489
0.3323,-0.0662,0.8506,-0.4335,0.2838,0.4053,-0.4025,0.8225,-2.7125,94.30982853578001,21.343256589605335,49.907356436902006,0.2264666666666244
0.3323,-0.0662,0.8506,-0.4334,0.2832,0.4046,-0.4025,0.8225,-2.7125,94.42204975601003,21.303801049115524,49.846736438353744,0.2264666666666244
0.3306,-0.0462,0.8481,-0.4334,0.2832,0.4046,-0.3675,1.155,-2.7738,93.37785041953367,21.28090748506627,49.5155467888154,0.2264666666666244
0.3306,-0.0653,0.8571,-0.4334,0.2832,0.4046,-0.3675,1.155,-2.7738,94.16177198610842,21.12600325775557,49.50800504131505,0.2264666666666244
0.3354,-0.0653,0.8571,-0.4334,0.2833,0.4001,-0.9887,1.365,-2.6163,94.3124502440178,21.241920996309027,49.54325133834553,0.2264666666666244
0.3353,-0.0605,0.8637,-0.4333,0.2833,0.4001,-0.9887,1.365,-2.6163,94.0763488771043,21.197617194359697,49.408219071265364,0.2264666666666244
0.3353,-0.0605,0.8637,-0.4333,0.2833,0.4001,-0.4025,1.1375,-2.7037,94.02081563844274,21.180106813992545,49.35479490152442,0.2264666666666244
0.3236,-0.0489,0.8522,-0.4333,0.2833,0.4001,-0.4025,1.1375,-2.7037,93.43187684156811,20.918408334070246,48.974015501319485,0.2264666666666244
0.3236,-0.0489,0.8522,-0.4346,0.2847,0.4002,-0.665,1.1725,-2.6775,93.31537895049364,20.82097138396955,48.79075787289652,0.2264666666666244
0.335,-0.0624,0.8412,-0.4346,0.2847,0.4002,-1.295,0.8138,-2.7562,94.0158862612783,21.352102955784055,49.255807976223906,0.2264666666666244
0.3243,-0.0534,0.8566,-0.4346,0.2847,0.4002,-1.295,0.8138,-2.7562,93.67682014715358,20.93914550141784,49.00898902251448,0.2264666666666244
0.3243,-0.0534,0.8566,-0.4338,0.2842,0.3938,-0.3325,1.225,-2.8437,93.58886455446257,20.784713365919192,48.70573789607809,0.22673333333329992
0.3299,-0.0546,0.8403,-0.4338,0.2842,0.3938,-0.3325,1.225,-2.8437,93.69218836057442,21.177060974644835,48.94761990055728,0.22673333333329992
0.3299,-0.0546,0.8403,-0.4338,0.2842,0.3938,-0.5425,1.2075,-2.5113,93.71241042577411,21.30634122884398,49.05785614855087,0.22673333333329992
0.3353,-0.0608,0.8428,-0.4338,0.2842,0.3938,-0.5425,1.2075,-2.5113,94.04078951845517,21.507494025256232,49.319079006405765,0.22673333333329992
0.3358,-0.0501,0.8438,-0.4345,0.2842,0.4033,-0.49,0.9975,-2.7213,93.52917745070891,21.6070478972811,49.47736865488041,0.22673333333329992
0.3358,-0.0501,0.8438,-0.4345,0.2842,0.4033,-0.49,0.9975,-2.7213,93.42471011379823,21.644091419037835,49.558474205811486,0.22673333333329992
0.3329,-0.065,0.8453,-0.4345,0.2842,0.4033,-0.7262,1.1725,-2.5725,94.18852323491646,21.51931528366825,49.695462507104644,0.22673333333329992
0.3329,-0.065,0.8453,-0.4338,0.2851,0.4019,-0.7262,0.98,-2.5375,94.35239154205125,21.47061189749795,49.7943947530789,0.22673333333329992
0.335,-0.054,0.8639,-0.4338,0.2851,0.4019,-0.245,0.98,-2.5375,93.72758216159623,21.2825515707878,49.56133232874837,0.22673333333329992
0.329,-0.0529,0.8391,-0.4338,0.2851,0.4019,-0.4988,1.19,-2.9838,93.63195738846656,21.340949913596102,49.54389061979497,0.22673333333329992
0.329,-0.0529,0.8391,-0.4338,0.2835,0.3992,-0.4988,1.19,-2.9838,93.61239637983626,21.36074606937468,49.395438984646674,0.22673333333329992
0.3351,-0.0628,0.839,-0.4333,0.2835,0.3992,-1.015,1.4088,-2.8963,94.12782470001505,21.592473018326213,49.69135925448876,0.22673333333329992
0.3351,-0.0628,0.839,-0.4333,0.2835,0.3992,-1.015,1.4088,-2.8963,94.24570856087192,21.67342611673708,49.81659265758324,0.22698333333335086
0.33,-0.053,0.8561,-0.4333,0.2835,0.3992,-0.6562,1.2775,-2.9488,93.69119985785979,21.25950211079118,49.35361995160696,0.22698333333335086
0.33,-0.053,0.8249,-0.4348,0.285,0.3946,-0.6562,1.2775,-2.9488,93.67938067892993,21.590361575626122,49.43094607140058,0.22698333333335086
0.3258,-0.0547,0.8251,-0.4348,0.285,0.3946,-0.8225,1.1025,-2.7475,93.76801095247734,21.53598867032094,49.360450721884895,0.22698333333335086
0.3115,-0.0556,0.8073,-0.4348,0.285,0.3946,-0.8225,1.1025,-2.7475,93.90218845365565,21.231501809725874,49.139969486012994,0.22698333333335086
0.3115,-0.0556,0.8073,-0.4348,0.2834,0.4073,-1.2775,1.4612,-2.5725,93.93066929325984,21.12381100892762,49.26249015996222,0.22698333333335086
0.3463,-0.0723,0.9197,-0.4348,0.2834,0.4073,-1.3212,1.1113,-2.5287,94.35615595594807,20.79498405227504,49.19005104764416,0.23118333333331975
0.3463,-0.0723,0.9197,-0.4348,0.2834,0.4073,-1.3212,1.1113,-2.5287,94.46079737574382,20.663183553072436,49.15497921713843,0.23118333333331975
0.3536,-0.0777,0.903,-0.4348,0.2834,0.4073,0.7,0.8662,-2.9575,94.84288303689523,21.09063760288937,49.52732186743084,0.23143333333337068
0.3116,-0.0332,0.8299,-0.4342,0.2851,0.4119,0.7,0.8662,-2.9575,92.71011604310445,20.744407951124106,49.094861477587834,0.23143333333337068
0.3116,-0.0332,0.8299,-0.4342,0.2851,0.4119,0.175,0.6913,-2.8263,92.3662551689742,20.62887785878283,48.888073603608184,0.23143333333337068
0.3152,-0.0575,0.7926,-0.4342,0.2851,0.4119,0.175,0.6913,-2.8263,93.82875450591752,21.274746689185,49.487207309154336,0.23169999999993252
0.3152,-0.0575,0.7926,-0.4339,0.2837,0.398,-1.715,0.9275,-2.3187,94.0620234158486,21.477369717963608,49.5789778735687,0.23169999999993252
0.342,-0.0573,0.8551,-0.4339,0.2837,0.398,-1.715,0.9275,-2.3187,93.89583172768431,21.63342517167436,49.624595258389675,0.23169999999993252
0.3411,-0.0572,0.8792,-0.4339,0.2837,0.398,-0.0875,1.5838,-2.695,93.7550983530488,21.340275576636067,49.28857407664152,0.23169999999993252
0.3411,-0.0572,0.8792,-0.4339,0.2853,0.3982,-0.0875,1.5838,-0.455,93.72854408449817,21.2755791092172,49.247661072914774,0.23169999999993252
0.3418,-0.084,0.8544,-0.4345,0.2853,0.3982,-0.8313,1.4787,-2.135,95.20091854421754,21.502648749797107,49.90740262854996,0.23169999999993252
0.3418,-0.084,0.8544,-0.4345,0.2853,0.3982,0.3413,1.0675,-3.1937,95.5426904487092,21.643596603635,50.14008810747453,0.23169999999993252
0.3309,-0.0321,0.8402,-0.4345,0.2853,0.3982,0.3413,1.0675,-3.1937,92.7735436592713,21.533142522397352,49.47928797093265,0.23196666666660803
0.3309,-0.0321,0.8301,-0.4332,0.2846,0.4028,0.0088,1.0063,-3.01,92.31812238180252,21.656435094704083,49.414489188024355,0.23196666666660803
0.3279,-0.0544,0.8301,-0.4332,0.2846,0.4028,0.0088,1.0063,-3.01,93.48422067320313,21.561014353026525,49.59268930960593,0.23196666666660803
0.3358,-0.0718,0.8524,-0.4332,0.2846,0.4028,-1.26,0.8487,-2.31,94.49242994441171,21.489131125414257,49.82275319861108,0.23196666666660803
0.3358,-0.0718,0.8524,-0.4338,0.2858,0.4019,-1.26,0.8487,-2.31,94.73670574219155,21.457550538074983,49.95099263913173,0.23196666666660803
0.3382,-0.0381,0.8534,-0.4338,0.2858,0.4019,-0.3675,1.2775,-3.1762,92.99063337734877,21.553817388000418,49.63736320609308,0.23196666666660803
0.3382,-0.0381,0.8534,-0.4338,0.2858,0.4019,-0.3675,1.2775,-3.1762,92.64279911075009,21.584452361296314,49.4968261895185,0.23196666666660803
0.3351,-0.0782,0.8382,-0.4338,0.2858,0.4019,-1.1287,0.5512,-2.2662,94.69899286247721,21.65119832196648,49.8508278068016,0.23196666666660803
0.3335,-0.0611,0.8507,-0.4341,0.2846,0.4115,-1.1287,1.2425,-2.8612,94.24686085871998,21.460815985399737,49.972233990512095,0.23221666666665897
0.3335,-0.0611,0.8507,-0.4341,0.2846,0.4115,0.1838,1.2425,-2.8612,94.13301707659704,21.393480831573175,50.02750277876262,0.23221666666665897
0.3234,-0.0382,0.8472,-0.4341,0.2846,0.4115,-0.4375,0.91,-3.22,92.89510853334282,21.036959068184867,49.52911574799514,0.23221666666665897
0.3234,-0.0382,0.8472,-0.435,0.2857,0.402,-0.4375,0.91,-3.22,92.64501791561491,20.92506290544338,49.080886695798625,0.23221666666665897
0.3381,-0.0727,0.8548,-0.435,0.2857,0.402,-0.8575,1.3038,-2.6862,94.37200442116854,21.28935063261317,49.63645564694899,0.23221666666665897
0.3213,-0.0477,0.8444,-0.435,0.2857,0.402,-0.8575,1.3038,-2.6862,93.4845941754042,20.98564362044605,49.15478617237985,0.23221666666665897
0.3213,-0.0477,0.8444,-0.435,0.2859,0.3986,0.14,0.8225,-2.9575,93.2786752090947,20.86470997626444,48.932180389244685,0.23221666666665897
0.3439,-0.06,0.8549,-0.4341,0.2859,0.3986,0.14,0.8225,-2.9575,93.88149313410965,21.522677085734035,49.421492230677124,0.23221666666665897
0.3439,-0.06,0.8549,-0.4341,0.2859,0.3986,-1.1638,0.7525,-2.6862,93.98311788611889,21.73575823641492,49.682359911680095,0.23221666666665897
0.3309,-0.0637,0.8434,-0.4341,0.2859,0.3986,-1.1638,0.7525,-2.6862,94.23963697635602,21.505868146737406,49.68680773787486,0.23221666666665897
0.3309,-0.0637,0.8434,-0.4348,0.2855,0.404,-0.0787,1.1725,-2.7475,94.30422374566204,21.418010263314116,49.76466417907046,0.23221666666665897
0.3274,-0.0475,0.8502,-0.4348,0.2855,0.404,-0.455,1.1638,-2.625,93.42207674527326,21.18039721203974,49.39428103514579,0.23248333333333449
0.3384,-0.0685,0.857,-0.4348,0.2855,0.404,-0.455,1.1638,-2.625,94.33721446906623,21.36751892180499,49.73593605070753,0.23248333333333449
0.3384,-0.0685,0.857,-0.4333,0.2834,0.398,-0.0787,1.26,-3.1675,94.52609723383574,21.447590552700404,49.73461749142097,0.23248333333333449
0.3281,-0.0516,0.8419,-0.4333,0.2834,0.398,-0.0787,1.26,-3.1675,93.6991867526441,21.31661502382355,49.38801271544118,0.23248333333333449
0.3281,-0.0516,0.8419,-0.4333,0.2834,0.398,-0.0962,1.4787,-2.6513,93.54353940703416,21.278682126282316,49.21988179378983,0.23248333333333449
0.3276,-0.0565,0.8497,-0.4333,0.2834,0.398,-0.0962,1.4787,-2.6513,93.75495964618527,21.13220731796626,49.1024947816303,0.23248333333333449
0.3345,-0.0659,0.8334,-0.4334,0.2834,0.4069,-1.5575,0.5337,-2.73,94.32111436281586,21.556901712925303,49.53705098377358,0.23248333333333449
0.3345,-0.0659,0.8334,-0.4334,0.2834,0.4069,-1.5575,0.5337,-2.73,94.46894161320508,21.714418557086912,49.82912088473354,0.23248333333333449
0.325,-0.0487,0.8474,-0.4334,0.2834,0.4069,-0.1225,1.225,-3.1588,93.51325111485825,21.1956744855944,49.43500093470641,0.23248333333333449
0.325,-0.0487,0.8474,-0.4348,0.2837,0.3994,-0.1225,1.225,-3.1588,93.33172793498062,21.029675532802152,49.01824644513541,0.23248333333333449
0.3281,-0.0685,0.8392,-0.4348,0.2837,0.3994,-0.6562,1.5925,-2.9925,94.38433032298444,21.20164964354841,49.32846038497032,0.23248333333333449
0.336,-0.0581,0.85,-0.4348,0.2837,0.3994,-0.805,1.2075,-2.8788,94.01371038512386,21.410035343449877,49.398283177945295,0.23248333333333449
0.336,-0.0581,0.85,-0.4348,0.2847,0.4027,-0.805,1.2075,-2.8788,93.93283032431201,21.483282047087393,49.55825439987012,0.23273333333327173
0.3319,-0.0506,0.8445,-0.4341,0.2847,0.4027,-0.5163,1.2163,-3.0625,93.53235290437004,21.44127985391059,49.5133073896028,0.23273333333327173
0.3319,-0.0506,0.8445,-0.4341,0.2847,0.4027,-0.5163,1.2163,-3.0625,93.45013690533455,21.42741172069603,49.49259877605845,0.23273333333327173
0.3322,-0.0693,0.8459,-0.4341,0.2847,0.4027,-0.8662,1.05,-2.7912,94.41068005677175,21.394453221713725,49.707490591673626,0.23273333333327173
0.3322,-0.0693,0.8459,-0.4346,0.2852,0.3925,-0.8662,1.05,-2.7912,94.62313601952388,21.382500407385976,49.578978319428394,0.23273333333327173
0.3342,-0.0484,0.8448,-0.4346,0.2852,0.3925,-0.6037,1.505,-2.94,93.55997516284165,21.493341347092443,49.2837631876672,0.23273333333327173
0.3298,-0.0642,0.8599,-0.4346,0.2852,0.3925,-0.6037,1.505,-2.94,94.12139221455034,21.12402443463709,49.0507258655954,0.23273333333327173
0.3298,-0.0642,0.8599,-0.4329,0.2847,0.4036,-1.2075,0.9363,-2.8175,94.23427335836848,20.99987854081144,49.26320009429484,0.23273333333327173
0.3315,-0.0623,0.8477,-0.4329,0.2847,0.4036,-1.2075,0.9363,-3.0013,94.21069564157271,21.202906372004815,49.53117107161087,0.23273333333327173
0.3315,-0.0623,0.8477,-0.4329,0.2847,0.4036,0.3762,1.2075,-3.0013,94.2045673843814,21.271323870192976,49.69289271333694,0.23273333333327173
0.3296,-0.0558,0.8561,-0.4329,0.2847,0.4036,0.1312,1.295,-2.9925,93.81535959210564,21.102364811227734,49.51207281028288,0.23429999999996198
0.3277,-0.0459,0.813,-0.4339,0.2838,0.4074,0.1312,1.295,-2.9925,93.33717668441167,21.644668026458707,49.806425548338396,0.23429999999996198
0.3277,-0.0459,0.813,-0.4339,0.2838,0.4074,-0.8138,0.8662,-2.625,93.25448876140638,21.814688003582415,49.912619008514426,0.23429999999996198
0.3445,-0.0533,0.8439,-0.4339,0.2838,0.4074,-0.8138,0.8662,-2.625,93.53535566778878,22.03076920812945,50.15129390703454,0.2345666666666375
0.3445,-0.0533,0.8439,-0.4336,0.285,0.4062,-0.9712,0.77,-2.73,93.596154431834,22.116201100058923,50.306942562964984,0.2345666666666375
0.3272,-0.0646,0.8795,-0.4336,0.285,0.4062,-0.9712,0.77,-2.73,94.06394348417972,21.009080061440912,49.76172489051137,0.2345666666666375
0.3204,-0.0634,0.8556,-0.4336,0.285,0.4062,-0.385,1.1463,-2.5638,94.20310480939278,20.688008329700818,49.4344242313381,0.2345666666666375
0.3204,-0.0634,0.8556,-0.4336,0.2834,0.4022,-0.385,1.1463,-2.5638,94.23092405502841,20.561101704307102,49.11500824166109,0.23481666666668843
0.3279,-0.0533,0.8259,-0.4342,0.2834,0.4022,-0.42,1.0325,-2.6425,93.80089305537255,21.209976486962965,49.36554856838345,0.23481666666668843
0.3279,-0.0533,0.8259,-0.4342,0.2834,0.4022,-0.4288,1.2075,-3.0888,93.71436009542494,21.481301391497333,49.50200827673273,0.23481666666668843
0.3325,-0.0436,0.8417,-0.4342,0.2834,0.4022,-0.4288,1.2075,-3.0888,93.116338320258,21.513709002624612,49.361345197898736,0.23508333333336395
0.3325,-0.0436,0.8729,-0.4335,0.2848,0.4042,-1.1113,1.4262,-3.08,92.9195330045854,21.05365031804516,49.035164451702194,0.23508333333336395
0.3369,-0.0648,0.8618,-0.4335,0.2848,0.4042,-1.1113,1.4262,-3.08,93.97720951263378,21.21718486086944,49.50030016849548,0.23508333333336395
0.3259,-0.06,0.8619,-0.4335,0.2848,0.4042,-0.6737,1.2425,-2.5463,93.98109693968965,20.885822766332844,49.29064320363344,0.23508333333336395
0.3259,-0.06,0.8619,-0.434,0.2849,0.4066,-0.6737,1.2425,-2.5463,93.98192165839023,20.75393651569937,49.22979880343349,0.2353333333333012
0.3179,-0.052,0.8437,-0.434,0.2849,0.4066,-0.6825,0.805,-2.8087,93.62358648314256,20.66201836258319,49.103238249035684,0.2353333333333012
0.3179,-0.052,0.8437,-0.434,0.2849,0.4066,-0.6825,0.805,-2.8087,93.54742338827693,20.62889331911608,49.03129409737278,0.2353333333333012
0.3267,-0.0698,0.8472,-0.434,0.2849,0.4066,-0.5863,0.7962,-2.9488,94.46777535435405,20.887680857060154,49.36203373002026,0.23559999999997672
0.3327,-0.0536,0.8712,-0.4342,0.2857,0.3979,-0.5863,0.7962,-2.9488,93.71792266097604,20.872887285336784,49.14393938980433,0.23559999999997672
0.3327,-0.0536,0.8712,-0.4342,0.2857,0.3979,-0.0787,1.1113,-3.15,93.55780823978903,20.867641165281448,48.994005814924094,0.23559999999997672
0.3342,-0.0575,0.8499,-0.4342,0.2857,0.3979,-0.4725,1.1988,-2.59,93.80683735466936,21.204742018736006,49.27272223633607,0.23559999999997672
0.3342,-0.0575,0.8499,-0.4346,0.2843,0.4055,-0.4725,1.1988,-2.59,93.8575061688892,21.33661861817273,49.498140352253316,0.23559999999997672
0.3346,-0.0598,0.8454,-0.4346,0.2843,0.4055,-0.4462,1.05,-2.4938,94.00794818521501,21.45983500097709,49.690505930045894,0.23559999999997672
0.3428,-0.0495,0.8312,-0.4346,0.2843,0.4055,-0.4462,1.05,-2.4938,93.52948213789058,22.00375035321082,50.07398218922584,0.23559999999997672
0.3428,-0.0495,0.8312,-0.4346,0.2859,0.3967,-0.7088,0.9712,-2.7387,93.43402807936137,22.238567285936718,50.12589422536653,0.23559999999997672
0.3413,-0.0632,0.8528,-0.4343,0.2859,0.3967,-0.7088,0.9712,-2.7387,94.06645206062035,21.935515957952287,50.029399845153605,0.23559999999997672
0.3413,-0.0632,0.8528,-0.4343,0.2859,0.3967,-0.0263,1.3125,-2.695,94.20630573125325,21.824556534298253,49.9711267408209,0.23559999999997672
0.3194,-0.0592,0.8579,-0.4343,0.2859,0.3967,-0.0263,1.3125,-2.695,93.99575762362493,20.920367831427594,49.167558702825325,0.23586666666665224
0.3194,-0.0592,0.8556,-0.4334,0.2849,0.4018,-0.3588,0.91,-3.115,93.9655536147566,20.586501476068463,48.99605675302525,0.23586666666665224
0.3292,-0.0567,0.8556,-0.4334,0.2849,0.4018,-0.3588,0.91,-3.1937,93.82603838394994,20.870954153197626,49.12246596908679,0.23586666666665224
0.3406,-0.0584,0.837,-0.4334,0.2849,0.4018,-1.0237,0.3237,-3.1937,93.95337357755476,21.70717053885678,49.3999022162208,0.23586666666665224
0.3406,-0.0584,0.837,-0.4335,0.2837,0.4023,-0.4988,0.8313,-2.59,93.9834860449089,21.9428691805002,49.79903335836447,0.23741666666660421
0.3249,-0.0512,0.8408,-0.4335,0.2837,0.4023,-0.4988,0.8313,-2.59,93.58672244097343,21.424738280313207,49.50640243240928,0.23741666666660421
0.3249,-0.0512,0.8408,-0.4335,0.2837,0.4023,-0.9712,1.0063,-2.7387,93.50779317146643,21.214880662971048,49.32387814231234,0.23741666666660421
0.335,-0.0625,0.8413,-0.4335,0.2837,0.4023,-0.9712,1.0063,-2.7387,94.08091725231438,21.494163570182646,49.64568661805012,0.23768333333327973
0.3314,-0.0562,0.8525,-0.4341,0.2844,0.4006,-0.8575,1.0325,-3.115,93.83995864094635,21.29623087022357,49.46530307692459,0.23768333333327973
0.3314,-0.0562,0.8525,-0.4341,0.2844,0.4006,-0.8575,1.0325,-3.115,93.78676501570395,21.23199170113822,49.37450523073853,0.23768333333327973
0.322,-0.058,0.8523,-0.4341,0.2844,0.4006,-0.3938,1.435,-2.6775,93.87175903275863,20.871950430269003,49.05044596414653,0.23768333333327973
0.322,-0.058,0.8523,-0.4334,0.2843,0.401,-0.3938,1.435,-2.6775,93.88877982703578,20.735761206871196,48.95945322553056,0.23793333333333067
0.3401,-0.0654,0.85,-0.4334,0.2843,0.401,-0.6388,1.0325,-2.5725,94.29213342756927,21.34985716409081,49.53928282420012,0.23793333333333067
0.3329,-0.0463,0.8513,-0.4334,0.2843,0.401,-0.1488,0.7962,-2.7738,93.33817055990988,21.336769907628284,49.40053668386523,0.23793333333333067
0.3329,-0.0463,0.8513,-0.4334,0.2853,0.401,-0.1488,0.7962,-2.7738,93.15606583843035,21.331993508765184,49.35997112221903,0.23820000000000618
0.3271,-0.0626,0.8446,-0.4346,0.2853,0.401,-0.84,1.0325,-2.6163,94.00077025829675,21.20073063584231,49.3974147349465,0.23820000000000618
0.3271,-0.0626,0.8446,-0.4346,0.2853,0.401,-0.84,1.0325,-2.6163,94.18652817828216,21.149902490179883,49.41626234913493,0.23820000000000618
0.3357,-0.063,0.8456,-0.4346,0.2853,0.401,-0.9975,0.8838,-2.9662,94.24392212815692,21.445560132583623,49.63594183630581,0.23820000000000618
0.3357,-0.063,0.8456,-0.4337,0.2849,0.3946,-0.9975,0.8838,-2.9662,94.25699639735004,21.546385141314996,49.64672379547864,0.23820000000000618
0.3325,-0.0533,0.8512,-0.4337,0.2849,0.3946,-0.7613,0.7875,-3.115,93.72872700259326,21.379216175215024,49.42177052436919,0.23820000000000618
0.3317,-0.0651,0.8478,-0.4337,0.2849,0.3946,-0.7613,0.7875,-3.115,94.24780138939164,21.33296061526144,49.4295611295467,0.23820000000000618
0.3317,-0.0651,0.8478,-0.4338,0.2855,0.3984,-0.5163,1.0237,-2.7738,94.36156489648748,21.3188465964383,49.54030453718448,0.23820000000000618
0.334,-0.0528,0.8575,-0.4338,0.2855,0.3984,-0.5163,1.0237,-2.7738,93.69555172265345,21.271629421365752,49.39907729006241,0.2384666666666817
0.334,-0.0528,0.8575,-0.4338,0.2855,0.3984,-0.3588,1.295,-3.36,93.55771627160466,21.252651329711153,49.31886472111625,0.2384666666666817
0.3293,-0.0526,0.8343,-0.4338,0.2855,0.3984,-0.49,1.1113,-2.3537,93.59736993739793,21.39364831655707,49.42868150795781,0.2384666666666817
0.3282,-0.0639,0.8496,-0.4346,0.286,0.3914,-0.49,1.1113,-2.3537,94.1575024323997,21.20794899006279,49.232723560361194,0.2384666666666817
0.3282,-0.0639,0.8496,-0.4346,0.286,0.3914,-0.3675,0.8925,-2.4938,94.27259343299518,21.12444823967864,49.14839996204992,0.2384666666666817
0.3375,-0.0512,0.8467,-0.4346,0.286,0.3914,-0.3675,0.8925,-2.4938,93.62224910095664,21.464015702249863,49.22336692451804,0.2384666666666817
0.3375,-0.0512,0.8467,-0.4335,0.2854,0.3938,-0.4725,0.805,-2.87,93.49338284076501,21.614593093623604,49.332257428472325,0.2384666666666817
0.3329,-0.0594,0.8285,-0.4335,0.2854,0.3938,-0.4725,0.805,-2.87,93.9772529364352,21.76053245145811,49.55758085488326,0.2384666666666817
0.3318,-0.0601,0.847,-0.4335,0.2854,0.3938,-0.9538,1.3212,-2.8,94.04032547412076,21.494086277013466,49.45374487579165,0.2384666666666817
0.3318,-0.0601,0.847,-0.4335,0.2846,0.3978,-0.9538,1.3212,-2.8,94.0545516991431,21.397763626587956,49.46933179635812,0.23871666666661895
0.3318,-0.0538,0.8471,-0.435,0.2846,0.3978,-0.56,0.805,-2.8263,93.7211346120127,21.367498140912126,49.34184577773435,0.23871666666661895
0.3318,-0.0538,0.8471,-0.435,0.2846,0.3978,-0.56,0.805,-2.7912,93.65206612147124,21.356736914309163,49.26937554004924,0.23871666666661895
0.3284,-0.0592,0.8499,-0.435,0.2846,0.3978,-0.7525,1.0588,-2.7912,93.91278776307475,21.18028335656333,49.16324450593204,0.23871666666661895
0.3284,-0.0592,0.8555,-0.4347,0.2825,0.4005,-0.2887,1.295,-3.0712,93.94954832954835,21.02883853431084,49.013179350856085,0.24261666666666315
0.332,-0.0537,0.8555,-0.4347,0.2825,0.4005,-0.2887,1.295,-3.0712,93.66193446124501,21.124951610304883,48.97736848980109,0.24261666666666315
0.3339,-0.0606,0.8525,-0.4347,0.2825,0.4005,-0.4638,0.9363,-2.8875,93.98395863656488,21.264562178254874,49.12895057185491,0.24261666666666315
0.3339,-0.0606,0.8525,-0.4343,0.2831,0.4054,-0.4638,0.9363,-2.8875,94.0493636450181,21.31348510313023,49.35686311162755,0.24288333333333867
0.3389,-0.0573,0.8533,-0.4343,0.2831,0.4054,-0.9187,0.7875,-2.8087,93.88817510811629,21.50762840603284,49.54215757607628,0.24288333333333867
0.3389,-0.0573,0.8533,-0.4343,0.2831,0.4054,-0.9187,0.7875,-2.8087,93.8521040581096,21.577592881269503,49.64854776035483,0.24288333333333867
0.3266,-0.058,0.8447,-0.4343,0.2831,0.4054,-0.8138,1.0762,-2.5812,93.91137380380445,21.283545881343457,49.48231069437009,0.24313333333327591
0.3312,-0.0575,0.8579,-0.4342,0.2849,0.4082,-0.8138,1.0762,-2.5812,93.8512808702739,21.15165683968974,49.51657436170304,0.24313333333327591
0.3312,-0.0575,0.8579,-0.4342,0.2849,0.4082,-0.455,1.085,-2.835,93.83787414183776,21.096850972490845,49.533520788410875,0.24313333333327591
0.3273,-0.0531,0.8535,-0.4342,0.2849,0.4082,-0.5075,1.155,-3.0363,93.61697089835577,20.994799187048226,49.42054182372312,0.24339999999995143
0.3273,-0.0531,0.8535,-0.4338,0.2853,0.4024,-0.5075,1.155,-3.0363,93.57170235605071,20.960810068224404,49.27374659656139,0.24339999999995143
0.3317,-0.0586,0.8407,-0.4338,0.2853,0.4024,-0.7525,0.9887,-2.7562,93.89762035606424,21.292108577430646,49.542480081574816,0.24339999999995143
0.3358,-0.0639,0.853,-0.4338,0.2853,0.4024,-0.7525,0.9887,-2.7562,94.2007485492566,21.381534389078105,49.712542257956144,0.24339999999995143
0.3358,-0.0639,0.853,-0.4338,0.2851,0.4002,-1.0588,0.8313,-2.6425,94.26487738825193,21.413551502605085,49.74023537834437,0.24366666666662695
0.334,-0.0578,0.8491,-0.4338,0.2851,0.4002,-1.0588,0.8313,-2.6425,93.9798626107187,21.422151751414304,49.687263401429874,0.24366666666662695
0.334,-0.0578,0.8491,-0.4338,0.2851,0.4002,-0.1488,1.1812,-2.9137,93.91058073784579,21.4256415175982,49.65140521407522,0.24366666666662695
0.336,-0.0585,0.8541,-0.4338,0.2851,0.4002,-0.1488,1.1812,-2.9137,93.9167850733506,21.427746569113374,49.640277643750366,0.24366666666662695
0.336,-0.0585,0.8411,-0.4354,0.2844,0.4078,-0.0437,1.085,-2.7912,93.96704514966625,21.61909724810811,49.858782985365345,0.24366666666662695
0.3331,-0.0595,0.8411,-0.4354,0.2844,0.4078,-0.0437,1.085,-2.7912,94.0315517880602,21.578941398014063,49.89390421156661,0.24366666666662695
0.335,-0.0571,0.8474,-0.4354,0.2844,0.4078,-0.245,0.9975,-3.2462,93.88926072247408,21.54240140881518,49.858925596257606,0.24366666666662695
0.335,-0.0571,0.8474,-0.4343,0.2853,0.3929,-0.7875,0.84,-2.8963,93.86237805488065,21.53165514771446,49.62806885891489,0.24391666666667788
0.3392,-0.0607,0.8526,-0.4343,0.2853,0.3929,-0.7875,0.84,-2.8963,94.0266197989263,21.605424463864725,49.58509997766327,0.24391666666667788
0.3392,-0.0607,0.8526,-0.4343,0.2853,0.3929,-0.6737,1.1725,-2.8963,94.06256523362764,21.63119554805254,49.55643546867988,0.24391666666667788
0.3278,-0.0534,0.8543,-0.4343,0.2853,0.3929,-0.6737,1.1725,-2.8963,93.6798173424566,21.191076239696162,49.10188757178167,0.24391666666667788
0.3373,-0.057,0.8441,-0.434,0.2853,0.3984,-0.3588,1.1113,-2.8788,93.8267143344563,21.544875073922952,49.472056618049784,0.24391666666667788
0.3373,-0.057,0.8441,-0.434,0.2853,0.3984,-0.3588,1.1113,-2.8788,93.85592698703529,21.669233887268405,49.65127618098672,0.24391666666667788
0.3287,-0.0589,0.8429,-0.434,0.2853,0.3984,-0.7,1.2687,-2.87,93.96706516402084,21.40219440140817,49.521460800591164,0.24391666666667788
0.3287,-0.0589,0.8429,-0.4335,0.2853,0.4006,-0.7,1.2687,-2.87,93.99077545108888,21.30803990160836,49.54426845756105,0.2441833333333534
0.3356,-0.0576,0.8607,-0.4335,0.2853,0.4006,-0.3413,0.8662,-3.0888,93.86078319275266,21.27456352825654,49.52355079264584,0.2441833333333534
0.3293,-0.0584,0.8434,-0.4335,0.2853,0.4006,-0.3413,0.8662,-2.8087,93.94117153886587,21.278967978781214,49.545483363315796,0.2441833333333534
0.3293,-0.0584,0.8434,-0.4335,0.2842,0.404,-0.3063,1.2513,-2.8087,93.95712963802593,21.280555234509627,49.5906484665824,0.2441833333333534
0.3278,-0.0576,0.8515,-0.4325,0.2842,0.404,-0.455,1.155,-2.3712,93.88758242063241,21.126483547597545,49.50760151904478,0.2441833333333534
0.3278,-0.0576,0.8515,-0.4325,0.2842,0.404,-0.455,1.155,-2.3712,93.87348217259729,21.06056725531862,49.468226914328376,0.2441833333333534
0.3379,-0.0562,0.8471,-0.4325,0.2842,0.404,-0.7525,1.0063,-2.8175,93.81245747116843,21.47241682205194,49.764026332462954,0.2441833333333534
0.3379,-0.0562,0.8427,-0.4333,0.2836,0.3993,-0.7525,1.0063,-2.8175,93.81478758089892,21.685892647217425,49.795964566717025,0.2441833333333534
0.3301,-0.0573,0.8427,-0.4333,0.2836,0.3993,-0.4112,1.4612,-3.0187,93.8747901147952,21.460063061819408,49.574315617718305,0.2441833333333534
0.3358,-0.059,0.8461,-0.4333,0.2836,0.3993,-0.4112,1.4612,-3.0187,93.96594920703589,21.552801310676315,49.64677504797022,0.2441833333333534
0.3358,-0.059,0.8461,-0.4333,0.2843,0.4012,-0.5425,1.1988,-2.9575,93.98414358267607,21.583542952756403,49.75365932121961,0.2441833333333534
0.332,-0.0575,0.8416,-0.4333,0.2843,0.4012,-0.5425,1.1988,-2.9575,93.92411497642159,21.517435281916452,49.726622280751585,0.2441833333333534
0.332,-0.0575,0.8416,-0.4333,0.2843,0.4012,-0.945,0.875,-2.6688,93.91201674306988,21.496112019690855,49.71599230041627,0.24443333333329065
0.3303,-0.0575,0.8442,-0.4333,0.2843,0.4012,-0.945,1.0237,-2.6688,93.89999430520209,21.388924276601497,49.63175612458808,0.24443333333329065
0.3386,-0.0595,0.8635,-0.4334,0.2837,0.4,-0.7437,1.0237,-2.6688,93.93277399809554,21.374272878403904,49.55999745202153,0.24443333333329065
0.3386,-0.0595,0.8635,-0.4334,0.2837,0.4,-0.6562,0.5863,-2.7037,93.9398688798987,21.36866808671946,49.534251433886155,0.24443333333329065
0.3326,-0.0569,0.8439,-0.4334,0.2837,0.4,-0.6562,0.5863,-2.7037,93.87477790029524,21.429685889901798,49.53967903960275,0.24443333333329065
0.3326,-0.0569,0.8439,-0.4343,0.2835,0.4051,-0.7525,0.7525,-3.0712,93.86109652315173,21.454195897988168,49.59495833519245,0.24443333333329065
0.3395,-0.0605,0.8439,-0.4343,0.2835,0.4051,-0.7525,0.7525,-3.0712,94.0489049115883,21.729121019276462,49.82746017156716,0.24443333333329065
0.3228,-0.0585,0.8369,-0.4343,0.2835,0.4051,-0.3938,1.1725,-2.7562,94.00860863517308,21.296448203788668,49.56156282358815,0.24443333333329065
0.3228,-0.0585,0.8369,-0.4343,0.2848,0.3989,-0.3938,1.1725,-2.7562,94.00053895386178,21.137516614605147,49.352174448514006,0.24443333333329065
0.3339,-0.0593,0.8499,-0.4336,0.2848,0.3989,-0.035,1.2337,-2.5025,93.99296527571481,21.29430168057694,49.46895784663766,0.24443333333329065
0.3339,-0.0593,0.8499,-0.4336,0.2848,0.3989,-0.035,1.2337,-2.5025,93.99155025384643,21.357811253277127,49.52233600241784,0.24443333333329065
0.332,-0.0573,0.8525,-0.4336,0.2848,0.3989,-0.2537,1.3125,-2.8175,93.87378794331347,21.27875824043498,49.42749702551196,0.24443333333329065
0.332,-0.0573,0.8525,-0.434,0.2825,0.403,-0.4025,1.2513,-2.8788,93.851014257123,21.25001648526746,49.3533646461035,0.24469999999996617
0.332,-0.0583,0.851,-0.434,0.2825,0.403,-0.4025,1.2513,-2.8788,93.90542149665576,21.260921505970945,49.35297681200811,0.24469999999996617
0.3303,-0.0559,0.8389,-0.434,0.2825,0.403,-0.49,1.3825,-2.87,93.83128414288566,21.38191682041041,49.427685239264946,0.24548333333336814
0.3303,-0.0559,0.8389,-0.433,0.2842,0.407,-0.49,1.3825,-2.87,93.81614585275877,21.42457812674296,49.70671334748045,0.24548333333336814
0.3327,-0.0586,0.8443,-0.433,0.2842,0.407,-0.4462,0.9975,-2.8087,93.93913263834484,21.44737093053058,49.84507602497579,0.24573333333330538
0.3327,-0.0586,0.8443,-0.433,0.2842,0.407,-0.4462,0.9975,-2.8087,93.96402300485663,21.455584896875706,49.915971255931815,0.24573333333330538
0.3267,-0.0595,0.8456,-0.433,0.2842,0.407,-0.77,0.9363,-2.8612,94.01174688799722,21.21068075265123,49.78653830172083,0.24573333333330538
0.3328,-0.0558,0.8508,-0.4341,0.2849,0.3934,-0.77,0.9363,-2.8612,93.808559120297,21.2825180483611,49.46964529290497,0.24573333333330538
0.3328,-0.0558,0.8508,-0.4341,0.2849,0.3934,-0.7437,0.7437,-2.8437,93.76448484846689,21.30783914474867,49.323371715293774,0.2459999999999809
0.3358,-0.0591,0.8539,-0.4341,0.2849,0.3934,-0.7437,0.7437,-2.8437,93.91729438913472,21.380643295722496,49.30797552499335,0.2459999999999809
0.3358,-0.0591,0.8539,-0.4336,0.2846,0.4031,-0.7,0.49,-2.765,93.95028586448049,21.40614079985699,49.442639931742555,0.2459999999999809
0.3313,-0.0545,0.8417,-0.4336,0.2846,0.4031,-0.4112,0.9538,-2.9488,93.75407264216292,21.431135444828374,49.54973738626377,0.2459999999999809
0.3287,-0.06,0.8488,-0.4336,0.2846,0.4031,-0.4112,0.9538,-2.9488,93.98525711574132,21.227382205396992,49.52255956566039,0.2459999999999809
0.3287,-0.06,0.8488,-0.4336,0.2845,0.4049,-0.4725,0.77,-2.4237,94.03156997868149,21.16550351605997,49.53998294604926,0.2459999999999809
0.3331,-0.0581,0.8397,-0.4342,0.2845,0.4049,-0.4725,0.77,-2.4237,93.97302122467167,21.412867410991108,49.70077616742645,0.2459999999999809
0.3331,-0.0581,0.8397,-0.4342,0.2845,0.4049,-0.3588,1.365,-2.4325,93.96103977380463,21.516645178481948,49.82707651439478,0.24626666666665642
0.335,-0.0559,0.8446,-0.4342,0.2845,0.4049,-0.3588,1.365,-2.4325,93.82129688824074,21.560731401625205,49.843893476978195,0.24626666666665642
0.335,-0.0559,0.8446,-0.434,0.2846,0.388,-0.0088,1.2687,-2.9313,93.79305804221727,21.58137285931472,49.44610283847244,0.24626666666665642
0.3278,-0.0551,0.8446,-0.434,0.2846,0.388,-0.0088,1.2687,-2.9313,93.7438176381323,21.312538806769016,49.04236835403811,0.24626666666665642
0.3322,-0.0602,0.8384,-0.434,0.2846,0.388,-0.6388,1.3475,-2.73,94.03050543545493,21.471109827550578,49.14016992264261,0.24626666666665642
0.3322,-0.0602,0.8384,-0.4349,0.2838,0.4015,-0.6388,1.3475,-2.9225,94.09087931823207,21.532233596438793,49.439309892003585,0.24626666666665642
0.3267,-0.0554,0.8408,-0.4349,0.2838,0.4015,-0.9538,1.0675,-2.9225,93.84218070016067,21.30991133231779,49.30863549942672,0.24626666666665642
0.3267,-0.0554,0.8408,-0.4349,0.2838,0.4015,-0.98,0.8662,-2.7125,93.78618300171969,21.23614280340435,49.25099434967478,0.24651666666670735
0.3387,-0.0587,0.86,-0.4349,0.2838,0.4015,-0.98,0.8662,-2.7125,93.8778198065566,21.37079280346799,49.35477086543605,0.24651666666670735
0.3283,-0.0609,0.8447,-0.4334,0.2862,0.4093,-0.9712,0.945,-2.6513,94.0680193005491,21.25842013226346,49.67258291546177,0.24651666666670735
0.3283,-0.0609,0.8447,-0.4334,0.2862,0.4093,-0.9712,0.945,-2.6513,94.11108847272038,21.215488572336238,49.83992728005946,0.24651666666670735
0.3316,-0.0529,0.86,-0.4334,0.2862,0.4093,-0.07,1.0675,-3.0363,93.631098879382,21.104730354494336,49.74267512529511,0.24651666666670735
0.3316,-0.0529,0.86,-0.4343,0.2853,0.3998,-0.07,1.0675,-3.0363,93.54083013724055,21.067841492524742,49.398993344294425,0.24651666666670735
0.3278,-0.0647,0.8525,-0.4343,0.2853,0.3998,-0.6913,0.98,-2.66,94.16990722496917,21.011898791714934,49.36082973472103,0.24651666666670735
0.3434,-0.0556,0.8512,-0.4343,0.2853,0.3998,-0.6913,0.98,-2.66,93.82936296835219,21.579390762425927,49.66510720582375,0.24678333333326918
0.3284,-0.0556,0.8512,-0.4343,0.2845,0.3998,-0.2625,1.47,-3.2987,93.75520399759945,21.216377758206956,49.324575557876635,0.24678333333326918
0.3318,-0.0566,0.8413,-0.4345,0.2845,0.3998,-0.2625,1.0063,-3.0975,93.83060014917162,21.39371236993504,49.41614055665804,0.24678333333326918
0.3318,-0.0566,0.8413,-0.4345,0.2845,0.3998,-0.2625,1.0063,-3.0975,93.84531205267929,21.451595171075134,49.46284666942879,0.25071666666667625
0.33,-0.0601,0.8481,-0.4345,0.2845,0.3998,-0.3063,1.155,-2.7475,94.01248504274534,21.30080475729619,49.39760625431175,0.25071666666667625
0.33,-0.0601,0.8481,-0.4353,0.2851,0.4013,-0.3063,1.155,-2.7475,94.04538637594997,21.245238076069143,49.38805339988097,0.2509666666666135
0.3311,-0.056,0.8497,-0.4353,0.2851,0.4013,-0.5688,1.085,-2.8612,93.8276748176581,21.246536527219035,49.34328285794398,0.2509666666666135
0.3291,-0.0568,0.8433,-0.4353,0.2851,0.4013,-0.5688,1.085,-2.8612,93.84798610755433,21.264586650210372,49.3512278382441,0.2509666666666135
0.3291,-0.0568,0.8433,-0.4342,0.2841,0.4017,-0.455,0.7962,-2.9225,93.85222681404883,21.271044822289717,49.37095489278179,0.2509666666666135
0.3338,-0.0593,0.8519,-0.4342,0.2841,0.4017,-0.455,0.7962,-2.9225,93.9555977543384,21.322498530674764,49.434812256554494,0.2509666666666135
0.3338,-0.0593,0.8519,-0.4342,0.2841,0.4017,-0.35,0.9538,-2.6075,93.97666663510516,21.339156409027034,49.47531104604375,0.2509666666666135
0.3328,-0.0575,0.8413,-0.4342,0.2841,0.4017,-0.35,0.9538,-2.6075,93.9231476272165,21.460156533836866,49.56840523026951,0.2509666666666135
0.3351,-0.0572,0.8479,-0.4339,0.2854,0.3964,-0.6825,0.8925,-2.8963,93.8729263526667,21.499148769666284,49.55514749492134,0.2509666666666135
0.3351,-0.0572,0.8479,-0.4339,0.2854,0.3964,-0.035,1.0412,-3.0275,93.8619034139118,21.513091118846212,49.54733621559687,0.251233333333289
0.3323,-0.055,0.8495,-0.4339,0.2854,0.3964,-0.035,1.0412,-3.0275,93.73381550649263,21.386754566436974,49.42075251209625,0.251233333333289
0.3323,-0.055,0.8495,-0.4345,0.2851,0.4081,-0.3762,1.0588,-2.7738,93.710258689924,21.346513458841066,49.57597637535439,0.251233333333289
0.3246,-0.0603,0.8575,-0.4345,0.2851,0.4081,-0.3762,1.0588,-2.7738,93.96015668395383,20.927716965635824,49.41092893453393,0.251233333333289
0.2934,-0.0636,0.8623,-0.4345,0.2851,0.4081,-0.1225,1.2425,-2.3363,94.1692545234947,19.692232147338657,48.404039488571236,0.251233333333289
0.2924,-0.0636,0.8623,-0.4345,0.2841,0.406,-0.1225,1.2425,-2.3363,94.20897041980699,19.12201773969685,47.82534915572262,0.251233333333289
0.3557,-0.0536,0.8469,-0.4349,0.2841,0.406,0.63,0.4462,-0.7962,93.71904571247988,19.81697115637752,48.700268141931836,0.251233333333289
0.3557,-0.0536,0.8469,-0.4349,0.2841,0.406,0.63,0.4462,-0.7962,93.63762689497463,20.378497038945834,49.325054078454286,0.25149999999996453
0.3762,-0.0509,0.8376,-0.4349,0.2841,0.406,0.2537,0.315,-2.0213,93.50590493631826,22.251047643316348,49.958296975657554,0.25149999999996453
0.3762,-0.0509,0.8376,-0.4345,0.2851,0.3974,0.2537,0.315,-2.4237,93.48255428490357,23.353869155845125,50.388447510572355,0.25149999999996453
0.3242,-0.0493,0.8429,-0.4345,0.2851,0.3974,0.315,1.575,-2.4237,93.37104683029828,21.987958573476696,49.433548779913,0.25149999999996453
0.3275,-0.0639,0.8556,-0.4345,0.2851,0.3974,-1.2513,1.1287,-2.6425,94.05354329894368,21.31231584455414,49.24566918629669,0.25149999999996453
0.3275,-0.0639,0.8556,-0.4335,0.2838,0.4059,-1.2513,1.1287,-2.6425,94.21855535604308,21.053318308278165,49.34192236306366,0.25149999999996453
0.3293,-0.0631,0.8308,-0.4335,0.2838,0.4059,-0.8925,0.7175,-3.0187,94.31556794187959,21.393743517032412,49.64756089419326,0.25149999999996453
0.3293,-0.0631,0.8308,-0.4335,0.2838,0.4059,-0.8925,0.7175,-3.0187,94.33715104291022,21.50779324518073,49.83039733192221,0.25149999999996453
0.3282,-0.0442,0.8458,-0.4335,0.2838,0.4059,0.14,1.4525,-1.785,93.23491606189314,21.36789584650674,49.450514984982654,0.25149999999996453
0.3426,-0.0756,0.8489,-0.4342,0.2851,0.3926,0.14,1.4525,-1.785,94.75366908527012,21.595992227080647,49.83723928267723,0.25149999999996453
0.3426,-0.0756,0.8489,-0.4342,0.2851,0.3926,-1.4262,0.6212,-2.765,95.00444325048142,21.788462798190718,49.93764778032427,0.25149999999996453
0.3362,-0.0465,0.8495,-0.4342,0.2851,0.3926,-1.4262,0.6212,-2.765,93.6055510690329,21.645219657859812,49.620415148194326,0.25149999999996453
0.3362,-0.0465,0.8495,-0.433,0.285,0.398,-0.4112,0.7525,-2.8525,93.22807069296083,21.591831927328936,49.53738499033379,0.25175000000001546
0.325,-0.0527,0.8573,-0.433,0.285,0.398,-1.295,1.0063,-2.59,93.44689881149617,21.0645905253529,49.167123777556604,0.25175000000001546
0.3398,-0.0713,0.8376,-0.433,0.285,0.398,-1.295,1.0063,-2.59,94.51887164410766,21.63990123790478,49.82179366680793,0.25175000000001546
0.3398,-0.0713,0.8376,-0.433,0.2853,0.397,-0.105,0.9538,-3.2987,94.79990077160333,21.896361288301915,50.13562472133838,0.25175000000001546
0.3283,-0.042,0.8552,-0.4342,0.2853,0.397,-0.105,0.9538,-3.2987,93.18801526616534,21.25932418001023,49.400826576382705,0.25175000000001546
0.3283,-0.042,0.8552,-0.4342,0.2853,0.397,-0.0787,1.015,-2.5988,92.88251613576361,21.087713619831046,49.002519228196874,0.25175000000001546
0.3292,-0.071,0.8373,-0.4342,0.2853,0.397,-0.0787,1.015,-2.5988,94.4768479049084,21.274215206485806,49.38474122980849,0.25175000000001546
0.3292,-0.071,0.8373,-0.4336,0.2845,0.4046,-0.7088,0.9013,-2.7387,94.76778803390515,21.34932884835641,49.72320195228586,0.25175000000001546
0.3404,-0.0582,0.8365,-0.4336,0.2845,0.4046,-0.7088,0.9013,-2.7387,94.14836379886037,21.819201314348216,50.06832373624293,0.25175000000001546
0.3329,-0.0426,0.8451,-0.4336,0.2845,0.4046,-0.2975,1.0412,-3.3688,93.1338047540192,21.578620398090827,49.74539242626131,0.25175000000001546
0.3329,-0.0426,0.8451,-0.4334,0.285,0.3935,-0.2975,1.0412,-3.3688,92.93447451086004,21.506481846224492,49.37193693843398,0.25175000000001546
0.3852,-0.0623,0.8381,-0.4334,0.285,0.3935,-1.54,1.4175,-2.905,93.90899523371412,23.5383253474381,51.26015926971198,0.25175000000001546
0.3852,-0.0623,0.8381,-0.4334,0.285,0.3935,-1.575,2.1,-6.09,94.16147579529128,24.444887465350632,52.18603268137891,0.252016666666691
0.3894,-0.0362,0.8253,-0.4334,0.285,0.3935,-1.575,2.1,-6.09,92.94433234721711,25.10706339682613,52.55627608425557,0.252016666666691
0.4372,-0.0325,0.7943,-0.434,0.2849,0.4006,-4.27,3.5612,-9.4062,92.88118600605446,28.414109338278205,56.27587752815636,0.252016666666691
0.4372,-0.0325,0.7943,-0.434,0.2849,0.4006,-4.27,3.5612,-9.4062,92.82467112145113,28.766959364637778,57.09964566216607,0.252016666666691
0.4313,0.0104,0.7966,-0.434,0.2849,0.4006,-6.405,6.125,-15.6363,90.43593323309939,28.451806976892136,56.08774024088431,0.252016666666691
0.4313,0.0104,0.7966,-0.4332,0.2846,0.4073,-6.405,6.125,-15.6363,89.64434707417105,28.43160811703459,56.38609515686173,0.252016666666691
0.2939,-0.0137,0.9064,-0.4332,0.2846,0.4073,-8.82,7.6562,-20.51,90.64108303719281,18.4745955324497,46.57742836991949,0.252016666666691
0.4171,-0.1353,0.8278,-0.4332,0.2846,0.4073,-8.82,7.6562,-20.51,97.69197660572073,26.05066753226595,55.351609554143145,0.252016666666691
0.4171,-0.1353,0.8278,-0.4332,0.2838,0.4,-13.7288,10.1938,-17.5613,99.12883060284626,26.417465896782996,55.935295415292124,0.252016666666691
0.3281,-0.1039,0.8703,-0.4334,0.2838,0.4,-13.7288,10.1938,-17.22,97.03240601818335,20.865785144487116,50.328601216953786,0.252016666666691
0.3281,-0.1039,0.8703,-0.4334,0.2838,0.4,-9.8088,15.4088,-17.22,96.8429331795124,20.54275353070387,49.809870979404856,0.252016666666691
0.3044,-0.0722,0.901,-0.4334,0.2838,0.4,-6.93,13.0288,-18.0775,95.21984586431067,18.718856755337832,47.4625866585299,0.252016666666691
0.3044,-0.0722,0.8229,-0.4309,0.2811,0.3978,-6.93,13.0288,-18.0775,95.07225182634225,20.14495035130203,48.6835842394113,0.2538333333333185
0.3839,-0.1247,0.8214,-0.4309,0.2811,0.3978,-6.9212,6.2913,-26.1275,97.62495001779119,24.622209541667146,53.401720538784474,0.2538333333333185
0.4586,0.0286,0.7541,-0.4309,0.2811,0.3978,-6.9212,6.2913,-26.1275,90.60033785409411,31.031841926011573,58.70227037875696,0.254099999999994
0.4586,0.0286,0.7541,-0.4286,0.2791,0.4091,-7.42,9.9575,-33.3812,88.51550207678179,31.279610425539584,60.41756321219452,0.254099999999994
0.3646,-0.0548,0.8472,-0.4286,0.2791,0.4091,-7.42,9.9575,-33.3812,92.41508342882338,23.482689912710008,52.60270536686582,0.254099999999994
0.3646,-0.0548,0.8472,-0.4286,0.2791,0.4091,-16.1,17.4562,-32.4275,93.59979700832376,23.24909365349514,51.85708016003862,0.25434999999993124
0.3611,-0.0431,0.8577,-0.4286,0.2791,0.4091,-16.1,17.4562,-32.4275,92.93360917294567,22.819423926451233,51.06836694216106,0.25434999999993124
0.3933,-0.0285,0.8192,-0.4261,0.2793,0.415,-19.3113,20.8425,-36.0062,92.05161780427622,25.554068215144408,54.397430730887066,0.25434999999993124
0.3933,-0.0285,0.8192,-0.4261,0.2793,0.415,-23.275,23.9225,-40.2412,91.99549042965657,25.63031782981716,54.551072829749955,0.25461666666660676
0.3396,-0.0876,0.8761,-0.4261,0.2793,0.415,-23.275,23.9225,-40.2412,95.52317376783422,21.20468897383951,51.094389302407016,0.25461666666660676
0.3396,-0.0876,0.8761,-0.4236,0.2774,0.4148,-21.0525,29.4088,-40.3725,95.69937273151963,21.094609783776814,51.03653389035727,0.25461666666660676
0.3683,0.0431,0.8653,-0.4236,0.2774,0.4148,-21.0525,29.4088,-40.3725,87.63254643182484,22.982628387328184,49.13403418911607,0.25461666666660676
0.5204,0.0015,0.7817,-0.4236,0.2774,0.4148,-24.9638,36.925,-39.5588,89.78542722905485,33.382830803726314,65.67302817342352,0.25461666666660676
0.5204,0.0015,0.7817,-0.4179,0.2777,0.4202,-24.9638,36.925,-39.5588,89.8852063771278,33.64596063614821,67.44845320085247,0.25461666666660676
0.5308,-0.0201,0.8057,-0.4179,0.2777,0.4202,-29.6537,54.005,-33.0225,91.3702983240538,33.37734129100219,67.09447435511198,0.25461666666660676
0.5308,-0.0201,0.8057,-0.4179,0.2777,0.4202,-29.6537,54.005,-33.0225,91.42683801767433,33.36919851861556,67.08803359236838,0.25461666666660676
0.4714,-0.0873,0.8234,-0.4179,0.2777,0.4202,-36.015,70.63,-34.3613,95.91034759379752,29.76168164463413,61.99833210634194,0.25461666666660676
0.4714,-0.0873,0.8614,-0.4094,0.2758,0.4155,-36.015,70.63,-34.3613,95.79075724631284,28.601327595112277,61.0323051032374,0.2548666666666577
0.3628,-0.2312,0.8614,-0.4094,0.2758,0.4155,-42.0612,76.37,-44.6862,104.78536208111585,22.28020329144571,55.792002147112925,0.2548666666666577
0.1822,-0.1612,0.9871,-0.4094,0.2758,0.4155,-32.5325,74.235,-54.46,99.4639786356154,10.543917420253468,45.303576783359276,0.2548666666666577
0.1822,-0.1612,0.9871,-0.4003,0.2748,0.4354,-32.5325,74.235,-54.46,99.28139657240148,10.328280662196129,46.415687356748705,0.2548666666666577
0.0807,-0.2026,1.1123,-0.4003,0.2748,0.4354,-21.1488,61.705,-59.0975,100.2643345826133,4.188475536322669,43.15200607052152,0.2548666666666577
0.0807,-0.2026,1.1123,-0.4003,0.2748,0.4354,-21.1488,61.705,-59.0975,100.3196756418625,4.084523247706986,43.099919802414995,0.2548666666666577
0.1815,-0.1964,1.1146,-0.4003,0.2748,0.4354,0.0613,45.1237,-62.6675,100.05321402095612,9.030590359624432,45.88730672658644,0.2548666666666577
0.3398,-0.1833,1.0427,-0.3962,0.2694,0.4355,0.0613,45.1237,-62.6675,99.98556559492327,17.654783404146393,52.46395250918184,0.2548666666666577
0.3398,-0.1833,1.0427,-0.3962,0.2694,0.4355,18.4188,34.6763,-65.9925,99.97099781953888,17.792588595258053,52.605753114558645,0.2551333333333332
0.2929,-0.2475,1.0962,-0.3962,0.2694,0.4355,18.4188,34.6763,-65.9925,102.60731503069017,14.656577202587364,50.97505362002772,0.2551333333333332
0.2929,-0.2475,1.0962,-0.3914,0.2591,0.4376,36.3387,31.15,-70.455,102.72014147257427,14.608985733886335,50.733735049661846,0.2551333333333332
0.2467,-0.3064,1.0611,-0.3914,0.2591,0.4376,36.3387,24.43,-83.1687,106.02528522263017,12.615658444323735,50.44476252509655,0.2551333333333332
0.3199,-0.1094,0.9881,-0.3914,0.2591,0.4376,52.1675,23.31,-83.1687,96.48657870424769,17.77465662500277,50.91725992772881,0.2551333333333332
0.3199,-0.1094,0.9881,-0.3878,0.2427,0.4362,65.8788,22.5837,-91.9362,96.32028241103266,17.836784460371163,49.83434269172492,0.2551333333333332
-0.0223,-0.0329,1.0463,-0.3878,0.2427,0.4362,65.8788,22.5837,-91.9362,91.86443672876308,-1.013005523963969,33.57704685268341,0.2551333333333332
-0.0223,-0.0329,1.0463,-0.3878,0.2427,0.4362,74.6813,19.4163,-82.46,91.80181488331637,-1.2178527705037328,32.89112456964756,0.2551333333333332
0.8223,0.6035,0.8256,-0.3878,0.2427,0.4362,74.6813,19.4163,-82.46,54.308004594415166,38.3166035090052,91.18983863861607,0.2551333333333332
0.8223,-0.0652,0.8019,-0.3842,0.2313,0.4485,29.8725,28.8838,-74.9525,93.50423028591649,45.527689309802255,91.64490464880834,0.2551333333333332
0.695,-0.0652,0.8019,-0.3842,0.2313,0.4485,29.8725,28.8838,-74.9525,94.61586963798109,40.88461114903296,87.82140154527295,0.2551333333333332
0.1192,-0.1638,1.0288,-0.3842,0.2313,0.4485,28.665,70.8313,-56.84,98.91628645529104,7.132320011350588,42.34527710593402,0.2551333333333332
0.1192,-0.1638,1.0288,-0.3752,0.2204,0.4387,28.665,70.8313,-56.84,99.0425748929523,6.538154222328704,41.21312542062965,0.25540000000000873
-0.1097,0.035,1.0577,-0.3752,0.2204,0.4387,48.51,60.48,-61.4688,88.3076743042207,-5.715324637589674,26.39220188437483,0.25540000000000873
-0.1097,0.035,1.0577,-0.3752,0.2204,0.4387,47.3112,42.6475,-66.0888,88.10858685214976,-5.915009883327475,26.152585591911627,0.25540000000000873
0.1307,-0.2539,0.9506,-0.3752,0.2204,0.4387,47.3112,42.6475,-66.0888,104.63463674856094,7.362520241687669,44.7857500389237,0.25540000000000873
0.2084,0.3095,0.919,-0.3682,0.2107,0.449,69.23,37.59,-82.075,71.83311757764868,12.070747181842172,13.238515328823016,0.25540000000000873
0.2084,0.3095,0.919,-0.3682,0.2107,0.449,69.23,37.59,-82.075,71.39352110890681,12.12813576048768,12.420045218310767,0.25540000000000873
0.4006,0.4434,0.8037,-0.3682,0.2107,0.449,62.6587,49.6825,-67.235,61.26560808615743,23.407605320606763,12.575470303002419,0.25721666666663623
0.4006,0.4434,0.8037,-0.3603,0.2,0.4472,62.6587,49.6825,-67.235,61.116768961606624,23.575451612721483,16.778508924955542,0.25721666666663623
0.184,-0.0803,0.9347,-0.3603,0.2,0.4472,43.1375,64.8637,-44.7038,94.21380390624451,11.376041907362547,40.34388082530315,0.25721666666663623
0.1833,0.092,0.8674,-0.3603,0.2,0.4472,43.1375,64.8637,-44.7038,84.157217124184,11.856593794942096,30.722340773847773,0.25721666666663623
0.1833,0.092,0.8674,-0.3494,0.1886,0.4458,56.3763,75.1625,-51.6425,83.94903624354694,11.867384740813968,29.68376303308432,0.25721666666663623
0.112,0.332,0.8993,-0.3494,0.1886,0.4458,56.3763,75.1625,-49.4025,69.96716542407785,6.76927569998844,4.760955562966799,0.25721666666663623
0.112,0.332,0.8993,-0.3494,0.1886,0.4458,50.715,82.6,-51.24,69.74116431542353,6.665933036713716,4.433138438912936,0.25746666666668716
0.0139,0.085,0.9203,-0.3494,0.1886,0.4458,46.2175,82.8012,-42.2887,84.4327452772569,0.9990132894902731,22.9811572792677,0.25746666666668716
0.0139,-0.0552,1.0211,-0.3395,0.1813,0.4535,46.2175,82.8012,-42.2887,92.92651546614721,0.7839814320556461,31.54362438330494,0.25746666666668716
-0.2707,-0.0552,1.0211,-0.3395,0.1813,0.4535,57.1025,61.5737,-50.1463,93.0916745254451,-14.515698193890486,25.063340100687714,0.25746666666668716
0.4922,-0.2372,1.0675,-0.3395,0.1813,0.4535,57.1025,61.5737,-50.1463,102.37667061050017,23.4592694199913,61.791169741122935,0.25746666666668716
0.4922,-0.2372,1.0675,-0.3317,0.1666,0.4499,53.3488,30.415,-80.9287,102.52510027473618,24.222935367998332,62.21277631227348,0.25746666666668716
0.0659,-0.2809,0.8031,-0.3317,0.1666,0.4499,53.3488,30.415,-80.9287,109.16331225371916,4.673732431231331,45.880235735079225,0.25746666666668716
0.0659,-0.2809,0.8031,-0.3317,0.1666,0.4499,95.1913,37.275,-111.6937,109.27714410605367,4.4312372445121975,45.356503158715405,0.25746666666668716
0.2414,1.016,0.7738,-0.3317,0.1666,0.4499,95.1913,37.275,-111.6937,38.00910848006292,10.64757758762509,43.32765580623043,0.25746666666668716
0.0335,0.2243,0.8608,-0.3215,0.1515,0.4483,64.7937,50.96,-81.4538,74.86240556266058,2.2610117249386086,5.354524695227309,0.25746666666668716
0.0335,0.2243,0.8608,-0.3215,0.1515,0.4483,64.7937,60.795,-58.0737,75.38752313120328,2.1585238997312493,6.295202174011523,0.25746666666668716
0.2171,-0.277,0.8415,-0.3215,0.1515,0.4483,30.59,60.795,-58.0737,107.30761230978185,13.569302974382014,51.230211442858355,0.2577333333333627
0.2171,-0.277,0.8415,-0.3118,0.1434,0.4463,63.2363,66.1937,-72.24,108.2069071689345,13.766581576467026,52.35024398722151,0.2577333333333627
0.0814,0.3013,0.8318,-0.3118,0.1434,0.4463,63.2363,66.1937,-72.24,70.64374491932307,5.374825182732988,2.8373700262461963,0.2577333333333627
-0.0431,0.4083,0.7325,-0.3118,0.1434,0.4463,53.5325,62.51,-71.61,61.03041247198832,-2.825909732129384,15.165843363282056,0.2577333333333627
-0.0431,0.4083,0.7325,-0.2997,0.1353,0.4478,53.5325,62.51,-71.61,60.86725295819237,-2.9404832460633252,17.157062975035895,0.2577333333333627
0.0249,0.3804,0.6547,-0.2997,0.1353,0.4478,46.6025,68.7925,-51.87,59.861866857646994,1.7904174071912358,20.7269511305455,0.25929999999993925
0.0249,0.3804,0.6547,-0.2997,0.1353,0.4478,46.6025,68.7925,-51.87,59.8425287311872,1.8816837830736612,20.778134781022036,0.2595499999999902
-0.0905,0.3904,0.9084,-0.2997,0.1353,0.4478,41.5363,77.9625,-29.0413,66.59651125344165,-4.98459884150789,8.910256648474638,0.2595499999999902
0.1438,0.024,0.8119,-0.2892,0.1305,0.4422,41.5363,77.9625,-29.0413,87.84414014996865,9.521570385768722,29.062177782545614,0.2595499999999902
0.1505,0.024,0.8119,-0.2892,0.1305,0.4422,27.1338,77.3587,-20.0025,88.29258632447917,10.448248540136335,30.008893351397226,0.2598166666666657
-0.0725,0.2166,1.0741,-0.2892,0.1305,0.4422,42.8312,84.595,-29.0413,78.79983660476637,-3.2948454725636016,7.5061796020260365,0.2598166666666657
-0.0725,0.2166,1.0741,-0.2782,0.1249,0.4496,42.8312,84.595,-29.0413,78.60296731507586,-3.76862299882889,6.22706658564456,0.2598166666666657
-0.1184,0.2316,1.2526,-0.2782,0.1249,0.4496,41.0025,78.0675,-36.89,79.50470920210377,-5.268440303080408,7.300122558680789,0.26006666666660294
-0.1184,0.2316,1.2526,-0.2782,0.1249,0.4496,41.0025,78.0675,-36.89,79.52414755082468,-5.309134079306712,7.313701824274916,0.26006666666660294
0.1181,-0.3239,1.1028,-0.2782,0.1249,0.4496,48.9738,56.1312,-58.485,105.87407536320694,5.675405016940345,45.539303713865344,0.26006666666660294
-0.0146,0.2978,0.9856,-0.2686,0.1134,0.4454,48.9738,56.1312,-58.485,73.78903795706192,-0.701413274087578,3.343337502865606,0.26006666666660294
-0.0146,0.2978,0.9856,-0.2686,0.1134,0.4454,86.8262,51.7475,-88.6375,73.1942775264367,-0.811155976085619,4.198375510255176,0.26006666666660294
0.2996,0.7135,0.748,-0.2686,0.1134,0.4454,86.8262,51.7475,-88.6375,46.64335176117401,15.971377678080431,55.97662306620878,0.26006666666660294
0.2996,0.7135,0.748,-0.255,0.1027,0.4494,62.86,72.4238,-80.78,46.356531558281404,16.160578518059108,60.2180690495147,0.26006666666660294
-0.0195,0.241,0.8419,-0.255,0.1027,0.4494,62.86,72.4238,-47.9762,73.62041822998314,-0.9119333777254827,6.120644074086166,0.26006666666660294
-0.4078,0.4588,1.033,-0.255,0.1027,0.4494,52.3338,93.835,-47.9762,66.1830439440912,-19.444050665671295,12.616877042656121,0.26006666666660294
-0.4078,0.4588,1.033,-0.243,0.0956,0.4431,59.3862,79.1787,-44.4938,66.05394651928552,-19.82995544605749,13.694083611342666,0.26033333333327846
-0.4438,0.5794,1.1496,-0.243,0.0956,0.4431,59.3862,79.1787,-44.4938,63.29509241531273,-19.039197428882268,16.973387423455364,0.26033333333327846
-0.4438,0.5794,1.1496,-0.243,0.0956,0.4431,18.3312,49.5075,-46.0513,63.25365614331661,-19.021397740855267,17.014006682741005,0.26033333333327846
0.0486,0.0114,0.9184,-0.243,0.0956,0.4431,18.3312,49.5075,-46.0513,88.19115833588941,2.549753758017822,21.56434995362402,0.26033333333327846
-0.1274,0.5179,0.9875,-0.2337,0.0917,0.431,20.7725,47.425,-53.5412,63.31375484749749,-6.348491811558921,22.073613252538888,0.26033333333327846
-0.1274,0.5179,0.9875,-0.2337,0.0917,0.431,20.7725,47.425,-53.5412,62.362777949764464,-6.514791206228949,22.97561263049743,0.26033333333327846
-0.2383,0.7312,1.1924,-0.2337,0.0917,0.431,24.5613,62.055,-51.9575,58.61222362071941,-9.607783326709413,26.06541329807298,0.26033333333327846
-0.2383,0.7312,1.1924,-0.2237,0.0916,0.4404,24.5613,62.055,-51.9575,58.48699074440032,-9.667351367383883,27.527107742684827,0.2616333333332932
-0.065,0.0152,0.9792,-0.2237,0.0916,0.4404,-14.3588,53.6025,-40.4338,86.31946282470862,-3.942605467431546,17.712344420983126,0.2616333333332932
-0.065,0.0152,1.0051,-0.2237,0.0916,0.4404,6.5275,41.5975,-50.47,88.89740255713252,-3.7045690555409467,18.621244854180226,0.2616333333332932
-0.2514,0.3141,1.0051,-0.2237,0.0916,0.4404,6.5275,41.5975,-50.47,74.00964322817823,-13.234585397045862,7.159754216729532,0.2618999999999687
-0.1971,0.939,1.0512,-0.2146,0.0879,0.4501,14.5162,35.7612,-56.9012,49.52209984335362,-8.053083715073598,40.32496460046259,0.2618999999999687
-0.1971,0.939,1.0512,-0.2146,0.0879,0.4501,14.5162,35.7612,-56.9012,48.29178888435715,-7.961968187727162,41.22827099366688,0.2618999999999687
0.2286,0.1823,0.6734,-0.2146,0.0879,0.4501,-37.03,34.0288,-39.2262,74.06272137482945,17.476683216207665,28.429509254052086,0.26215000000001965
0.2286,0.1823,0.6734,-0.2077,0.089,0.4454,-37.03,34.0288,-39.2262,74.82874084209132,18.12575451036356,28.446809639320264,0.26215000000001965
-0.0841,0.3442,0.8856,-0.2077,0.089,0.4454,-16.4675,61.6787,-39.06,69.22464410723546,-4.4642052914474295,17.82614053730182,0.26215000000001965
-0.1805,0.7444,1.1174,-0.2077,0.089,0.4454,-16.4675,61.6787,-39.06,57.31477275838296,-7.574874173701166,33.18735580807018,0.26215000000001965
-0.1805,0.7444,1.1174,-0.1956,0.0923,0.4485,-21.63,77.8138,-33.2238,56.38291315683162,-7.654212814711773,34.44424943559151,0.26215000000001965
0.1975,-0.2185,0.7881,-0.1956,0.0923,0.4485,-21.63,77.8138,-33.2238,102.80377493557188,12.936919835518548,64.38285269016562,0.26215000000001965
0.1975,-0.2185,0.7881,-0.1956,0.0923,0.4485,-43.3213,77.4812,-33.4162,105.42856838650228,13.557432922538753,65.63744562299301,0.26241666666669516
-0.2449,0.306,0.9951,-0.1956,0.0923,0.4485,13.1862,93.0475,-52.255,74.65794524840766,-12.72421652006836,7.62607261290529,0.26241666666669516
-0.2397,0.7068,0.9487,-0.1819,0.0922,0.457,13.1862,93.0475,-52.255,54.462374165475616,-11.478119690105315,36.91739016060801,0.26241666666669516
-0.2397,0.7068,0.9487,-0.1819,0.0922,0.457,-9.765,93.9837,-44.5638,53.49336281954391,-11.454338250201321,37.2290274922548,0.26241666666669516
0.0348,0.1303,0.8528,-0.1819,0.0922,0.457,-9.765,93.9837,-44.5638,76.95088455046749,2.0008778874946573,7.254703723101692,0.26241666666669516
0.0348,0.1303,0.8528,-0.1658,0.0934,0.4499,-20.7813,102.62,-39.7863,81.06213743050358,2.3022044693219565,9.383979283737576,0.2626666666666324
-0.2546,0.0294,0.7832,-0.1658,0.0934,0.4499,-20.7813,102.62,-39.7863,87.45996764984714,-17.485652999253798,14.356662547396484,0.2626666666666324
-0.2546,0.654,0.9479,-0.1658,0.0934,0.4499,18.7425,121.5113,-50.3125,56.72520558414487,-12.56624104389331,34.78779119680175,0.2626666666666324
-0.4388,0.6479,0.9479,-0.1658,0.0934,0.4704,18.7425,121.5113,-50.3125,55.69165191453747,-20.749504062182922,31.12009295192528,0.2626666666666324
-0.1861,0.106,0.7567,-0.147,0.0924,0.4564,-15.4525,118.2213,-53.5325,79.84312610486266,-13.82033353859816,6.048198281481291,0.2626666666666324
-0.1861,0.106,0.7567,-0.147,0.0924,0.4564,-15.4525,129.4212,-64.6888,81.84487943348203,-13.690387442415863,6.360303752068883,0.26586666666662495
-0.1596,0.1171,0.6067,-0.147,0.0924,0.4564,-22.75,129.8412,-64.6888,79.21861971018275,-14.47043503930932,0.9782708540281239,0.2661166666666759
-0.1596,0.1171,0.6067,-0.1224,0.0955,0.4591,-5.215,160.2388,-80.6838,79.15385198555305,-14.482537400140854,1.6390868565866583,0.2661166666666759
-0.3982,0.6007,0.8378,-0.1224,0.0955,0.4591,-5.215,160.2388,-80.6838,67.92571580705066,-21.037525361532246,35.025278152545624,0.2661166666666759
-0.3106,0.1171,0.8879,-0.1224,0.0955,0.4591,-29.4088,177.2575,-73.675,81.92736421640421,-19.153053271182248,7.10593470739014,0.2663833333333514
-0.3106,0.1171,0.8879,-0.0934,0.0989,0.4563,-29.4088,177.2575,-73.675,82.4654450315988,-19.127463350054008,9.050307877414404,0.2663833333333514
-0.4422,-0.1,0.7637,-0.0934,0.0989,0.4563,-14.3062,183.365,-73.8412,96.0866848034502,-29.71566420591167,27.579148806838415,0.2663833333333514
-0.4422,-0.1,0.7637,-0.0934,0.0989,0.4563,-14.3062,183.365,-73.8412,97.33418131607617,-29.859121408728367,27.679674666085404,0.26663333333328865
-0.6769,0.5582,0.8934,-0.0934,0.0989,0.4563,22.1725,183.4088,-77.2625,59.429818762821476,-32.68597976846515,26.250799312545094,0.26663333333328865
-0.4296,0.3497,0.8619,-0.0658,0.0998,0.4467,22.1725,183.4088,-77.2625,67.60813421270481,-24.892825270950656,16.909692812812853,0.26663333333328865
-0.4296,0.3497,0.8619,-0.0658,0.0998,0.4467,-3.8937,165.3488,-66.8938,67.70990023777382,-24.792120460486977,16.85905588052827,0.26663333333328865
-0.2874,-0.0082,0.5148,-0.0658,0.0998,0.4467,-3.7362,166.8975,-71.19,76.86005079672574,-29.108909342109865,21.059348118668055,0.26663333333328865
-0.2874,-0.0082,0.5148,-0.0375,0.1023,0.45,-3.7362,166.8975,-71.19,82.40176776739568,-29.169575733124073,23.524458082221816,0.26663333333328865
-0.8126,0.7307,0.6476,-0.0375,0.1023,0.45,9.4412,187.495,-59.8937,44.30467974996829,-39.592254893592155,44.656380970133284,0.26663333333328865
-0.8126,0.2663,0.5932,-0.0375,0.1023,0.45,9.4412,187.495,-59.8937,64.37249355474225,-51.13750026757991,13.741820910934605,0.26663333333328865
-0.5801,0.2663,0.5932,-0.0375,0.1023,0.4426,-57.2687,177.7825,-42.6912,65.79674870741492,-41.95787854922388,15.146876983076996,0.26689999999996417
-0.691,-0.2111,0.6726,-0.0124,0.1094,0.4426,-57.2687,177.7825,-42.6912,106.65222591436098,-44.369572965803826,39.773080273783854,0.26689999999996417
-0.691,-0.2111,0.6726,-0.0124,0.1094,0.4426,-37.7912,179.1387,-41.7463,107.402356985825,-44.4260786102096,40.08036075695054,0.26689999999996417
-0.748,0.2543,0.8251,-0.0124,0.1094,0.4426,-37.7912,179.1387,-41.7463,73.87415914704651,-40.988232766676084,4.550447991466762,0.26689999999996417
-0.748,0.2543,0.8251,0.0128,0.116,0.4442,-20.7288,167.1512,-52.7887,72.92831680410256,-40.905391359993885,3.9355913126073867,0.26689999999996417
-0.7397,0.151,0.6499,0.0128,0.116,0.4442,-20.7288,167.1512,-52.7887,76.68960915596246,-47.815931699046374,2.1119846351702614,0.26689999999996417
-0.66,0.0467,0.3489,0.0128,0.116,0.4442,-30.5725,147.4025,-53.0687,82.16713139594091,-61.66066898937418,8.014716696615794,0.26689999999996417
-0.66,0.0467,0.3489,0.0346,0.1194,0.4354,-10.0275,151.0863,-47.565,82.34481272647676,-61.92113772341966,9.087056772293844,0.26689999999996417
-0.8124,0.4847,0.3522,0.0346,0.1194,0.4354,-10.0275,151.0863,-47.565,42.98241869336793,-53.76632025054299,46.61223580418639,0.2671666666666397
-0.8124,0.4847,0.3522,0.0346,0.1194,0.4354,-32.7687,159.985,-31.1675,36.24099864479389,-53.596694470456654,46.978715137590086,0.2671666666666397
-0.7301,0.2852,0.2841,0.0346,0.1194,0.4354,-32.7687,159.985,-31.1675,44.59494707511618,-60.88696072772215,34.558000792602776,0.2671666666666397
-0.6379,-0.0479,0.4938,0.0566,0.1273,0.4221,-57.505,176.8025,-16.275,94.59913318367197,-52.66590610411826,29.882010794463113,0.2671666666666397
-0.6379,-0.0479,0.4938,0.0566,0.1273,0.4221,-57.505,176.8025,-16.275,95.523123358202,-52.1597204329502,30.244528942656537,0.2671666666666397
-0.9721,0.034,0.8643,0.0566,0.1273,0.4221,-37.0563,189.9362,-21.6737,87.97819997003873,-48.51414051282018,21.51742449788659,0.2671666666666397
-0.9721,0.034,0.8643,0.079,0.1322,0.4179,-37.0563,189.9362,-21.6737,87.75410859958464,-48.34567473360759,23.70272719298665,0.2671666666666397
-1.1159,-0.0819,0.8739,0.079,0.1322,0.4179,-15.7675,167.2213,-27.5187,94.74012069574256,-51.68646256489735,32.382074389883506,0.2671666666666397
-1.1159,-0.0597,0.6406,0.079,0.1322,0.4179,13.3525,128.0213,-34.6325,95.29306793671937,-59.792984232021745,28.7953811676003,0.2671666666666397
-1.0238,-0.0597,0.6406,0.079,0.1322,0.4074,13.0025,128.0213,-34.6325,95.32254278867279,-57.90999097716282,30.19596065715456,0.2671666666666397
-0.9994,0.2597,0.3675,0.095,0.1315,0.4074,32.6725,102.305,-38.71,55.81838102152745,-65.55641439262881,20.456464493688607,0.2671666666666397
-0.9994,0.2597,0.3675,0.095,0.1315,0.4074,32.6725,102.305,-38.71,54.78043231320011,-65.75411805996751,20.947001411248387,0.2674166666666906
-0.5849,0.3875,0.003,0.095,0.1315,0.4074,6.09,99.9425,-31.01,5.177844372789799,-56.774054179952024,81.02989106786575,0.2674166666666906
-0.5849,0.3875,0.003,0.1077,0.1364,0.3978,6.09,99.9425,-31.01,0.8560600621036716,-56.48415198024868,81.84577039912935,0.2674166666666906
-0.4308,0.1261,0.0761,0.1077,0.1364,0.3978,-27.2388,138.6087,-24.4212,29.84207796031393,-70.52492481067611,45.25979294163618,0.2674166666666906
-0.9251,0.1496,0.6676,0.1077,0.1364,0.3978,-27.2388,138.6087,-24.4212,75.3768157647435,-54.21275387702746,9.22785310562774,0.2674166666666906
-0.9251,0.1496,0.6676,0.1268,0.1416,0.3896,-22.3825,161.42,-14.105,77.26455344136615,-53.56484429419816,11.714835630303792,0.2674166666666906
-1.1398,-0.1529,0.8201,0.1268,0.1416,0.3896,-22.3825,161.42,-14.105,99.33456894235982,-53.782554096106644,44.442763910535206,0.2674166666666906
-1.1398,-0.1529,0.8201,0.1268,0.1416,0.3896,-18.5938,142.835,-10.955,100.480358011425,-53.797684719948585,44.64416120821215,0.2674166666666906
-0.977,-0.2485,0.55,0.1268,0.1416,0.3896,19.915,117.0837,-28.6825,113.76757139823806,-58.137696720961436,57.194369428611495,0.2674166666666906
-1.0706,0.2275,0.5827,0.14,0.1438,0.3733,19.915,117.0837,-28.6825,70.45536254308728,-59.64823622183266,0.10990095748950608,0.2674166666666906
-1.0706,0.2275,0.5827,0.14,0.1438,0.3733,39.0775,103.4775,-36.2425,68.71322038063855,-59.70136069958231,0.37317223711030184,0.2674166666666906
-0.8825,0.1338,0.2829,0.14,0.1438,0.3733,39.0775,103.4775,-36.2425,64.77831787440822,-70.17732327773389,5.093977030228698,0.26768333333336614
-0.8825,0.1338,0.2829,0.1521,0.1431,0.3624,16.9137,99.3913,-25.8038,64.69184665519148,-70.46331648808848,4.639001633511947,0.26768333333336614
-0.8989,-0.0148,0.189,0.1521,0.1431,0.3624,16.9137,99.3913,-25.8038,93.14189858062502,-77.79482304006926,28.448849250553227,0.26768333333336614
-0.965,0.2589,0.3138,0.1521,0.1431,0.3624,19.8363,108.1237,-25.3663,52.16725389630194,-67.56165498660133,22.59185276830446,0.26768333333336614
-0.965,0.2589,0.3138,0.1726,0.1444,0.3625,19.8363,108.1237,-25.3663,50.54279982526686,-67.15770059928313,23.424823430724338,0.26768333333336614
-0.9492,0.3522,0.1912,0.1648,0.1444,0.3625,6.6325,110.7838,-20.9212,30.33052772372455,-67.11279207025935,49.41292690486614,0.26768333333336614
-0.9492,0.3522,0.1912,0.1648,0.1444,0.3625,6.6325,128.7038,-9.1525,28.64895192059054,-67.11078156764339,49.64579799926765,0.26768333333336614
-0.8494,-0.0444,0.3055,0.1648,0.1444,0.3625,-17.8325,128.3188,-9.1525,93.44958855411537,-69.70684878647546,36.06516907227867,0.26768333333336614
-0.8494,-0.0444,0.3856,0.1759,0.1456,0.3338,-0.3063,142.3887,1.82,95.95459332558839,-66.54803502052232,40.56254251606669,0.26768333333336614
-1.0159,0.007,0.3856,0.1759,0.1456,0.3338,-0.3063,142.3887,1.82,90.33660160992162,-68.52064487962417,29.045873905595382,0.26768333333336614
-1.0416,0.0242,0.3906,0.1759,0.1456,0.3338,13.125,134.225,-1.5137,86.66440805419535,-68.80833837518367,25.77884565109433,0.2679333333333034
-1.0416,0.0242,0.3906,0.1868,0.1452,0.3228,13.125,134.225,-1.5137,86.46604341980952,-69.00274110915436,27.080116514736662,0.2679333333333034
-1.0179,0.1909,0.2031,0.1868,0.1452,0.3228,21.4112,118.79,-6.4575,48.254709845777676,-73.80125074632241,22.44311537135626,0.2679333333333034
-1.0179,0.1909,0.2031,0.1868,0.1452,0.3228,21.4112,118.79,-6.4575,46.8288361387014,-74.54825350006436,22.85669074757374,0.2679333333333034
-0.7565,0.1898,0.0481,0.1868,0.1452,0.3228,18.6025,117.8975,-2.3537,15.580015123768009,-75.08345065971957,58.749853767010144,0.2679333333333034
-0.7684,0.0298,0.169,0.195,0.145,0.3072,18.6025,117.8975,11.0863,77.31446392997829,-77.23331064720537,17.231997853513736,0.2679333333333034
-0.7684,0.0298,0.169,0.195,0.145,0.3072,18.1563,136.1237,10.7275,79.8857006298872,-77.39679035624876,17.872019054262317,0.2679333333333034
-1.014,0.3767,0.1155,0.195,0.145,0.3072,35.7088,157.5175,15.5837,18.57515357631489,-69.2553437303874,59.93539796852291,0.2679333333333034
-1.014,0.3767,0.1155,0.205,0.1427,0.2878,35.7088,157.5175,15.5837,17.0832726587014,-68.79322145243054,60.579999451428925,0.2692333333333181
-0.9798,0.2774,0.2683,0.205,0.1427,0.2878,16.3013,169.3737,30.345,42.80152410191042,-68.5106094532422,27.733203849102125,0.2692333333333181
-0.9031,-0.2344,0.3692,0.205,0.1427,0.2878,16.3013,169.3737,30.345,118.74034564418398,-64.29586027293469,76.96383054001763,0.26949999999999363
-0.9031,-0.2344,0.3692,0.2141,0.1374,0.2732,36.9425,169.2775,27.1513,122.32418890665085,-64.1661442618778,79.62121086142999,0.26949999999999363
-1.2113,0.1168,0.4895,0.2141,0.1374,0.2732,36.9425,169.2775,27.1513,77.66022044487863,-67.32710999092856,20.375975025109533,0.26949999999999363
-1.2113,0.1168,0.4895,0.2141,0.1374,0.2732,72.6162,147.9187,7.8488,76.59340335900983,-67.42791193958253,20.028242924148557,0.26976666666666915
-1.1286,0.3054,0.3706,0.2141,0.1374,0.2732,72.6162,147.9187,7.8488,50.84351891766654,-66.99846273795784,19.292789826941142,0.26976666666666915
-0.9182,0.1021,0.0884,0.2208,0.1332,0.2447,59.0713,116.0513,-0.6037,41.04106767388082,-71.39981296389077,23.369806495175837,0.26976666666666915
-0.9182,0.1021,0.0884,0.2208,0.1332,0.2447,63.5425,109.0687,-1.3825,40.88883872392012,-74.04540054723293,23.404632105333828,0.26976666666666915
-1.1,0.4233,0.141,0.2208,0.1332,0.2447,63.5425,109.0687,-1.3825,18.74869267074706,-72.46234736240739,60.56170735497118,0.2700166666666064
-1.1,0.4233,0.141,0.2248,0.1316,0.233,48.02,123.9088,11.2963,18.42886866471257,-68.26285573175076,61.0063458412762,0.2700166666666064
-0.8394,0.3909,0.0258,0.2248,0.1316,0.233,48.02,123.9088,11.2963,4.050490643904159,-65.22756606937605,80.2520779424692,0.2700166666666064
-1.2611,0.148,0.1097,0.2248,0.1316,0.233,13.4925,125.2475,0.0613,34.825243659420224,-73.83192384034643,27.87761126420897,0.2700166666666064
-1.2647,0.148,0.1097,0.2248,0.1308,0.2204,13.4925,125.2475,0.0613,36.4552761711108,-77.95098226851373,26.224397926787866,0.2700166666666064
-1.0945,0.4778,0.0922,0.2309,0.1308,0.2204,10.4038,127.2688,-5.32,12.5389306846668,-68.28518322588077,71.79189292877813,0.2700166666666064
-1.0945,0.4778,0.0922,0.2309,0.1308,0.2204,10.4038,127.2688,-5.32,11.02438863852928,-66.4566810317398,72.14726998882853,0.27443333333326336
-1.058,0.1358,0.0173,0.2309,0.1308,0.2204,-22.7062,129.92,-6.5975,7.454844715090022,-80.16365513385186,58.03074901218212,0.27443333333326336
-1.058,0.1358,0.0173,0.2381,0.135,0.2077,-22.7062,129.92,-14.5863,7.27007481026959,-82.45801168410941,55.845822898864846,0.27443333333326336
-1.0407,0.1229,0.0284,0.2381,0.135,0.2077,-23.2838,138.2325,-14.5863,12.723067538148115,-83.04577062736368,49.264783847352035,0.2746999999999389
-1.1249,0.3245,0.0766,0.2381,0.135,0.2077,-23.6338,147.105,-26.2763,13.254247923753411,-73.85439300331798,58.63362307521784,0.2746999999999389
-1.1249,0.3245,0.0766,0.2463,0.1398,0.1894,-23.6338,147.105,-26.2763,13.280483640298685,-73.50414499996411,56.14492665668032,0.2746999999999389
-1.3291,0.1023,0.2098,0.2463,0.1398,0.1894,-30.2838,129.8675,-33.95,62.11985410062807,-79.84677487268486,12.424832101904592,0.2749666666666144
-1.3291,0.1023,0.2098,0.2463,0.1398,0.1894,-30.2838,129.8675,-33.95,63.935683040954395,-80.03378382017495,12.94897897483109,0.2749666666666144
-1.2607,0.0397,0.1667,0.2463,0.1398,0.1894,-22.9075,107.485,-35.8225,75.95539745683506,-82.1972535435012,26.78224182590462,0.2749666666666144
-1.1038,0.2606,0.1079,0.2519,0.1454,0.1677,-22.9075,107.485,-35.8225,25.230626959871238,-75.84841023109641,36.79894587212721,0.27521666666666533
-1.1038,0.2606,0.1079,0.2519,0.1454,0.1677,-7.7175,90.9825,-32.1563,23.124247978248608,-75.6715941586852,37.38429685099742,0.27521666666666533
-1.1483,0.1638,0.144,0.2519,0.1454,0.1677,-7.7175,90.9825,-32.1563,37.117424585352396,-79.13460004623552,10.342870065683456,0.27521666666666533
-1.1483,0.1638,0.144,0.2557,0.1491,0.1646,3.29,84.9275,-19.145,40.83513343391624,-79.24004801697619,8.49178572765101,0.27521666666666533
-1.2032,0.1269,0.0356,0.2557,0.1491,0.1646,18.1475,71.9863,-16.0825,16.739953872041482,-83.46778536028543,36.233550207382244,0.27521666666666533
-1.1705,0.2846,0.0181,0.2557,0.1491,0.1646,18.1475,71.9863,-16.0825,4.195660095549006,-76.75365349627107,58.37308927795106,0.27521666666666533
-1.1705,0.2846,0.0181,0.259,0.149,0.154,14.3763,64.1113,-16.9837,3.667163864077205,-76.33381511180839,57.29812592287584,0.27548333333334085
-1.1107,0.0162,0.061,0.259,0.149,0.154,14.3763,64.1113,-16.9837,71.51133437588308,-86.1333241333609,29.901783298706416,0.27548333333334085
-1.1107,0.0162,0.061,0.259,0.149,0.154,15.4175,72.8525,-10.045,74.9532673030705,-86.68634714419375,31.244448418451416,0.27548333333334085
-1.0899,0.2317,-0.0734,0.259,0.149,0.154,15.4175,72.8525,-10.045,-13.130060647010598,-78.35343558413193,77.62305750327941,0.27548333333334085
-1.0899,0.2317,-0.0132,0.2616,0.1523,0.139,28.2275,72.6775,-22.6362,-3.5542320667474754,-77.99591455170287,59.843713028964864,0.27548333333334085
-1.214,0.4289,-0.0132,0.2616,0.1523,0.139,28.2275,72.6775,-22.6362,-1.8160945170378948,-70.8635890630121,69.84768974632276,0.27548333333334085
-1.1296,0.0428,-0.0646,0.2616,0.1523,0.139,3.1325,67.0338,-21.4725,-50.05861986496165,-85.36602988774162,103.18169299726183,0.27548333333334085
-1.1296,0.0428,-0.0646,0.2646,0.1545,0.1307,3.1325,67.0338,-16.9925,-55.72099443395869,-86.03374791313757,101.73672659564453,0.27548333333334085
-1.1467,0.2185,-0.0767,0.2646,0.1545,0.1307,9.3625,69.895,-17.0362,-21.808949990557927,-79.02114278203162,74.97707008893302,0.27548333333334085
-1.1467,0.2185,-0.0767,0.2646,0.1545,0.1307,18.7075,72.1087,-15.1287,-19.444951258515196,-78.61195145180064,74.59920720584283,0.27548333333334085
-1.1962,0.4205,0.0316,0.2646,0.1545,0.1307,18.7075,72.1087,-15.1287,3.3122416430473063,-71.11337984688397,60.917142777612135,0.27548333333334085
-1.0533,-0.0408,-0.0375,0.2664,0.1562,0.1209,2.1,65.7125,-15.3125,-118.61819983214826,-85.94933592336407,173.74978610395118,0.2757333333332781
-1.0533,-0.0408,-0.0375,0.2664,0.1562,0.1209,2.1,65.7125,-15.3125,-134.90308090809722,-86.9203590871706,175.44227617696882,0.2757333333332781
-1.1605,0.1604,0.032,0.2664,0.1562,0.1209,24.4387,68.8975,-23.45,6.38118053050583,-82.18865762685759,34.58582292856156,0.2757333333332781
-1.1605,0.1604,0.032,0.2681,0.1591,0.1082,24.4387,68.8975,-23.45,11.1181238672211,-81.98658791898748,28.596614259824758,0.2757333333332781
-1.217,0.4033,-0.0811,0.2681,0.1591,0.1082,23.9137,70.105,-28.0263,-10.602538898552513,-71.70451139488445,72.49387392954158,0.2757333333332781
-1.0787,0.0983,-0.0941,0.2681,0.1591,0.1082,23.9137,70.105,-28.0263,-42.6182050917827,-82.4132928832907,87.88189603645728,0.2757333333332781
-1.0787,0.0983,-0.0941,0.2701,0.163,0.1033,1.5137,70.4287,-22.8375,-43.58553398925983,-82.79262714420867,86.31330437931626,0.2757333333332781
-1.1055,0.0393,0.0516,0.2701,0.163,0.1033,10.4738,70.665,-27.5187,46.63517510676977,-86.50213629316183,20.633357499258707,0.2757333333332781
-1.1055,0.0393,0.0516,0.2701,0.163,0.1033,9.9838,70.665,-27.5187,52.311134146316604,-86.63710172175716,22.126626574339536,0.2757333333332781
-1.0342,0.3166,-0.0668,0.2701,0.163,0.1033,10.6663,66.1325,-30.975,-7.913522634706366,-73.07946101490137,67.82725625537427,0.2757333333332781
-1.0342,0.2229,-0.1966,0.274,0.167,0.095,10.6663,66.1325,-30.975,-39.325914307428086,-73.93748037607034,94.53518590260968,0.2757333333332781
-0.8807,0.232,-0.1966,0.274,0.167,0.095,0.875,76.2738,-20.2913,-40.12630369753861,-71.0981008892906,98.47517848587022,0.2759999999999536
-0.8784,0.1561,-0.1091,0.274,0.167,0.095,0.875,76.2738,-20.2913,-35.77667837056882,-77.43776635040948,82.80820069968028,0.2759999999999536
-0.8784,0.1561,-0.1091,0.2762,0.1683,0.0781,5.9325,92.8288,-12.8363,-35.02313956922702,-77.74125746040234,78.57056571654716,0.2759999999999536
-1.0231,0.2902,-0.0551,0.2762,0.1683,0.0781,5.9325,92.8288,-12.8363,-12.894962244297266,-74.19613510730551,57.962200584944114,0.2759999999999536
-1.0231,0.2902,-0.0551,0.2762,0.1683,0.0781,2.0563,94.71,-9.8612,-11.038788664199455,-73.92632892222444,57.74240868337524,0.2759999999999536
-1.0202,0.2331,-0.145,0.2762,0.1683,0.0781,2.0563,94.71,-9.8612,-29.083337637696566,-74.83630075311586,80.11231049590381,0.2759999999999536
-0.9999,0.2988,-0.2827,0.2742,0.1682,0.071,-9.2575,92.4788,-1.4438,-40.972773571577896,-72.74342486150226,102.06305240150436,0.2759999999999536
-0.9999,0.2988,-0.2827,0.2742,0.1682,0.071,-17.9375,99.2075,10.8675,-43.246272092447455,-68.0343288978761,102.29815891652552,0.2759999999999536
-1.1287,0.3473,-0.1682,0.2742,0.1682,0.071,-17.9375,99.2075,10.8675,-27.037463563154137,-70.88558712375443,79.7988229763321,0.2759999999999536
-1.1287,0.3473,-0.1682,0.2718,0.1648,0.0581,-34.3263,98.4375,24.255,-25.879919137908022,-71.11604896878956,77.11559380773019,0.2759999999999536
-1.1665,0.186,-0.2006,0.2718,0.1648,0.0581,-34.3263,98.4375,24.255,-46.47485730391792,-76.58547907780303,87.90640824607334,0.2759999999999536
-1.1595,0.1832,-0.2389,0.2718,0.1648,0.0581,-45.4738,92.1288,29.05,-52.373704022344555,-75.48158504202094,95.37403834916842,0.2759999999999536
-1.1595,0.1832,-0.2389,0.2684,0.159,0.0515,-45.4738,92.1288,29.05,-52.51386422394921,-75.44607157624242,94.85299872778197,0.27626666666662913
-1.1631,0.209,-0.2231,0.2684,0.159,0.0515,-48.2125,86.4938,29.0238,-46.99490589534975,-75.27928604826414,89.84754446765405,0.27626666666662913
-1.1631,0.209,-0.2231,0.2684,0.159,0.0515,-48.2125,86.4938,29.0238,-46.871784007360965,-75.27391585088716,89.79030522693854,0.27626666666662913
-1.1883,0.118,-0.2169,0.2684,0.159,0.0515,-51.5462,79.6513,29.925,-61.14974174293363,-78.16791423907054,98.37544188615134,0.27626666666662913
-1.1883,0.1305,-0.2846,0.2642,0.155,0.0428,-51.5462,79.6513,25.725,-65.27916685448646,-75.3446846730965,104.89431431617744,0.27626666666662913
-1.0105,0.1305,-0.2846,0.2642,0.155,0.0428,-50.2163,72.4063,25.725,-65.36486112485173,-72.87714332382106,108.62099593075092,0.27626666666662913
-0.9567,0.1551,-0.2957,0.2642,0.155,0.0428,-46.1912,76.5888,19.11,-62.393261107162864,-70.86009744876156,109.23966089898073,0.27626666666662913
-0.9567,0.1551,-0.2957,0.2621,0.1505,0.0334,-46.1912,76.5888,19.11,-62.323837461312024,-70.76470095670642,107.99762712180966,0.27626666666662913
-0.9992,0.0953,-0.2195,0.2621,0.1505,0.0334,-35.4987,81.4187,21.105,-66.40001092867526,-76.28280634837675,102.2081385010486,0.27626666666662913
-0.9992,0.0953,-0.2195,0.2621,0.1505,0.0334,-35.4987,81.4187,21.105,-66.52694960294392,-76.52128464353544,102.13785455893952,0.27626666666662913
-1.0649,0.2702,-0.3776,0.2621,0.1505,0.0334,-22.2862,85.2688,23.5287,-55.054509357939274,-66.83619388882,109.1120317835534,0.27626666666662913
-1.1864,0.3265,-0.3515,0.2563,0.147,0.0266,-22.2862,85.2688,23.5287,-47.53199831049628,-67.93821832631548,99.76417165710455,0.27651666666668007
-1.1864,0.3265,-0.3515,0.2563,0.147,0.0266,-26.2237,86.7125,33.0838,-47.13012346072125,-67.98180683652186,99.65573571909741,0.27651666666668007
-1.3438,0.1164,-0.2531,0.2563,0.147,0.0266,-26.2237,86.7125,33.0838,-64.50666595488646,-77.99444340614401,96.17478708415162,0.27651666666668007
-1.3438,0.1164,-0.2531,0.2512,0.1408,0.0188,-28.4375,76.8512,38.0275,-65.27066107924449,-78.28059188080175,94.28361410342764,0.27651666666668007
-1.3071,0.2214,-0.3193,0.2512,0.1408,0.0188,-33.3288,61.9938,27.4925,-55.59712335869659,-73.60864410537593,94.28916885654978,0.27651666666668007
-1.218,0.192,-0.3093,0.2512,0.1408,0.0188,-33.3288,61.9938,27.4925,-58.08386366894793,-73.36759851915438,97.03680170797598,0.27651666666668007
-1.218,0.192,-0.3093,0.2477,0.136,0.0166,-44.0563,49.2537,17.01,-58.1676740367244,-73.35959229200031,97.20617558497618,0.27651666666668007
-1.0968,0.1375,-0.3993,0.2477,0.136,0.0166,-44.0563,49.2537,17.01,-70.68321953427451,-69.17333466640012,114.59267963840858,0.27651666666668007
-1.0968,0.1375,-0.3993,0.2477,0.136,0.0166,-40.3988,45.8763,7.735,-70.99019486832022,-68.96507911383763,114.9384626611735,0.27651666666668007
-1.0803,0.2194,-0.3772,0.2477,0.136,0.0166,-40.3988,45.8763,7.735,-60.11732097604201,-68.10298633009718,108.85604905571061,0.2804166666666106
-0.8681,0.1978,-0.4929,0.2461,0.1349,0.0168,-39.1825,47.2675,3.92,-67.91051218936721,-60.147453842073936,126.57525268757551,0.2804166666666106
-0.8681,0.1978,-0.4929,0.2461,0.1349,0.0168,-39.1825,47.2675,3.92,-68.12822852904344,-58.81124652763505,126.9427059711497,0.2804166666666106
-0.9091,0.189,-0.4204,0.2461,0.1349,0.0168,-33.3112,63.9275,3.4825,-65.87070917505976,-62.33410697766867,120.30458260514777,0.2804166666666106
-0.9091,0.189,-0.4204,0.245,0.1322,0.004,-33.3112,63.9275,7.9625,-65.79526705783346,-63.03610492799409,118.292339286654,0.2806833333332861
-1.07,0.2664,-0.1898,0.245,0.1322,0.004,-17.675,72.8088,7.665,-37.59103400096039,-71.97416157216213,70.6453211165241,0.2806833333332861
-1.07,0.2664,-0.4391,0.245,0.1322,0.004,-23.6163,63.5425,9.1438,-57.70877840157901,-65.04055881237481,111.68587907860552,0.2806833333332861
-0.9737,0.1507,-0.4391,0.245,0.1322,0.004,-23.6163,63.5425,9.1438,-70.39778625565978,-64.55667712401433,118.91641125783138,0.2806833333332861
-0.9468,0.3565,-0.4896,0.2406,0.131,0.0034,-14.1838,63.3325,6.5975,-55.46431090835562,-58.2239643731669,121.79455075472154,0.2806833333332861
-0.9468,0.3565,-0.4896,0.2406,0.131,0.0034,-14.1838,63.3325,6.5975,-54.08112833302036,-57.49027408180839,121.83932116190391,0.2806833333332861
-1.14,0.4219,-0.3807,0.2406,0.131,0.0034,-23.2575,67.62,14.5075,-42.66631875395332,-63.140915479855735,104.15611330741307,0.2806833333332861
-1.14,0.4219,-0.3807,0.2387,0.127,0.0061,-23.2575,67.62,14.5075,-42.09184881616384,-63.48252320913481,106.0125429716326,0.2806833333332861
-1.1935,0.2261,-0.4186,0.2387,0.127,0.0061,-38.5438,54.5037,23.5725,-61.06941267779234,-68.07968322997857,107.99059635329438,0.2806833333332861
-1.1673,0.2349,-0.4863,0.2387,0.127,0.0061,-38.5438,54.5037,23.5725,-64.12826952395989,-65.28554919731039,115.07782384077781,0.2806833333332861
-1.1673,0.2349,-0.4863,0.2356,0.1239,-0.0011,-44.8963,35.6213,16.6775,-64.21566632569348,-65.17806437657624,113.88676205438176,0.28093333333333703
-1.02,0.22,-0.4982,0.2356,0.1239,-0.0011,-49.3763,26.0925,8.6888,-66.13165167300166,-62.20636308295163,120.04747988906212,0.28093333333333703
-1.02,0.22,-0.4982,0.2356,0.1239,-0.0011,-49.4113,26.0925,8.6888,-66.17331423145647,-61.92921977262283,120.27526106842002,0.28093333333333703
-0.9383,0.2069,-0.5642,0.2356,0.1239,-0.0011,-44.52,25.6725,6.5538,-69.77164848810521,-57.89402059123735,127.61711904641886,0.28093333333333703
-0.8194,0.2565,-0.6389,0.2342,0.1209,0.0026,-44.52,25.6725,6.5538,-68.1659660285099,-50.88633943312718,135.8803292673657,0.28093333333333703
-0.8194,0.2565,-0.6389,0.2342,0.1209,0.0026,-38.5438,35.8225,3.325,-68.1270946956131,-50.13511677061388,136.19400756316443,0.28093333333333703
-0.9246,0.1948,-0.4584,0.2342,0.1209,0.0026,-38.5438,35.8225,3.325,-67.00934965599697,-59.53298424428378,122.87736529206266,0.28093333333333703
-0.9246,0.1948,-0.4584,0.2326,0.1184,-0.0002,-26.8625,45.22,9.4675,-66.97801938664375,-61.501581935140585,122.51217432236288,0.28093333333333703
-1.0133,0.1665,-0.4701,0.2326,0.1184,-0.0002,-26.8625,45.22,9.4675,-70.34697768031982,-63.59562209683514,121.05389472262144,0.28093333333333703
-1.0133,0.1665,-0.5114,0.2326,0.1184,-0.0002,-10.0712,43.0763,10.6925,-71.72372885100143,-62.16436509933895,124.13985474281381,0.28093333333333703
-0.9525,0.3226,-0.5114,0.2326,0.1184,-0.0002,-10.0712,43.0763,10.6925,-59.845395062052,-57.951766244036676,125.40631368628468,0.28093333333333703
-1.1313,0.1866,-0.418,0.2284,0.1162,-0.0048,-3.9462,35.7788,11.1213,-61.712044676257875,-67.20864537427148,110.32024638090137,0.28093333333333703
-1.1313,0.1866,-0.418,0.2284,0.1162,-0.0048,7.28,26.5912,16.9225,-65.60942503783745,-67.93003316068386,109.91338419304284,0.28120000000001255
-1.2117,0.2683,-0.5031,0.2284,0.1162,-0.0048,7.28,26.5912,16.9225,-62.21980821419507,-64.96556381184938,113.5265570223513,0.28120000000001255
-1.2117,0.2683,-0.5031,0.2276,0.1112,-0.0121,7.8313,15.2513,15.2688,-61.95126458930636,-64.81001193547037,113.36004428230325,0.28120000000001255
-1.2285,0.4458,-0.534,0.2276,0.1112,-0.0121,7.8313,15.2513,15.2688,-51.037051552975214,-60.73003305917242,118.13572304745834,0.28120000000001255
-1.1649,0.3601,-0.687,0.2276,0.1112,-0.0121,-7.6825,4.1388,16.5025,-59.707013340040035,-56.578835725197195,126.57955750764148,0.28120000000001255
-1.1649,0.3601,-0.687,0.225,0.1104,-0.0082,-7.6825,4.1388,16.5025,-61.725555556643094,-56.35488629889397,128.49408598295517,0.28120000000001255
-1.3096,0.3769,-0.6126,0.225,0.1104,-0.0082,-16.5725,0.8313,16.9662,-58.65059148688908,-60.967294577918985,124.68958629296665,0.28120000000001255
-1.3096,0.3769,-0.6126,0.225,0.1104,-0.0082,-16.5725,0.8313,16.9662,-58.417377474336014,-61.210052703966085,122.55875110296496,0.28120000000001255
-1.2295,0.3972,-0.6902,0.225,0.1104,-0.0082,-29.7675,-6.9125,14.21,-60.017169815298764,-57.324290513758825,126.82640268095584,0.28120000000001255
-0.9692,0.28,-0.7144,0.223,0.1068,-0.0055,-29.7675,-6.9125,12.075,-68.27266164042027,-52.034974113023964,135.57054369435107,0.28120000000001255
-0.9692,0.28,-0.7144,0.223,0.1068,-0.0055,-42.9188,-8.7587,12.075,-68.58970685836546,-51.66007969234863,136.69901463894385,0.28120000000001255
-1.0012,0.0585,-0.5666,0.223,0.1068,-0.0055,-33.8013,1.75,8.1025,-83.59509902211471,-59.50457900190815,133.89536176423636,0.28146666666668807
-1.0012,0.0585,-0.5666,0.2226,0.103,-0.0049,-33.8013,1.75,8.1025,-84.08847088700007,-60.27847943176446,133.62681931480583,0.28146666666668807
-0.9842,0.1661,-0.5423,0.2226,0.103,-0.0049,-9.1875,3.8763,0.175,-74.88758729381034,-60.15144166918848,130.6173800907393,0.28146666666668807
-0.9842,0.1661,-0.5185,0.2226,0.103,-0.0049,-9.1875,3.8763,0.175,-72.69422293579903,-60.64254913796056,128.7471059831778,0.28146666666668807
-0.9519,0.1,-0.5185,0.2226,0.103,-0.0049,12.075,5.705,-5.4075,-78.717834552247,-60.91818014815589,130.5531542623383,0.28146666666668807
-0.8817,0.151,-0.5866,0.2218,0.1051,0.0015,12.075,5.705,-5.4075,-75.74514439334864,-56.51735018859502,135.04595673634344,0.28146666666668807
-0.8817,0.151,-0.5866,0.2218,0.1051,0.0015,40.1625,15.0763,-10.2812,-75.56853354722105,-55.60933509447071,135.7903327825836,0.28146666666668807
-1.0668,0.3066,-0.4843,0.2218,0.1051,0.0015,40.1625,15.0763,-10.2812,-58.0560699018308,-61.15148971377611,123.11117114942878,0.2853666666666186
