AcclX,AcclY,AcclZ,MagX,MagY,MagZ,GyroX,GyroY,GyroZ,Roll,Pitch,Yaw,Time Elapsed(s)
0.4986,0.0841,0.7311,-0.3711,0.4683,0.4081,-0.8225,0.63,-1.8375,0,0,0,0.0
0.4776,0.0907,0.7599,-0.373,0.4674,0.4086,-0.77,0.77,-2.2313,0,0,0,0.01600000000325963
0.4776,0.0907,0.7599,-0.373,0.4674,0.4086,-0.7525,0.35,-1.9162,0,0,0,0.01600000000325963
0.5084,0.0867,0.7502,-0.3718,0.4696,0.407,-0.7525,0.35,-1.9162,0,0,0,0.031000000002677552
0.4686,0.0846,0.7765,-0.3718,0.4696,0.407,-0.2275,1.1988,-2.0825,0,0,0,0.031000000002677552
0.5045,0.0907,0.7484,-0.3718,0.4696,0.407,-0.5863,0.4812,-2.065,0,0,0,0.04700000000593718
0.4781,0.0822,0.7591,-0.3727,0.4684,0.4166,-0.5863,1.3125,-2.24,0,0,0,0.04700000000593718
0.4781,0.0822,0.7591,-0.3727,0.4684,0.4166,-0.875,1.3125,-2.24,0,0,0,0.06199999999807915
0.5042,0.0904,0.7534,-0.3722,0.4673,0.4096,-0.5512,0.42,-2.4062,0,0,0,0.06199999999807915
0.4715,0.0838,0.7627,-0.3722,0.4673,0.4096,-0.0263,0.98,-2.03,0,0,0,0.07800000000133878
0.4952,0.0886,0.7491,-0.3722,0.4673,0.4096,-0.0263,0.98,-2.03,0,0,0,0.07800000000133878
0.4758,0.088,0.7619,-0.3719,0.4677,0.4142,-0.4638,1.1463,-2.0912,0,0,0,0.09399999999732245
0.4758,0.088,0.7619,-0.3719,0.4677,0.4142,-0.9712,0.7437,-2.2662,0,0,0,0.09399999999732245
0.4972,0.0845,0.7544,-0.3716,0.4671,0.4118,-0.5075,0.7088,-2.6775,0,0,0,0.10900000000401633
0.4818,0.0898,0.7574,-0.3716,0.4671,0.4118,-0.5075,0.7088,-2.6775,0,0,0,0.10900000000401633
0.4993,0.0875,0.7537,-0.3716,0.4671,0.4118,-0.9538,0.35,-2.3537,0,0,0,0.12500000000727596
0.469,0.0809,0.7628,-0.3714,0.4683,0.4083,-0.6388,0.8662,-2.065,0,0,0,0.12500000000727596
0.469,0.0809,0.7628,-0.3714,0.4683,0.4083,-0.3938,0.6913,-2.6688,0,0,0,0.13999999999941792
0.5035,0.0871,0.7495,-0.3714,0.4678,0.409,-0.3938,0.6913,-2.6688,0,0,0,0.13999999999941792
0.4736,0.0813,0.7529,-0.3714,0.4678,0.409,-0.63,0.9975,-2.0912,0,0,0,0.15600000000267755
0.5028,0.092,0.7487,-0.3714,0.4678,0.409,-0.2625,0.7962,-1.9075,0,0,0,0.15600000000267755
0.5028,0.0866,0.7588,-0.3714,0.4671,0.4096,-0.525,1.0675,-2.0038,0,0,0,0.17199999999866122
0.4726,0.0866,0.7588,-0.3714,0.4671,0.4096,-0.525,1.0675,-2.0038,0,0,0,0.17199999999866122
0.4931,0.0882,0.7483,-0.3714,0.4689,0.408,-0.945,0.3237,-1.9863,0,0,0,0.1870000000053551
0.4752,0.0859,0.7723,-0.3722,0.4689,0.408,-0.5425,0.8225,-2.3712,0,0,0,0.1870000000053551
0.4941,0.088,0.7359,-0.3722,0.4689,0.408,-0.8138,0.2275,-2.4062,0,0,0,0.20300000000861473
0.4941,0.088,0.7732,-0.3719,0.4675,0.4103,-0.8138,0.2275,-2.4062,0,0,0,0.20300000000861473
0.4687,0.0867,0.7732,-0.3719,0.4675,0.4103,-0.0437,0.91,-2.2575,0,0,0,0.2180000000007567
0.496,0.0878,0.7521,-0.3719,0.4675,0.4152,0.0175,1.155,-2.275,0,0,0,0.2180000000007567
0.4738,0.0846,0.771,-0.372,0.4669,0.4152,0.0875,1.2775,-2.2662,0,0,0,0.23400000000401633
0.5033,0.0905,0.7448,-0.372,0.4669,0.4152,0.0875,1.2775,-2.2662,0,0,0,0.23400000000401633
0.5033,0.0905,0.7604,-0.3718,0.468,0.4031,-0.1575,0.9712,-2.3537,0,0,0,0.25
0.4778,0.0811,0.7646,-0.3718,0.468,0.4031,-0.4375,0.9275,-2.5725,0,0,0,0.25
0.4983,0.0912,0.7488,-0.3718,0.468,0.4031,-0.4375,0.98,-2.4762,0,0,0,0.2649999999994179
0.4762,0.0827,0.7643,-0.3711,0.4682,0.407,-0.6475,0.98,-2.4762,0,0,0,0.2649999999994179
0.4951,0.0859,0.7482,-0.3711,0.4682,0.407,-0.4025,0.6037,-2.4675,0,0,0,0.28100000000267755
0.4951,0.0859,0.7482,-0.3713,0.468,0.4067,-0.49,0.6825,-2.6513,0,0,0,0.28100000000267755
0.479,0.0866,0.7629,-0.3713,0.468,0.4067,-0.49,0.6825,-1.8025,0,0,0,0.2960000000020955
0.4997,0.0846,0.7451,-0.3713,0.468,0.4067,-0.77,0.0525,-1.8025,0,0,0,0.2960000000020955
0.4718,0.0859,0.7665,-0.3717,0.4682,0.3994,-0.7175,0.805,-2.1175,0,0,0,0.3120000000053551
0.4953,0.0883,0.7443,-0.3717,0.4682,0.3994,-0.84,0.49,-2.1263,0,0,0,0.3120000000053551
0.4953,0.0883,0.7443,-0.3726,0.4695,0.413,-0.84,0.49,-2.1263,0,0,0,0.3280000000013388
0.466,0.0794,0.7794,-0.3726,0.4695,0.413,-0.1488,1.3737,-2.1962,0,0,0,0.3280000000013388
0.5048,0.0938,0.7485,-0.3726,0.4695,0.413,-0.9538,0.8225,-2.5638,0,0,0,0.3430000000007567
0.4747,0.0809,0.7621,-0.3717,0.4682,0.4104,-1.1463,0.8313,-2.6775,0,0,0,0.3430000000007567
0.4925,0.096,0.7541,-0.3717,0.4682,0.4104,-1.1463,0.8313,-2.6775,0,0,0,0.35899999999674037
0.4925,0.096,0.7541,-0.3716,0.4682,0.403,-0.8225,0.4462,-2.8087,0,0,0,0.35899999999674037
0.4712,0.0802,0.7713,-0.3716,0.4682,0.403,-1.1113,0.42,-1.8463,0,0,0,0.37400000000343425
0.5027,0.0905,0.7427,-0.3716,0.4682,0.403,-0.3938,0.8138,-2.0738,0,0,0,0.3900000000066939
0.4807,0.0916,0.7486,-0.3721,0.4676,0.4096,-0.3938,0.8138,-2.0738,0,0,0,0.3900000000066939
0.4914,0.0801,0.7571,-0.3721,0.4676,0.4096,-0.77,0.5863,-2.4762,0,0,0,0.40600000000267755
0.4914,0.0801,0.7571,-0.3729,0.4673,0.4067,-0.5512,0.4638,-2.38,0,0,0,0.40600000000267755
0.4706,0.0897,0.7721,-0.3729,0.4673,0.4067,-0.6388,0.7175,-2.8263,0,0,0,0.4210000000020955
0.4976,0.0862,0.7609,-0.3729,0.4673,0.4067,-0.6388,0.7175,-2.8263,0,0,0,0.4210000000020955
0.4854,0.089,0.7572,-0.3727,0.4678,0.407,-0.6125,0.945,-2.5025,0,0,0,0.43699999999807915
0.4868,0.0889,0.7664,-0.3727,0.4678,0.407,-0.3063,-0.0088,-2.7037,0,0,0,0.43699999999807915
0.4868,0.0889,0.7664,-0.3724,0.4685,0.408,-0.4375,0.4462,-2.3975,0,0,0,0.45200000000477303
0.4793,0.0784,0.7562,-0.3724,0.4685,0.408,-0.4375,0.4462,-2.3975,0,0,0,0.45200000000477303
0.4937,0.0905,0.7581,-0.3724,0.4685,0.408,-0.5075,0.7437,-2.4062,0,0,0,0.46800000000803266
0.4757,0.0836,0.7645,-0.3722,0.4677,0.4082,-0.035,1.2163,-2.31,0,0,0,0.46800000000803266
0.4935,0.0845,0.7479,-0.3722,0.4677,0.4082,-0.3675,0.7788,-2.415,0,0,0,0.48400000000401633
0.4935,0.0845,0.7479,-0.373,0.4682,0.4078,-0.3675,0.7788,-2.415,0,0,0,0.48400000000401633
0.4742,0.0914,0.763,-0.373,0.4682,0.4078,-0.1925,0.7788,-2.1613,0,0,0,0.49900000000343425
0.504,0.0842,0.7465,-0.373,0.4682,0.4078,-0.4638,0.9275,-2.4762,0,0,0,0.49900000000343425
0.4777,0.0853,0.7529,-0.3726,0.468,0.4086,-0.4638,0.9275,-2.4413,0,0,0,0.5149999999994179
0.492,0.0893,0.7447,-0.3726,0.468,0.4086,-0.0437,1.365,-2.4413,0,0,0,0.5149999999994179
0.492,0.0893,0.7447,-0.371,0.468,0.4063,-0.455,1.2337,-1.9775,0,0,0,0.5300000000061118
0.4765,0.0841,0.7681,-0.371,0.468,0.4063,-0.3237,0.98,-2.4588,0,0,0,0.5300000000061118
0.4915,0.0907,0.747,-0.371,0.468,0.4063,-0.3237,0.98,-2.4588,0,0,0,0.5460000000020955
0.4839,0.0845,0.7586,-0.3715,0.4674,0.4193,-0.42,0.7525,-2.38,0,0,0,0.5460000000020955
0.4839,0.0875,0.7577,-0.3715,0.4674,0.4193,-0.455,0.7437,-2.1962,0,0,0,0.5619999999980791
0.4967,0.0875,0.7577,-0.3705,0.4675,0.4089,-0.595,0.665,-2.2662,0,0,0,0.5619999999980791
0.4791,0.0856,0.7646,-0.3705,0.4675,0.4089,-0.595,0.665,-2.2662,0,0,0,0.577000000004773
0.4908,0.0848,0.7652,-0.3705,0.4675,0.4089,-0.5075,1.085,-2.1525,0,0,0,0.577000000004773
0.4767,0.0886,0.7654,-0.3715,0.4686,0.4122,0.0875,1.1638,-2.3537,0,0,0,0.5930000000007567
0.4767,0.0886,0.748,-0.3715,0.4686,0.4122,-0.4812,0.9712,-2.3975,0,0,0,0.5930000000007567
0.4912,0.0822,0.748,-0.3726,0.4676,0.4075,-0.4812,0.9712,-2.3975,0,0,0,0.6080000000001746
0.4789,0.0869,0.7629,-0.3726,0.4676,0.4075,-0.8925,0.9013,-2.5113,0,0,0,0.6080000000001746
0.4953,0.0905,0.7447,-0.3726,0.4676,0.4075,-0.5775,0.2975,-2.5463,0,0,0,0.6239999999961583
0.4823,0.0842,0.7575,-0.3728,0.4678,0.3981,-0.245,0.9187,-2.4325,0,0,0,0.6239999999961583
0.4823,0.0842,0.7673,-0.3728,0.4678,0.3981,-0.245,0.9187,-2.4325,0,0,0,0.6399999999994179
0.4876,0.0923,0.7673,-0.3717,0.4684,0.4084,-0.2187,0.9538,-2.38,0,0,0,0.6399999999994179
0.4862,0.0808,0.7395,-0.3717,0.4684,0.4084,-0.77,1.33,-1.9775,0,0,0,0.6550000000061118
0.4886,0.0866,0.7657,-0.3717,0.4684,0.4084,-0.6037,0.875,-2.3187,0,0,0,0.6550000000061118
0.4799,0.0923,0.7651,-0.3714,0.4673,0.4161,-0.6037,0.875,-2.3187,0,0,0,0.6710000000020955
0.4799,0.0923,0.7651,-0.3714,0.4673,0.4161,-0.6913,0.8138,-2.2225,0,0,0,0.6710000000020955
0.4931,0.0813,0.7521,-0.3712,0.4674,0.4078,-1.3737,0.8313,-2.1437,0,0,0,0.6860000000015134
0.4873,0.0922,0.7571,-0.3712,0.4674,0.4078,-0.7525,0.315,-2.4237,0,0,0,0.6860000000015134
0.4857,0.0867,0.7679,-0.3712,0.4674,0.4078,-0.7525,0.315,-2.4237,0,0,0,0.7019999999974971
0.4843,0.0845,0.7528,-0.3724,0.467,0.4038,-1.05,0.665,-2.38,0,0,0,0.7019999999974971
0.4843,0.0845,0.7528,-0.3724,0.467,0.4038,-0.7525,0.875,-2.2225,0,0,0,0.7180000000007567
0.4793,0.0877,0.7531,-0.3716,0.4674,0.4092,-0.7525,0.665,-2.275,0,0,0,0.7180000000007567
0.4857,0.0853,0.7522,-0.3716,0.4674,0.4092,-0.5512,0.665,-2.275,0,0,0,0.7330000000074506
0.4866,0.0905,0.7677,-0.3716,0.4674,0.4092,-0.1838,1.1725,-2.695,0,0,0,0.7490000000034343
0.4878,0.0863,0.7498,-0.3718,0.4678,0.4058,-0.7788,0.8838,-2.2575,0,0,0,0.7490000000034343
0.4878,0.0863,0.7498,-0.3718,0.4678,0.4058,-0.7788,0.8838,-0.0175,0,0,0,0.7640000000028522
0.4809,0.0838,0.7539,-0.3709,0.4682,0.4082,-0.84,0.9013,-2.1263,0,0,0,0.7640000000028522
0.4837,0.0883,0.7688,-0.3709,0.4682,0.4082,-0.6388,0.8138,-1.7587,0,0,0,0.7799999999988358
0.4958,0.087,0.7356,-0.3709,0.4682,0.4082,-0.9275,1.05,-2.0563,0,0,0,0.7799999999988358
0.49,0.0916,0.7541,-0.3738,0.4673,0.4097,-0.9275,1.05,-2.0563,0,0,0,0.7960000000020955
0.49,0.0916,0.7541,-0.3738,0.4673,0.4097,-0.5775,1.2775,-2.625,5.179458464303667,10.466158689609914,0.0,1.9660000000003492
0.4807,0.0859,0.763,-0.3733,0.4686,0.406,-0.9538,0.3762,-2.415,29.239525326164756,14.894264784107401,0.005078700002266414,1.9810000000070431
0.4781,0.0786,0.7626,-0.3733,0.4686,0.406,-0.175,0.7613,-2.4413,43.04085663442488,18.670904720530185,0.015533549999287905,1.9970000000030268
0.4873,0.0902,0.7554,-0.3733,0.4686,0.406,-0.175,0.7613,-2.4413,53.1385861779723,21.76451647904787,0.024257744998960294,2.0120000000024447
0.4895,0.0852,0.7449,-0.3714,0.4672,0.4122,-0.385,0.7175,-2.1962,56.533413638397185,22.194949872654465,0.032163970496470726,2.0279999999984284
0.4895,0.0852,0.7449,-0.3714,0.4672,0.4122,-0.3938,1.26,-2.24,59.35987424161135,23.034935093232967,0.04709157345052007,2.044000000001688
0.4795,0.0875,0.7624,-0.3728,0.4669,0.4097,-0.3413,1.3212,-2.6337,62.855406028241866,25.929033074717708,0.06021861611342762,2.059000000008382
0.4856,0.0869,0.7596,-0.3728,0.4669,0.4097,-0.3413,1.3212,-2.6337,65.84679828267132,28.025212849750933,0.07322203448865743,2.0749999999970896
0.4874,0.0831,0.7549,-0.3728,0.4669,0.4097,-1.1113,1.12,-2.2138,72.55059164142685,28.276531104120593,0.08101983104653912,2.0900000000037835
0.4873,0.0906,0.7707,-0.3716,0.4681,0.4069,-0.91,0.63,-2.2313,75.61499518589939,28.543268917725342,0.08198984793960795,2.105999999999767
0.4873,0.0906,0.7707,-0.3716,0.4681,0.4069,-0.525,0.9013,-2.17,75.72098315167077,28.58970787802093,0.08676958314829127,2.122000000003027
0.4846,0.0854,0.7604,-0.3717,0.4681,0.4074,-0.525,0.9013,-2.17,75.82960241783282,28.63839024900238,0.09026017483298997,2.1370000000024447
0.488,0.0856,0.7524,-0.3717,0.4681,0.4074,-0.5775,1.085,-2.1962,76.30841788242238,28.795831116277263,0.09685815734576902,2.1529999999984284
0.4843,0.0903,0.7677,-0.3717,0.4681,0.4074,-0.6125,0.945,-2.2313,76.95184468942426,29.022516680644944,0.09992984161688527,2.1680000000051223
0.4864,0.0807,0.7483,-0.3711,0.4689,0.4103,-0.7262,0.5688,-2.3712,78.17247925229805,29.702114558741137,0.09812757745314071,2.184000000001106
0.4864,0.0807,0.7483,-0.3711,0.4689,0.4103,-0.7262,0.5688,-2.3712,79.17695719355824,30.26176391056057,0.09650553970949531,2.2000000000043656
0.4801,0.091,0.7483,-0.371,0.4666,0.407,-0.35,0.6388,-2.4413,79.71633538498898,30.75582847782195,0.09547878573402804,2.2149999999965075
0.4864,0.083,0.7654,-0.371,0.4666,0.407,-0.6037,0.4375,-2.1437,80.0636875631055,30.7756947770781,0.09223090716190872,2.230999999999767
0.4885,0.0831,0.7584,-0.371,0.4666,0.407,-0.6037,0.6562,-2.1962,80.37613292786928,30.84589564956788,0.09186651644967112,2.246000000006461
0.4729,0.0895,0.7726,-0.3724,0.467,0.4108,-0.63,0.6562,-2.1962,80.69685535495975,30.863100142124697,0.09212914480233204,2.2620000000024447
0.4792,0.0895,0.7726,-0.3724,0.467,0.4108,-0.0437,0.8575,-2.4413,81.55525437479224,31.034736619635847,0.09526423032461447,2.2780000000057044
0.4879,0.0821,0.7376,-0.3724,0.4687,0.4118,-0.3762,0.5163,-2.1263,81.80394380351028,31.102567999840776,0.09270785728850163,2.2929999999978463
0.4878,0.0902,0.7712,-0.3724,0.4687,0.4118,-0.3762,0.5163,-2.38,81.9851050711881,31.291567051831745,0.09087179156116612,2.309000000001106
0.4906,0.0856,0.7556,-0.3724,0.4687,0.4118,-0.2013,0.6388,-2.38,82.3520027367715,31.571927936405547,0.09040841240889796,2.3240000000078
0.4906,0.0856,0.7541,-0.3722,0.4678,0.4077,-0.7262,0.3938,-2.415,82.55953152666353,31.840232911950856,0.08703829116658471,2.3400000000037835
0.4906,0.0828,0.7541,-0.3722,0.4678,0.4077,-0.175,0.7437,-2.5463,82.85492085038146,32.13456081542702,0.08904374204723799,2.355999999999767
0.4832,0.088,0.7587,-0.3722,0.4678,0.406,-0.175,0.7437,-2.5463,82.98797158061046,32.18625070725934,0.09017931784212459,2.370999999999185
0.4844,0.0855,0.7491,-0.3718,0.4672,0.406,-0.1838,1.1638,-2.0387,83.11139829882421,32.242615019892526,0.09792010606132633,2.3870000000024447
0.4813,0.0878,0.7658,-0.3718,0.4672,0.406,0.0962,1.3125,-2.3275,83.24291962348987,32.20444813682311,0.10584684545450612,2.4020000000018626
0.4813,0.0878,0.7532,-0.3714,0.4673,0.4076,-0.2625,0.6913,-2.31,83.2644479389619,32.23090331216247,0.10521688090655668,2.4179999999978463
0.4861,0.0871,0.7532,-0.3714,0.4673,0.4076,-0.2625,0.6913,-2.31,83.2921490430434,32.28844622183654,0.10464991281792906,2.434000000001106
0.4956,0.0863,0.7422,-0.3714,0.4673,0.4076,-0.6825,0.9363,-2.0125,83.30320334078397,32.44827720419147,0.10682497153564566,2.449000000000524
0.4839,0.0888,0.7618,-0.3725,0.4662,0.4084,-0.1488,0.6388,-2.1437,83.3159824734716,32.44568937580497,0.10534119438395512,2.4650000000037835
0.4884,0.0834,0.7593,-0.3725,0.4662,0.4084,-0.665,0.3762,-2.4413,83.37148029321237,32.47852805898914,0.09988577494289903,2.4799999999959255
0.4884,0.0834,0.7593,-0.3714,0.4681,0.409,-0.665,0.3762,-2.4413,83.41957228314712,32.504094835160444,0.09531447744971278,2.495999999999185
0.4768,0.0869,0.7565,-0.3714,0.4681,0.409,-0.07,0.91,-2.24,83.42799437139765,32.46946486005122,0.09888702970741113,2.5120000000024447
0.4918,0.0866,0.7477,-0.3714,0.4681,0.409,-0.2013,1.05,-2.205,83.41979817462827,32.50116834029922,0.10317332673611997,2.5270000000018626
0.4838,0.0848,0.7585,-0.3727,0.4679,0.4077,-0.4375,0.77,-2.24,83.43356456180501,32.4911125181679,0.1039439940647669,2.5430000000051223
0.4853,0.0912,0.7584,-0.3727,0.4679,0.4077,-0.4375,0.77,-2.24,83.41366357717497,32.48632393396215,0.1039445946528446,2.5579999999972642
0.4853,0.0912,0.7584,-0.3708,0.4678,0.4016,-0.3325,0.7788,-2.3975,83.37265554301494,32.47515107337599,0.10476485518984488,2.574000000000524
0.4907,0.0809,0.7529,-0.3708,0.4678,0.4016,-0.0175,0.8838,-2.0213,83.5360146352978,32.53111326853853,0.10701508967345316,2.5900000000037835
0.485,0.0905,0.7582,-0.3708,0.4678,0.4016,-0.3413,0.4462,-2.17,83.48628970196576,32.52970267704971,0.1023372807058741,2.6050000000032014
0.4834,0.0852,0.7446,-0.3708,0.4671,0.4093,-0.3413,0.4462,-2.17,83.48427244206225,32.53348988194176,0.09852883263659569,2.621000000006461
0.4837,0.0849,0.7634,-0.3708,0.4671,0.4093,-0.56,0.2275,-2.1525,83.49220149487914,32.53203763715317,0.09174719937132719,2.635999999998603
0.4837,0.0849,0.7634,-0.3722,0.4689,0.4093,-0.2625,0.4288,-2.0912,83.52441477299631,32.51156770698948,0.08874719943545244,2.6520000000018626
0.4831,0.0896,0.7691,-0.3722,0.4689,0.4093,-0.6913,0.525,-2.2575,83.49853730439247,32.46120709778861,0.08743247949344737,2.6680000000051223
0.4842,0.0863,0.7598,-0.3722,0.4689,0.4093,-0.6913,0.525,-2.2575,83.50181149961274,32.45031336331955,0.08577673154038971,2.6829999999972642
0.4804,0.0901,0.7508,-0.3718,0.4683,0.412,-0.4375,0.7613,-2.4413,83.47819588950652,32.44526054021051,0.08816177838858413,2.699000000000524
0.492,0.0848,0.7598,-0.3718,0.4683,0.412,-0.77,1.365,-2.3537,83.50976759156622,32.49751990406184,0.09777310054901064,2.713999999999942
0.492,0.0848,0.7598,-0.3723,0.4682,0.4033,-0.77,1.365,-2.1437,83.53484453961889,32.50097170531548,0.10765179049811403,2.7300000000032014
0.4884,0.0852,0.7436,-0.3723,0.4682,0.4033,-0.7175,1.1025,-2.1437,83.5226651816235,32.50909588373842,0.112762611451537,2.746000000006461
0.4831,0.0873,0.7682,-0.3723,0.4682,0.4033,-0.805,0.6913,-2.1613,83.52128527631746,32.506848173890326,0.11081890030149427,2.760999999998603
0.4911,0.0857,0.747,-0.3718,0.4682,0.4009,-0.945,0.6475,-2.4413,83.50132189890444,32.649353564268196,0.1090610102732444,2.7770000000018626
0.4814,0.0839,0.7612,-0.3718,0.4682,0.4009,-0.945,0.6475,-2.4413,83.56454042288678,32.539685160854596,0.10689615924558075,2.7920000000012806
0.4814,0.0839,0.7612,-0.3704,0.4683,0.4099,-1.2775,0.8925,-2.1525,83.62774636357295,32.53800676371847,0.10905854332364097,2.80800000000454
0.4904,0.0869,0.7452,-0.3704,0.4683,0.4099,-0.9013,1.1725,-2.3363,83.54938496248074,32.634243853187776,0.11503668899471661,2.8240000000078
0.4857,0.0871,0.7652,-0.3704,0.4683,0.4099,-0.7088,1.1375,-2.2925,83.54224951774731,32.58693686364892,0.1188892700872003,2.838999999999942
0.4846,0.0901,0.7485,-0.3718,0.4675,0.4057,-0.7088,1.1375,-2.2925,83.4751813096809,32.604312103028555,0.12338034308181732,2.8550000000032014
0.483,0.0836,0.7546,-0.3718,0.4675,0.4057,0.105,1.0938,-2.1962,83.55254840162996,32.59899445445854,0.1258086087730626,2.8700000000026193
0.483,0.0836,0.7546,-0.3715,0.4675,0.407,0.1225,1.3212,-1.8288,83.60125648535501,32.565593004726914,0.1322530278996323,2.886000000005879
0.4921,0.0877,0.7471,-0.3715,0.4675,0.407,-0.4112,0.63,-2.4588,83.57435749685958,32.71091884814959,0.12809972510739184,2.9020000000018626
0.4849,0.091,0.7628,-0.3715,0.4675,0.407,-0.4112,0.63,-2.4588,83.54010508688971,32.6064562904059,0.12379475259632261,2.9170000000012806
0.4869,0.0854,0.7547,-0.3716,0.4668,0.4066,-0.8925,0.5863,-2.275,83.54118402923334,32.61238164775402,0.11985799733841038,2.93300000000454
0.4885,0.0898,0.7522,-0.3716,0.4668,0.4066,-0.6212,1.0063,-2.5025,83.50653253830265,32.66466044632016,0.12145724760404217,2.948000000003958
0.4885,0.0898,0.7522,-0.3722,0.4676,0.4073,-0.6825,0.6125,-1.8988,83.46049897235402,32.695688324019,0.11813152284142395,2.963999999999942
0.4896,0.083,0.7583,-0.3722,0.4676,0.4073,-0.6825,0.6125,-1.8988,83.50339616742254,32.69518231049754,0.11513837055506755,2.9799999999959255
0.4823,0.0872,0.754,-0.3722,0.4676,0.4073,-0.3762,0.5425,-2.0125,83.49147666619001,32.66206689289622,0.11094828350282909,2.9950000000026193
0.4851,0.0863,0.7635,-0.3709,0.4677,0.4181,-0.3413,0.8225,-2.4938,83.50012851580658,32.56224790599737,0.11169745515495912,3.011000000005879
0.4851,0.0867,0.7469,-0.3709,0.4677,0.4181,-0.7088,0.735,-2.2487,83.48008527492921,32.58461466478609,0.11045020963426512,3.025999999998021
0.4901,0.0867,0.7469,-0.3714,0.4662,0.4082,-0.7088,0.735,-2.2487,83.46335179854611,32.627658065450674,0.10998918867299486,3.0420000000012806
0.4848,0.0873,0.7524,-0.3714,0.4662,0.4082,-0.6913,1.47,-2.6775,83.45086995798941,32.625391685356156,0.12015826980038177,3.0579999999972642
0.4888,0.0824,0.7688,-0.3714,0.4662,0.4082,-0.2975,1.19,-2.6075,83.5267927374892,32.52433102058461,0.12420744282751274,3.073000000003958
0.4892,0.0886,0.7544,-0.3721,0.4688,0.4157,-0.595,0.7525,-2.4938,83.5093453143256,32.58951732544092,0.12262269854696906,3.0890000000072177
0.4892,0.0873,0.7602,-0.3721,0.4688,0.4157,-0.595,0.7525,-2.4938,83.50466584205951,32.58997014623143,0.12051917868695029,3.1039999999993597
0.4818,0.0873,0.7602,-0.3718,0.4679,0.407,-0.7,0.7525,-1.8112,83.49581019691747,32.488834370341635,0.11930326082046286,3.1200000000026193
0.4905,0.0777,0.7595,-0.3718,0.4679,0.407,-0.35,0.49,-1.7675,83.58774254389354,32.553444327588515,0.11442893473664538,3.135999999998603
0.4795,0.0889,0.7535,-0.3718,0.4679,0.407,-0.35,0.49,-2.6513,83.54384384586565,32.466972223084355,0.10960104126593284,3.151000000005297
0.4915,0.0828,0.7492,-0.3722,0.4682,0.4046,-0.2625,0.6913,-2.6513,83.57360906451754,32.67868492401062,0.10859565713684072,3.1670000000012806
0.4915,0.0828,0.7679,-0.3722,0.4682,0.4046,-0.6037,0.63,-2.3975,83.59669658281148,32.63847961875868,0.10624109142282662,3.1820000000006985
0.4859,0.0881,0.7679,-0.3716,0.4674,0.4081,0.0613,0.9625,-2.2925,83.5451776686645,32.580755497316474,0.10947698228336761,3.198000000003958
0.4872,0.0895,0.7599,-0.3716,0.4674,0.4081,0.0613,0.9625,-2.2925,83.44964750905811,32.56948298336111,0.1123892840515517,3.213999999999942
0.4871,0.084,0.7555,-0.3716,0.4674,0.4081,-0.42,0.9013,-2.17,83.46683103230536,32.57054372007589,0.11331790565182642,3.2290000000066357
0.4871,0.093,0.7499,-0.373,0.4674,0.4077,-0.385,0.245,-2.5025,83.40680918886419,32.63113377181215,0.10551411508415383,3.2449999999953434
0.4871,0.093,0.7499,-0.373,0.4674,0.4077,-0.2275,0.805,-2.1613,83.30159357275095,32.631906596890175,0.10583020358058817,3.2600000000020373
0.485,0.0791,0.752,-0.3718,0.4682,0.4079,-0.2275,0.805,-2.1613,83.45483522475163,32.63210295527979,0.10683918322489096,3.276000000005297
0.4844,0.0833,0.7639,-0.3718,0.4682,0.4079,-0.0175,0.9187,-2.7562,83.56120103428003,32.480075569730786,0.10938454489908105,3.2920000000012806
0.4871,0.0908,0.7605,-0.3718,0.4682,0.4079,-0.2625,0.8838,-3.0013,83.4875932660851,32.46889467375773,0.11037739040870995,3.3070000000006985
0.4861,0.097,0.7471,-0.3726,0.4674,0.4063,-0.28,0.8225,-2.205,83.32147390833143,32.48554307666596,0.11118365136486587,3.322999999996682
0.4861,0.097,0.7471,-0.3726,0.4674,0.4063,-0.28,0.8225,-2.205,83.18652800001925,32.5014270172803,0.11116903623333443,3.338000000003376
0.4755,0.0769,0.7646,-0.3708,0.4668,0.4067,-0.4988,0.9013,-1.9338,83.19943481135577,32.36402408027118,0.11303085261264512,3.3540000000066357
0.4886,0.0907,0.7485,-0.3708,0.4668,0.4067,-0.3675,0.7875,-2.9225,83.18580524476977,32.615745191767644,0.11306776734853403,3.3700000000026193
0.4857,0.0867,0.7508,-0.3708,0.4668,0.4067,-0.84,1.0938,-2.4588,83.24200823027266,32.641406338181575,0.11652729061310764,3.3850000000020373
0.4895,0.0806,0.7564,-0.3717,0.4678,0.4053,-0.84,1.0938,-2.4588,83.4092670424447,32.669219146404814,0.12062528154784312,3.400999999998021
0.4895,0.0806,0.7564,-0.3717,0.4678,0.4053,-0.2713,1.0237,-2.1263,83.50756941818359,32.671951814983686,0.12238270339922608,3.416000000004715
0.482,0.09,0.7532,-0.3716,0.4668,0.4039,-0.4112,0.7437,-2.625,83.47838935542994,32.59561155183915,0.12085371305661523,3.4320000000006985
0.4945,0.085,0.7543,-0.3716,0.4668,0.4039,-0.4638,0.9712,-2.5988,83.48254694432522,32.74477219078023,0.12275362175380289,3.448000000003958
0.4834,0.0906,0.7656,-0.3716,0.4668,0.4039,-0.4638,0.9712,-2.5988,83.4721129819822,32.54370932797647,0.12358945957791383,3.463000000003376
0.4913,0.091,0.755,-0.3713,0.4689,0.414,-0.245,0.6825,-2.2225,83.39966345885381,32.56347106789382,0.12105851361765542,3.4789999999993597
0.4913,0.091,0.755,-0.3713,0.4689,0.414,-0.5425,0.91,-2.0387,83.39134792350494,32.595294131196816,0.12123766226137218,3.4940000000060536
0.4837,0.0801,0.7516,-0.3722,0.4686,0.4094,-0.4462,0.3325,-2.1088,83.42332824018978,32.59627430675028,0.11390189603403308,3.5100000000020373
0.4888,0.0864,0.752,-0.3722,0.4686,0.4094,-0.4462,0.3325,-2.1088,83.42469711287416,32.60802327101085,0.10729970642942789,3.525999999998021
0.481,0.0802,0.7482,-0.3722,0.4686,0.4094,-0.6825,0.7788,-1.8463,83.49161058846649,32.60311317884115,0.10708353579117699,3.541000000004715
0.4855,0.088,0.7576,-0.3723,0.4682,0.409,-0.8313,0.7788,-2.0213,83.46318269474587,32.588317417109714,0.10758990220924416,3.5570000000006985
0.4855,0.088,0.7576,-0.3723,0.4682,0.409,-0.8313,0.8925,-2.3888,83.44165119096556,32.56777104342011,0.10887966199369661,3.5720000000073924
0.483,0.0865,0.7576,-0.3706,0.4677,0.4119,-0.3325,0.8925,-2.3888,83.44842679231407,32.526991024934425,0.11084369578525642,3.5879999999961
0.4879,0.0837,0.7595,-0.3706,0.4677,0.4119,-0.7,0.4462,-2.1175,83.4901869810827,32.52822153781849,0.10658618620958253,3.6050000000032014
0.4889,0.0941,0.751,-0.3706,0.4677,0.4119,-0.4812,0.7875,-2.5025,83.47189118613196,32.613528800936926,0.10726756759093455,3.621000000006461
0.489,0.0829,0.7496,-0.3701,0.467,0.4098,-0.4812,0.7875,-2.5025,83.47818022402502,32.702306693817334,0.10788081082899452,3.6370000000024447
0.489,0.0829,0.7496,-0.3701,0.467,0.4098,-0.665,0.8138,-2.4062,83.50633575676491,32.75356809753012,0.10807902974566874,3.6520000000018626
0.4811,0.0849,0.7615,-0.373,0.4688,0.409,-0.1663,0.3063,-2.1613,83.54017369079718,32.75079381617817,0.10168184677200044,3.6680000000051223
0.495,0.0916,0.7498,-0.373,0.4688,0.409,-0.455,0.77,-2.38,83.51337687920172,32.8394877494703,0.10260166209201708,3.684000000001106
0.4862,0.0817,0.7571,-0.373,0.4688,0.409,-0.455,0.77,-2.38,83.53074995126137,32.78803513400192,0.10273649588745423,3.6990000000078
0.4706,0.0925,0.7574,-0.3715,0.4676,0.4081,-0.4725,0.49,-2.765,83.51244371717924,32.36310767227809,0.09951884629372891,3.7149999999965075
0.4823,0.0925,0.7574,-0.3715,0.4676,0.4081,-0.2975,0.4812,-2.1088,83.42880080236115,32.36005074102559,0.09606316166725501,3.7300000000032014
0.4879,0.0821,0.7607,-0.3715,0.4681,0.4103,-0.56,0.3237,-2.4938,83.448009842824,32.40157880440476,0.09111812549935942,3.745999999999185
0.4925,0.0883,0.7449,-0.371,0.4681,0.4103,-0.56,0.3237,-2.4938,83.4382825943852,32.62485371746609,0.0866675929503731,3.7620000000024447
0.4899,0.0905,0.7561,-0.371,0.4681,0.4103,-0.2537,0.9275,-2.5113,83.38431157228938,32.65883826856049,0.0905220836548499,3.7770000000018626
0.4899,0.0827,0.7463,-0.3717,0.4676,0.4129,-0.4812,0.6825,-2.2138,83.3927734224438,32.68379729118,0.09129787528689788,3.7929999999978463
0.4873,0.0827,0.7463,-0.3717,0.4676,0.4129,-0.3325,1.2337,-2.4325,83.4357735899781,32.7484142936559,0.09882303776564053,3.80800000000454
0.4819,0.0859,0.7611,-0.3717,0.4671,0.4135,-0.3325,1.2337,-2.4325,83.45469268375493,32.62490210372822,0.10670601398461703,3.824000000000524
0.4875,0.0849,0.7605,-0.3714,0.4671,0.4135,-0.49,0.9975,-2.5988,83.45830045087838,32.586594545607284,0.11039941258908166,3.8400000000037835
0.4862,0.0864,0.7441,-0.3714,0.4671,0.4135,-0.63,0.945,-2.1613,83.449639026211,32.588352804854345,0.11211697132967843,3.8550000000032014
0.4862,0.0864,0.7748,-0.3712,0.4686,0.411,-0.4288,0.7962,-2.52,83.46387774581964,32.41824040234965,0.11237055419383257,3.870999999999185
0.4793,0.0865,0.7748,-0.3712,0.4686,0.411,-0.4288,0.7962,-2.52,83.47648003096731,32.19570038234188,0.11188219877924602,3.886000000005879
0.4877,0.0841,0.7549,-0.3712,0.4686,0.41,-0.8925,0.7088,-2.2487,83.5225046718376,32.23840474339796,0.11090069889875932,3.9020000000018626
0.4886,0.0898,0.7476,-0.3715,0.4677,0.41,-0.4638,0.6475,-2.3537,83.50573861112534,32.3602479252954,0.10913462901078294,3.9180000000051223
0.4885,0.0873,0.7554,-0.3715,0.4677,0.41,-0.5688,0.805,-1.8463,83.50038176151952,32.44473025038733,0.10908866610928294,3.93300000000454
0.4885,0.0873,0.7554,-0.3709,0.4662,0.4102,-0.5688,0.805,-1.8463,83.4953175858199,32.509192428041004,0.10977179949544481,3.949000000000524
0.4862,0.0844,0.7585,-0.3709,0.4662,0.4102,-1.1375,0.8925,-2.0563,83.55516341485932,32.50835205005548,0.11084336955127719,3.9640000000072177
0.4908,0.0916,0.7441,-0.3709,0.4662,0.4102,-0.56,0.9538,-2.03,83.52839851057077,32.587422086461764,0.11349375259270177,3.9800000000032014
0.4787,0.08,0.771,-0.3717,0.4686,0.4061,-0.56,1.645,-1.6888,83.55397933754114,32.30387029769508,0.12583237732748542,3.995999999999185
0.4896,0.0902,0.7464,-0.3717,0.4686,0.4061,-0.5863,1.645,-1.6888,83.52284990298968,32.54896919385415,0.13545663959387513,4.010999999998603
0.4896,0.0902,0.7464,-0.3714,0.4662,0.4078,-0.7437,0.7613,-2.3888,83.44480491477327,32.64755094979646,0.13287369563672102,4.027000000001863
0.4875,0.0874,0.7562,-0.3714,0.4662,0.4078,-1.1025,0.6037,-2.03,83.43080168014579,32.646228571257566,0.12773627607273266,4.042000000001281
0.4879,0.0814,0.7618,-0.3714,0.4662,0.4078,-1.1025,0.6037,-2.03,83.60554101194603,32.62867004886444,0.1236559284632772,4.057999999997264
0.4934,0.0966,0.7447,-0.3721,0.4676,0.4067,-0.28,0.8575,-2.1437,83.41854304898814,32.63748456554461,0.12363833561946509,4.074000000000524
0.484,0.0811,0.7662,-0.3721,0.4676,0.4067,-0.7962,0.945,-2.2138,83.53823195964262,32.61048477338235,0.12403200205702354,4.088999999999942
0.484,0.0811,0.7662,-0.3712,0.467,0.4126,-1.435,1.0325,-2.0563,83.73978077326281,32.56714435276811,0.12649680185435022,4.105000000003201
0.4864,0.0888,0.7412,-0.3712,0.467,0.4126,-1.435,1.0325,-2.0563,83.46528059088332,32.61466836437817,0.1277858716683743,4.120000000002619
0.4802,0.0839,0.7659,-0.3712,0.467,0.4126,-0.9887,0.9625,-2.5287,83.55683638426392,32.42992651982487,0.12886728449805773,4.135999999998603
0.4793,0.0805,0.7763,-0.3712,0.4666,0.4022,-0.1225,0.4112,-2.415,83.70315086051188,32.250427407317865,0.12190183604945828,4.152000000001863
0.4906,0.0991,0.7449,-0.3712,0.4666,0.4022,-0.07,0.8575,-2.3537,83.31106132707541,32.39654411513109,0.12128790244406325,4.167000000001281
0.4906,0.0991,0.7449,-0.3718,0.4685,0.4092,-0.07,0.8575,-2.3537,83.03896720578628,32.51863075399084,0.12150711220217253,4.18300000000454
0.4875,0.0858,0.7496,-0.3718,0.4685,0.4092,-0.7,0.8838,-2.0912,83.1075256540276,32.540138219812064,0.12128770098149229,4.198000000003958
0.479,0.0827,0.7603,-0.3718,0.4685,0.4092,-0.5863,1.0762,-1.9688,83.1554658138621,32.46409190007038,0.12465621087945293,4.213999999999942
0.4807,0.0894,0.743,-0.371,0.4673,0.4064,-0.5337,0.6825,-2.2487,83.15510006084973,32.48512735562703,0.12201858979350987,4.230000000003201
0.5016,0.0749,0.7784,-0.371,0.4673,0.4064,-0.5337,0.6825,-2.2487,83.18502583024977,32.50131345186128,0.11903048081380134,4.245000000002619
0.5016,0.0749,0.7784,-0.3726,0.4698,0.4075,-0.0962,0.3938,-2.7037,83.57166182986768,32.56362602881297,0.11279815273357649,4.261000000005879
0.5114,0.1152,0.7834,-0.3726,0.4698,0.4075,0.1312,1.8813,-2.17,82.81412248362473,32.56741965266744,0.12691588744691387,4.275999999998021
0.4293,0.0814,0.723,-0.3726,0.4698,0.4075,-1.715,0.5425,-1.4787,83.23049549421599,31.749182001898628,0.12203629870381401,4.292000000001281
0.5321,0.0567,0.726,-0.3727,0.4689,0.4089,-1.715,0.5425,-1.4787,84.4890197265412,33.5298004852018,0.11764466883502411,4.30800000000454
0.4502,0.1242,0.7955,-0.3727,0.4689,0.4089,0.0787,2.2138,-2.5113,83.24155300412272,32.3999528382205,0.1357665019358652,4.322999999996682
0.4502,0.1242,0.7955,-0.3729,0.468,0.4078,-0.7525,0.6913,-1.925,82.83006899967525,31.799920598753868,0.13214457174430672,4.338999999999942
0.5358,0.0609,0.7265,-0.3729,0.468,0.4078,-0.6825,2.0038,-1.4612,83.17821361319929,33.65160231001004,0.14598141456882632,4.35399999999936
0.4392,0.0946,0.7818,-0.3729,0.468,0.4078,-0.6825,2.0038,-1.4612,83.16685070107013,31.804329615234284,0.16023799311782216,4.370000000002619
0.5149,0.0961,0.7269,-0.3718,0.4682,0.405,0.2975,0.6212,-2.2313,82.85481355069135,32.03110894564643,0.15315947380786235,4.386000000005879
0.4555,0.0501,0.7837,-0.3718,0.4682,0.405,-1.5225,1.3212,-1.5225,84.6084697139093,31.28744466651363,0.15567972641773228,4.400999999998021
0.4555,0.0501,0.7837,-0.3721,0.4684,0.4083,0.7175,1.1463,-3.0975,85.56422167348839,30.719235121830515,0.15661847377932195,4.417000000001281
0.5253,0.1305,0.7371,-0.3721,0.4684,0.4083,1.0237,1.1463,-3.0975,82.1710520706344,32.82275437939439,0.15643167640078923,4.4320000000006985
0.454,0.0501,0.7703,-0.3721,0.4684,0.4083,-1.3212,1.6363,-1.82,84.0095442313088,32.227730029323425,0.16435122876551067,4.448000000003958
0.5115,0.1012,0.7207,-0.3723,0.4683,0.4056,0.1575,0.9538,-3.0625,83.20713854851222,33.59310203464052,0.16165082589175775,4.464000000007218
0.4589,0.0967,0.7812,-0.3723,0.4683,0.4056,0.1575,0.9538,-2.4237,83.1015479507111,32.887130916070376,0.15836204329583647,4.47899999999936
0.4589,0.0967,0.7812,-0.3724,0.4686,0.4062,-0.525,1.225,-2.4237,83.09936825852799,32.32985627533765,0.16016583896984657,4.495000000002619
0.5218,0.0562,0.7508,-0.3724,0.4686,0.4062,-0.595,0.315,-2.4062,83.30236499671737,32.80765782685083,0.1484017550726969,4.510000000002037
0.461,0.1233,0.7631,-0.3724,0.4686,0.4062,0.7962,1.505,-2.7037,81.89682511700232,32.10180962435683,0.15523357956984238,4.526000000005297
0.5068,0.0612,0.7382,-0.3725,0.4682,0.4098,0.7962,1.505,-2.7037,83.80275275050074,32.906991064189626,0.16138222160741802,4.542000000001281
0.5068,0.0876,0.7681,-0.3725,0.4682,0.4098,-1.3388,0.595,-1.2075,83.6627683675626,33.07270589685714,0.1532764994463645,4.5570000000006985
0.4624,0.0876,0.7681,-0.3723,0.4684,0.409,0.7962,1.5488,-3.0013,83.56695730827025,32.07102914083663,0.16025156950627173,4.573000000003958
0.5128,0.1106,0.7504,-0.3723,0.4684,0.409,-1.6625,1.0237,-1.9075,82.52260511004843,32.46827413535234,0.1580463625551083,4.588000000003376
0.4693,0.0522,0.7668,-0.3723,0.4684,0.409,-1.6625,1.0237,-1.9075,84.4402426617836,32.256783160777346,0.15698300629589712,4.60399999999936
0.4965,0.1221,0.7477,-0.3725,0.4687,0.4108,-0.2013,1.365,-2.31,83.56179641136524,32.3872226268053,0.16094070566137336,4.619999999995343
0.4965,0.1221,0.7662,-0.3725,0.4687,0.4108,-0.35,1.1725,-2.7825,83.19898551478332,32.47539950929872,0.16067538510229976,4.635000000002037
0.475,0.0637,0.7662,-0.3707,0.4675,0.4077,-1.2075,0.385,-2.6862,84.03999965908372,32.20986978674977,0.15015184659319925,4.651000000005297
0.5065,0.0864,0.7294,-0.3707,0.4675,0.4077,-1.2075,0.385,-2.6862,83.71344577289204,33.033529493741106,0.1403341619311565,4.665999999997439
0.4603,0.1072,0.7882,-0.3707,0.4675,0.4077,0.2975,1.4963,-2.8963,83.06141259123571,31.767918567547532,0.1478474657424305,4.6820000000006985
0.516,0.062,0.7184,-0.3708,0.4688,0.4066,-1.75,0.0962,-1.7062,84.17148393046637,32.954561839256215,0.13444799916783973,4.697999999996682
0.516,0.062,0.7652,-0.3708,0.4688,0.4066,-0.1138,1.435,-3.08,84.51156710414102,33.41139268831639,0.14037569925970092,4.713000000003376
0.4656,0.1152,0.7681,-0.3714,0.4683,0.4071,-0.1138,1.435,-3.08,83.64698426917631,32.22569869915616,0.14700212933794066,4.729000000006636
0.5036,0.0762,0.7446,-0.3714,0.4683,0.4071,-1.4088,0.2625,-2.065,83.88819851361323,32.369399854901324,0.13584566640229015,4.743999999998778
0.4673,0.0741,0.7651,-0.3714,0.4683,0.4071,-0.1138,1.6975,-2.3625,84.0530714145883,32.18640577559732,0.14670509976704105,4.760000000002037
0.5122,0.1168,0.7384,-0.3712,0.4678,0.4131,-0.2625,1.155,-2.7387,83.44765410198524,33.006766827121275,0.14866658978616198,4.775999999998021
0.5122,0.1168,0.7384,-0.3712,0.4678,0.4131,-0.2625,1.155,-2.7387,82.96274107177949,33.52538266368756,0.14939243081450407,4.791000000004715
0.4756,0.0523,0.7723,-0.3718,0.4676,0.4083,-1.1463,0.7613,-1.7938,84.19157591909115,33.0037994239097,0.14541590773030177,4.8070000000006985
0.502,0.1139,0.7459,-0.3718,0.4676,0.4083,0.2537,1.1638,-2.6513,82.94632392280833,33.212909639228265,0.14658561695666192,4.822000000000116
0.4721,0.0781,0.7723,-0.3718,0.4676,0.4083,-1.7763,0.735,-1.4787,83.66082046319714,32.44291089718834,0.14251105526315197,4.838000000003376
0.5062,0.0773,0.7425,-0.3722,0.4686,0.4048,-1.7763,0.735,-1.4787,83.88181665184675,33.12898955609961,0.13884394973417996,4.85399999999936
0.5062,0.0773,0.7425,-0.3722,0.4686,0.4048,-0.2362,1.3038,-2.7562,83.91946769645259,33.50809592700818,0.1425608547686167,4.869000000006054
0.4599,0.1077,0.7744,-0.3729,0.4692,0.4056,-0.7875,0.6212,-1.7413,83.52154195755949,32.61466932614578,0.1372500492895096,4.885000000002037
0.5089,0.0599,0.7447,-0.3729,0.4692,0.4056,-0.7875,0.6212,-2.3187,83.92870655417634,32.84401349576179,0.13191124436023322,4.900000000001455
0.4721,0.1002,0.764,-0.3729,0.4692,0.4056,-0.35,1.365,-2.3187,83.73448593013407,32.65613791535828,0.13837611992821433,4.916000000004715
0.5034,0.0849,0.7361,-0.3706,0.467,0.4068,0.0263,1.2075,-2.8263,83.6248190351374,33.27162101542357,0.14192650793102815,4.9320000000006985
0.5034,0.0849,0.7361,-0.3706,0.467,0.4068,-1.3388,0.7525,-2.0038,83.5323816208335,33.393674895279275,0.13789260713753113,4.947000000000116
0.4684,0.0706,0.759,-0.3721,0.4672,0.412,-1.3388,0.7525,-2.0038,84.05475678570963,33.15153895644933,0.13493934642105795,4.9629999999961
0.4976,0.111,0.7648,-0.3721,0.4672,0.412,-0.0175,0.5337,-3.2462,83.29053505661273,32.95612409546465,0.12865036178216743,4.978000000002794
0.4789,0.0602,0.7626,-0.3721,0.4672,0.412,-1.4262,1.0938,-2.03,84.33985194875532,32.853884191402095,0.13153604560715954,4.994000000006054
0.4965,0.1032,0.7549,-0.3713,0.4685,0.4106,0.0088,0.56,-2.9137,83.61328745006121,32.95558164032938,0.12644644104441935,5.010000000002037
0.4965,0.1032,0.7549,-0.3713,0.4685,0.4106,0.0088,0.56,-2.9137,83.13522378888968,33.01346860987179,0.12136179693968405,5.025000000001455
0.4816,0.0886,0.7734,-0.3722,0.4679,0.4041,-0.8575,1.0588,-2.1263,83.22001751828167,32.97579083652043,0.12447233724188841,5.040999999997439
0.5012,0.0704,0.7302,-0.3722,0.4679,0.4041,-1.4262,0.875,-1.8288,83.8283353950032,33.313195540416395,0.123837603522971,5.056000000004133
0.4754,0.1125,0.7651,-0.3722,0.4679,0.4041,0.3938,1.61,-2.2313,82.78656494807271,33.19320119346044,0.13463784316485425,5.072000000000116
0.4959,0.0642,0.7415,-0.372,0.4683,0.4093,0.3938,1.61,-2.2313,83.86248467747164,33.22657629600023,0.14435805885309203,5.088000000003376
0.4959,0.0642,0.7415,-0.372,0.4683,0.4093,-1.2862,0.4462,-2.0213,84.38174864245264,33.28011176197618,0.13594595296754908,5.103000000002794
0.4681,0.0908,0.7845,-0.3711,0.4676,0.4085,0.3938,0.9538,-2.73,83.91437015313798,32.32424690751363,0.13608607766734648,5.118999999998778
0.4901,0.0956,0.7421,-0.3711,0.4676,0.4085,-0.9625,0.9975,-1.9863,83.52400015930998,32.45553301984657,0.13594371990662127,5.1340000000054715
0.4852,0.0662,0.7581,-0.3711,0.4676,0.4085,-0.9625,0.9975,-1.9863,83.98603608205696,32.46512671830069,0.13671334791235348,5.150000000001455
0.4912,0.1114,0.7504,-0.3734,0.4678,0.413,-0.1663,1.0675,-2.6425,83.3630799605005,32.61466139745744,0.1384140131242498,5.166000000004715
0.4912,0.1114,0.7504,-0.3734,0.4678,0.413,-0.2187,1.4175,-2.0563,82.95430821075433,32.642799631091705,0.14370886181108225,5.181000000004133
0.4803,0.0665,0.7523,-0.3718,0.4699,0.4115,-0.4462,0.35,-2.3363,83.07567615242155,32.614202460114406,0.13437797562870887,5.197000000000116
0.4968,0.0951,0.7508,-0.3718,0.4699,0.4115,-0.4462,0.35,-2.3363,83.05774620175288,32.71592647060991,0.12566517806794655,5.21200000000681
0.4784,0.0971,0.7431,-0.3727,0.4686,0.4066,-1.4787,0.4288,-1.9425,82.81070068131508,32.68710271380703,0.11927338025679399,5.227999999995518
0.48,0.1096,0.7703,-0.3727,0.4686,0.4066,0.0962,1.54,-2.9662,82.46745981916881,32.23272109225636,0.12952204223563246,5.243999999998778
0.482,0.0845,0.7663,-0.3713,0.4671,0.4108,-0.4462,0.7875,-2.1437,82.54292648502192,32.22987632254042,0.1272010880168135,5.2590000000054715
0.4942,0.1035,0.7412,-0.3712,0.4685,0.4126,-0.035,0.6562,-2.5812,82.38418814425128,32.59002143306497,0.1239302592127602,5.275000000001455
0.4846,0.1075,0.7716,-0.3718,0.4684,0.4085,0.1138,0.9625,-2.7912,82.2628139393715,32.31567202133539,0.12453098329097996,5.290000000000873
0.4871,0.078,0.7494,-0.3718,0.4665,0.4066,-1.0938,-0.0613,-1.9512,82.92376120530079,32.41235456518183,0.11119516496210355,5.305999999996857
0.4799,0.1074,0.7689,-0.3718,0.4665,0.4066,0.035,1.085,-2.8437,82.61459687079757,32.13116520457221,0.11569964846907621,5.322000000000116
0.4876,0.0579,0.7693,-0.3726,0.4678,0.4041,-0.595,1.12,-2.3012,82.85334717447894,32.15174496924676,0.11924968362158186,5.336999999999534
0.4892,0.0748,0.7559,-0.3714,0.4683,0.407,-0.4112,0.595,-2.66,82.98904983763748,32.362956003272814,0.1158927152611692,5.353000000002794
0.4861,0.0813,0.7567,-0.372,0.4686,0.4083,0.0787,0.6825,-2.87,83.31497083640191,32.44794874025876,0.11351719373469475,5.368000000002212
0.478,0.0601,0.7654,-0.372,0.4686,0.4083,-1.3388,1.0325,-1.9075,84.30921270109258,32.3398033840405,0.1170334743574931,5.383999999998196
0.49,0.1074,0.7396,-0.3718,0.4675,0.4038,-0.105,0.6125,-2.065,83.56662568006283,32.416438931188246,0.11415012692354068,5.400000000001455
0.4818,0.0744,0.7477,-0.3711,0.4674,0.407,-0.3237,0.8138,-1.8988,83.6850789035841,32.46812010089975,0.1137214142307603,5.415000000000873
0.4854,0.1022,0.763,-0.3711,0.4674,0.407,-0.0525,0.6475,-2.485,83.27195281620165,32.41006694594644,0.11167327280958383,5.431000000004133
0.4934,0.065,0.7594,-0.372,0.4687,0.4086,-1.0762,0.875,-2.0912,83.93486327718111,32.441322724450316,0.11231844552816707,5.446000000003551
0.4899,0.1066,0.7476,-0.3718,0.4682,0.4082,0.105,1.0762,-2.7213,83.15344359827354,32.63310713076014,0.11658388097146023,5.461999999999534
0.4858,0.0745,0.759,-0.3718,0.4682,0.4082,-0.0787,0.7,-2.9838,83.52789448347316,32.57140567929673,0.11500549287636777,5.478000000002794
0.5004,0.0759,0.7499,-0.3722,0.4685,0.414,-0.7088,0.8925,-2.1,83.64227771930804,32.62568346551379,0.11555369358826344,5.493000000002212
0.4774,0.0939,0.7491,-0.372,0.4667,0.4114,-0.4375,1.3125,-2.31,83.58838467310584,32.58338998310679,0.12289832422469282,5.508999999998196
0.4834,0.0778,0.7544,-0.3711,0.4669,0.4083,-1.2862,0.4725,-1.6975,83.81703657910106,32.56128846687445,0.11698724180507011,5.524000000004889
0.4929,0.1022,0.7645,-0.3725,0.467,0.4087,-0.4988,1.19,-1.8288,83.79977522133089,32.5660639358456,0.12242451762026162,5.540000000000873
0.4917,0.0915,0.7463,-0.3725,0.467,0.4087,-0.245,0.6125,-2.485,83.63386188160624,32.718440631949704,0.11900206586003234,5.556000000004133
0.4818,0.0894,0.7659,-0.3714,0.468,0.4053,-0.1488,1.5137,-2.2138,83.5563241154965,32.679638403212685,0.12753680926332386,5.570999999996275
0.4828,0.1048,0.7584,-0.3694,0.468,0.4087,-0.5337,1.4175,-2.1613,83.5247273708718,32.6776825526697,0.13519512834114997,5.586999999999534
0.4974,0.0759,0.7686,-0.3718,0.4674,0.4096,-0.9363,0.3675,-2.1175,83.77404508580541,32.681644362322785,0.12663686550684244,5.601999999998952
0.4933,0.0941,0.7468,-0.3718,0.4674,0.4096,-0.91,0.63,-2.1962,83.50147633055595,32.70275773132381,0.1230451789580064,5.618000000002212
0.4914,0.1023,0.7464,-0.3716,0.4679,0.4026,-0.3762,1.0412,-2.59,83.34636968542003,32.82731615963697,0.12573394106526029,5.6340000000054715
0.4854,0.0797,0.7428,-0.3726,0.4694,0.4101,-0.665,0.7788,-2.2138,83.4170162743456,32.83734716795373,0.12367434695322642,5.6489999999976135
0.476,0.0939,0.7659,-0.371,0.4684,0.4078,-0.4375,0.595,-2.765,83.38917163603553,32.39563372923679,0.11987491225964932,5.665000000000873
0.4954,0.0763,0.7373,-0.3721,0.4691,0.4093,-1.0412,0.7613,-2.275,83.63260216709696,32.53940268793295,0.11816497103328556,5.680000000000291
0.4923,0.0777,0.7535,-0.3721,0.4691,0.4093,-0.6913,0.9187,-2.17,83.70591374592071,32.54563063562115,0.11957775393265216,5.696000000003551
0.4774,0.0833,0.7651,-0.3712,0.4662,0.4054,-0.4725,1.015,-1.9425,83.70889869838585,32.416041962279806,0.12223597854236462,5.71200000000681
0.4802,0.0747,0.761,-0.3715,0.4667,0.4075,-0.8225,0.8662,-1.6888,83.87156698284649,32.324381890686105,0.12170608068200219,5.726999999998952
0.4883,0.0956,0.7483,-0.373,0.4685,0.4058,-0.0787,0.3325,-2.275,83.52385718376998,32.38671266329854,0.11432347261477742,5.743000000002212
0.5011,0.0863,0.7484,-0.373,0.4685,0.4124,-0.3762,1.0412,-2.8612,83.51177195210123,32.90052240799236,0.11694732535275422,5.75800000000163
0.4978,0.0747,0.756,-0.3719,0.4683,0.4124,-0.2975,0.7437,-1.9863,83.6604741474654,32.949378758864235,0.11596187281966057,5.774000000004889
0.48,0.0965,0.7616,-0.3722,0.4677,0.4078,-0.7525,1.0063,-1.82,83.48895467705131,32.71413197968907,0.11885640553405703,5.790000000000873
0.4787,0.0819,0.759,-0.3713,0.4686,0.4092,-0.5337,0.665,-1.7325,83.49677347407354,32.52821278410613,0.11594826498030296,5.805000000000291
0.4914,0.0992,0.7579,-0.3717,0.4664,0.4094,0.07,1.1463,-0.385,83.14629224615908,32.661316926166634,0.12086015848563553,5.821000000003551
0.4915,0.0941,0.7552,-0.3717,0.4664,0.4094,-0.4375,0.945,-2.1788,83.12924933607097,32.66548268357995,0.12153164263657691,5.836000000002969
0.4721,0.0813,0.7733,-0.3723,0.4685,0.4037,-0.2362,0.7437,-2.2838,83.31659322935295,32.507654333882634,0.12008775837023099,5.851999999998952
0.479,0.0947,0.764,-0.3717,0.4675,0.4068,0.3325,1.0063,-2.5113,83.14156474400014,32.34601154902773,0.12256970253616004,5.868000000002212
0.4782,0.09,0.7691,-0.3714,0.4678,0.4083,-0.4812,1.505,-2.38,83.14689177241459,32.227703594958584,0.1306302322817556,5.88300000000163
0.4929,0.0885,0.7585,-0.3714,0.4678,0.4094,-0.4288,0.9712,-2.2925,83.1619370411487,32.30088802111126,0.13155248905642922,5.899000000004889
0.4918,0.0974,0.7551,-0.3713,0.4672,0.4094,-0.14,1.0325,-2.4938,83.02340985512002,32.44193313147061,0.13233599014348424,5.913999999997031
0.4761,0.0701,0.7683,-0.3707,0.4685,0.4082,-0.8487,0.8838,-2.2487,83.46855369291764,32.3778019231091,0.1318291111317286,5.930000000000291
0.4826,0.0907,0.7595,-0.372,0.4693,0.4064,-0.1663,1.1463,-2.555,83.39713560812895,32.34119900419637,0.13515292002191862,5.946000000003551
0.4889,0.0764,0.7551,-0.3711,0.4678,0.4082,-0.1925,1.12,-2.2575,83.5965283725043,32.382106128935675,0.13675762801914004,5.961000000002969
0.4943,0.0793,0.7519,-0.3711,0.4678,0.4082,-1.0762,0.4375,-2.1175,83.7348166255837,32.412166688887766,0.12938186521850953,5.977000000006228
0.4748,0.0838,0.7776,-0.3722,0.4681,0.4052,-0.2887,1.1638,-2.485,83.75560484310311,32.12780027166329,0.1321549786884279,5.99199999999837
0.4767,0.0687,0.7868,-0.372,0.4672,0.4089,-0.7262,1.1463,-1.7675,83.97771065401434,31.843724008171776,0.13544620082294798,6.00800000000163
0.4941,0.0691,0.7657,-0.3719,0.4665,0.4069,-0.455,0.3588,-2.4762,84.0236214881444,32.05776532323661,0.12706830074170578,6.024000000004889
0.4948,0.0807,0.7555,-0.3719,0.4665,0.4069,-0.0787,1.0588,-2.38,83.98720688225941,32.243007919703295,0.12865527066698051,6.039000000004307
0.5028,0.0798,0.7421,-0.3721,0.4685,0.407,-0.3762,1.33,-2.0038,83.97238258581598,32.471777542785745,0.13494174360418423,6.055000000007567
0.4766,0.0921,0.755,-0.3714,0.4676,0.4078,-0.3063,1.0762,-2.2313,83.81480545968698,32.444070446008766,0.13597626923615466,6.069999999999709
0.4836,0.0805,0.7429,-0.3718,0.4679,0.4087,-0.5512,0.595,-2.0825,83.8148364994026,32.47631668746284,0.13094664231428474,6.086000000002969
0.4875,0.0929,0.7561,-0.3714,0.4674,0.4096,-1.1638,0.8313,-2.0738,83.49116022444085,32.48710354240892,0.12982269807985136,6.101999999998952
0.4926,0.0905,0.7406,-0.3714,0.4674,0.4096,-1.0237,0.9187,-2.45,83.33591054622559,32.70170215067553,0.12924287827740094,6.117000000005646
0.4864,0.0933,0.7559,-0.3716,0.4685,0.4034,-0.2187,0.7088,-2.135,83.25170352330223,32.69874030710319,0.12652531044709875,6.13300000000163
0.4859,0.0966,0.7594,-0.3718,0.4682,0.4063,0.0875,0.7788,-2.5812,83.06407668616554,32.61111819542374,0.12438657940198088,6.148000000001048
0.4881,0.08,0.7579,-0.3727,0.4678,0.409,-1.12,0.6913,-2.1175,83.40865310185475,32.61213149271013,0.12190264146381084,6.164000000004307
0.4865,0.0912,0.7612,-0.3727,0.4678,0.409,-0.385,0.665,-2.03,83.38171270280894,32.588086014054525,0.11928837731502598,6.180000000000291
0.4883,0.0972,0.759,-0.3724,0.469,0.4045,-0.28,1.0063,-2.2925,83.2542046907764,32.5827459812958,0.12094458958299621,6.194999999999709
0.4845,0.0814,0.7535,-0.372,0.4687,0.4087,-0.455,0.9887,-1.8813,83.28497064292877,32.58430493925762,0.12308741062759712,6.211000000002969
0.4713,0.0853,0.7772,-0.3726,0.469,0.4062,0.0,0.6737,-2.2662,83.4377364786716,32.436155847139915,0.11987361956448449,6.2260000000023865
0.4991,0.0787,0.736,-0.3733,0.4679,0.4058,-0.6037,1.0588,-2.4413,83.4766610502895,32.780475584932994,0.1231329776111422,6.242000000005646
0.4921,0.0835,0.7463,-0.3733,0.4679,0.4058,-0.4725,0.8138,-2.4762,83.48182744538356,32.890905027526614,0.12253839984708634,6.25800000000163
0.4828,0.0842,0.767,-0.3708,0.4683,0.4054,-0.28,0.63,-2.205,83.52938379203307,32.85157970204973,0.11878955986204766,6.273000000001048
0.4803,0.0765,0.7689,-0.3719,0.4674,0.4087,-0.6475,0.7437,-2.1175,83.6241185921227,32.814194533628466,0.11761988387802466,6.289000000004307
0.4925,0.096,0.7506,-0.372,0.4682,0.4086,-0.5688,0.6125,-2.345,83.57426117700776,32.85275046491546,0.11412664548990131,6.304000000003725
0.492,0.087,0.7473,-0.3714,0.4683,0.4102,-0.3762,0.7788,-2.1263,83.54875726227289,32.86254188231192,0.11392870094319593,6.320000000006985
0.4834,0.087,0.746,-0.3714,0.4683,0.4102,-0.4988,1.2075,-2.6513,83.54633738729697,32.83074462081484,0.11992383084451158,6.336000000002969
0.4848,0.09,0.7688,-0.3722,0.4671,0.4068,-0.7175,0.8225,-2.38,83.50811769670685,32.690065037445386,0.11903519775962955,6.3510000000023865
0.4685,0.08,0.7885,-0.3717,0.4678,0.4074,-0.4638,0.9538,-2.4062,83.53960826162901,32.270689884159644,0.1208663979802189,6.36699999999837
0.4924,0.0958,0.7399,-0.3711,0.4678,0.4052,-0.56,0.7262,-2.065,83.49677771264435,32.36775341438484,0.118583458186572,6.382000000005064
0.4807,0.0894,0.7607,-0.3711,0.4678,0.4052,-0.0613,1.1725,-2.1788,83.43485379704657,32.36227265494236,0.12360911237135454,6.398000000008324
0.4797,0.0847,0.7517,-0.3715,0.4692,0.4047,-0.4725,0.525,-2.1175,83.43990741074828,32.362960947815175,0.11880820112888349,6.413999999997031
0.4759,0.0879,0.7571,-0.3718,0.4676,0.4077,-0.3762,0.77,-2.1962,83.43250064196208,32.34847685439723,0.11732238102063401,6.429000000003725
0.479,0.0869,0.7685,-0.3719,0.4683,0.4072,-0.63,1.2163,-2.52,83.44484071645918,32.19485399468506,0.12310486291417407,6.444999999999709
0.4953,0.0895,0.7479,-0.3716,0.4686,0.4057,-0.2975,0.805,-2.625,83.39753267741101,32.55598737384199,0.12166187662233494,6.459999999999127
0.4895,0.0947,0.7518,-0.3716,0.4686,0.4057,-0.7262,0.8138,-2.4325,83.29536396778887,32.622200210071554,0.12121440896248886,6.4760000000023865
0.4773,0.0816,0.7624,-0.3712,0.4686,0.4126,-0.4725,0.7613,-1.7763,83.31744466427676,32.42367214376391,0.12005568806348813,6.49199999999837
0.483,0.0846,0.7598,-0.3724,0.4671,0.4085,-0.2975,1.05,-2.1,83.37535097726168,32.41617008257953,0.12222511926346505,6.507000000005064
0.4879,0.0906,0.7487,-0.3725,0.4678,0.4077,-1.2075,0.8575,-2.0125,83.26238821081587,32.477282465842855,0.12235060733401894,6.523000000001048
0.4846,0.081,0.7521,-0.3725,0.4678,0.4077,-0.9975,1.225,-2.0563,83.4556898428894,32.49257451689494,0.1266530465999753,6.538000000000466
0.4926,0.0899,0.7616,-0.3718,0.4685,0.3975,-0.4288,0.7875,-2.7738,83.44142511699808,32.57710355031304,0.12532774194228805,6.554000000003725
0.4933,0.0888,0.7446,-0.3716,0.4675,0.407,-0.3588,1.1375,-2.31,83.40941424383472,32.67822388488681,0.12917496774394752,6.569999999999709
0.4907,0.0807,0.7634,-0.3719,0.4668,0.4084,-0.245,0.4812,-2.3012,83.52627728018588,32.6667879205601,0.12275367097245175,6.585000000006403
0.4894,0.0914,0.7634,-0.3721,0.4674,0.4054,0.1925,0.8313,-2.24,83.38022400624175,32.65230751339882,0.12244902387220168,6.6010000000023865
0.4822,0.0959,0.7523,-0.3721,0.4674,0.4054,-0.3237,0.3237,-2.66,83.27849152985529,32.58429520805352,0.11457407148481194,6.616000000001804
0.4845,0.0834,0.7573,-0.3725,0.467,0.407,-0.7262,0.7,-2.3888,83.35587061069243,32.55965795712867,0.11319666433380046,6.631999999997788
0.4851,0.0905,0.7542,-0.3725,0.4682,0.4063,0.0,1.2862,-2.415,83.2887925574443,32.56034130261921,0.12039827790419369,6.648000000001048
0.4853,0.085,0.77,-0.3724,0.4669,0.4073,-0.5688,1.2163,-1.8288,83.31129437300672,32.438043343161475,0.1247785001211019,6.663000000007742
0.4814,0.0865,0.7538,-0.3724,0.4669,0.4073,-0.9187,0.7875,-2.3363,83.35257587070257,32.431310977342406,0.12364065010614515,6.679000000003725
0.4796,0.0871,0.7726,-0.3721,0.4677,0.4137,-0.2187,0.9625,-2.1613,83.40126842878423,32.42794816860045,0.12427033509502643,6.694000000003143
0.4942,0.0866,0.7558,-0.3731,0.4676,0.4058,-0.2887,0.9625,-2.3712,83.41259083600153,32.530469786655225,0.12570330158204465,6.709999999999127
0.4967,0.0925,0.7476,-0.3715,0.4671,0.4078,-0.665,0.3325,-2.03,83.35041832216073,32.628306645312406,0.11792097142481563,6.7260000000023865
0.4756,0.0812,0.7616,-0.3725,0.4687,0.4075,-0.5775,0.91,-1.89,83.38557165679536,32.461917727464474,0.11841387428185736,6.741000000001804
0.4766,0.0785,0.7721,-0.3725,0.4687,0.4075,-0.6825,0.7088,-2.6688,83.50401024833202,32.154697071704796,0.11677920685110953,6.756999999997788
0.4916,0.0865,0.7528,-0.3729,0.4675,0.4086,-0.3237,0.8575,-2.7125,83.49473437384744,32.44729121547476,0.11667753617116458,6.772000000004482
0.4992,0.0835,0.7642,-0.371,0.4685,0.4086,-0.175,0.6913,-2.4675,83.56253967121587,32.5779024083775,0.11496450255154929,6.788000000000466
0.4826,0.0824,0.7507,-0.3731,0.4687,0.4087,-0.805,0.8487,-2.1175,83.60196081725013,32.57797209256709,0.11568933229888417,6.804000000003725
0.482,0.0886,0.7548,-0.3731,0.4687,0.4129,-0.7437,0.8575,-2.3012,83.54593018564384,32.55349558430703,0.11569664906854654,6.819000000003143
0.4859,0.083,0.7601,-0.3725,0.4676,0.4129,-0.8313,0.9363,-2.4062,83.59985395553925,32.52988029480818,0.11760970415830746,6.834999999999127
0.4839,0.0929,0.7704,-0.3723,0.4683,0.4038,-0.7262,0.84,-2.2313,83.51560311373997,32.48954241063065,0.1171887337475373,6.850000000005821
0.4871,0.0863,0.7601,-0.3714,0.4679,0.409,-0.8575,0.9187,-2.1613,83.51737988106063,32.489530207216774,0.11869914036946275,6.866000000001804
0.4829,0.0877,0.7507,-0.3714,0.4667,0.4053,-0.49,1.015,-2.2487,83.51366170751606,32.496749519580284,0.12144522633549415,6.882000000005064
0.4897,0.0908,0.7722,-0.3711,0.4667,0.4053,0.0,1.2075,-2.0125,83.43924154846327,32.459774555407584,0.12560195369340502,6.896999999997206
0.487,0.0892,0.7533,-0.3733,0.469,0.4012,-0.455,1.2075,-1.9162,83.4290414413948,32.50649233222029,0.13042975832760692,6.913000000000466
0.4895,0.092,0.7416,-0.3729,0.4675,0.4074,-0.4725,0.6037,-2.415,83.41047211294462,32.6541793555911,0.1255367324984832,6.9280000000071595
0.4815,0.0934,0.7599,-0.3725,0.4667,0.4079,-0.2362,0.9712,-2.3975,83.3204503098081,32.55947926147435,0.1269683392451243,6.944000000003143
0.4859,0.0883,0.7652,-0.3725,0.4667,0.4112,-0.6125,1.0938,-1.8725,83.32939139106492,32.48967224213315,0.1300222253238207,6.960000000006403
0.4815,0.0945,0.7524,-0.3726,0.4678,0.4112,-0.595,1.155,-2.38,83.29156749760757,32.47587829399346,0.13261250278327022,6.974999999998545
0.4928,0.0804,0.7579,-0.3714,0.467,0.4073,-0.735,1.0063,-2.3363,83.41106673707142,32.538315069010196,0.13384197250789534,6.991000000001804
0.4903,0.0815,0.7491,-0.373,0.4682,0.4097,-0.2887,1.295,-2.2313,83.48013079159793,32.57384455606624,0.1379402752649075,7.006000000008498
0.4832,0.0804,0.7688,-0.3728,0.4673,0.4082,-0.5863,1.155,-2.2838,83.51861852255566,32.510295597497866,0.14077824772667843,7.021999999997206
0.4787,0.0744,0.759,-0.3728,0.4673,0.4082,-0.6125,1.1725,-2.1437,83.59997208628995,32.505170443600335,0.14358442295745033,7.038000000000466
0.4936,0.0906,0.7397,-0.3717,0.4674,0.4011,0.2275,1.12,-2.625,83.35236045928863,32.82825353915134,0.1443459806611186,7.052999999999884
0.4981,0.082,0.7471,-0.3726,0.4656,0.4085,-0.5863,0.6388,-2.2487,83.37925244790773,32.88758368058484,0.13911010259688075,7.069000000003143
0.4951,0.0777,0.7522,-0.3718,0.4674,0.4089,-0.7175,0.4638,-2.2487,83.50302616945046,32.91499693990618,0.13146039233694973,7.084000000002561
0.4831,0.0894,0.7638,-0.3718,0.4674,0.4067,-0.175,0.7875,-2.52,83.45802957307183,32.70782943251129,0.12965435310040818,7.099999999998545
0.488,0.0772,0.767,-0.3722,0.4663,0.4067,-1.05,0.4812,-1.9512,83.73624750824858,32.64435150096079,0.12361819779177906,7.116000000001804
0.4814,0.0761,0.7591,-0.3722,0.4662,0.4064,-0.7175,0.2275,-2.2575,83.82849141344755,32.60850700913708,0.11432762801248197,7.131000000001222
0.48,0.091,0.7535,-0.3722,0.4662,0.4064,0.0525,0.7437,-2.3625,83.5708912200618,32.55769039379549,0.11360414521341555,7.147000000004482
0.4872,0.1002,0.7637,-0.3715,0.4671,0.4151,-0.2887,0.8575,-2.7825,83.38072387629916,32.464063024993045,0.11381998068600956,7.161999999996624
0.4907,0.0753,0.7508,-0.3723,0.4662,0.4059,-0.7525,1.0938,-1.855,83.55424595717213,32.59673556363625,0.11818870262061745,7.177999999999884
0.4829,0.0908,0.7607,-0.3728,0.4678,0.4068,-0.245,1.2337,-2.3537,83.47837778093293,32.535549178300045,0.12413511236217498,7.194000000003143
0.4926,0.0714,0.7432,-0.3723,0.4658,0.4039,-0.525,1.0938,-2.415,83.492646854024,32.71612825023327,0.12648790112538447,7.209000000002561
0.5033,0.0803,0.7593,-0.3723,0.4658,0.4039,0.0,1.54,-2.31,83.65175155079667,32.80584396675406,0.13601511101736388,7.225000000005821
0.4774,0.0927,0.7509,-0.3717,0.467,0.4035,-0.1488,1.1638,-2.8437,83.46843832465423,32.57997734206579,0.13812489990739682,7.239999999997963
0.4855,0.0721,0.7549,-0.3709,0.465,0.4081,-0.9275,0.3762,-2.2225,83.78476539885682,32.58294154207281,0.1297296899177608,7.256000000001222
0.4906,0.0974,0.7507,-0.3727,0.467,0.4089,-0.6475,0.7788,-2.2138,83.64336647380263,32.60254589707693,0.12797144092826945,7.272000000004482
0.4869,0.0817,0.7574,-0.3727,0.467,0.4089,-0.5425,0.6388,-1.6975,83.64947273608624,32.596914645468964,0.12379809683510785,7.2870000000039
0.4974,0.0788,0.7473,-0.3716,0.4671,0.407,-0.7088,0.98,-1.7675,83.70415506650339,32.85046025069602,0.12553028714805467,7.302999999999884
0.4685,0.0925,0.7742,-0.3725,0.4664,0.4085,-0.1663,1.4,-1.9775,83.57150944475916,32.56906438588,0.1318772584325158,7.3179999999993015
0.4712,0.0769,0.7534,-0.3715,0.4673,0.4083,-1.0938,0.3325,-2.6075,83.79260167634476,32.35806059571773,0.12347753259023966,7.334000000002561
0.5024,0.0989,0.7463,-0.3714,0.4674,0.4094,-0.7437,0.4638,-2.275,83.53937354176371,32.501661070669215,0.11780849933257634,7.350000000005821
0.5051,0.0938,0.744,-0.3714,0.4674,0.4094,-1.1025,0.9887,-2.0125,83.2699048758044,32.68600340250969,0.11937509939232639,7.364999999997963
0.4637,0.0844,0.7663,-0.3725,0.4658,0.4117,-0.6913,0.7262,-2.345,83.33786336343907,32.423158021622726,0.11789486945522419,7.381000000001222
0.4754,0.0959,0.7748,-0.3719,0.4666,0.4074,0.4462,1.2862,-2.5988,83.14531812010708,32.09073733432796,0.12346908250902798,7.39600000000064
0.4997,0.0814,0.7652,-0.3712,0.4661,0.4061,-1.0675,0.7088,-2.135,83.42509986560138,32.110164949403504,0.12132889426020457,7.4120000000039
0.5053,0.0953,0.7444,-0.3712,0.4661,0.4061,-0.2625,0.5775,-2.24,83.28167552513986,32.251571199177725,0.11751200483209663,7.427999999999884
0.4946,0.0971,0.7587,-0.3726,0.4685,0.4201,-0.2275,0.805,-2.275,83.1546974772994,32.31880185488832,0.11662830434846524,7.4429999999993015
0.4751,0.0764,0.7563,-0.3706,0.4676,0.4088,-0.7437,0.7962,-2.2487,83.35799290382865,32.29247289876793,0.1164307539159545,7.459000000002561
0.4798,0.0959,0.749,-0.3722,0.4658,0.4099,-0.7525,1.0325,-2.4325,83.2307203034651,32.322597634713,0.13359442852684716,7.490000000005239
0.4931,0.0737,0.7561,-0.373,0.4677,0.4075,-0.875,0.5512,-2.205,83.5514908197106,32.35310774850363,0.12817226567217002,7.506000000001222
0.4986,0.0783,0.7614,-0.373,0.4677,0.4075,-0.2713,0.6212,-2.7213,83.66306401538837,32.615600524995386,0.1237412391046276,7.52100000000064
0.4821,0.0842,0.7465,-0.3734,0.4664,0.4036,-0.7962,0.9187,-2.7475,83.64122173674953,32.64326139587577,0.12459639519686,7.5370000000039
0.4805,0.0694,0.7602,-0.3718,0.4662,0.4084,-0.98,0.98,-2.1088,84.00601133735947,32.62240211463634,0.1253667556766606,7.552000000003318
0.4912,0.0832,0.7554,-0.3722,0.4664,0.4074,-0.56,1.0938,-1.925,83.9924084030976,32.67019699347466,0.1285808001122034,7.5680000000065775
0.4975,0.0829,0.757,-0.3722,0.4664,0.4074,-0.6037,0.0875,-2.2838,83.97187654840971,32.72495162181087,0.11698272010009379,7.583999999995285
0.4891,0.0692,0.7486,-0.3727,0.4671,0.4108,-0.77,0.8925,-2.0387,84.12549486873782,32.75900701266663,0.11733319809546128,7.599000000001979
0.4942,0.101,0.7715,-0.372,0.4661,0.4098,0.2275,1.5575,-3.2113,83.45266907557088,32.58588545220938,0.12802787829048434,7.615000000005239
0.4873,0.0786,0.761,-0.373,0.4671,0.4073,-0.8487,0.4375,-2.3012,83.61686829348434,32.57445151347822,0.12113134046120672,7.630000000004657
0.4818,0.0979,0.7509,-0.3729,0.4658,0.4093,-0.805,0.7,-2.2575,83.37944284614319,32.56456965156667,0.11909820641255577,7.64600000000064
0.4809,0.0953,0.7665,-0.3729,0.4658,0.4093,-0.455,0.875,-2.0125,83.35468875638826,32.48155356768719,0.11978838576813731,7.661999999996624
0.4975,0.0875,0.7451,-0.3718,0.4661,0.4075,-1.2337,0.3675,-2.065,83.33267311433146,32.571445889963385,0.11277079719353758,7.677000000003318
0.4895,0.1022,0.7573,-0.3722,0.4661,0.4092,-0.1138,1.015,-2.4675,83.04313218719646,32.588249175860774,0.11610971747051492,7.6929999999993015
0.4826,0.0724,0.7598,-0.3729,0.4666,0.408,-0.0175,0.7788,-2.6075,83.5433079910864,32.500350248523176,0.11501254572305544,7.707999999998719
0.475,0.083,0.7567,-0.3729,0.4666,0.408,-0.6562,0.6562,-2.24,83.56830040031751,32.459145882493665,0.11296057115267498,7.724000000001979
0.4795,0.0946,0.7783,-0.372,0.4668,0.4026,0.4025,1.1812,-2.3888,83.33034838136531,32.26903552507913,0.11867379403313781,7.739999999997963
0.4951,0.0853,0.7418,-0.37,0.4662,0.411,-0.3413,0.6737,-2.03,83.34630611691144,32.412897726433215,0.11590136463388274,7.755000000004657
0.497,0.0982,0.749,-0.3726,0.4666,0.4081,-0.8313,0.56,-2.1525,83.1484365818951,32.41694100343422,0.11237522816847025,7.77100000000064
0.4695,0.0695,0.7647,-0.3722,0.4671,0.4066,-0.9887,1.0588,-2.1962,83.68457431707414,32.38010765969619,0.11543150535106857,7.786000000000058
0.4675,0.0733,0.7643,-0.3722,0.4671,0.4066,-0.2713,1.1638,-2.1613,83.84646175111654,32.37550595385583,0.12064707481937591,7.802000000003318
0.4986,0.0849,0.7453,-0.3724,0.4678,0.4026,0.2887,1.1375,-2.5025,83.69305669109286,32.69303375740789,0.12496236733332662,7.8179999999993015
0.5048,0.0766,0.7511,-0.3714,0.4663,0.4071,-1.1287,0.6125,-2.5375,83.8778028946569,32.98917247259479,0.12073488060368397,7.833000000005995
0.4689,0.101,0.763,-0.3713,0.4663,0.4082,-0.595,0.595,-2.065,83.76790359549227,32.85134799805299,0.11722939254116484,7.849000000001979
0.4776,0.0811,0.748,-0.3713,0.4663,0.4082,-1.1025,0.7962,-2.0563,83.78430080767934,32.81071223780186,0.11625515328663126,7.864000000001397
0.4812,0.0742,0.7537,-0.3708,0.4663,0.4031,-0.8838,1.2687,-1.9162,83.94538403279552,32.737055230108396,0.12289891796169009,7.880000000004657
0.4856,0.0983,0.7542,-0.3723,0.4678,0.4087,-0.0962,0.6562,-2.7387,83.54334141153349,32.67069480513576,0.12005830616314911,7.89600000000064
0.5009,0.0819,0.7455,-0.3718,0.4679,0.4067,-0.2362,0.6913,-1.995,83.58372444736911,32.819414262919835,0.11738502555099892,7.911000000007334
0.4757,0.0948,0.7763,-0.3733,0.4686,0.4065,-0.805,1.12,-2.4413,83.45965538570555,32.48526947158614,0.1217745229845164,7.926999999996042
0.4844,0.0934,0.7552,-0.3733,0.4686,0.4065,-0.2537,1.19,-2.73,83.35529274401762,32.483200250194265,0.12673307068955583,7.9429999999993015
0.4911,0.0793,0.7573,-0.3726,0.4674,0.4011,-0.665,1.1463,-2.3012,83.44427509872578,32.5257376880096,0.13056648362396314,7.959000000002561
0.4915,0.0936,0.7589,-0.3718,0.4674,0.4086,-0.1488,1.0237,-2.0475,83.31786175047371,32.546072404158764,0.13225111525786648,7.974999999998545
0.4837,0.096,0.767,-0.3724,0.4668,0.4059,-0.385,0.42,-2.38,83.26727216783625,32.453121115602585,0.12469600373461011,7.990000000005239
0.4872,0.0822,0.752,-0.3724,0.4668,0.4059,-0.5863,0.7175,-1.8988,83.30190297463955,32.52079023948498,0.12255840335855556,8.006000000001222
0.4779,0.0961,0.7654,-0.3709,0.4672,0.4101,-0.3938,1.4787,-2.3187,83.25382846410484,32.41744791179796,0.13026501302192536,8.02100000000064
0.4934,0.0765,0.7604,-0.3727,0.4691,0.4095,-0.7613,0.6825,-1.96,83.45426874731089,32.48805374420248,0.12706651172173505,8.0370000000039
0.4868,0.0774,0.7468,-0.3716,0.4674,0.4089,-0.6913,0.9975,-2.3888,83.55028860367808,32.5765958171348,0.1287238605459559,8.052999999999884
0.4852,0.0833,0.7658,-0.373,0.4666,0.4081,-0.3237,1.05,-2.5113,83.58842854534947,32.47951663362065,0.13002647449768603,8.068000000006577
0.4878,0.0793,0.7581,-0.373,0.4666,0.4081,-0.8313,0.8313,-2.555,83.69515535678087,32.51883106765568,0.12899454704491253,8.084000000002561
0.4817,0.1016,0.7588,-0.3718,0.4674,0.4126,-0.2275,1.3475,-2.3187,83.40326720441522,32.4713890705551,0.13428634233971537,8.099000000001979
0.4838,0.0881,0.7474,-0.3718,0.467,0.4074,-0.7,1.54,-2.7037,83.38323884240533,32.5646998602686,0.1430337081102617,8.115000000005239
0.4812,0.077,0.7475,-0.3726,0.4678,0.4062,-0.9712,0.8225,-2.065,83.61502718945324,32.570511183400974,0.14057433729626245,8.131000000001222
0.4937,0.0956,0.7599,-0.3726,0.4678,0.4062,-0.84,0.9975,-2.4938,83.42057360784476,32.62991295306011,0.13998315357264565,8.146000000007916
0.4933,0.088,0.7548,-0.3712,0.4682,0.4077,-0.3675,0.9975,-2.1,83.41172539075774,32.649277208265225,0.14034883820524346,8.161999999996624
0.4853,0.0906,0.7698,-0.3728,0.4683,0.4087,-0.0787,1.2163,-2.2925,83.37425275655903,32.577797554216026,0.1427340043920467,8.177000000003318
0.4782,0.0935,0.7568,-0.3726,0.4681,0.4074,-0.0263,1.19,-2.205,83.23803236717504,32.55548864692361,0.14559660394854054,8.192999999999302
0.4936,0.081,0.7649,-0.3727,0.4679,0.4074,-0.3762,0.6737,-2.31,83.32321769412484,32.57325841130691,0.1407382235556629,8.209000000002561
0.4847,0.085,0.7576,-0.3727,0.4679,0.4074,-0.735,0.8225,-2.2925,83.3735749024448,32.558295199609645,0.13776815119966573,8.224000000001979
0.485,0.0814,0.7593,-0.3725,0.4672,0.413,-0.9013,0.8662,-2.3012,83.51603210890408,32.54084265488763,0.1364646160765681,8.239999999997963
0.4848,0.0863,0.7406,-0.3729,0.467,0.4089,-0.7962,0.5512,-2.1875,83.47995670702542,32.55544225076574,0.13819663447023958,8.27100000000064
0.4829,0.0841,0.7584,-0.3715,0.4677,0.4095,-0.9625,1.1375,-2.3187,83.53976921594469,32.52375144752127,0.14075697102655269,8.2870000000039
0.4895,0.0795,0.7609,-0.3715,0.4677,0.4095,-1.0412,0.9625,-2.1875,83.71146124599122,32.5263890344791,0.14054127392672108,8.30300000000716
0.4891,0.0857,0.7523,-0.3728,0.4673,0.4079,-0.4988,1.0675,-2.415,83.70892354327093,32.59502257100948,0.14185914653019027,8.319000000003143
0.4829,0.0864,0.7566,-0.3719,0.4679,0.4069,-0.98,0.9275,-2.4413,83.63753684402307,32.54739837479429,0.14019448187668535,8.334000000002561
0.4824,0.0766,0.7539,-0.3721,0.4666,0.4081,-0.6212,0.9363,-2.0563,83.69320302640101,32.541297150606944,0.13965775368563238,8.349999999998545
0.4856,0.0964,0.7515,-0.372,0.4679,0.4079,-0.525,1.0325,-2.2313,83.67936170840348,32.54929349057881,0.14055997832009814,8.366000000001804
0.49,0.0811,0.7577,-0.372,0.4679,0.4079,-0.3325,0.7088,-1.9775,83.71136339000248,32.57858301683197,0.136072780487717,8.381000000001222
0.4844,0.0936,0.7638,-0.3719,0.467,0.4074,-0.4725,0.9538,-2.4588,83.68548765535365,32.48845350813983,0.13620022243549762,8.396999999997206
0.4873,0.0911,0.7608,-0.373,0.4685,0.4066,-0.1138,0.9538,-2.135,83.53944703465999,32.48773768410874,0.14919122019424633,8.427999999999884
0.4899,0.0865,0.7492,-0.3715,0.4685,0.407,-0.735,0.0613,-2.415,83.51648844657537,32.594282029733904,0.13515481817500152,8.444000000003143
0.4859,0.0931,0.769,-0.3715,0.4685,0.407,-0.5425,0.7262,-2.2575,83.50368102571915,32.54901734188857,0.13144303635712093,8.459000000002561
0.4877,0.0917,0.7511,-0.3722,0.4682,0.4077,-0.315,1.12,-1.8988,83.42758320216875,32.60110510624872,0.1344267327173604,8.474999999998545
0.4862,0.085,0.7595,-0.3722,0.467,0.4064,-0.4812,1.1025,-2.275,83.43298679995483,32.58661570564577,0.13586780945226634,8.490000000005239
0.4845,0.0916,0.7617,-0.3714,0.4685,0.4094,-0.0088,1.2163,-2.3275,83.33593787846884,32.540979537853644,0.13979574850264315,8.506000000001222
0.4844,0.0808,0.7587,-0.3722,0.4662,0.4058,-0.805,0.7088,-1.7325,83.46886972339506,32.50203185066606,0.13602289365445822,8.522000000004482
0.4904,0.0889,0.7617,-0.3722,0.4662,0.4058,-0.595,0.4375,-2.6775,83.45911499427446,32.53495596509729,0.1283268542859183,8.536999999996624
0.4815,0.0814,0.7481,-0.3734,0.4668,0.4083,-0.9887,0.7175,-2.485,83.56612353040066,32.5543130592225,0.12582616885943138,8.552999999999884
0.4912,0.0836,0.7521,-0.3726,0.4677,0.4077,-0.5337,0.91,-1.9338,83.56814668355513,32.6333901041104,0.12552855197897053,8.568000000006577
0.4875,0.0864,0.778,-0.3723,0.4669,0.4082,-0.8925,0.56,-2.2838,83.59435144601925,32.552335252898565,0.12103969677904924,8.584000000002561
0.4859,0.0823,0.7574,-0.3723,0.4669,0.4082,-0.805,0.6125,-2.5287,83.64073421410747,32.546016892215555,0.11775572710294119,8.60000000000582
0.4946,0.0836,0.7524,-0.3726,0.4673,0.4074,-0.3675,0.9625,-2.065,83.64312795394095,32.59753476933415,0.11897390438584006,8.614999999997963
0.4818,0.0875,0.7628,-0.3727,0.4673,0.406,-0.2013,0.8487,-1.9162,83.59893955037828,32.50266819934147,0.11929779394974586,8.631000000001222
0.4867,0.0815,0.7696,-0.3714,0.4678,0.4066,-0.7962,0.735,-2.5025,83.67794179597433,32.41603288399463,0.11729051455919928,8.646000000007916
0.4857,0.0902,0.7517,-0.3726,0.4679,0.4062,-0.4462,0.7,-2.3187,83.64626796942618,32.45301239691535,0.11564146310074908,8.6620000000039
0.4864,0.0883,0.7534,-0.3726,0.4679,0.4062,-0.5075,0.6913,-2.345,83.6451113748333,32.487165630109644,0.11403203678817533,8.677999999999884
0.4837,0.0881,0.7758,-0.373,0.4677,0.4132,-0.7175,0.6825,-1.9512,83.62390972148604,32.366253926306996,0.11184258310900026,8.692999999999302
0.4702,0.0903,0.7645,-0.3718,0.4668,0.4082,-0.2537,1.3475,-2.6337,83.55018068942972,32.05958448910371,0.12006232480205337,8.709000000002561
0.4945,0.0838,0.7497,-0.3733,0.4681,0.4069,-0.5337,0.6475,-2.1525,83.55177575324888,32.06474645279207,0.11679734232150882,8.724000000001979
0.4962,0.0885,0.7457,-0.3733,0.4681,0.4069,-0.7613,0.9275,-2.3625,83.48771469954366,32.30200713520791,0.11847360808600531,8.739999999997963
0.492,0.0915,0.7482,-0.3725,0.4678,0.4026,-0.5512,0.805,-2.1875,83.46994050031009,32.32670548232633,0.11821824727976638,8.756000000001222
0.4784,0.0837,0.7584,-0.3738,0.4666,0.4085,-0.5688,0.9887,-2.415,83.48262465611074,32.27762760417151,0.11974387255127181,8.77100000000064
0.4872,0.0883,0.7671,-0.373,0.4669,0.4077,-0.2713,0.8487,-2.0387,83.47315470546597,32.2747075974647,0.11999076529863442,8.7870000000039
0.485,0.0783,0.751,-0.3733,0.4674,0.4051,-0.9187,0.9538,-2.0125,83.63957960911804,32.33007775948711,0.1208679887620255,8.801999999996042
0.4907,0.0889,0.7534,-0.3733,0.4674,0.4051,-0.35,0.6825,-2.3712,83.58836949006422,32.42993794343818,0.11860918988782516,8.817999999999302
0.4864,0.0797,0.7745,-0.3734,0.4679,0.4118,-0.245,0.98,-2.345,83.70105062195638,32.360881030101055,0.12086027090191764,8.834000000002561
0.4795,0.0779,0.7652,-0.3731,0.4681,0.4061,-0.8838,0.6475,-2.17,83.83304619666471,32.355425788308295,0.11751549381138666,8.849000000001979
0.4912,0.0922,0.7521,-0.3717,0.4665,0.407,-0.1312,0.525,-2.73,83.60676281463945,32.573279955276384,0.11332394443178817,8.865000000005239
0.4934,0.0843,0.7527,-0.3717,0.4665,0.407,-0.5337,1.12,-2.4938,83.60682765880158,32.70138230235426,0.11711154998068846,8.87999999999738
0.4991,0.0792,0.7601,-0.3724,0.4679,0.409,-0.5075,0.91,-2.3363,83.60838142333037,32.76934025328874,0.11850439498528924,8.89600000000064
0.4804,0.0905,0.7552,-0.3725,0.467,0.4086,-0.4725,0.4988,-2.38,83.59199685059316,32.67946492541382,0.11383667548822361,8.9120000000039
0.4799,0.0765,0.7638,-0.3735,0.4682,0.4086,-0.9887,0.7525,-2.4062,83.81456708391542,32.54640168903887,0.11261175793900703,8.927000000003318
0.4904,0.0959,0.7504,-0.3729,0.468,0.4039,-0.3237,0.6913,-2.5638,83.64144290412602,32.66404800695474,0.11130530214713438,8.943000000006577
0.4964,0.0867,0.7538,-0.3729,0.468,0.4039,-0.7788,0.9013,-2.2313,83.5986451037626,32.70071701752698,0.11234232192604675,8.95799999999872
0.4784,0.092,0.7549,-0.3712,0.4678,0.4139,-1.015,1.1287,-2.4237,83.41532940030729,32.58953309486858,0.11736136973675332,8.974000000001979
0.4794,0.0928,0.7709,-0.3716,0.4681,0.4077,0.1925,1.12,-2.5725,83.2999042776731,32.32593760333932,0.1217532327663637,8.990000000005239
0.4939,0.0821,0.7576,-0.3719,0.4671,0.4077,-0.4638,0.665,-2.31,83.32312770396229,32.40862100414179,0.11855540948502429,9.00499999999738
0.495,0.0919,0.7507,-0.3719,0.4671,0.4077,-0.3063,1.225,-2.555,83.27172660703339,32.63530721909246,0.1243398685401156,9.02100000000064
0.4895,0.0947,0.7532,-0.3724,0.4673,0.4073,-0.6212,0.735,-2.2575,83.22825915734572,32.651700955812125,0.121828381685719,9.036000000000058
0.4834,0.0822,0.7512,-0.3726,0.4669,0.4072,-0.1138,0.6125,-2.1875,83.37807814093567,32.65035629223438,0.11846554351894396,9.052000000003318
0.4811,0.0905,0.769,-0.3734,0.4682,0.4082,-0.455,0.6125,-2.24,83.37330079666195,32.58923111047393,0.11543898916884644,9.068000000006577
0.4932,0.0809,0.7424,-0.3715,0.4671,0.4121,-1.12,0.6125,-2.1962,83.52759928046542,32.621486997939144,0.11216384024763007,9.08299999999872
0.4829,0.0844,0.7656,-0.3715,0.4671,0.4121,-0.3237,1.0675,-2.31,83.55623186756472,32.55032655548661,0.11631945622599875,9.099000000001979
0.4768,0.082,0.764,-0.3712,0.4685,0.4124,-0.7088,1.3475,-2.2225,83.60868957104886,32.50537467373212,0.12287876060269297,9.114000000001397
0.4786,0.082,0.7532,-0.3733,0.4677,0.4068,0.1838,0.84,-2.3712,83.6816859929462,32.4656280276304,0.12268688454488795,9.130000000004657
0.487,0.0879,0.75,-0.3723,0.468,0.4056,-0.455,0.875,-2.2575,83.66226099565498,32.49791283148986,0.12301819609296613,9.146000000007916
0.4846,0.0871,0.7695,-0.3723,0.468,0.4056,-0.84,1.4175,-2.45,83.632528584873,32.393395576510315,0.12985262647364462,9.161000000000058
0.4884,0.0775,0.7493,-0.3724,0.4667,0.4111,-0.98,0.665,-2.03,83.78014677799294,32.456889264036356,0.12704186382617566,9.177999999999884
0.4853,0.0902,0.7638,-0.372,0.4685,0.409,-0.3237,1.2425,-2.6163,83.6988658423918,32.39225117431223,0.13222967743906686,9.193999999995867
0.4923,0.0843,0.7638,-0.3726,0.4679,0.408,-0.2537,0.945,-2.1875,83.69946657624962,32.399782127002915,0.1326147096979325,9.209999999999127
0.4885,0.0919,0.7468,-0.3717,0.4682,0.4074,-0.0787,1.0412,-2.485,83.48368481395204,32.546273969753656,0.1343465187311938,9.226000000002387
0.4921,0.0912,0.7673,-0.3717,0.4682,0.4074,-0.91,0.4638,-2.2662,83.40897221809614,32.54085687452167,0.12717316685783145,9.241000000001804
0.4866,0.0861,0.7489,-0.3724,0.4682,0.4037,-0.5512,0.665,-2.1437,83.41023210538648,32.54477560599192,0.1240318501739992,9.257000000005064
0.4875,0.0929,0.7518,-0.3726,0.4684,0.4091,-0.7262,0.6562,-2.1788,83.32973483180157,32.549463858673526,0.12048736515195849,9.271999999997206
0.4842,0.081,0.7626,-0.373,0.4675,0.4082,-0.6212,0.5863,-2.31,83.39001212606364,32.51202874752199,0.11688134863848267,9.288000000000466
0.4796,0.0868,0.7582,-0.373,0.4675,0.4082,-1.2513,0.5512,-1.925,83.42366164699507,32.44334708199736,0.11313049377625145,9.304000000003725
0.4866,0.0923,0.7549,-0.3722,0.468,0.4082,-0.5337,0.7788,-2.38,83.41490803630309,32.47412907586251,0.11233124439821832,9.319000000003143
0.4926,0.0784,0.7598,-0.3711,0.4672,0.4077,-0.5775,0.8838,-2.59,83.45816919397369,32.578100310262684,0.11382483996098927,9.335000000006403
0.4815,0.082,0.7474,-0.3728,0.4688,0.4076,-0.5688,1.0325,-2.5375,83.4735076580529,32.59381990162697,0.11638110595758827,9.349999999998545
0.4859,0.0855,0.7656,-0.3728,0.4679,0.4101,-0.5775,0.8575,-2.17,83.48312588111932,32.589254015537904,0.11709099536434507,9.366000000001804
0.4818,0.0803,0.7591,-0.3728,0.4679,0.4101,-0.7262,0.6913,-2.1437,83.56784393255003,32.58496296884921,0.11533661582993862,9.382000000005064
0.4908,0.0867,0.7494,-0.3718,0.4671,0.4104,-0.5512,0.6212,-2.5375,83.56138334350857,32.71245365628533,0.11218915424661934,9.397000000004482
0.4953,0.0824,0.7577,-0.3732,0.4672,0.4075,-0.14,0.5425,-2.03,83.62418681998456,32.74686784071025,0.10878223881999644,9.413000000000466
0.4853,0.0905,0.7613,-0.3726,0.467,0.4069,-0.35,0.7525,-2.0475,83.56823779514549,32.70616623917093,0.10806276493760257,9.427999999999884
0.4896,0.0899,0.7653,-0.3726,0.467,0.4069,-0.2013,0.9975,-2.6775,83.50484394568988,32.61197988072556,0.11162048844676865,9.444000000003143
0.4788,0.0809,0.7343,-0.3722,0.4682,0.4074,-0.63,0.6737,-2.1437,83.52696962506639,32.61635358330053,0.1101597196040682,9.460000000006403
0.4823,0.0902,0.7637,-0.3716,0.468,0.4074,-0.42,1.0237,-2.31,83.50503778131804,32.547089419503834,0.11296369763642154,9.474999999998545
0.5724,0.0772,0.8184,-0.3717,0.467,0.4094,-0.1575,1.155,-2.5287,83.79394675108185,33.171379912765275,0.11829932787616776,9.491000000001804
0.4954,0.1668,0.8568,-0.3725,0.4672,0.4059,1.6538,1.0762,-1.2337,80.50353073107615,31.445880127432485,0.1209980950879872,9.506000000001222
0.418,0.0634,0.7155,-0.3725,0.4672,0.4059,-1.12,1.1113,-1.715,82.18129740994655,31.062928586048486,0.12490100558244867,9.522000000004482
0.5474,0.0923,0.7803,-0.3723,0.469,0.4034,0.0787,1.26,-2.9313,82.57920256153695,32.721728251630395,0.1305549050196493,9.538000000000466
0.5058,0.11,0.7287,-0.3719,0.4677,0.4076,-0.6913,0.1925,-2.0563,82.40148936667215,32.88087147412532,0.12009816451758352,9.552999999999884
0.4419,0.0475,0.7391,-0.3709,0.4676,0.4077,-1.505,1.575,-1.47,84.3562426112054,32.04283981325878,0.13076834807044568,9.569000000003143
0.468,0.081,0.8017,-0.3709,0.4676,0.4077,-0.7875,1.7413,-1.9688,84.32904570556387,31.74290700688034,0.1411990632624889,9.584000000002561
0.438,0.0982,0.7778,-0.3713,0.4678,0.4163,-0.385,-0.2275,-2.6075,84.15841488508676,30.95039951278244,0.1238031569355726,9.60000000000582
0.5272,0.0767,0.7299,-0.3729,0.467,0.4074,-1.3737,-0.1925,-2.7562,84.08560644297035,32.72689108570088,0.10865084124271118,9.616000000001804
0.5301,0.0924,0.7203,-0.3724,0.4665,0.4075,0.0875,1.8813,-2.835,83.56307867313801,34.10127920337259,0.12318330711745451,9.631000000001222
0.4307,0.0681,0.7709,-0.3736,0.4655,0.406,0.035,1.2425,-2.7037,84.05349872771893,32.33228189891771,0.12875697640935416,9.647000000004482
0.4515,0.0633,0.7892,-0.3736,0.4655,0.406,-0.5075,0.9013,-2.5113,84.0582541989649,31.64207225357029,0.1280488287679466,9.6620000000039
0.5395,0.0988,0.7276,-0.3711,0.4685,0.406,-0.105,0.63,-2.8,83.54104871904858,33.46758087776157,0.12431594589300014,9.67800000000716
0.5374,0.0736,0.733,-0.3717,0.4669,0.4074,-1.295,0.2013,-2.1788,83.85971913859555,33.524283265444716,0.1147830713016543,9.693999999995867
0.4441,0.0994,0.799,-0.372,0.4678,0.4082,0.175,2.0038,-2.8612,83.47269434502147,31.604878032452046,0.13035606418356074,9.709000000002561
0.4408,0.0849,0.7687,-0.372,0.4678,0.4082,0.315,1.89,-1.9425,83.57436076583068,31.265405261941115,0.1445364577707493,9.72500000000582
0.5209,0.0697,0.7904,-0.3723,0.4677,0.4071,-0.8313,-0.2887,-2.4325,83.91063016758345,31.701639563329152,0.12618536199382563,9.740000000005239
0.5283,0.1094,0.7239,-0.3722,0.4678,0.4082,-0.35,0.2013,-2.8963,83.56331310455528,33.44993888353357,0.11646554579371542,9.756000000001222
0.5299,0.0935,0.7191,-0.3719,0.469,0.4078,-0.9975,0.9625,-2.1613,83.24534605680542,33.4618736831239,0.11867899121086474,9.771999999997206
0.4438,0.0911,0.789,-0.3713,0.4678,0.409,-1.1025,1.0762,-1.8025,83.3078960115232,32.34550417940592,0.12133979209626183,9.7870000000039
0.4394,0.1,0.7887,-0.3713,0.4678,0.409,-0.2362,1.2862,-2.6425,83.19279941839407,31.22876469054858,0.12772709288198644,9.802999999999884
0.528,0.0794,0.7322,-0.373,0.468,0.4118,-0.2187,0.5075,-2.0738,83.33263280284494,31.566891456359496,0.12180563359352194,9.817999999999302
0.5228,0.0974,0.7232,-0.3719,0.4674,0.4072,-0.105,0.3675,-2.9313,83.042992285318,33.33536236423451,0.11491707023524787,9.834000000002561
0.4476,0.0632,0.7937,-0.3719,0.4678,0.4078,-0.7962,1.4525,-2.2225,83.57652687703134,33.089489441251814,0.12434136320647274,9.849999999998545
0.456,0.0702,0.7738,-0.3719,0.4678,0.4078,-1.3125,1.2075,-2.2662,84.1280871181833,32.82524127092938,0.12820847689310005,9.865000000005239
0.5209,0.0927,0.7815,-0.3724,0.4678,0.4126,-0.3938,0.0437,-2.4762,84.0344237138546,32.988682948111375,0.11601690920363208,9.881000000001222
0.5244,0.0758,0.7383,-0.3721,0.4666,0.4088,-1.0588,0.1225,-2.1175,84.07110926695684,33.07410570680083,0.10606896828320471,9.89600000000064
0.5174,0.0847,0.7382,-0.3722,0.4674,0.4064,-0.5775,0.875,-2.2487,84.03267082632205,33.2235072770261,0.1080620714574512,9.9120000000039
0.4574,0.0725,0.7659,-0.3719,0.4677,0.4084,-0.0525,1.6538,-2.6513,84.20866329199904,32.399700951786734,0.12107058430572809,9.927999999999884
0.4579,0.0725,0.7562,-0.3719,0.4677,0.4084,-0.6562,1.085,-2.2225,84.2485869955777,32.31842851675496,0.12361102588169187,9.943000000006577
0.5187,0.0903,0.753,-0.3725,0.4657,0.4109,-0.7437,1.0675,-2.2225,84.04342264298533,32.444774231978236,0.126621923289664,9.959000000002561
0.5167,0.071,0.744,-0.372,0.4661,0.4083,-0.7525,0.5163,-1.925,84.14172104477144,32.861360092077426,0.12092978096042714,9.974000000001979
0.4618,0.1047,0.7715,-0.3725,0.4664,0.4076,0.175,1.47,-2.4675,83.38081077166798,32.342882596484586,0.13000480286869692,9.990000000005239
0.4586,0.083,0.7638,-0.3725,0.4664,0.4076,-0.07,1.1287,-2.24,83.50853784606053,32.22701648496125,0.13325760257774732,10.006000000001222
0.5073,0.0962,0.7596,-0.3726,0.4685,0.4098,-0.315,0.6475,-2.0825,83.38949692588872,32.31699443332699,0.12867309232387347,10.021000000007916
0.5111,0.1039,0.7552,-0.3727,0.4686,0.4066,-0.2275,0.5775,-2.9488,83.11934593232829,32.99017438696192,0.12412178308561697,10.036999999996624
0.503,0.0843,0.7433,-0.3726,0.468,0.4082,-0.7788,0.6388,-2.0125,83.2059928909399,33.10709364048002,0.12033340478090374,10.052000000003318
0.479,0.0962,0.7696,-0.3714,0.4677,0.4124,-0.805,1.1287,-1.8637,83.1307881568735,32.78792924549967,0.12455334429873345,10.067999999999302
0.469,0.0921,0.7673,-0.3714,0.4677,0.4124,-0.735,1.1638,-2.2138,83.13530313323963,32.705236072659076,0.1288567298722743,10.084000000002561
0.5067,0.0878,0.746,-0.3725,0.4674,0.4115,-0.4812,1.015,-2.0738,83.139708054322,32.804720204121516,0.12967355688451515,10.099000000001979
0.4923,0.0955,0.7591,-0.3724,0.4674,0.4058,-0.0787,0.9363,-2.625,83.04606988761915,32.79033962987433,0.13018892119267922,10.114999999997963
0.4729,0.0785,0.7679,-0.3734,0.4667,0.4062,-0.875,1.2337,-2.4237,83.34416114664988,32.51717112489776,0.1338249790808437,10.130000000004657
0.4733,0.088,0.7627,-0.3734,0.4667,0.4062,-0.3325,1.0412,-2.065,83.3553969987819,32.44441914362038,0.13543576116899572,10.14600000000064
0.4722,0.0916,0.7649,-0.3718,0.4672,0.4034,-0.8838,0.3413,-2.2313,83.30535223157071,32.37944503290386,0.1268069050530974,10.1620000000039
0.5048,0.0846,0.7428,-0.3722,0.4674,0.409,-0.77,0.7088,-1.96,83.34588547450714,32.6506504288611,0.12369501454741635,10.177000000003318
0.502,0.0916,0.7506,-0.3722,0.4684,0.4066,0.0525,1.5662,-2.2925,83.23645978630262,32.761536939755985,0.1338787930870134,10.192999999999302
0.4734,0.0771,0.7708,-0.373,0.4662,0.4058,0.1838,1.295,-2.6513,83.66752496888705,32.32094600323175,0.13797341378611377,10.208000000005995
0.4814,0.0811,0.7682,-0.373,0.4662,0.4058,0.0263,0.6562,-2.5463,83.77447506151705,32.21165648172034,0.13362535240513043,10.224000000001979
0.4955,0.0891,0.7488,-0.3727,0.4696,0.4042,0.245,0.9625,-2.6075,83.53328733855014,32.55238858212336,0.13412281716744107,10.240000000005239
0.495,0.0812,0.7363,-0.3721,0.4669,0.4075,-0.5075,0.8925,-2.2138,83.53389367439064,32.61700174731863,0.13275928545022941,10.255000000004657
0.476,0.0866,0.7627,-0.372,0.4677,0.4094,-0.2625,1.0412,-2.3363,83.5315564915739,32.49326292650965,0.13447663690144285,10.27100000000064
0.5001,0.0816,0.7694,-0.3715,0.468,0.4066,-0.4988,0.2362,-2.5025,83.5365549686235,32.591850560137814,0.12421767321272155,10.286000000007334
0.5009,0.0907,0.7401,-0.3725,0.4684,0.4067,-0.0613,0.8225,-2.4762,83.37420222920684,32.9065859886463,0.12363990588847631,10.302000000003318
0.5003,0.087,0.7426,-0.3724,0.4684,0.4069,-0.4112,1.3475,-1.8637,83.36909461782973,33.10640127877776,0.1306799152947579,10.317999999999302
0.4672,0.09,0.7677,-0.3708,0.4676,0.405,-0.5512,1.33,-2.3975,83.36694828539287,32.72696275350399,0.13556692376458537,10.33299999999872
0.4634,0.0892,0.76,-0.3708,0.4676,0.405,0.2537,0.5863,-2.5725,83.3404985652548,32.278136655882655,0.13045295138984686,10.349000000001979
0.5075,0.0834,0.7574,-0.3727,0.4674,0.4089,-0.42,0.5775,-1.9863,83.37184406751341,32.48019658400774,0.12520390625055963,10.364000000001397
0.4986,0.0925,0.7553,-0.3722,0.4663,0.4074,0.14,0.6737,-2.0125,83.23227082725131,32.57534596280304,0.12238479562306846,10.37999999999738
0.4781,0.0872,0.7707,-0.3725,0.4671,0.4078,0.0525,0.9013,-2.3012,83.34490456451961,32.45866044305242,0.12312503606340573,10.39600000000064
0.462,0.0816,0.7634,-0.3725,0.4671,0.4078,-1.0412,0.6737,-2.1613,83.53682497041291,32.452396698371594,0.11990748245671222,10.411000000000058
0.5061,0.0828,0.7713,-0.3725,0.4675,0.4099,-1.1638,-0.0962,-1.96,83.66948083022176,32.56238877149027,0.10653145421075878,10.427000000003318
0.5108,0.0844,0.7532,-0.371,0.4655,0.4091,-0.7962,0.6562,-2.2313,83.65547819793801,32.66046524668333,0.10473700878933914,10.442000000002736
0.5045,0.0854,0.7382,-0.3717,0.4665,0.4081,-0.4288,1.0063,-2.1437,83.63614509231755,32.680119468649174,0.10875402790676776,10.45799999999872
0.4668,0.087,0.7672,-0.3724,0.469,0.4086,-0.3325,1.33,-2.2838,83.62011772034444,32.50845076026088,0.11703062511999278,10.474000000001979
0.4638,0.0865,0.7623,-0.3724,0.469,0.4086,-0.7088,0.595,-2.1088,83.60460929066528,32.446359840468965,0.1133600626076818,10.489000000001397
0.5103,0.0857,0.7394,-0.3725,0.4672,0.4042,-0.3237,0.9275,-2.52,83.57053922751396,32.97562896393794,0.1153800563496346,10.505000000004657
0.5037,0.0846,0.7529,-0.373,0.4658,0.4062,-0.3325,0.315,-2.1962,83.5733085299724,32.99990295169214,0.10809455071450612,10.520000000004075
0.4673,0.0865,0.766,-0.3715,0.4678,0.4071,-0.5163,0.385,-1.54,83.57322376202836,32.322439998682825,0.10282909564166384,10.536000000000058
0.4731,0.0797,0.7665,-0.3715,0.4678,0.4071,-0.5163,0.9013,-1.8112,83.5758065373056,32.12305127564699,0.10552490608014156,10.552000000003318
0.5076,0.0958,0.7519,-0.3719,0.4672,0.4067,-0.945,0.525,-2.4062,83.32256028888852,32.4595702241261,0.10205991547185238,10.567000000002736
0.5016,0.0911,0.752,-0.373,0.4672,0.4057,-0.7262,0.5863,-2.3537,83.28184494236041,32.63260607053354,0.10029664392638715,10.583000000005995
0.4985,0.0888,0.7546,-0.3724,0.4676,0.407,-0.4988,1.3038,-2.275,83.28192400739216,32.69977516509107,0.10786827952452767,10.597999999998137
0.4754,0.0873,0.7618,-0.3724,0.4671,0.4055,-0.2362,0.7,-2.625,83.32087038865669,32.41240145471654,0.10716145157412846,10.614000000001397
0.4759,0.0845,0.7513,-0.3721,0.4671,0.4055,-0.3675,1.1725,-2.31,83.35374354405587,32.382740789577554,0.11332930642015533,10.630000000004657
0.5005,0.0894,0.7543,-0.371,0.4663,0.4134,-0.3413,1.1812,-1.82,83.33735827038086,32.63443309667383,0.11794257576978608,10.644999999996799
0.4924,0.0845,0.7488,-0.3721,0.4675,0.4086,-0.49,0.5688,-2.1613,83.34197134367729,32.63675942806249,0.11433903819447615,10.661000000000058
0.4801,0.0845,0.7533,-0.3714,0.4662,0.407,-0.9275,0.7875,-2.345,83.41775439563284,32.59110138632315,0.11353638437461598,10.675999999999476
0.4811,0.0889,0.7742,-0.3714,0.4662,0.407,-0.0263,1.225,-1.925,83.42812420226475,32.42139091306415,0.11982274594074813,10.692000000002736
0.4925,0.0845,0.7529,-0.3717,0.4674,0.4066,-0.5337,1.015,-2.1788,83.43185676267542,32.4343669731955,0.12245647134965099,10.708000000005995
0.4964,0.0855,0.7626,-0.3725,0.4668,0.407,-0.4725,1.0325,-1.8025,83.43819948935757,32.55566157214828,0.12414957420738382,10.722999999998137
0.4912,0.0855,0.761,-0.3721,0.4671,0.4076,-0.6475,1.1287,-2.2487,83.45638003604468,32.56589720947061,0.12798789678995667,10.739000000001397
0.4858,0.0848,0.7573,-0.3719,0.4668,0.4098,-0.595,0.9538,-2.3888,83.46834677087571,32.55682746995044,0.12806540711046135,10.754000000000815
0.4803,0.088,0.7636,-0.3719,0.4668,0.4098,-0.2362,0.8487,-2.52,83.45922461959965,32.408373583455315,0.12748014640190503,10.770000000004075
0.488,0.0852,0.7505,-0.3716,0.4692,0.4036,-0.4462,0.9275,-1.8813,83.46312224788981,32.50720027709946,0.12808813176443548,10.786000000007334
0.494,0.0872,0.7643,-0.3724,0.4672,0.4068,-0.0088,0.98,-2.2838,83.47250651076394,32.529776683365725,0.12850931858106115,10.800999999999476
0.4808,0.0834,0.7592,-0.3724,0.4665,0.4066,-0.455,1.0675,-2.52,83.48621893651575,32.43949615972239,0.13103038672608672,10.817000000002736
0.4792,0.0792,0.7555,-0.3724,0.4665,0.4066,-0.7875,0.9013,-2.1,83.60085687986918,32.42901707794567,0.1300948980530059,10.832000000002154
0.4859,0.0886,0.7555,-0.3702,0.4679,0.4066,-0.5337,0.6125,-2.4237,83.59443143606484,32.45857062405112,0.12590540824950217,10.848000000005413
0.4932,0.0813,0.7567,-0.3712,0.4674,0.4075,-0.7613,0.7962,-2.52,83.64912712686916,32.58819691714471,0.12478014742167394,10.864000000001397
0.4867,0.0781,0.747,-0.3724,0.4668,0.4066,-0.315,0.9887,-2.3363,83.71176309208813,32.64225530244973,0.1256495826789886,10.879000000000815
0.4885,0.0853,0.7511,-0.3722,0.4668,0.4035,-0.385,1.1287,-2.8263,83.69040021573674,32.73421041972475,0.12933790441440096,10.895000000004075
0.4817,0.0825,0.7532,-0.3722,0.4668,0.4035,-0.5075,0.9712,-2.2313,83.6906055636964,32.71421629749028,0.1295153139724521,10.910000000003492
0.4861,0.0917,0.7605,-0.3722,0.4664,0.4072,-0.14,0.9187,-2.1875,83.53742575696467,32.70484072501758,0.12979306257188608,10.925999999999476
0.4855,0.0881,0.7513,-0.3728,0.4666,0.409,-0.8313,0.2713,-2.5638,83.48270171442189,32.70141026516738,0.12072047631371681,10.94199999999546
0.4826,0.0866,0.7707,-0.3722,0.4687,0.4084,-0.7962,0.8487,-2.1788,83.50625230207501,32.6840569534874,0.1201058786874581,10.957000000002154
0.4776,0.0883,0.7637,-0.3722,0.4687,0.4084,-0.2713,1.015,-2.59,83.48661093542876,32.43201768908127,0.12271129082168995,10.973000000005413
0.495,0.0845,0.7625,-0.3718,0.4694,0.4119,-0.6125,0.6388,-1.9512,83.50408944328315,32.50013636073733,0.11906396173500322,10.987999999997555
0.4954,0.0945,0.7446,-0.3723,0.4687,0.4066,-0.385,0.8138,-2.31,83.42160967196699,32.623082614645405,0.11887628556389032,11.004000000000815
0.4928,0.0938,0.7527,-0.3716,0.4674,0.409,-0.385,0.6388,-2.5287,83.362850366021,32.72826828736027,0.11618737700519222,11.019999999996799
0.4853,0.083,0.7554,-0.3718,0.4669,0.4102,-0.7088,1.0325,-2.1175,83.4234363009271,32.72197808810664,0.11850738931089329,11.035000000003492
0.4839,0.0805,0.7591,-0.3723,0.4666,0.4075,-0.6125,0.5163,-2.4762,83.47164126106028,32.637041821782766,0.11409137038131863,11.051000000006752
0.4918,0.0896,0.7479,-0.3712,0.4663,0.4086,-0.6388,0.8138,-2.2487,83.43728070214732,32.679406347072685,0.11366853333743138,11.065999999998894
0.4857,0.0808,0.7621,-0.3724,0.4683,0.4066,0.0175,1.3038,-2.38,83.61385263043796,32.62207430563041,0.12107640000751314,11.082000000002154
0.4792,0.0778,0.7666,-0.3724,0.4683,0.407,-0.9275,0.6913,-1.96,83.78768575107064,32.499619802421904,0.118923480004263,11.097999999998137
0.4834,0.0839,0.7439,-0.3721,0.4674,0.407,0.105,0.5075,-2.1175,83.70285582957463,32.51294264310912,0.11388238200689413,11.113000000004831
0.4855,0.082,0.7726,-0.3714,0.4679,0.4031,-0.56,0.4112,-2.0738,83.7140056648234,32.47365837917522,0.10841542380471834,11.129000000000815
0.4893,0.0799,0.7498,-0.3718,0.4673,0.4068,-0.28,0.7788,-2.3712,83.75217694586046,32.56294709766449,0.10808768142383852,11.144000000000233
0.4802,0.0864,0.7608,-0.3726,0.4678,0.4073,-0.2537,1.1638,-2.3975,83.70486301737697,32.47194090367842,0.11403763328486888,11.160000000003492
0.4852,0.0846,0.7548,-0.3726,0.4678,0.4073,-0.455,0.805,-2.4325,83.69955743400453,32.49339290643553,0.11422586995347217,11.175999999999476
0.4893,0.0895,0.7532,-0.3719,0.4674,0.4075,-0.875,0.875,-2.31,83.57252467870408,32.537515401041745,0.11461578296339639,11.19100000000617
0.4806,0.083,0.7551,-0.372,0.4677,0.4078,-0.2887,0.6212,-2.3537,83.60066984556349,32.501736851353414,0.11209948466074346,11.206999999994878
0.4815,0.0962,0.7593,-0.372,0.4677,0.4078,-0.4375,0.9013,-2.4762,83.54443071248618,32.422487532830104,0.113057086200099,11.222000000001572
0.4807,0.084,0.7754,-0.3721,0.4671,0.4103,-0.0613,0.9712,-2.4762,83.62904261120529,32.23475633952835,0.11573665758293827,11.238000000004831
0.4928,0.0881,0.7567,-0.373,0.4684,0.4066,-0.14,0.805,-1.96,83.55600613861071,32.34385133985909,0.11575499182173463,11.254000000000815
0.4839,0.0888,0.7622,-0.3726,0.4677,0.4082,-0.3938,0.6913,-2.4062,83.5348892509795,32.322294600932075,0.113512042639199,11.269000000000233
0.484,0.0834,0.7585,-0.3718,0.4677,0.4068,-0.5163,0.6388,-2.2838,83.53589186106429,32.329480308214016,0.11135955837297004,11.284999999996217
0.4871,0.0868,0.7637,-0.3718,0.4677,0.4068,-0.49,0.5775,-2.24,83.53547740469305,32.332121674683165,0.10801985253915218,11.30000000000291
0.4891,0.0817,0.7422,-0.373,0.4666,0.4101,-0.525,0.84,-2.2487,83.53800002927628,32.40730189659964,0.10931386728770123,11.31600000000617
0.4864,0.0819,0.7573,-0.3714,0.4662,0.407,-0.2713,0.8313,-2.1525,83.59399674915848,32.40796923492417,0.11035320055592622,11.332000000002154
0.4848,0.0904,0.7651,-0.3726,0.468,0.4076,-0.4812,0.735,-1.82,83.58437253432916,32.350723315865245,0.10924038049994855,11.347000000001572
0.4832,0.0786,0.7598,-0.3727,0.469,0.4083,-0.7525,0.6475,-2.1088,83.68347690912587,32.349161365058386,0.10764034244761318,11.362999999997555
0.489,0.0845,0.7564,-0.3727,0.469,0.4083,-0.6562,0.6212,-2.2662,83.67615471071248,32.38572898610171,0.10526250820659427,11.37800000000425
0.4851,0.0854,0.7479,-0.3723,0.4681,0.4143,-0.7788,0.6388,-2.3712,83.6359498780622,32.458651074253176,0.10393497738362578,11.394000000000233
0.4877,0.0801,0.7595,-0.3729,0.4659,0.409,-0.8138,0.595,-2.2313,83.71582189496512,32.46580685087644,0.10210947964700874,11.410000000003492
0.4839,0.0936,0.7668,-0.3718,0.467,0.4082,-0.6212,0.7088,-2.625,83.6488000722761,32.33756867825413,0.10146733168193656,11.42500000000291
0.4857,0.0814,0.7518,-0.3718,0.467,0.4082,0.0175,1.19,-2.4325,83.708154237108,32.41857110279625,0.10845659850944142,11.440999999998894
0.4865,0.0925,0.7654,-0.373,0.4679,0.4086,-0.035,1.1812,-2.4062,83.5149669678566,32.38550968488398,0.11355713866561343,11.456000000005588
0.4856,0.093,0.7496,-0.3725,0.4663,0.406,-0.4112,0.8575,-2.3888,83.46167013067493,32.4515484412532,0.11454942479595248,11.472000000001572
0.4809,0.0822,0.7525,-0.3722,0.4682,0.409,-0.8313,0.3237,-2.345,83.53548913793173,32.44772730585659,0.10775576231518716,11.487999999997555
0.491,0.0947,0.7558,-0.3722,0.4682,0.409,-0.35,0.665,-2.3712,83.44156211927992,32.51094967179831,0.10595768608767474,11.50300000000425
0.4878,0.0941,0.7524,-0.3726,0.4672,0.4103,-0.9187,1.0063,-2.5638,83.27638513361616,32.581169342995885,0.1098526374752698,11.519000000000233
0.4812,0.0851,0.7641,-0.372,0.4674,0.4066,-0.9275,0.5337,-2.1788,83.38476779274255,32.56960157413915,0.1060723237309581,11.534000000006927
0.4895,0.0925,0.7556,-0.3718,0.4682,0.4077,0.0437,0.8925,-2.5812,83.25484267765015,32.6210201416928,0.10831709134879176,11.549999999995634
0.49,0.077,0.7556,-0.3719,0.4689,0.4056,-0.9013,0.6388,-2.1875,83.51492887313536,32.62717370880031,0.10668410221578661,11.565999999998894
0.4846,0.0838,0.7502,-0.3719,0.4689,0.4056,-0.7613,0.98,-1.9775,83.53722005154512,32.63812507041083,0.10924569200011196,11.581000000005588
0.4911,0.0823,0.7615,-0.3715,0.4677,0.4129,-1.0063,0.9275,-2.5025,83.63474016401969,32.6455631076694,0.11167712279674814,11.597000000001572
0.4817,0.0798,0.7652,-0.3714,0.4683,0.4087,-0.1838,1.085,-2.38,83.73621690116586,32.537141159632604,0.11515691051650494,11.61200000000099
0.4875,0.0903,0.7562,-0.372,0.4679,0.4077,0.1312,1.0237,-2.2138,83.52276490854774,32.541832544425276,0.11838249946115408,11.627999999996973
0.4858,0.0814,0.7505,-0.372,0.4679,0.4077,-0.35,1.1375,-1.9425,83.56257592261673,32.58076972000127,0.1229242495183757,11.644000000000233
0.4903,0.0802,0.7562,-0.3726,0.4683,0.4056,-0.7962,0.7788,-2.66,83.64766811345365,32.65823475596754,0.12114562456613015,11.65899999999965
0.4821,0.0869,0.7546,-0.372,0.4661,0.4102,-0.3325,0.5688,-2.3187,83.61480972132158,32.62264999273898,0.1172217821111858,11.67500000000291
0.4843,0.0832,0.753,-0.3714,0.467,0.4074,-0.2275,0.7262,-2.135,83.63249740335513,32.621942034120714,0.11530330389968677,11.690000000002328
0.4844,0.0949,0.7609,-0.3714,0.467,0.4111,-0.35,1.1463,-2.3975,83.52963131254955,32.55589742537116,0.12027969350557458,11.705999999998312
0.4912,0.0894,0.7519,-0.3714,0.467,0.4111,-0.2275,0.9625,-2.0825,83.46111342039559,32.5846905671718,0.12211172415784079,11.722000000001572
0.4837,0.0886,0.761,-0.3726,0.4671,0.4062,-0.455,1.1025,-1.8988,83.4557079186299,32.51934184534053,0.12478430174147914,11.73700000000099
0.4877,0.0938,0.7562,-0.3725,0.4669,0.4066,-0.56,1.225,-1.8112,83.43111171845271,32.545319175060754,0.12994587157092496,11.75300000000425
0.4879,0.0799,0.7491,-0.3714,0.4678,0.4081,-0.5337,0.7875,-1.8813,83.44177736011667,32.628157488731304,0.12758253441341993,11.768000000003667
0.4889,0.091,0.7488,-0.3714,0.4678,0.4081,-0.6037,0.7175,-2.3187,83.41032009459725,32.67284591535042,0.12515628096948442,11.78399999999965
0.4882,0.0915,0.7555,-0.3723,0.4673,0.4103,-0.3325,0.9013,-2.4237,83.36247338132101,32.6744476267442,0.1256193728751801,11.80000000000291
0.4896,0.0792,0.7584,-0.3725,0.4678,0.4086,-0.7088,1.3388,-2.2838,83.47405526287736,32.6777340208072,0.13113123558696074,11.815000000002328
0.489,0.0892,0.7583,-0.3724,0.467,0.4066,-0.6562,0.7962,-2.2225,83.45085171709273,32.675252372505426,0.12948339202538667,11.830999999998312
0.4875,0.0789,0.7597,-0.3722,0.4658,0.4071,-0.7262,0.3063,-1.5137,83.56061814841216,32.625745782147554,0.1206701028246933,11.846000000005006
0.4934,0.0855,0.7485,-0.3722,0.4658,0.4071,-0.525,1.0325,-2.1263,83.55955305062093,32.64342883848095,0.1234710925384918,11.86200000000099
0.4902,0.0856,0.7625,-0.3722,0.467,0.4122,-0.595,1.1025,-2.4237,83.56227353058362,32.628673027878484,0.12699998328787698,11.87800000000425
0.4847,0.0818,0.7582,-0.3723,0.4664,0.4074,-0.7088,0.7437,-1.785,83.60852152265203,32.57741786521132,0.12433993495382968,11.892999999996391
0.4848,0.0906,0.7533,-0.3722,0.4663,0.4074,-0.3938,1.0412,-2.3275,83.55957118770685,32.57737087627154,0.12689922146150126,11.90899999999965
0.4839,0.0838,0.7546,-0.3722,0.4663,0.4074,-0.5775,0.9363,-2.1962,83.56602853534189,32.57487276139218,0.12684934931486064,11.923999999999069
0.4931,0.0808,0.7504,-0.372,0.4683,0.4002,-0.77,0.7262,-2.8788,83.62533080908878,32.81942701406056,0.124621694385505,11.940000000002328
0.4834,0.0939,0.7556,-0.3719,0.4679,0.4063,-0.455,1.0588,-2.59,83.58771304439114,32.69579592775664,0.12740624495006067,11.956000000005588
0.4828,0.0852,0.7512,-0.3714,0.4674,0.41,-0.4812,0.525,-2.3712,83.58602082923612,32.67231081821934,0.12175312045134169,11.97099999999773
0.4887,0.0906,0.7532,-0.3725,0.4674,0.4086,-0.3063,0.8662,-1.8637,83.51040669281485,32.69879916567763,0.12205108840874868,11.98700000000099
0.4854,0.0881,0.7556,-0.3725,0.4674,0.4086,-0.4375,0.7875,-2.485,83.4993932561629,32.65985403413621,0.12047722956746126,12.002000000000407
0.487,0.0867,0.7532,-0.3726,0.4669,0.4071,-0.6825,0.7875,-2.6337,83.48976882005634,32.67732907361556,0.11976950661302539,12.018000000003667
0.4902,0.0896,0.7517,-0.373,0.4678,0.4065,-0.2975,0.8575,-2.3275,83.43924640318797,32.71336959498322,0.12014055595423846,12.034000000006927
0.4879,0.0858,0.7524,-0.3718,0.4666,0.407,-0.3063,0.7175,-1.8725,83.44861372053951,32.73099647392973,0.1178127503537403,12.048999999999069
0.4809,0.0863,0.749,-0.373,0.4678,0.4098,-0.6913,0.8138,-2.0475,83.44536513329022,32.71129908498568,0.11775019532075369,12.065000000002328
0.4846,0.0905,0.7568,-0.373,0.4678,0.4098,-0.455,0.98,-2.4413,83.43133413202973,32.65301863228718,0.11920517578816493,12.080000000001746
0.4831,0.0838,0.7482,-0.3729,0.4673,0.41,-0.595,0.5775,-2.3187,83.44513026866044,32.65776635194395,0.11560065821104262,12.096000000005006
0.484,0.087,0.7595,-0.3725,0.4664,0.4085,-0.6212,0.735,-2.3537,83.44713277092407,32.605304140638765,0.11462459238728155,12.11200000000099
0.4962,0.0848,0.7549,-0.3722,0.4675,0.4069,-0.5337,1.0762,-2.5812,83.45031791407636,32.768310004705604,0.1176908331479896,12.127000000000407
0.4835,0.0831,0.7607,-0.3722,0.4675,0.4069,-0.9275,0.8838,-2.4413,83.54303388499072,32.66157879902448,0.11864846983578342,12.143000000003667
0.4935,0.085,0.757,-0.3721,0.4678,0.4066,-0.3063,0.6562,-2.5988,83.55158528441191,32.74597623521882,0.11564232284756429,12.157999999995809
0.4803,0.0803,0.7535,-0.371,0.4672,0.4076,-0.7788,1.015,-2.5812,83.62876791110696,32.633373165194655,0.11869409056578553,12.173999999999069
0.4875,0.0845,0.7684,-0.371,0.4682,0.4087,-0.3413,1.1463,-2.3363,83.64265280753101,32.573057687202024,0.12333140151256985,12.190000000002328
0.485,0.0877,0.75,-0.3718,0.467,0.4064,-0.385,1.0237,-2.1613,83.60772121025491,32.57367129107626,0.1248182113607766,12.205000000001746
0.4884,0.0819,0.7547,-0.3718,0.467,0.4064,-0.4725,0.8487,-1.9425,83.61509184861673,32.60584077880319,0.12455767022718875,12.221000000005006
0.4901,0.0905,0.758,-0.3725,0.467,0.4116,-0.665,0.7175,-2.345,83.55856701844635,32.6208892364459,0.12178815319939554,12.235999999997148
0.4868,0.0861,0.7419,-0.3724,0.4671,0.4056,-0.0962,1.26,-2.5812,83.50628466662334,32.76226721626913,0.1277533378831524,12.252000000000407
0.4896,0.0876,0.7607,-0.3726,0.4673,0.4082,-0.49,1.12,-2.2662,83.50473406550202,32.74573603465937,0.1311060040981229,12.268000000003667
0.4859,0.0924,0.7503,-0.3726,0.4673,0.4082,-0.35,1.2775,-2.3275,83.43187196660116,32.743582478030206,0.13524165368764138,12.283000000003085
0.4876,0.0907,0.7669,-0.3731,0.467,0.4123,-0.4025,0.98,-2.31,83.4145640292848,32.680502365936924,0.13582948832175223,12.299000000006345
0.482,0.0885,0.7598,-0.3723,0.4662,0.4072,-0.3762,0.8313,-2.6337,83.4076353915603,32.530444355569244,0.13346908948369787,12.313999999998487
0.4847,0.0885,0.7451,-0.3724,0.4664,0.4074,-0.735,0.6475,-2.6163,83.37446364832006,32.63465795782694,0.12944618053722762,12.330000000001746
0.4882,0.084,0.7583,-0.3726,0.4664,0.4037,-0.3762,0.9275,-2.5287,83.41062647781222,32.62931689275434,0.12985756248622582,12.346000000005006
0.4921,0.0927,0.758,-0.3726,0.4664,0.4037,0.0962,1.26,-2.415,83.26592025225085,32.663931696550826,0.13388180623694318,12.361000000004424
0.4839,0.0822,0.7447,-0.3719,0.4666,0.4114,-0.6562,0.9625,-2.3975,83.32110571840089,32.70141210504861,0.13435362561607253,12.377000000007683
0.4895,0.0824,0.7599,-0.3726,0.4669,0.4084,-1.225,0.4462,-2.45,83.52530210681647,32.686559867461234,0.12694196305130967,12.391999999999825
0.4862,0.08,0.7546,-0.3719,0.4663,0.4074,-0.4025,0.42,-2.4762,83.56670862681294,32.6773892709038,0.12029576674741085,12.408000000003085
0.489,0.0855,0.7625,-0.3719,0.4663,0.4074,-0.5337,0.6475,-1.9512,83.56749358001682,32.64884674030452,0.11759019007032925,12.423999999999069
0.4828,0.0817,0.7573,-0.3731,0.4673,0.4125,-0.21,1.19,-2.03,83.6311339173462,32.61729111086622,0.12189617106267293,12.438999999998487
0.4873,0.0817,0.7553,-0.3725,0.4685,0.407,-0.6475,0.7788,-2.2313,83.65458298181787,32.62145710295023,0.12092127395869037,12.455000000001746
0.4862,0.0768,0.764,-0.3713,0.466,0.4069,-0.49,0.665,-2.5375,83.66703329148328,32.544368274969194,0.11780664656247297,12.470000000001164
0.4896,0.091,0.7541,-0.372,0.4676,0.4105,-0.035,1.1725,-2.3363,83.49035261904322,32.58398772056748,0.1229099819096654,12.486000000004424
0.4882,0.0839,0.7435,-0.372,0.4676,0.4105,-0.7,0.9363,-2.6425,83.50169560373583,32.7604307542681,0.12410170371531444,12.502000000000407
0.4762,0.0891,0.7663,-0.3726,0.4674,0.4118,-0.8925,0.4725,-2.1437,83.46472881558789,32.746459109243546,0.11807028334353548,12.516999999999825
0.4871,0.0941,0.7566,-0.3717,0.4676,0.4068,-0.665,0.8838,-2.1788,83.39075767658919,32.74275111728834,0.11898997501177472,12.533000000003085
0.4831,0.0866,0.7465,-0.3724,0.4671,0.4067,-0.7437,0.805,-2.1962,83.3892569756637,32.74244345029175,0.11795847751017553,12.548000000002503
0.4894,0.0952,0.7677,-0.3724,0.4671,0.4067,-0.595,0.7,-1.9775,83.35375077390447,32.678071809894526,0.11624262976121154,12.564000000005763
0.4824,0.0891,0.7543,-0.3728,0.4671,0.4048,-0.49,0.9275,-2.31,83.35188937647412,32.64384891878372,0.11797436678173776,12.580000000001746
0.4851,0.0867,0.7486,-0.372,0.467,0.41,-0.8313,0.7437,-2.1437,83.36202115874381,32.645484576099555,0.11621688010317438,12.595000000001164
0.4862,0.0941,0.7612,-0.3737,0.4677,0.4076,-0.1663,0.9975,-2.4588,83.25712372847289,32.58176755484041,0.11895919209578328,12.611000000004424
0.482,0.0763,0.7555,-0.3726,0.4665,0.4062,-0.42,0.7088,-2.2487,83.3385351131171,32.56696052685264,0.11663207288583363,12.626000000003842
0.4903,0.0913,0.7505,-0.3726,0.4665,0.4062,-0.1138,0.9712,-2.4938,83.26046656632593,32.66704120619039,0.11895414560009944,12.642000000007101
0.4853,0.0805,0.7545,-0.3727,0.4679,0.4058,-0.1225,1.05,-3.1937,83.44219895448651,32.63396498854074,0.12217873103629405,12.658000000003085
0.4879,0.0811,0.7616,-0.3722,0.4678,0.4075,-0.1138,0.7262,-2.1875,83.57851104690656,32.62992716865108,0.1197645579322842,12.673000000002503
0.4878,0.0861,0.749,-0.3721,0.4674,0.4082,-0.14,0.9712,-2.2487,83.54169061496485,32.652908306357936,0.12177338213554519,12.688999999998487
0.4795,0.0778,0.7586,-0.3721,0.4674,0.4082,-0.735,0.4288,-1.89,83.65198201203832,32.549319201642675,0.11538484392457399,12.70400000000518
0.482,0.0813,0.7584,-0.3731,0.4672,0.4039,-0.49,0.8138,-2.31,83.65670008617522,32.51487473861314,0.11556507953450401,12.72000000000844
0.4867,0.0856,0.7503,-0.3723,0.4678,0.4062,-0.0875,0.7262,-2.73,83.60752104093025,32.6192989378867,0.11446585157367319,12.735999999997148
0.4884,0.0822,0.753,-0.3726,0.4672,0.4078,-0.385,0.7875,-2.3975,83.62571118805216,32.65685270659677,0.11365051642105016,12.751000000003842
0.4878,0.092,0.7644,-0.3721,0.4666,0.4027,0.0,1.1725,-2.3888,83.46047773524245,32.60046410170074,0.11916946477470693,12.766999999999825
0.4839,0.0853,0.7588,-0.3721,0.4666,0.4027,-0.7788,1.1375,-2.5113,83.48700419272693,32.53845275133908,0.12260876829664033,12.781999999999243
0.4854,0.0912,0.7576,-0.3716,0.4666,0.407,-0.3325,0.6737,-2.275,83.43380104446088,32.53027538997394,0.1200491714689527,12.798000000002503
0.4846,0.0922,0.7443,-0.3733,0.4682,0.407,-0.1138,0.7788,-2.2138,83.2929853820907,32.54847858584304,0.11925897431924232,12.813999999998487
0.4834,0.0838,0.7658,-0.372,0.4666,0.4067,-0.2975,1.365,-2.38,83.37428766252316,32.468095805186465,0.12576057689554154,12.82900000000518
0.4882,0.0921,0.7629,-0.372,0.4666,0.4067,-0.4288,1.0237,-2.3363,83.35469501643776,32.46205022329262,0.12792579920228703,12.845000000001164
0.4709,0.0894,0.7591,-0.3719,0.468,0.4102,-0.1838,0.8487,-2.87,83.33705802908088,32.11838696117575,0.12659066928161372,12.860000000000582
0.4961,0.0856,0.7507,-0.3714,0.4682,0.4074,-0.9187,0.7788,-2.2225,83.38275334049551,32.190462491824455,0.12514632235573708,12.876000000003842
0.4845,0.0931,0.7548,-0.3722,0.4657,0.4089,-0.5075,1.19,-2.2313,83.38130538138465,32.21188751664768,0.1297676901158619,12.891999999999825
0.4789,0.0769,0.7691,-0.3722,0.4674,0.4063,-0.4638,0.8838,-2.0563,83.42227489968406,32.17258483751293,0.12872222110960016,12.90700000000652
0.4854,0.0868,0.7646,-0.3722,0.4674,0.4063,-0.3237,0.98,-2.17,83.43821486271698,32.17350144986645,0.12996199899509775,12.923000000002503
0.486,0.0811,0.7449,-0.3717,0.4666,0.4114,-0.4112,0.9363,-2.45,83.4698189967078,32.35350758660878,0.12960584909509748,12.93800000000192
0.4797,0.081,0.7622,-0.3719,0.4663,0.4082,-0.3938,1.3388,-2.555,83.51850288923868,32.264208161649975,0.1359239841807484,12.953999999997905
0.4873,0.0884,0.7498,-0.3727,0.4682,0.4082,-0.4462,0.8575,-2.1525,83.50374205581136,32.26671312212687,0.13467958576518918,12.970000000001164
0.4849,0.0842,0.7616,-0.3727,0.4682,0.4082,-0.7875,0.6125,-2.065,83.5443432890409,32.27177431741364,0.12948037719236027,12.985000000007858
0.4948,0.0834,0.7671,-0.3714,0.4671,0.4058,-0.3237,0.4288,-2.3275,83.58390336120587,32.32981018186084,0.12270705947157426,13.001000000003842
0.4907,0.0876,0.7516,-0.3722,0.4672,0.4062,-0.3675,0.5688,-2.3363,83.5548118043703,32.42610315987738,0.11811515352411886,13.01600000000326
0.4928,0.0834,0.7545,-0.3731,0.4675,0.4062,-0.35,0.9625,-1.8463,83.57388068457107,32.560059816928415,0.12016363816822784,13.031999999999243
0.4842,0.0911,0.7603,-0.3722,0.4675,0.4116,-0.175,1.19,-2.0825,83.47163285939534,32.542502588710946,0.1252832743548961,13.048000000002503
0.4845,0.0873,0.7613,-0.3722,0.4675,0.4116,-0.4988,0.5337,-1.9425,83.47147251030513,32.50037412214605,0.11995989691912692,13.06300000000192
0.4842,0.0901,0.7449,-0.3722,0.468,0.4037,-0.9712,0.2625,-2.24,83.35542226705157,32.52604282183199,0.11174390722626537,13.078999999997905
0.4839,0.0913,0.7637,-0.3731,0.4693,0.408,-1.05,0.8662,-2.0387,83.29492013101812,32.48903634059275,0.11226321650885725,13.094000000004598
0.4877,0.0844,0.7605,-0.3725,0.466,0.4072,-1.1463,1.0588,-2.2575,83.43956628469775,32.49117603445875,0.11628361485414428,13.110000000000582
0.4828,0.0874,0.7541,-0.3725,0.466,0.4072,-0.9625,1.2337,-2.6163,83.42381562928159,32.47991021189279,0.12242053337234911,13.126000000003842
0.4814,0.0888,0.7577,-0.3726,0.4683,0.4094,-0.07,1.015,-2.3187,83.39070071735023,32.44829747874369,0.12388098003458248,13.14100000000326
0.4869,0.0868,0.7541,-0.3716,0.4674,0.4078,-0.4375,1.0325,-2.1613,83.39365990756437,32.449308086005786,0.12636088202739204,13.156999999999243
0.486,0.0924,0.772,-0.3727,0.4671,0.4082,-0.6562,0.6562,-2.4062,83.36591010369634,32.36130915970928,0.12258349382860612,13.172000000005937
0.487,0.0834,0.7677,-0.3715,0.4682,0.4069,-0.7437,0.8487,-2.3187,83.44783719127601,32.34408603816405,0.12254642444267773,13.18800000000192
0.4828,0.082,0.7517,-0.3715,0.4682,0.4069,-0.8138,0.8487,-2.135,83.52374680349008,32.34866068418857,0.12251306200089977,13.20400000000518
0.484,0.0872,0.7533,-0.3722,0.4664,0.4047,-0.5863,1.2163,-2.45,83.51487058746872,32.393807646230435,0.12668180579220784,13.218999999997322
0.4828,0.0839,0.7433,-0.3719,0.4678,0.4052,-0.5863,0.7788,-2.4325,83.5180302974391,32.4901531250586,0.1252283452152718,13.235000000000582
0.4819,0.0889,0.7585,-0.3717,0.4682,0.4089,-1.0063,0.9887,-2.31,83.45082804849822,32.45859180663463,0.126052960699701,13.250000000007276
0.4849,0.0858,0.7602,-0.3717,0.4682,0.4089,-0.4025,0.7,-2.5638,83.46156928900085,32.4323666688053,0.12352766462720062,13.26600000000326
0.4829,0.0878,0.758,-0.3721,0.4677,0.4102,-0.7088,0.8838,-2.0387,83.45021483643843,32.42125930240794,0.12390161816707333,13.28200000000652
0.4839,0.0863,0.7547,-0.3726,0.4674,0.4096,-0.2275,0.455,-2.135,83.45603371236562,32.422910030581534,0.11765395634714813,13.296999999998661
0.4818,0.0871,0.7537,-0.3719,0.4667,0.4074,-0.8487,0.6125,-2.0475,83.4438969260341,32.42226524596397,0.1147085607142302,13.31300000000192
0.4873,0.0835,0.7479,-0.3724,0.4675,0.4091,-0.4988,0.5163,-2.6163,83.44613574403874,32.58035285098943,0.11020775464591763,13.328000000008615
0.4803,0.0866,0.7608,-0.3724,0.4675,0.4091,-0.4638,0.875,-2.1175,83.44883941207637,32.56209420703634,0.11178697917243319,13.343999999997322
0.4946,0.0887,0.766,-0.3726,0.4674,0.4084,-0.2362,0.5775,-2.205,83.4371851031771,32.56734086093694,0.10892428125688407,13.360000000000582
0.4862,0.0841,0.7487,-0.3713,0.4674,0.4075,-0.7875,0.315,-2.0038,83.47048965597821,32.602941893499256,0.10228435313103064,13.375
0.4815,0.0855,0.7568,-0.3717,0.4666,0.4086,-0.6125,0.6825,-2.4675,83.47821209299575,32.531491134869746,0.1018839178199298,13.39100000000326
0.4842,0.0853,0.7546,-0.3717,0.4666,0.4086,-0.5688,0.7088,-2.0738,83.48217036486396,32.53074291557705,0.10126432603756551,13.406000000002678
0.4847,0.0923,0.7571,-0.3724,0.468,0.395,-0.9712,0.6388,-2.2925,83.34572374158631,32.51942694279037,0.1003366134314999,13.421999999998661
0.4953,0.0885,0.753,-0.3729,0.4683,0.407,-0.7,0.7875,-2.4062,83.33794489475594,32.64636392178464,0.10164295209066017,13.43800000000192
0.4864,0.0841,0.774,-0.3727,0.4668,0.4074,-0.8313,0.3588,-2.3012,83.44973966961722,32.5642037608129,0.09632245688140618,13.453000000001339
0.4942,0.0933,0.7521,-0.3712,0.4681,0.4059,-0.805,0.3063,-2.485,83.33129986969647,32.698596893651384,0.09110093119416415,13.469000000004598
0.4877,0.0876,0.7591,-0.3712,0.4681,0.4059,-0.2275,0.9625,-2.3187,83.3502729807571,32.677547003917425,0.09498458806794072,13.48399999999674
0.4831,0.0881,0.763,-0.3722,0.467,0.4086,-0.455,0.8925,-2.3275,83.35362606090986,32.60343055238125,0.09833812926376494,13.5
0.4771,0.0886,0.7788,-0.3721,0.4669,0.4063,-0.5075,0.9187,-2.5463,83.35417137100387,32.2459983386801,0.1017335963400836,13.51600000000326
0.4957,0.0877,0.7588,-0.372,0.4674,0.4081,-0.21,0.4988,-2.2487,83.36643216119352,32.30785658348284,0.09829403670581394,13.531000000002678
0.4896,0.0908,0.7388,-0.372,0.4674,0.4081,-0.28,0.6737,-2.4938,83.29642466282327,32.566665951270814,0.09816591303720895,13.547000000005937
0.4936,0.0952,0.763,-0.3721,0.4678,0.4077,0.0613,1.0938,-2.4413,83.14773339769867,32.59577831656449,0.10311562172575245,13.56199999999808
0.478,0.0841,0.7457,-0.3715,0.4675,0.4082,-1.1812,0.5163,-2.2313,83.31531908239361,32.58886141984386,0.10023877955469186,13.578000000001339
0.4748,0.0927,0.7564,-0.3717,0.4672,0.4067,-0.525,1.3737,-2.38,83.31114714863173,32.46774179609287,0.10999618160325265,13.594000000004598
0.5,0.0784,0.764,-0.372,0.4662,0.4093,-0.5425,0.8662,-2.3363,83.3364819999432,32.55866312628052,0.11069026344247362,13.609000000004016
0.4823,0.079,0.7565,-0.372,0.4662,0.4093,-0.3063,0.7613,-2.3712,83.45573820539138,32.526865591103075,0.11058395709547439,13.625
0.487,0.0835,0.7487,-0.3723,0.4682,0.4108,-0.035,0.875,-2.6075,83.51396592505559,32.63680173288081,0.11133806138546856,13.639999999999418
0.4834,0.0801,0.7521,-0.372,0.4674,0.4083,-0.5775,0.7088,-1.715,83.53933170680926,32.62044531891118,0.11041097524900109,13.656000000002678
0.4821,0.0917,0.7385,-0.3737,0.4679,0.409,-0.5775,0.6913,-2.3275,83.50082884777937,32.66652177466036,0.10932459772612903,13.672000000005937
0.4998,0.0857,0.7649,-0.3737,0.4679,0.409,-0.56,0.8575,-2.0387,83.50579673033465,32.70154393999923,0.10996838794745169,13.68699999999808
0.4724,0.0833,0.7359,-0.3732,0.4683,0.4044,-0.2887,0.7088,-2.3625,83.51236461746173,32.672667762457216,0.1091782691547859,13.703000000001339
0.479,0.0913,0.7633,-0.3721,0.4677,0.4064,0.0175,0.6388,-2.6337,83.3971434576691,32.43187994655163,0.10688424223897267,13.718000000000757
0.4751,0.0733,0.7763,-0.3727,0.4674,0.4062,-0.7788,0.9712,-2.1088,83.65248645332821,32.38243006593801,0.11018109801792457,13.734000000004016
0.4948,0.0977,0.7299,-0.3714,0.4696,0.4109,-0.5163,0.9712,-2.52,83.64576584935855,32.78603197612201,0.11314826821262151,13.75
0.4997,0.0918,0.742,-0.3714,0.4696,0.4109,-0.2187,0.6913,-2.5638,83.48776252476358,33.06685611269111,0.11116599139099723,13.764999999999418
0.4791,0.0872,0.7717,-0.3723,0.4673,0.4087,0.0613,1.4787,-2.52,83.5115371733303,32.69498227984403,0.1213426722562355,13.781000000002678
0.4727,0.0939,0.7643,-0.3717,0.4678,0.408,-0.4025,1.1113,-2.5638,83.46106190408719,32.3620984109615,0.12421095503002978,13.796000000002095
0.503,0.0791,0.7536,-0.373,0.467,0.4062,-0.385,0.4725,-2.1175,83.52226900582154,32.40811388197062,0.11859385952841298,13.812000000005355
0.5029,0.0844,0.7548,-0.373,0.467,0.4062,-0.0437,1.1287,-2.59,83.55333714736321,32.74120474215001,0.12298775357149176,13.828000000001339
0.4698,0.0974,0.7503,-0.3725,0.4674,0.4029,-0.2537,1.0675,-2.3975,83.35895901742514,32.56597863926832,0.12510022821378336,13.843000000000757
0.4638,0.0791,0.7566,-0.3718,0.4674,0.4075,-0.84,1.1375,-2.4938,83.52547161540959,32.264556842977335,0.12897020539574208,13.859000000004016
0.4688,0.0801,0.7681,-0.372,0.4671,0.4082,-0.07,1.4438,-2.3187,83.68493565027748,32.12458568280867,0.1355644848554115,13.874000000003434
0.5091,0.0899,0.7391,-0.373,0.4672,0.4143,-0.28,0.5163,-2.3888,83.56858700565864,32.546035352619526,0.129442756371385,13.890000000006694
0.5029,0.0843,0.7264,-0.373,0.4672,0.4143,-0.2275,0.2625,-2.2838,83.52700519124734,32.76796249169179,0.1202784807315787,13.905999999995402
0.4638,0.0881,0.7732,-0.3727,0.4673,0.4063,-0.0787,1.295,-2.2575,83.51874420764268,32.58752904160057,0.12573313266622255,13.921000000002095
0.4621,0.0833,0.7647,-0.3715,0.4678,0.4073,-0.5425,0.91,-2.0475,83.52681815980172,32.43049698988244,0.12626381940226994,13.937000000005355
0.5084,0.0961,0.7508,-0.3727,0.4671,0.407,-0.5337,0.5075,-2.1788,83.50860429495854,32.4617684384624,0.12048868746177709,13.952000000004773
0.5056,0.0919,0.7513,-0.3727,0.4671,0.407,-1.085,0.9538,-2.5287,83.33266601353941,32.80889132499747,0.1221745387121517,13.968000000000757
0.4711,0.0854,0.7723,-0.3717,0.4683,0.4003,-0.805,0.9625,-2.3012,83.41383754904723,32.60955950551981,0.12381708483745739,13.98399999999674
0.4756,0.0939,0.7715,-0.3731,0.4672,0.4069,-0.175,1.225,-2.6337,83.32499985516638,32.239806325634866,0.12797287636109167,13.999000000003434
0.4704,0.0906,0.7634,-0.3728,0.4672,0.4069,-0.28,1.225,-1.9162,83.30751365105135,32.08898554631138,0.13281558872055452,14.014999999999418
0.4984,0.0847,0.7509,-0.3728,0.4689,0.4124,-0.5075,0.7613,-2.0475,83.30841124387956,32.218929054807944,0.12981157984810024,14.029999999998836
0.4996,0.093,0.7598,-0.3719,0.4689,0.4124,-0.4812,0.8662,-2.5725,83.30011178374896,32.48680081531312,0.12930370186583134,14.046000000002095
0.4698,0.0797,0.7573,-0.3726,0.4674,0.406,-0.6825,0.91,-2.1175,83.40142189997866,32.455962193555784,0.12947733167595885,14.06199999999808
0.4746,0.0878,0.7573,-0.3723,0.4679,0.4083,-0.5863,1.0588,-1.9688,83.40039497375625,32.36850881580378,0.1308233985147417,14.077000000004773
0.5007,0.0849,0.7578,-0.3734,0.467,0.4062,-0.385,0.8925,-2.2838,83.42357501414476,32.472266431003604,0.13059305866004142,14.093000000000757
0.4989,0.0809,0.7541,-0.3734,0.467,0.4062,-0.2975,0.4462,-2.415,83.50330170790178,32.64973790638738,0.12355745279380352,14.108000000000175
0.4783,0.0916,0.7616,-0.3733,0.4686,0.4041,-0.56,1.0675,-2.6163,83.48641790237481,32.42776818073921,0.12657370751755487,14.124000000003434
0.4825,0.0831,0.7584,-0.3722,0.467,0.4088,-0.7,1.12,-2.1437,83.5278201255323,32.42623953716277,0.13004433676175092,14.139999999999418
0.4834,0.0841,0.759,-0.3725,0.4679,0.4078,-1.3038,0.5425,-2.0825,83.59388111439077,32.4198882083506,0.12436365308884412,14.155000000006112
0.4876,0.0894,0.7535,-0.3718,0.467,0.4126,-0.0437,0.9363,-2.1175,83.47917025260008,32.431448135025306,0.1254100077765753,14.171000000002095
0.4889,0.0779,0.7609,-0.3718,0.467,0.4126,-0.8575,0.5688,-2.1525,83.65295162504148,32.43212179235174,0.12054780699861979,14.186000000001513
0.4812,0.0931,0.7568,-0.373,0.4684,0.4065,-0.14,1.05,-2.7738,83.47269185092179,32.36458620738254,0.12361302630183817,14.202000000004773
0.486,0.0865,0.7618,-0.3715,0.4674,0.4064,-0.315,0.84,-2.2487,83.48077089065605,32.36505667784723,0.123347723668618,14.218000000000757
0.4871,0.087,0.7562,-0.3714,0.4686,0.4065,-0.665,0.7262,-2.4762,83.47493485396664,32.42579843541172,0.12081665130613117,14.23300000000745
0.4878,0.0895,0.7472,-0.3714,0.4686,0.4065,-0.2975,0.5688,-2.4588,83.42121781656817,32.54770393109685,0.1169257061697373,14.248999999996158
0.4918,0.0809,0.7658,-0.3718,0.4666,0.4171,-0.665,0.8838,-2.2662,83.49439249350984,32.54934482889601,0.11716443555808803,14.264000000002852
0.4928,0.0892,0.7413,-0.3722,0.4676,0.4068,-0.4112,0.5775,-2.345,83.46210775186871,32.68807369475487,0.11376399200019174,14.279999999998836
0.4898,0.0934,0.742,-0.373,0.4684,0.4077,-0.2887,0.7262,-2.6775,83.34633739294293,32.871005832389365,0.11284487280230299,14.296000000002095
0.4801,0.0772,0.778,-0.3731,0.4674,0.4049,-0.4638,1.0588,-2.0475,83.39082231286848,32.741086942452114,0.11585418552151802,14.311000000001513
0.4699,0.0817,0.7568,-0.3731,0.4674,0.4049,-0.2187,1.1287,-2.1088,83.49208750925193,32.69277305943506,0.1205220469652863,14.326999999997497
