AcclX,AcclY,AcclZ,MagX,MagY,MagZ,GyroX,GyroY,GyroZ,Roll,Pitch,Yaw,Time(s)
-0.153,0.9781,0.0578,-0.4139,0.1856,-0.0142,-1.8812,1.0937,-14.21,0,0,0,1.619889748742367
-0.1503,0.9515,0.0619,-0.4128,0.1857,-0.017,-2.3187,1.3475,-14.4112,0,0,0,1.629223519985164
-0.1538,0.9789,0.0564,-0.415,0.1838,-0.0115,-2.3187,1.3475,-14.4112,0,0,0,1.641394618951523
-0.1556,0.9766,0.0612,-0.415,0.1838,-0.0115,-2.7037,1.3562,-14.49,0,0,0,1.653580228387717
-0.1509,0.9795,0.062,-0.4135,0.1821,-0.0132,-3.0275,1.3037,-14.4462,0,0,0,1.6657658378239109
-0.1539,0.9789,0.0584,-0.4135,0.1821,-0.0132,-2.7825,0.84,-14.5425,0,0,0,1.6781149554811707
-0.154,0.9792,0.0642,-0.4123,0.183,-0.0134,-3.045,1.2425,-14.945,0,0,0,1.690038314718642
-0.1546,0.9794,0.0576,-0.4123,0.183,-0.0134,-2.4063,1.3037,-15.155,0,0,0,1.7022083519433058
-0.1501,0.9793,0.0617,-0.4149,0.1838,-0.0174,-2.6338,1.12,-14.5775,0,0,0,1.714391483982211
-0.1533,0.9783,0.0614,-0.411,0.1838,-0.013,-2.5375,1.6275,-14.8312,0,0,0,1.7265831099546778
-0.1555,0.9761,0.057,-0.411,0.1838,-0.013,-2.5288,1.295,-14.6387,0,0,0,1.7387021835779704
-0.1525,0.9787,0.0585,-0.4148,0.1845,-0.014,-2.45,1.3737,-15.0062,0,0,0,1.7508463850880502
-0.155,0.9784,0.0564,-0.4148,0.1845,-0.014,-2.73,1.2337,-14.7875,0,0,0,1.760328092340383
-0.1534,0.9787,0.0619,-0.4134,0.1826,-0.0137,-2.2488,1.0937,-14.8837,0,0,0,1.7724436268246917
-0.1541,0.9769,0.0616,-0.411,0.1835,-0.0141,-2.2925,1.2075,-14.9537,0,0,0,1.7845729639510381
-0.1521,0.9794,0.0584,-0.411,0.1835,-0.0141,-3.2638,1.2425,-14.5338,0,0,0,1.7967907795519875
-0.154,0.9784,0.0605,-0.4142,0.1844,-0.0144,-2.9313,1.0587,-14.1662,0,0,0,1.8089806359549623
-0.1525,0.9777,0.0628,-0.4142,0.1844,-0.0144,-2.3625,1.1725,-14.9012,0,0,0,1.8211166974453787
-0.152,0.9786,0.0571,-0.4134,0.1834,-0.0139,-3.08,1.0062,-14.42,0,0,0,1.8333359287019217
-0.1551,0.9804,0.0578,-0.4142,0.1826,-0.0138,-3.15,0.77,-14.2537,0,0,0,1.8454273970411383
-0.1542,0.9783,0.0562,-0.4142,0.1826,-0.0138,-2.4325,1.155,-14.2975,0,0,0,1.8576434430725954
-0.1529,0.9772,0.0614,-0.414,0.1829,-0.0141,-2.7037,1.1638,-14.3762,0,0,0,1.8697816280464024
-0.1545,0.9783,0.0581,-0.414,0.1829,-0.0141,-2.4237,1.2163,-15.0062,0,0,0,1.8819304304371616
-0.1563,0.9778,0.0595,-0.4129,0.1839,-0.0139,-2.7562,1.68,-14.9625,0,0,0,1.891299946983698
-0.1554,0.9771,0.0578,-0.4135,0.1853,-0.0141,-3.0013,1.0587,-14.4462,0,0,0,1.9034788320558222
-0.1546,0.979,0.0586,-0.4135,0.1853,-0.0141,-1.9512,0.805,-14.4725,0,0,0,1.9156810754452414
-0.1559,0.9766,0.0597,-0.4126,0.1845,-0.0128,-2.31,0.9713,-14.6737,0,0,0,1.9278659770536384
-0.1558,0.9775,0.0549,-0.4126,0.1845,-0.0128,-2.345,1.0587,-14.6475,0,0,0,1.9399337331616615
-0.1515,0.9763,0.0606,-0.4145,0.1835,-0.015,-2.1088,1.1638,-14.5075,0,0,0,1.952111202578192
-0.154,0.9783,0.0564,-0.4127,0.1832,-0.0138,-2.5988,1.505,-14.9625,0,0,0,1.9642978737560812
-0.1549,0.9772,0.0634,-0.4127,0.1832,-0.0138,-2.7125,1.2075,-14.7087,0,0,0,1.97647569708651
-0.1524,0.9776,0.0594,-0.4145,0.1826,-0.0134,-2.7213,1.435,-14.49,0,0,0,1.9888237530020747
-0.1573,0.9772,0.0601,-0.4145,0.1826,-0.0134,-2.38,1.3562,-14.805,0,0,0,2.000767993159552
-0.1529,0.9789,0.0621,-0.4137,0.1826,-0.0157,-2.5463,1.19,-14.6737,0,0,0,2.012883173729962
-0.1536,0.9787,0.0615,-0.4124,0.1842,-0.0138,-2.6075,1.365,-15.015,0,0,0,2.022371251432466
-0.1529,0.9797,0.0617,-0.4124,0.1842,-0.0138,-2.6863,1.2337,-14.9012,0,0,0,2.0345508443323874
-0.1541,0.978,0.0586,-0.4122,0.1833,-0.0143,-2.45,1.2163,-15.0237,0,0,0,2.0467445937882447
-0.1566,0.9793,0.0608,-0.4122,0.1833,-0.0143,-3.045,1.19,-14.7788,0,0,0,2.058853049994585
-0.1521,0.9772,0.0605,-0.4129,0.1829,-0.0143,-2.7738,1.3037,-14.42,0,0,0,2.071005391524328
-0.1559,0.9781,0.0595,-0.4159,0.1836,-0.0143,-2.555,1.1812,-14.875,0,0,0,2.0831853383381476
-0.1523,0.9789,0.0631,-0.4159,0.1836,-0.0143,-3.0363,1.2425,-14.3762,0,0,0,2.0953125519811038
-0.1562,0.9785,0.0535,-0.4127,0.1843,-0.0139,-2.9575,1.3212,-14.4025,0,0,0,2.10746418568305
-0.1536,0.9788,0.0612,-0.4127,0.1843,-0.0139,-2.7913,1.3387,-14.49,0,0,0,2.1196494412053455
-0.1533,0.9764,0.0608,-0.4133,0.1836,-0.0164,-2.7825,1.7937,-14.8925,0,0,0,2.131881059448333
-0.156,0.978,0.0583,-0.4141,0.1841,-0.0146,-3.0625,1.1375,-14.6825,0,0,0,2.141189702804343
-0.1568,0.9787,0.0595,-0.4141,0.1841,-0.0146,-2.1088,1.0237,-14.735,0,0,0,2.153389468796473
-0.1534,0.9788,0.0608,-0.4126,0.1837,-0.015,-2.2575,1.1638,-14.49,0,0,0,2.1655733086631748
-0.1552,0.9788,0.0593,-0.4126,0.1837,-0.015,-2.4237,0.8838,-14.3062,0,0,0,2.177935521134676
-0.1555,0.9784,0.0562,-0.4135,0.1839,-0.0148,-2.5375,1.5662,-14.6562,0,0,0,2.1899229387877597
-0.1541,0.9786,0.062,-0.4133,0.1819,-0.0142,-2.5288,1.2163,-14.6212,0,0,0,2.201987509670697
-0.1555,0.9795,0.0603,-0.4133,0.1819,-0.0142,-2.1613,1.3125,-14.28,0,0,0,2.2141787817292657
-0.1549,0.9791,0.0643,-0.413,0.1815,-0.0142,-2.59,1.2075,-14.9362,0,0,0,2.2263714694434276
-0.1551,0.9797,0.0577,-0.413,0.1815,-0.0142,-2.5638,0.7175,-14.84,0,0,0,2.2385450458070757
-0.1531,0.9762,0.0586,-0.4112,0.1844,-0.0148,-3.2025,0.98,-14.2975,0,0,0,2.2507140212900443
-0.1527,0.9781,0.0601,-0.4139,0.1834,-0.0145,-2.6863,1.4175,-14.8837,0,0,0,2.26281009050994
-0.154,0.9777,0.0603,-0.4139,0.1834,-0.0145,-2.31,0.9625,-14.8925,0,0,0,2.2725579410138783
-0.1528,0.9786,0.0617,-0.4126,0.1842,-0.0166,-2.2838,0.91,-14.735,0,0,0,2.2844473245171018
-0.1572,0.9778,0.0556,-0.4126,0.1842,-0.0166,-2.6513,0.9975,-14.6387,0,0,0,2.296911110277447
-0.1541,0.9794,0.0619,-0.4143,0.1824,-0.015,-3.5175,0.9887,-14.6387,0,0,0,2.30875165366269
-0.1547,0.978,0.0565,-0.4116,0.1826,-0.013,-2.7388,1.2425,-14.6387,0,0,0,2.320904349106332
-0.1566,0.9806,0.0588,-0.4116,0.1826,-0.013,-1.8637,0.9363,-14.2887,0,0,0,2.3336045493508157
-0.1551,0.9779,0.0581,-0.4147,0.1842,-0.0149,-2.7125,1.1375,-14.3937,0,0,0,2.345265658389564
-0.1562,0.9795,0.0611,-0.4147,0.2046,-0.0172,-2.2838,0.7875,-14.8137,0,0,0,2.3574781652820374
-0.155,0.9797,0.0594,-0.4136,0.1847,-0.0172,-2.52,1.0675,-14.6825,0,0,0,2.3695675101378635
-0.152,0.9791,0.059,-0.4138,0.1831,-0.0147,-2.835,1.1025,-14.8137,0,0,0,2.3817258682038798
-0.1543,0.9802,0.0587,-0.4138,0.1831,-0.0147,-2.6863,1.155,-15.3125,0,0,0,2.393889534978372
-0.1543,0.9781,0.0648,-0.4137,0.183,-0.0138,-2.555,0.875,-15.26,0,0,0,2.403288426378477
-0.1554,0.9812,0.0611,-0.4132,0.183,-0.0137,-2.905,1.0412,-14.2187,0,0,0,2.4154612949143277
-0.1522,0.9775,0.0637,-0.4132,0.183,-0.0137,-2.695,1.33,-14.4462,0,0,0,2.4276713244095123
-0.1534,0.9783,0.0634,-0.4134,0.1838,-0.0145,-2.31,1.0675,-14.455,0,0,0,2.439809509383319
-0.1562,0.9763,0.055,-0.4134,0.1838,-0.0145,-2.5113,1.0325,-14.7525,0,0,0,2.4519002698947387
-0.1529,0.9784,0.0644,-0.4118,0.1837,-0.0097,-2.5025,1.645,-15.12,0,0,0,2.4640756158278787
-0.1536,0.9798,0.0551,-0.4142,0.1827,-0.0135,-2.31,1.6975,-14.6825,0,0,0,2.476260517436276
-0.1558,0.9766,0.0616,-0.4142,0.1827,-0.0135,-2.6688,1.1987,-14.4637,0,0,0,2.488440464250095
-0.1545,0.9781,0.0578,-0.413,0.1833,-0.0126,-2.4413,0.8838,-14.3238,0,0,0,2.500557414389997
-0.1542,0.9814,0.0565,-0.413,0.1833,-0.0126,-2.7388,1.26,-14.6912,0,0,0,2.5127345298926294
-0.152,0.9773,0.0595,-0.4144,0.1838,-0.0121,-2.9488,1.3037,-14.4637,0,0,0,2.524856788741008
-0.1554,0.9789,0.0573,-0.4165,0.1835,-0.0118,-2.31,1.4088,-14.6562,0,0,0,2.534341681218426
-0.153,0.9784,0.0611,-0.4165,0.1835,-0.0118,-2.5288,1.7675,-14.3675,0,0,0,2.5465396776410647
-0.1549,0.9752,0.059,-0.4126,0.1843,-0.013,-2.66,1.505,-14.91,0,0,0,2.558644594708421
-0.155,0.972,0.0583,-0.4126,0.1843,-0.013,-2.8525,1.1987,-14.77,0,0,0,2.5708128623635926
-0.153,0.9825,0.0584,-0.4138,0.1846,-0.0158,-2.6075,1.0412,-15.0062,0,0,0,2.5829779447936785
-0.1543,0.984,0.0606,-0.413,0.1824,-0.0132,-2.9138,1.3737,-14.9713,0,0,0,2.595214871745142
-0.1534,0.9731,0.0654,-0.413,0.1824,-0.0132,-2.9488,1.3125,-15.0937,0,0,0,2.6072684712972287
-0.1514,0.98,0.0641,-0.415,0.1832,-0.0139,-2.66,0.8838,-14.5162,0,0,0,2.6194317841578227
-0.1534,0.9834,0.0602,-0.415,0.1832,-0.0139,-2.3712,0.9538,-14.35,0,0,0,2.6316386284279214
-0.1549,0.9776,0.0566,-0.4117,0.1838,-0.0121,-0.0088,1.0675,-15.0062,0,0,0,2.6438713084126038
-0.1553,0.9756,0.0611,-0.4137,0.1838,-0.0162,-3.045,1.1112,-14.4725,0,0,0,2.653244718012023
-0.1563,0.9798,0.0562,-0.4137,0.1838,-0.0162,-3.01,0.9363,-14.9713,0,0,0,2.66533830983463
-0.1545,0.9755,0.0603,-0.413,0.1835,-0.0142,-3.0188,1.2687,-14.2537,0,0,0,2.679976542586813
-0.1552,0.9745,0.0608,-0.413,0.1835,-0.0142,-2.7388,1.1287,-14.8137,0,0,0,2.6896642277280214
-0.1505,0.9783,0.06,-0.4127,0.1841,-0.0164,-2.3625,0.7962,-14.735,0,0,0,2.701577677376337
-0.1525,0.9822,0.0514,-0.413,0.1828,-0.012,-2.6425,0.91,-14.6562,0,0,0,2.7136475569677505
-0.1563,0.9799,0.0591,-0.413,0.1828,-0.012,-2.8087,1.295,-15.05,0,0,0,2.725742564445951
-0.1562,0.9778,0.0597,-0.4124,0.1822,-0.0136,-2.1,0.9713,-15.0062,0,0,0,2.7379879853309763
-0.1538,0.9826,0.0611,-0.4124,0.1822,-0.0136,-2.4325,0.9275,-14.35,0,0,0,2.7502185418322687
-0.1537,0.9772,0.0576,-0.414,0.1834,-0.0119,-2.4763,0.8838,-14.6125,0,0,0,2.7624413122277955
-0.1554,0.9741,0.0583,-0.4132,0.183,-0.014,-3.2375,1.3737,-15.015,0,0,0,2.7746658521928147
-0.1513,0.9792,0.0598,-0.4132,0.183,-0.014,-2.8875,1.0587,-14.875,0,0,0,2.7833976158944145
-0.1563,0.9776,0.0617,-0.4154,0.1823,-0.0137,-2.6075,1.1287,-14.9713,0,0,0,2.795776462319141
-0.1541,0.9753,0.0601,-0.4154,0.1823,-0.0137,-2.52,1.2163,-14.4112,0.23521816087313407,-3.3749349299053795,0.3341594601518777,32.36597705363848
-0.1531,0.9773,0.0574,-0.4146,0.1811,-0.0093,-2.6338,1.26,-14.6562,0.7238647314717714,-5.906601472002787,0.6446198971910464,32.37098210398981
-0.1537,0.9809,0.0585,-0.4113,0.1834,-0.0152,-2.1875,1.1987,-14.9625,1.2805092869668526,-7.505766292240337,0.891664332620336,32.37553945325965
-0.1534,0.9786,0.0563,-0.4113,0.1834,-0.0152,-2.1175,1.0587,-14.8137,1.7809329327872088,-8.202358585775695,0.994308166329777,32.38017607924274
-0.1533,0.9771,0.0585,-0.4125,0.1838,-0.014,-2.6513,1.4262,-14.945,2.058316609914645,-8.574168025814249,1.5539134018466105,32.38484384964888
-0.1557,0.9794,0.0583,-0.4125,0.1838,-0.014,-2.9925,1.1987,-14.4375,2.5333380440998097,-8.745501502968832,1.7055943038632868,32.38957497064284
-0.1538,0.9791,0.0622,-0.412,0.1856,-0.011,-2.7388,1.33,-14.7,2.781176036545218,-8.822894602449468,1.9441945458072774,32.39369983712882
-0.1531,0.9784,0.0568,-0.4129,0.185,-0.0135,-2.2575,1.1287,-14.735,2.8680010431577663,-8.849806379330563,1.976631653539689,32.39543613871443
-0.1409,0.9829,0.0622,-0.4129,0.185,-0.0135,-2.7213,1.2163,-15.0325,3.0293728423150856,-8.459941665131453,2.1139792600154403,32.39715014372443
-0.1531,0.9781,0.06,-0.4127,0.1839,-0.0132,-2.38,1.4175,-15.19,3.0602170729686944,-8.703589762920636,2.3766015932767517,32.39884255998663
-0.1555,0.9767,0.0628,-0.4127,0.1839,-0.0132,-2.7388,1.1462,-14.9537,3.1994131327609336,-8.876752837023597,2.4149989400312344,32.40056753632749
-0.1524,0.9773,0.0581,-0.4126,0.1831,-0.0114,-2.9313,1.1112,-14.8575,3.265438532798428,-8.861990921056579,2.4198191512619465,32.40228189525139
-0.153,0.9814,0.058,-0.4129,0.1833,-0.0143,-2.4675,1.0587,-14.6037,3.2676126615552983,-8.854846623996277,2.4557689347274785,32.4039962541753
-0.1541,0.976,0.059,-0.4129,0.1833,-0.0143,-2.5638,1.575,-14.5338,3.2874321198602954,-8.897518644595664,2.7346812857499656,32.405700349596145
-0.1544,0.9783,0.0592,-0.4134,0.1849,-0.0135,-2.94,1.6538,-14.1837,3.345260690784777,-8.91258821351203,2.9101701231493524,32.407423202453614
-0.1535,0.9795,0.062,-0.4134,0.1849,-0.0135,-2.4237,1.5837,-14.455,3.351961303064889,-8.90332481104099,3.03555451640284,32.409155257072435
-0.1527,0.9789,0.0614,-0.4138,0.1837,-0.0092,-2.5638,1.2512,-14.3937,3.3764703731265295,-8.88327075009527,2.9931481321044897,32.410857936837694
-0.1561,0.9759,0.0566,-0.4141,0.1839,-0.0143,-2.4938,0.5862,-14.5338,3.373994532526356,-8.963019836825461,3.0834933889597815,32.412571941847695
-0.1522,0.9801,0.0593,-0.4141,0.1839,-0.0143,-2.485,0.42,-14.5338,3.377105645153075,-8.899090383248064,3.180333809759019,32.414376548815696
-0.1543,0.9782,0.0584,-0.4142,0.1826,-0.0134,-2.765,0.7962,-14.4725,3.3865970361469837,-8.918723079656305,3.178965346073288,32.416179032300306
-0.1561,0.9789,0.0578,-0.4142,0.1826,-0.0134,-2.7913,1.26,-14.665,3.3846974478390366,-8.97697477751698,3.1760429130905172,32.417985054923896
-0.1526,0.9774,0.0618,-0.4127,0.1841,-0.0155,-2.9838,1.1638,-14.9012,3.4660164778259155,-8.914009981175413,3.1982625254754415,32.41975957921053
-0.1549,0.9791,0.0568,-0.4112,0.1829,-0.015,-2.5113,1.1025,-15.8287,3.4574007065135755,-8.954956316028616,3.1984116435913448,32.42149198774325
-0.1536,0.9772,0.0597,-0.4112,0.1829,-0.015,-2.7825,1.1812,-14.63,3.467069734137932,-8.9376067202876,3.2163525185238035,32.42318900488613
-0.1519,0.9764,0.0575,-0.413,0.1832,-0.0134,-2.3712,1.19,-14.4112,3.4601199390362165,-8.89619988878525,3.212553071743566,32.42481453142154
-0.1567,0.9789,0.0593,-0.413,0.1832,-0.0134,-2.6863,1.085,-14.7788,3.4613721962070017,-8.985917001370659,3.212446390959526,32.426206828697886
-0.153,0.978,0.064,-0.4136,0.1828,-0.012,-2.9838,1.3562,-15.1112,3.559937820124822,-8.921841726341572,3.1965923584659564,32.42749153614912
-0.1532,0.9772,0.0591,-0.411,0.1833,-0.0127,-2.45,0.945,-14.6212,3.5597922567168596,-8.90934741071926,3.1875297341883853,32.428787922759
-0.1528,0.9783,0.0612,-0.411,0.1833,-0.0127,-2.3013,1.225,-14.6562,3.5623362854970586,-8.886788796017916,3.186686088231516,32.43002555966174
-0.1535,0.9795,0.0586,-0.4126,0.1837,-0.0121,-2.8612,1.4962,-14.4375,3.5218439291557555,-8.888374048238083,3.1415002226791815,32.431247624352956
-0.1554,0.9788,0.064,-0.4126,0.1837,-0.0121,-2.7738,1.0675,-14.5862,3.5756399452563747,-8.938310644304327,3.142045468826013,32.43247641340824
-0.1552,0.9758,0.0585,-0.4122,0.1838,-0.0102,-3.0625,0.9187,-14.2537,3.520549636635618,-8.963902453391592,3.086477428535362,32.433717235536065
-0.1547,0.978,0.0581,-0.4118,0.1826,-0.0137,-3.0888,1.19,-14.5862,3.4734046275284283,-8.96789017212267,3.0976222229649113,32.43495133329983
-0.1534,0.9781,0.0608,-0.4118,0.1826,-0.0137,-2.4325,0.8925,-14.665,3.474723360057408,-8.93490803532996,3.1309495841804424,32.43620029544732
-0.1557,0.9789,0.0629,-0.4145,0.1847,-0.0134,-2.6338,1.2163,-14.805,3.5062685220054455,-8.97703063033155,3.147715963432421,32.43743651669447
-0.152,0.9791,0.0572,-0.4145,0.1847,-0.0134,-2.0475,1.225,-14.7525,3.459671235652687,-8.895682899221553,3.148819325381127,32.4386553961606
-0.157,0.9786,0.0545,-0.4135,0.1842,-0.0141,-2.7738,1.3037,-15.085,3.392897560372167,-9.010648200469213,3.1546582832239967,32.43987781476571
-0.1541,0.9794,0.0573,-0.4134,0.1841,-0.0127,-2.9225,1.435,-14.7962,3.378551781463078,-8.968886807594199,3.1336254793606697,32.441254185916634
-0.1546,0.9785,0.0592,-0.4134,0.1841,-0.0127,-2.59,1.1638,-14.8137,3.388921335635299,-8.965541921931374,3.1326916007850727,32.44261640051162
-0.1524,0.9791,0.0618,-0.4143,0.1833,-0.0131,-2.0213,1.12,-14.8575,3.455599655781449,-8.89609582056436,3.1343058772785057,32.443911017552004
-0.1538,0.9779,0.0587,-0.4143,0.1833,-0.0131,-2.1175,1.2512,-15.015,3.450513382688493,-8.910389034005805,3.136010507179089,32.44521731375104
-0.1583,0.9779,0.059,-0.4136,0.1858,-0.0121,-2.8963,1.3387,-14.9537,3.451177919729887,-9.053719474979644,3.1180733090496906,32.446473354176504
-0.1545,0.9777,0.0611,-0.417,0.1852,-0.0138,-2.8,1.6625,-14.6912,3.4836320515695838,-9.010986103520326,3.1797792500002307,32.44772443980739
-0.1532,0.9793,0.059,-0.417,0.1852,-0.0138,-2.7037,1.3912,-14.5862,3.476334901627231,-8.951591224422502,3.1927759447130324,32.448960661054535
-0.1529,0.977,0.0614,-0.4142,0.1846,-0.011,-2.5375,0.8838,-14.4462,3.4861160129456876,-8.922655972223604,3.1495384454086324,32.450188388368126
-0.1545,0.9781,0.0598,-0.4142,0.1642,-0.013,-2.5813,1.2687,-14.7525,3.4875849467403754,-8.940695927777847,3.132316885150282,32.45142390178748
-0.1556,0.9793,0.0586,-0.415,0.1839,-0.013,-2.7738,0.8925,-14.56,3.472081677577701,-8.971469351618156,3.131516876080562,32.45269940747735
-0.1547,0.978,0.0601,-0.4133,0.183,-0.0121,-2.5813,1.225,-14.6387,3.4772897210205143,-8.97167484231897,3.123106609035867,32.453947661797045
-0.1553,0.9792,0.061,-0.4133,0.183,-0.0121,-2.5988,0.9538,-15.1725,3.488706121785777,-8.985042775249694,3.1168660689828442,32.455184590871994
-0.154,0.9792,0.0586,-0.4124,0.1826,-0.0102,-2.3625,1.0675,-14.4987,3.4836414365296506,-8.959294825930705,3.105486628618332,32.456454080025594
-0.1546,0.9778,0.0603,-0.4153,0.1846,-0.013,-2.6513,1.0762,-14.7525,3.4912727357462137,-8.96347820324659,3.1071971666265195,32.4576991491202
-0.1562,0.978,0.0565,-0.4153,0.1846,-0.013,-2.8175,1.3562,-14.5862,3.441433305507956,-9.005495335693203,3.1017405350547533,32.45893041557277
-0.1534,0.9793,0.06,-0.414,0.1841,-0.0134,-2.7388,0.8575,-14.4987,3.455965573164538,-8.956729292354813,3.125762648842694,32.46016168202535
-0.1537,0.9801,0.0615,-0.414,0.1841,-0.0134,-2.5113,0.84,-14.315,3.463913549549864,-8.936060398140235,3.1534543665151467,32.46139967284199
-0.1526,0.9762,0.0614,-0.4138,0.1842,-0.0134,-2.4588,0.805,-14.6387,3.4652870666946867,-8.904866728213207,3.1790717326380458,32.462639787142024
-0.1548,0.9779,0.0594,-0.4143,0.184,-0.0161,-2.7825,1.2862,-14.2975,3.467972329785218,-8.92922937551931,3.2382912567560647,32.463857604866455
-0.1533,0.9797,0.0615,-0.4143,0.184,-0.0161,-2.7037,1.0412,-14.8225,3.4931848107459995,-8.902478668360633,3.2594189983489854,32.465089933060725
-0.1523,0.9787,0.0596,-0.4134,0.1832,-0.0128,-2.3187,0.9975,-14.595,3.49222634989014,-8.870107103424234,3.24777800020943,32.46632827779126
-0.1546,0.978,0.0601,-0.4134,0.1832,-0.0128,-2.6688,0.9625,-14.7437,3.4966107046464066,-8.916587872295903,3.235489956352346,32.467545033774
-0.1552,0.9787,0.0542,-0.4125,0.1849,-0.0127,-2.2313,1.2425,-14.8487,3.4382840824378382,-8.95773591004934,3.2071388018628997,32.468789395040815
-0.1541,0.9784,0.0579,-0.415,0.1822,-0.013,-2.7388,1.26,-14.8575,3.4266823863402154,-8.946239048365502,3.192747021663931,32.47003446413542
-0.1518,0.9766,0.0638,-0.415,0.1822,-0.013,-2.6688,0.9538,-14.735,3.4828330418499185,-8.88389154563159,3.1999174218943938,32.47129439761377
-0.1527,0.9781,0.0625,-0.4135,0.1814,-0.0118,-2.52,0.8925,-14.42,3.4943972091363777,-8.873125477852795,3.1761440895425963,32.47251610839108
-0.1535,0.9791,0.0587,-0.4135,0.1814,-0.0118,-2.8438,1.0062,-14.5338,3.47642244583175,-8.88207757929741,3.158101088640748,32.47374702092976
-0.1562,0.9796,0.0554,-0.4139,0.1843,-0.0119,-2.415,1.1025,-14.8925,3.4686505399706262,-8.967129985530416,3.157887521546079,32.47497616389894
-0.1537,0.9784,0.06,-0.4146,0.1818,-0.0122,-2.45,1.1462,-14.2712,3.4687102502266374,-8.949447039943923,3.1532218745415386,32.47619681293456
-0.1545,0.9776,0.0578,-0.4146,0.1818,-0.0122,-2.59,1.0675,-15.2163,3.4581665747591424,-8.958749578274046,3.148036204225148,32.47743303418171
-0.1553,0.9777,0.06,-0.4146,0.1834,-0.0117,-1.6712,1.2425,-14.9625,3.481602973621258,-8.985639524826931,3.1290359807378523,32.47867845719022
-0.1533,0.9769,0.0576,-0.4146,0.1834,-0.0117,-2.7562,1.3737,-14.2887,3.456372500987155,-8.958840808899154,3.0882823088568867,32.4799079540733
-0.1535,0.9795,0.0589,-0.4154,0.1829,-0.0137,-2.7738,1.2337,-14.385,3.452650392997321,-8.933895852781406,3.103412103664289,32.481139220525876
-0.1546,0.9788,0.0641,-0.4155,0.1816,-0.0167,-2.6863,0.98,-14.7788,3.509166519644739,-8.945162955660733,3.170592100097812,32.48238889050116
-0.1534,0.9776,0.0606,-0.4155,0.1816,-0.0167,-3.22,1.1812,-14.595,3.5257052744338573,-8.925715702950935,3.2053452874037496,32.4836049386561
-0.1548,0.9775,0.0606,-0.4116,0.1829,-0.011,-2.87,1.4875,-15.1025,3.5321690242214245,-8.957394202435966,3.129933148264148,32.48482948074461
-0.1515,0.9778,0.0589,-0.4116,0.1829,-0.011,-2.2662,1.2862,-15.1025,3.519062197201196,-8.863869669271851,3.093353632177242,32.486067825475146
-0.1555,0.9787,0.0608,-0.4163,0.1819,-0.0118,-2.7913,0.42,-14.8575,3.5281927930397954,-8.939164132987488,3.056751208111431,32.48752807421999
-0.1547,0.9787,0.0622,-0.4138,0.1816,-0.0086,-2.3538,0.9187,-14.7262,3.5375618474848967,-8.951276352458832,2.991409237064744,32.48881419732682
-0.154,0.977,0.0578,-0.4138,0.1816,-0.0086,-2.8087,1.4088,-14.5862,3.497352069378134,-8.94729596116588,2.883179589474291,32.49005678902414
-0.1516,0.9781,0.063,-0.4154,0.1837,-0.0121,-2.3187,0.9887,-14.5687,3.5189563048022303,-8.880367001211798,2.9070120916827986,32.49129477984078
-0.1574,0.9772,0.0565,-0.4154,0.1837,-0.0121,-2.1263,1.085,-14.6912,3.4678040443155633,-8.999934573118539,2.9078283786527277,32.49254268024658
-0.1534,0.977,0.0623,-0.4134,0.1821,-0.0089,-2.8963,1.2687,-14.6912,3.5237271990737273,-8.955592267609864,2.87596231928519,32.49377713192423
-0.155,0.9792,0.0623,-0.4161,0.183,-0.0096,-2.8175,0.8312,-14.4462,3.555185221155445,-8.963941349635679,2.8517547538898684,32.495021847104944
-0.1524,0.9788,0.0748,-0.4161,0.183,-0.0096,-2.0475,1.365,-15.1725,3.7884320139044023,-8.883519967591992,2.896399037859389,32.49624780484904
-0.1513,0.9778,0.0605,-0.4159,0.183,-0.0104,-3.3338,1.295,-14.8137,3.6720484744954116,-8.831282048986957,2.8854250624131526,32.497479779129414
-0.1551,0.9785,0.0559,-0.4159,0.183,-0.0104,-2.7562,1.2337,-14.9012,3.5773720001470575,-8.915501474221061,2.8653991802679104,32.498706444701305
-0.152,0.9805,0.0572,-0.4142,0.183,-0.0074,-3.1588,1.1725,-14.7613,3.4782574709607537,-8.857784088331996,2.832177619124204,32.4999324024454
-0.1551,0.9783,0.0556,-0.4172,0.1825,-0.0107,-3.1763,1.2862,-14.6387,3.383293587308029,-8.919826884491934,2.816971697671152,32.50114915842814
-0.1535,0.9772,0.058,-0.4172,0.1825,-0.0107,-3.0625,1.4175,-14.8837,3.388395837716279,-8.915627046049137,2.8116666047437784,32.50238927272817
-0.1529,0.9787,0.0617,-0.4146,0.182,-0.0102,-3.1588,1.05,-14.5075,3.4793117614152362,-8.893577951796702,2.8125805958932184,32.50363646530617
-0.1516,0.978,0.0639,-0.4146,0.182,-0.0102,-2.2488,0.9275,-14.7525,3.5224182248444067,-8.84462868031234,2.8233610793249873,32.50485923782519
-0.1538,0.9784,0.0601,-0.4153,0.1826,-0.0136,-2.1788,1.1462,-14.3937,3.520859549854966,-8.871382361259693,2.8408780098366964,32.50608731905267
-0.1551,0.9789,0.0606,-0.4168,0.1814,-0.0092,-2.1263,1.015,-14.595,3.5261198039453494,-8.9220500842144,2.82598829001306,32.507320001160835
-0.151,0.9784,0.0566,-0.4168,0.1814,-0.0092,-2.975,1.0587,-14.7,3.451872601898203,-8.84515186168303,2.815116251746735,32.50854277367985
-0.1554,0.9785,0.0622,-0.415,0.1813,-0.0096,-2.625,1.0762,-15.295,3.4796733810029887,-8.941441603725435,2.8136252535144366,32.50977191664903
-0.1526,0.9781,0.0584,-0.415,0.1813,-0.0096,-2.8525,0.9887,-14.98,3.461621797248354,-8.893216570885786,2.7986742997463154,32.51100566049889
-0.1557,0.9787,0.0611,-0.4166,0.1824,-0.0066,-2.415,1.2862,-14.665,3.4652129498228748,-8.952718293861489,2.7267018217218597,32.51223940434875
-0.1538,0.9803,0.059,-0.4165,0.1824,-0.0081,-2.2925,1.3912,-14.7525,3.462380845996992,-8.9274130733644,2.6714404778705454,32.51345828381488
-0.1552,0.9782,0.0548,-0.4165,0.1824,-0.0081,-2.1525,1.2337,-15.0587,3.4039189211162735,-8.968567536807347,2.6375982834394334,32.51468778069796
-0.1524,0.9778,0.0584,-0.4157,0.183,-0.0087,-2.835,1.0675,-14.4637,3.4078390911165393,-8.918934981927995,2.6349427048762895,32.515916569753244
-0.1549,0.9784,0.0607,-0.4157,0.183,-0.0087,-3.2288,1.1638,-14.84,3.4701833196823375,-8.949656150475606,2.6334968158208985,32.51714606663632
-0.1537,0.9783,0.0564,-0.4154,0.1817,-0.009,-3.0188,0.735,-14.63,3.408199611906357,-8.933627709713479,2.608233229116647,32.51841130882314
-0.1565,0.9795,0.0626,-0.4148,0.1822,-0.0089,-1.9687,0.8575,-14.665,3.488810043120254,-8.991773676031707,2.622121976352686,32.51966345619572
-0.1568,0.978,0.0584,-0.4148,0.1822,-0.0089,-2.3363,1.6712,-15.1988,3.4815929770287273,-9.050460099558924,2.6067097865554794,32.52089861570118
-0.1538,0.9788,0.0675,-0.4157,0.1809,-0.0089,-2.345,1.2687,-15.4175,3.525065969079799,-8.963264509800606,2.632076033820856,32.52213235955104
-0.1559,0.9772,0.0622,-0.4157,0.1809,-0.0089,-2.275,1.0325,-14.5687,3.542361885752143,-8.999219435436979,2.6337614670384966,32.52336221034802
-0.1534,0.9783,0.0617,-0.4131,0.1818,-0.0134,-2.6863,0.8838,-14.875,3.555121436167693,-8.944974183738331,2.745283518583042,32.52458569069482
-0.1545,0.9805,0.0606,-0.4159,0.1829,-0.0078,-2.94,0.7525,-14.7788,3.5490440978967737,-8.941459806299916,2.678260237094432,32.52580563190265
-0.1532,0.9785,0.0563,-0.4159,0.1829,-0.0078,-2.5725,0.875,-14.735,3.5208026344801313,-8.913748957556505,2.6242527723571154,32.527055655791834
-0.155,0.9783,0.0619,-0.4162,0.1824,-0.0078,-2.6513,1.2512,-14.6212,3.537602137444104,-8.945869067822057,2.610045317491182,32.52827984396644
-0.1526,0.9765,0.0592,-0.4162,0.1824,-0.0078,-2.3187,1.4088,-14.3587,3.5297527244080924,-8.917438521824723,2.5733794703711044,32.529507925193926
-0.1541,0.9784,0.0616,-0.4164,0.1824,-0.0091,-2.2488,1.3562,-14.7087,3.5418773587275085,-8.924945000685295,2.594206417635941,32.53073671424921
-0.1537,0.9787,0.0592,-0.415,0.1811,-0.0082,-2.5288,1.68,-14.1662,3.535905608498692,-8.920758703537054,2.559678900908146,32.532020006044846
-0.1561,0.9787,0.0614,-0.415,0.1811,-0.0082,-2.4413,1.3825,-14.595,3.5362924485565554,-8.975378134604915,2.55781353926671,32.53325091858352
-0.1547,0.9797,0.0578,-0.4161,0.1797,-0.0061,-2.5375,1.12,-14.3062,3.523228880090153,-8.96956067150584,2.5509125952776754,32.53456110783544
-0.1562,0.9774,0.0581,-0.4161,0.1797,-0.0061,-3.045,0.91,-14.8137,3.477880925431084,-9.01694802247462,2.492045992733602,32.53580192996327
-0.1543,0.9775,0.0587,-0.4151,0.1814,-0.0087,-3.2113,1.2512,-14.84,3.459996785879137,-8.98514290535395,2.5003542866922897,32.53703107293245
-0.1528,0.9781,0.0596,-0.415,0.1824,-0.0066,-2.3975,1.2337,-14.7087,3.461306627118452,-8.927172888142914,2.478325672669369,32.5382680020074
-0.1553,0.9777,0.0594,-0.415,0.1824,-0.0066,-2.3538,1.1112,-14.63,3.46264052358644,-8.964221069309028,2.4766877738675315,32.539512009360315
-0.1543,0.9775,0.0601,-0.4157,0.1804,-0.008,-2.835,0.8838,-14.525,3.4781578850117514,-8.959776885344871,2.47868211039611,32.54074292189899
-0.156,0.9778,0.06,-0.4157,0.1804,-0.008,-2.7388,0.9187,-14.3937,3.4856351809994015,-8.992372754466787,2.4794988724429747,32.54195861614003
-0.1533,0.9776,0.0609,-0.418,0.1803,-0.0076,-3.0538,0.7788,-14.6475,3.5154310148467167,-8.947980778082025,2.4703457171119556,32.54318669736752
-0.1563,0.9777,0.0578,-0.4166,0.1806,-0.0062,-2.8788,1.0062,-14.4812,3.4756797097920518,-8.995971480183128,2.446274835663843,32.544411593369915
-0.153,0.9767,0.0583,-0.4166,0.1806,-0.0062,-2.5988,1.225,-14.4375,3.467880140548593,-8.954016797523337,2.4202302274293768,32.54564215199469
-0.1568,0.9794,0.0623,-0.415,0.1827,-0.0066,-2.7125,1.3737,-14.3587,3.5037641117129126,-8.997989414382156,2.410494534184584,32.546877665414044
-0.1507,0.9775,0.0571,-0.415,0.1827,-0.0066,-2.9575,0.8663,-14.7262,3.449570839549402,-8.87900182131746,2.3809044061572204,32.5481577719846
-0.1554,0.9766,0.0582,-0.415,0.1822,-0.0049,-1.9512,1.3825,-14.3937,3.4365872037016763,-8.933183780113488,2.3094790981524853,32.549469022978215
-0.1543,0.9798,0.0592,-0.4169,0.1817,-0.0057,-2.8875,1.1025,-14.2362,3.443008307064214,-8.933271187049138,2.3093535984646913,32.550729664284354
-0.1558,0.9786,0.0613,-0.4169,0.1817,-0.0057,-2.3363,1.12,-14.6212,3.4572704487343486,-8.976035960971423,2.3077082682029184,32.55200092300745
-0.1529,0.9791,0.062,-0.4166,0.1786,-0.004,-2.415,1.0675,-15.0237,3.4626572948050476,-8.911459553746148,2.2973298456903946,32.55322794249324
-0.1573,0.9765,0.0563,-0.4166,0.1811,-0.0018,-2.8263,1.2775,-14.6037,3.417983790460098,-9.011014396813598,2.1916750819784223,32.5544623941709
-0.1525,0.9793,0.0597,-0.4159,0.1811,-0.0018,-2.7913,1.1812,-14.4637,3.4359956060391634,-8.941278428369563,2.15346620670736,32.555709940662794
-0.1557,0.9793,0.0611,-0.415,0.1826,-0.007,-2.8175,1.1025,-14.8662,3.4721515117808153,-8.980051728818665,2.1536816234137306,32.556934482751295
-0.1521,0.9789,0.0587,-0.415,0.1826,-0.007,-3.2462,1.0937,-14.735,3.454178834759515,-8.901249502304871,2.155166400373151,32.55814805350895
-0.1543,0.9774,0.0622,-0.4169,0.1806,-0.0076,-2.7738,1.3387,-15.0325,3.5001034623563623,-8.929912833414724,2.2175804285701255,32.55937613473643
-0.154,0.9784,0.0642,-0.4153,0.1823,-0.0022,-2.8788,1.1987,-14.6212,3.5765483635058115,-8.928189712874085,2.184695323752456,32.56061094032799
-0.1559,0.9776,0.0576,-0.4153,0.1823,-0.0022,-2.485,0.8925,-14.7262,3.5693489143304964,-8.98430432809802,2.0985558265198474,32.56182734239683
-0.152,0.9777,0.0633,-0.4173,0.1812,-0.0071,-2.4763,1.3825,-14.5162,3.572997671784815,-8.915590398609623,2.174635345953279,32.56308692196128
-0.1545,0.9799,0.0567,-0.4173,0.1812,-0.0071,-2.7738,1.4437,-14.3325,3.508844496236243,-8.92582143819054,2.2023372579594964,32.56432491277792
-0.1541,0.9777,0.0625,-0.4153,0.1822,-0.0011,-2.6863,1.3737,-14.6825,3.5374366973066294,-8.931985444362095,2.086710765291744,32.56563439420204
-0.1532,0.9785,0.0584,-0.4143,0.1796,-0.0058,-2.0125,1.4787,-14.875,3.5004256472830244,-8.906579427433524,2.1070986094703894,32.566873446760376
-0.1537,0.9781,0.0601,-0.4143,0.1796,-0.0058,-2.2575,1.0237,-15.0762,3.5029486574251387,-8.910711427303717,2.113959921597037,32.568128425444144
-0.154,0.9769,0.0569,-0.4138,0.1795,-0.0074,-2.5463,0.945,-15.3212,3.4878525869876364,-8.930493179339173,2.1443109094829422,32.56935155187705
-0.1523,0.976,0.0598,-0.4138,0.1795,-0.0074,-2.45,1.5925,-14.63,3.4878795104887885,-8.895448361687857,2.23169783562127,32.57057821744895
-0.1548,0.9784,0.0583,-0.4188,0.1821,-0.0102,-2.3013,1.4875,-14.3413,3.4778922079519186,-8.923149975952349,2.3682994774039416,32.57181727000728
-0.1529,0.9788,0.0619,-0.4194,0.1799,-0.0054,-2.4675,1.3737,-14.7,3.4805122685762493,-8.893879156712147,2.3257600417013524,32.573047828632056
-0.1543,0.9779,0.0605,-0.4194,0.1799,-0.0054,-2.6775,1.3212,-15.015,3.491636762232078,-8.924458530431792,2.2917419407250286,32.57427272463446
-0.1533,0.9767,0.0582,-0.4141,0.1822,-0.0067,-2.4413,1.435,-14.9187,3.4910519537617377,-8.914037145761956,2.292699184720816,32.5755100076233
-0.1574,0.9791,0.0569,-0.4141,0.1822,-0.0067,-0.0613,1.26,-14.2187,3.3747137298900522,-8.97338926985514,2.2880202044394022,32.576743043645365
-0.1552,0.9783,0.0624,-0.419,0.1824,-0.0078,-1.9862,1.2687,-14.3062,3.4616265824389028,-8.981064498662755,2.3199694734311795,32.57796333876709
-0.1531,0.9776,0.0599,-0.4142,0.1827,-0.0076,-2.975,1.3037,-14.6212,3.477024697471912,-8.937635354153876,2.3428789334342555,32.579216547881366
-0.1543,0.977,0.0575,-0.4142,0.1827,-0.0076,-2.8263,1.2862,-14.5075,3.4471803353139507,-8.946634430600783,2.351473801453237,32.58046621785665
-0.1534,0.9773,0.0603,-0.4157,0.1806,-0.0071,-2.7913,0.9538,-14.3675,3.4685027258961916,-8.931278886374251,2.354850141563676,32.58168792863397
-0.1568,0.9781,0.0542,-0.4157,0.1806,-0.0071,-2.3275,1.0412,-14.8575,3.436461727845956,-9.014598000876573,2.347662224523925,32.5829064541862
-0.1555,0.9786,0.0576,-0.4156,0.1818,-0.0082,-2.4413,1.2512,-14.805,3.435974235787312,-9.014048252254346,2.362541007837865,32.584129580619106
-0.1525,0.9777,0.0562,-0.4182,0.1797,-0.0097,-2.9663,1.1112,-14.5862,3.386124369849842,-8.942685050449027,2.3647733915435722,32.58536934100524
-0.155,0.9788,0.0604,-0.4182,0.1797,-0.0097,-2.2838,1.1462,-14.7962,3.4066342685803206,-8.962070772137183,2.3788227969260416,32.58660485442459
-0.1561,0.9771,0.0592,-0.4149,0.1803,-0.0079,-2.485,0.8225,-14.665,3.408764387188902,-9.007494959063672,2.395761539024447,32.58783859827446
-0.1534,0.9782,0.0609,-0.4149,0.1803,-0.0079,-2.5988,1.1725,-15.4525,3.4288456188095093,-8.937845260564055,2.4024826394800933,32.58907411169381
-0.1524,0.9766,0.0595,-0.4153,0.1802,-0.0094,-2.415,1.3912,-14.6212,3.4307150366369528,-8.899953346555234,2.4601471817406777,32.5903007772657
-0.1558,0.979,0.0623,-0.4146,0.1815,-0.0081,-2.3275,1.19,-14.7087,3.4534375754062827,-8.958948233137793,2.4686403267936754,32.59152001064573
-0.1546,0.978,0.0603,-0.4146,0.1815,-0.0081,-2.3538,1.1287,-15.155,3.459905712960837,-8.96305739590028,2.469963824369593,32.59275693972067
-0.1537,0.9794,0.0606,-0.416,0.1822,-0.0076,-1.8725,1.3475,-14.9713,3.4894137622449,-8.930263576863277,2.4673539253379366,32.5939772348424
-0.1535,0.978,0.0584,-0.416,0.1822,-0.0076,-2.2575,1.2862,-14.7,3.477845176400826,-8.91804749675302,2.4577635357936254,32.59521381000344
-0.154,0.9783,0.0581,-0.4133,0.1807,-0.0111,-2.4763,1.2163,-14.77,3.4757073361953683,-8.924095825427054,2.4991744405357994,32.596468434773314
-0.1524,0.9779,0.0605,-0.4163,0.1793,-0.009,-2.695,1.3562,-14.595,3.4884640444315793,-8.887619656059417,2.5230681944711706,32.5977404013242
-0.1526,0.9777,0.0618,-0.4163,0.1793,-0.009,-2.7125,1.3387,-14.595,3.5152724761658334,-8.87271403188972,2.5469881567694044,32.598991486955086
-0.1518,0.9776,0.0581,-0.4161,0.1803,-0.0076,-3.1063,0.9887,-14.6037,3.4699947081484894,-8.845349991378455,2.5307075467358224,32.60035901025854
-0.1548,0.9791,0.0603,-0.4161,0.1803,-0.0076,-2.94,1.2075,-14.84,3.487867655419608,-8.90747946235749,2.5215555622214816,32.601729364873194
-0.154,0.9795,0.0608,-0.4158,0.1815,-0.0037,-2.4237,0.98,-14.1312,3.489419704955774,-8.910100315987005,2.4595368238342146,32.60306857506478
-0.1529,0.9791,0.0585,-0.4174,0.1801,-0.0074,-2.5025,0.91,-14.6475,3.4858282295765832,-8.887355149368522,2.443383326438339,32.604450962751976
-0.1559,0.9783,0.0653,-0.4174,0.1801,-0.0074,-2.3712,0.9975,-15.0587,3.509723502752846,-8.969225852879186,2.45057897882119,32.605725052786255
-0.1563,0.9777,0.0547,-0.4138,0.1815,-0.0073,-2.73,0.9187,-14.3675,3.4421820338490554,-9.00498132596686,2.424672480221431,32.60695596532493
-0.1547,0.9776,0.0597,-0.4138,0.1815,-0.0073,-2.6338,1.0587,-14.6037,3.4503747352829874,-8.992016267657807,2.423856199280403,32.60819041700259
-0.1546,0.9782,0.0608,-0.416,0.1813,-0.0066,-2.8438,1.1638,-14.63,3.480479823659998,-8.97938354435832,2.4181324815995016,32.60942522259415
-0.1562,0.9785,0.0579,-0.4166,0.1804,-0.0087,-3.395,1.3212,-14.5338,3.434718341108671,-9.010848270746616,2.4362568544055767,32.61069152652266
-0.1534,0.979,0.0572,-0.4166,0.1804,-0.0087,-2.5638,1.155,-15.1025,3.425322920106292,-8.942860902961518,2.4396526117197213,32.61210647428851
-0.1536,0.9786,0.0638,-0.4154,0.1817,-0.009,-2.45,1.1462,-14.8925,3.4257712399554654,-8.921443512596548,2.4514828464359057,32.613360745144476
-0.1551,0.9776,0.0601,-0.4154,0.1817,-0.009,-2.2313,1.45258077,-0.0805,3.442221532478232,-8.993125772397939,2.4974214307448035,32.61499087256056
-0.6048,0.8215,-0.0007,0.0922,0.4077,-0.0805,-3.4038,0.63,-15.54,1.7366288337847462,-26.34667434476071,9.89207843964875,32.61710338462017
-0.6093,0.8142,-0.0046,0.0922,0.4077,-0.0805,-3.0625,1.4,-15.785,0.9528566075299291,-33.295381265299355,13.274247623491753,32.618345622403595
-0.6126,0.8088,-0.0021,0.0895,0.4086,-0.0718,-2.5288,1.2425,-16.2663,0.8709972581246033,-36.029186451487156,14.346357440714941,32.61957688885617
-0.6105,0.8093,0.0002,0.0897,0.4062,-0.0798,-2.485,0.7788,-16.4325,0.8408455326997188,-36.753420605961246,16.894956045140635,32.62083788407621
-0.6109,0.809,-0.0007,0.0897,0.4062,-0.0798,-1.855,1.1638,-17.4212,0.5091980244165575,-36.991621175263965,17.348144111098435,32.62206808878709
-0.6144,0.8147,-0.0051,0.09,0.4078,-0.0786,-1.8725,1.54,-17.7537,0.19199994686518768,-37.015031615573115,19.256802252489944,32.62329970915356
-0.6132,0.8157,-0.0005,0.09,0.4078,-0.0786,-1.8112,1.2775,-17.6138,0.10359361952024078,-36.950778008839286,20.01842040755845,32.624526728639346
-0.6179,0.8156,-0.0057,0.0891,0.4086,-0.0828,-2.52,1.6187,-18.06,0.06997336340920168,-37.10961239773473,21.518997536804303,32.62575976466141
-0.6235,0.8153,-0.0025,0.0901,0.4065,-0.081,-2.3975,1.785,-17.5263,0.05804655441106316,-37.3438189067978,22.703457447910644,32.62698536849161
-0.629,0.8111,-0.0091,0.0901,0.4065,-0.081,-2.4063,1.6275,-17.8762,0.029651235214480338,-37.70316505056341,22.870426929748028,32.62822194365266
-0.63,0.8122,-0.0065,0.0898,0.4102,-0.0802,-1.9162,1.3737,-17.6575,-0.1399403672230006,-37.77908898154638,22.907004538190716,32.62946701274727
-0.6295,0.8106,-0.0073,0.0898,0.4102,-0.0802,-2.6425,1.225,-17.7362,-0.2010307089194812,-37.82067607642517,22.9063505401621,32.63068836961069
-0.635,0.8117,-0.0109,0.0899,0.4099,-0.0757,-2.0388,1.4962,-16.6425,-0.36621043197600617,-37.97828794141432,22.38197588389308,32.631910080388
-0.6325,0.8199,-0.0069,0.09,0.4104,-0.0805,-2.3187,1.4088,-16.4237,-0.3795352510003327,-37.73852308014957,22.57264974578544,32.633143470323965
-0.6363,0.8203,-0.006,0.09,0.4104,-0.0805,-2.6688,1.155,-16.5025,-0.38667291173954094,-37.78314357480717,22.604655236573205,32.63437438286264
-0.6371,0.8149,-0.0074,0.0902,0.4114,-0.0807,-2.52,0.9975,-16.31,-0.3955852987944926,-37.950694238708465,22.62646064357408,32.635672185128115
-0.64,0.8095,-0.0109,0.0902,0.4114,-0.0807,-2.6163,1.3387,-16.5637,-0.44958502872387357,-38.22739582271166,22.526736413630193,32.636960785632226
-0.6357,0.8076,-0.0024,0.0925,0.4102,-0.0787,-2.1175,0.7088,-16.6338,-0.38011907784849247,-38.21294077223865,22.703731755563624,32.63820373124344
-0.6326,0.8122,-0.0084,0.091,0.4107,-0.0796,-2.5638,0.7088,-16.4062,-0.4020754109231216,-37.99601202745996,22.673116946745612,32.63942614984856
-0.6285,0.8133,-0.0035,0.091,0.4107,-0.0796,-2.87,0.9275,-16.0912,-0.35596686526311727,-37.7872064653308,22.79000509974475,32.64064502931468
-0.6289,0.8117,0.0025,0.0925,0.4098,-0.0814,-3.3425,1.4787,-16.0912,-0.10465266702628695,-37.773963316145334,23.380105362697574,32.641879480992344
-0.6312,0.8067,-0.0006,0.0925,0.4098,-0.0814,-3.2813,1.4088,-15.9425,-0.07646403967039653,-37.95602776477949,23.59312621483969,32.6431585258212
-0.6335,0.8008,-0.0025,0.091,0.4117,-0.0837,-2.9575,2.1175,-15.9425,-0.11100527884920276,-38.222179007191635,23.84974211023895,32.644413858418865
-0.6353,0.7999,-0.0035,0.0906,0.4096,-0.0809,-2.7913,1.8112,-15.3475,-0.1466651841909146,-38.36467860113779,23.60610250783882,32.6456546805467
-0.6377,0.8084,-0.0089,0.0906,0.4096,-0.0809,-1.1375,1.6538,-14.9888,-0.4212920998699026,-38.31132681586046,23.265219405608374,32.649205498689454
-0.6365,0.8164,-0.0091,0.0922,0.4113,-0.0782,-1.0062,1.9775,-14.9713,-0.5496365099473266,-38.111451220131535,22.75185744655455,32.661476755289065
-0.6383,0.8203,-0.0046,0.0922,0.4113,-0.075,-1.4875,1.9425,-14.5075,-0.43773448030887907,-38.01904983810973,22.400823119516513,32.67372217617409
-0.6428,0.8216,-0.0096,0.0906,0.4112,-0.075,-2.24,1.4262,-14.7525,-0.47771497223916193,-38.027709696355444,22.06577515277291,32.68600440410455
-0.6457,0.8154,-0.0124,0.0924,0.4115,-0.0803,-3.1325,1.2337,-14.175,-0.6375534551253247,-38.1202532296643,22.051895503317617,32.69868655474021
-0.6436,0.8139,-0.0064,0.0924,0.4115,-0.0803,-3.4825,0.9187,-14.0963,-0.5424792374853066,-38.168353777384254,22.170742679516962,32.71098966359068
-0.6422,0.8144,-0.0115,0.088,0.4117,-0.0842,-4.095,0.21,-13.7462,-0.7082982596236268,-38.17332887743115,22.464179233227505,32.723173149543484
-0.6369,0.8124,-0.0038,0.088,0.412,-0.0762,-4.0513,-0.07,-13.9125,-0.43716443755607165,-38.16588109847088,22.13688987727944,32.73547307316887
-0.6304,0.8083,-0.0042,0.0884,0.412,-0.0762,-3.1588,0.1575,-13.545,-0.3792498580012279,-38.12116836625398,22.03860507829277,32.7475376440518
-0.6247,0.8112,-0.0044,0.0917,0.4095,-0.0798,-3.465,-0.0963,-13.2912,-0.34473166578976505,-37.94353337920355,22.89680309470573,32.75979722149277
-0.6204,0.8122,-0.0002,0.0917,0.4095,-0.0798,-3.9725,0.3237,-13.615,-0.14510181928233462,-37.85181574263676,23.55351306470594,32.771889751573674
-0.6233,0.8103,-0.0033,0.0905,0.4107,-0.0817,-3.1763,1.1112,-13.4925,-0.182269334203805,-37.78389499359511,23.558732975108466,32.781287581232085
-0.6274,0.812,-0.0085,0.0902,0.4118,-0.0778,-3.1238,1.225,-13.055,-0.35054809910630846,-37.74372288189118,23.39966163390199,32.7934682358737
-0.624,0.8091,-0.0015,0.0902,0.4118,-0.0778,-2.9313,1.75,-12.74,-0.2709982075700967,-37.690353932367074,23.302552463329427,32.80562411654243
-0.6274,0.8084,-0.001,0.0901,0.4075,-0.0798,-2.205,2.1438,-12.25,-0.2318070329637178,-37.76628667376181,23.620484490823006,32.817805479011845
-0.631,0.8091,-0.0059,0.0901,0.4075,-0.0798,-2.345,1.9862,-12.1012,-0.24925556513601552,-37.881588445220835,23.38792448811882,32.82994260224395
-0.6304,0.8118,-0.0045,0.089,0.4106,-0.0809,-2.1525,1.7587,-11.8825,-0.26486638848053834,-37.848004544925466,23.38712513209711,32.84212679602455
-0.6328,0.8174,-0.0065,0.0898,0.411,-0.0799,-1.68,1.3387,-12.0137,-0.34775501401160736,-37.78174383999057,23.303403067794346,32.85428232277938
-0.6304,0.8167,-0.004,0.0898,0.411,-0.0799,-2.0125,1.085,-12.39,-0.327370126262117,-37.712563490784326,23.304419241443927,32.86646050002371
-0.6282,0.8159,-0.0115,0.091,0.4074,-0.0794,-2.625,0.9538,-12.1625,-0.3993938609503423,-37.6373545724987,23.211579382903874,32.87865814253245
-0.6285,0.8187,-0.006,0.091,0.4074,-0.0794,-2.2225,0.9625,-11.9962,-0.4031735045939926,-37.556596714422895,23.239466808802582,32.890847291107626
-0.6265,0.8176,-0.0077,0.0876,0.4093,-0.0814,-3.0538,0.455,-11.9263,-0.45460775907180756,-37.49387842895806,23.271740130611626,32.9001414239938
-0.6276,0.8156,-0.0098,0.0884,0.4081,-0.0814,-2.8087,-0.1925,-12.5738,-0.5165198892057556,-37.53928315917925,23.171445225191828,32.91232314037711
-0.6212,0.8146,-0.0103,0.0884,0.4081,-0.0814,-2.7125,0.2538,-12.1975,-0.5599392044887623,-37.407923106603974,23.19015884547303,32.924559005586886
-0.6147,0.816,-0.0065,0.0905,0.4062,-0.0799,-3.01,0.63,-12.5037,-0.5227052768020222,-37.171527699026164,23.437609081202773,32.93670639232205
-0.6149,0.817,-0.0068,0.0905,0.4062,-0.0799,-2.7125,0.4987,-12.7837,-0.5131327365358124,-37.06723016968296,23.626648052262276,32.948999945497256
-0.6136,0.8125,-0.003,0.09,0.409,-0.0804,-3.1412,0.6913,-13.2475,-0.3897206195453406,-37.064605220897086,23.818260283620365,32.961019923228996
-0.612,0.8118,-0.008,0.0902,0.4076,-0.0793,-3.0363,0.7962,-13.1512,-0.45446285953109483,-37.043206163312036,23.72516408469892,32.97320659440688
-0.6129,0.8149,-0.0052,0.0902,0.4076,-0.0793,-2.905,1.3037,-12.705,-0.426614889786606,-36.99270357969863,23.75183351461514,32.98538194034003
-0.6145,0.8162,-0.0095,0.0876,0.4069,-0.0809,-2.8087,1.715,-12.6962,-0.4902297686912451,-36.982578889142474,23.649746910091256,32.9975710889152
-0.6174,0.8196,-0.0072,0.0876,0.4069,-0.0809,-2.3975,2.1613,-12.8887,-0.49086517225210996,-36.98586531218065,23.729965783489444,33.009735463517494
-0.6166,0.8179,-0.0049,0.0887,0.4078,-0.0808,-2.6163,2.1175,-12.95,-0.46965773384621756,-36.997689535390734,23.930077235253417,33.0219178877286
-0.619,0.8206,-0.0068,0.089,0.407,-0.0802,-2.7562,1.8025,-13.0462,-0.47086231732457534,-37.010466596395794,23.864124199820314,33.03410915978717
-0.6163,0.8209,-0.007,0.089,0.407,-0.0802,-2.8087,1.855,-13.055,-0.47554924408050675,-36.96167584928973,23.856615514249263,33.043407893554026
-0.6185,0.8204,-0.0049,0.0886,0.4057,-0.081,-4.1038,1.96,-13.1512,-0.3924244163392234,-36.98167660019031,24.0763263251808,33.05554466287224
-0.623,0.8211,-0.0033,0.0886,0.4057,-0.081,-4.0862,1.5225,-12.8975,-0.2917465852929143,-37.08031826940031,24.177075987023734,33.067727440997245
-0.6184,0.8169,-0.0016,0.0898,0.4058,-0.0768,-3.885,1.2687,-12.53,-0.1859034192098466,-37.1059205761876,24.103971175548086,33.079940655717515
-0.6212,0.816,-0.0066,0.0889,0.4049,-0.0786,-3.5175,1.2337,-12.53,-0.3292831521523399,-37.20365996521746,24.01021194861916,33.092068577188265
-0.6193,0.8165,0.0005,0.0889,0.4049,-0.0786,-3.6138,1.4262,-13.1425,-0.13319250971525248,-37.19406666419457,24.105470149706772,33.10414093417697
-0.6146,0.8174,-0.001,0.0886,0.4042,-0.0796,-3.4388,0.9013,-12.8362,-0.10179800172629079,-37.068585825235125,24.201166998630804,33.11634707061927
-0.6127,0.8169,-0.0002,0.0886,0.4042,-0.0796,-3.2725,1.26,-12.915,-0.062148055204051075,-36.97543398910673,24.289938628558524,33.12854860618089
-0.6119,0.815,-0.0024,0.0898,0.4056,-0.0746,-3.2113,1.0062,-13.3437,-0.10826443211870075,-36.95123330640285,24.188940248038257,33.140731030392
-0.6117,0.816,-0.0035,0.0857,0.4049,-0.0806,-3.0713,0.6038,-12.8537,-0.16102832753289814,-36.90483037725846,24.232649869764888,33.152911685033615
-0.6107,0.8154,-0.0026,0.0857,0.4049,-0.0806,-2.835,1.2512,-12.6875,-0.16706747786842122,-36.8661029358344,24.26332525019233,33.162147068212654
-0.6132,0.8199,-0.0018,0.0882,0.4048,-0.0804,-3.2113,1.1112,-12.4425,-0.14920464396369643,-36.82368684711139,24.268612864167167,33.17471348900354
-0.612,0.8212,-0.0007,0.0882,0.4048,-0.0804,-3.1937,1.0675,-13.4663,-0.10634966027657014,-36.791062479134915,24.294713073082338,33.18654093757454
-0.6137,0.8203,-0.003,0.0893,0.4046,-0.0808,-3.2462,0.9975,-13.1337,-0.1521383175906189,-36.79525555336051,24.349800811768464,33.198735748772094
-0.6205,0.814,-0.0032,0.0905,0.4046,-0.0807,-2.7562,1.1638,-13.1425,-0.16933794297739238,-37.00377693881887,24.359252641450386,33.21085588413708
-0.6149,0.8185,-0.0035,0.0905,0.4046,-0.0807,-2.4588,0.7263,-12.8537,-0.17010733423507043,-36.96070980673346,24.480883750975135,33.223043970970565
-0.6137,0.824,-0.0044,0.0862,0.4036,-0.0798,-2.7738,0.595,-12.88,-0.2034472307830335,-36.82454095825402,24.410343104043392,33.23523064214845
-0.6106,0.8309,-0.0035,0.0862,0.4036,-0.0798,-1.8288,0.0088,-12.8362,-0.2179475941979786,-36.57138595487997,24.566111746036867,33.24741660549854
-0.6073,0.832,-0.0053,0.0877,0.4034,-0.0804,-2.2925,0.5075,-13.0987,-0.23779233478844541,-36.38677967840772,24.70890586364572,33.25954912784998
-0.6107,0.8294,-0.0043,0.0865,0.4037,-0.0807,-2.8263,0.315,-13.1775,-0.25403905660036463,-36.378140997900395,24.75849844892734,33.27175880343126
-0.6016,0.8254,-0.0045,0.0865,0.4037,-0.0807,-3.6312,0.6563,-12.845,-0.2856443094148699,-36.235065275588724,24.84119211321579,33.283870090948795
-0.6013,0.8236,0.0032,0.0879,0.403,-0.0794,-3.395,0.7613,-12.6787,-0.03850317260483828,-36.18069118673933,25.119886208564772,33.29323429878685
-0.5952,0.8197,0.0022,0.0879,0.403,-0.0794,-2.59,0.7875,-12.9412,-0.014672253931777037,-36.08942474559138,25.3132251563938,33.305402920355924
-0.5973,0.8117,0.0046,0.0895,0.4022,-0.0738,-2.9663,0.6737,-12.9762,0.10110066347456445,-36.20656395524492,25.10460154464862,33.31738856843951
-0.603,0.812,-0.0022,0.0884,0.4013,-0.0789,-3.0625,1.4175,-13.4925,0.003587964282731771,-36.30021753490269,25.031260015245028,33.32958302572317
-0.6015,0.8167,-0.0013,0.0884,0.4013,-0.0789,-2.135,1.54,-13.6237,-0.01903747664521583,-36.31128668603739,25.060045629033688,33.341759433398
-0.6014,0.8237,0.0009,0.0862,0.4024,-0.0794,-2.1263,1.47,-14.0612,0.000858351417932881,-36.275352948575396,25.170336133653812,33.35370721269447
-0.6021,0.8253,-0.0043,0.0862,0.4024,-0.0794,-1.4437,1.4175,-14.3587,-0.1491918770047838,-36.217409870944124,25.06682094555887,33.36590343954761
-0.6043,0.8295,-0.0037,0.0871,0.4029,-0.0833,-1.9775,1.5487,-14.3937,-0.18325355040094593,-36.164199222645536,25.357245775722923,33.37816160133298
-0.6082,0.8271,0.0012,0.0884,0.4009,-0.0794,-2.31,2.0563,-15.1112,-0.15084238240572262,-36.25720027106389,25.523139760510922,33.38696343998647
-0.6118,0.8255,-0.0034,0.0884,0.4009,-0.0794,-2.6513,1.47,-15.6012,-0.1651961810752767,-36.44064469659597,25.3419488371066,33.39921310783827
-0.611,0.8231,-0.0036,0.0872,0.4025,-0.0813,-2.8175,1.1287,-15.365,-0.18821292173958015,-36.52966919099025,25.33454207130347,33.41138668420192
-0.6132,0.8246,-0.0074,0.0872,0.4025,-0.0813,-2.2838,0.4462,-15.26,-0.23431170226888226,-36.591830271608515,24.99593272576694,33.42366324951001
-0.61,0.8228,-0.0045,0.0858,0.4017,-0.0742,-2.975,0.6388,-15.2425,-0.2615733215165046,-36.56820928432775,24.32927456559364,33.437099944577085
-0.6087,0.828,-0.0038,0.093,0.4029,-0.0796,-2.8963,0.4725,-14.8575,-0.2619990439571811,-36.44156273476433,24.733217539146302,33.44809392591733
-0.6025,0.8295,-0.001,0.093,0.4029,-0.0796,-3.1238,0.3588,-14.8575,-0.18423381159072597,-36.21147889840814,25.31016241920198,33.46033474592167
-0.6057,0.8265,-0.0032,0.0879,0.4034,-0.0798,-3.2288,0.245,-15.015,-0.20071341981293592,-36.22467315096755,25.16990356124834,33.47250832228532
-0.6043,0.8247,-0.0032,0.0879,0.4034,-0.0798,-3.7975,1.0412,-15.0412,-0.2131204862197308,-36.228687445463954,25.16069684805539,33.4847179978666
-0.6008,0.8253,-0.0048,0.0871,0.401,-0.0769,-3.1675,0.8312,-14.5075,-0.26335814067669,-36.15645582261267,24.958205497994133,33.49694395348722
-0.602,0.8222,-0.0007,0.0887,0.4016,-0.0789,-3.0275,1.2862,-14.6387,-0.18467733653188304,-36.18117689951336,25.021236799198878,33.50916813953834
-0.5999,0.823,-0.0014,0.0887,0.4016,-0.0789,-3.3338,1.855,-14.42,-0.1437249738135047,-36.146137064358896,25.170408718953443,33.51801032437624
-0.6055,0.8232,-0.0011,0.0884,0.4009,-0.079,-3.1063,2.1613,-14.245,-0.11707572507044238,-36.20398622272859,25.20965462159629,33.53023946522194
-0.6083,0.8214,-0.0017,0.0884,0.4009,-0.079,-3.1675,2.3625,-13.9825,-0.1177054459686273,-36.25147826049603,25.09201819332239,33.542460819961875
-0.6142,0.817,0.0004,0.0903,0.4038,-0.0811,-3.1588,2.3187,-14.6825,-0.05717275491403986,-36.5704890276588,25.31598717219875,33.55467474250994
-0.6133,0.8175,0.0016,0.0858,0.402,-0.079,-2.8438,1.8375,-14.9888,-0.009207860291218267,-36.736882016071064,25.105641024872007,33.56685468932376
-0.611,0.8195,0.0005,0.0858,0.402,-0.079,-3.1063,1.435,-14.9187,0.008316224167998931,-36.72133255382663,25.030191417247394,33.57911072762574
-0.6094,0.8234,0.0071,0.0863,0.4034,-0.0789,-2.7475,1.1112,-15.085,0.12011020024407931,-36.59952228365289,25.03775940993808,33.59125457522192
-0.612,0.8239,-0.0005,0.0863,0.4034,-0.0789,-2.7825,0.6737,-15.5137,0.08133418068236269,-36.60315092792558,24.92556081379215,33.603420719393704
-0.6105,0.825,-0.0002,0.0886,0.4025,-0.0796,-2.1088,0.6038,-15.6538,0.05718733107057831,-36.53717000952573,25.048841927197817,33.615635703683466
-0.611,0.8262,0.0001,0.0873,0.4025,-0.0794,-2.065,0.2187,-15.6275,0.043256861296868725,-36.502884795335014,25.101839226398717,33.6244697485017
-0.6152,0.8253,-0.002,0.0873,0.4025,-0.0794,-2.0213,0.6563,-15.2862,-0.011254547994908994,-36.62151417396271,24.971436276674915,33.636682609308075
-0.6135,0.8236,-0.0052,0.0886,0.4028,-0.0787,-1.8112,0.8575,-14.9625,-0.14768284516577507,-36.65388083855816,24.810013370738123,33.64894678762972
-0.617,0.8243,-0.0005,0.0886,0.4028,-0.0787,-2.0825,0.8925,-14.7437,-0.11742360902559408,-36.731975420968084,24.79327427631697,33.6611561092971
-0.6118,0.825,-0.0049,0.0872,0.404,-0.0795,-2.485,0.7613,-14.5338,-0.12526646176494502,-36.65928469258573,24.66410446675391,33.67333003957465
-0.6116,0.8259,-0.0073,0.0886,0.4022,-0.08,-1.9337,0.8312,-14.5513,-0.2548031363591654,-36.59978081718186,24.606744977041416,33.68555493345357
-0.6108,0.8308,-0.0035,0.0886,0.4022,-0.08,-2.24,1.155,-13.86,-0.2524860956084088,-36.58587729916166,24.632493530746327,33.69778124298808
-0.6127,0.8288,-0.009,0.0871,0.4017,-0.0787,-2.4413,0.8487,-14.07,-0.2551385209486761,-36.56227315431779,24.446727908854708,33.70998065506631
-0.6074,0.8294,-0.0034,0.0871,0.4017,-0.0787,-2.7825,1.0237,-13.9562,-0.2500651219602427,-36.51741002601436,24.46755386795907,33.72220731851472
-0.6072,0.8258,0.0002,0.0875,0.4035,-0.0785,-2.7738,1.3125,-13.5887,-0.18528370685112341,-36.48319593508486,24.56099202757674,33.73435364350819
-0.604,0.823,-0.003,0.0872,0.4022,-0.0796,-3.1675,1.33,-13.125,-0.19514201938518078,-36.398678875451616,24.635856591286757,33.7432839529068
-0.6021,0.8195,0.0007,0.0872,0.4022,-0.0796,-2.2662,1.8112,-13.2125,-0.15750192539921493,-36.36386617763005,24.98240030466503,33.755459652753835
-0.5991,0.8183,-0.0013,0.0834,0.4035,-0.0786,-2.8087,2.0388,-13.6763,-0.13989845228591888,-36.345931944014204,24.744429327372607,33.767696225791404
-0.6009,0.8189,-0.0007,0.0834,0.4035,-0.0786,-2.5813,1.6712,-13.2825,-0.12924146171512982,-36.320082285794754,24.665028953389374,33.779885728280476
-0.599,0.8164,-0.0014,0.0867,0.4005,-0.079,-3.0538,1.925,-13.6588,-0.11755729096155296,-36.31332773040259,24.866431378321202,33.79212159349025
-0.6053,0.8205,-0.0024,0.0878,0.4035,-0.0802,-2.24,2.1438,-14.3325,-0.12619065160871995,-36.34898450935203,24.963320066054003,33.804401697937315
-0.6047,0.8217,-0.0036,0.0878,0.4035,-0.0802,-2.0738,1.9075,-14.9537,-0.1602171077755412,-36.34930546973135,24.953408874231066,33.81657067342029
-0.6044,0.8251,-0.0083,0.0876,0.4034,-0.0791,-2.45,1.9337,-14.4637,-0.16082915666928693,-36.29886413195309,24.541941783219205,33.82875451328699
-0.6093,0.8258,-0.0077,0.0876,0.4034,-0.0791,-2.2662,1.7675,-14.5513,-0.21841096100029858,-36.35047501906382,24.313843494358473,33.840980114993705
-0.6149,0.8285,-0.0066,0.0871,0.4022,-0.08,-2.6775,1.4,-14.4725,-0.2627550534171246,-36.442724382102504,24.309278547555348,33.85318235838312
-0.6166,0.829,-0.006,0.086,0.4024,-0.0806,-2.5375,1.225,-14.5775,-0.2751677634396503,-36.5288718592438,24.316074145405324,33.86209886513969
-0.6159,0.8306,-0.003,0.086,0.4024,-0.0806,-3.255,0.9887,-14.385,-0.2447096903547652,-36.5392486156452,24.371871886046836,33.874313141601654
-0.6129,0.8271,-0.0034,0.0855,0.403,-0.0787,-3.01,0.5163,-14.2712,-0.24140786165074238,-36.53918863136457,24.308319790425017,33.88650724497141
-0.6121,0.8253,-0.004,0.0855,0.403,-0.0787,-3.115,-0.2975,-14.1575,-0.2559200123147397,-36.54533715104182,24.183060842370104,33.89877425460424
-0.6068,0.8254,-0.0004,0.0895,0.4022,-0.082,-3.2638,0.0525,-14.4025,-0.1534519231720204,-36.461911324337954,25.223106496040167,33.91098322235773
-0.6037,0.8217,-0.0018,0.0858,0.4022,-0.0796,-3.0713,0.2625,-14.56,-0.1427289405718879,-36.39431238947471,25.104821004216415,33.923188650972236
-0.6016,0.8189,0.0034,0.0858,0.4022,-0.0796,-3.5,0.2362,-14.1575,0.05235329043449458,-36.37046640477231,25.38634566423705,33.93545601451896
-0.6018,0.8174,-0.0016,0.0863,0.4024,-0.0775,-2.3013,0.2888,-14.3675,0.03124183144191481,-36.36736023615176,24.940791505668315,33.947611541273794
-0.6045,0.8201,0.0009,0.0863,0.4024,-0.0775,-2.1175,0.5338,-14.4637,0.03910974016931716,-36.37796036274434,24.86367667307048,33.959677527812325
-0.6047,0.8194,0.0008,0.0892,0.4025,-0.0778,-2.0825,1.1638,-14.1575,0.04361920407752956,-36.390563338930185,24.87550825244291,33.9719342739421
-0.605,0.8204,-0.0053,0.0874,0.4023,-0.0789,-0.8312,1.4088,-14.1225,-0.21205577214522606,-36.39430462575066,24.74810192051616,33.980463598893806
-0.6083,0.8253,-0.0041,0.0874,0.4023,-0.0789,-1.4875,1.5137,-13.93,-0.24762506412965332,-36.39408546651769,24.682392490224213,33.99351098867263
-0.6062,0.8272,-0.006,0.0875,0.4009,-0.0783,-2.03,1.5487,-13.5537,-0.2971793671873747,-36.36181836566444,24.574224650625357,34.00568491895017
-0.6118,0.8281,-0.0091,0.0875,0.4009,-0.0783,-1.5575,1.7413,-13.5712,-0.45381093260082994,-36.37966777764247,24.23288901421757,34.01785991096942
-0.6088,0.8291,-0.0049,0.0866,0.4018,-0.0754,-1.4875,1.4175,-13.615,-0.39735786457180117,-36.36505450776926,24.047353756688015,34.02999597245984
-0.6078,0.8305,-0.0065,0.0859,0.4014,-0.0803,-2.1788,1.3212,-14.105,-0.4082055001421502,-36.32662978581445,24.156694983029748,34.0421875984323
-0.604,0.8231,-0.0059,0.0859,0.4014,-0.0803,-1.9425,1.295,-14.0787,-0.4090404465825511,-36.314735355241844,24.24003850943483,34.054371438299
-0.6023,0.8215,-0.0087,0.0864,0.4011,-0.0828,-2.7388,1.3825,-14.1925,-0.45352181594346064,-36.29568695306503,24.420093514765593,34.06654784597384
-0.6021,0.822,-0.0045,0.0864,0.4011,-0.0828,-2.45,1.12,-14.6037,-0.45331610234728775,-36.26287644163801,24.442964475578073,34.07865842566357
-0.5995,0.8216,-0.0001,0.0871,0.4022,-0.081,-2.4938,1.8375,-14.4987,-0.4339840614806904,-36.20333949128001,25.06030204148876,34.09089641435673
-0.6024,0.8214,-0.0081,0.0874,0.4011,-0.0804,-2.9313,1.9337,-13.8687,-0.476637216039764,-36.20629647632886,24.838567335754362,34.10308910207089
-0.6083,0.8233,-0.0055,0.0874,0.4011,-0.0804,-2.8788,1.9687,-14.7175,-0.44839433459727207,-36.32645643849569,24.81043583942885,34.112383234957065
-0.6102,0.8244,-0.0082,0.0855,0.4017,-0.0768,-2.8263,2.5113,-14.945,-0.48170488949367124,-36.42231136509769,23.808632592131456,34.12455893480411
-0.6121,0.8267,-0.0017,0.0855,0.4017,-0.0768,-2.9138,2.2488,-15.0675,-0.3661596558696992,-36.474939727783315,23.92602368658113,34.1367215398369
-0.6131,0.825,-0.004,0.0858,0.4011,-0.0818,-2.975,1.9775,-15.26,-0.33568330936325963,-36.55945095700561,24.465630877101507,34.14887954398902
-0.6194,0.8232,-0.0063,0.0876,0.4014,-0.0792,-3.1238,2.24,-15.4263,-0.37711866023719104,-36.805881606964384,24.17079459793047,34.16108815782861
-0.6152,0.8194,-0.0059,0.0876,0.4014,-0.0792,-2.6163,1.9425,-15.2163,-0.3822083134508732,-36.85991658571509,24.098966070246973,34.17326421158955
-0.6122,0.8221,-0.0036,0.086,0.4026,-0.079,-2.7037,1.61,-15.0325,-0.35551337060892185,-36.75753927550406,24.140287047770453,34.18539956525217
-0.6106,0.8262,-0.0032,0.086,0.4026,-0.083,-2.9925,1.855,-15.1988,-0.3084437013566041,-36.58784489308497,24.748797195940504,34.1975763268409
-0.6152,0.8295,-0.0073,0.086,0.4056,-0.083,-2.9663,1.7325,-14.7875,-0.3752299550287995,-36.574791784698995,24.716726404013077,34.20976405976048
-0.6137,0.825,-0.006,0.0856,0.4013,-0.0798,-2.3363,1.7325,-14.5775,-0.37941331890459146,-36.6049297359438,24.51169049944851,34.22194931528278
-0.6121,0.8273,-0.0054,0.0856,0.4013,-0.0798,-2.87,2.1525,-14.4287,-0.37780201542678393,-36.563287711179214,24.45233795085764,34.23126043603608
-0.6116,0.8271,-0.0001,0.0883,0.4015,-0.0814,-2.94,2.5113,-14.0963,-0.2555906819291238,-36.544855569268584,25.28460535148552,34.24338517228175
-0.6114,0.8233,-0.0039,0.0883,0.4001,-0.0792,-2.4763,2.1963,-14.035,-0.25601816003117706,-36.55472805085016,24.992734026793297,34.25561006616066
-0.6121,0.8167,-0.0022,0.0858,0.4001,-0.0792,-2.7562,2.1788,-14.07,-0.23209530362378053,-36.61633753975492,24.73723283512162,34.26774506590938
-0.6131,0.8142,-0.0071,0.0866,0.4022,-0.0801,-2.695,2.0825,-13.755,-0.2849944422377089,-36.63430836730108,24.302760969604353,34.27994907886829
-0.6097,0.8166,-0.0035,0.0866,0.4022,-0.0801,-1.5137,1.9337,-14.0525,-0.26594712069367005,-36.65630601015173,24.42353093041096,34.292075230769555
-0.6048,0.8228,-0.0038,0.0858,0.4019,-0.0822,-1.2512,1.7937,-14.1225,-0.2652193865188735,-36.575073354999894,24.82742069104945,34.304259070636256
-0.6029,0.825,-0.0071,0.0866,0.4014,-0.0802,-1.47,2.0475,-14.3413,-0.3779126006089583,-36.42981135758668,24.736498582076017,34.31644998878093
-0.6061,0.8249,-0.0074,0.0866,0.4014,-0.0802,-2.135,2.4675,-14.1487,-0.41038929478386593,-36.39821172157099,24.583663642275805,34.32865223217035
-0.61,0.8192,-0.0059,0.0864,0.401,-0.0814,-2.17,2.59,-14.2625,-0.41088082507085694,-36.48379049370844,24.665359006505657,34.340790417144156
-0.6165,0.8204,-0.0097,0.0864,0.401,-0.0814,-1.2687,2.7213,-14.6212,-0.5551365694885007,-36.68024673364627,24.237877235861223,34.35296859438848
-0.6187,0.8235,-0.0063,0.0866,0.4002,-0.0814,-1.3212,2.8612,-14.3062,-0.493232273960764,-36.759043405940105,24.435578255284685,34.362292809956024
-0.6214,0.8251,-0.0116,0.0827,0.4016,-0.0822,-1.4088,2.52,-14.4987,-0.6523880753747637,-36.84996822339801,23.876511522478584,34.374512395126466
-0.6201,0.8295,-0.017,0.0827,0.4016,-0.0822,-1.8637,1.9687,-14.4025,-0.84489758950063,-36.82180663774714,23.419391864241238,34.386591122565335
-0.6199,0.835,-0.0136,0.0862,0.4001,-0.0824,-1.435,1.6975,-13.965,-0.8893042373021259,-36.7897074067533,23.654316273305202,34.39879902857713
-0.6165,0.8363,-0.0142,0.0862,0.4001,-0.0824,-2.6075,1.1375,-13.2125,-0.9007520686084567,-36.641699279090965,23.670640158488258,34.41096304926552
-0.6173,0.8344,-0.0038,0.0838,0.4002,-0.0835,-3.5438,0.9713,-12.9937,-0.5662960807924736,-36.575552695933595,23.887068618027815,34.42314016476816
-0.6152,0.832,-0.0084,0.0874,0.4014,-0.0846,-3.5963,1.1375,-12.7225,-0.572789737218753,-36.525150098280896,23.942946230117556,34.4353576264552
-0.6154,0.8269,-0.0085,0.0874,0.4014,-0.0846,-3.745,0.945,-12.7575,-0.5819090604916346,-36.592215894634286,24.130289339802104,34.44747422268121
-0.6102,0.8214,-0.0063,0.0872,0.401,-0.0818,-3.2025,0.3588,-13.3,-0.5206666503481567,-36.59720357298647,24.46378296935977,34.4596389511974
-0.6063,0.8259,-0.0057,0.0872,0.401,-0.0818,-2.9225,0.945,-13.125,-0.4803934629783266,-36.46940314321992,24.574492504775638,34.47169892119965
-0.6048,0.8244,-0.0013,0.0857,0.3998,-0.0858,-3.0275,0.4462,-12.2762,-0.3373734772320279,-36.34554976558633,25.517596847103384,34.484060071929456
-0.6048,0.8272,-0.0059,0.0835,0.3977,-0.0772,-3.2638,0.6737,-12.1887,-0.3693873134557392,-36.23789786319282,25.03926768262473,34.49248640793673
-0.6034,0.8226,0.0002,0.0835,0.3977,-0.0772,-2.87,0.5425,-12.0662,-0.25573192143031764,-36.252624330948485,24.925446391687345,34.50475766453634
-0.603,0.8194,-0.0023,0.0854,0.3974,-0.0818,-2.4325,0.9713,-12.635,-0.2542348407736563,-36.30484911199027,25.0264110892149,34.517765062044646
-0.6035,0.8212,-0.0017,0.0854,0.3974,-0.0818,-1.9337,0.6825,-12.4687,-0.20814163453000056,-36.309006770196916,25.29031644084508,34.52975531100891
-0.6003,0.823,-0.0068,0.085,0.401,-0.0805,-1.8812,0.4987,-11.76,-0.30415494808004045,-36.17279216377591,25.058389795784553,34.541915084730526
-0.6005,0.8274,-0.0033,0.0838,0.3986,-0.0818,-1.2425,0.2625,-11.7512,-0.2628040235621839,-36.03683605502367,25.36143328021675,34.55411237332537
-0.5985,0.8284,-0.0051,0.0838,0.3986,-0.0818,-1.6362,0.6038,-11.8912,-0.3031126916023412,-35.91192724492401,25.43238557182911,34.566296567105965
-0.5968,0.8315,-0.0067,0.0842,0.3974,-0.0815,-3.6575,0.7613,-12.3812,-0.38988783945433786,-35.768313880116196,25.46552232694353,34.5784942096147
-0.5976,0.8301,-0.0058,0.0842,0.3974,-0.0815,-1.8288,0.3237,-12.8362,-0.39388137496810005,-35.75926787375605,25.532170483553877,34.59063133284682
-0.6025,0.8301,-0.0121,0.0849,0.3977,-0.0822,-1.7675,1.085,-12.0662,-0.5726368202661706,-35.89302661183082,25.519714097105282,34.60280597095216
-0.6026,0.8316,-0.0124,0.0841,0.3983,-0.0803,-1.5575,0.4638,-12.705,-0.7053409781082033,-35.90983382302101,24.964361273210063,34.61209904209664
-0.5999,0.8344,-0.0149,0.0841,0.3983,-0.0803,-2.2138,0.595,-12.425,-0.7657350857344484,-35.79405410711592,24.612328834433484,34.62434587863726
-0.5963,0.8328,-0.0109,0.0854,0.3976,-0.0816,-2.5988,0.4812,-13.1512,-0.7636619196104586,-35.71759615027298,24.822472231570558,34.63647910881649
-0.5974,0.8334,-0.0132,0.0854,0.3976,-0.0816,-2.1525,0.2275,-12.8712,-0.7964971062831961,-35.67544529866242,24.812873901880963,34.64861340073741
-0.5938,0.8303,-0.0085,0.0858,0.3973,-0.0831,-1.9425,0.6212,-12.7575,-0.7259483974991872,-35.621207483058896,25.20874495794713,34.66083192416616
-0.5951,0.8306,-0.0093,0.0841,0.3969,-0.0821,-2.0213,0.4288,-12.6087,-0.7006690523781819,-35.61987471880833,25.298108800906235,34.672989574404376
-0.592,0.8316,-0.0077,0.0841,0.3969,-0.0821,-2.45,0.9887,-12.4687,-0.7004187639783025,-35.519880235358,25.350915910867617,34.68519004822431
-0.5975,0.8334,-0.0083,0.0833,0.3971,-0.0822,-2.59,0.8575,-12.5562,-0.6843293383765477,-35.584972326276336,25.377541098938817,34.69732080100625
-0.5987,0.8322,-0.0046,0.0833,0.3971,-0.0822,-1.6275,0.8838,-12.0575,-0.5185803113782904,-35.67822299634261,25.476315080737407,34.70951384263431
-0.6009,0.833,-0.0056,0.0818,0.3975,-0.0864,-1.7937,0.595,-12.3987,-0.4657912253007786,-35.75229137174807,25.88447590393004,34.72170688426237
-0.5995,0.8353,-0.0114,0.0822,0.3959,-0.0809,-2.6075,0.4025,-12.5212,-0.509152644664801,-35.70302389578959,25.36781735527303,34.733883999765
-0.5976,0.8343,-0.0099,0.0822,0.3959,-0.0809,-2.5375,0.2275,-12.46,-0.5230994992856337,-35.65061054141505,25.143908866574698,34.743171762201
-0.5933,0.8345,-0.0066,0.0838,0.3976,-0.0806,-2.4413,0.035,-12.74,-0.5225975205223685,-35.52672629053078,25.32329135739182,34.75532198024736
-0.59,0.8325,-0.0065,0.0838,0.3976,-0.0806,-2.1263,-0.0175,-12.6962,-0.5042585492719696,-35.42040943222938,25.45917857814795,34.7675645698212
-0.5907,0.8311,-0.0076,0.0834,0.3934,-0.0794,-2.9575,-0.315,-13.0725,-0.5108926942201469,-35.41260537463983,25.367765055663472,34.77979087935571
-0.5894,0.834,-0.006,0.0837,0.3951,-0.0798,-3.185,-0.455,-13.0812,-0.4690320661818178,-35.343670122688934,25.56217738872775,34.79210602127872
-0.5863,0.8327,-0.0091,0.0837,0.3951,-0.0798,-2.6863,-0.175,-13.265,-0.4992084179064115,-35.27473479720827,25.42855495808884,34.80373209284152
-0.5848,0.8353,-0.0032,0.0824,0.396,-0.08,-1.995,0.0613,-13.1775,-0.4119332492177095,-35.16702839621116,25.800971521174773,34.81597008153468
-0.5825,0.8323,-0.0091,0.0824,0.396,-0.08,-2.3187,0.0263,-13.0113,-0.43657985265510413,-35.086507465543896,25.544356991652723,34.828173386665796
-0.5805,0.8352,-0.0078,0.081,0.3949,-0.0847,-2.625,0.2888,-13.7025,-0.451354197252062,-35.05934995435581,26.17654197692963,34.84043862672913
-0.5827,0.8352,-0.0051,0.0833,0.3963,-0.0802,-2.0563,0.7962,-13.4575,-0.4227612074103122,-35.01861372673577,26.160419163139196,34.85264865622432
-0.5849,0.834,-0.009,0.0833,0.3963,-0.0802,-2.1088,1.33,-13.9825,-0.472339650658816,-35.02197452253008,26.020616255042146,34.86488770665917
-0.5829,0.8321,-0.0078,0.0829,0.3941,-0.0826,-2.2925,1.3737,-14.0437,-0.4810758786691878,-35.01981834267748,26.11115360881166,34.87731256189069
-0.5841,0.8349,-0.0151,0.0829,0.3941,-0.0826,-2.485,1.3387,-13.3612,-0.5006082693882875,-35.00519977415428,25.978578937702487,34.889416063302455
-0.5829,0.8367,-0.0099,0.082,0.3938,-0.0797,-2.1613,1.7325,-14.07,-0.5401692322072082,-34.975332849735686,25.73790071051466,34.89889883229648
-0.5839,0.8359,-0.0101,0.083,0.3942,-0.0813,-2.3538,1.3562,-13.9912,-0.5533295889910522,-34.968819575593734,25.752895263205435,34.911020383317066
-0.5838,0.8359,-0.009,0.083,0.3942,-0.0813,-2.485,2.0563,-14.035,-0.555565565610449,-34.96147290949898,25.862002667294067,34.923198914475286
-0.5798,0.8339,-0.0082,0.0823,0.393,-0.0798,-1.8463,1.6362,-14.5338,-0.5585062231488487,-34.89734536032525,25.833782388373198,34.93556749739696
-0.5821,0.8331,-0.0151,0.0823,0.393,-0.0798,-2.4063,1.995,-14.7175,-0.5779487117317497,-34.916806836979035,25.27240504682311,34.947140481875
-0.5862,0.8347,-0.0113,0.0834,0.3963,-0.08,-2.8175,2.2662,-15.1812,-0.6312238031644153,-35.00978295454989,25.121767072315325,34.95935369659528
-0.5893,0.8375,-0.0116,0.0835,0.3955,-0.0814,-2.905,2.2225,-14.875,-0.6820948490880259,-35.07146885183927,25.26591904654128,34.97159451659962
-0.593,0.8399,-0.0077,0.0835,0.3955,-0.0814,-2.52,2.0913,-15.3475,-0.6716330648103724,-35.16295680997035,25.57082168047401,34.98378224951921
-0.5955,0.8395,-0.0095,0.0823,0.3945,-0.0791,-3.2025,2.0038,-15.365,-0.6616228575339528,-35.275829842197346,25.199141986155485,34.99600572774253
-0.594,0.8392,-0.0052,0.0823,0.3945,-0.0996,-3.0713,1.5925,-15.505,-0.5439582793278896,-35.28537011460187,27.140103847825163,35.00818107367567
-0.5922,0.8377,-0.007,0.0825,0.3953,-0.0858,-3.3338,1.2512,-15.2687,-0.5133451072989405,-35.26847167545798,27.134587661929192,35.01703493767222
-0.5933,0.8373,-0.0048,0.0827,0.3948,-0.0804,-3.5175,1.2775,-15.2775,-0.4178190663133531,-35.29940993717221,26.947314817036776,35.029260893292836
-0.5938,0.8311,-0.0048,0.0827,0.3948,-0.0804,-3.465,1.4175,-14.8225,-0.3740079563967948,-35.422838403002324,26.642328724001853,35.04149392719142
-0.5896,0.8275,-0.0042,0.0824,0.396,-0.0796,-3.1588,1.785,-14.8137,-0.3394534661943615,-35.446401306192364,26.165122652062255,35.05367635140252
-0.5914,0.8273,-0.0068,0.0824,0.3951,-0.0771,-3.5788,1.5662,-14.8662,-0.4092132092924783,-35.50399454742509,25.59311132040143,35.06590726181771
-0.5916,0.8294,-0.0014,0.0827,0.3951,-0.0771,-3.1412,1.54,-14.7875,-0.2813324867712107,-35.50187850764523,25.483523942547432,35.07815516010003
-0.5885,0.83,-0.0059,0.084,0.3959,-0.0814,-2.8788,1.6625,-14.4987,-0.3192205417185131,-35.43460809771853,25.685822391269078,35.0903687287342
-0.5895,0.8277,-0.0055,0.084,0.3959,-0.0814,-2.135,1.8812,-14.6825,-0.3338999646964531,-35.4457255069774,25.81998874748193,35.102597515666
-0.5913,0.8236,-0.0095,0.0834,0.3948,-0.0823,-2.24,2.2225,-14.7437,-0.39031605450519985,-35.556358775277566,25.647924775103178,35.114797635572025
-0.5977,0.8269,-0.0082,0.0834,0.3969,-0.0822,-1.9425,2.2838,-14.8925,-0.45007123361994605,-35.71378284299449,25.47302287171176,35.127037747748574
-0.597,0.833,-0.0116,0.0834,0.3969,-0.0822,-1.2075,2.0213,-14.3238,-0.6426488354288569,-35.68389047334072,25.269773575593632,35.13925414769393
-0.5946,0.8429,-0.0173,0.0832,0.3954,-0.0816,-1.4787,1.9687,-14.2887,-0.9051387962492632,-35.52475159901021,24.93715257614685,35.14809066990946
-0.5951,0.8478,-0.0173,0.0832,0.3954,-0.0816,-1.855,1.8112,-14.805,-1.0034174054445748,-35.29298817155125,24.832752602849524,35.16028441936532
-0.5938,0.8471,-0.0175,0.082,0.3961,-0.083,-2.695,1.4088,-14.9713,-1.0390241032522178,-35.14825664225094,24.849560975186233,35.172598853460535
-0.5916,0.8452,-0.0163,0.0826,0.3956,-0.0812,-3.2725,1.575,-14.2187,-1.06875334610009,-35.1007132600561,24.79801448045136,35.18473739234824
-0.5887,0.8442,-0.0228,0.0826,0.3956,-0.0812,-3.5963,1.6013,-14.2887,-1.3243599966214123,-35.02899223090852,24.473609184103644,35.19697715061089
-0.5836,0.8342,-0.0196,0.0843,0.3947,-0.0826,-3.7625,1.7937,-14.2537,-1.336619187577842,-35.01044693969041,24.633315021264135,35.2091811635698
-0.5908,0.8311,-0.0148,0.0843,0.3947,-0.0826,-4.2438,1.995,-14.1487,-1.1333977220133413,-35.1104954577132,24.88819097179228,35.22141490529618
-0.5861,0.8266,-0.0081,0.0829,0.3964,-0.0779,-4.6463,2.5463,-14.4987,-0.740296821210451,-35.203186120215925,24.684635196612025,35.23364227657238
-0.5904,0.8274,-0.0138,0.0832,0.3956,-0.0786,-5.3812,2.8525,-15.3475,-0.9008031530214966,-35.38703507296866,24.160042032361478,35.24588238874893
-0.5871,0.8259,-0.006,0.0832,0.3956,-0.0786,-5.2063,3.08,-14.735,-0.545186011752261,-35.39655648121347,24.77894985867459,35.25813665748142
-0.5899,0.8265,-0.0053,0.0812,0.3952,-0.0814,-5.46,2.8963,-14.9713,-0.4117260772886847,-35.46087901367389,25.37723526924052,35.270239451065386
-0.5939,0.8287,-0.0033,0.0812,0.3952,-0.0814,-5.3288,3.3338,-15.6012,-0.2754665137349304,-35.56794071523809,25.738123706301334,35.27912622905449
-0.6,0.8273,-0.0052,0.0822,0.3948,-0.0844,-4.9612,3.36,-15.6187,-0.33602647650571843,-35.814751143323114,26.146371126906025,35.29135607772798
-0.6027,0.8248,0.001,0.0824,0.3956,-0.0779,-4.8213,3.5963,-15.645,-0.05075908380215351,-36.03602609532384,25.447252693244785,35.30354027150859
-0.6051,0.8202,-0.0068,0.0824,0.3956,-0.0779,-4.1213,3.5875,-16.1525,-0.3162787482057871,-36.30311563107032,24.296062026423968,35.315741453156306
-0.6106,0.8213,0.0045,0.0831,0.3945,-0.0828,-4.1475,3.5788,-16.1963,0.08042878777545517,-36.5326682033221,26.059068182050677,35.327962453982344
-0.62,0.8215,-0.002,0.0831,0.3945,-0.0828,-3.3688,2.6775,-16.2925,-0.024965422315882776,-36.896146080557145,25.72811959264506,35.34019194874194
-0.6163,0.8234,0.0033,0.0822,0.3948,-0.0823,-3.1325,2.5288,-15.8987,0.07844152023153868,-36.84054990620269,25.998227865623267,35.352363755536096
-0.6153,0.8297,0.0002,0.0844,0.3959,-0.0776,-2.0475,2.2662,-15.8112,0.05994187535544649,-36.65364669813249,25.362391217693077,35.364541932780426
-0.6154,0.8351,-0.0047,0.0844,0.3959,-0.0776,-2.4063,2.3013,-15.6275,0.04444838567782677,-36.48136685681443,24.76586863086296,35.3767314352695
-0.6162,0.8365,-0.0065,0.0809,0.3956,-0.082,-2.7213,1.6975,-15.1375,-0.06049144103614797,-36.4212423611296,24.824038835681836,35.3855973323386
-0.6203,0.8377,-0.0041,0.0809,0.3956,-0.082,-1.6187,0.7613,-13.9125,-0.16023071393443838,-36.430549197494656,24.903254257726644,35.39783496711786
-0.6157,0.8338,-0.0048,0.0824,0.3953,-0.0866,-2.5725,0.5775,-13.6325,-0.1789379194291145,-36.432353895501905,25.46654519946801,35.410059860996775
-0.611,0.8343,-0.0099,0.0826,0.395,-0.0826,-2.5113,0.595,-13.5887,-0.2085246329364719,-36.39343812587987,25.29986552876946,35.4222606887306
-0.6055,0.8394,-0.0066,0.0826,0.395,-0.0826,-2.8087,-0.1575,-13.685,-0.27259787894689186,-36.329273954723874,25.576658082700643,35.43452946793292
-0.5968,0.8337,-0.0105,0.0813,0.394,-0.0826,-2.59,-0.0263,-13.4137,-0.3282431701396207,-36.12185301768988,25.460567236469874,35.446795415824056
-0.5945,0.8317,-0.0071,0.0813,0.394,-0.0826,-2.7213,0.3063,-13.195,-0.362718495993364,-35.90708624590257,25.64321205380145,35.45901252359721
-0.5895,0.827,-0.0055,0.0811,0.3957,-0.0858,-3.4913,0.5338,-13.2825,-0.37207233462644046,-35.76058342614677,26.096596467590807,35.47132094115615
-0.5933,0.8281,-0.0151,0.0818,0.3946,-0.0834,-2.9488,0.6038,-13.23,-0.5963447640865436,-35.70751050814532,25.698904563598788,35.48333525626551
-0.5883,0.8292,-0.0047,0.0818,0.3946,-0.0834,-3.0188,1.0675,-12.9762,-0.49771222622197636,-35.54728873227646,25.729538033391687,35.49558421628952
-0.5868,0.8342,-0.0107,0.0823,0.3938,-0.0826,-3.2113,1.575,-13.1162,-0.6003346211799055,-35.37327690664867,25.77797249832268,35.507836361538615
-0.588,0.8344,-0.0049,0.0823,0.3938,-0.0826,-3.255,1.47,-13.02,-0.4825337913468139,-35.284542385032445,26.018022528109327,35.51702750548036
-0.5926,0.8347,-0.008,0.0826,0.3933,-0.0838,-3.2113,2.59,-12.8537,-0.5113473426733846,-35.327141413755456,26.283661653166263,35.52941059887186
-0.5924,0.836,-0.0038,0.0832,0.3941,-0.0839,-3.0975,2.4675,-12.9237,-0.41259723262778175,-35.32453355660249,26.777075606281183,35.541408987855796
-0.594,0.8356,-0.0094,0.0832,0.3941,-0.0839,-3.3338,2.695,-13.2475,-0.5215000100871232,-35.353777025635544,26.46059429311835,35.553551419796385
-0.6002,0.8351,-0.003,0.0802,0.3926,-0.0822,-3.0713,2.5638,-13.23,-0.40035412218809074,-35.482391824285834,26.30679500078639,35.56578056064208
-0.6018,0.8358,-0.0091,0.0802,0.3926,-0.0822,-3.4125,2.1788,-12.6875,-0.5100270072147316,-35.62552285336433,25.78635664561662,35.57795413700573
-0.6016,0.8378,-0.0027,0.0819,0.3916,-0.0866,-3.15,1.82,-12.705,-0.3758817051787479,-35.65455427269565,26.616727214143662,35.59016345867312
-0.5999,0.8378,-0.0106,0.0798,0.3942,-0.0827,-2.9225,1.4175,-12.2237,-0.4881055117087239,-35.62239454492794,26.274801226657992,35.602377735135086
-0.6034,0.8374,-0.0041,0.0798,0.3942,-0.0827,-2.975,1.5662,-12.2412,-0.41651168214066264,-35.71541934604279,26.172979143903234,35.61457714721332
-0.6019,0.8391,-0.0094,0.0801,0.3925,-0.0828,-2.905,0.8925,-11.62,-0.48712800973199827,-35.67106361699627,26.060356521114105,35.62673833659052
-0.6018,0.8397,-0.0013,0.0801,0.3925,-0.0828,-2.6075,0.7088,-11.305,-0.43247728366858795,-35.64069005291207,26.233243128107432,35.63897526354198
-0.5996,0.8397,-0.003,0.081,0.3922,-0.0858,-2.9313,0.6038,-10.78,-0.3583157547801798,-35.556819405288024,26.65216727496885,35.647973170495185
-0.599,0.8403,-0.0029,0.0768,0.3902,-0.0826,-2.59,-0.1488,-9.4237,-0.3384135958390626,-35.496431162478274,26.478213635783053,35.660175767798506
-0.5962,0.8375,-0.0042,0.0768,0.3902,-0.0826,-2.7475,-0.3675,-9.3187,-0.32665652107602405,-35.4551768419654,26.306458448629456,35.67234757459266
-0.6004,0.8361,0.0007,0.0804,0.3911,-0.0822,-1.9775,0.0175,-9.2312,-0.20670031166875175,-35.64129128239363,26.607370435733657,35.68448823696376
-0.599,0.8362,-0.0022,0.0804,0.3911,-0.0822,-1.4525,0.21,-8.1025,-0.17877682539196746,-35.61916564807922,26.575724386274352,35.696678093366735
-0.5973,0.8404,-0.0033,0.0817,0.3898,-0.0858,-1.33,-0.2538,-7.035,-0.20317209557186064,-35.430338234677166,27.31544212676829,35.70889378548429
-0.5966,0.8466,-0.0049,0.0787,0.3886,-0.0815,-1.9337,0.1575,-6.2213,-0.24682489426918283,-35.20204076140059,26.86148293359125,35.72106240705336
-0.5962,0.8503,-0.0051,0.0787,0.3886,-0.0815,-1.365,0.4638,-5.18,-0.2971778879673202,-35.05350036365643,26.71256596935676,35.73322253468887
-0.5902,0.8535,-0.001,0.0765,0.3838,-0.0833,-1.5837,0.3938,-3.8937,-0.19049167924503932,-34.69974044271303,27.271039049190055,35.74217691023257
-0.5891,0.8502,-0.0074,0.0765,0.3838,-0.0833,-1.9162,0.4375,-2.5025,-0.29755575138659884,-34.71551412708583,27.211245123789276,35.754482850394226
-0.5849,0.8497,-0.0021,0.0772,0.3844,-0.0786,-2.0213,0.805,-1.715,-0.25087304964069945,-34.555170733867776,27.091298598074076,35.76652406295987
-0.5838,0.8468,-0.0056,0.0749,0.3828,-0.0803,-1.5487,1.0062,-1.5925,-0.3115107932695039,-34.580461148051,27.040697244954686,35.77873833942183
-0.5827,0.8472,-0.0025,0.0749,0.3828,-0.0803,-1.4175,1.365,-1.3475,-0.23920415273731424,-34.524386333266236,27.03312030737152,35.79086696872038
-0.5855,0.8472,-0.004,0.0733,0.3805,-0.0811,-0.8138,1.3037,-0.035,-0.25863190507189315,-34.639683982000214,27.01254468348731,35.80302284938911
-0.5772,0.8525,-0.0024,0.0733,0.3805,-0.0811,-0.9275,1.1462,3.465,-0.19990892754650966,-34.13005083865182,27.039742114442955,35.81518085354123
-0.576,0.8556,-0.0031,0.0743,0.379,-0.0885,-0.42,1.3562,4.655,-0.20505543122529898,-33.95804676500713,27.664252689487117,35.8240973602978
-0.5747,0.8567,0.0014,0.0724,0.3757,-0.0836,-0.42,1.6187,5.6788,-0.004993057477116828,-33.85989335026565,28.275879340719968,35.8361693633726
-0.5718,0.854,-0.0034,0.0724,0.3757,-0.0836,0.4638,1.7675,6.5713,-0.1710796341184302,-33.80687740881366,28.504770340287813,35.84825658474504
-0.569,0.8554,0.0026,0.0691,0.3719,-0.0824,0.3938,1.4,8.3912,0.08430146608246358,-33.63874213451578,28.708255620823245,35.860340974806284
-0.56,0.8627,-0.0015,0.0691,0.3719,-0.0824,1.4612,2.1875,10.1325,-0.062160670372697964,-33.01463411304623,29.110817430854496,35.87247526672721
-0.5622,0.8668,0.0007,0.067,0.3684,-0.0833,1.8725,2.5113,11.4712,0.025892417123917398,-32.96893958724477,29.688891379739303,35.8813195750485
-0.5637,0.8722,-0.0056,0.067,0.3684,-0.0833,1.5837,2.8788,13.2212,-0.289617945790674,-32.877305476579,29.466234794319337,35.8934584678501
-0.5599,0.8799,-0.0045,0.0658,0.3649,-0.0864,2.24,2.7913,15.0762,-0.29242237734288773,-32.48282524005914,30.43773696840457,35.90561576417443
-0.5552,0.8828,-0.0024,0.0615,0.3596,-0.087,1.7237,3.115,16.8525,-0.18218655411671353,-32.17602773867339,31.253482659557744,35.917745101300774
-0.5539,0.885,-0.0076,0.0615,0.3596,-0.087,2.415,3.0538,18.0775,-0.4391787526127747,-32.04462065508105,31.15986542268593,35.92984435574576
-0.5392,0.8825,-0.0136,0.0592,0.355,-0.085,2.4763,2.94,19.2413,-0.808009727883929,-31.439848696803992,30.706437845105686,35.938778204283345
-0.539,0.8899,-0.016,0.0592,0.355,-0.085,3.5175,2.345,20.2038,-0.9981677707333966,-31.20549175770354,30.532723532770294,35.95091886665444
-0.5315,0.8918,-0.0184,0.0541,0.3505,-0.0854,3.1675,2.52,21.6737,-1.154200004067982,-30.800390936495873,30.389559172444077,35.96307262383978
-0.5255,0.896,-0.0212,0.0541,0.33,-0.0832,3.5088,2.6075,23.5112,-1.326486135183888,-30.395291598582467,31.28388733346967,35.974968377793175
-0.5179,0.9021,-0.0164,0.0485,0.3425,-0.0832,3.36,2.5813,23.8612,-1.0833668225143724,-29.870195639401008,30.987654650664172,35.98718194642734
-0.5165,0.9052,-0.0257,0.0494,0.3403,-0.087,3.045,2.2138,24.9375,-1.5426692218323155,-29.70311791349662,31.184319835968804,35.99935269147981
-0.5036,0.9076,-0.0214,0.0494,0.3403,-0.087,2.8788,1.89,25.9612,-1.3810463948316662,-29.034634180613786,31.867474819129427,36.00794713658882
-0.4946,0.9077,-0.0245,0.0424,0.3349,-0.0886,2.2838,1.5662,27.5625,-1.5173164277712772,-28.587725546374063,32.12071922437103,36.02015575042841
-0.4832,0.9097,-0.0204,0.0424,0.3349,-0.0886,1.0412,2.2488,29.19,-1.3364650580009076,-27.98371797440653,33.08662763672034,36.03289028032104
-0.474,0.9145,-0.0264,0.0386,0.3298,-0.0895,1.2163,1.47,30.3975,-1.5855911415556208,-27.401845130745574,33.329922163304055,36.04497927126297
-0.4656,0.9148,-0.0205,0.034,0.3213,-0.0889,0.8925,1.4612,30.6425,-1.3532758249532257,-26.978160513979663,33.794616837499,36.05704950476828
-0.46,0.9175,-0.0231,0.034,0.3213,-0.0889,1.3212,1.47,31.9813,-1.4235862293963744,-26.627842975908493,34.17249666988123,36.06918768974209
-0.4446,0.9192,-0.0254,0.0291,0.3152,-0.0877,1.0325,1.6625,33.1712,-1.547297076535427,-25.82080223959806,34.535354541480906,36.078466958244526
-0.4321,0.9215,-0.0258,0.0291,0.3152,-0.0877,1.3387,1.3475,34.3175,-1.5919485085022267,-25.128088081473827,34.829549116154546,36.090491536856945
-0.4277,0.9233,-0.027,0.025,0.3102,-0.0874,1.7237,1.225,34.6763,-1.6589583541711004,-24.851344072358522,34.93309109133982,36.10253664247547
-0.4189,0.9227,-0.0321,0.0186,0.3054,-0.0858,1.645,0.455,34.7287,-1.9269933309044023,-24.413725880040214,34.65914966101898,36.11456900719365
-0.4144,0.9276,-0.0307,0.0186,0.3054,-0.0858,0.9975,0.3325,34.8862,-1.9026443206978876,-24.06785600977127,34.74501596011802,36.12662968502371
-0.4062,0.942,-0.0252,0.0157,0.3001,-0.0883,1.8025,0.1663,36.155,-1.60289910442819,-23.333446257673536,35.988195812259164,36.13592169442649
-0.3757,0.9442,-0.0285,0.0157,0.3001,-0.0883,1.715,0.5688,37.7388,-1.7045036154939242,-21.720095855359254,37.09095897699472,36.14794556521111
-0.3667,0.9471,-0.0307,0.0057,0.291,-0.0886,0.5163,1.7762,39.7425,-1.8182219201330303,-21.16572721995048,37.522621031067416,36.159993148226924
-0.3596,0.9475,-0.027,0.0057,0.291,-0.0886,0.56,1.785,41.2562,-1.6786525120227813,-20.782260295719635,38.167086347682975,36.17205170257359
-0.3539,0.9439,-0.0309,0.0005,0.2837,-0.0872,1.1725,2.1525,42.385,-1.8325058757583257,-20.546824085905428,38.03000543838779,36.18422103197046
-0.3489,0.9456,-0.0295,-0.0078,0.2745,-0.0904,1.6275,2.5813,42.1138,-1.7958716810850919,-20.248931105304255,38.246576468511975,36.19621411224591
-0.3467,0.951,-0.0376,-0.0078,0.2745,-0.0904,1.2425,2.3363,42.9712,-2.1643200815597377,-20.019658402659807,38.00560685579802,36.20823302823596
-0.3295,0.9608,-0.035,-0.0146,0.269,-0.0899,0.665,2.7213,45.395,-2.105226468979652,-18.935720242704523,38.07458189082042,36.21766908059539
-0.3116,0.9622,-0.0334,-0.0146,0.269,-0.0899,0.4375,2.2662,49.3763,-2.0182104324449748,-17.94958807919041,38.847588447933575,36.22976550372919
-0.2963,0.9647,-0.0343,-0.0227,0.2616,-0.0908,1.0062,2.7738,50.0587,-2.032238537636255,-17.077427994457395,39.15674497962,36.24138591266962
-0.2801,0.9654,-0.0369,-0.0284,0.254,-0.0915,-0.1663,2.695,50.3737,-2.141185260040029,-16.18225347830138,39.406297661852086,36.25356762905293
-0.2616,0.9629,-0.0394,-0.0284,0.254,-0.0915,-0.315,2.66,49.2363,-2.2786801575171918,-15.202634445486728,40.074522381030455,36.265637508644346
-0.2422,0.967,-0.0371,-0.04,0.2463,-0.0929,0.1138,2.7738,48.8862,-2.2200273409141618,-14.069482067082077,40.01999968131438,36.27788823823785
-0.2308,0.9676,-0.0429,-0.04,0.2463,-0.0929,-0.0613,3.0625,48.7988,-2.444571338320226,-13.413760362706466,40.141788780708225,36.290088358143876
-0.218,0.9664,-0.0433,-0.0478,0.2406,-0.0932,-0.385,3.0013,48.965,-2.5259913972904946,-12.71085147792423,39.628413145211034,36.30234227296246
-0.204,0.9592,-0.0417,-0.0566,0.2346,-0.0922,0.1488,3.115,48.44,-2.4994950820599504,-12.006921801653426,38.53130934006503,36.31085956484163
-0.194,0.9575,-0.0597,-0.0566,0.2346,-0.0922,-0.3063,2.9138,47.5475,-3.2277933968935946,-11.441308889919629,37.496179326067164,36.323086582203935
-0.167,0.9657,-0.0453,-0.0666,0.2281,-0.0927,-0.3063,3.0713,46.9612,-2.8582309067058476,-9.827207437476646,37.77556448752566,36.33616370075023
-0.1592,0.9731,-0.0447,-0.0666,0.2281,-0.0927,-0.6563,3.1588,47.25,-2.7117836105717763,-9.290501000630925,38.279983070733614,36.34832913709421
-0.1488,0.9776,-0.0482,-0.0738,0.2214,-0.0919,-0.9713,2.7562,46.8213,-2.777895401051363,-8.654679957556402,37.556186816882104,36.36052713351685
-0.1336,0.9798,-0.0379,-0.0823,0.2135,-0.0925,-1.3825,2.52,44.9225,-2.4875431097545695,-7.773909449059375,37.3574889108085,36.37271557426423
-0.1142,0.9748,-0.0497,-0.0823,0.2135,-0.0925,-2.03,3.2638,45.2375,-2.6147494404951033,-6.691611696276433,37.30544271423292,36.38490826197839
-0.0939,0.9828,-0.0473,-0.0922,0.2093,-0.0936,-2.1963,3.1937,44.555,-2.6430783725741995,-5.472284552416933,36.87243724771667,36.39705387914407
-0.0831,0.9764,-0.0466,-0.0922,0.2093,-0.0936,-2.0563,3.7975,43.0587,-2.668255177602111,-4.869730063559382,37.12464951065775,36.40924550511653
-0.0734,0.9731,-0.0508,-0.1017,0.2033,-0.096,-3.4388,3.6225,40.7575,-2.827531863369966,-4.317867404293834,36.373815459422204,36.42143854674459
-0.068,0.97,-0.0473,-0.1067,0.2016,-0.0923,-3.5,3.115,38.3775,-2.8091645028624788,-4.01118416229385,34.978453784339074,36.433610707452644
-0.0683,0.98,-0.0498,-0.1067,0.2016,-0.0923,-4.1825,2.5725,37.0037,-2.8725206203795532,-3.9821686514807366,34.49367702190546,36.4428429054066
-0.058,0.9853,-0.0488,-0.1165,0.1938,-0.0929,-4.3488,2.17,37.8263,-2.8482199748476478,-3.37646284988645,33.74184695628406,36.455080186271964
-0.0498,0.9872,-0.0494,-0.1165,0.1938,-0.0929,-5.3725,1.9687,39.6813,-2.8605158012125607,-2.8933080492778487,33.553966644664996,36.4666991795568
-0.0351,0.9855,-0.0476,-0.1249,0.1911,-0.0954,-6.1863,2.3013,40.8013,-2.7853636001330373,-2.052827213343828,33.33450947975424,36.478968666586916
-0.0184,0.9855,-0.051,-0.1316,0.1849,-0.0926,-6.5975,2.0038,41.1862,-2.928045917823425,-1.0857851239495802,32.482788762328525,36.491158169075995
0.0182,0.9796,-0.0411,-0.1316,0.1849,-0.0926,-6.8338,1.7675,40.7837,-2.500078864399438,1.0247796260095483,32.88884956489621,36.503523920686476
0.0371,0.9748,-0.0433,-0.1421,0.1802,-0.0909,-7.1312,1.9687,35.9975,-2.535752269312452,2.1547403573067823,32.25577991103106,36.51557468892738
0.0516,0.9659,-0.0432,-0.1421,0.1802,-0.0909,-8.4525,1.9075,32.8125,-2.5572704079708024,3.0359791645679715,32.17225748876673,36.52777799405849
0.0673,0.9605,-0.0361,-0.1482,0.177,-0.091,-8.0325,1.54,28.0088,-2.2139148142277376,3.982575507076389,32.0990818742672,36.53998094527571
0.0858,0.9518,-0.0365,-0.155,0.1748,-0.0905,-7.9275,1.1812,23.4237,-2.1988707129984983,5.116777838414972,32.031048574309594,36.54872014116918
0.0952,0.9413,-0.0326,-0.155,0.1748,-0.0905,-7.7175,0.4812,18.41,-2.017879675983327,5.751919248004686,31.927075960896094,36.560952821153855
0.1138,0.9403,-0.0326,-0.1582,0.1722,-0.0893,-7.84,0.1837,12.6787,-1.990681730627705,6.854923720111328,31.71202449688337,36.573166035874124
0.1202,0.9462,-0.0293,-0.1582,0.1722,-0.0893,-7.805,-0.1663,7.5075,-1.8077955877359315,7.21923583728787,31.808973248335867,36.58534562877405
0.1263,0.9464,-0.0258,-0.1612,0.1697,-0.0966,-8.225,-0.8663,1.7762,-1.597901066400284,7.575718779508653,33.171783316583955,36.59752168253498
0.1227,0.9346,-0.031,-0.1638,0.1685,-0.0851,-8.435,-1.26,-3.395,-1.8565561107217845,7.484099122616444,30.632461288767097,36.609752239036276
0.1098,0.9288,-0.0281,-0.1638,0.1685,-0.0851,-8.33,-1.3037,-7.175,-1.7508721245837706,6.8366197590576085,29.678514670960872,36.62221602479662
0.0975,0.931,-0.0214,-0.1666,0.1685,-0.0859,-7.8225,-1.6275,-9.2137,-1.3848762692279155,6.130686288767934,29.181188183922696,36.634380399398914
0.1014,0.9354,-0.0237,-0.1666,0.1685,-0.0859,-6.7375,-2.17,-9.8262,-1.4388048066954544,6.174012459951775,29.038696841038966,36.643822114380725
0.1011,0.9317,-0.0201,-0.1645,0.1684,-0.0866,-6.6238,-1.89,-8.6625,-1.2750879935747843,6.188721236763507,29.56513533519924,36.65591570620333
0.104,0.9308,-0.0184,-0.1662,0.1663,-0.0866,-3.9725,-1.225,-10.22,-1.1889766384675475,6.333676217196556,29.601779043595386,36.66822872464295
0.1046,0.9384,-0.0185,-0.1662,0.1663,-0.0866,-4.2525,-1.0762,-11.3487,-1.150651110512042,6.351727107596687,29.608743741683224,36.680393099245244
0.0928,0.96,-0.0177,-0.1655,0.167,-0.0855,-3.3513,-0.2625,-11.9962,-1.1058724717353434,5.816214940440189,29.271485728154257,36.692620824435345
0.0895,0.9639,-0.0153,-0.1655,0.167,-0.0855,-2.6425,0.1837,-12.0487,-1.0739503536577868,5.489786685064057,29.1583144429494,36.70473671283355
0.0887,0.9705,-0.0187,-0.167,0.1678,-0.0843,-2.135,0.315,-12.18,-1.0810901004912707,5.323400888424909,28.75506982457183,36.71688693087991
0.0876,0.9715,-0.0207,-0.167,0.1667,-0.0858,-1.7587,0.7,-12.3375,-1.1380540445135034,5.220959781476577,28.69336802069905,36.72908315773305
0.0805,0.9763,-0.0203,-0.167,0.1667,-0.0858,-1.7237,0.8225,-13.23,-1.1603739676500917,5.034931529249156,28.617148165604632,36.741265228030265
0.0763,0.9784,-0.0149,-0.1653,0.1662,-0.0843,-1.8987,0.7437,-13.86,-1.0582412041234754,5.0059935381986955,28.53615635819818,36.753446944413575
0.0718,0.9778,-0.0221,-0.1653,0.1662,-0.0843,-1.7762,0.6737,-14.105,-1.1533310446795777,4.820698999007455,28.323609790094007,36.76554159797788
0.0726,0.9748,-0.0237,-0.168,0.1666,-0.0849,-2.2225,0.28,-14.4637,-1.1974677448734132,4.597713006467258,27.969044827667485,36.777736409175425
0.0629,0.9793,-0.0239,-0.166,0.1679,-0.0854,-2.2225,0.0438,-14.9888,-1.234444094377251,4.097366598619162,27.83405826139736,36.789825754031256
0.0628,0.9822,-0.0287,-0.166,0.1679,-0.0854,-2.2838,0.0175,-13.51,-1.296569796642635,3.9964576671528413,27.641571788218748,36.79929118124426
0.0601,0.9827,-0.0221,-0.1681,0.1652,-0.0847,-2.4763,-0.4025,-12.7225,-1.2963466260978753,3.737555980831829,27.371764752204403,36.81155748304929
0.0658,0.9798,-0.0241,-0.1681,0.1652,-0.0847,-2.8175,-0.35,-12.2237,-1.3267127954960214,3.800873150716564,27.299492241046146,36.82386306929705
0.0702,0.979,-0.0239,-0.1655,0.1661,-0.0824,-2.9925,-1.0675,-12.005,-1.35199253592586,3.9933812121700667,27.16234830913275,36.83606779008375
0.0709,0.9788,-0.0229,-0.1668,0.168,-0.0835,-2.765,-1.8112,-12.7575,-1.349169038383091,4.0694340555771085,27.268015101823536,36.848207390713156
0.0816,0.9755,-0.0275,-0.1668,0.168,-0.0835,-2.625,-2.975,-13.0288,-1.3890109690419605,4.380315509342788,27.356686316272224,36.86037495054053
0.0878,0.9703,-0.0241,-0.1661,0.1658,-0.085,-3.0625,-3.0713,-13.4225,-1.4018653145349205,4.599368703245216,28.100426387720255,36.8725895809164
0.0822,0.9707,-0.0278,-0.1661,0.1658,-0.0846,-3.6225,-2.9313,-13.65,-1.530705513530259,4.63182094463115,27.867804383248565,36.88482863135125
0.0803,0.9721,-0.0242,-0.1672,0.166,-0.0846,-3.6488,-3.115,-13.3525,-1.4736194606999802,4.659606068633627,27.78432827442298,36.89705494088576
0.0831,0.9746,-0.0273,-0.1669,0.1654,-0.0836,-4.2613,-2.87,-13.16,-1.557982549390468,4.742925693917616,27.50503975445645,36.90924302771924
0.0903,0.9704,-0.0209,-0.1669,0.1654,-0.0836,-3.9113,-3.7362,-12.6087,-1.3654436499575284,5.054829620827232,27.888614930687122,36.92148455555139
0.0963,0.9667,-0.0263,-0.1675,0.1642,-0.0827,-3.8063,-4.1125,-13.3875,-1.4765628635301995,5.241631610092801,27.567784728436525,36.93371405031098
0.1058,0.9697,-0.0257,-0.1653,0.1636,-0.0831,-3.85,-3.6138,-14.8662,-1.5008367814005348,5.747168763604836,28.154993068538207,36.94594389898448
0.1097,0.9704,-0.0224,-0.1653,0.1636,-0.0831,-3.43,-3.5175,-16.2925,-1.4124222842073166,6.246910263067255,28.490841365545833,36.958113936209145
0.1062,0.9648,-0.0245,-0.1659,0.1656,-0.0826,-3.6225,-3.8325,-17.2375,-1.4352250365556376,6.272155611327981,28.19355371370985,36.97192224086955
0.0985,0.9646,-0.0283,-0.1659,0.1656,-0.0826,-3.5613,-2.975,-18.9088,-1.5644059294472723,5.900834771837104,27.800284580463796,36.982396676606925
0.0886,0.9644,-0.0276,-0.1663,0.1665,-0.0745,-3.2725,-2.8263,-19.1275,-1.5982348656463898,5.3503868222203055,25.486364336929547,36.99462794093601
0.0853,0.9657,-0.027,-0.166,0.1665,-0.0827,-3.675,-2.0738,-18.8213,-1.600041817281849,5.096492556111874,26.94050478297821,37.00682876866984
0.0805,0.9713,-0.0249,-0.166,0.1665,-0.0827,-3.9375,-2.2838,-18.8825,-1.5213488837905884,4.795518907120472,27.264826800880595,37.015610434231114
0.0801,0.9739,-0.0242,-0.1642,0.167,-0.0813,-3.5525,-1.785,-18.3838,-1.4699668205658938,4.71742216412331,27.24786986182452,37.0279100039426
0.0768,0.9738,-0.0248,-0.1642,0.167,-0.0813,-3.2025,-1.645,-18.9437,-1.465188134591701,4.542057054921461,27.151496718434355,37.040155424827624
0.0691,0.9754,-0.0267,-0.1634,0.1666,-0.0838,-2.8263,-0.9187,-18.1912,-1.4933749064825115,4.141967263715273,27.498231072822154,37.05248578504827
0.073,0.975,-0.0282,-0.1628,0.1678,-0.0801,-2.415,-0.9187,-17.2112,-1.498673346747659,4.248708559544703,26.95335985072448,37.06464343528649
0.0706,0.9793,-0.0272,-0.1628,0.1678,-0.0801,-2.7738,-1.155,-16.3712,-1.5213284310948412,4.1574561901198805,26.753816638820584,37.07690513621084
0.0675,0.9787,-0.0279,-0.161,0.1675,-0.0847,-2.66,-0.5862,-16.24,-1.5408042412597347,4.006031322362809,27.668175151039275,37.08919090328028
0.0631,0.9806,-0.0327,-0.161,0.1675,-0.0814,-2.6688,-0.0175,-15.5662,-1.6074357048908898,3.798022661354682,27.230320399404654,37.10144127895989
0.0658,0.9838,-0.0273,-0.163,0.1665,-0.0814,-2.2488,0.2013,-14.245,-1.6044537773445242,3.806230670965106,27.066535892301946,37.11367572851406
0.0678,0.985,-0.0262,-0.161,0.1687,-0.0806,-2.6075,0.6563,-13.0812,-1.593370196814629,3.860901304397478,27.066656614988645,37.12591265546553
0.0761,0.9789,-0.0238,-0.161,0.1687,-0.0806,-3.2813,0.8925,-13.2212,-1.5022163581933516,4.076309520195946,27.13090943565399,37.13818851294582
0.0755,0.9746,-0.0257,-0.1624,0.1673,-0.0806,-3.2987,0.7788,-13.825,-1.5060355360076485,4.082486901386019,27.123169155037836,37.15034510144234
0.0765,0.9684,-0.0242,-0.1633,0.1667,-0.082,-2.5113,0.5775,-15.47,-1.5016333620293794,4.352807218803692,27.250553256333475,37.162584505791095
0.0692,0.9676,-0.03,-0.1633,0.1667,-0.082,-2.4325,0.0875,-15.75,-1.5059590772508518,4.178450379923077,27.116267268536465,37.174803383133735
0.065,0.9692,-0.0292,-0.1611,0.1672,-0.0811,-1.7237,-0.2187,-15.855,-1.5982935482299099,3.9477502797789312,27.03384306274571,37.18703712486011
0.0648,0.975,-0.0301,-0.1611,0.1672,-0.0811,-2.3275,-0.2888,-15.995,-1.6166434757469614,3.846737722299872,26.96576693087896,37.19589382016785
0.0656,0.9792,-0.0272,-0.1619,0.1683,-0.0846,-2.4325,-0.8663,-15.9425,-1.6162411834266186,3.8361844205771236,27.66400972704707,37.2080673965315
0.0703,0.9794,-0.0336,-0.1598,0.1675,-0.0835,-2.0125,-1.05,-16.3362,-1.7220936695108453,4.027514064390863,27.776426193731066,37.220340068786705
0.0708,0.98,-0.0292,-0.1598,0.1675,-0.0835,-1.8112,-0.9538,-16.8087,-1.7160921430198104,4.104630112564386,27.974769117363806,37.23264140806768
0.0712,0.9719,-0.03,-0.1619,0.1677,-0.08,-1.8025,-0.7437,-17.2462,-1.7364682269758898,4.169168134020307,27.11325746761199,37.24497318394391
0.0716,0.9692,-0.032,-0.1619,0.1677,-0.08,-2.5813,-0.6125,-17.8412,-1.7545860615650661,4.2121291076049,26.759329326209567,37.25713578897671
0.0634,0.9678,-0.0339,-0.1606,0.1677,-0.0802,-2.7913,-0.6913,-18.2,-1.8187984433168911,3.832243864304018,26.578931568520535,37.26935537414715
0.0651,0.9736,-0.0368,-0.1576,0.169,-0.0793,-2.73,-0.7613,-17.815,-1.8947591306909597,3.824589990718866,26.56269639551119,37.28161495158812
0.0672,0.9866,-0.0349,-0.1576,0.169,-0.0793,-3.5788,-0.8838,-17.8412,-1.9643589468374278,3.8803115715886083,26.66634109792775,37.29385789507585
0.0656,0.9875,-0.0354,-0.1601,0.167,-0.0797,-4.3925,-0.6388,-17.255,-2.0229340878129305,3.816632764234593,26.486978484837653,37.306162419581916
0.07,0.9853,-0.0326,-0.1601,0.167,-0.0797,-4.4538,-0.4725,-17.6837,-1.9375819122567903,4.011285991662497,26.589568341535056,37.31838943694422
0.0684,0.9822,-0.0321,-0.1589,0.1693,-0.0741,-4.5237,-0.0438,-17.955,-1.8932312534908673,3.9872892513546168,25.77002729071165,37.33067838923875
0.0663,0.9781,-0.0267,-0.1583,0.1686,-0.0791,-4.305,0.245,-17.9813,-1.6790380851557236,3.8978257230271462,26.319779250415777,37.34323206912929
0.0584,0.9794,-0.0246,-0.1583,0.1686,-0.0791,-4.48,0.3938,-18.025,-1.5180610826662353,3.504573413220186,26.53748453217384,37.35540706114853
0.053,0.9795,-0.0293,-0.1589,0.1681,-0.0785,-4.1388,0.525,-18.6637,-1.6407846337140137,3.1656211841928608,26.401847952493334,37.367521179977246
0.053,0.98,-0.0247,-0.1589,0.1681,-0.0785,-4.5763,0.5163,-18.2437,-1.5067668416264772,3.107706630871764,26.404847874051814,37.37960096915782
0.0456,0.9798,-0.0223,-0.1571,0.1695,-0.079,-4.0862,0.6913,-17.9288,-1.3807568689209273,2.750585145370227,26.50841918205122,37.389118775627786
0.0415,0.9807,-0.0214,-0.1557,0.1686,-0.0793,-4.0338,0.3325,-17.1763,-1.3006151802784958,2.497627483766149,26.723236846760713,37.40133800688433
0.0391,0.9801,-0.0237,-0.1557,0.1686,-0.0793,-3.57,0.1925,-16.9925,-1.3453350693084027,2.334944883091973,26.766411913557242,37.413461681388306
0.0423,0.9801,-0.0136,-0.1557,0.1698,-0.0816,-4.1737,-0.0613,-16.5375,-0.9969405427708681,2.4345638356173933,27.501561302085708,37.425674896108575
0.0421,0.9808,-0.0179,-0.1557,0.1698,-0.078,-4.1737,-0.4375,-16.66,-1.0277161355237578,2.4515134908150076,27.079871300776016,37.437499867282284
0.0426,0.9784,-0.015,-0.1604,0.1662,-0.078,-3.64,-0.7962,-16.5987,-0.946503274451579,2.481924352118275,26.537851311961855,37.44969609413543
0.0342,0.9805,-0.0148,-0.1564,0.1677,-0.0778,-3.5525,-1.3912,-16.485,-0.9036204082187196,2.1291761247706926,26.568211306411342,37.46193974545097
0.0254,0.9811,-0.0155,-0.1564,0.1677,-0.0778,-3.2462,-1.5925,-15.7937,-0.9042846726849239,1.6992488363349068,26.37915063091729,37.474163577588186
0.0134,0.9837,-0.0066,-0.1556,0.1699,-0.075,-3.0888,-2.24,-15.6887,-0.7013549260369033,1.099283764712362,25.879112393006682,37.486402274109146
0.0088,0.9817,-0.0071,-0.1548,0.1686,-0.0766,-2.2925,-3.4563,-14.9888,-0.6626218711191164,0.782042982386194,26.13158131641375,37.49867211505316
-0.0035,0.9819,-0.006,-0.1548,0.1686,-0.0766,-2.4237,-4.9875,-14.5775,-0.6550510340581368,0.3528714746619259,25.960684779934027,37.51095257341413
-0.0262,0.9783,-0.004,-0.1558,0.17,-0.0758,-2.1175,-9.7737,-15.0237,-0.5504014619243405,-0.6827792785047275,25.175864696175292,37.5232769170985
-0.0354,0.9781,0.0024,-0.1558,0.17,-0.0758,-0.875,-12.9325,-15.4263,-0.1279107188775021,-1.5420729138418967,25.214836192844913,37.53551030491098
-0.0362,0.9786,-0.0021,-0.1548,0.1699,-0.0766,-0.7788,-16.9837,-15.26,-0.12480946793725757,-1.8834946347690011,25.334103574712437,37.547831463370265
-0.0395,0.9845,-0.0084,-0.1524,0.1692,-0.0754,-1.7413,-20.895,-15.0412,-0.2756150287897321,-2.1121849856073562,24.94959504787656,37.56013528004853
-0.0368,0.9855,-0.0124,-0.1524,0.1692,-0.0754,-1.2163,-25.6025,-15.1812,-0.5214104568803462,-2.1273258448131602,24.794593332757344,37.57246280895799
-0.0411,0.9861,-0.0108,-0.1511,0.1702,-0.0742,-1.0237,-30.415,-15.7762,-0.5837438040512234,-2.2992259210677886,24.592194470563946,37.58474716037183
-0.0499,0.9854,-0.0163,-0.149,0.1706,-0.065,-1.4525,-34.5013,-16.3013,-0.7653457366595399,-2.727027376603116,21.625146447849946,37.59706584143383
-0.0698,0.9895,-0.0231,-0.149,0.1706,-0.065,-1.5312,-39.6813,-17.4387,-1.0390081945453258,-3.7517366855621015,20.802422453797906,37.609418852143975
-0.131,1.0055,-0.048,-0.1466,0.17,-0.0661,-3.185,-52.815,-18.9088,-1.7574976692690487,-6.814238159741781,19.085886314772623,37.62165259387035
-0.1614,1.0287,-0.0582,-0.1466,0.17,-0.0661,-4.4625,-61.8538,-19.5475,-2.746873321793606,-8.592972894512478,18.198069630530547,37.63399357150795
-0.1771,1.0523,-0.0722,-0.1444,0.1712,-0.0584,-5.6963,-71.8988,-19.425,-3.647651821653225,-9.389466960581688,15.237264826237254,37.64628606294146
-0.1674,1.0793,-0.0756,-0.1401,0.1698,-0.0552,-10.1675,-81.9088,-19.0575,-3.9655743159979835,-8.89023181131059,14.683528564773521,37.65865606151873
-0.0831,1.0877,-0.0748,-0.1401,0.1698,-0.0552,-15.3562,-90.9738,-18.3137,-3.9362494947489775,-5.18158394214612,15.845094169316457,37.67096483299157
-0.0369,1.0623,-0.0789,-0.1354,0.1703,-0.0456,-20.9387,-98.0875,-17.4475,-4.231738056469382,-2.6730507732554654,13.118155039910919,37.6833206750129
0.0021,1.031,-0.0797,-0.134,0.17,-0.0346,-25.585,-102.2175,-16.485,-4.4125626358362675,-0.6420741391827424,9.13325306079196,37.69569633621254
0.0079,0.9834,-0.0831,-0.134,0.17,-0.0346,-30.1437,-104.9825,-14.0963,-4.8156221030015445,-0.39517839303278335,8.649463492702425,37.71132977484705
-0.017,0.9794,-0.0788,-0.13,0.1692,-0.0226,-30.4587,-106.4963,-13.3175,-4.607395992337246,-0.591090672221499,3.899283653680574,37.723717469119244
-0.0416,0.998,-0.0853,-0.13,0.1678,-0.0098,-30.4412,-108.675,-12.2325,-4.875667642936639,-1.6841008439128977,1.8415969220959327,37.736192226210434
-0.0273,1.0209,-0.0838,-0.1281,0.1678,-0.0098,-30.3625,-111.4488,-11.0162,-4.698903741283357,-1.5681876942780364,1.7128095616134211,37.748465606293436
0.045,1.0285,-0.0683,-0.1258,0.1667,0.0023,-32.865,-113.505,-9.835,-3.8279200809535094,1.6816164722451763,6.386179187163516,37.76075172727678
0.0744,1.0127,-0.0661,-0.1258,0.1667,0.0023,-35.5687,-114.1438,-8.8725,-3.737197995154138,3.769749509647832,6.618967318514263,37.77300281078418
0.0878,0.9935,-0.0586,-0.1302,0.1663,0.0162,-37.7212,-113.33,-8.47,-3.3855576482950083,4.840939200575279,12.649379380544621,37.78530521180685
0.0871,0.9726,-0.0512,-0.1266,0.1655,0.029,-38.3862,-109.2,-8.2862,-3.0234810223416964,5.069046691268771,18.60713429425925,37.7975902710485
0.0019,0.9561,-0.0531,-0.1266,0.1655,0.029,-37.6425,-108.4475,-8.6887,-3.1745421712996302,0.9235923533663035,16.81968657685981,37.80987603811794
-0.0503,0.9721,-0.0534,-0.1273,0.1659,0.0399,-36.3037,-110.7663,-8.365,-3.1451163132849143,-2.3551296212435475,19.82300877516847,37.82229841595217
-0.0784,1.0057,-0.0508,-0.1294,0.1611,0.0522,-36.7938,-115.29,-7.735,-2.8988419430488093,-4.15538383855734,23.0699200696979,37.83449676628871
-0.0864,1.0421,-0.0439,-0.1294,0.1611,0.0522,-39.095,-121.66,-7.2975,-2.425168452291294,-4.65811535006018,22.53507954560246,37.84679704382799
-0.063,1.0307,-0.0671,-0.131,0.1624,0.0714,-42.665,-128.625,-5.7488,-3.6932472379931385,-3.619308038647507,30.177363796334113,37.85914085277677
-0.0274,1.0138,-0.0584,-0.131,0.1624,0.0714,-45.64,-135.1962,-4.4888,-3.305852007131329,-1.7465701872682011,30.800830412475324,37.87146342689165
0.0242,1.0054,-0.0623,-0.1366,0.161,0.0877,-48.7638,-141.0762,-4.095,-3.5407497630298876,1.084688133253775,36.23793241709863,37.88370990951837
0.0812,1.0025,-0.068,-0.1449,0.162,0.105,-53.4538,-145.4075,-3.1238,-3.873920927999638,4.317529803090096,41.21043723909227,37.89599496876002
0.1753,0.9699,-0.0568,-0.1449,0.162,0.105,-55.4575,-144.2,-3.5525,-3.361241301329255,9.70274941750767,44.805339798874854,37.908320020272186
0.2212,0.95,-0.044,-0.1482,0.1627,0.1205,-55.055,-140.6387,-4.5763,-2.6650383396201818,12.762323532644677,49.581819243207136,37.92055588548195
0.2462,0.9456,-0.0388,-0.1526,0.1626,0.1408,-55.265,-135.7738,-6.4575,-2.3555113203608813,14.364057755835843,53.67076843986773,37.93281227769783
0.2569,0.9337,-0.0334,-0.1526,0.1626,0.1408,-54.6263,-129.5525,-7.5425,-2.0544613611420113,15.235359563310693,54.26853844665822,37.94507220905269
0.2722,0.9255,-0.0015,-0.1613,0.1628,0.1544,-53.8825,-122.465,-8.785,-0.13027264919305828,16.197587295118957,54.85031947539704,37.95739372142587
0.2819,0.913,0.0156,-0.1613,0.1628,0.1544,-53.2525,-115.1238,-9.7912,0.9574799047947546,16.965214492663474,55.20543083814954,37.96965648409192
0.2913,0.906,0.0383,-0.1682,0.1652,0.161,-51.03,-107.8525,-11.0775,2.391154350312749,17.5826900246258,55.043227812937204,37.982250510166885
0.2859,0.8929,0.0537,-0.1746,0.1674,0.1793,-47.005,-91.49,-11.865,3.418626487388596,17.67641021953682,56.40225725226182,37.99419687380775
0.2993,0.8784,0.0722,-0.1746,0.1674,0.1793,-44.4412,-83.9738,-12.4162,4.669080122981623,18.304969881697154,57.037681189865594,38.00642636856735
0.3089,0.8714,0.0813,-0.178,0.1683,0.1896,-40.46,-75.4075,-12.215,5.3132141330268725,19.002553911718092,58.454485271016665,38.01865727898254
0.3179,0.8682,0.1015,-0.178,0.1683,0.1896,-35.9888,-67.095,-12.7137,6.628871070350151,19.51594330904721,58.694834485062486,38.030879695464165
0.2984,0.8673,0.116,-0.1841,0.1715,0.199,-32.6025,-58.3013,-12.6962,7.586259109429604,19.155149389388207,57.59066271344898,38.043133256368854
0.2747,0.8601,0.1205,-0.1875,0.1706,0.2046,-27.9825,-50.715,-12.215,7.960569781167798,18.170326509406408,56.34296558672428,38.055374784201
0.2394,0.8707,0.1206,-0.1875,0.1706,0.2046,-23.625,-43.9425,-12.145,7.88919191079693,16.33765764255164,54.27903458150156,38.06429022921587
0.2258,0.8849,0.1268,-0.1897,0.1718,0.209,-19.4425,-37.9925,-11.6812,8.139827237125095,14.86740726030793,53.527549534461265,38.07657493454362
0.223,0.8966,0.1347,-0.1897,0.1718,0.2114,-15.5137,-33.1625,-11.7425,8.515161710451924,14.160443560124875,53.43686675224702,38.088807968442204
0.2195,0.909,0.1303,-0.1939,0.1728,0.2114,-12.4862,-29.1375,-12.7925,8.189863916932465,13.799227081537172,52.51298728045182,38.10106223717469
0.2072,0.9105,0.1311,-0.1947,0.1717,0.213,-7.8663,-21.1138,-12.5037,8.19295330726368,13.17365253150319,51.96189103744363,38.113293501503776
0.1938,0.9169,0.1276,-0.1947,0.1717,0.213,-6.055,-18.3225,-13.5975,7.981335992724862,12.939744447389257,51.394360162819005,38.12550353099896
0.1815,0.9227,0.1288,-0.1967,0.173,0.2128,-4.2962,-15.575,-14.7788,7.958790309842894,11.995673582721254,50.436671010869745,38.13769020217685
0.1734,0.9323,0.119,-0.197,0.1725,0.2206,-2.4063,-13.4575,-15.7675,7.931044273657937,10.974258690814064,51.277041395696735,38.150006759755456
0.1695,0.9404,0.1186,-0.197,0.1725,0.2206,-1.8112,-12.4075,-15.8375,7.641814212314696,10.414496263028871,51.15301673110807,38.16213397339841
0.1667,0.9487,0.1168,-0.1986,0.1724,0.2165,-1.5575,-10.7012,-15.785,7.348210249789577,10.067952011262582,50.23790691069588,38.17437090034988
0.1668,0.9544,0.1125,-0.1986,0.1724,0.2165,-1.2687,-9.5113,-16.5462,7.009667156289084,9.905804890204111,50.24535056109251,38.186529258415895
0.1728,0.9549,0.1111,-0.1992,0.1718,0.2126,-1.2775,-8.6712,-17.3425,6.8083147255930765,10.127365009547054,49.86633900120982,38.19536790411481
0.1724,0.9575,0.1093,-0.1971,0.1734,0.2172,-1.9075,-6.825,-17.5963,6.704356690818223,10.139249211270593,50.79174562781744,38.20762465024459
0.1743,0.9499,0.1102,-0.1971,0.1734,0.2172,-2.2488,-5.0662,-17.4037,6.689885108317679,10.288448623692123,50.971105471314935,38.219763189132294
0.1672,0.9402,0.1143,-0.2014,0.1712,0.2171,-2.345,-3.3863,-17.745,6.712545318561195,10.067623104205163,50.07375599536371,38.23196118555493
0.1671,0.9389,0.1085,-0.2014,0.1712,0.2171,-1.645,-2.1088,-17.8937,6.658796037503028,10.034304545332452,50.03011793088705,38.24412803755451
0.1617,0.9408,0.1145,-0.1984,0.1736,0.2177,-0.9363,0.2713,-17.1763,6.827495583334405,9.762902346775835,50.139515328860085,38.25628781127612
0.1564,0.9444,0.1132,-0.1984,0.1736,0.2177,0.1312,3.7275,-16.8875,6.832988598048639,9.441855891322225,50.092953200411856,38.2684093622967
0.1515,0.9512,0.1064,-0.1989,0.1729,0.2146,0.6125,5.9588,-16.9312,6.493429620055859,9.102943631505326,49.58322136291732,38.27722040271154
0.1439,0.9561,0.1147,-0.195,0.173,0.2161,1.0325,7.1312,-16.4937,6.763344199598904,8.662929479882395,49.804208026525934,38.289299484064315
0.1412,0.9561,0.1141,-0.195,0.173,0.2161,0.8138,8.05,-15.96,6.795559582364849,8.444165700310545,49.75700739352915,38.30143483772694
0.1298,0.9513,0.1206,-0.1957,0.1722,0.2157,0.3063,8.47,-15.19,7.110678990981812,8.01739724270921,49.06249887096987,38.31356311311159
0.1242,0.949,0.12,-0.1957,0.1722,0.2157,1.54,8.8462,-14.385,7.187483648772068,7.790529507372328,48.805880456935675,38.32234300910337
0.1268,0.9481,0.1206,-0.195,0.1736,0.2158,1.8112,9.17,-13.2737,7.237461337507426,7.709437593558729,48.97478671796799,38.33446986883243
0.1435,0.9475,0.1227,-0.1949,0.1726,0.2131,2.1875,9.3887,-12.1887,7.35361058450391,8.223917624158833,49.18151761666657,38.34657867895267
0.1606,0.9481,0.1186,-0.1949,0.1726,0.2131,2.5113,10.5437,-12.25,7.167705024255168,9.026043394163974,49.92502329041351,38.35872748134343
0.1792,0.9457,0.1205,-0.1951,0.1709,0.2121,3.4388,12.7662,-11.7775,7.2478241029416175,10.11105503164343,50.481427674542715,38.37090034987928
0.186,0.9314,0.1209,-0.1951,0.1709,0.2121,4.2788,15.0587,-12.2237,7.376739156857129,10.779591185934843,50.85514058164555,38.38303145657512
0.1951,0.9235,0.1202,-0.1943,0.169,0.2098,5.4862,18.13,-11.8387,7.411391373210782,11.477488787056428,51.088854180558876,38.391852052665215
0.205,0.9254,0.1094,-0.1943,0.169,0.2098,6.79,20.9475,-11.7337,6.80752898717606,12.104621927449662,51.75351606122814,38.40401182638683
0.2403,0.9387,0.1107,-0.1923,0.1704,0.2101,8.6975,24.7712,-11.83,6.732503780662596,13.538779655329668,53.62104889175291,38.41617124619454
0.276,0.9396,0.1135,-0.1923,0.1675,0.2033,9.7912,29.2687,-12.4687,6.876009327546165,15.095075056733409,54.1499879902996,38.42834411473039
0.3081,0.9328,0.1033,-0.1923,0.1675,0.2033,11.4362,36.5662,-13.5712,6.3566938713697585,15.682905080483653,55.96171396697875,38.44049362494895
0.3479,0.9074,0.0988,-0.1877,0.168,0.1993,13.0812,44.6075,-14.6825,6.222660267554202,18.10146448066154,58.907890064396504,38.45265516824005
0.3814,0.8876,0.0885,-0.1877,0.168,0.1993,15.3737,54.74,-16.66,5.722063799417852,21.84002625419003,61.34227769430522,38.461572382824414
0.3816,0.884,0.0863,-0.1845,0.1684,0.1986,18.5762,76.7463,-18.305,5.5824403379219865,22.993456610292395,62.15166621245609,38.47374029656569
0.3718,0.8571,0.0766,-0.1791,0.1674,0.1788,24.5963,89.3288,-18.1825,5.123972897310691,23.297952014212886,60.613911862335286,38.48592909122697
0.3508,0.8438,0.0673,-0.1791,0.1674,0.1788,30.275,101.0538,-17.8237,4.576875827859207,22.66723484947968,59.7726628438454,38.49816070946996
0.3068,0.8555,0.0486,-0.1716,0.1651,0.1705,35.945,112.2888,-17.4913,3.285061247559045,20.333123523524876,57.45670700994835,38.51013892536168
0.2884,0.8904,0.0339,-0.1716,0.1651,0.1705,41.3875,121.0825,-18.5412,2.204995078965509,18.35317868214329,56.06523191651731,38.52239814888875
0.2896,0.9189,0.0264,-0.1635,0.1628,0.1572,45.01,129.185,-19.0662,1.6571979005411643,17.62451556491247,55.27483840957914,38.53464994022394
0.2865,0.9392,0.0115,-0.1563,0.163,0.1372,47.635,137.4537,-19.0487,0.7202291386983741,17.06895445990337,53.12900393325568,38.54706807109139
0.2841,0.9346,-0.0018,-0.1563,0.163,0.1372,48.8862,145.1362,-19.495,-0.0944786079631652,16.93224492937777,53.37495838050883,38.55930145890387
0.2272,0.8994,-0.029,-0.1513,0.1622,0.1234,50.085,152.32,-20.195,-1.814056172420709,14.54387945563737,49.99441127190677,38.57151608927973
0.1901,0.8982,-0.0418,-0.1513,0.1622,0.1234,51.6162,158.9962,-20.79,-2.64903694514885,12.263996080766868,48.516116125099614,38.583722225722035
0.1651,0.9084,-0.0602,-0.1438,0.1618,0.1031,54.8888,163.695,-20.9387,-3.7718851287963626,10.523019346285777,44.9396699286099,38.5928181668251
0.1508,0.927,-0.075,-0.1362,0.1624,0.083,57.4087,167.4575,-21.4375,-4.611479258091016,9.36222340043673,41.18474426319816,38.60502041021452
0.1456,0.9627,-0.0936,-0.1362,0.1624,0.083,59.3338,171.3687,-21.84,-5.538216652766676,8.649296376604989,41.325681614324886,38.61725981456327
0.148,0.9762,-0.1104,-0.137,0.1621,0.0625,59.2638,173.6,-21.1575,-6.437680805295687,8.576917858535708,35.55311545994023,38.62951408329576
0.159,0.9788,-0.115,-0.137,0.1621,0.0625,58.3538,176.75,-20.2038,-6.696745419765086,9.085313033633698,36.168302114341174,38.641775076392314
0.1598,0.9654,-0.1326,-0.1329,0.162,0.045,57.1375,180.6,-19.285,-7.802223365705699,9.277773030484742,32.132931601514436,38.65400173984072
0.1478,0.9431,-0.1459,-0.1332,0.162,0.0203,57.26,183.7413,-19.25,-8.777752747337011,8.877307573709873,22.668939068245347,38.666243621586766
0.1138,0.9234,-0.1765,-0.1332,0.162,0.0203,58.6775,186.2787,-19.67,-10.788184590000228,7.189828211269678,23.90410382499387,38.67851841732536
0.1037,0.9354,-0.185,-0.1353,0.1649,-0.0058,59.9987,187.5213,-20.37,-11.181083154270123,6.336791354052772,12.741356238076285,38.69081161658667
0.0977,0.9476,-0.187,-0.1353,0.1654,-0.0218,61.285,188.5975,-21.2625,-11.163622628948557,5.842257650205741,5.196432584349189,38.70312003414561
0.0899,0.9505,-0.1966,-0.1357,0.1654,-0.0218,62.02,189.035,-22.1637,-11.678198077575345,5.350551499038964,5.790866821314732,38.71532652450181
0.0556,0.93,-0.2042,-0.1398,0.1674,-0.0496,62.6237,188.9212,-23.485,-12.373229808119246,3.53003990464126,5.476993553170098,38.727648036874996
0.0234,0.9167,-0.2169,-0.1398,0.1674,-0.0496,63.4287,187.6962,-23.485,-13.297879450559766,1.620293208258144,4.113827985361824,38.73984638721153
0.0048,0.922,-0.2258,-0.1474,0.1697,-0.0673,65.135,185.4212,-23.9312,-13.75427139877345,0.40933362174982235,9.655611084055531,38.75215551259827
-0.0021,0.9472,-0.235,-0.1546,0.1738,-0.0902,65.7125,181.65,-25.0862,-13.931126516204191,-0.07991365661626532,16.387611019146252,38.76445437448196
0.0122,1.0048,-0.2311,-0.1546,0.1738,-0.0902,65.31,178.1062,-24.7712,-12.96677999035868,0.614593177439022,17.804205673767946,38.77675712941853
0.0188,1.0144,-0.2354,-0.1613,0.1794,-0.1113,64.2338,175.6387,-24.5613,-13.063276906406706,0.9985666131707631,23.257729381498862,38.789028032104234
0.0276,1.0146,-0.2391,-0.1613,0.1794,-0.1113,62.2737,173.1975,-24.5963,-13.257349510876683,1.472747884428166,23.30637226850319,38.80128477823401
0.0146,1.0074,-0.2468,-0.1705,0.1835,-0.131,59.9375,171.185,-24.5088,-13.757584790861209,0.8634085085201171,26.49308746356305,38.81357479227024
-0.0275,0.9941,-0.2583,-0.183,0.1881,-0.1477,55.825,165.3925,-24.4125,-14.551627960146575,-1.3271304554847447,26.865149789430046,38.82589878204071
-0.029,1.0105,-0.261,-0.183,0.1881,-0.1477,54.1275,161.0087,-24.8062,-14.483501503448968,-1.5696092749517199,26.917589309515858,38.838221356155586
-0.021,1.0324,-0.2619,-0.1946,0.1914,-0.1597,51.765,156.6687,-24.4212,-14.239065422736195,-1.1674144554665558,28.421002030926164,38.85051951021148
-0.0159,1.0447,-0.253,-0.2031,0.1954,-0.1778,48.755,152.4337,-24.9375,-13.625478003549507,-0.8738387545365315,31.53316146342343,38.862841730412455
-0.0157,1.023,-0.2588,-0.2031,0.1954,-0.1778,46.2,148.9512,-25.6375,-14.185395663946615,-0.8540717247711892,31.072877018778662,38.875166074096825
0.0023,1.0236,-0.2584,-0.2159,0.2007,-0.1897,42.28,145.1362,-25.9175,-14.16825613494976,0.05015990478283317,32.03632166723202,38.88745042551068
0.0345,1.0372,-0.2602,-0.2159,0.2007,-0.1897,38.5088,141.8462,-26.285,-14.085057480468361,1.7145030444941758,33.006949615682636,38.899724513421475
0.0627,1.0418,-0.2489,-0.2282,0.2034,-0.2056,35.4813,140.21,-26.6525,-13.45350354248682,3.2319589002792735,35.561527559211086,38.91200143264346
0.0406,0.997,-0.2504,-0.2382,0.2066,-0.2104,28.035,140.315,-24.5613,-14.077942938224917,2.3442948517827804,33.9927089978509,38.9242871997129
0.0149,0.974,-0.2491,-0.2382,0.2066,-0.2104,26.0225,139.1163,-24.3687,-14.336774143655155,0.9784270127713817,33.07621389077562,38.937131442914044
-0.0069,0.9719,-0.249,-0.2529,0.2101,-0.2193,25.4013,136.2637,-23.8787,-14.368893914849052,-0.27007526513394636,32.19402485667976,38.94889306349994
-0.0159,0.9744,-0.2471,-0.2659,0.2132,-0.2266,24.9463,132.3612,-23.6863,-14.234676243139953,-0.8477061462963619,31.77611630984598,38.961195110608706
-0.0126,0.9709,-0.2427,-0.2659,0.2132,-0.2266,24.395,128.205,-23.5725,-14.042031497913543,-0.7330689832812707,31.988082020565646,38.97348618638663
-0.0039,0.9758,-0.2336,-0.2772,0.2138,-0.234,23.9225,124.0313,-23.555,-13.484021568110546,-0.2701870040744622,32.57567987288388,38.98579920482625
-0.0009,1.0021,-0.2417,-0.2772,0.2138,-0.234,23.1262,120.2075,-23.59,-13.557500496456761,-0.0704415313355702,32.58872172181194,38.99798516817634
0.0037,1.0144,-0.2295,-0.289,0.2167,-0.2395,21.2712,116.6375,-22.785,-12.78084698092206,0.1763443357431993,32.81730248913037,39.01010176440235
0.0032,1.0121,-0.2272,-0.3008,0.2181,-0.2456,16.8525,108.71,-22.505,-12.658562194565302,0.17671272742541033,32.6050158135844,39.02236806620738
0.0096,0.9972,-0.2212,-0.3008,0.2181,-0.2456,14.4812,105.385,-22.9425,-12.515363160796067,0.5027854896164176,32.83962420716601,39.034675775938524
0.0128,0.9898,-0.2212,-0.311,0.2215,-0.255,12.5825,102.4363,-22.435,-12.592316047290648,0.7001884385921306,33.10598086497288,39.046967205630345
0.0146,0.9837,-0.214,-0.3222,0.221,-0.2536,10.8238,98.6475,-21.2275,-12.295593371862594,0.8153642917809509,32.261555656189465,39.059737126912815
0.0173,0.9719,-0.211,-0.3222,0.221,-0.2536,10.3863,95.3838,-20.7987,-12.252241800491,0.9738847463596575,32.33154232130265,39.07194149378562
0.0129,0.9603,-0.1981,-0.3314,0.2215,-0.2551,10.7712,91.8925,-20.0287,-11.697951489135145,0.7842381173199691,32.03239532220826,39.08418443727336
0.0113,0.9625,-0.1967,-0.3314,0.2215,-0.2551,9.7388,88.7075,-20.2038,-11.561340627672594,0.6759461193145424,32.055321102400335,39.09639588242414
0.0103,0.9683,-0.2011,-0.3395,0.2253,-0.2586,9.8787,84.9275,-21.0088,-11.719753526334719,0.6063723939676772,31.639933664464355,39.10852628129218
0.0116,0.977,-0.1884,-0.3488,0.2262,-0.261,9.8175,80.7275,-22.1637,-10.975358373102864,0.6613608547652426,31.698619112344147,39.12070835158939
0.0069,0.9822,-0.1828,-0.3488,0.2262,-0.261,8.4962,72.8525,-24.0538,-10.579063825417037,0.4193251359398032,31.810676653407615,39.132870956622185
-0.0087,0.9823,-0.1789,-0.3551,0.2246,-0.2613,6.685,68.775,-23.905,-10.34717302871045,-0.4164618042191468,31.251323930470203,39.14513230363264
-0.032,0.9686,-0.1733,-0.3551,0.2246,-0.2613,6.7025,63.5687,-23.87,-10.163938751423368,-1.7319315398222128,30.91145783422736,39.15730764956578
-0.0499,0.9672,-0.1731,-0.3634,0.2258,-0.2663,6.58,57.6275,-23.8962,-10.148520961809432,-2.8012935122368163,30.565929082760245,39.16956014872878
-0.0591,0.9801,-0.1762,-0.3671,0.2275,-0.2637,5.6875,50.7238,-22.6537,-10.18691062777888,-3.3359944038693174,29.840993858749073,39.18175212861514
-0.0653,1.0134,-0.1719,-0.3671,0.2275,-0.2637,4.4713,43.4263,-22.2862,-9.697935768663863,-3.6035117011061195,30.061555786013326,39.19118747314678
-0.0657,1.0189,-0.1664,-0.3675,0.2268,-0.2619,2.1613,36.4175,-20.8425,-9.350625742344704,-3.636590137206764,30.047138881520958,39.20342793923723
-0.0731,1.0164,-0.1719,-0.3675,0.2268,-0.2619,0.2362,29.0412,-20.7987,-9.531875282709398,-4.003738764262604,29.769795256060966,39.21556364681375
-0.0681,1.016,-0.1644,-0.3706,0.2275,-0.2634,-0.8925,22.4175,-21.0963,-9.324618397193788,-3.8118881872722383,29.99129193780846,39.227890821809304
-0.0483,1.0257,-0.1618,-0.3732,0.2286,-0.2632,-2.7738,15.8987,-21.2362,-9.236184306336717,-2.7994521031140955,30.205137594384,39.24017517322316
-0.0361,1.0204,-0.1553,-0.3732,0.2286,-0.2632,-6.0988,3.6488,-21.2187,-8.778985420150878,-2.0978029500993918,30.468142274583023,39.25239228099631
-0.0179,1.0062,-0.1573,-0.3714,0.2265,-0.2639,-8.0937,-0.6475,-21.5075,-8.869195408118033,-1.132321075865897,30.79446690707999,39.26462531489489
-0.0054,0.9948,-0.1593,-0.3714,0.2246,-0.2625,-9.415,-4.9525,-22.8987,-9.069007602215384,-0.3888724514692921,30.939850090361443,39.27695001249316
0.0103,0.9815,-0.1693,-0.3714,0.2246,-0.2625,-10.15,-8.6363,-23.4325,-9.704227344185078,0.500137688183407,30.891436087479413,39.28943503308741
0.0387,0.9728,-0.1604,-0.3666,0.2255,-0.2609,-10.4038,-11.1212,-23.9137,-9.401070869785224,2.0904682650784503,31.737118463580725,39.30152225445985
0.0578,0.9756,-0.1602,-0.3666,0.2255,-0.2609,-10.6312,-12.4775,-24.2287,-9.333398366076294,3.2359408476735214,32.187663864343,39.31386535558083
0.0738,0.9727,-0.1591,-0.3639,0.2256,-0.2637,-11.2262,-13.2125,-24.4737,-9.293850475752654,4.192432964666764,33.05938634270536,39.3261458139418
0.0925,0.967,-0.1577,-0.3638,0.2236,-0.2595,-11.9437,-12.4687,-23.6163,-9.265355522824454,5.282183220371674,33.1082695129775,39.33850484118822
0.1072,0.9459,-0.1603,-0.3638,0.2236,-0.2595,-11.6637,-9.4412,-21.7962,-9.583866641170534,6.2540255376759175,33.309954618899276,39.35084015620344
0.1037,0.9407,-0.1562,-0.3594,0.2234,-0.2604,-11.13,-7.7088,-20.825,-9.443874901329758,6.212354512429471,33.76504627402855,39.3630993797305
