AcclX,AcclY,AcclZ,MagX,MagY,MagZ,GyroX,GyroY,GyroZ,Roll,Pitch,Yaw,Time(s)
-0.1265,0.977,0.0433,0.1324,0.1002,0.0415,-1.9862,1.1112,-15.575,0,0,0,1.618875785423419
-0.1207,0.9544,0.0368,0.1313,0.0983,0.0406,-2.2925,1.0062,-16.0825,0,0,0,1.6308886848771884
-0.1293,0.9531,0.0352,0.1313,0.0983,0.0406,-1.9687,1.05,-16.24,0,0,0,1.642907954781129
-0.1223,0.9871,0.0392,0.1322,0.0972,0.0408,-1.9862,1.1987,-15.8025,0,0,0,1.6549594308498252
-0.1196,0.9868,0.0349,0.1322,0.0972,0.0408,-1.9687,0.9887,-15.7325,0,0,0,1.6643147908404252
-0.1261,0.9836,0.0392,0.1311,0.0992,0.0397,-2.3363,1.33,-15.9337,0,0,0,1.6763967035043847
-0.1254,0.9753,0.0382,0.1311,0.0992,0.0397,-3.6138,1.3737,-16.2575,0,0,0,1.6883395280062685
-0.1282,0.9734,0.0451,0.1321,0.0992,0.0402,-2.765,1.6275,-16.3013,0,0,0,1.700403391061409
-0.1285,0.9787,0.0348,0.1321,0.0992,0.0402,-2.52,1.1638,-15.8375,0,0,0,1.7124863654670637
-0.1271,0.9755,0.0406,0.1319,0.0997,0.0439,-2.2313,0.8838,-15.4,0,0,0,1.724487939676084
-0.1278,0.978,0.0422,0.1325,0.0986,0.041,-2.17,1.26,-15.8025,0,0,0,1.7338995719765313
-0.124,0.9852,0.0392,0.1325,0.0986,0.041,-2.0388,1.5312,-15.7675,0,0,0,1.74581903816112
-0.125,0.9797,0.0337,0.1325,0.0986,0.0394,-2.6425,1.2512,-15.715,0,0,0,1.757919354347797
-0.1315,0.9805,0.0412,0.1325,0.0986,0.0394,-2.3275,1.0587,-15.785,0,0,0,1.769982155661242
-0.1243,0.9783,0.0412,0.1321,0.0994,0.0388,-2.0825,1.3125,-16.1087,0,0,0,1.7820545126499445
-0.1244,0.9801,0.037,0.1321,0.0994,0.0388,-2.45,1.33,-15.5312,0,0,0,1.7913567855557828
-0.1225,0.9772,0.0384,0.1305,0.0998,0.0361,-2.8087,1.6538,-15.9337,0,0,0,1.8034174633858377
-0.1295,0.9726,0.0367,0.1318,0.0982,0.0394,-2.8,1.0237,-15.925,0,0,0,1.8154190375948578
-0.1277,0.9806,0.0364,0.1318,0.0982,0.0394,-2.5375,0.6212,-15.6012,0,0,0,1.8274995346032237
-0.1207,0.9834,0.0364,0.1333,0.0986,0.039,-2.2488,0.8138,-15.575,0,0,0,1.8394713800447773
-0.1121,0.9864,0.0388,0.1333,0.0986,0.039,-2.1525,1.33,-15.9862,0,0,0,1.8521942307787593
-0.1159,0.9898,0.0439,0.1309,0.0994,0.0377,-2.6425,1.4787,-16.0037,0,0,0,1.8608467177671149
-0.1273,0.9811,0.0389,0.1318,0.0984,0.0438,-2.7388,1.4262,-16.3887,0,0,0,1.8729512809205726
-0.1391,0.9695,0.0318,0.1318,0.0984,0.0438,-2.8875,1.3825,-16.765,0,0,0,1.884802441722768
-0.1319,0.9687,0.0395,0.132,0.0984,0.0398,-3.3425,1.3212,-16.2138,0,0,0,1.8966758991005632
-0.1241,0.978,0.0376,0.132,0.0984,0.0398,-2.66,1.3037,-16.205,0,0,0,1.9088742494371
-0.1175,0.9858,0.0396,0.1311,0.1002,0.0396,-2.2138,1.3737,-15.5225,0,0,0,1.9210120804970083
-0.1212,0.9881,0.0385,0.1311,0.0966,0.0386,-2.2313,1.4,-15.3125,0,0,0,1.929733580695554
-0.1258,0.9812,0.039,0.1316,0.0966,0.0386,-2.38,1.4612,-15.82,0,0,0,1.941896893556148
-0.1315,0.9739,0.0334,0.1306,0.0986,0.0395,-2.6075,1.47,-16.0562,0,0,0,1.9540871038730214
-0.1222,0.9769,0.0446,0.1306,0.0986,0.0395,-1.9862,1.1112,-15.61,0,0,0,1.9662797915871835
-0.1252,0.9816,0.0374,0.1322,0.097,0.0398,-2.6075,1.1462,-16.0562,0,0,0,1.9784767262681267
-0.1228,0.9852,0.0363,0.1322,0.097,0.0398,-2.4675,1.2163,-15.3912,0,0,0,1.987141246329028
-0.1235,0.9822,0.04,0.1325,0.0998,0.0419,-2.8263,1.0062,-15.7937,0,0,0,1.9993102218119967
-0.1316,0.9776,0.0339,0.1328,0.099,0.0396,-2.0738,0.8225,-16.2225,0,0,0,2.0115096338902285
-0.1332,0.9749,0.0406,0.1328,0.099,0.0396,-2.4413,1.19,-15.715,0,0,0,2.024103659965189
-0.1174,0.9831,0.0384,0.1317,0.0984,0.0398,-2.4675,1.3125,-15.75,0,0,0,2.0361452264447295
-0.1207,0.9844,0.0332,0.1317,0.0984,0.0398,-2.275,1.33,-15.8725,0,0,0,2.048154586759515
-0.1283,0.9823,0.0348,0.1312,0.0986,0.0338,-2.7562,1.1987,-16.0737,0,0,0,2.0571323206205103
-0.1283,0.9761,0.0392,0.1314,0.0982,0.0394,-3.115,1.2163,-17.2725,0,0,0,2.0692432542241392
-0.1326,0.9744,0.0359,0.1314,0.0982,0.0394,-3.1238,1.4875,-16.1788,0,0,0,2.0814589463416984
-0.126,0.9765,0.0377,0.1318,0.0995,0.0401,-2.555,1.6362,-15.6887,0,0,0,2.0935097145825976
-0.1232,0.9853,0.0355,0.1318,0.0995,0.0401,-2.1963,1.4437,-15.5225,0,0,0,2.1055877341936746
-0.1257,0.9797,0.04,0.1306,0.0994,0.0446,-2.4325,1.1812,-15.3037,0,0,0,2.117639564176269
-0.129,0.9767,0.0375,0.1306,0.0994,0.0446,-2.3888,1.6975,-16.5112,0,0,0,2.126702237372883
-0.131,0.9746,0.0397,0.1318,0.0987,0.0335,-2.52,1.3475,-15.7412,0,0,0,2.1388407762605883
-0.1243,0.978,0.0384,0.1332,0.0969,0.0391,-2.8175,1.3475,-15.015,0,0,0,2.1509276437191254
-0.1212,0.9842,0.0428,0.1332,0.0969,0.0391,-2.0213,1.6275,-15.6187,0,0,0,2.1630453016868243
-0.125,0.9783,0.036,0.1316,0.0982,0.0395,-2.2575,1.5312,-16.45,0,0,0,2.175150572668079
-0.1323,0.9766,0.039,0.1316,0.0982,0.0395,-2.94,1.26,-16.1525,0,0,0,2.1841789162165473
-0.1308,0.9757,0.0415,0.1315,0.0995,0.0424,-2.7913,1.1812,-16.3625,0,0,0,2.1962788784893257
-0.1264,0.9784,0.0386,0.1315,0.0992,0.0412,-2.765,1.05,-16.2575,0,0,0,2.208371054656339
-0.1263,0.9829,0.0344,0.1315,0.0992,0.0412,-2.975,1.085,-16.2313,0,0,0,2.2204770334653903
-0.1288,0.9795,0.0364,0.1298,0.0998,0.0398,-2.6863,1.5662,-15.925,0,0,0,2.232621942803267
-0.1288,0.9781,0.0404,0.1298,0.0998,0.0398,-2.2662,0.8487,-15.9512,0,0,0,2.244750926015715
-0.1292,0.9764,0.0371,0.1322,0.1,0.035,-2.485,1.2163,-15.715,0,0,0,2.2536692023417775
-0.1268,0.977,0.0391,0.1322,0.1,0.035,-2.8087,1.0937,-15.5575,0,0,0,2.2658172969047397
-0.1254,0.9811,0.0386,0.1308,0.0972,0.0368,-2.6688,0.9713,-15.8112,0,0,0,2.2779338931307436
-0.1254,0.9819,0.0338,0.129,0.0999,0.0388,-2.5813,1.4262,-16.2838,0,0,0,2.29009225119676
-0.1251,0.9778,0.0379,0.129,0.0999,0.0388,-2.5375,0.98,-16.0912,0,0,0,2.302229020514973
-0.1271,0.9791,0.0362,0.1321,0.099,0.0396,-2.7125,1.015,-16.065,0,0,0,2.314251829557898
-0.1255,0.9781,0.0403,0.1321,0.099,0.0396,-2.31,1.015,-16.3537,0,0,0,2.3233183958073944
-0.1269,0.9786,0.0342,0.1307,0.1013,0.0454,-2.5463,0.84,-15.645,0,0,0,2.3354172963384774
-0.1243,0.9803,0.0391,0.1312,0.0994,0.0413,-2.7475,0.8663,-15.8638,0,0,0,2.3474875298437894
-0.1226,0.9797,0.0373,0.1312,0.0994,0.0413,-2.1875,1.1725,-16.415,0,0,0,2.3596207600230183
-0.1283,0.9779,0.0384,0.133,0.0994,0.0372,-2.2575,1.085,-16.4675,0,0,0,2.3717518667188573
-0.1277,0.9798,0.0349,0.133,0.0994,0.0372,-2.4325,1.1725,-16.0737,0,0,0,2.3807607450029127
-0.1254,0.9796,0.0391,0.1327,0.0985,0.0371,-2.6075,1.3825,-15.7325,0,0,0,2.392856106395012
-0.1261,0.9795,0.037,0.1327,0.0985,0.0393,-2.555,1.3125,-15.4962,0,0,0,2.4049454512508377
-0.1251,0.9802,0.0366,0.1298,0.0998,0.0393,-2.3538,1.1812,-15.4088,0,0,0,2.4170422282985307
-0.1232,0.9786,0.0386,0.1331,0.0979,0.04,-2.3975,1.19,-15.7325,0,0,0,2.429196339397766
-0.128,0.9774,0.0408,0.1331,0.0979,0.04,-2.1,0.8575,-15.4175,0,0,0,2.441339833080049
-0.1266,0.9782,0.0376,0.1308,0.0973,0.0387,-2.4938,1.0237,-15.855,0,0,0,2.45033632437766
-0.1243,0.9811,0.0372,0.1308,0.0973,0.0387,-1.925,1.2163,-15.4875,0,0,0,2.4624051422273783
-0.1259,0.9801,0.0387,0.1316,0.0994,0.0378,-2.2138,1.5487,-15.925,0,0,0,2.4745719942269564
-0.1247,0.9803,0.0365,0.1308,0.0987,0.04,-2.3538,1.05,-16.1875,0,0,0,2.486693545247538
-0.1289,0.9775,0.0394,0.1308,0.0987,0.04,-2.66,0.9363,-15.8638,0,0,0,2.4988005857982847
-0.1288,0.9798,0.0356,0.1316,0.0987,0.04,-2.0738,1.2425,-15.3912,0,0,0,2.510836843569349
-0.1241,0.9814,0.0418,0.1316,0.0987,0.04,-2.31,1.0062,-15.8463,0,0,0,2.5198680184290043
-0.124,0.9831,0.0402,0.1309,0.1001,0.0383,-2.2838,1.3737,-15.5662,0,0,0,2.531966211132291
-0.1253,0.9804,0.0369,0.1329,0.099,0.0374,-2.17,1.1025,-15.9512,0,0,0,2.544125630940002
-0.1304,0.9792,0.0378,0.1329,0.099,0.0374,-2.275,0.7875,-15.75,0,0,0,2.5562546141524507
-0.1274,0.9768,0.0345,0.1314,0.0984,0.0394,-2.8438,0.5338,-15.4263,0,0,0,2.568362362530994
-0.1293,0.9799,0.0389,0.1314,0.0984,0.0394,-2.2925,1.1638,-15.54,0,0,0,2.577354606861824
-0.1244,0.9805,0.0424,0.1312,0.1003,0.0356,-2.275,1.5575,-16.3975,0,0,0,2.5894835900742725
-0.1267,0.9803,0.0361,0.1312,0.1003,0.0356,-2.8788,0.9713,-15.6363,0,0,0,2.601645487279273
-0.1249,0.9803,0.0396,0.1303,0.0983,0.0419,-2.3538,0.875,-15.715,0,0,0,2.6136785598252517
-0.1269,0.9778,0.0376,0.1332,0.0996,0.0407,-2.205,0.7875,-16.1,0,0,0,2.625807896951598
-0.1288,0.9796,0.0381,0.1332,0.0996,0.0407,-2.7913,1.2425,-16.065,0,0,0,2.63793829581964
-0.1243,0.9787,0.0406,0.1306,0.0978,0.039,-1.8812,0.8925,-16.5025,0,0,0,2.6469379723423367
-0.1269,0.98,0.0342,0.1306,0.0978,0.039,-2.1875,0.7525,-16.24,0,0,0,2.6593100944029935
-0.1252,0.9793,0.0404,0.1308,0.0996,0.0389,-2.4063,1.155,-16.2925,0,0,0,2.671106398550935
-0.1238,0.9806,0.0375,0.1296,0.0975,0.0364,-2.2313,0.7962,-16.0475,0,0,0,2.6832750201200053
-0.1263,0.9786,0.0379,0.1296,0.0975,0.0364,-2.5988,1.1112,-15.5487,0,0,0,2.6952266924693493
-0.1274,0.9807,0.0356,0.1305,0.0988,0.0396,-2.1788,1.6187,-15.75,0,0,0,2.7075853658018665
-0.1226,0.9812,0.0347,0.1305,0.0988,0.0396,-2.0475,1.5487,-15.8812,0,0,0,2.7159791417304833
-0.1246,0.9805,0.0411,0.1278,0.0995,0.0404,-2.6075,0.9013,-15.8725,0,0,0,2.7287710056746555
-0.1274,0.9778,0.0353,0.1278,0.0995,0.0404,-1.9775,1.4787,-16.1612,0,0,0,2.7408727375169257
-0.1299,0.9792,0.0409,0.1329,0.1002,0.0331,-2.6075,1.785,-15.75,0,0,0,2.7529631441144473
-0.1255,0.9778,0.0361,0.1302,0.1005,0.0394,-2.6513,1.26,-15.54,0,0,0,2.764985953157372
-0.127,0.9825,0.0381,0.1302,0.1005,0.0394,-2.695,1.645,-15.0675,0.5986498130074891,-0.756405914151844,55.22640504336557,17.90498969048814
-0.124,0.9798,0.0359,0.1321,0.0966,0.0374,-2.2488,1.8637,-15.855,0.7060530002421161,-3.8160875800967626,101.20672715556768,17.909835833499084
-0.1296,0.9793,0.0384,0.1321,0.0966,0.0374,-2.7388,1.12,-16.0562,1.1559084303989853,-5.765754092304134,101.98903866179539,17.91482601946668
-0.1266,0.9775,0.0432,0.131,0.0996,0.0357,-2.8263,1.1375,-15.68,1.6143275976990636,-6.442121028386808,102.29706287763014,17.919322849459892
-0.1252,0.9805,0.0403,0.1315,0.0976,0.037,-2.6163,0.91,-15.5487,1.7806846641336933,-6.751437309788267,113.60051529448103,17.92376482279885
-0.1266,0.9814,0.0385,0.1315,0.0976,0.037,-2.6775,1.2512,-15.4875,1.90186121490563,-6.958178823234613,118.97431282988578,17.928457013263984
-0.1271,0.9801,0.0398,0.132,0.1001,0.04,-2.3187,1.2163,-16.3013,1.9049051422104897,-7.202040502184399,122.37926382950863,17.931629497449343
-0.1246,0.9783,0.0388,0.132,0.1001,0.04,-2.625,1.26,-15.995,1.989230297803599,-7.227885708440795,126.97538823249272,17.933382786902072
-0.1278,0.9784,0.038,0.1315,0.0977,0.0374,-3.0013,1.3387,-15.9425,2.0839450986760992,-7.331584501654276,133.3126780977663,17.935081573614443
-0.1261,0.9795,0.0378,0.1315,0.0977,0.0578,-2.7562,1.6625,-16.0475,2.1218692691685277,-7.330998426671851,140.94775332126216,17.936778944671225
-0.1243,0.9792,0.0335,0.1325,0.0994,0.0446,-2.8438,1.4262,-15.8463,2.066443814743581,-7.283470721050289,145.4710389003852,17.93844871044393
-0.1279,0.9818,0.0355,0.1317,0.0979,0.0386,-1.9862,1.3737,-15.6712,2.0675492584973023,-7.3394478693541165,148.96075620068427,17.940119891872225
-0.125,0.9798,0.0357,0.1317,0.0979,0.0386,-1.855,1.3212,-15.9075,2.0736826326021442,-7.303374364150016,151.26578428861262,17.941779040227978
-0.1285,0.978,0.0375,0.1312,0.0988,0.0382,-2.4237,0.9975,-15.785,2.0845620887630445,-7.3835070530853,152.7369640108133,17.94343040247796
-0.1252,0.9795,0.0398,0.1312,0.0988,0.0382,-2.1875,1.0675,-15.8812,2.1140214378529785,-7.332777052062843,153.4120127410805,17.945112201323212
-0.1247,0.9789,0.0329,0.1309,0.101,0.0386,-2.66,1.4962,-15.7937,2.066673240962798,-7.297542703619822,156.03643048663182,17.946806033241007
-0.1286,0.977,0.0337,0.1306,0.0973,0.0381,-1.9162,1.82,-16.17,2.0401854584516936,-7.40548777419236,159.04459754115683,17.9485671087995
-0.126,0.9786,0.0362,0.1306,0.0973,0.0381,-2.03,1.435,-16.275,2.058068764319999,-7.3635418229755745,160.09618842696798,17.9502605868034
-0.1246,0.9809,0.0416,0.1318,0.0986,0.0383,-2.5725,0.9713,-15.9775,2.1313296580586965,-7.297409536142436,160.625291186997,17.951922920384238
-0.1235,0.9811,0.0384,0.1318,0.0986,0.0383,-2.5463,1.3912,-15.6187,2.151204717311138,-7.246157654577696,161.27311339233336,17.953591624415246
-0.1245,0.976,0.0347,0.1314,0.0974,0.0438,-2.7475,1.3212,-16.1437,2.117098870261101,-7.256362884319814,161.2479720218578,17.955356239112724
-0.1278,0.9778,0.0373,0.1311,0.0988,0.0374,-2.4063,1.855,-16.0037,2.1221194551417843,-7.351010206637718,162.39270463444097,17.957146335610886
-0.1275,0.9797,0.0367,0.1311,0.0988,0.0374,-2.8963,1.4612,-15.995,2.1305468486525827,-7.380993343344855,162.77909227221141,17.958849015376142
-0.1273,0.9792,0.0339,0.1319,0.0992,0.0385,-2.5025,1.085,-16.3275,2.1083742100538694,-7.393591353563359,162.80911503251613,17.96053187596309
-0.1261,0.9781,0.0407,0.1319,0.0992,0.0385,-2.6163,1.1025,-16.135,2.170121059792274,-7.36454015937635,162.83708954462284,17.962464245848413
-0.1253,0.9795,0.0384,0.1323,0.0997,0.037,-2.555,1.1725,-15.82,2.184086636435203,-7.327270968526815,162.8970130669212,17.964202317003508
-0.1268,0.9804,0.0397,0.1323,0.0997,0.037,-2.8263,1.2687,-15.9337,2.229029325478502,-7.3451946640887895,163.0813907572432,17.965896502835204
-0.1255,0.9797,0.0418,0.1319,0.0992,0.0358,-2.7037,0.98,-15.925,2.287726144586218,-7.319612368248581,163.34106048426523,17.96755671293265
-0.1246,0.9795,0.0351,0.1314,0.0976,0.0393,-2.5813,1.155,-15.855,2.2398353315873663,-7.284194580301435,163.3360980412893,17.969268948373163
-0.1255,0.9781,0.0396,0.1314,0.0976,0.0393,-3.5613,1.3912,-15.6887,2.283280445495188,-7.2933314228385555,163.32878483285225,17.970941545457055
-0.1269,0.9798,0.04,0.1326,0.099,0.0393,-2.1788,1.155,-15.855,2.2902712001139647,-7.3313887101564745,163.33159106813642,17.972614496454845
-0.1243,0.9806,0.0373,0.1326,0.099,0.0393,-2.3712,1.1987,-16.17,2.2854254460010206,-7.269730933090145,163.3343476123735,17.97429771095569
-0.1258,0.9788,0.0393,0.1309,0.0977,0.0405,-2.8087,0.91,-16.03,2.2899296012967127,-7.294730578470026,163.2150867823478,17.975946241894487
-0.1257,0.9784,0.0398,0.1318,0.0986,0.0422,-2.5463,1.295,-16.4237,2.2970624125103916,-7.306790761755671,163.05585848794274,17.977623085945158
-0.1283,0.9787,0.0374,0.1318,0.0986,0.0422,-2.6863,1.54,-16.0387,2.268286537062315,-7.3881375262290945,162.72872872896977,17.97962305338508
-0.128,0.9804,0.0383,0.1301,0.1004,0.039,-2.0913,1.3562,-15.6975,2.262371311843651,-7.407197684523624,162.8082736742353,17.9808886494858
-0.1269,0.9797,0.0393,0.1301,0.1004,0.039,-2.2313,1.365,-13.6675,2.265378135586926,-7.388825036846917,162.88743918965153,17.98214221251397
-0.1258,0.978,0.0429,0.1326,0.0987,0.0378,-2.52,1.0762,-15.9512,2.305406109476686,-7.355808921632765,162.96135587406883,17.983389051178072
-0.1276,0.9795,0.0387,0.1326,0.0987,0.0378,-2.205,1.3037,-15.5837,2.3007852195345997,-7.379257439272576,163.1212576696472,17.984622795027935
-0.1266,0.9776,0.0451,0.133,0.0993,0.0412,-2.5638,0.9713,-15.8112,2.3662313168132485,-7.375458142485745,163.09101518475165,17.985845567546946
-0.1255,0.9784,0.0393,0.1328,0.098,0.038,-2.3275,1.4,-15.8463,2.3661284003789564,-7.341565596991924,163.29308161573218,17.987039673040183
-0.1119,0.9832,0.0411,0.1328,0.098,0.038,-2.5638,1.0587,-15.7325,2.3714265118639646,-6.967387630076703,163.3640453121084,17.98824085681139
-0.1238,0.9804,0.0365,0.1311,0.0999,0.0392,-2.7738,1.1725,-15.6363,2.297402823621539,-7.05856896760692,163.35749600714323,17.989457966708027
-0.129,0.9785,0.0356,0.1311,0.0999,0.0392,-3.0625,1.3912,-15.6538,2.2067306119600993,-7.242663454176735,163.2980908089133,17.990668352240593
-0.1289,0.9765,0.0429,0.1313,0.0993,0.0386,-2.5025,1.0937,-15.6625,2.253069825286486,-7.3546682702097135,163.31318965396056,17.99185856468095
-0.13,0.9801,0.0414,0.1326,0.1005,0.0324,-1.9425,0.84,-15.6625,2.2989957532223433,-7.435295745949852,164.05728062656985,17.99311460510641
-0.1249,0.9859,0.0398,0.1326,0.1005,0.0324,-2.3363,1.1375,-15.9075,2.2991263384363494,-7.327373623043064,164.06965194218768,17.99440002038544
-0.1175,0.9866,0.0384,0.132,0.0991,0.0381,-2.7475,1.2687,-15.6625,2.278305432061195,-7.102930163587478,164.0593128256629,17.995644735566152
-0.1172,0.977,0.0332,0.132,0.0991,0.0381,-2.7475,1.1812,-15.8987,2.179835663977999,-6.973454867358303,164.04512272483524,17.996905022958394
-0.135,0.973,0.0342,0.1306,0.0992,0.0414,-2.8438,1.3737,-16.3975,2.122936123228647,-7.517621350381279,163.61764568643434,17.998190438237422
-0.1363,0.9783,0.0439,0.1306,0.0992,0.0414,-2.5988,1.33,-16.4937,2.218633823583895,-7.7638787778427005,163.39513371956068,17.999446124748985
-0.1239,0.9732,0.0457,0.1307,0.0988,0.0372,-2.2662,1.0937,-15.9775,2.2451235638949996,-7.502561651870665,163.43510102988836,18.000726585233437
-0.126,0.9697,0.0327,0.1313,0.0989,0.0385,-1.6625,1.54,-15.8287,2.1199926806466776,-7.4543082547775406,163.4024561661847,18.00201129268467
-0.1258,0.9814,0.0405,0.1313,0.0989,0.0385,-2.0213,1.505,-15.68,2.176763317940111,-7.388689780362268,163.4788734917695,18.00328078183827
-0.1255,0.988,0.0429,0.1319,0.0988,0.0382,-2.4413,0.7263,-15.5137,2.208776544893852,-7.332553702012044,163.6319660511144,18.004487628231853
-0.1249,0.9797,0.0353,0.1319,0.0988,0.0382,-2.4675,0.9887,-15.7937,2.19076832989795,-7.29972182471445,163.6373512690988,18.005692351142045
-0.1301,0.9746,0.0324,0.1317,0.1002,0.0353,-2.7388,0.98,-15.61,2.106988369132688,-7.418529808932001,163.7838099991436,18.0069052140719
-0.1245,0.9809,0.0462,0.1326,0.0994,0.0405,-2.8175,0.8225,-16.2225,2.3013067654236763,-7.310619595602747,163.655556205544,18.008097549995647
-0.1283,0.9816,0.0446,0.1326,0.0994,0.0405,-2.6863,1.3037,-15.7412,2.38082908258247,-7.367226651895545,163.57587206351016,18.009381549619082
-0.1258,0.9764,0.0326,0.1321,0.0994,0.038,-2.7475,1.3825,-16.4937,2.2418813940792415,-7.349221730022116,163.5911348466463,18.010639713527933
-0.1244,0.9786,0.0455,0.1321,0.0994,0.038,-3.2813,0.9887,-16.5462,2.447169531048491,-7.28019440884722,163.67551148039615,18.01185965473576
-0.1277,0.9811,0.0389,0.133,0.0984,0.0405,-2.31,1.4612,-16.1612,2.44439859677019,-7.351311211653237,163.48803748009126,18.013063315904255
-0.1277,0.9825,0.0393,0.133,0.0984,0.034,-2.0563,1.2862,-15.7587,2.4117378231585516,-7.372870218929844,163.80103779188843,18.014277240575804
-0.1251,0.9783,0.0345,0.13,0.0981,0.034,-2.5725,1.1812,-16.2138,2.3341981388187985,-7.322563719251877,163.8706951247618,18.015473115638535
-0.1243,0.9736,0.0444,0.1316,0.0975,0.0384,-2.905,1.2512,-16.4937,2.4357430578802246,-7.28956518040697,163.8804728906377,18.016665451562282
-0.1291,0.9803,0.0373,0.1316,0.0975,0.0384,-2.5813,1.3212,-15.7762,2.383523208023571,-7.383225779812091,163.8315832765449,18.0178638040223
-0.1285,0.9813,0.0351,0.1316,0.0987,0.0398,-2.3975,1.33,-16.415,2.361151848182753,-7.426231900182493,163.6708368051492,18.019070296501987
-0.1269,0.9764,0.0354,0.1316,0.0987,0.0398,-1.7413,1.1987,-16.4937,2.2560896620085478,-7.410480561555908,163.62262216008688,18.020255908061664
-0.1305,0.9772,0.038,0.1312,0.099,0.0421,-2.9925,1.5575,-16.135,2.2444216548013562,-7.513618025842318,163.1006168136253,18.021460277057955
-0.1254,0.9789,0.0431,0.1314,0.0982,0.0394,-2.205,1.4175,-16.4062,2.2742671290369745,-7.3829359115254025,163.17042309936042,18.022680572179677
-0.1265,0.9812,0.0371,0.1314,0.0982,0.0394,-2.0475,1.5225,-16.2663,2.2505498163341953,-7.359171250619513,163.15896818591057,18.023889895970548
-0.1247,0.9841,0.0475,0.1317,0.0993,0.0387,-3.0713,1.5487,-15.96,2.469553866201515,-7.2860416972818145,163.40075764089033,18.02518592866653
-0.1222,0.9824,0.0431,0.1317,0.0993,0.0387,-4.375,1.6538,-15.4263,2.4981314545346223,-7.2210713557928425,163.54440059018344,18.026401268993673
-0.1305,0.9706,0.0338,0.1312,0.1011,0.042,-2.3275,1.7237,-16.3013,2.4973464362701465,-7.469115392924314,162.86468155043087,18.027594666659116
-0.1349,0.9737,0.0363,0.1321,0.0983,0.0356,-3.0363,1.0937,-16.3975,2.3468642505162225,-7.71330740035766,162.93591848021148,18.02878947998015
-0.1211,0.9794,0.0459,0.1321,0.0983,0.0356,-1.7325,1.015,-15.855,2.472135012138948,-7.394480411613955,163.19529524132932,18.0299818159039
-0.1272,0.9844,0.0346,0.1329,0.099,0.0393,-1.8987,1.3737,-15.8987,2.3347009409782333,-7.376859232980429,163.20625708398939,18.031176983138835
-0.126,0.9811,0.0389,0.1329,0.099,0.0393,-3.2987,1.1725,-15.925,2.30306954544186,-7.345184063169405,163.21602412469778,18.032365426009697
-0.1258,0.9781,0.0428,0.1334,0.0995,0.0422,-2.695,1.5312,-16.0912,2.357657506595141,-7.332857505235048,162.99198932814912,18.03355705410565
-0.1347,0.9784,0.0384,0.1334,0.0995,0.0422,-2.31,1.3737,-15.8287,2.3559304598531794,-7.566312814173753,162.81617356874543,18.034747620459903
-0.1271,0.9756,0.0366,0.1306,0.101,0.0343,-2.2488,1.5137,-15.785,2.3410728893021435,-7.4987097396680635,163.50465368322662,18.035949865972807
-0.1233,0.9794,0.0389,0.1333,0.0996,0.0395,-1.7937,1.225,-16.0125,2.3179444306904795,-7.3295089806573746,163.50139713860807,18.037154588883
-0.1264,0.9814,0.0362,0.1333,0.0996,0.0395,-2.4237,1.6625,-16.2488,2.29964495073315,-7.3321048815838985,163.43091389821134,18.03834126218437
-0.1322,0.975,0.0376,0.1326,0.0997,0.0394,-2.345,1.435,-15.8812,2.297939495457388,-7.516892422226202,163.38175508465238,18.039527935485744
-0.1271,0.9764,0.0364,0.1326,0.0997,0.0394,-2.3888,1.19,-16.0037,2.28830194598391,-7.4629000557496585,163.3743912019889,18.040763448905096
-0.1261,0.984,0.0359,0.1318,0.0981,0.0441,-2.9138,1.0762,-16.0912,2.214677993753754,-7.375051101900014,163.25140996217382,18.04195401525935
-0.1271,0.9809,0.0408,0.1297,0.0985,0.0406,-2.3538,0.7437,-16.065,2.2192083419628865,-7.375892959189211,163.045058550538,18.043139626819027
-0.1271,0.9791,0.0374,0.1297,0.0985,0.0406,-2.0125,1.1462,-15.3037,2.2116511143858935,-7.379828860617985,163.03585975338683,18.044324176637012
-0.1287,0.9775,0.0452,0.131,0.0993,0.0397,-2.5988,0.98,-16.1612,2.305082088205513,-7.441555366417485,163.06743616534246,18.045511203852282
-0.1281,0.9834,0.0402,0.131,0.0993,0.0397,-2.6425,0.735,-15.8112,2.3136864133760304,-7.4295534988087235,163.06428866506653,18.046695753670264
-0.126,0.9801,0.039,0.1323,0.0995,0.0402,-2.205,1.6712,-16.5462,2.3099120612085198,-7.362207160275698,163.03735812360696,18.04787464086587
-0.1238,0.9791,0.0364,0.1323,0.0995,0.0402,-2.8788,1.4612,-16.17,2.2455396640832115,-7.273968011634854,163.00467685178808,18.04905565154487
-0.1235,0.9767,0.0396,0.1296,0.0979,0.0373,-3.2813,1.3825,-15.9075,2.282783732715755,-7.238202535150164,163.2032842916817,18.05023807787946
-0.1285,0.9796,0.0353,0.1304,0.0996,0.0375,-2.5288,1.015,-15.715,2.2458468528023845,-7.337744535696103,163.25959830722138,18.051424751180832
-0.1272,0.9767,0.0403,0.1304,0.0996,0.0375,-2.275,0.9625,-15.9862,2.251513789807285,-7.376436817860565,163.3657513695426,18.0526131940517
-0.128,0.9798,0.0365,0.1302,0.0983,0.0407,-1.925,1.1025,-15.9862,2.217717466166852,-7.407623222232494,163.33552540042098,18.053791727333408
-0.1276,0.9831,0.0446,0.1302,0.0983,0.0407,-2.6163,1.1112,-15.6275,2.303186126329725,-7.399623023605142,163.3222749201918,18.054978754548678
-0.1217,0.9804,0.0384,0.1324,0.0995,0.0395,-2.9138,0.9187,-16.1788,2.280902645411539,-7.218492885913425,163.3273410550316,18.056179230492088
-0.129,0.9784,0.0337,0.131,0.0996,0.042,-2.94,0.6212,-16.0562,2.1636544240957445,-7.369620459964146,162.78317940125348,18.057405896063983
-0.1274,0.977,0.0372,0.131,0.0996,0.042,-3.3338,0.98,-15.7325,2.172123229749562,-7.393478156895676,162.6667025030552,18.058629730324686
-0.1294,0.9828,0.0351,0.1339,0.0998,0.0392,-3.57,1.1112,-16.0125,2.101875198509798,-7.4461999323469925,162.68233533502857,18.059857103724376
-0.1243,0.9824,0.0378,0.1339,0.0998,0.0392,-3.1937,1.12,-15.7937,2.149087299352157,-7.336427225049102,162.69388996080968,18.06105687183999
-0.1279,0.9794,0.0462,0.1306,0.0997,0.039,-2.7562,1.68,-16.0562,2.3150391187708452,-7.386553952321605,163.01356876144757,18.062245314710854
-0.1251,0.978,0.0412,0.1306,0.0997,0.0594,-2.52,1.435,-16.0037,2.330839786141755,-7.333477466526939,161.08007806190406,18.063434819323415
-0.1276,0.9818,0.0375,0.1317,0.1002,0.0416,-3.0625,1.1375,-15.715,2.2699819780814834,-7.3620849268068715,161.08550877736323,18.064627155247162
-0.1259,0.9792,0.0363,0.1327,0.0988,0.0393,-2.5025,1.3387,-15.8638,2.2479317063525577,-7.342785265059656,161.46725431811242,18.065819137257012
-0.1267,0.9806,0.0434,0.1327,0.0988,0.0393,-2.765,1.2775,-15.9162,2.335266194524025,-7.348819459747754,161.74039120670884,18.067008995783468
-0.1324,0.977,0.0337,0.1331,0.0996,0.0406,-2.7475,1.3387,-15.75,2.228590116753809,-7.510344752971726,161.88320558544078,18.068197084740437
-0.125,0.9781,0.0411,0.1331,0.0996,0.0406,-2.1088,1.1987,-15.6887,2.2602700502910475,-7.411223366907395,161.95417391227028,18.069412778981476
-0.1245,0.9781,0.0416,0.1326,0.0989,0.0406,-2.31,1.1812,-16.2663,2.2630177175447077,-7.3183021412692195,162.00219624619567,18.070634135844895
-0.1282,0.983,0.0362,0.1294,0.099,0.0382,-2.345,1.0675,-15.8112,2.2601373419314164,-7.367781959629966,162.0835993977156,18.07188274407849
-0.1277,0.9787,0.0393,0.1294,0.099,0.0382,-2.7562,0.6125,-15.715,2.271976964789919,-7.3938212446587785,162.5626662114682,18.07308074262461
-0.1297,0.9786,0.0402,0.1307,0.0982,0.0395,-1.6975,1.1725,-15.9862,2.302988736802936,-7.469874026808228,162.5824546323071,18.07427024723717
-0.1263,0.9776,0.0409,0.1307,0.0982,0.0395,-2.6513,0.9538,-15.645,2.3257470993402034,-7.42294281393253,162.6706172547396,18.075461167505324
-0.124,0.982,0.0383,0.1314,0.0994,0.037,-2.7037,0.8575,-15.8025,2.300459849595312,-7.316591359210727,163.0221961796343,18.076659873879244
-0.1297,0.9791,0.0323,0.1314,0.0998,0.0437,-2.6163,0.8838,-15.9775,2.207978265869115,-7.4306124859954545,162.61013210386756,18.077852917630786
-0.1294,0.9806,0.0373,0.1308,0.0998,0.0437,-2.8263,1.0237,-16.1525,2.198101754632215,-7.4749700900107845,162.46120844822607,18.079056578799282
-0.1272,0.9794,0.042,0.1308,0.0982,0.0402,-2.2838,1.2425,-16.0825,2.2085110231413747,-7.431584060450496,162.50452758536142,18.080249976464724
-0.1288,0.9814,0.0328,0.1308,0.0982,0.0402,-2.2662,0.875,-15.4175,2.1919206598107235,-7.444626766375188,162.49572405791568,18.08143806542169
-0.1246,0.9791,0.044,0.1312,0.0993,0.0399,-2.3975,0.7088,-15.8375,2.217376382047774,-7.351034897426119,162.71175643004534,18.082629339603745
-0.1257,0.9789,0.0412,0.1312,0.0993,0.0399,-2.135,0.7875,-15.9862,2.248266367682849,-7.330626007499515,162.80537863331645,18.083829815547155
-0.1276,0.9781,0.0354,0.1322,0.0991,0.033,-2.45,0.7875,-15.7762,2.228898139135833,-7.374525888615647,163.63199082171852,18.085012595795643
-0.1269,0.9783,0.037,0.132,0.0987,0.0404,-2.87,1.1112,-15.9075,2.2067125177635427,-7.379944449410745,163.61359816102816,18.08619643778583
-0.1236,0.9791,0.0364,0.132,0.0987,0.0404,-2.905,0.84,-15.5312,2.1782527500849005,-7.310334376148611,163.42491383332234,18.087507688779443
-0.1292,0.9786,0.0337,0.1311,0.0975,0.0398,-2.5813,1.5487,-15.9337,2.136361133590949,-7.412461163829063,163.21655211094622,18.088718782139807
-0.128,0.9784,0.0415,0.1311,0.0975,0.0398,-2.6425,1.9687,-15.8463,2.206679775030428,-7.428671552032839,163.1554533018212,18.089913595460843
-0.1249,0.9786,0.0397,0.1312,0.0995,0.0343,-3.0538,1.05,-15.8112,2.2557261413068566,-7.354232008084965,163.33855604201904,18.091102392245606
-0.1306,0.9787,0.0395,0.1322,0.0976,0.0425,-1.7675,1.2775,-16.2225,2.275598436413343,-7.488727948440657,163.15727564335648,18.092292604685962
-0.126,0.9795,0.0378,0.1322,0.0976,0.0425,-1.6712,1.6625,-16.1788,2.2496473251755194,-7.398399487955101,162.7248178748129,18.09347609276225
-0.1163,0.9795,0.0418,0.133,0.0997,0.0389,-1.8812,2.0913,-15.9337,2.309354054770382,-7.084856559357009,163.31384458112458,18.09466984434159
-0.1265,0.9761,0.0412,0.133,0.0997,0.0389,-3.0188,2.7125,-15.7587,2.353391718511224,-7.215539984407105,163.5794294109239,18.095860764609743
-0.1229,0.9777,0.04,0.133,0.0977,0.0388,-2.7213,2.5638,-15.715,2.3503901434703067,-7.190982083144298,163.7023511259185,18.097051684877897
-0.1265,0.9812,0.0405,0.133,0.0977,0.0388,-2.17,2.485,-15.6012,2.352171950351697,-7.249622784508668,163.73378541020358,18.09823623469588
-0.1263,0.9806,0.0414,0.1325,0.0993,0.0386,-2.695,2.485,-15.5137,2.369792738339672,-7.2794905875573255,163.7881967060192,18.09942326191115
-0.1261,0.9832,0.0368,0.1318,0.0978,0.0385,-2.3187,2.3888,-15.7762,2.368166464023735,-7.290328759495534,163.6711223062993,18.10060781172913
-0.1348,0.975,0.0389,0.1318,0.0978,0.0385,-3.0538,2.5025,-16.0912,2.3330243158738697,-7.5964696576869235,163.59294196435687,18.1017955467722
-0.1277,0.9822,0.0395,0.1326,0.0985,0.037,-2.73,1.715,-16.3362,2.32437154123489,-7.483481699610234,163.90787180635232,18.10307883856784
-0.1282,0.9822,0.0357,0.1326,0.0985,0.037,-3.0625,1.015,-16.31,2.221405262338945,-7.453578612295431,163.94600896647722,18.10431399807329
-0.1247,0.9774,0.0358,0.1318,0.0969,0.0412,-3.0888,1.1812,-16.205,2.1678643214421847,-7.349230987737651,163.87235558318332,18.105505626169244
-0.1268,0.9786,0.0391,0.1302,0.0975,0.0363,-2.5025,1.155,-16.3013,2.1858982240921887,-7.365188331390539,163.88520779443775,18.106697254265192
-0.1274,0.9747,0.0384,0.1302,0.0975,0.0363,-2.4588,1.225,-15.9862,2.1941314340481024,-7.403728870129045,163.93023611424618,18.107882511910972
-0.1224,0.9811,0.0364,0.1324,0.0986,0.037,-2.275,1.4262,-16.3712,2.1907694066526324,-7.229422668674979,164.02804291102123,18.109069185212345
-0.1285,0.9801,0.0379,0.1324,0.0986,0.037,-2.6163,1.155,-15.9337,2.1961086919941266,-7.3455102809661925,164.03487459517615,18.110254442858125
-0.1277,0.9788,0.0397,0.1335,0.0986,0.0375,-2.9313,1.4437,-15.5925,2.2438205981069146,-7.377344733250749,164.10856506351124,18.111728494245007
-0.1265,0.9783,0.0424,0.1335,0.0986,0.0375,-3.1238,1.1812,-15.47,2.349376006798316,-7.371763309859452,164.12597841619424,18.113161845533572
-0.1262,0.9805,0.0431,0.1304,0.0997,0.0417,-2.6775,1.0762,-15.6975,2.3929618133652806,-7.352748417075444,164.02531467356062,18.114361967563084
-0.1273,0.977,0.0361,0.1336,0.0989,0.0372,-1.8112,1.4525,-15.8463,2.2988811333565238,-7.3838334852608245,164.10043052903632,18.115567752214968
-0.1293,0.9792,0.035,0.1336,0.0989,0.0372,-2.5813,1.89,-16.1788,2.247660280675209,-7.457418922672308,164.16794215328943,18.116770351641772
-0.126,0.9783,0.0406,0.1317,0.0994,0.0373,-2.7475,1.085,-16.0737,2.2858506429646472,-7.391538578665821,164.1729513595603,18.1181219488198
-0.1271,0.9797,0.0389,0.1317,0.0994,0.0373,-2.695,1.1812,-15.8812,2.2826004115488985,-7.388942374345527,164.17345756100474,18.119410549323916
-0.1267,0.9796,0.0392,0.1338,0.1006,0.038,-2.415,0.8838,-15.9075,2.283331828720766,-7.376668062187599,164.17003178926964,18.12066835931887
-0.1288,0.9825,0.0369,0.1319,0.0965,0.04,-2.2313,1.26,-15.5662,2.271878832271637,-7.409618346800835,164.02502406774323,18.12189608663246
-0.1274,0.9787,0.0392,0.1319,0.0965,0.04,-2.9575,1.1812,-16.1087,2.2803060003638707,-7.410233281730273,163.97787083168998,18.123092669522986
-0.1266,0.9808,0.041,0.1327,0.099,0.0391,-1.9425,1.3912,-16.2225,2.3117400921870743,-7.375771569633205,163.9019473119667,18.124313672472507
-0.1271,0.9811,0.0375,0.1327,0.099,0.0391,-2.1,1.0675,-15.8638,2.289103924064928,-7.37594855907584,163.87394471714225,18.12554635458067
-0.1286,0.98,0.0384,0.1324,0.098,0.0373,-2.4588,1.4262,-15.9425,2.283803756628088,-7.42283946580493,163.9537253330847,18.126750369663068
-0.1266,0.9777,0.037,0.1324,0.098,0.047,-2.1,1.12,-16.31,2.2623253756124373,-7.394040520387471,163.90389785436122,18.12797031087089
-0.1239,0.9814,0.0399,0.1328,0.0982,0.047,-2.4588,0.8925,-16.59,2.2700448570907947,-7.267092517121871,163.18316962989581,18.129171848555995
-0.1267,0.9794,0.0357,0.1318,0.0989,0.0382,-2.4325,1.1725,-16.1087,2.252471492301705,-7.320273635177355,163.20117010097823,18.130368431446524
-0.1248,0.9786,0.039,0.1318,0.0989,0.0382,-2.24,1.2075,-15.4088,2.254823547970757,-7.302010835256018,163.24502016990755,18.13156926130383
-0.1259,0.9788,0.0378,0.1316,0.0982,0.0366,-2.4063,1.5662,-15.7325,2.2516077208933174,-7.311701403827201,163.61037777424414,18.132767613763853
-0.1305,0.9818,0.0421,0.1316,0.0982,0.0366,-2.7913,1.2512,-16.1262,2.316315200751591,-7.448152029048764,163.71336127983108,18.134087712604927
-0.1254,0.9685,0.0395,0.131,0.1006,0.0406,-1.8987,1.0062,-16.2925,2.3220574656468442,-7.404246693064549,163.59539455800208,18.135317917315803
-0.1337,0.9764,0.0463,0.1318,0.0995,0.0385,-1.54,1.26,-15.19,2.4949271074699433,-7.47787218273315,163.62922627783925,18.136538566351422
-0.1241,0.9739,0.0414,0.1318,0.0995,0.0385,-1.4962,1.4262,-14.8575,2.467365958022217,-7.45848198612969,163.6718496864628,18.137765585837215
-0.1314,0.9768,0.0364,0.1321,0.1,0.0379,-1.5837,1.1375,-15.2775,2.325391654434506,-7.506936436467092,163.67239670826723,18.13897455571419
-0.1125,0.9781,0.0275,0.1321,0.1,0.0379,-1.7937,1.4437,-15.6363,2.077062734647336,-7.122002884993434,163.67131484171716,18.140202636941673
-0.1468,0.9906,0.0537,0.1308,0.0982,0.041,-1.89,1.1987,-15.8025,2.3885111796513705,-7.716969326570255,163.6140390814858,18.141419392924412
-0.1343,0.9806,0.0429,0.1318,0.0999,0.0393,-1.9687,0.21,-15.1112,2.419177468936054,-7.727108080748031,163.496120348924,18.142626239317995
-0.1265,0.9611,0.0329,0.1318,0.0999,0.0393,-1.7237,0.4112,-15.1462,2.2467958180432333,-7.689328789618486,163.29891461731,18.14382105263903
-0.1394,0.9741,0.0407,0.1315,0.0974,0.0385,-0.6475,0.5513,-15.295,2.338132220763206,-7.80345116501779,163.37483864003514,18.145027899032613
-0.117,0.9668,0.0267,0.1315,0.0974,0.0385,-0.805,0.0963,-14.8225,1.881897627070754,-7.698922643737069,163.29701196425196,18.146225897578734
-0.1011,0.988,0.0295,0.1335,0.0992,0.0412,-0.6737,0.3588,-14.805,1.7749657864298127,-7.459341798388062,163.0295804376487,18.147448670097745
-0.0928,1.0,0.0415,0.1335,0.0992,0.0412,-1.05,1.365,-14.3062,2.1121486732059798,-6.610223720564372,163.0835353491638,18.148658347802513
-0.1116,0.9886,0.0337,0.1308,0.099,0.0386,-1.26,3.0538,-15.2775,2.0297133531398424,-6.56777214388093,163.34759788307983,18.149967475312735
-0.1465,0.9487,0.0586,0.1318,0.0977,0.0361,-1.7062,3.5525,-15.225,2.6055068591064208,-7.037029424043197,164.78835710141882,18.151161934719873
-0.1554,0.9377,0.0495,0.1318,0.0977,0.0361,-0.63,3.5263,-13.6937,2.8673644255754773,-8.352391569323038,164.80213110208146,18.152357455868707
-0.1621,0.935,0.056,0.1306,0.0961,0.0365,2.1088,3.7013,-12.3638,3.324454148970958,-9.409869785286102,164.70760760030822,18.153542713514486
-0.146,0.9635,0.0185,0.1306,0.0961,0.0365,4.34,3.5088,-9.065,1.3901662341552685,-8.730369994268962,163.6336835018218,18.154705320670764
-0.1207,0.955,0.0323,0.1285,0.0964,0.0362,7.0875,3.71,-9.4237,1.8845951142243866,-7.433709907880142,163.94045837170617,18.1558558947545
-0.1203,1.017,0.0528,0.1285,0.0964,0.0306,9.4325,0.5775,-10.3162,2.8867511518010254,-6.860706024393088,165.24214542940757,18.157051769817233
-0.0455,1.0175,0.0348,0.1306,0.0958,0.0306,7.7875,0.9887,-13.0637,2.04233140385024,-4.047812713906023,165.5620817631142,18.15825047619115
-0.1323,0.9765,0.0214,-0.0696,0.2115,-0.0629,-0.07,0.21,-9.87,1.4971161581023298,-7.111170823471476,69.41735676606916,18.15985370615095
-0.1316,0.9781,0.0136,-0.0716,0.2107,-0.0556,-0.0088,0.77,0.1323,1.0077936324933376,-7.627942980854653,42.80166596184585,18.16197471214413
-0.1316,0.9781,0.0136,-0.0716,0.2107,-0.0556,-0.0088,0.77,-10.2725,0.86028021035185,-7.656169116620285,23.268504259335693,18.16322225863603
-0.128,0.9804,0.0145,-0.073,0.2122,-0.0619,-0.1575,0.8138,-10.3687,0.8514213733424673,-7.476739543923335,9.641005437174924,18.16448750082285
-0.1228,0.9745,0.0132,-0.073,0.2122,-0.0619,0.4462,1.5837,-9.345,0.7960290448293637,-7.226199935325995,3.687690847269866,18.165697886355414
-0.1279,0.9743,0.0127,-0.0734,0.2108,-0.0635,-0.2625,1.8025,-8.3212,0.7628753602279622,-7.445040241182038,15.645293310049517,18.16691322668256
-0.1297,0.974,0.0112,-0.0734,0.2108,-0.0635,-0.14,2.1875,-7.035,0.6914764243899738,-7.568874887214038,24.69108810258917,18.168128213095805
-0.128,0.9743,0.0122,-0.0775,0.2105,-0.0674,0.0263,2.4588,-6.3612,0.7096733845624718,-7.492730635070297,29.951602742686063,18.169331166436503
-0.1263,0.9795,0.008,-0.0761,0.2074,-0.0642,0.2975,2.0825,-5.915,0.5346603153351055,-7.361631094211618,31.378370445007125,18.170551461558226
-0.1244,0.9854,0.0097,-0.0761,0.2074,-0.0642,0.1312,2.065,-5.9325,0.5555028544915085,-7.21144195206672,32.235710941287934,18.17177388016334
-0.1294,0.9902,0.0089,-0.0774,0.2082,-0.0648,-0.0438,1.4612,-5.9588,0.5273163027548483,-7.421597102481996,32.36289834954782,18.17298709700709
-0.1359,0.9972,0.0052,-0.0774,0.2082,-0.0648,-0.0875,1.0237,-4.8738,0.3693443069185559,-7.72986214378895,32.34362140075288,18.17419925210915
-0.13,1.0005,0.0029,-0.0795,0.207,-0.0666,-0.8663,0.1925,-4.2175,0.2487164868432897,-7.431054560795998,32.4191462178243,18.175401143708154
-0.1197,1.0037,0.0087,-0.0814,0.2056,-0.0624,-1.5925,-0.6563,-3.7713,0.35360885365058825,-6.852399091961362,31.77083556712105,18.17663559538581
-0.1094,1.0003,0.0072,-0.0814,0.2056,-0.0624,-2.38,-1.19,-3.465,0.35662408863747475,-6.290245896559096,31.75729457493276,18.177870047063468
-0.0886,0.9887,0.0126,-0.0843,0.207,-0.0641,-2.8,-1.2687,-4.165,0.4767470166183349,-5.219579920763498,32.705977836431224,18.17923332340015
-0.0908,0.9748,0.0066,-0.0843,0.207,-0.0641,-3.01,-0.7875,-3.955,0.4406665367671592,-5.312978858404477,32.52421718329261,18.1805360804602
-0.0948,0.9686,0.0082,-0.0846,0.2041,-0.0648,-2.8875,0.2362,-3.7538,0.4566255492288057,-5.567034531459253,32.559945604333635,18.181843438400932
-0.0939,0.9712,0.0129,-0.0885,0.2013,-0.0633,-3.7013,0.1225,-3.0888,0.6328551923137107,-5.525468909966233,32.05986028056215,18.183071519628417
-0.0889,0.9745,0.0112,-0.0885,0.2013,-0.0633,-2.625,-0.5425,-3.7975,0.6387533499276785,-5.237889397700894,31.81595032236458,18.184302078253193
-0.0735,0.9804,0.013,-0.089,0.201,-0.0633,-2.24,-0.2888,-4.6287,0.648324143691323,-4.37100067481915,32.1915157262283,18.185533698619665
-0.0669,0.9784,0.0132,-0.089,0.201,-0.0633,-1.8463,0.1225,-4.5062,0.6887241632357329,-3.9514296118591274,32.49436481059595,18.186746207635622
-0.059,0.9731,0.0126,-0.091,0.1998,-0.0625,-2.2313,0.5075,-4.9437,0.6933165648092876,-3.513148864681302,32.42684275783821,18.187961547962765
-0.0641,0.9733,0.006,-0.0925,0.2005,-0.0626,-2.0213,0.4375,-6.3438,0.6138980194912005,-3.7413857951780023,31.919171020769916,18.189166270872956
-0.0704,0.9753,0.0063,-0.0925,0.2005,-0.0626,-1.9862,0.6737,-7.4812,0.5520742285020948,-4.082831862222767,31.605545646222645,18.190386212080778
-0.093,0.9811,0.0043,-0.0935,0.1994,-0.0643,-2.1438,0.665,-7.77,0.5057039093701529,-5.252135916495344,31.16524721728863,18.191594828043854
-0.0866,0.9861,-0.0007,-0.0935,0.1994,-0.0643,-1.995,0.2013,-7.0875,0.3698470259913112,-5.045189258257544,30.661251114102328,18.197584112946664
-0.0859,0.9905,0.0046,-0.0941,0.1972,-0.0627,-1.7587,-0.5862,-7.7962,0.33229244132603436,-4.967336031063601,30.161549867476445,18.209828472089995
-0.083,0.9921,-0.0007,-0.0941,0.1966,-0.0622,-1.96,-1.2687,-7.4725,0.2324399860803288,-4.804101446252804,29.619891212100917,18.22209902086181
-0.0829,0.9949,0.0045,-0.0966,0.1966,-0.0622,-1.7762,-2.2838,-8.3387,0.24191515686800788,-4.768499239579631,29.348014791923305,18.23467216601676
-0.0683,0.9924,0.0043,-0.0973,0.1968,-0.0634,-2.2838,-2.9225,-8.4437,0.2421715925409705,-4.047752036534744,30.001178377904964,18.246900245120766
-0.065,0.9959,0.001,-0.0973,0.1968,-0.0634,-4.095,-2.94,-8.3037,0.12421126623686689,-3.7752429292313936,30.04507805990591,18.258930486355556
-0.066,0.998,-0.0019,-0.0986,0.1976,-0.0623,-4.5938,-3.1763,-7.8225,-0.03769041380581847,-3.7825575814969477,29.24658086271607,18.26771462931412
-0.0649,0.9942,0.006,-0.0981,0.1965,-0.0586,-4.7337,-3.2113,-8.015,0.23324862406357405,-3.7408357832027495,28.541072675628794,18.279929259689986
-0.063,0.9906,0.0021,-0.0981,0.1965,-0.0586,-4.5763,-3.9725,-8.8025,0.1558545530744898,-3.6532225873549495,28.201441485340432,18.292133272648897
-0.0533,0.9791,0.009,-0.1007,0.193,-0.0608,-5.005,-4.3838,-8.1025,0.4258679812388255,-3.1842979117028296,29.22271904529852,18.304396743142743
-0.0439,0.9732,0.009,-0.1007,0.193,-0.0608,-5.0487,-4.3313,-7.8138,0.5019165432165729,-2.656604859878124,29.711799317133842,18.31663720923319
-0.0393,0.9695,0.0087,-0.0997,0.1943,-0.0577,-4.3663,-4.34,-8.1988,0.5101204148694245,-2.3644531598028613,29.06568323609833,18.329349442550217
-0.0328,0.9718,0.0124,-0.099,0.193,-0.0623,-4.55,-3.8413,-8.6625,0.6625210036183118,-1.9921328348442595,31.142518037364415,18.341483026643346
-0.0315,0.9714,0.006,-0.099,0.193,-0.0623,-4.4012,-3.2462,-8.6975,0.45425037105237026,-1.8758563462843905,31.11958238020713,18.353658726490384
-0.0258,0.9831,0.014,-0.1012,0.1922,-0.0596,-4.5237,-2.5025,-9.275,0.7027881664566024,-1.558957452000375,30.565590027977063,18.365831595026236
-0.0286,0.9826,0.0085,-0.1012,0.1922,-0.0596,-4.1388,-1.7587,-9.8525,0.5692741212925754,-1.6494096717553661,30.036791431350885,18.378023220998703
-0.0373,0.9809,0.0066,-0.1029,0.1938,-0.0526,-2.2575,-0.4725,-9.835,0.5575030655039134,-2.0913057893654465,27.59259825113413,18.390089207537233
-0.0476,0.9792,0.0083,-0.103,0.19,-0.0576,-4.7512,0.2187,-9.5113,0.5066238564188011,-2.6755548410299386,27.71370790616684,18.399653376727894
-0.0559,0.9858,0.0079,-0.103,0.19,-0.0576,-5.4688,0.2975,-7.5513,0.4706068096407236,-3.177565672721629,27.616940697767443,18.4116361935003
-0.0667,0.9958,0.0036,-0.1052,0.1898,-0.0582,-5.6087,0.0088,-5.4775,0.2686532822086279,-3.769525168128645,27.074392624131146,18.423752435812407
-0.0603,1.0005,0.0089,-0.1052,0.1898,-0.0582,-5.8625,-0.3413,-4.2263,0.45653781765183093,-3.476242173530091,27.164680630239452,18.435885312077737
-0.0489,0.9981,0.0129,-0.1064,0.1883,-0.0564,-6.7375,-0.8575,-4.0163,0.6880115233685015,-2.8608859829890885,27.05618243672102,18.448024912707137
-0.0426,0.9981,0.0113,-0.1066,0.1893,-0.0539,-6.7813,-1.1112,-4.2613,0.6558628139097064,-2.479480057277385,26.3732815912392,18.46025299181114
-0.0331,0.9889,0.0185,-0.1066,0.1893,-0.0539,-6.8162,-1.9075,-5.6175,0.9959956461004165,-1.9711756233668836,26.82605422772955,18.472367464553752
-0.0159,0.9791,0.027,-0.1088,0.1878,-0.0569,-7.4812,-2.2838,-7.21,1.4847927020482283,-1.0490998237067468,28.531848426559286,18.484542102659095
-0.0098,0.9764,0.0308,-0.1088,0.1878,-0.0569,-7.3238,-2.0825,-8.4175,1.7530835450122646,-0.6377121908014584,29.32552654656,18.49666825456036
-0.0076,0.9679,0.0269,-0.112,0.1869,-0.0564,-7.2275,-2.1438,-9.66,1.6192633496748172,-0.4795820836195272,28.6846484304619,18.5061032451781
-0.0032,0.965,0.034,-0.1119,0.1863,-0.0458,-7.1663,-2.0563,-10.9725,1.9496252064669932,-0.24804610242315994,25.837157614769943,18.51833592516278
-0.0091,0.9636,0.0335,-0.1119,0.1863,-0.0458,-6.0462,-1.4,-14.4812,1.9823232064544027,-0.3418670821794339,25.015336116249255,18.53057214428645
-0.0201,0.9588,0.0337,-0.1126,0.1834,-0.0533,-5.6438,-1.3912,-14.7437,2.0059024524821143,-0.4903983408103536,26.552272000999373,18.542981781220337
-0.0251,0.9639,0.0333,-0.1126,0.1834,-0.0533,-4.34,-1.5312,-15.0762,1.987671124585185,-0.6001617409265082,26.833218754985413,18.55502901032225
-0.022,0.9733,0.0345,-0.1107,0.1856,-0.0502,-3.85,-1.26,-15.085,2.0132783292681373,-0.681100308486138,26.455870682192838,18.567214619758445
-0.0199,0.9786,0.033,-0.1106,0.1864,-0.0519,-3.5963,-0.945,-15.3737,1.967450565176066,-0.8241966677634621,26.7963649577048,18.579421110114648
-0.0265,0.9825,0.0295,-0.1106,0.1864,-0.0519,-3.1937,-0.4987,-15.2775,1.8523989954293956,-1.0006428904608422,26.57941974189099,18.59168033364171
-0.0275,0.9826,0.0292,-0.1111,0.1845,-0.0517,-2.6338,-0.2625,-15.2775,1.8170343321606797,-1.1480908082268724,26.357150585911583,18.603821349926704
-0.0332,0.9822,0.0271,-0.1111,0.1845,-0.0517,-2.5638,-0.1925,-14.8487,1.7715742482588088,-1.222404014924061,26.063155855887334,18.616065355156135
-0.0328,0.9841,0.0273,-0.1114,0.1834,-0.057,-2.7388,0.3413,-14.1138,1.7182346057878872,-1.5353245510578604,26.85922641322806,18.628234330639103
-0.0333,0.9867,0.0282,-0.1118,0.184,-0.0534,-2.5813,0.5775,-13.6588,1.7017252821559197,-1.7591747862127505,26.71138695732503,18.640382425202066
-0.0412,0.9893,0.0209,-0.1118,0.184,-0.0534,-2.0913,0.6212,-11.5762,1.6083227000338602,-2.2414006203001082,26.35001763105665,18.652553170254528
-0.0422,0.9917,0.0226,-0.1125,0.1834,-0.0514,-1.9775,0.3413,-10.4825,1.5300717865605602,-2.4004406945874015,25.674305609060387,18.66470551178427
-0.0358,0.993,0.0231,-0.1125,0.1834,-0.0514,-2.5375,0.4987,-9.0738,1.4955934287602126,-2.113074975577792,25.43820355593343,18.676766543528224
-0.0239,0.9927,0.0256,-0.1129,0.1842,-0.0518,-2.66,0.42,-7.5775,1.4909952391723111,-1.4663945095605715,25.562848238170464,18.686174990603586
-0.0242,0.9941,0.0214,-0.1168,0.1811,-0.0514,-3.6837,0.91,-6.3963,1.342548395931661,-1.4017443494572348,25.37485357874538,18.698248409333985
-0.0256,0.9919,0.0181,-0.1168,0.1811,-0.0514,-4.655,1.61,-4.3225,1.134663341023798,-1.4716039983433773,25.0120435267247,18.710411368280678
-0.0303,0.9919,0.0167,-0.1158,0.1814,-0.0526,-5.145,1.96,-2.0913,1.0091021517020413,-1.7294031559134377,24.848611014623046,18.722485848752772
-0.0281,0.9895,0.0121,-0.1158,0.1814,-0.0526,-5.215,2.5638,0.1138,0.77992612377005,-1.6329395993442708,24.57963151670415,18.73453484742418
-0.018,0.9895,0.0221,-0.1203,0.1794,-0.0462,-6.0637,2.4063,1.085,1.17402375988798,-1.0765831187606265,23.198806750152333,18.74663905666374
-0.0084,0.9866,0.0243,-0.1249,0.1773,-0.0495,-5.88,2.2925,0.3413,1.3588952564438534,-0.5238045722895859,23.133200687217492,18.75590523035194
-0.0071,0.9812,0.0234,-0.1249,0.1773,-0.0495,-6.1863,1.7937,-1.7587,1.3646579899541567,-0.4221721133612212,23.10420342536413,18.767994929121663
-0.0033,0.9776,0.0302,-0.1247,0.1779,-0.0485,-6.5975,1.6275,-2.7475,1.692635683488834,-0.2106459326252164,23.17026794569297,18.780145854995812
0.0027,0.9735,0.0327,-0.1247,0.1779,-0.0485,-6.8338,1.4787,-2.5113,1.8818709006891312,0.13133310814177543,23.298522744062172,18.79219308409773
0.0068,0.9738,0.0274,-0.1273,0.177,-0.0542,-6.5538,1.4437,-2.4675,1.663393001284706,0.38001152592025683,23.734846155015067,18.804224387074214
0.0154,0.9708,0.0293,-0.129,0.1752,-0.0502,-6.1338,1.0762,-4.3225,1.715145111976115,0.8629730443852461,23.7340174651387,18.816256751792398
0.0246,0.9704,0.0367,-0.129,0.1752,-0.0502,-5.3288,1.2337,-5.25,2.053264049684004,1.3961693250842206,23.804849425617338,18.82567440062912
0.0252,0.9618,0.0326,-0.1331,0.1739,-0.0494,-5.355,0.9887,-5.81,1.9690776041911142,1.4897588430051174,23.736650105881864,18.837665357421184
0.0281,0.9652,0.0353,-0.1331,0.1739,-0.0494,-4.69,1.365,-6.8688,2.0572377759047002,1.6470220784818606,23.695453139046318,18.84972815873463
0.028,0.9641,0.0386,-0.1308,0.1718,-0.0488,-4.165,1.6975,-7.3063,2.2097931913681026,1.6604637089644778,23.75240471512145,18.861705666798557
0.0285,0.9701,0.0365,-0.1308,0.1718,-0.0488,-3.9025,1.4437,-8.4175,2.176104830052945,1.6787829377770422,23.741808723599025,18.87376068200624
0.024,0.9726,0.0382,-0.1334,0.1732,-0.0501,-4.1912,1.2425,-9.73,2.2236908198456358,1.4552589058506051,23.74390780411284,18.88583268508104
0.0219,0.9773,0.0391,-0.1342,0.1719,-0.0469,-4.7688,1.0062,-10.7187,2.2715051992343844,1.3156526530762067,23.59321590526096,18.895256704367934
0.0249,0.9759,0.036,-0.1342,0.1719,-0.0469,-5.3025,0.3675,-10.99,2.1525810664269875,1.4313833455793081,23.026311578496344,18.907275974271876
0.0291,0.9738,0.0363,-0.1354,0.1745,-0.0458,-5.0225,0.14,-11.095,2.139614669596109,1.6530199967364838,22.45283021187473,18.919409204451103
0.03,0.9758,0.0415,-0.1354,0.1745,-0.0458,-4.8738,-0.4112,-11.8737,2.3519412707642995,1.7332897420879099,22.323129361017767,18.931564377292034
0.0279,0.9731,0.0404,-0.1348,0.1724,-0.0431,-4.6287,-0.7437,-12.95,2.369672330776797,1.6716525113659855,21.5513106222267,18.94370716314652
0.0322,0.9704,0.0397,-0.1348,0.1696,-0.0466,-4.06,-1.3387,-14.2975,2.352577463647763,1.7616338547498742,22.223517538619838,18.955823759372525
0.034,0.9645,0.047,-0.1348,0.1696,-0.0466,-4.4888,-1.785,-15.2163,2.651571424226711,1.8147676476087085,22.833251923997068,18.968023879278554
0.0382,0.9666,0.0445,-0.1357,0.1706,-0.045,-4.375,-1.8288,-15.8463,2.6410413033885867,2.025201198835404,22.40914658982597,18.979979798594677
0.0329,0.9698,0.0366,-0.1357,0.1706,-0.045,-3.92,-1.8025,-17.0275,2.346239627139213,1.968795130790678,21.796899400486996,18.992251055194288
0.032,0.9698,0.0398,-0.1361,0.1706,-0.047,-3.5613,-2.0388,-16.5462,2.3483537315223395,1.9193315861539122,22.30643526011217,19.004451529014215
0.0301,0.9764,0.0446,-0.1368,0.171,-0.0444,-3.9988,-1.4875,-16.1087,2.51545137767556,1.8359957272730991,21.815955527970925,19.013885811804162
0.0269,0.9812,0.0396,-0.1368,0.171,-0.0444,-4.4538,-1.3912,-16.1437,2.3764540246129506,1.6909379658649095,21.37857984718423,19.025525332095107
0.0279,0.9851,0.0378,-0.1349,0.1703,-0.0462,-4.3663,-1.5137,-16.5462,2.256333030693359,1.6480337086161774,21.86787520842846,19.03774491726555
0.0257,0.9884,0.0397,-0.1349,0.1703,-0.0462,-4.2788,-1.7675,-16.415,2.285279158637161,1.5531475011574856,22.044347659290054,19.0499393745492
0.0262,0.9922,0.0345,-0.1347,0.1715,-0.0456,-4.4888,-0.8575,-15.4962,2.084344042402506,1.5385523339855185,21.74679561486357,19.062147634474893
0.0273,0.9975,0.0355,-0.134,0.1709,-0.0434,-5.2413,-0.1925,-13.8425,2.0500134435612862,1.5533692126829088,21.27904551647544,19.074391993618224
0.0291,0.9872,0.0387,-0.134,0.1709,-0.0434,-6.3787,0.4812,-13.475,2.20636753238673,1.6331564267815002,21.25383911930778,19.086589282213065
0.0316,0.9881,0.0466,-0.137,0.1702,-0.042,-6.5538,1.33,-12.9062,2.605688271145782,1.765187479878547,21.178666715157163,19.09877949252994
0.0329,0.9872,0.0479,-0.137,0.1702,-0.042,-7.3413,1.9075,-13.65,2.7492495784514457,1.84515250604203,21.064786627206683,19.110922632298323
0.0336,0.9811,0.0447,-0.135,0.1694,-0.0454,-6.65,1.435,-14.3238,2.6350623862742846,1.8892833293869709,21.357931304695686,19.119760924083344
0.0276,0.9725,0.0471,-0.1346,0.1709,-0.0412,-6.475,1.2862,-13.93,2.7460302082740617,1.7550062833485718,21.290100457191492,19.13210650260162
0.0467,0.9556,0.0572,-0.1346,0.1709,-0.0412,-6.79,0.8575,-13.8075,3.3011517767968557,2.3090916957403587,21.4710332561894,19.144194077887956
0.0471,0.9546,0.0503,-0.1348,0.1702,-0.0406,-5.7312,1.1375,-14.0612,3.0809252226511292,2.5502955592605043,21.47063382961037,19.156374024701773
0.0507,0.9557,0.0501,-0.1348,0.1702,-0.0406,-5.2238,0.5688,-15.505,3.0213786315900655,2.7218267370101863,21.470873627276426,19.1685079627088
0.0537,0.9567,0.0617,-0.1369,0.1666,-0.039,-4.445,1.0412,-17.2287,3.4756604350890288,3.0582085360130695,21.453958602132193,19.180698526939572
0.0495,0.9505,0.0541,-0.1396,0.1707,-0.0401,-3.4213,1.0937,-18.5587,3.361674852547496,2.9941150112536024,21.430829847666573,19.1928982929317
0.0481,0.953,0.0526,-0.1396,0.1707,-0.0401,-2.555,1.0062,-19.775,3.3239366539891195,2.903748430474448,21.347206244317906,19.205050634461447
0.052,0.9521,0.0529,-0.1334,0.1706,-0.0396,-2.6688,1.05,-21.3412,3.2872282854625916,3.091908086938044,21.363129074466837,19.213928918516988
0.0544,0.9541,0.0609,-0.1334,0.1706,-0.0396,-2.4588,0.7875,-22.9075,3.330034537579519,3.238289599011599,21.570065723399036,19.226088338324697
0.0541,0.9593,0.0536,-0.1346,0.1719,-0.0446,-1.8025,1.3912,-24.045,3.2846767986186087,3.2243140239635903,21.952478087121,19.23831287828972
0.0546,0.9714,0.0539,-0.1328,0.1711,-0.0428,-0.63,1.855,-25.4188,3.216254696622526,3.2132007916742475,22.381691111957903,19.25049388684523
0.0483,0.9724,0.0554,-0.1328,0.1711,-0.0428,-1.015,1.4787,-26.1537,3.2414988462557695,2.8696709372599205,22.510722416322547,19.262663924069898
0.031,0.9656,0.0499,-0.1299,0.1726,-0.0416,-1.47,1.7325,-27.6675,3.1108828948076868,1.9117094973691022,22.348914131819914,19.274844578711512
0.0239,0.9684,0.0504,-0.1299,0.1726,-0.0416,-1.1638,2.2138,-29.12,3.0401300679236933,1.444812715455194,22.115039778205155,19.287046822100933
0.0179,0.9701,0.045,-0.13,0.173,-0.0414,-1.1287,1.68,-30.9225,2.8307552132180933,1.078865063916482,21.81609486067308,19.295884406058157
0.0145,0.9724,0.042,-0.1258,0.1777,-0.039,-1.6887,1.4437,-31.115,2.691584451379516,0.8666414225955904,21.5600469278204,19.3081259338903
0.0107,0.9771,0.044,-0.1258,0.1777,-0.039,-1.6362,1.2862,-30.45,2.6453657144407163,0.641312954161906,21.453498864661775,19.3202651806058
0.0079,0.975,0.0473,-0.1222,0.1769,-0.0435,-1.5487,1.0587,-30.0825,2.7031092344971994,0.4746997102769124,21.580640140470177,19.33245822223386
-0.0021,0.9848,0.0379,-0.1222,0.1769,-0.0435,-2.5025,1.3912,-29.75,2.628201064086694,-0.08430926849181962,21.72844887524725,19.344674976093117
-0.0045,0.9811,0.0459,-0.1211,0.1766,-0.0426,-2.5463,1.9775,-29.3125,2.6372989685595374,-0.2509070390674429,22.139578777028927,19.356964282301544
-0.0066,0.9756,0.047,-0.1211,0.1786,-0.0405,-2.3363,1.8288,-28.07,2.638537951405302,-0.37750361460543336,22.022563393102953,19.369083709838733
-0.0055,0.9703,0.048,-0.119,0.1786,-0.0405,-1.8725,1.6887,-27.5888,2.6989153476287098,-0.3282688379207293,22.130581895520283,19.381294093247817
-0.0021,0.9706,0.0501,-0.1151,0.1789,-0.042,-2.1263,2.03,-28.0263,2.7415062281759566,-0.1383294689882795,22.96590386293555,19.393543053271827
0.0073,0.9753,0.0521,-0.1151,0.1789,-0.042,-1.4,1.715,-29.9425,2.8935732087650083,0.3927999487442193,23.473919325190337,19.402399748579565
0.0066,0.9729,0.0473,-0.1144,0.1823,-0.0424,-1.505,2.0825,-32.41,2.8438980859836716,0.3884691177549425,23.897005370407122,19.41458465018796
0.0153,0.9636,0.0491,-0.1144,0.1823,-0.0453,-1.9775,1.7325,-34.1425,2.86277987048736,0.882728400781951,24.7040378388815,19.426745485651267
0.0263,0.9548,0.0498,-0.111,0.183,-0.0453,-1.6712,1.1287,-40.6087,2.91141641498911,1.5496784940345878,24.714197640806773,19.43894277424611
0.0356,0.947,0.0552,-0.1054,0.186,-0.0429,-0.8925,0.5688,-45.5612,3.161496521415377,2.130259191653338,26.11042596164903,19.451141832410443
0.04,0.9244,0.0475,-0.1054,0.186,-0.0429,-0.455,0.0963,-49.9362,3.018153726010709,2.464891789812165,27.214584354907153,19.46330903832392
0.0378,0.9315,0.0429,-0.103,0.1893,-0.0424,-0.315,0.105,-54.0312,2.7635092206533645,2.3248958103506077,27.701148083774598,19.47547341292621
0.0224,0.9334,0.044,-0.103,0.1893,-0.0424,-0.5425,1.0587,-57.6712,2.722109391930215,1.3949808897224854,27.687232717026497,19.484355236120734
-0.0005,0.933,0.0406,-0.0942,0.1934,-0.0427,-0.2187,1.2775,-59.9637,2.565842210386189,0.00030920380184447805,27.78211263611674,19.496339468548733
-0.0137,0.9448,0.0361,-0.0903,0.1985,-0.0432,-0.5163,1.7937,-59.885,2.3225826489845844,-0.8120690090603183,28.10114356521284,19.508523662329335
-0.053,0.9567,0.0406,-0.0903,0.1985,-0.0432,-0.9013,2.8612,-58.1263,2.3857176712930075,-3.114694296601209,27.43341312484421,19.520732276168925
-0.0549,0.9531,0.0414,-0.0822,0.2022,-0.045,-1.1812,3.4913,-56.665,2.439885814594413,-3.28939356995001,29.1443235102463,19.53300671799362
-0.0535,0.9422,0.0382,-0.0822,0.2022,-0.045,-1.3825,3.6488,-56.0788,2.382510135582106,-3.248218353686183,29.50046135341425,19.545243998858982
-0.0519,0.9389,0.0387,-0.0747,0.2059,-0.0454,-0.98,3.8937,-56.7962,2.3697714831762107,-3.1632954694149578,31.40925952938252,19.55748835800231
-0.0594,0.9442,0.035,-0.0695,0.2082,-0.0458,-0.1663,4.375,-57.9687,2.2010272845269228,-3.587432331629763,32.635381583082705,19.57004699268743
-0.0923,0.9651,0.0318,-0.0695,0.2082,-0.0458,-0.2538,5.355,-59.6487,1.9893597656810313,-5.419098273052104,31.02493581688029,19.582234371693115
-0.1161,0.9979,0.0271,-0.0636,0.214,-0.0521,1.2337,7.8575,-62.7025,1.6507309456230177,-6.608862722476997,33.11125686979981,19.594371494925227
-0.1337,0.9891,0.0386,-0.0636,0.214,-0.0521,1.0237,9.1962,-62.3875,2.1005626845694008,-7.670047403123622,33.42725795872003,19.603665981725303
-0.1477,0.989,0.0293,-0.0574,0.2198,-0.051,0.0175,9.8262,-63.035,1.817662085384626,-8.47355231338175,32.92155498479301,19.61578788665978
-0.15,0.9899,0.0343,-0.0495,0.2254,-0.0478,-0.49,9.7212,-62.0288,1.9256719307365757,-8.608547444538894,33.8795540236025,19.627868383668147
-0.1563,0.9611,0.0335,-0.0495,0.2254,-0.0478,-1.26,9.7037,-61.6787,1.9621066120552875,-9.218367902863257,33.34623057486075,19.640140348095553
-0.1598,0.9393,0.0398,-0.0448,0.2306,-0.0467,-0.98,10.115,-62.16,2.2284199134100557,-9.637723819270317,34.28202572554302,19.652306846181233
-0.1644,0.9396,0.0311,-0.0448,0.2306,-0.0467,-0.42,10.395,-63.6388,2.0102305367680198,-9.913482417501868,33.14017616998422,19.664535279199136
-0.1779,0.9471,0.0313,-0.0372,0.235,-0.0546,-0.805,10.8413,-65.3625,1.9394040724695154,-10.618621783019494,37.614781240461646,19.676728674741092
-0.1987,0.9544,0.0357,-0.0313,0.2391,-0.0525,-1.5487,11.6462,-65.4763,2.028088335717216,-11.730617366789641,37.86275640849753,19.688965955606456
-0.2216,0.9514,0.0342,-0.0313,0.2391,-0.0525,-0.9363,11.9263,-65.59,2.045905186515917,-13.076799841937914,36.10080203861781,19.701214207802668
-0.2236,0.9465,0.0357,-0.027,0.2457,-0.0562,-0.5075,12.0575,-65.4675,2.1195526377380967,-13.278688213873842,38.31227829458664,19.713484402660583
-0.2214,0.9401,0.0393,-0.0179,0.251,-0.0552,0.1488,11.83,-67.025,2.3148758158251534,-13.241624169375937,41.175315576369066,19.72557162403302
-0.2236,0.9303,0.0342,-0.0179,0.251,-0.0552,0.455,12.3112,-68.5738,2.1607873172868364,-13.501202708928734,40.511216797099955,19.737787316150577
-0.2467,0.9207,0.0289,-0.0137,0.2578,-0.0557,0.4375,11.865,-71.4088,1.8943068422328673,-14.96693824711224,38.901019756651046,19.74994850552778
-0.2696,0.926,0.0294,-0.0137,0.2578,-0.0557,1.0237,11.6637,-73.4738,1.835927685648113,-16.203759648592023,37.188588165476844,19.75926104193667
-0.2885,0.9265,0.0245,-0.0039,0.2665,-0.0579,0.7437,11.4275,-75.0313,1.5936734190031117,-17.27243472541215,38.12774401941962,19.77156556644273
-0.3084,0.9263,0.0253,0.001,0.2738,-0.0617,1.1112,10.6925,-76.2125,1.5710970466626502,-18.38989114239423,39.050809250795616,19.783484678713425
-0.312,0.9259,0.03,0.001,0.2738,-0.0617,1.505,9.275,-77.595,1.7968556484133031,-18.609641463005694,39.39406385569535,19.79556482180789
-0.3157,0.9129,0.024,0.0082,0.2818,-0.0614,2.5813,8.0937,-79.1963,1.5551958768999776,-19.063286359712436,39.39241589767984,19.807670092789145
-0.3181,0.9083,0.0182,0.0082,0.2818,-0.0614,2.0213,8.0587,-80.92,1.2240748323233168,-19.29392042800991,38.41377714019712,19.819761561128363
-0.3253,0.9067,0.0153,0.0166,0.2917,-0.0598,1.33,7.63,-82.5125,1.0220094342638617,-19.727632994599002,38.146962140226556,19.831727036119744
-0.3435,0.893,0.0077,0.0166,0.2917,-0.0598,0.525,8.3825,-83.4488,0.6311322349285491,-21.020078094338935,35.36907395501373,19.841046296892706
-0.3612,0.8932,0.0101,0.0234,0.3008,-0.063,-0.1312,8.4087,-82.8713,0.6426194723491431,-22.002120170670814,36.0799161002729,19.85315616875464
-0.3868,0.8969,0.0082,0.0319,0.3094,-0.0653,0.3413,8.9862,-81.27,0.5562132946573669,-23.308195588090257,36.21141738538108,19.865269933669456
-0.4185,0.9123,0.0096,0.0319,0.3094,-0.0653,0.9975,9.8262,-77.1225,0.5920960223500483,-24.620072312773686,34.68449814303881,19.877312561890694
-0.4234,0.9123,0.0107,0.0367,0.3166,-0.0659,0.2538,10.6487,-76.965,0.6496560222762117,-24.890234345371493,34.911983315756046,19.889405091971604
-0.4234,0.9001,0.0111,0.0367,0.3166,-0.0659,-0.5513,10.7975,-76.6938,0.6860345249539748,-25.185466665303103,34.62742073224051,19.901597425771868
-0.4224,0.885,0.0076,0.0422,0.3274,-0.0682,-0.9187,11.1212,-78.435,0.5726159701392748,-25.508676872824775,34.662947849263624,19.91381488745892
-0.4277,0.8761,0.0014,0.0472,0.3362,-0.0694,-1.26,11.5762,-80.5438,0.3244100068679671,-26.013273555526435,33.74729920483354,19.923081768974917
-0.4534,0.8513,-0.0007,0.0472,0.3362,-0.0694,-0.8663,11.9437,-82.1975,0.10393495994214431,-28.009939423140157,30.959718235017238,19.935262069702635
-0.4814,0.8539,-0.0135,0.0564,0.3454,-0.0705,-2.1438,12.3725,-82.9763,-0.05163461080685255,-29.38949306004172,28.47592858880321,19.947506782759863
-0.502,0.85,-0.0107,0.0564,0.3454,-0.0705,-1.8288,13.1425,-82.8363,-0.27397492529721057,-30.54656650184294,27.500116293437312,19.95967858955402
-0.5392,0.8578,-0.0021,0.0606,0.3554,-0.0686,-1.2862,13.0987,-82.495,-0.20581840655600425,-32.129331181178856,26.25861879864915,19.97198063666279
-0.5565,0.8691,-0.0022,0.0674,0.3626,-0.0734,-1.085,13.1512,-82.11,-0.17215941494803683,-32.624689934313125,27.462118945401173,19.984132978192534
-0.5988,0.8793,-0.0002,0.0674,0.3626,-0.0734,-0.7088,12.9587,-81.5588,-0.07383413246503708,-34.23060488449285,26.383342299265816,19.996367781660606
-0.6028,0.8761,0.0075,0.071,0.3746,-0.0738,-0.245,12.8975,-79.2575,0.3073156727358131,-34.52434092358407,26.624402073755522,20.008579226811385
-0.6023,0.8658,0.0005,0.071,0.3746,-0.0738,-2.4763,11.7512,-78.225,0.27147205871819086,-34.82000565860497,25.53989064654291,20.02081792333234
-0.5999,0.8466,0.0017,0.0772,0.3827,-0.0778,-4.165,11.1562,-76.0113,0.17014745027678402,-35.31321981568496,26.334127649049115,20.032691734624034
-0.5966,0.8357,-0.0122,0.081,0.3928,-0.0774,-5.5125,11.69,-74.0513,-0.5959577665479123,-35.516433176041986,23.966396773055752,20.044913089363966
-0.6045,0.817,-0.0153,0.081,0.3928,-0.0774,-6.16,12.0312,-71.0675,-0.974201881521177,-36.475914271627936,22.597046959134236,20.05716169547408
-0.6049,0.8125,-0.0109,0.0851,0.4006,-0.0772,-6.5713,13.2825,-69.7988,-0.8077959370211556,-36.66154594000081,22.707881633060815,20.069442861662843
-0.6273,0.8032,-0.0099,0.0888,0.4064,-0.085,-7.0788,14.0963,-68.3025,-0.7238391444834005,-37.9633591846907,23.78417894575255,20.08167271033634
-0.6352,0.7962,-0.021,0.0888,0.4064,-0.085,-7.1575,14.9625,-66.29,-1.3758863034402018,-38.5611418402696,21.970943356635644,20.093913530340686
-0.6715,0.8141,-0.0253,0.0922,0.414,-0.0825,-6.6588,15.7762,-63.595,-1.7042407579742787,-39.48452468445725,19.903802853758076,20.10616567558978
-0.6894,0.8187,-0.0211,0.0922,0.414,-0.0825,-5.495,16.9837,-60.795,-1.5309990376140514,-40.077311305555924,19.988017201208173,20.11838738424361
-0.7102,0.8269,-0.0109,0.0922,0.4202,-0.0852,-5.5037,17.7362,-57.4263,-0.9409092345769474,-40.64254018562363,21.205299739911695,20.12730389100018
-0.7194,0.8247,-0.0048,0.0962,0.4243,-0.0869,-5.355,18.1125,-53.2962,-0.48423804718043567,-41.08668661073347,22.157428625066203,20.13949728654214
-0.7169,0.8094,-0.0046,0.0962,0.4243,-0.0869,-6.5713,16.7038,-51.6075,-0.3558606019085359,-41.519613814443545,21.963187852619043,20.151734921321403
-0.7019,0.7775,-0.0051,0.0952,0.4288,-0.0879,-7.0437,15.925,-52.2375,-0.37233372231234885,-42.05953317105574,21.44093451646424,20.164038030171866
-0.6854,0.7608,0.0002,0.0952,0.4288,-0.0879,-6.6937,15.1462,-52.8063,-0.057108836679318466,-42.01662568506115,22.09793689306451,20.17623284136942
-0.6742,0.7403,0.0035,0.0983,0.4358,-0.0901,-5.95,14.5425,-53.7163,0.19995043859386302,-42.316444429994824,22.645050482209513,20.1884442865202
-0.6765,0.7229,0.0023,0.0986,0.4415,-0.0906,-5.1363,14.5162,-55.1688,0.18692730259718557,-43.08176081803266,21.902691046118402,20.200680859557764
-0.6798,0.6898,0.0081,0.0986,0.4415,-0.0906,-2.9838,14.2975,-57.7325,0.37971475964443285,-44.54547783612249,21.851092618476642,20.213323725750705
-0.6806,0.6791,0.0076,0.1025,0.4487,-0.0927,-0.595,13.7987,-60.0337,0.5454422322455919,-45.05021756075923,21.79191508628155,20.22547323596926
-0.6951,0.6751,0.0049,0.1025,0.4487,-0.0927,2.415,13.7725,-62.0812,0.43842831108229086,-45.819182564421205,21.058253732027246,20.237607527890184
-0.6924,0.6765,-0.0005,0.1041,0.4586,-0.0908,4.4888,12.6962,-65.1438,0.019174428989332203,-45.668465098609694,19.632640913448665,20.249637415211076
-0.6923,0.674,-0.0126,0.1067,0.4651,-0.0967,5.9588,12.5562,-66.1413,-0.953569360823581,-45.7605620282082,18.771001421021893,20.261781262807258
-0.7072,0.6895,-0.0207,0.1067,0.4651,-0.0967,9.4675,12.8537,-65.9313,-1.6597262470917804,-45.7140666882138,17.71162842717076,20.27103363385342
-0.7116,0.6927,-0.0271,0.108,0.4735,-0.0988,11.13,13.3962,-66.8763,-2.2002302660241075,-45.74851548386985,16.834231344000628,20.283141736145865
-0.7412,0.6933,-0.0379,0.108,0.4735,-0.0988,11.2262,13.4225,-67.0338,-3.065196712984853,-46.848704066253276,14.97285330102757,20.295359197832916
-0.7499,0.6912,-0.0359,0.1079,0.4822,-0.0991,11.8212,13.9038,-67.2788,-2.979268179329736,-47.285712055339516,14.602419680285964,20.307621252671165
-0.7611,0.6836,-0.0412,0.1101,0.4893,-0.1033,13.1687,13.6237,-67.9175,-3.4205190648159434,-48.00542086171471,14.106237022114419,20.319865611814496
-0.7834,0.6842,-0.0584,0.1101,0.4893,-0.1033,13.545,12.8887,-67.9525,-4.792235998833979,-48.74982814838703,11.72864220242619,20.332129790136136
-0.7923,0.6862,-0.0617,0.1133,0.4991,-0.1071,13.2388,12.7925,-66.3075,-5.117089479302297,-48.985832160075844,11.404489980394793,20.34432389350589
-0.8103,0.6975,-0.0744,0.1133,0.4991,-0.1071,13.23,12.8625,-64.4875,-6.029852009345106,-49.11544988663642,9.938002015348866,20.356550203040403
-0.8263,0.7067,-0.078,0.114,0.5091,-0.1076,13.6237,12.7137,-62.1862,-6.282523629959412,-49.285975008191976,9.188705534250007,20.368798101322717
-0.8453,0.7202,-0.0795,0.1154,0.5148,-0.1097,12.5562,13.1075,-57.47,-6.298102724762204,-49.39490467505278,9.24945295871189,20.38104423003554
-0.8843,0.719,-0.0792,0.1154,0.5148,-0.1097,8.6887,11.6375,-54.3725,-6.28696996872761,-50.68445019346716,9.028202672785293,20.393260276066997
-0.8974,0.7122,-0.0803,0.1147,0.5214,-0.1094,7.5338,9.9663,-52.2812,-6.419451002757024,-51.36889238751815,8.414929484336634,20.405387135796055
-0.9089,0.7091,-0.0791,0.1167,0.529,-0.112,5.5738,8.2775,-49.5075,-6.371137784025857,-51.85360422337704,8.513267981120556,20.417553987795632
-0.908,0.701,-0.0761,0.1167,0.529,-0.112,3.8763,6.4138,-46.5412,-6.220076876930069,-52.15877284786228,8.694831786302391,20.42700136539982
-0.9093,0.6992,-0.0872,0.1143,0.5349,-0.1122,2.5988,4.9788,-44.7912,-6.958863566321269,-52.2256548285846,7.458238333559429,20.438740689410118
-0.9085,0.6889,-0.0914,0.1143,0.5349,-0.1122,1.9075,3.2025,-41.265,-7.443190069040502,-52.57340835688317,6.755966027235959,20.450893738767657
-0.9195,0.6911,-0.093,0.1144,0.5374,-0.1111,0.3763,1.0412,-38.4738,-7.604461467364732,-52.813866709510364,6.690836644403247,20.463042895072316
-0.9259,0.6912,-0.0984,0.1144,0.5374,-0.1111,-1.2862,-0.7613,-35.4813,-7.858203926991073,-52.974296357940915,5.787845906371549,20.475290085526833
-0.9248,0.6892,-0.0929,0.117,0.5405,-0.1132,-2.8612,-2.205,-33.3112,-7.794977105116702,-53.053193648759766,6.081416426948483,20.487539045550843
-0.9064,0.6827,-0.08,0.1174,0.543,-0.1111,-3.5263,-4.1737,-31.71,-7.188656189755882,-52.83787402235664,7.089689672033125,20.49977066379383
-0.8585,0.6658,-0.0864,0.1174,0.543,-0.1111,-5.9237,-5.7925,-30.6425,-7.3492439609525215,-52.024932297682156,6.428147154911494,20.51183417293507
-0.8445,0.6401,-0.0822,0.118,0.5446,-0.1078,-7.9187,-6.2475,-30.7038,-7.322507351828049,-52.5782583565159,5.892501756924923,20.524011288437702
-0.8414,0.6156,-0.0795,0.1218,0.5451,-0.1072,-9.3887,-6.405,-30.9575,-7.3541068666205645,-53.52419689873772,5.6143841495717,20.536647076352676
-0.8378,0.6018,-0.0745,0.1218,0.5451,-0.1072,-8.9687,-6.5363,-31.1763,-7.095911576661994,-54.06962111831946,5.921442472189927,20.548802249193606
-0.8314,0.5907,-0.0726,0.1201,0.5469,-0.1071,-7.7962,-6.2475,-30.4237,-7.0205721813399276,-54.38333139271186,5.9155134640424505,20.56104802399253
-0.8239,0.5932,-0.065,0.1201,0.5469,-0.1071,-7.7613,-6.6325,-29.8113,-6.372483855352908,-54.103058054848255,6.91875178360118,20.57327468744094
-0.8145,0.5904,-0.0586,0.1219,0.5506,-0.1059,-6.9738,-6.2913,-30.0212,-5.792991957927235,-53.940321128012286,7.565739130609247,20.585500643061554
-0.8052,0.5913,-0.0621,0.1223,0.5522,-0.1042,-7.1225,-6.2913,-30.5112,-5.96047043794937,-53.581270696629545,7.008330662301827,20.595051363524075
-0.8029,0.5819,-0.0465,0.1223,0.5522,-0.1042,-6.9913,-5.6788,-31.5088,-4.8144732467987765,-53.95791949160657,8.705995005020652,20.60676662138928
-0.8084,0.5729,-0.0442,0.1227,0.5534,-0.1018,-6.2913,-4.6638,-32.8213,-4.492821751459319,-54.56139795933141,8.702404312279159,20.619005317910236
-0.8196,0.564,-0.0491,0.1227,0.5534,-0.1018,-6.265,-4.1563,-32.5237,-4.877725051742516,-55.32218433376799,7.924164682913385,20.631239059636616
-0.8233,0.5546,-0.047,0.1227,0.5562,-0.1014,-3.5788,-3.7888,-32.9612,-4.858970085445338,-55.90705372313434,7.776106581689774,20.643487665746726
-0.8276,0.5509,-0.0459,0.124,0.5602,-0.1018,-2.0213,-3.7975,-32.3838,-4.8365094992009325,-56.23935105075073,7.77454772968015,20.65569804915581
-0.8256,0.5691,-0.0432,0.124,0.5602,-0.1018,-0.595,-3.5263,-32.1738,-4.522417026544874,-55.393039085022224,8.374791929693787,20.667965766616433
-0.8198,0.5747,-0.0476,0.1222,0.5631,-0.0985,0.8138,-2.8438,-31.955,-4.683468295389245,-54.90517912488572,7.634400365484249,20.68015951607229
-0.8269,0.5811,-0.0494,0.1222,0.5631,-0.0985,1.3737,-2.2225,-32.27,-4.82172806269885,-54.81089458936861,7.361441548049223,20.692362821203407
-0.8317,0.5882,-0.0513,0.125,0.5658,-0.0983,1.6187,-1.1987,-32.2438,-4.951543007431548,-54.638609229255,7.1449605643404475,20.70453285842807
-0.8388,0.5933,-0.0514,0.1218,0.568,-0.101,1.1462,-0.07,-32.2525,-4.951435351361705,-54.62708020862116,7.276917325210684,20.716753859254105
-0.8675,0.5897,-0.054,0.1218,0.568,-0.101,1.2775,1.0937,-32.1037,-5.1711287144874785,-55.623902785271234,7.260926894889981,20.72893451389572
-0.8771,0.5859,-0.0522,0.1273,0.5708,-0.1001,1.6362,1.1725,-32.1125,-5.107348102687992,-56.123396711755525,7.244937941047256,20.741081546716988
-0.8838,0.5863,-0.0562,0.1273,0.5708,-0.1001,1.1025,1.7062,-31.6575,-5.392272751033829,-56.3084012894212,6.895220578233253,20.75013961903292
-0.8738,0.5864,-0.052,0.1241,0.5724,-0.0976,0.5338,1.6013,-30.7737,-5.151676142712017,-56.04735800063122,6.7633250857115605,20.762254799603333
-0.9019,0.5794,-0.0517,0.1275,0.5765,-0.1002,0.0525,1.1725,-29.9075,-5.114600185981292,-57.10810551162999,6.756347172722338,20.774736988886396
-0.8921,0.5631,-0.0577,0.1275,0.5765,-0.1002,0.4812,0.455,-28.7262,-5.657272898228386,-57.5707753103391,6.250652700769253,20.786804037166622
-0.888,0.5653,-0.0536,0.126,0.5772,-0.1005,0.8487,0.2187,-27.7112,-5.474111219101284,-57.415142506589504,6.193455576641875,20.79892204904822
-0.8801,0.5768,-0.0576,0.126,0.5772,-0.1005,2.0388,0.8138,-26.3725,-5.660110851944359,-56.69276779287222,6.102255061991644,20.81103439830744
-0.8772,0.5808,-0.0583,0.1253,0.5781,-0.1002,1.7762,1.0675,-24.8062,-5.71797463743016,-56.38962161051165,6.079821146504889,20.823106401382244
-0.8865,0.5847,-0.061,0.1269,0.5803,-0.0997,0.6913,2.2488,-22.5925,-5.896712227591746,-56.44306554237304,5.670753390248338,20.833181268328314
-0.8976,0.576,-0.0526,0.1269,0.5803,-0.0997,0.0088,2.3712,-20.2125,-5.421350604950445,-57.08161471809569,5.991682361884815,20.85473710213884
-0.9025,0.578,-0.0586,0.1275,0.5801,-0.1011,-0.105,1.4962,-19.6437,-5.674924910194492,-57.20355587833187,5.902005455192119,20.858781630169887
-0.8971,0.5799,-0.059,0.1275,0.5801,-0.1011,-0.385,-0.1225,-19.635,-5.763660829990283,-57.02434736313992,5.76251391169152,20.868826060520693
-0.8965,0.5805,-0.0533,0.1266,0.5818,-0.1,-0.63,-0.735,-19.8887,-5.438040389641475,-56.97615674021807,6.072216721905455,20.881062987472156
-0.887,0.5688,-0.052,0.1259,0.5828,-0.098,-1.4175,-1.4262,-20.1688,-5.335912368978824,-57.18162851623762,5.984351796320761,20.893287173523277
-0.8881,0.5538,-0.0589,0.1259,0.5828,-0.098,-2.5463,-2.0825,-19.1712,-5.468635250970238,-57.76909803057394,5.027278595908533,20.90553684137508
-0.8782,0.5516,-0.0575,0.1258,0.5841,-0.0984,-1.715,-2.38,-17.7712,-5.6516240269721445,-57.73826885947185,4.9505039049511925,20.917726697778058
-0.8754,0.5563,-0.0566,0.1258,0.5841,-0.0984,-1.1025,-1.855,-16.9837,-5.7384899426611415,-57.53246493563845,5.09810961510204,20.929958669934944
-0.8753,0.5613,-0.0595,0.1258,0.5846,-0.0987,-0.4987,-1.3912,-16.0212,-5.940451717178871,-57.35232943869939,4.931124286701136,20.942209399528444
-0.8738,0.5625,-0.0662,0.1285,0.5827,-0.0983,-1.1812,-1.33,-15.4962,-6.352367214222067,-57.24568931779457,4.24742660887269,20.954451635188384
-0.8771,0.5684,-0.0655,0.1285,0.5827,-0.0983,-2.0738,-0.9187,-16.2575,-6.396901451143604,-57.039956467366615,4.198114107485543,20.96664396898865
-0.8797,0.5632,-0.0653,0.1267,0.5837,-0.099,-2.45,-1.3125,-17.4913,-6.420818817467107,-57.15328362414158,4.167504950771155,20.978879126370618
-0.8775,0.5622,-0.0664,0.1244,0.5855,-0.0962,-2.2838,-1.8637,-18.5237,-6.433557254855788,-57.16825433886121,3.718900907328502,20.99110578981903
-0.8732,0.5626,-0.0602,0.1244,0.5855,-0.0962,-2.8612,-1.995,-19.0925,-6.319911276437239,-57.07927321515922,4.266112980697319,21.00332360541998
-0.8724,0.5532,-0.0523,0.1254,0.5854,-0.096,-3.5788,-1.47,-18.8563,-5.808741491841552,-57.41841164665957,5.052673196453814,21.015522663584314
-0.868,0.5499,-0.0479,0.1254,0.5854,-0.096,-4.4538,-1.2163,-18.585,-5.243786832388035,-57.519027093447384,5.666342503310374,21.027624749340482
-0.8635,0.5471,-0.0421,0.1283,0.5862,-0.0971,-4.27,-1.8375,-18.5587,-4.686809190900748,-57.555630393404826,6.560662170462639,21.036322183393935
-0.8639,0.5413,-0.0401,0.1245,0.5834,-0.0965,-4.27,-1.295,-18.375,-4.389643106554679,-57.79046974121956,6.875374364794066,21.048586361715575
-0.8671,0.5385,-0.0376,0.1245,0.5834,-0.0965,-2.8438,-0.9013,-19.075,-4.25469729272901,-58.036162958651715,7.163205060571568,21.060844877414844
-0.8714,0.5346,-0.0354,0.1269,0.5853,-0.0953,-3.29,-1.0937,-18.2787,-4.025847208283325,-58.32755704982333,7.303432007962069,21.073088528730377
-0.8757,0.5332,-0.0379,0.1269,0.5853,-0.0953,-1.9075,-0.9887,-18.2787,-4.037621878213787,-58.536442506908074,7.078416764321855,21.08598904424136
-0.874,0.5408,-0.0401,0.1294,0.587,-0.0983,-1.0937,-0.5688,-18.6987,-4.1497180490295,-58.256630543396014,7.12426052363595,21.09837850808304
-0.8716,0.5478,-0.0428,0.1278,0.5855,-0.0947,-0.4812,-1.2075,-18.97,-4.355780929848351,-57.8686495630364,6.650175979945334,21.110586414094833
-0.8761,0.5552,-0.0386,0.1278,0.5855,-0.0947,-0.9538,-0.4025,-19.145,-4.1367140575800425,-57.63103602581845,6.946313647217055,21.122668680672692
-0.8731,0.5511,-0.0409,0.1287,0.5874,-0.0942,-0.4375,-0.1138,-18.7512,-4.207142382797472,-57.660965502919346,6.788938517764375,21.134908085021443
-0.8781,0.5464,-0.047,0.1287,0.5874,-0.0942,-0.7962,-0.5425,-18.4363,-4.635997119077219,-57.93459264970263,6.1142904550258725,21.147134394555955
-0.8788,0.545,-0.0473,0.1277,0.5886,-0.0968,-1.5225,-0.2975,-18.6287,-4.780436900954704,-58.063003262973076,6.014075311801704,21.159385124149455
-0.8742,0.5459,-0.0436,0.1278,0.5882,-0.0937,-1.12,0.5862,-17.8762,-4.663434330422673,-57.96771095476404,6.046574032111922,21.171419612351027
-0.8768,0.5478,-0.052,0.1278,0.5882,-0.0937,-0.1575,1.435,-18.1737,-5.182971931305732,-57.90720804301703,5.791135171425907,21.183623625309938
-0.8754,0.5522,-0.0493,0.1286,0.5893,-0.0932,-0.7263,1.7062,-17.0713,-5.133022841197149,-57.734968863748996,5.61966283218258,21.195860198347503
-0.879,0.5566,-0.0529,0.1286,0.5893,-0.0932,-0.63,1.9425,-16.3537,-5.319313667387898,-57.62159718438717,5.289851331776668,21.20804085298912
-0.8788,0.5607,-0.0495,0.1278,0.5878,-0.0959,-1.0937,2.3712,-16.1437,-5.167961801937129,-57.47941319572655,5.5746369817306105,21.217052208670466
-0.8802,0.5575,-0.0616,0.1267,0.5888,-0.0949,-1.365,2.975,-16.5987,-5.72526485323375,-57.48808260386068,4.494002160426866,21.229290551277522
-0.8894,0.5549,-0.0517,0.1267,0.5888,-0.0949,-1.925,2.9663,-16.3362,-5.610104496761009,-57.74370358418093,4.959360955057871,21.241456695449305
-0.8947,0.5538,-0.0508,0.1261,0.589,-0.0926,-2.5725,2.6425,-16.0562,-5.537111464945896,-57.94940769030032,4.9856095650319885,21.25383518796013
-0.8953,0.5525,-0.0491,0.1261,0.589,-0.0974,-3.1063,2.38,-15.1462,-5.336079148109701,-57.99322661786765,5.453504293736978,21.26589905101527
-0.8981,0.552,-0.0461,0.1291,0.5876,-0.0974,-2.9313,1.8288,-15.1375,-5.124107328781856,-58.04646327235496,5.793345358010653,21.27806838041214
-0.9013,0.5516,-0.0399,0.1282,0.5886,-0.0949,-3.8325,0.0875,-15.6012,-4.530981190631962,-58.211684770257335,6.295939477786764,21.29025752898732
-0.8892,0.5414,-0.046,0.1282,0.5886,-0.0949,-3.5438,-0.2538,-15.8987,-4.70971014178419,-58.3871828089459,6.0069292343143506,21.302506842925226
-0.8794,0.5375,-0.0437,0.127,0.5888,-0.091,-3.6138,-1.2775,-15.7412,-4.675004820106278,-58.42905218716948,5.703566805958209,21.314752263810252
-0.8748,0.5382,-0.0412,0.1271,0.5894,-0.089,-3.4738,-0.7,-16.0737,-4.516032643136518,-58.37370481698874,5.6943201973036,21.326970787239
-0.8746,0.5409,-0.0452,0.1271,0.5894,-0.089,-2.8263,-0.7875,-16.4062,-4.60299391148209,-58.25650569318827,5.34521902957618,21.339222224660297
-0.8871,0.5546,-0.0435,0.1281,0.587,-0.0942,-2.2138,-0.3675,-15.575,-4.591076944305397,-58.1228705890896,5.926010471137163,21.35146552206193
-0.8858,0.5561,-0.04,0.1281,0.587,-0.0942,-3.185,-0.28,-14.6737,-4.370701866512275,-58.055234359796614,6.453978220456417,21.363710942946955
-0.8797,0.5565,-0.0382,0.1274,0.5891,-0.0994,-2.9313,-0.8663,-15.2687,-4.203316662143484,-57.9511722725633,7.298537577182877,21.375919910700446
-0.8753,0.5488,-0.0403,0.1284,0.5884,-0.0921,-3.0713,-1.015,-15.785,-4.201840282311696,-57.902282399022226,6.690854585980385,21.38812286191766
-0.8652,0.5407,-0.04,0.1284,0.5884,-0.0921,-4.0075,-0.2975,-15.925,-4.220082080790083,-57.91431147528388,6.494192057062912,21.397294540594984
-0.8566,0.5268,-0.039,0.1293,0.5872,-0.093,-2.5113,0.91,-15.6887,-4.222257097776634,-58.09433125357255,6.4874565068413785,21.409574998955954
-0.8617,0.5301,-0.0386,0.1293,0.5872,-0.093,-1.9337,2.0213,-15.0062,-4.206048390880199,-58.106416398793776,6.517542359659465,21.42169124126806
-0.8681,0.5372,-0.0426,0.1247,0.5872,-0.0941,-1.6975,2.8788,-15.0237,-4.3326373426781615,-58.11057924809241,6.300577163817956,21.43385490804255
-0.8728,0.5503,-0.0426,0.1294,0.5877,-0.0934,-1.33,3.1588,-15.1375,-4.379508617968111,-58.04526000030852,6.304641376184497,21.44607060016011
-0.8797,0.5575,-0.0394,0.1294,0.5877,-0.0934,-1.61,3.2288,-14.4462,-4.238908536334782,-57.88589455560995,6.670582071251941,21.458280275741394
-0.8862,0.5566,-0.0423,0.1274,0.5863,-0.0942,-1.9425,3.01,-14.4725,-4.268579476330473,-57.855989480666096,6.575359734601951,21.470482519130815
-0.8789,0.5564,-0.0473,0.1274,0.5863,-0.0942,-2.8438,2.52,-14.4462,-4.470044101374612,-57.75989509807445,6.152899038256323,21.482636984143948
-0.8799,0.5527,-0.0439,0.1274,0.5873,-0.0925,-3.1412,2.1525,-14.6825,-4.502077583661002,-57.765077226832375,6.084569626528756,21.494906117260168
-0.8779,0.5484,-0.052,0.1277,0.5872,-0.0938,-3.3163,1.61,-14.665,-4.957156718988327,-57.79362790644335,5.730338011277787,21.50707403100144
-0.8943,0.5594,-0.0481,0.1277,0.5872,-0.0938,-2.8963,0.6825,-15.0237,-4.941659586917278,-57.79922635388208,5.712514279564825,21.51963125003097
-0.885,0.5554,-0.0395,0.1289,0.5877,-0.0938,-3.22,0.1925,-15.2512,-4.529272733832802,-57.80485172479097,6.253303543016082,21.52829541617797
-0.8792,0.5634,-0.0436,0.1289,0.5877,-0.0938,-3.8063,-0.5775,-14.4637,-4.467126171766876,-57.629173403671025,6.3475756715315015,21.54054437620198
-0.8708,0.5501,-0.0316,0.1284,0.588,-0.0851,-4.725,0.1138,-14.8662,-3.634679850544244,-57.63291411908559,6.561440691091998,21.552377841309255
-0.8757,0.5356,-0.0289,0.1298,0.5875,-0.0934,-4.7688,-0.1138,-14.6475,-3.247198551667183,-57.83858550907821,7.375875367632368,21.56465865358412
-0.8781,0.5219,-0.0393,0.1298,0.5875,-0.0934,-4.0687,-0.0175,-14.0787,-3.920185628366682,-58.47530867395035,6.809663726138277,21.576882131807444
-0.8768,0.5271,-0.0399,0.1286,0.5856,-0.0929,-2.1788,-0.1488,-14.7437,-3.972606612518634,-58.55138220543021,6.515545543019488,21.58917674672435
-0.8699,0.5342,-0.0351,0.1286,0.5856,-0.0929,-0.98,0.0088,-15.0587,-3.850201374272647,-58.536055796997395,6.829547248698269,21.60140128668937
-0.8761,0.5424,-0.0415,0.1278,0.5872,-0.0923,-0.9013,0.6563,-14.2187,-4.158719769619406,-58.37817596438711,6.621098342497776,21.613629011879475
-0.8777,0.5467,-0.0417,0.1266,0.5853,-0.0929,-0.9363,1.225,-14.0612,-4.276838193414706,-58.203444159004604,6.596305550210465,21.625891774545522
-0.8893,0.5524,-0.0523,0.1266,0.5853,-0.0929,-0.7088,1.5312,-13.825,-4.976104881862186,-58.1159016981512,6.114533119713803,21.638077383981717
-0.8977,0.557,-0.0581,0.128,0.5869,-0.0888,-1.6625,1.8112,-13.1075,-5.366490978459766,-58.06823026254556,5.100302672685014,21.65055886543698
-0.9041,0.5671,-0.0564,0.128,0.5869,-0.0888,-1.2862,1.8987,-13.0637,-5.526086040425329,-57.87635805724557,4.622251860192879,21.662725009608764
-0.913,0.5708,-0.0561,0.1281,0.5862,-0.0879,-1.9162,0.6563,-12.0575,-5.551399847227647,-57.86627973912289,4.415264609483235,21.674835589298493
-0.9201,0.5718,-0.049,0.1283,0.5838,-0.0941,-3.3425,0.2538,-11.4275,-5.221994535859671,-58.00698514197939,5.061973275674113,21.68427588862471
-0.9237,0.555,-0.0368,0.1283,0.5838,-0.0941,-3.6663,-0.665,-9.345,-4.403884223932876,-58.803193049623026,6.428656356454872,21.696528741701602
-0.9175,0.5519,-0.0349,0.1266,0.5835,-0.0903,-2.5813,-2.5638,-8.295,-4.244092344555235,-58.906033140312715,6.8257933594342495,21.708643922272014
-0.924,0.546,-0.0314,0.1266,0.5835,-0.0903,-2.73,-3.3338,-7.0175,-3.9699282326693623,-59.326359662203295,7.225762488055371,21.72081608298007
-0.918,0.5445,-0.0232,0.1261,0.5803,-0.0946,-2.2662,-3.4825,-4.9088,-3.883671422438742,-59.30551278060775,8.736280756491187,21.732893394763348
-0.9072,0.5352,-0.0275,0.1256,0.5782,-0.0918,-1.6887,-4.62,-4.025,-3.51693353288499,-59.418259106630614,8.168537596834758,21.745095992066666
-0.9109,0.5444,-0.0278,0.1256,0.5782,-0.0918,-0.5338,-5.4075,-4.06,-3.1359039138461893,-59.12901092156257,8.140466286158722,21.757267444946923
-0.916,0.5535,-0.0301,0.1282,0.577,-0.0903,0.0875,-5.9763,-4.1912,-3.1195316088991607,-58.84604458165704,7.822623055556269,21.769392535106487
-0.9213,0.568,-0.0342,0.1282,0.577,-0.0903,1.0762,-6.9475,-5.005,-3.371600294673637,-58.348968139382606,7.442351731836746,21.781443303347388
-0.9157,0.5843,-0.0367,0.1277,0.5773,-0.0894,0.5862,-8.82,-5.3025,-3.537179696514559,-57.49566656135834,7.198338933460339,21.79083617821122
-0.9066,0.5912,-0.0386,0.1291,0.5751,-0.0886,-1.0237,-10.7362,-5.9063,-3.6494101310944687,-56.90127814412462,7.019891823645516,21.803085846063027
-0.8766,0.5852,-0.0357,0.1291,0.5751,-0.0886,-2.8087,-11.9962,-4.8738,-3.5978314136840384,-56.28566620540599,7.3967346688263,21.81536311919891
-0.8576,0.5795,-0.0395,0.1302,0.5732,-0.0838,-3.4738,-11.5325,-4.13,-3.7589827113734766,-55.923991099112534,6.366220838194995,21.827521831178824
-0.8401,0.5795,-0.0405,0.1302,0.5717,-0.081,-3.6225,-10.7887,-3.6312,-3.8937982685918913,-55.384513319503746,5.889295047786323,21.83967983533094
-0.827,0.5822,-0.0343,0.1306,0.5717,-0.081,-4.0687,-8.925,-3.1763,-3.5620249737322665,-54.85320357157086,6.734905263616065,21.851864029111542
-0.8103,0.5838,-0.0336,0.1309,0.5702,-0.082,-3.7188,-6.0725,-2.1438,-3.4059898759966365,-54.23180245455686,7.140936805764543,21.864024864574848
-0.8252,0.582,-0.0319,0.1309,0.5702,-0.082,-3.7013,-3.4738,-1.8112,-3.2504151240035397,-54.72713439800273,7.3073243839866935,21.87618393046866
-0.839,0.5858,-0.0398,0.1292,0.567,-0.0856,-3.0713,-1.155,-1.2687,-3.522174404748182,-54.995241149126436,6.951268759721127,21.88833981113739
-0.8438,0.5916,-0.0356,0.13,0.564,-0.0854,-2.9838,0.1575,-0.4638,-3.491021401065634,-54.921560699933586,7.222213670782149,21.900462423899665
-0.8511,0.598,-0.0392,0.13,0.564,-0.0854,-2.765,0.8138,0.6737,-3.5701822059119013,-54.85387804617621,7.184350254722842,21.91251850084904
-0.8602,0.6174,-0.0414,0.1302,0.561,-0.0822,-3.4388,1.6362,1.4962,-3.710321278934346,-54.30400515305424,6.997923359792457,21.92181086416572
-0.8732,0.6192,-0.0336,0.1302,0.561,-0.0822,-2.9663,1.3737,2.4063,-3.4744180676755785,-54.6020191770256,7.1238757975118965,21.933916135146976
-0.8802,0.6187,-0.0327,0.1298,0.5571,-0.083,-4.0687,0.8312,3.4563,-3.189126031571393,-54.8454637599524,7.311254149655977,21.94589682843599
-0.8833,0.6169,-0.0312,0.1298,0.5571,-0.083,-5.355,-0.7525,5.845,-2.968221690493044,-55.02634900262687,7.822706141123357,21.957995375053176
-0.8842,0.6125,-0.0246,0.129,0.5566,-0.0828,-5.7925,-1.505,7.7438,-2.449566178767911,-55.25722322352627,8.593876789192672,21.970147716582918
-0.8823,0.6115,-0.0185,0.1281,0.5496,-0.0806,-4.9437,-2.345,9.3187,-1.930973367762257,-55.262646167223046,9.329233369219706,21.982273160656383
-0.8731,0.6112,-0.0119,0.1281,0.5496,-0.0806,-4.3137,-3.6488,11.4275,-1.3883726862707624,-55.011092956747234,10.277935389461218,21.994332068916947
-0.8788,0.6155,-0.0121,0.1286,0.5445,-0.08,-4.3663,-3.9638,12.9587,-1.2124455410208077,-54.988705707462174,10.473560287656705,22.003741577734
-0.8882,0.617,-0.0167,0.1286,0.5445,-0.08,-3.29,-4.3838,13.9562,-1.3783380618005452,-55.19668236601327,9.953771971327727,22.01593957415664
-0.9015,0.6168,-0.0145,0.1294,0.5394,-0.0783,-2.1088,-5.6875,15.5575,-1.3726912641695879,-55.599751319032904,9.961957481338441,22.0281103192091
-0.9071,0.6226,-0.0102,0.1274,0.5322,-0.0784,-1.0675,-7.8313,17.57,-1.130801661437005,-55.53416147614145,10.653016434491331,22.039636940966453
-0.8876,0.6507,-0.0195,0.1274,0.5322,-0.0784,-0.525,-10.29,19.25,-1.5073989372628822,-53.79346842276294,10.014935830798187,22.051907843652163
-0.86,0.662,-0.019,0.1263,0.5283,-0.0772,-0.035,-12.2587,19.53,-1.6024844527987867,-52.43994435646433,10.229223719566717,22.064345793697925
-0.8337,0.6682,-0.011,0.1263,0.5283,-0.0772,-0.4375,-13.3525,20.9387,-1.1714008743310675,-51.31579915750697,11.496405923943312,22.07643584638155
-0.8091,0.6703,-0.0171,0.127,0.5218,-0.0758,-1.365,-13.4137,24.9112,-1.31348941100814,-50.37436345455961,11.009536080406981,22.088652600240803
-0.7912,0.6595,-0.0205,0.1262,0.5126,-0.0731,-2.0388,-10.9112,26.39,-1.4176532121958711,-50.17843786320402,10.354824516458137,22.10130042122832
-0.7674,0.66,-0.0193,0.1262,0.5126,-0.0731,-1.9162,-9.4937,27.6063,-1.492447897164348,-49.31119521742547,10.660972530993812,22.113781548769687
-0.7698,0.6733,-0.0206,0.1246,0.5078,-0.0756,-1.6887,-7.2888,28.5687,-1.5936450052976716,-48.82358987153451,11.192723722920414,22.125673409670203
-0.7804,0.6901,-0.0169,0.1246,0.4995,-0.0677,-1.3037,-6.3438,27.9037,-1.4971972153612585,-48.51271892009397,10.781924078298678,22.137879546112504
-0.7879,0.7007,-0.0091,0.1235,0.4995,-0.0677,-1.7937,-5.6525,28.5862,-1.235586968774155,-48.35372401469885,11.710302443071154,22.149967829226632
-0.787,0.7041,-0.0079,0.1192,0.4936,-0.07,-3.1412,-5.5388,29.7938,-0.9693715823096807,-48.18416832538287,12.46317305688223,22.15924815947077
-0.7824,0.7054,-0.0071,0.1192,0.4936,-0.07,-3.43,-6.6588,30.3887,-0.7633122674715812,-47.96602562730546,12.721472191770786,22.171473761177484
-0.7721,0.7066,-0.0045,0.1196,0.4857,-0.0682,-3.6663,-7.1312,30.8,-0.5351266218648667,-47.54492189446892,13.136527088132764,22.183668926288938
-0.7649,0.7119,-0.0007,0.1189,0.479,-0.0636,-4.6638,-7.1575,31.9463,-0.19977975999424624,-47.06557903334755,13.171155413847833,22.195814189540712
-0.7527,0.7181,0.0008,0.1189,0.479,-0.0636,-4.3838,-7.7613,33.2675,-0.022376976993280423,-46.36218180786285,13.585425151290236,22.207954851911808
-0.7479,0.7313,0.007,0.1174,0.4702,-0.0666,-4.2788,-7.7788,34.5013,0.3551157606347388,-45.65593129372341,15.449815467741074,22.220071448137812
-0.7513,0.7343,0.0115,0.1174,0.4702,-0.0666,-4.235,-8.855,36.3387,0.7108866930438251,-45.652178991088554,16.19564524050579,22.232223789667554
-0.7429,0.7358,0.0098,0.1166,0.4624,-0.0654,-4.6375,-10.6837,37.0387,0.7473106922045581,-45.27972749699782,16.22672260495122,22.24442709479867
-0.7303,0.7399,0.0135,0.1166,0.451,-0.0602,-5.3375,-11.1737,37.5812,0.9710069554453826,-44.63341508815744,16.355511539745933,22.25655713975281
-0.7108,0.7479,0.0159,0.1118,0.451,-0.0602,-5.7488,-11.5237,36.7325,1.1620761914351059,-43.55742971696304,16.924048463047235,22.265881355320353
-0.6989,0.7648,0.0152,0.1109,0.443,-0.062,-4.9612,-12.2412,36.925,1.1450388868198145,-42.438062584041134,18.057280580895988,22.278036528161284
-0.6855,0.7688,0.0142,0.1109,0.443,-0.062,-4.6287,-12.5913,37.1,1.084459629898912,-41.730509596306476,18.356869147460767,22.29022532282256
-0.6884,0.7745,0.014,0.1064,0.4355,-0.0575,-5.6262,-12.1187,37.8437,1.0469435487397658,-41.62897844875238,17.434051418555466,22.302338025995684
-0.688,0.7759,0.0229,0.1046,0.4261,-0.0603,-5.8275,-11.9263,38.4738,1.5475707572312154,-41.55283886969947,19.572001843165367,22.314550178974258
-0.6837,0.7729,0.0265,0.1046,0.4261,-0.0603,-5.5213,-12.1275,40.3288,1.864511935234729,-41.48027871358848,20.254342157109747,22.326743220602317
-0.6578,0.7857,0.0308,0.1001,0.4163,-0.0559,-4.97,-12.67,41.7725,2.140504057948752,-39.942049119228166,20.87960145084984,22.338936970058175
-0.6449,0.7908,0.0418,0.1001,0.4163,-0.0559,-4.55,-12.74,42.6125,2.7511522834231306,-39.17159873873853,22.883204554168486,22.35108471070724
-0.6303,0.7902,0.0426,0.0946,0.4078,-0.0503,-4.305,-12.5562,43.6712,2.973500820064293,-38.54760029169831,22.126378755506824,22.36322820438952
-0.6242,0.7917,0.0359,0.0914,0.3994,-0.0477,-2.3975,-11.2262,47.1888,2.9483122512955724,-38.22981137854241,20.83208398807379,22.375416999050803
-0.6153,0.7951,0.036,0.0914,0.3994,-0.0477,-1.82,-10.7275,49.6912,2.8287488296798586,-37.7146080378918,21.069642433445377,22.387623843320902
-0.6099,0.8283,0.0368,0.0875,0.3883,-0.0502,-1.7237,-9.9925,51.87,2.721675681497963,-36.358559193095026,22.923606960689156,22.39684365428841
-0.6086,0.8457,0.0423,0.0875,0.3883,-0.0502,-0.6388,-9.695,52.36,2.8106701730975034,-35.715937120672834,24.206236654251892,22.408961312256107
-0.6044,0.8521,0.0448,0.0819,0.377,-0.0483,-1.2337,-10.535,52.8763,2.914525974452938,-35.31689687880417,24.471408653065875,22.42113347296416
-0.5952,0.8564,0.0459,0.0758,0.3673,-0.0514,-1.7675,-11.9,54.0488,2.969490225722615,-34.76883268719894,25.929010895481195,22.433289707546788
-0.5751,0.8561,0.0404,0.0758,0.3673,-0.0514,-2.5813,-12.1012,56.35,2.915042996602845,-33.87495988745742,26.088929697343048,22.445483457002645
-0.5536,0.8631,0.0482,0.071,0.3552,-0.0453,-2.4325,-11.5762,58.2487,2.9421350317003916,-32.65264499575292,26.52394998289501,22.457643230724255
-0.5514,0.8638,0.0578,0.071,0.3552,-0.0453,-2.9575,-11.9787,60.585,3.285107383520415,-32.495866498506956,28.019677177012685,22.46977716873128
-0.5375,0.8636,0.058,0.0634,0.3445,-0.0419,-2.1875,-11.83,63.1225,3.3528590095556834,-31.848395392418563,27.30536533945532,22.48201940439122
-0.5231,0.8683,0.0529,0.0507,0.3318,-0.0358,-1.4875,-11.9962,66.3163,3.413742824833501,-31.02968722133963,24.152076785752342,22.494172099834863
-0.5095,0.8757,0.0525,0.0507,0.3318,-0.0358,-0.6125,-12.2762,71.2863,3.4245720457332736,-30.157171738187937,24.569580472834133,22.506267815140863
-0.4748,0.8919,0.0594,0.0467,0.3194,-0.0398,0.14,-11.6637,73.1588,3.6989644673128272,-28.00037665871524,29.2891817918149,22.515543898418215
-0.4483,0.8923,0.0539,0.0467,0.3194,-0.0398,-0.0438,-12.32,75.46,3.53057620401601,-26.648506269169882,30.425078198926105,22.527285345911906
-0.4264,0.893,0.0429,0.0372,0.3076,-0.0424,0.4462,-11.655,76.0638,2.9572205500833895,-25.510912906563032,30.29056429977271,22.5394486587725
-0.4077,0.901,0.0504,0.0277,0.2943,-0.0377,0.8663,-11.4712,77.0963,3.143356908032503,-24.32589518409297,29.728588471173538,22.551669659598534
-0.3917,0.9069,0.0463,0.0277,0.2943,-0.0377,0.9713,-11.41,78.0325,2.9739612169977607,-23.34347547722635,30.230597854844873,22.56385916208761
-0.377,0.9165,0.0409,0.0149,0.2792,-0.0352,0.6388,-12.2587,77.6038,2.660823674274708,-22.350378763595398,27.647578863111427,22.57605432719906
-0.3246,0.9219,0.04,0.0149,0.2792,-0.0352,0.2362,-13.3962,75.81,2.5339479427940623,-19.412606311042904,30.98708004736062,22.58823852097966
-0.2927,0.9344,0.0431,0.0078,0.2699,-0.0328,-0.9275,-14.245,73.4563,2.596333872732718,-17.398540731312877,31.843528516760827,22.600488542745367
-0.2597,0.9378,0.0408,0.0078,0.2699,-0.0365,-2.24,-14.7525,70.2713,2.5880093383741194,-15.487224715908578,36.694608419545204,22.60924826564494
-0.2236,0.9224,0.0472,-0.0039,0.2601,-0.0365,-3.2288,-14.1925,67.0075,2.74995254342529,-13.631779637069755,37.59373089647667,22.621478822146234
-0.1612,0.8993,0.0447,-0.0146,0.251,-0.0306,-3.6837,-13.265,62.5625,2.8050119259421744,-10.194448395990294,36.50934218210037,22.633772021407545
-0.1554,0.8871,0.05,-0.0146,0.251,-0.0306,-4.2525,-12.0487,53.8563,3.0821317763255958,-9.924604970751721,37.86017824081176,22.646736241420243
-0.1538,0.8882,0.0539,-0.0229,0.244,-0.0284,-1.6887,-8.7675,52.3512,3.234150448097086,-9.807922720271378,34.42454370778163,22.658817446256403
-0.1493,0.8949,0.0533,-0.0304,0.2346,-0.0288,-0.5862,-7.175,50.8725,3.344859174370399,-9.46049183328792,32.31194556249887,22.671155592582814
-0.1329,0.8971,0.0606,-0.0304,0.2346,-0.0288,1.085,-4.9963,48.51,3.7467051454906795,-8.424180506669954,34.47942379093625,22.68306196395316
-0.1059,0.9191,0.0574,-0.0434,0.229,-0.0287,2.1525,-3.64,46.235,3.605211957251933,-6.5900233693851415,32.324678844617836,22.695187761940524
-0.1086,0.9148,0.0589,-0.0434,0.229,-0.0287,2.6075,-2.03,44.415,3.6706726912186616,-6.753538511518578,31.96980378884656,22.70732382343094
-0.1169,0.9137,0.0502,-0.0474,0.223,-0.0308,3.1412,-0.42,42.0262,3.2260734602720462,-7.270947397424776,30.658091641840926,22.71937211427455
-0.1278,0.9266,0.0426,-0.0474,0.2162,-0.0259,4.3313,0.525,40.6437,2.709837999989457,-7.834574222861633,28.57452792605715,22.72872039598718
-0.1376,0.9466,0.0442,-0.0566,0.2162,-0.0259,5.6875,1.4088,41.475,2.677437859982256,-8.254402500958522,27.25642740686656,22.74077576510876
-0.1566,0.9626,0.0352,-0.0634,0.2098,-0.0308,6.4575,1.6712,43.1025,2.153848652191745,-9.217524183508973,25.35214385855785,22.752845998614074
-0.179,0.9916,0.0286,-0.0634,0.2098,-0.0308,5.9237,1.0412,44.695,1.7063297200102492,-10.211794003680371,24.930752720992434,22.76481642840003
-0.1776,1.0114,0.0229,-0.074,0.2036,-0.0369,5.4862,-0.3675,46.6637,1.3435062426823632,-9.961065265473842,22.590678649962033,22.777004869147415
-0.1584,1.0277,0.0259,-0.074,0.2036,-0.0369,2.9138,-2.52,48.5363,1.4276068038336225,-8.777977725110851,22.12800638614135,22.78905174433543
-0.1351,1.0297,0.0325,-0.084,0.1988,-0.032,1.1112,-4.4363,50.9425,1.7221180964902694,-7.49055681745805,19.76514145637807,22.798461607066386
-0.1108,1.0174,0.037,-0.094,0.1897,-0.0301,-0.91,-5.1275,56.5075,1.9334896602371379,-6.2288868467175265,18.23736772466956,22.81063766082732
-0.0586,0.9657,0.0357,-0.094,0.1897,-0.0301,-4.655,-5.25,59.2025,2.0619786811096255,-3.50687069607175,19.25443858860873,22.82276204315909
-0.0448,0.9432,0.0334,-0.1072,0.1826,-0.0302,-4.4888,-5.7925,58.5812,2.038793874142009,-2.728271656973307,17.787872412576515,22.834918985569516
-0.0282,0.9381,0.03,-0.1072,0.1826,-0.0302,-2.975,-5.8187,56.7,1.9572703267861067,-1.7348217166299142,17.745211464503384,22.847085129741295
-0.008,0.9472,0.0352,-0.117,0.177,-0.0276,-2.3013,-6.2825,56.0438,1.9613819292378334,-0.5009510242702465,16.27844677132156,22.859239594754428
0.0005,0.9717,0.0298,-0.131,0.1697,-0.0271,-2.0913,-5.9325,56.14,1.9224620553394252,0.022110942304460535,14.15567488073755,22.871326816126864
0.0251,0.9803,0.038,-0.131,0.1697,-0.0271,-2.5288,-5.425,57.0325,1.9726215145398576,1.4458259424562434,14.78493832395117,22.883453321942024
0.0443,0.9753,0.0351,-0.1396,0.1642,-0.0282,-2.8,-5.2588,57.7588,2.001084107716535,2.583371967504844,14.515306612218739,22.89556248597616
0.0663,0.9632,0.0352,-0.1396,0.1642,-0.0282,-4.69,-4.69,57.68,2.065630936659691,3.9166576397928545,14.878607106848726,22.904921739019645
0.0865,0.9457,0.0364,-0.1514,0.1591,-0.0279,-4.7425,-4.48,55.5887,2.163660973748007,5.20401546983116,14.129701198400095,22.91702453260361
0.1069,0.9288,0.0336,-0.1632,0.1546,-0.0251,-5.215,-4.7075,53.13,2.095429315824279,6.541652401557761,12.292290705950045,22.92913475837944
0.1184,0.9139,0.0284,-0.1632,0.1546,-0.0251,-5.5825,-4.6025,50.6012,1.8540495548112503,7.365725099864936,11.939740589241575,22.941258786797313
0.1194,0.9212,0.0304,-0.174,0.1508,-0.0258,-5.145,-4.8738,48.0112,1.8806601523323023,7.380921874469764,11.430245259983156,22.953348485567037
0.1216,0.9315,0.0315,-0.174,0.1508,-0.0258,-4.3313,-5.145,47.1712,1.9181203561385574,7.432425483153488,11.404434231296397,22.965470036587618
0.1238,0.941,0.0376,-0.1856,0.145,-0.0222,-5.1625,-4.7512,48.0638,2.1917227360233085,7.488120613510135,9.8684061413383,22.977539562265132
0.1303,0.9505,0.0367,-0.1972,0.1392,-0.0234,-5.6175,-5.3288,49.3675,2.206633651422089,7.79526483068466,9.329818994180823,22.98964660281588
0.1611,0.9611,0.0439,-0.1972,0.1392,-0.0234,-5.7488,-5.495,49.7612,2.5228794589499985,9.479724729244055,9.757718071100868,22.9990200124153
0.2066,0.9376,0.0429,-0.2056,0.1382,-0.0212,-6.335,-5.5037,49.3587,2.60040940195567,12.369024567016986,9.201168648627908,23.011120328601976
0.2497,0.9152,0.0517,-0.2056,0.1382,-0.0212,-7.2625,-5.2063,46.7775,3.126628086013686,15.192052275966844,9.98613107532503,23.023154816803547
0.2712,0.8979,0.0399,-0.2164,0.1338,-0.0246,-7.4812,-5.4075,41.545,2.6389734087203496,16.762876965818833,10.208675685442238,23.0353050348499
0.2702,0.8766,0.0347,-0.2257,0.1308,-0.0226,-7.91,-4.4275,36.0763,2.323374014707179,17.11174222850216,9.089143678666023,23.04745843812134
0.2582,0.8793,0.0371,-0.2257,0.1308,-0.0226,-7.2888,-4.3225,32.235,2.4004894470360174,16.366513021400536,8.902695541810655,23.059263236202842
0.2475,0.9055,0.0418,-0.233,0.1279,-0.0182,-7.035,-4.5062,32.6375,2.600547378038615,15.294266340634914,7.433089758745215,23.07145026129463
0.2476,0.898,0.0384,-0.233,0.1279,-0.0182,-6.8688,-4.6375,34.2912,2.475990862390592,15.399262901169774,7.116308767458378,23.080334561886445
0.2562,0.9056,0.0436,-0.243,0.125,-0.0169,-6.5012,-4.7163,34.895,2.70219306258083,15.771708762528773,6.612122889273874,23.09243523198702
0.277,0.9072,0.0475,-0.2547,0.124,-0.0169,-6.5275,-5.565,34.5713,2.9404909479236507,16.93390990302435,6.4407431981470475,23.10462225707881
0.3022,0.9104,0.047,-0.2547,0.124,-0.0169,-7.42,-6.3875,33.495,2.9528772237296574,18.31194306391113,6.525901295889806,23.116832640487893
0.3279,0.8957,0.0529,-0.2626,0.1214,-0.0139,-7.98,-6.3612,28.63,3.3157760903941114,20.03507151756544,5.928480487067852,23.129002677712556
0.3533,0.886,0.0547,-0.2626,0.1214,-0.0139,-8.1287,-5.7663,25.1212,3.50094144911114,21.66199132950133,6.086825025047208,23.141495130498672
0.3529,0.8694,0.0536,-0.2663,0.1197,-0.0096,-7.5862,-4.9263,22.4787,3.523608599219448,22.044754938616705,4.9751881414360115,23.153625175452813
0.3276,0.8633,0.0512,-0.2663,0.1197,-0.0096,-7.3763,-3.8763,20.6325,3.4154907745810523,20.782581985342578,4.6676439684236835,23.165678067177105
0.31,0.8614,0.0558,-0.2738,0.1187,-0.0102,-7.2975,-3.1675,21.4288,3.6576367115982524,19.782062208680678,4.681026433431664,23.174503971975682
0.3015,0.8791,0.0549,-0.2821,0.1163,-0.0114,-6.2038,-2.5025,24.1325,3.590743946347763,18.918055750362925,4.648326285584002,23.18667967182272
0.2963,0.8898,0.0537,-0.2821,0.1163,-0.0114,-4.9963,-2.6425,28.525,3.4910002442986867,18.398317812001753,4.566431053233437,23.198851478616877
0.3072,0.9102,0.0495,-0.2907,0.1134,-0.0093,-4.8825,-3.0275,31.8762,3.2192014838566716,18.619617654447918,3.8598558920634622,23.211058322886974
0.3216,0.9042,0.054,-0.2907,0.1134,-0.0093,-5.6613,-3.85,35.3325,3.3719287517672196,19.52886359711347,3.8806954671661797,23.223242162753674
0.3391,0.8971,0.0571,-0.2989,0.1151,-0.0038,-5.5037,-4.1213,36.0763,3.5773071171578428,20.646204604175193,2.8532466930911697,23.235629857025863
0.3559,0.8886,0.0551,-0.3092,0.1128,-0.0081,-5.9675,-5.1712,35.3675,3.554497529722524,21.766786175311903,3.4214330139595073,23.247753177615937
0.3694,0.8562,0.0539,-0.3092,0.1128,-0.0081,-6.7375,-5.6525,34.3087,3.593355519933809,23.265745366182234,3.596202076795843,23.257110307176028
0.3631,0.8525,0.0439,-0.3162,0.1117,-0.0065,-7.6912,-6.51,33.0838,3.049283219904626,23.04751056225351,2.919521387316709,23.268899179132102
0.3634,0.8416,0.0439,-0.3162,0.1117,-0.0065,-7.4637,-7.455,32.7337,2.9963000615002153,23.320480284415385,2.867075349885099,23.281005157941156
0.3748,0.8475,0.0441,-0.3274,0.1108,-0.0081,-7.5687,-9.415,33.81,2.981537889056362,23.8181743648301,3.0877410826471556,23.29317236385463
0.3869,0.856,0.0347,-0.3337,0.1103,-0.0039,-6.5975,-10.4212,34.1425,2.4465857350586413,24.29494130203834,1.94947021321636,23.30538840988609
0.4252,0.8488,0.049,-0.3337,0.1103,-0.0039,-7.5513,-10.8238,34.1425,3.166216841322247,26.524670836856053,2.323197287358197,23.317585344567032
0.4768,0.8377,0.0476,-0.3444,0.109,-0.0038,-8.89,-9.7737,32.9087,3.2408135983409374,29.544773402309588,2.3246196296457446,23.329712912123885
0.4918,0.814,0.0472,-0.3444,0.109,-0.0038,-9.5812,-8.9862,31.1675,3.3091725433733665,31.06391826279168,2.413693297216444,23.34186914670651
0.5001,0.8145,0.052,-0.3526,0.1097,0.0012,-9.6075,-8.1462,28.5425,3.6114547161980206,31.488083841473397,1.465270469755888,23.35086811540141
0.4984,0.8077,0.0426,-0.3597,0.1087,-0.0015,-8.7412,-6.9738,26.5912,3.098997834319204,31.637947636934708,1.638096084401419,23.363033905659297
0.4913,0.7984,0.0458,-0.3597,0.1087,-0.0015,-7.9275,-6.195,24.6662,3.2552621666583597,31.566121030971416,1.7553488778904651,23.375291359616867
0.4928,0.7935,0.0478,-0.3682,0.1063,-0.0005,-7.9625,-5.9938,22.4875,3.4183637978219736,31.789722024650107,1.5626307870241922,23.387333633924204
0.4862,0.781,0.049,-0.3682,0.1063,-0.0005,-7.63,-6.2213,21.4638,3.5628040280879225,31.851547427734495,1.592143279145421,23.399477481520385
0.4936,0.7683,0.062,-0.3738,0.1051,-0.0022,-6.2213,-6.5538,20.0812,4.398978004346506,32.6127814637569,2.271158566777076,23.41167158489014
0.4938,0.7706,0.0573,-0.3797,0.1068,0.002,-4.8125,-6.8775,18.935,4.294550060530953,32.58094840065045,1.4015089123228661,23.423770839335123
0.5133,0.8289,0.1035,-0.3797,0.1068,0.002,-3.0975,-7.0437,18.3663,5.523957186422397,31.599463835295204,2.2950235464489555,23.43273724795137
0.5219,0.8236,0.0478,-0.3851,0.1069,0.0024,-6.6763,-6.7813,15.7325,3.7332274272013444,32.29545306992683,0.9774263990183195,23.444868000733308
0.4874,0.7571,0.0233,-0.3851,0.1069,0.0024,-9.3887,-4.935,15.9775,2.0071336088837937,32.74542206677336,0.3027828225325824,23.456999815256946
0.4887,0.7537,0.0491,-0.3914,0.1074,0.004,-7.2975,-4.2263,15.7325,3.4392260863232638,32.899060122010304,0.5818612022299401,23.469076419212428
0.4919,0.7701,0.0578,-0.3914,0.1074,0.004,-5.8888,-4.8387,17.8412,4.105337851813366,32.507315367095586,0.8129357605705998,23.481200801544198
0.5047,0.7469,0.0533,-0.4002,0.1084,0.0038,-5.075,-5.005,19.6,4.088078816096096,33.939020273535434,0.8268115942301949,23.49022808335097
0.516,0.7508,0.0352,-0.4042,0.1075,0.0037,-2.94,-5.1188,20.3787,3.5539999493089423,34.45548076871366,0.3567655827972102,23.50231848994849
0.5481,0.784,0.0495,-0.4042,0.1075,0.0037,-3.1412,-4.3575,22.0325,3.580377135159158,34.892356952532936,0.6081180302357082,23.514464107114165
0.5733,0.768,0.0438,-0.4106,0.1078,0.0033,-3.0625,-3.9725,22.3475,3.4462344045115754,36.64908387438758,0.6140431230095449,23.526586012048643
0.5713,0.7498,0.0436,-0.4106,0.1078,0.0033,-4.2,-3.0363,21.9713,3.369096435237448,37.24242287393668,0.6423938777907915,23.53865553772616
0.5766,0.7332,0.0449,-0.4173,0.1078,0.0014,-3.3513,-1.6975,21.6125,3.4375579024554317,38.10634633728045,1.007304344679345,23.550769302640976
0.5758,0.7351,0.0323,-0.4244,0.1072,0.0019,-2.975,-1.4875,19.81,3.0748125076871093,38.04631881293574,0.7123856481476227,23.559848609790816
0.5669,0.7363,0.033,-0.4244,0.1072,0.0019,-2.835,-1.6362,18.55,2.9032405250133873,37.579915806206074,0.6396078422340681,23.571513965796346
0.5669,0.7569,0.0392,-0.4312,0.1092,0.0055,-2.7037,-2.7825,16.9575,2.9200947673783624,36.819354448718826,0.1554591146988568,23.58369957523254
0.5818,0.7671,0.0396,-0.4312,0.1092,0.0055,-3.4738,-4.4012,15.5925,2.9388325001316686,37.13125303027268,0.04774051142036912,23.596372170192947
0.5868,0.7548,0.0395,-0.4362,0.1093,0.0039,-4.83,-5.4163,13.895,2.9794390916545,37.80118794671282,0.3318582926699376,23.60839073226909
0.6049,0.7352,0.0422,-0.4362,0.1093,0.0054,-5.95,-5.775,12.04,3.2190256917927114,39.34314947945699,0.2051142452006931,23.620441854423888
0.6109,0.7265,0.0482,-0.4414,0.1086,0.0054,-7.7613,-6.44,9.9225,3.7061352920475934,39.97256973699507,0.3637408442704499,23.629750851693796
0.6215,0.7118,0.05,-0.447,0.1085,0.0078,-8.19,-6.4225,8.4787,3.972659885890658,41.011284489579864,0.008603179657174017,23.641648021302785
0.6129,0.694,0.0509,-0.447,0.1085,0.0078,-8.4525,-6.5975,6.7375,4.163569294276102,41.35687454367398,0.03126374511607727,23.653647118114517
0.6026,0.696,0.0415,-0.4503,0.11,0.0082,-8.3387,-6.51,7.0613,3.5194315193399985,40.85849729108824,0.30542464196453406,23.665662848879474
0.585,0.7041,0.0422,-0.4503,0.11,0.0082,-7.8488,-8.6275,7.8575,3.443626269641985,39.72081714179868,0.33025742406031244,23.674977508771754
0.5826,0.7129,0.0474,-0.4547,0.111,0.0002,-8.1988,-7.735,8.9425,3.751514042141998,39.215797300574614,1.2725622702630197,23.686863707049895
0.592,0.7125,0.0511,-0.4602,0.111,0.0096,-8.925,-8.3562,9.8787,4.056042118216959,39.633374603582915,0.1778619911150012,23.69883272118026
0.6149,0.7068,0.0497,-0.4602,0.111,0.0096,-8.4263,-7.2975,11.305,4.027002556714796,40.904176022211104,0.352870623995958,23.71093409910863
0.6266,0.6773,0.0653,-0.4653,0.1098,0.0099,-7.2888,-5.67,13.1775,5.25879126470922,42.58153575433822,0.08225019937280953,23.72297141862139
0.6374,0.672,0.0563,-0.4653,0.1098,0.0099,-5.9763,-4.97,14.3325,4.890056149055343,43.359737445546386,0.11945961379030556,23.735014400756526
0.6277,0.668,0.044,-0.4702,0.1127,0.015,-5.1013,-3.3863,15.5837,4.065594397762499,43.16306345082756,1.357637147495566,23.744352772880003
0.6313,0.6702,0.0376,-0.4702,0.1127,0.015,-3.1325,-2.5025,15.785,3.684085783780625,43.24056672980524,1.7622247761532466,23.756402833293105
0.6407,0.6924,0.0404,-0.4754,0.1147,0.0107,-2.835,-2.5025,15.7325,3.567775427225509,42.74664353804255,1.0432903612043993,23.768440152805866
0.6514,0.7028,0.0414,-0.4817,0.1149,0.0111,-2.7388,-1.4175,15.8112,3.510344483927186,42.77590153801589,0.9404280554396474,23.780569489932212
0.6575,0.6829,0.0531,-0.4817,0.1149,0.0111,-3.22,-0.8663,15.4,3.95209068362372,43.79456305726757,0.6217574226822334,23.79253602666529
0.6722,0.674,0.0425,-0.4888,0.1159,0.0118,-4.0862,-0.2362,14.91,3.7327145159255646,44.83181603934117,0.8239498504970199,23.80185528743825
0.677,0.6564,0.0423,-0.4888,0.1159,0.0118,-4.4538,0.1312,13.7375,3.701737625724943,45.79229271488846,0.8935491564249338,23.813952064485942
0.6912,0.6519,0.0397,-0.4922,0.1165,0.0121,-3.2987,0.3675,11.585,3.594838810097795,46.59292823081647,0.996625898036253,23.825855958459
0.7014,0.6461,0.0355,-0.4968,0.1182,0.0111,-3.5963,0.3237,9.38,3.343111566798865,47.27881718375266,1.0228092509813234,23.83773967933985
0.7124,0.635,0.0317,-0.4968,0.1182,0.0111,-3.605,0.6737,7.2362,3.0708025668584895,48.21028450372632,1.0872627963481014,23.847039120934504
0.7292,0.6309,0.0333,-0.4987,0.1183,0.0116,-3.4825,0.35,5.18,3.044290486496221,49.05253886772364,1.1779550198121784,23.858926380954337
0.7323,0.61,0.0312,-0.4987,0.1183,0.0116,-4.0513,0.945,3.78,2.9706613579579124,50.11257617109427,1.2115946676033107,23.87082673578841
0.7307,0.6105,0.0303,-0.5023,0.1174,0.013,-3.6138,2.1263,1.6362,2.89786563615195,50.08803329633224,1.4898537858971854,23.88277699248216
0.7343,0.624,0.0323,-0.5023,0.1174,0.013,-3.4563,1.89,-1.33,2.9325034349243797,49.63771161870641,1.5718281055085628,23.891975922529664
0.7354,0.6355,0.0352,-0.5046,0.1212,0.0117,-4.3313,1.2687,-5.1275,3.0912042821902403,49.1718731689692,1.5269655664964155,23.904008995075642
0.7382,0.64,0.0342,-0.5062,0.1198,0.0139,-5.6,-0.1925,-9.6337,3.0664075550423338,49.05677376573392,1.671028702174881,23.91602861889348
0.7496,0.6311,0.0367,-0.5062,0.1198,0.0139,-6.0637,-1.2163,-19.215,3.2728966551214085,49.70556553199755,1.6858411599603222,23.928137782927617
0.7452,0.5858,0.0391,-0.5043,0.1194,0.0147,-7.9275,-1.5662,-18.9088,3.7359533272021888,51.351283708643045,1.7447389538343627,23.94029932621872
0.7168,0.5707,0.0395,-0.5043,0.1194,0.0147,-8.7762,-1.4787,-19.0662,3.929332593521839,51.39630884234286,1.6881871094023462,23.952402473716585
0.7003,0.5678,0.0321,-0.505,0.1198,0.0142,-7.7,-1.4175,-18.5412,3.344533613784563,51.02403979156271,1.8321645024451803,23.96447836984427
0.6803,0.5872,0.0362,-0.505,0.1198,0.0142,-6.475,-1.4962,-18.3312,3.4921549170879476,49.57584853549443,1.6846860159780208,23.973950875335245
0.6675,0.6184,0.034,-0.5027,0.1185,0.0155,-5.5825,-2.6425,-17.78,3.2280782786860414,47.77912207270604,1.9485218359900536,23.98598713310631
0.6642,0.6518,0.0239,-0.5042,0.1173,0.0156,-5.7925,-3.815,-16.8612,2.352532129319205,46.29719912377229,2.3254127106872007,23.998045333539075
0.6625,0.7036,0.0255,-0.5042,0.1173,0.0156,-7.2362,-4.8562,-16.2138,2.1224691833911917,44.602258725404205,2.2754353942232393,24.0101130896471
0.6665,0.7014,0.0334,-0.5038,0.1178,0.0153,-9.7388,-5.355,-16.03,2.6545349583203848,44.033847094742335,1.995827818727978,24.022278172077183
0.6621,0.6906,0.0435,-0.5038,0.1178,0.0153,-11.445,-5.5738,-14.9362,3.510373702326193,44.02894523263951,1.6488067087000202,24.034452456268628
0.6597,0.6677,0.0521,-0.5069,0.1205,0.0251,-12.8537,-4.3663,-12.4162,4.379170736074367,44.41540804892688,3.0051431631647914,24.046421116485096
0.6542,0.6468,0.0567,-0.506,0.1177,0.0194,-13.1425,-3.2638,-9.9663,4.956500449606863,45.082471904014646,2.1088415743300737,24.058715023574205
0.6435,0.6223,0.0504,-0.506,0.1177,0.0194,-12.5387,-1.8375,-7.1138,4.6593662700992695,45.77728237723996,2.109268886782149,24.067557208412108
0.6527,0.6351,0.0534,-0.5076,0.1183,0.0214,-10.6837,-0.805,-4.5938,4.790505144572833,45.690498045130596,2.32043245438031,24.07988119818258
0.6683,0.6438,0.0569,-0.5076,0.1183,0.0214,-7.3763,0.455,-0.6563,5.007747214537749,45.94082934663928,2.3282606572943307,24.091841364465488
0.6776,0.6484,0.0546,-0.5096,0.1198,0.0176,-7.63,1.0937,-0.1312,4.844200430122723,46.14651550981786,2.3014906528654784,24.103938849340977
0.685,0.6417,0.064,-0.5147,0.12,0.0224,-6.0375,0.7875,-0.1138,5.514867414018083,46.69112139008643,2.2881653187697806,24.116021115918834
0.6711,0.632,0.0591,-0.5147,0.12,0.0224,-5.215,0.6125,0.245,5.386705603140004,46.600147049250246,2.3270066524982322,24.124979738429314
0.6695,0.6226,0.0414,-0.5181,0.1208,0.0219,-4.69,-0.3063,0.5075,4.27468692017386,46.99049831162216,2.724199276128985,24.1370343997231
0.6938,0.6378,0.0431,-0.5181,0.1208,0.0219,-5.11,-1.3825,0.5075,3.9739614047663254,47.32167765909221,2.9229531193060287,24.149101801917222
0.7191,0.6393,0.0453,-0.5214,0.1218,0.0213,-5.5913,-2.3888,-0.0175,4.034571426065792,48.22994054081605,2.8554181417924376,24.161242464288318
0.7429,0.6353,0.0504,-0.5214,0.1218,0.0213,-7.0437,-3.0538,-2.5638,4.4482399258921,49.28983853114102,2.7294863035071693,24.173329331746856
0.7488,0.617,0.0516,-0.5237,0.122,0.021,-7.9975,-3.4563,-3.8413,4.730738816357026,50.32115030171224,2.6076778614515983,24.182348473533963
0.7864,0.5796,0.0625,-0.5217,0.1228,0.0249,-7.3325,-1.9162,-6.6325,5.9175436281593345,53.11464098558824,3.017857886068442,24.194457283654202
0.7792,0.5578,0.0623,-0.5217,0.1228,0.0249,-6.9388,-1.2512,-10.0187,6.291759427047794,54.045608279899454,3.0927546934265924,24.2065975921114
0.7674,0.5408,0.0608,-0.5249,0.1221,0.0251,-6.5713,-0.2888,-11.3487,6.391182565024091,54.524506247102906,3.153572288338044,24.218745686674364
0.7417,0.5367,0.0497,-0.5249,0.1221,0.0251,-5.4163,-0.5338,-12.6437,5.559719663005696,54.15427474141465,3.5397562956188575,24.230971996208876
0.7366,0.5219,0.0321,-0.5248,0.1233,0.0222,-4.1825,0.0525,-12.2675,4.233788961017657,54.501215068164804,3.8433370993021607,24.24307266630945
0.7426,0.5439,0.0331,-0.5282,0.1227,0.0243,-3.2462,-0.14,-12.11,3.8737629687173225,53.93028515551287,4.22210977186588,24.255148916351033
0.759,0.5711,0.0519,-0.5282,0.1227,0.0243,-2.065,-0.2888,-12.67,4.146687488997623,53.232996316628444,3.750975823317165,24.26456975041284
0.7735,0.6037,0.0472,-0.5286,0.124,0.0258,-2.0038,0.385,-13.8863,4.2255963295243735,52.567723825303695,3.877743304053389,24.2763175683567
0.7527,0.6007,0.052,-0.5286,0.124,0.0258,-2.5725,0.9713,-14.7962,4.368386583633617,52.3964350712886,3.852583351923907,24.288473802939325
0.7265,0.596,0.044,-0.5246,0.1232,0.0266,-3.43,2.45,-16.0212,4.2916941511000495,51.44747559236606,4.058644287774979,24.300602786151774
0.7039,0.5935,0.0352,-0.524,0.1236,0.0214,-5.285,2.0213,-15.2775,3.6208860754193353,51.0472791583419,3.706048986913414,24.312697085802178
0.6907,0.5994,0.0368,-0.524,0.1236,0.0214,-5.565,0.8663,-13.195,3.5386407660645935,49.738937969831035,3.591165242404532,24.324754224493248
0.6823,0.6096,0.0415,-0.5258,0.122,0.0254,-7.21,-0.35,-9.9225,3.8340549003013873,48.41767908725972,3.6980946060211433,24.33379955590884
0.6742,0.6029,0.0437,-0.5258,0.122,0.0254,-8.1287,-0.8487,-6.93,4.099905348426916,48.15377528107911,3.6645904659313477,24.345931370432474
0.6819,0.5943,0.0483,-0.5281,0.1243,0.0303,-9.3537,-1.82,-4.62,4.5782679263083725,48.773302665069636,4.332186401845734,24.358078049339845
0.7025,0.5964,0.047,-0.5281,0.1243,0.0303,-9.3975,-2.7562,-4.2175,4.514908217261132,49.51334613632204,4.660833488011584,24.370156776778718
0.7357,0.6054,0.0439,-0.531,0.1231,0.0254,-8.6887,-3.4738,-5.355,4.197391428789401,50.38484885459373,4.0251384187443096,24.38228469824947
0.7722,0.633,0.0545,-0.5331,0.1257,0.0284,-8.6538,-3.255,-9.1787,4.822177761929215,50.52862815873553,4.144265747300704,24.391284728686067
0.8093,0.6427,0.0752,-0.5331,0.1257,0.0284,-8.0412,-1.5487,-13.1687,6.397919311468583,51.058545461405366,3.560591111601211,24.403388937925627
0.794,0.616,0.079,-0.531,0.1246,0.0292,-7.7788,0.6475,-17.0012,7.1670542607756085,51.66995212780918,3.4780672757010618,24.415526415071636
0.7567,0.5879,0.0806,-0.531,0.1246,0.0292,-7.5075,3.2288,-20.37,7.703037482251287,51.86135037812349,3.169237843010759,24.42762708517221
0.7064,0.5552,0.0748,-0.5302,0.1258,0.025,-8.2512,4.2,-22.5137,7.677373151840212,51.615997558614716,2.2831626576439428,24.43979818413857
0.6695,0.5393,0.0634,-0.5308,0.1242,0.0326,-6.0637,3.7538,-22.82,6.910164356689392,51.029899875503574,3.7711544008177236,24.451901685550332
0.6686,0.5407,0.0562,-0.5308,0.1242,0.0326,-3.4913,1.715,-22.3038,6.384796997126743,50.90391077819345,4.126330090184059,24.46088791334489
0.7194,0.6015,0.0717,-0.5282,0.1226,0.0299,-1.7587,-0.2275,-21.2012,6.534239655764901,50.039818870043426,3.7964888881808423,24.47302043569632
0.7375,0.6198,0.0716,-0.5282,0.1226,0.0299,-0.6212,-0.8138,-20.3262,6.569172311980841,49.81142313248022,3.695006401674564,24.48519365814607
0.7449,0.6126,0.0717,-0.5282,0.1239,0.0359,-1.2425,0.7962,-21.14,6.624541689907864,50.296617606872005,4.044787371644489,24.497307069146988
0.7379,0.6048,0.0716,-0.5282,0.1236,0.0258,-0.9363,1.6712,-21.945,6.698433675264883,50.44440727595479,3.5580305477072773,24.509390397466543
0.7232,0.5858,0.0558,-0.5249,0.1236,0.0258,-0.1575,2.5025,-22.3125,5.838036828479775,50.815149349212355,3.4757447026181665,24.52154627813527
0.7094,0.5866,0.0459,-0.5264,0.1234,0.0297,-0.105,2.8438,-22.1287,4.897584719715482,50.38661014702098,4.291307652877468,24.530521180685078
0.7091,0.6089,0.0497,-0.5264,0.1234,0.0297,-0.4288,2.7562,-21.8312,4.7461229944858765,49.397296238253126,4.420324690768279,24.5426342377721
0.7133,0.611,0.0503,-0.5225,0.1226,0.0337,-0.035,2.87,-22.3825,4.718337142934705,49.33058532309232,5.084850874120736,24.554735969614367
0.7188,0.6112,0.0488,-0.5225,0.1226,0.0337,-1.225,2.765,-21.7087,4.6379740692343425,49.50901055828999,5.390464260124016,24.566644818382006
0.714,0.6076,0.0561,-0.523,0.1218,0.0267,-1.1812,2.4938,-22.26,4.978083802258531,49.48595613905773,4.348874845438389,24.578797867739546
0.7047,0.6085,0.0556,-0.5241,0.1215,0.0289,-1.1638,2.4325,-22.7675,5.108513548503579,49.11889962826187,4.1835220839551726,24.59097675281167
0.6898,0.6148,0.0375,-0.5241,0.1215,0.0289,-1.6712,1.925,-23.0825,4.468288963372367,48.333955713678584,4.440707008859711,24.599631363283414
0.6841,0.6164,0.0362,-0.5212,0.1223,0.029,-1.6275,0.945,-22.9775,4.012949902135399,47.97555765734769,4.503464620938075,24.612525508344227
0.6896,0.6228,0.0438,-0.5212,0.1223,0.029,-0.5513,0.0088,-23.5375,4.0192809133287115,47.85725614673717,4.508016424500853,24.624548317387152
0.6986,0.6227,0.0429,-0.5186,0.1218,0.0238,-0.8225,0.1225,-23.2663,3.9723180345432088,48.1812876025486,3.9851650107360257,24.636625275256534
0.7103,0.6239,0.037,-0.518,0.1211,0.029,-1.12,-0.0438,-22.75,3.6561178329951853,48.60142269528831,4.520883099943087,24.648747180191013
0.7127,0.6262,0.0394,-0.518,0.1211,0.029,-1.8725,0.5513,-22.82,3.6386909973044905,48.63595251115887,4.650911483658042,24.660742030035966
0.7184,0.6304,0.0314,-0.5178,0.1206,0.0278,-1.225,1.8112,-23.345,3.2261988190832294,48.691101101634814,4.780363634793501,24.670044302941804
0.7268,0.6331,0.0277,-0.5178,0.1206,0.0278,-1.575,2.695,-23.59,2.91700506627461,48.89125957733842,5.019639875132094,24.682021103177934
0.733,0.6318,0.0321,-0.5137,0.1211,0.0306,-1.5575,3.3075,-26.6087,2.913325952344999,49.179470277488,5.513107108082553,24.69411469500054
0.738,0.6331,0.0321,-0.5137,0.1211,0.0306,-1.7413,3.99,-28.3762,2.9093598649096295,49.327665228712284,5.702599440863316,24.70618740590314
0.7396,0.6305,0.0355,-0.5132,0.1206,0.0246,-2.5375,5.3113,-30.4675,2.964058935587378,49.49711750806027,4.511462764798037,24.71823392717726
0.7372,0.6182,0.0331,-0.507,0.12,0.0266,-1.8288,5.8625,-32.4012,2.997522638142511,49.95112625943148,4.863213825822159,24.73027407800121
0.7319,0.6148,0.0333,-0.507,0.12,0.0266,-2.2575,6.44,-34.9562,3.0041083986813377,49.929311144509356,4.9035212024517865,24.73953529689483
0.726,0.6089,0.0409,-0.5057,0.118,0.0267,-2.31,7.1575,-36.9162,3.017266617659309,49.948863278626646,4.624885537344637,24.751586772963527
0.7168,0.6059,0.0454,-0.5057,0.118,0.0267,-2.3625,8.0675,-38.1587,3.0619869332207785,49.723302706511056,4.358996560414214,24.76416381117136
0.7025,0.6099,0.049,-0.5022,0.1171,0.0306,-2.03,8.5925,-38.8675,3.411684016101162,48.97595686648008,4.951220203623968,24.775721931265675
0.695,0.6126,0.0459,-0.4981,0.1175,0.0283,-1.6712,8.9775,-39.4538,3.7572207530706763,48.5438619981313,4.658840684540615,24.787783670837424
0.7057,0.617,0.0437,-0.4981,0.1175,0.0283,-1.6625,8.8812,-38.1587,3.874509619747728,48.75629992485214,4.75977751982438,24.797072141101225
0.7163,0.6246,0.0604,-0.4926,0.1145,0.0272,-1.6362,10.2112,-36.5838,4.547589138882228,48.77901505951235,3.9641008163443456,24.809172103374003
0.7207,0.6305,0.0621,-0.4926,0.1145,0.0272,-1.1462,11.165,-35.5862,5.130772656972445,48.686521238665584,3.828244492648187,24.82127454304407
0.7224,0.6283,0.0614,-0.4919,0.1167,0.0266,-1.33,12.6087,-34.9912,5.355653434248696,48.84255897734398,3.7043364416763374,24.833375213144645
0.7103,0.6334,0.0605,-0.4919,0.1159,0.0301,-1.2163,14.2887,-35.6738,5.408500577244976,48.17825285745873,4.453445231950468,24.845505965926584
0.7002,0.6442,0.0658,-0.4863,0.1159,0.0301,-0.8225,15.6712,-36.575,5.662887290202813,47.278656255117596,4.282356289714386,24.857638842191914
0.6742,0.6561,0.0731,-0.4839,0.1133,0.0273,-0.8575,16.03,-36.8112,6.076068970409562,45.676164356979434,3.3260901227282194,24.86973986620639
