AcclX,AcclY,AcclZ,MagX,MagY,MagZ,GyroX,GyroY,GyroZ,Roll,Pitch,Yaw
-0.2828,-0.1538,0.9195,-0.2506,0.7592,0.3383,-2.8612,1.4175,-10.5,0,0,0
-0.2754,-0.1459,0.8728,-0.2474,0.7604,0.3309,-2.3975,1.4612,-10.6312,0,0,0
-0.2862,-0.1524,0.913,-0.2486,0.7602,0.3358,-3.2725,1.33,-10.4212,0,0,0
-0.2837,-0.1512,0.9213,-0.2486,0.7602,0.3358,-3.5613,1.1987,-10.08,0,0,0
-0.2821,-0.1518,0.9173,-0.249,0.7614,0.3371,-3.43,1.2337,-10.0887,0,0,0
-0.2827,-0.1516,0.9166,-0.249,0.7614,0.3371,-2.7738,1.7062,-10.3162,0,0,0
-0.2858,-0.1514,0.9149,-0.2485,0.7596,0.3362,-3.29,1.33,-10.605,0,0,0
-0.2843,-0.1528,0.9179,-0.2485,0.7596,0.3362,-3.3163,0.7613,-10.2112,0,0,0
-0.284,-0.1531,0.9141,-0.2484,0.7626,0.3368,-3.0625,0.98,-10.4212,0,0,0
-0.2818,-0.1521,0.9151,-0.2474,0.7598,0.3379,-3.185,1.12,-10.8062,0,0,0
-0.283,-0.1501,0.9189,-0.2474,0.7598,0.3379,-3.2375,1.3825,-10.5962,0,0,0
-0.2846,-0.1519,0.9161,-0.2491,0.7604,0.3369,-3.5875,1.3475,-10.7012,0,0,0
-0.2838,-0.152,0.9227,-0.2491,0.7604,0.3369,-3.6225,1.3825,-10.5612,0,0,0
-0.2813,-0.1494,0.9202,-0.2491,0.7603,0.3383,-2.9925,1.05,-10.045,0,0,0
-0.2846,-0.1515,0.9118,-0.2486,0.7595,0.3314,-3.325,1.3737,-10.1325,0,0,0
-0.2813,-0.1521,0.9191,-0.2486,0.7595,0.3314,-3.605,1.4175,-10.3512,0,0,0
-0.2841,-0.1499,0.9122,-0.2513,0.7614,0.3358,-2.9138,1.5575,-10.29,0,0,0
-0.2855,-0.1524,0.9199,-0.2513,0.7614,0.3358,-2.8525,1.0762,-10.6925,0,0,0
-0.2827,-0.1559,0.9178,-0.2474,0.7595,0.3426,-3.6575,1.0237,-10.7362,0,0,0
-0.2836,-0.1523,0.9149,-0.2483,0.7607,0.3369,-4.095,1.26,-10.2375,0,0,0
-0.281,-0.1502,0.9171,-0.2483,0.7607,0.3369,-2.6688,1.6625,-10.3512,0,0,0
-0.2856,-0.153,0.9206,-0.2522,0.7589,0.3366,-2.8087,1.365,-10.9112,0,0,0
-0.2838,-0.1534,0.9179,-0.2522,0.7589,0.3366,-3.1325,1.4787,-10.9112,0,0,0
-0.2849,-0.1521,0.9115,-0.2488,0.7612,0.339,-3.3863,1.1287,-11.1212,0,0,0
-0.2836,-0.1521,0.916,-0.2486,0.7588,0.3389,-3.9025,1.155,-10.0187,0,0,0
-0.2815,-0.1526,0.9145,-0.2486,0.7588,0.3389,-3.1937,1.4437,-10.9025,0,0,0
-0.2854,-0.1516,0.9204,-0.2476,0.7596,0.3362,-3.4563,1.4262,-10.745,0,0,0
-0.2812,-0.153,0.9127,-0.2476,0.7596,0.3362,-3.4213,1.1638,-10.4912,0,0,0
-0.2855,-0.1528,0.917,-0.2499,0.7623,0.3306,-3.1325,1.715,-10.6575,0,0,0
-0.2819,-0.1509,0.915,-0.2491,0.7608,0.3372,-3.7362,1.89,-10.8062,0,0,0
-0.2832,-0.1521,0.9209,-0.2491,0.7608,0.3372,-2.9313,1.47,-11.4362,0,0,0
-0.2848,-0.1526,0.9175,-0.2498,0.7601,0.3367,-3.2638,1.505,-10.9375,0,0,0
-0.2833,-0.1512,0.916,-0.2498,0.7601,0.3367,-3.7713,1.6187,-10.6138,0,0,0
-0.2836,-0.1512,0.9123,-0.2494,0.7611,0.3362,-2.9925,1.4525,-10.36,0,0,0
-0.286,-0.1513,0.917,-0.2475,0.7598,0.3364,-3.5088,1.68,-10.4475,0,0,0
-0.2815,-0.1519,0.9209,-0.2475,0.7598,0.3364,-3.1238,1.2775,-9.9137,0,0,0
-0.2868,-0.1512,0.9181,-0.2485,0.7597,0.3364,-2.9313,1.505,-10.6662,0,0,0
-0.2845,-0.1506,0.9136,-0.2485,0.7597,0.3364,-2.9575,1.6538,-10.15,0,0,0
-0.2838,-0.1513,0.9215,-0.2471,0.761,0.3354,-2.8,1.435,-10.6487,0,0,0
-0.2862,-0.1531,0.918,-0.2496,0.7585,0.3366,-3.7888,1.1987,-10.9375,0,0,0
-0.2863,-0.1537,0.9135,-0.2496,0.7585,0.3366,-3.08,0.98,-10.9812,0,0,0
-0.2831,-0.1515,0.918,-0.2478,0.7611,0.3374,-3.2987,1.1375,-10.2112,0,0,0
-0.2829,-0.1517,0.9141,-0.2478,0.7611,0.3374,-3.8325,1.365,-10.465,0,0,0
-0.283,-0.1526,0.9191,-0.2481,0.7605,0.3427,-3.5613,1.7675,-10.2812,0,0,0
-0.2825,-0.1511,0.916,-0.2486,0.7598,0.3363,-3.1063,1.9075,-10.9462,0,0,0
-0.2797,-0.1525,0.918,-0.2486,0.7598,0.3363,-3.0538,0.9187,-10.815,0,0,0
-0.2855,-0.1516,0.919,-0.2496,0.7593,0.3366,-2.7475,0.805,-10.3863,0,0,0
-0.2817,-0.1507,0.9151,-0.2496,0.7593,0.3366,-2.3538,1.295,-10.1587,0,0,0
-0.2827,-0.1506,0.9161,-0.2489,0.761,0.3422,-3.115,1.6275,-11.0513,0,0,0
-0.2853,-0.1514,0.9187,-0.2484,0.7606,0.3376,-3.4825,1.5662,-10.5875,0,0,0
-0.2829,-0.1522,0.9143,-0.2484,0.7606,0.3376,-2.87,1.5662,-10.675,0,0,0
-0.284,-0.1512,0.9145,-0.2482,0.7599,0.3364,-3.2638,1.5225,-10.7187,0,0,0
-0.2827,-0.1545,0.9215,-0.2482,0.7599,0.3364,-3.1588,0.9275,-10.675,0,0,0
-0.2838,-0.153,0.9161,-0.2478,0.7609,0.3346,-3.0363,0.8663,-10.85,0,0,0
-0.2827,-0.1509,0.9152,-0.248,0.7585,0.3369,-2.73,1.19,-10.8062,0,0,0
-0.2856,-0.152,0.9187,-0.248,0.7585,0.3369,-3.0975,1.33,-10.5525,0,0,0
-0.2835,-0.1521,0.914,-0.2492,0.7614,0.3368,-3.7538,1.6975,-10.8675,0,0,0
-0.284,-0.1514,0.9198,-0.2492,0.7614,0.3368,-2.7825,1.505,-10.71,0,0,0
-0.2814,-0.1529,0.9157,-0.2488,0.7609,0.3367,-3.0275,1.1462,-10.7975,0,0,0
-0.2841,-0.1516,0.915,-0.247,0.7624,0.3374,-3.1325,1.8025,-10.9987,0,0,0
-0.2858,-0.1514,0.9162,-0.247,0.7624,0.3374,-2.8963,2.0213,-11.1912,0,0,0
-0.2827,-0.1529,0.9184,-0.248,0.7613,0.3365,-3.325,1.505,-10.9112,0,0,0
-0.2849,-0.1521,0.913,-0.248,0.7613,0.3365,-3.5088,1.47,-10.3075,0,0,0
-0.2846,-0.1522,0.9168,-0.2498,0.761,0.335,-3.5963,1.5137,-10.43,0,0,0
-0.2837,-0.1515,0.9173,-0.2483,0.7611,0.3374,-3.185,1.1638,-10.3687,0,0,0
-0.2851,-0.151,0.9198,-0.2483,0.7611,0.3374,-3.5438,1.26,-10.0712,0,0,0
-0.2848,-0.152,0.917,-0.2494,0.7591,0.337,-3.4125,1.8375,-10.5,0,0,0
-0.2841,-0.152,0.9165,-0.2494,0.7591,0.337,-2.7037,1.7587,-11.375,0,0,0
-0.2877,-0.1518,0.9121,-0.2486,0.7604,0.3395,-3.4475,1.3037,-10.08,0,0,0
-0.2849,-0.1509,0.9171,-0.249,0.7611,0.3379,-2.765,1.5575,-11.165,0,0,0
-0.2834,-0.1518,0.9151,-0.249,0.7611,0.3379,-3.7362,1.0412,-10.5875,0,0,0
-0.2883,-0.152,0.9154,-0.2486,0.7608,0.3373,-3.01,1.435,-10.3775,0,0,0
-0.2852,-0.1507,0.9181,-0.2486,0.7608,0.3373,-3.7975,1.4262,-9.9837,0,0,0
-0.2825,-0.151,0.9174,-0.2477,0.7597,0.3377,-3.7625,1.6625,-10.0537,0,0,0
-0.2846,-0.1507,0.9124,-0.2501,0.7604,0.3361,-3.7975,1.7937,-10.6487,0,0,0
-0.2827,-0.1514,0.9166,-0.2501,0.7604,0.3361,-3.4563,1.4525,-10.5437,0,0,0
-0.2852,-0.1493,0.9087,-0.2522,0.7624,0.3372,-3.4825,1.2337,-10.9637,0,0,0
-0.2847,-0.1514,0.9199,-0.2522,0.7624,0.3372,-3.0625,1.925,-10.7275,0,0,0
-0.2841,-0.1527,0.9167,-0.2473,0.7611,0.341,-3.535,1.5925,-10.1325,0,0,0
-0.285,-0.1514,0.9157,-0.2454,0.761,0.337,-3.2375,1.1812,-10.535,0,0,0
-0.281,-0.1528,0.9151,-0.2454,0.761,0.337,-3.0713,1.6187,-10.675,0,0,0
-0.2868,-0.151,0.9112,-0.249,0.7611,0.3365,-3.5,1.54,-10.0275,0,0,0
-0.2846,-0.1489,0.9194,-0.249,0.7611,0.3365,-3.6488,1.19,-10.3687,0,0,0
-0.2843,-0.1545,0.917,-0.25,0.7604,0.3409,-2.9488,0.7962,-10.7362,0,0,0
-0.2826,-0.1547,0.9188,-0.2482,0.7606,0.3354,-3.4213,1.0412,-9.8962,0,0,0
-0.2843,-0.1505,0.9155,-0.2482,0.7606,0.3354,-3.0188,1.1812,-10.4475,0,0,0
-0.2831,-0.1517,0.9168,-0.248,0.7618,0.3372,-2.6775,1.5312,-11.1737,0,0,0
-0.2832,-0.1529,0.9212,-0.248,0.7618,0.3372,-2.9313,1.4787,-11.025,0,0,0
-0.2844,-0.1536,0.9141,-0.2482,0.7594,0.3357,-3.15,1.5487,-10.4387,0,0,0
-0.2852,-0.1514,0.9152,-0.2497,0.76,0.3374,-3.0625,1.4612,-10.745,0,0,0
-0.2839,-0.1522,0.918,-0.2497,0.76,0.3374,-3.3863,1.5575,-10.9987,0,0,0
-0.2843,-0.1527,0.9193,-0.247,0.7618,0.3366,-3.255,1.2687,-9.8175,0,0,0
-0.2848,-0.1515,0.9176,-0.247,0.7618,0.3366,-3.2113,1.33,-11.0862,0,0,0
-0.2839,-0.1529,0.9134,-0.2487,0.7614,0.3436,-3.43,1.4437,-10.8062,0,0,0
-0.2868,-0.1532,0.9126,-0.2484,0.7603,0.3363,-3.1763,1.3387,-10.29,0,0,0
-0.281,-0.1517,0.9195,-0.2484,0.7603,0.3363,-3.6837,1.3737,-10.2637,0,0,0
-0.2841,-0.152,0.9191,-0.2483,0.761,0.3404,-3.6663,1.5662,-10.7712,0,0,0
-0.2833,-0.1512,0.9175,-0.2483,0.761,0.3404,-3.6837,1.2425,-10.7625,0,0,0
-0.2848,-0.1513,0.9199,-0.2492,0.7602,0.3432,-3.2987,1.1287,-10.3863,0,0,0
-0.2844,-0.1528,0.9097,-0.249,0.761,0.3365,-2.695,1.1987,-10.3512,0,0,0
-0.2846,-0.1507,0.9227,-0.249,0.761,0.3365,-3.1937,1.47,-10.0275,0,0,0
-0.2829,-0.15,0.9166,-0.2481,0.7616,0.3374,-3.1412,1.47,-10.6312,-9.271134342572413,-16.400959560663626,-102.23361098718568
-0.2839,-0.151,0.9173,-0.2481,0.7616,0.3374,-2.7125,1.4787,-10.3863,-9.34763980715795,-16.963404980328285,-102.3255117701718
-0.2838,-0.1519,0.9157,-0.2529,0.7606,0.3355,-2.52,1.9775,-10.9112,-9.41851213949225,-16.999727592044827,-102.69948113408364
-0.2814,-0.1509,0.917,-0.2487,0.7608,0.3373,-3.2375,1.3212,-10.29,-9.344930211442769,-16.85106152324308,-102.41924926324016
-0.2828,-0.1527,0.9181,-0.2487,0.7608,0.3373,-3.2813,1.8375,-11.025,-9.442851757863904,-16.89995446210925,-102.42304582637182
-0.2832,-0.1534,0.9176,-0.2492,0.7612,0.3409,-2.7913,1.505,-10.3512,-9.490554008395597,-16.929629323395886,-102.37333936906293
-0.2833,-0.1518,0.914,-0.2492,0.7612,0.3395,-2.8875,1.2075,-10.1587,-9.429938966545983,-16.999663827685268,-102.36727887117947
-0.2852,-0.1508,0.9134,-0.2485,0.7602,0.3395,-3.6488,1.5837,-10.185,-9.374955457722242,-17.118554174603755,-102.28175166349651
-0.2816,-0.1511,0.9198,-0.2482,0.7603,0.3376,-3.4213,1.2862,-10.5525,-9.329046266719754,-16.819564135917727,-102.39388723449503
-0.2871,-0.1517,0.9154,-0.2482,0.7603,0.3376,-3.4038,1.435,-10.6138,-9.409336786239626,-17.180904250790192,-102.28838870459091
-0.2824,-0.1523,0.9143,-0.2506,0.7592,0.3342,-3.745,1.26,-9.9837,-9.457123191489396,-16.951993466652716,-102.6221438762853
-0.2856,-0.1538,0.9149,-0.2506,0.7592,0.335,-3.7625,1.19,-9.6862,-9.542321176187153,-17.10575227595605,-102.57097856315602
-0.2833,-0.1508,0.9182,-0.2493,0.7609,0.335,-3.8238,1.4175,-10.3075,-9.327206013986645,-16.938855852542726,-102.47513013018828
-0.2824,-0.1524,0.9191,-0.2493,0.7594,0.3366,-3.8675,1.435,-10.9987,-9.414587580158663,-16.865428996958457,-102.49959957342227
-0.284,-0.1527,0.9148,-0.2493,0.7594,0.3366,-3.0713,2.17,-10.57,-9.476388569290625,-17.020100273699278,-102.46131415618491
-0.2841,-0.1515,0.9191,-0.2512,0.7618,0.339,-3.9813,1.9687,-9.6775,-9.360476929241887,-16.963143254927772,-102.49851105269602
-0.2833,-0.1526,0.9179,-0.2512,0.7618,0.339,-3.2113,1.8375,-10.6312,-9.438846384433845,-16.93437904070422,-102.5250920143979
-0.2823,-0.1535,0.919,-0.2496,0.7614,0.337,-3.15,1.575,-11.235,-9.482433898393218,-16.858490383135212,-102.50444849814521
-0.2833,-0.1519,0.9169,-0.2471,0.761,0.336,-3.0013,1.505,-10.7275,-9.406766464252705,-16.94934358334008,-102.32113811488348
-0.286,-0.1515,0.9145,-0.2471,0.761,0.336,-3.1763,1.435,-10.8675,-9.406434635454792,-17.140498649317216,-102.25868122496333
-0.2857,-0.1512,0.9191,-0.2487,0.7596,0.3411,-3.5263,1.225,-10.3863,-9.342141372686275,-17.054868555071582,-102.28170428301149
-0.2831,-0.1516,0.9197,-0.2487,0.7596,0.3372,-3.815,1.6625,-9.9225,-9.36021285964587,-16.899679612177856,-102.42275484346527
-0.2821,-0.1529,0.9162,-0.2482,0.7602,0.3372,-3.2987,1.4962,-11.1825,-9.474210079354984,-16.89383858236423,-102.40924339854563
-0.2833,-0.1521,0.9138,-0.2474,0.7586,0.3378,-2.9488,1.1812,-11.3662,-9.450179751387152,-17.00101720385868,-102.32129550513226
-0.2874,-0.1512,0.9162,-0.2474,0.7586,0.3378,-3.9288,1.2512,-10.5262,-9.37122369627315,-17.191127248412855,-102.24088699132443
-0.2857,-0.1516,0.9163,-0.2486,0.7618,0.343,-3.22,1.4437,-11.1475,-9.394314463586978,-17.101657137894435,-102.20501871795275
-0.2832,-0.1543,0.9174,-0.2486,0.7612,0.3319,-3.6575,1.0937,-10.08,-9.546997689336415,-16.93679058775794,-102.54392882986471
-0.2847,-0.1523,0.9162,-0.2485,0.7612,0.3319,-3.7888,1.365,-10.4912,-9.43825034006739,-17.038729183723543,-102.47838193924439
-0.2848,-0.1497,0.9135,-0.2498,0.7618,0.3369,-2.9313,1.54,-10.6662,-9.30695908747687,-17.099259137784536,-102.396753778417
-0.2802,-0.152,0.913,-0.2498,0.7618,0.3369,-2.5113,1.6625,-10.71,-9.451789118253894,-16.851038668911382,-102.51229051428724
-0.2856,-0.1508,0.9199,-0.2481,0.7615,0.3357,-2.73,1.4175,-10.535,-9.310090013386159,-17.028157198703475,-102.33892087284364
-0.2869,-0.152,0.916,-0.2494,0.7615,0.3404,-2.485,1.6538,-10.43,-9.421470536782738,-17.165783216315734,-102.30047006768889
-0.2808,-0.1534,0.913,-0.2494,0.7615,0.3404,-3.36,1.4088,-10.2637,-9.53732672980263,-16.882178294678162,-102.42276638368186
-0.2851,-0.1497,0.9198,-0.2497,0.7594,0.3375,-3.0625,1.5137,-10.1675,-9.24471654224565,-17.006523243336073,-102.41998850232069
-0.2838,-0.1523,0.9198,-0.2497,0.7594,0.3375,-2.8087,1.4175,-10.3425,-9.40131808194183,-16.932710285107344,-102.48122826169113
-0.2818,-0.1536,0.9177,-0.2493,0.7594,0.3318,-3.2375,1.1987,-10.7187,-9.501556037469669,-16.852043975618365,-102.6282860001214
-0.2849,-0.1498,0.9146,-0.2478,0.7602,0.3372,-2.9575,1.1025,-9.9137,-9.30222994255419,-17.080341696747055,-102.28214788364873
-0.2862,-0.1498,0.9143,-0.2478,0.7602,0.3372,-3.2638,0.8487,-9.9663,-9.304731696874201,-17.163636143571875,-102.2570366757246
-0.2839,-0.1529,0.9184,-0.2497,0.7609,0.3375,-3.5788,1.0237,-10.7975,-9.451842395902647,-16.96436511653314,-102.46611720242579
-0.2831,-0.1523,0.9148,-0.2497,0.7609,0.3375,-3.3075,1.2425,-10.8062,-9.452164568960121,-16.975237994503726,-102.4606191208458
-0.2815,-0.1511,0.916,-0.248,0.759,0.3378,-2.905,1.4962,-10.8325,-9.367158672514412,-16.87159256205336,-102.38121822691808
-0.282,-0.1533,0.9154,-0.248,0.7599,0.3411,-3.5175,1.9337,-10.1763,-9.506632009776775,-16.899475178449347,-102.31935170646582
-0.284,-0.1498,0.9179,-0.248,0.7599,0.3411,-3.2813,1.6975,-10.5525,-9.269463736867452,-16.978083472784473,-102.2399583890626
-0.2826,-0.152,0.917,-0.2506,0.7614,0.337,-3.5088,1.61,-10.6575,-9.411304138533815,-16.913016550920098,-102.53560717607176
-0.2841,-0.1537,0.9158,-0.2506,0.7614,0.337,-3.6488,1.4787,-10.325,-9.526955578347485,-17.00793516839254,-102.52961568983123
-0.2832,-0.1513,0.9151,-0.2502,0.762,0.3347,-2.9663,1.5575,-9.9663,-9.388528645049206,-16.979886445953618,-102.52638592581964
-0.2849,-0.1525,0.9161,-0.2474,0.7598,0.3328,-2.625,1.12,-10.8325,-9.45101177583123,-17.052136841582236,-102.40232089799736
-0.2849,-0.1526,0.9167,-0.2474,0.7598,0.3328,-3.185,0.9538,-10.4825,-9.451172407270558,-17.044225181948438,-102.40553810511648
-0.2828,-0.1534,0.9176,-0.2482,0.7596,0.3356,-2.7825,0.9625,-10.8675,-9.490574439534596,-16.91232323771528,-102.45018735809259
-0.2878,-0.1519,0.913,-0.2482,0.7596,0.3356,-2.9313,1.3212,-10.8062,-9.446148309019586,-17.261667122618082,-102.32338397834685
-0.2837,-0.1523,0.9201,-0.2487,0.7596,0.3385,-3.2113,1.4612,-10.5175,-9.398809435193687,-16.93048392746751,-102.39477024373967
-0.2825,-0.1528,0.9159,-0.2486,0.76,0.3357,-3.5438,1.9075,-10.8325,-9.471273194383654,-16.921885715471547,-102.46072215590998
-0.2856,-0.1509,0.9135,-0.2486,0.76,0.3357,-3.1238,1.47,-10.9812,-9.380141907591307,-17.136040450677015,-102.36923362195826
-0.2818,-0.1527,0.9202,-0.25,0.761,0.3366,-4.27,1.3562,-10.1937,-9.421826722774226,-16.820251069097303,-102.5448904340031
-0.2827,-0.153,0.9138,-0.25,0.761,0.3366,-3.9463,1.2775,-10.2987,-9.504816225507222,-16.963332724664692,-102.51298423558534
-0.2846,-0.1495,0.9168,-0.2485,0.7593,0.3381,-3.7538,1.3212,-10.8762,-9.262143641083213,-17.031819556465926,-102.32632748502688
-0.2829,-0.1523,0.9182,-0.2494,0.7565,0.3389,-3.7888,1.575,-10.2812,-9.41741003700329,-16.910647504069136,-102.4757671879627
-0.2835,-0.152,0.92,-0.2494,0.7565,0.3389,-3.5088,1.33,-10.4038,-9.381598458471121,-16.91086855739258,-102.46648498079563
-0.2855,-0.1497,0.9124,-0.2488,0.7591,0.3379,-3.0188,1.785,-10.6925,-9.31781642948025,-17.15176544419025,-102.32416762842716
-0.2836,-0.1499,0.9154,-0.2488,0.7591,0.3379,-3.5613,1.2425,-10.0887,-9.299891883401067,-17.0051582878551,-102.37191346535728
-0.2833,-0.154,0.9173,-0.249,0.7618,0.3351,-4.0075,1.7237,-11.1125,-9.529605092393185,-16.94172247998064,-102.48644640678287
-0.2862,-0.1513,0.9162,-0.2478,0.759,0.3382,-3.885,1.715,-10.8762,-9.37749194535926,-17.12343316003734,-102.27705283108227
-0.2839,-0.1504,0.9165,-0.2478,0.759,0.3382,-3.5438,1.6538,-10.2812,-9.319464477358384,-17.00122252826259,-102.30681426200972
-0.284,-0.1513,0.9126,-0.2486,0.7614,0.3374,-3.6488,1.7062,-10.1763,-9.413215097386097,-17.06480414239807,-102.34764679998928
-0.2823,-0.1509,0.9143,-0.2486,0.7614,0.3374,-3.3775,1.295,-10.6138,-9.371957490543199,-16.946670671840234,-102.37827833521825
-0.2835,-0.1521,0.9182,-0.2488,0.7602,0.3306,-3.9725,1.2075,-10.5787,-9.405563884645943,-16.941195345491373,-102.56244119021224
-0.2872,-0.1527,0.9142,-0.2535,0.7605,0.3325,-3.5875,1.0412,-10.5,-9.48245779945923,-17.207571066269466,-102.7518607234009
-0.2849,-0.1491,0.92,-0.2535,0.7605,0.3325,-3.4388,1.4525,-10.4737,-9.206295048827156,-17.004310956217243,-102.75950541491193
-0.2827,-0.153,0.9123,-0.25,0.7612,0.3372,-3.5438,1.295,-9.9312,-9.519590803485068,-16.993920381449513,-102.49295886110842
-0.2868,-0.1539,0.9181,-0.25,0.7612,0.3372,-3.29,1.5575,-10.3075,-9.5159589800096,-17.119189136199637,-102.45020690655834
-0.2854,-0.152,0.918,-0.2486,0.7607,0.3402,-3.5963,1.6013,-10.7887,-9.401866025826253,-17.053836177235596,-102.29628498158692
-0.286,-0.1521,0.9153,-0.2497,0.7602,0.3342,-3.4913,1.54,-10.4038,-9.43483105742238,-17.128864448997543,-102.48759855264616
-0.2855,-0.1496,0.9143,-0.2497,0.7602,0.3342,-4.1388,1.5137,-10.57,-9.292882362297071,-17.127403624193395,-102.45678886725565
-0.2799,-0.152,0.9182,-0.2486,0.7607,0.3362,-3.4913,1.6887,-11.0075,-9.399310974324695,-16.750745605871156,-102.48436579116583
-0.2876,-0.1529,0.9184,-0.2486,0.7607,0.3362,-3.3688,1.645,-10.6225,-9.45207512608592,-17.15271123245057,-102.35927105228248
-0.2863,-0.1546,0.9158,-0.2495,0.7612,0.3358,-3.8763,1.6538,-10.2812,-9.58167688637292,-17.133149992336723,-102.46079436314028
-0.2839,-0.1527,0.9204,-0.2503,0.759,0.3366,-3.7013,1.47,-11.0075,-9.4203170788289,-16.93129820047953,-102.55048216644211
-0.2829,-0.1513,0.9119,-0.2503,0.759,0.3366,-3.3163,1.1287,-10.7625,-9.420542320159273,-17.01391133293579,-102.52110534054417
-0.2851,-0.1506,0.9223,-0.2487,0.7584,0.3375,-2.8788,1.1725,-10.3863,-9.274196938955285,-16.967319108299545,-102.38789737863067
-0.2868,-0.1507,0.9092,-0.2487,0.7584,0.3375,-3.535,1.5575,-10.5437,-9.410882081043823,-17.27578064800357,-102.31478033822358
-0.2851,-0.1516,0.921,-0.247,0.7611,0.3294,-3.7888,1.5575,-10.43,-9.347435246022176,-16.99428829417298,-102.43456094068608
-0.279,-0.1523,0.9141,-0.2491,0.762,0.3363,-3.8588,1.7325,-10.6225,-9.458997576307521,-16.763040756211605,-102.50719481724256
-0.2811,-0.1507,0.9187,-0.2491,0.762,0.3363,-3.7625,1.715,-9.9312,-9.315968099666753,-16.799968809986357,-102.46091963750692
-0.284,-0.1532,0.9209,-0.2479,0.7603,0.336,-3.4825,1.5487,-9.9137,-9.44485183842624,-16.91660326189679,-102.39983342990658
-0.2836,-0.1527,0.9146,-0.2479,0.7603,0.336,-3.7362,1.7762,-10.2025,-9.478492473368279,-17.003241075857396,-102.37991541045953
-0.283,-0.1505,0.9116,-0.249,0.7605,0.3409,-3.0975,1.3825,-9.9663,-9.374902176381966,-17.028830529125337,-102.31012956837228
-0.2842,-0.1499,0.9222,-0.2485,0.7601,0.3363,-2.4588,1.3212,-10.85,-9.23280823958437,-16.922395778167342,-102.38740761276803
-0.2832,-0.1519,0.9194,-0.2485,0.7601,0.3363,-2.4063,1.4,-10.3775,-9.381092788417552,-16.904970915098374,-102.4253502580345
-0.2845,-0.1514,0.9194,-0.2495,0.759,0.3362,-2.6513,1.1462,-10.78,-9.351196924686471,-16.97661040073046,-102.47447460796312
-0.2844,-0.153,0.922,-0.2495,0.759,0.3362,-3.6837,1.0412,-10.4387,-9.421834321471904,-16.926551724422374,-102.50771865447838
-0.2827,-0.154,0.9143,-0.2494,0.7618,0.3389,-3.4738,1.0587,-10.1412,-9.560524291855991,-16.955698699729084,-102.43061705297588
-0.285,-0.153,0.9199,-0.2513,0.76,0.3362,-3.1588,1.05,-10.71,-9.443419175900535,-16.99288662979358,-102.5952861240295
-0.2837,-0.1518,0.9154,-0.2513,0.76,0.3362,-3.1937,1.47,-11.2613,-9.415694696487455,-17.000439094976915,-102.58717242511337
-0.2834,-0.1497,0.9091,-0.2482,0.7618,0.3358,-2.9488,1.4962,-11.2613,-9.351044955507751,-17.09451209013678,-102.32870839868552
-0.2832,-0.1518,0.9195,-0.2482,0.7618,0.3358,-3.3338,1.6712,-10.85,-9.374332115402652,-16.909125855688472,-102.39609495513281
-0.2855,-0.1543,0.9204,-0.247,0.7609,0.3413,-3.6488,1.5225,-10.4825,-9.516474606439157,-17.00681170734296,-102.20555646463129
-0.2888,-0.1541,0.917,-0.2492,0.7603,0.3359,-3.3338,1.2775,-10.43,-9.539253332284284,-17.246193846593208,-102.40083727762416
-0.2806,-0.1491,0.9134,-0.2492,0.7603,0.3359,-3.4563,1.4175,-10.2812,-9.271640511499049,-16.87888535382206,-102.46477028070036
-0.2849,-0.1489,0.9218,-0.2484,0.7618,0.3364,-3.5788,1.2337,-9.9837,-9.176066256815329,-16.964888726040197,-102.33084691537076
-0.2843,-0.1516,0.9213,-0.2484,0.7618,0.3364,-3.3425,1.4787,-10.4387,-9.3438750875558,-16.93596737097156,-102.37895109482045
-0.2835,-0.1521,0.915,-0.249,0.7622,0.3386,-3.255,1.6538,-10.1763,-9.437718863114268,-16.993454428162966,-102.36665811529711
-0.2847,-0.1517,0.917,-0.2482,0.7603,0.3367,-3.3338,1.75,-10.2375,-9.393518551684268,-17.02895361431706,-102.35705230415039
-0.2844,-0.1534,0.9151,-0.2482,0.7603,0.3367,-3.1937,1.3212,-10.22,-9.515824486454504,-17.04039999931339,-102.38129990600927
-0.2846,-0.1501,0.9127,-0.2478,0.7595,0.338,-3.29,1.7937,-10.5525,-9.339535714487363,-17.10055317145076,-102.2758418605261
-0.2861,-0.1485,0.9173,-0.2478,0.7595,0.338,-3.3688,1.2862,-10.0012,-9.196081989876166,-17.112436224983036,-102.23996705251606
-0.2818,-0.1518,0.9148,-0.2494,0.7607,0.3374,-2.7037,1.4787,-10.2812,-9.421137430935296,-16.910155470151565,-102.46183612500123
-0.2838,-0.153,0.9168,-0.2461,0.7599,0.3371,-2.4413,1.4962,-10.745,-9.474352181108314,-16.976928081155894,-102.25119843019175
-0.2844,-0.1495,0.914,-0.2461,0.7599,0.3371,-3.7188,1.3037,-10.5087,-9.289878502339477,-17.067658223863376,-102.17973691751752
-0.2808,-0.1518,0.9182,-0.2485,0.7602,0.3366,-2.7738,1.505,-10.4562,-9.387186316852787,-16.798485058972567,-102.45561010089173
-0.2814,-0.1527,0.9204,-0.2485,0.7602,0.3366,-2.8963,1.3825,-10.1325,-9.419838651204163,-16.78449830229735,-102.46482490329628
-0.2845,-0.1502,0.9161,-0.2498,0.7612,0.345,-3.605,1.3387,-9.7562,-9.31140574575802,-17.030359105899354,-102.24686554829465
-0.2852,-0.152,0.9095,-0.2498,0.7612,0.3364,-3.15,1.5575,-10.3425,-9.487426021628638,-17.181302155465307,-102.42822811693866
-0.2835,-0.1542,0.9183,-0.2498,0.7612,0.3364,-3.0975,1.715,-10.43,-9.532011238629922,-16.941352041136344,-102.51910147537008
-0.2815,-0.1506,0.9177,-0.2478,0.7605,0.3382,-3.4738,1.3737,-10.3337,-9.320031075847746,-16.844057360770783,-102.34062648605713
-0.2835,-0.1501,0.9143,-0.2478,0.7605,0.3382,-2.9313,1.5312,-10.7187,-9.323037913273327,-17.007541616047845,-102.28550522013424
-0.2808,-0.1532,0.917,-0.2498,0.7601,0.3362,-2.835,1.3125,-11.165,-9.484214812092986,-16.812273598790036,-102.56618387864422
-0.2831,-0.1521,0.9143,-0.2501,0.7612,0.3367,-3.36,1.5925,-10.7537,-9.445142074537817,-16.97916407044709,-102.49621318483423
-0.2829,-0.1511,0.9199,-0.2501,0.7612,0.3367,-3.15,1.2512,-10.99,-9.328224816202146,-16.884398063619056,-102.50325680098663
-0.2816,-0.1525,0.917,-0.2498,0.76,0.3366,-2.4325,1.0937,-10.9725,-9.44177742122867,-16.854011694668454,-102.53433815104884
-0.2847,-0.1512,0.9165,-0.2498,0.76,0.3366,-4.0338,1.2775,-10.185,-9.36819741973435,-17.034173906230293,-102.45772557350304
-0.2816,-0.1516,0.9168,-0.247,0.7583,0.3355,-3.4125,1.365,-10.2025,-9.38928717150037,-16.864478896862252,-102.38251777102177
-0.2845,-0.1535,0.9161,-0.2463,0.7614,0.3379,-3.0275,1.19,-10.0975,-9.511709970926447,-17.023888633732817,-102.22212879602641
-0.2813,-0.1528,0.9176,-0.2463,0.7614,0.3379,-3.5788,1.6625,-10.0012,-9.45436299497863,-16.831504731611037,-102.27427368417749
-0.2847,-0.1523,0.9146,-0.2485,0.7608,0.3379,-3.1763,1.7237,-10.6225,-9.454195415904659,-17.061760106428604,-102.34534311270623
-0.2846,-0.1505,0.9149,-0.2485,0.7608,0.3379,-2.94,1.4525,-10.4387,-9.341707177462709,-17.063648779959166,-102.32178907376172
-0.2863,-0.1492,0.9193,-0.2478,0.7608,0.3407,-3.2025,1.61,-10.2025,-9.218879027092495,-17.08718811451495,-102.17900578874946
-0.2824,-0.1505,0.9182,-0.2487,0.761,0.3358,-3.3863,1.6625,-10.6925,-9.308225669189394,-16.890003393928616,-102.42914810783877
-0.2835,-0.1541,0.9151,-0.2487,0.761,0.3358,-3.4125,1.33,-10.6837,-9.558134574401489,-16.984853299149506,-102.45200142256772
-0.2849,-0.1534,0.9149,-0.2475,0.7597,0.3365,-2.8963,1.6538,-10.955,-9.518266161421453,-17.069608574112777,-102.33757914596937
-0.2826,-0.1529,0.9134,-0.2475,0.7597,0.3365,-2.3538,1.1462,-10.78,-9.503043262945635,-16.97260095279605,-102.36695633603621
-0.2847,-0.1526,0.9134,-0.2482,0.7622,0.3323,-2.87,1.3212,-10.5175,-9.484744444508499,-17.08539373143441,-102.43427403305265
-0.2804,-0.1515,0.9218,-0.2484,0.7605,0.3366,-3.0888,1.365,-10.7362,-9.333629645091046,-16.719665464951387,-102.46025001192986
-0.2869,-0.1514,0.9159,-0.2484,0.7605,0.3366,-3.2288,1.1638,-10.1325,-9.386093540959696,-17.159445196341036,-102.3221669245723
-0.2869,-0.1531,0.9147,-0.2495,0.7599,0.3366,-3.1675,1.4962,-10.4737,-9.501647820370804,-17.188568728092235,-102.42144598220314
-0.2846,-0.1535,0.9187,-0.2495,0.7599,0.3366,-3.8063,1.6887,-10.4562,-9.485621065201103,-16.99687476648191,-102.48162516816215
-0.2836,-0.1518,0.9225,-0.2512,0.761,0.3337,-2.835,1.2075,-10.64,-9.344788924993122,-16.878810301420884,-102.64808726878675
-0.2841,-0.1519,0.9191,-0.2486,0.7605,0.3365,-3.4388,1.4875,-10.6575,-9.384367543722025,-16.95753202540822,-102.40586226833717
-0.283,-0.1534,0.9133,-0.2486,0.7605,0.3365,-3.78,1.295,-10.1325,-9.534167306552071,-16.99125469396396,-102.4289890773299
-0.2861,-0.1518,0.9137,-0.2488,0.7615,0.335,-3.3338,1.5925,-9.7562,-9.433079377206433,-17.15975800263223,-102.38547336059244
-0.2863,-0.1523,0.9216,-0.2488,0.7615,0.335,-3.2638,1.68,-10.1412,-9.383789201388067,-17.044048955425804,-102.41423613342054
-0.2818,-0.1521,0.9163,-0.2492,0.7614,0.3354,-3.1675,1.3912,-10.1675,-9.424699634594456,-16.882558424250693,-102.49375705084361
-0.2797,-0.1496,0.9148,-0.2489,0.761,0.337,-2.9575,1.785,-9.8787,-9.287878248464636,-16.79370765087802,-102.44148452940588
-0.2869,-0.1528,0.9166,-0.2489,0.761,0.337,-3.3775,1.6275,-10.5787,-9.463915615375361,-17.146112582799756,-102.3629247594614
-0.2859,-0.1543,0.9175,-0.2459,0.761,0.3426,-3.6138,1.1638,-9.9312,-9.546150041677677,-17.083823219409428,-102.0879051732991
-0.2865,-0.1521,0.9177,-0.2459,0.761,0.3426,-3.0625,1.2687,-10.185,-9.41101260313094,-17.11731631635741,-102.04489605481018
-0.2809,-0.1511,0.9238,-0.2529,0.7618,0.3355,-3.5788,0.8312,-9.4237,-9.289544529001041,-16.716491437641462,-102.75179379938287
-0.2819,-0.1503,0.9118,-0.2491,0.7607,0.3366,-3.7362,1.75,-9.8437,-9.360218128671702,-16.95647105524184,-102.42711323006561
-0.2849,-0.1537,0.9196,-0.2491,0.7607,0.3366,-3.5788,1.7587,-10.5875,-9.488273590150165,-16.99044985712858,-102.44683792194732
-0.2849,-0.1509,0.9143,-0.2484,0.7598,0.3381,-2.9925,1.3737,-10.6312,-9.372141770732856,-17.0866466249456,-102.32077974362232
-0.2819,-0.1524,0.9137,-0.2484,0.7598,0.3381,-2.7388,1.6538,-10.6662,-9.469201342912285,-16.93127912165098,-102.39543628007586
-0.2802,-0.154,0.9199,-0.2495,0.7611,0.3436,-2.6425,1.4175,-10.3863,-9.503643442309901,-16.72787227905684,-102.40601292225236
-0.2858,-0.1507,0.9133,-0.2482,0.7614,0.3369,-2.94,1.54,-10.6225,-9.370049922754022,-17.144658148722385,-102.29349981102733
-0.2827,-0.1517,0.9165,-0.2482,0.7614,0.3369,-3.0188,1.05,-10.9375,-9.398373069556742,-16.932694364996667,-102.37465525079178
-0.2806,-0.1532,0.918,-0.2489,0.7616,0.3362,-3.1937,1.365,-10.6312,-9.474280135394737,-16.782707081703865,-102.49721573216856
-0.2833,-0.153,0.9183,-0.2489,0.7616,0.3362,-3.5613,1.4612,-10.7712,-9.459323712476385,-16.920984368864854,-102.44690775677087
-0.2838,-0.1513,0.9163,-0.2493,0.759,0.3331,-3.0713,1.4262,-10.71,-9.376315795349235,-16.990149708672615,-102.53105770314032
-0.2846,-0.1501,0.9117,-0.2477,0.761,0.3364,-3.0888,1.6712,-10.5787,-9.349230845691949,-17.115597227147237,-102.28457824714482
-0.2826,-0.1535,0.9196,-0.2477,0.761,0.3364,-3.4825,1.5487,-10.36,-9.476153646705656,-16.870847336145765,-102.39531174561964
-0.2851,-0.1523,0.9161,-0.2506,0.759,0.3438,-3.9113,1.0762,-10.8238,-9.439085209294571,-17.060184929744146,-102.36944107030519
-0.2857,-0.1495,0.9167,-0.2506,0.759,0.3438,-3.885,1.4,-10.9725,-9.262972375170046,-17.096582822709586,-102.31944579073753
-0.2789,-0.1529,0.9129,-0.2487,0.7602,0.3314,-3.325,1.2512,-10.8937,-9.507513003256006,-16.778609966989695,-102.61540255582317
-0.2826,-0.1526,0.9144,-0.2484,0.7598,0.3366,-3.0538,1.3475,-10.4912,-9.4745960308402,-16.947742101765872,-102.42105472529757
-0.2848,-0.1548,0.9148,-0.2484,0.7598,0.3366,-3.29,1.8725,-10.885,-9.60413553664468,-17.06068436203262,-102.41463645050588
-0.2853,-0.1553,0.9255,-0.2494,0.7614,0.3346,-3.7975,1.7325,-10.3425,-9.525750423281533,-16.91491348191825,-102.53625152795617
-0.286,-0.1484,0.9201,-0.2494,0.7614,0.3339,-2.9663,1.1987,-10.5787,-9.163044364271963,-17.055112267815925,-102.42246701841776
-0.2782,-0.1362,0.898,-0.2475,0.7622,0.3339,-3.185,1.7325,-10.3775,-8.625666162423661,-17.030464519362052,-102.17865444746764
-0.279,-0.1657,0.9195,-0.2479,0.7603,0.3375,-3.1937,1.6975,-10.6225,-10.211533902451867,-16.63941061952296,-102.62972068157057
-0.294,-0.1675,0.9173,-0.2479,0.7603,0.3375,-3.3513,2.1263,-10.3425,-10.347927431529433,-17.471706581475587,-102.3924986958619
-0.2894,-0.1441,0.899,-0.2491,0.76,0.3336,-3.1588,1.5487,-10.3425,-9.109483997695627,-17.62801130735325,-102.22670880277273
-0.279,-0.1448,0.9191,-0.2491,0.7606,0.332,-3.2025,0.84,-10.2637,-8.953482642363973,-16.721060051036346,-102.52588425167927
-0.2705,-0.1584,0.9259,-0.2501,0.7606,0.332,-3.0538,1.19,-11.2,-9.706143543817191,-16.085240292773648,-102.94971547480655
-0.2963,-0.1407,0.9194,-0.2485,0.7608,0.3374,-3.955,1.8725,-10.3512,-8.703208129464176,-17.61904181256233,-101.98544439953044
-0.2915,-0.1405,0.9113,-0.2485,0.7608,0.3374,-3.9638,1.505,-10.5525,-8.764435879243539,-17.54609838084912,-102.04207444123192
-0.2863,-0.1561,0.9077,-0.2486,0.7609,0.3398,-3.465,1.4525,-11.0513,-9.75544216058981,-17.2766794350399,-102.31393529742168
-0.2777,-0.1665,0.9109,-0.2494,0.7609,0.3354,-3.5613,0.9275,-10.2112,-10.357045388814502,-16.711945772556128,-102.77655826518884
-0.284,-0.1585,0.9218,-0.2494,0.7609,0.3354,-3.4125,1.5487,-10.6925,-9.757863871170708,-16.88454041104957,-102.58264741990938
-0.2787,-0.1444,0.9144,-0.2482,0.7604,0.337,-3.1238,1.9075,-11.2262,-8.975840013408485,-16.759090943727237,-102.34576406609575
-0.2811,-0.1608,0.9166,-0.2482,0.7604,0.337,-4.2088,1.5225,-10.0537,-9.947800497798386,-16.806122932944394,-102.54436762719476
-0.284,-0.1534,0.915,-0.2496,0.7607,0.3358,-3.2813,1.435,-9.7037,-9.518205426362938,-17.013100718275684,-102.49431830240168
-0.2894,-0.1416,0.9233,-0.2504,0.7614,0.3398,-3.255,1.6975,-10.4038,-8.721078358808056,-17.207513667258745,-102.20624926959323
-0.2867,-0.1511,0.9163,-0.2504,0.7614,0.3398,-2.7475,1.4088,-10.4125,-9.36235875351801,-17.158097250174496,-102.3708707824531
-0.2791,-0.1541,0.916,-0.2491,0.7601,0.3375,-3.0975,1.1375,-10.6138,-9.549071974798114,-16.73772439306082,-102.53296981352085
-0.285,-0.1468,0.9129,-0.2491,0.7601,0.3375,-3.7888,1.4875,-10.1062,-9.136329703422799,-17.118454535212898,-102.30927638107799
-0.2887,-0.1505,0.9184,-0.249,0.7606,0.3397,-3.22,1.6275,-9.9663,-9.306036133188364,-17.230875326891876,-102.25301237369176
-0.2849,-0.1573,0.9194,-0.2498,0.7599,0.3409,-2.8963,1.3125,-9.9837,-9.707734802680626,-16.992455564185814,-102.45815090653932
-0.2839,-0.1546,0.9137,-0.2498,0.7599,0.3409,-2.905,1.1987,-10.395,-9.603865490001995,-17.031699625570223,-102.41919682470471
-0.2821,-0.1492,0.9183,-0.2496,0.7605,0.3366,-3.4738,1.1725,-10.4475,-9.229365813797564,-16.873602548913826,-102.46319186723623
-0.2806,-0.1545,0.9207,-0.2496,0.7605,0.3366,-3.2113,1.3387,-9.6425,-9.525157850427053,-16.733556948270454,-102.5735964494504
-0.2842,-0.1523,0.9157,-0.2477,0.76,0.3366,-2.9663,1.68,-10.7887,-9.443244356109492,-17.01313151895199,-102.34409447468654
-0.2883,-0.1499,0.9182,-0.2464,0.7585,0.3355,-2.8525,0.8138,-10.78,-9.272402123580305,-17.21088111544381,-102.19911885418718
-0.2844,-0.1527,0.9154,-0.2464,0.7585,0.3355,-3.5088,1.3825,-10.6575,-9.469954836793521,-17.043151653052753,-102.30192657989872
-0.2826,-0.1507,0.9219,-0.2494,0.76,0.3368,-3.465,1.3037,-10.465,-9.284301526505272,-16.838594913718175,-102.47563537583977
-0.2809,-0.1505,0.9126,-0.2494,0.76,0.3368,-3.0625,1.82,-10.1325,-9.364359449100947,-16.891757847258177,-102.4737876722408
-0.2847,-0.1551,0.9176,-0.2481,0.7604,0.3326,-2.9838,1.225,-10.5,-9.593339934633777,-17.006515343463214,-102.49141578740675
-0.2818,-0.1538,0.9177,-0.2494,0.7601,0.3387,-3.4563,1.7237,-9.94,-9.514144374028634,-16.853910355404025,-102.47861703531117
-0.2826,-0.1524,0.9131,-0.2494,0.7601,0.3387,-3.6663,1.6362,-10.6837,-9.475644751927675,-16.97207547978847,-102.42913353807567
-0.2821,-0.1529,0.9245,-0.2484,0.76,0.3368,-3.43,1.7062,-11.1212,-9.391160830457865,-16.761322249773894,-102.45940880497068
-0.2824,-0.1552,0.919,-0.2484,0.76,0.3368,-2.5638,1.8288,-11.0162,-9.585144161358224,-16.853739158555758,-102.46979424006899
-0.283,-0.1494,0.9119,-0.253,0.7616,0.3346,-3.6312,1.2687,-10.325,-9.305013835160935,-17.022129423227554,-102.67998264402362
-0.2859,-0.1515,0.9121,-0.2491,0.7604,0.3399,-4.2088,1.0675,-9.8962,-9.430431051733766,-17.177405817598288,-102.30297351772022
-0.2855,-0.1549,0.9171,-0.2491,0.7604,0.3399,-3.29,1.085,-10.1325,-9.586504452111258,-17.06793105134507,-102.37621302674526
-0.2836,-0.1512,0.9152,-0.2502,0.761,0.3365,-3.0625,1.295,-10.5175,-9.381590905210794,-17.002284439611024,-102.48993352632957
-0.2811,-0.1501,0.9173,-0.2502,0.761,0.3365,-2.9225,1.2075,-10.7975,-9.293304756239754,-16.83196133195654,-102.52640415857459
-0.2842,-0.1516,0.9137,-0.2476,0.7604,0.3332,-2.73,1.2425,-11.1912,-9.420312638071627,-17.051370873454953,-102.39139444763977
-0.2877,-0.15,0.9169,-0.2492,0.7606,0.3361,-3.5788,1.3825,-10.36,-9.291303021430156,-17.200678756848365,-102.35195780264469
-0.285,-0.1526,0.9173,-0.2492,0.7606,0.3361,-3.43,1.6187,-10.745,-9.444724071787604,-17.04454056370889,-102.44033361277143
-0.2837,-0.1526,0.9166,-0.2498,0.7609,0.3366,-2.6338,1.3825,-10.7012,-9.452166997395555,-16.980126586089163,-102.48606651348129
-0.2841,-0.1497,0.9156,-0.2498,0.7609,0.3366,-2.9838,1.435,-10.3512,-9.286071556480499,-17.024308385248528,-102.43341892944592
-0.2872,-0.1529,0.9164,-0.2491,0.7607,0.3365,-3.7538,1.6275,-10.4387,-9.472002010265058,-17.172880808694305,-102.38578743291319
-0.2835,-0.1536,0.9152,-0.2488,0.7606,0.3394,-3.5788,1.9425,-9.8875,-9.527147390461812,-16.993670774528784,-102.37688676752535
-0.2839,-0.1531,0.9215,-0.2488,0.7606,0.3394,-3.3863,1.6187,-10.36,-9.433311189617719,-16.907839712455406,-102.38250956612906
-0.278,-0.1487,0.9157,-0.2472,0.7611,0.3366,-3.2113,1.4612,-10.5962,-9.22422900142973,-16.688954923395123,-102.3596339028665
-0.2811,-0.1524,0.9151,-0.2472,0.7611,0.3366,-3.955,1.7762,-10.4562,-9.454646063792904,-16.85173306122463,-102.35451225317446
-0.2836,-0.1497,0.9151,-0.2495,0.7624,0.3395,-4.06,1.9337,-11.1387,-9.291051602024503,-17.00106171959456,-102.34046801374711
-0.285,-0.1522,0.9162,-0.249,0.7616,0.3398,-2.73,1.6538,-10.6487,-9.431550688685743,-17.05740481977047,-102.32506507302203
-0.2862,-0.1549,0.9224,-0.249,0.7616,0.3398,-2.8788,1.3037,-10.1675,-9.53256905768811,-17.01512051679314,-102.36247753944112
-0.2858,-0.1494,0.9197,-0.2474,0.7607,0.3361,-3.57,1.4088,-10.71,-9.227527796313177,-17.05130727392685,-102.26899777122487
-0.2838,-0.1491,0.9154,-0.2474,0.7607,0.3361,-3.2813,1.6887,-10.2725,-9.25101787889426,-17.015098671019697,-102.28687190660692
-0.2836,-0.1502,0.9183,-0.2477,0.7621,0.3364,-3.1763,1.3825,-10.5962,-9.289126759619531,-16.9523124758075,-102.31289235682962
-0.2828,-0.152,0.9176,-0.2482,0.7592,0.3398,-3.465,1.12,-10.6662,-9.405323309574134,-16.913266383027363,-102.34238504658481
-0.2854,-0.153,0.917,-0.2482,0.7592,0.3398,-3.1937,0.9275,-9.3887,-9.472289103604043,-17.061112614672737,-102.3074162093444
-0.2843,-0.1508,0.9165,-0.247,0.7601,0.3363,-2.8175,1.5137,-9.8437,-9.343986088279983,-17.01997963330498,-102.28268930848918
-0.2837,-0.1526,0.9192,-0.247,0.7601,0.3363,-2.8263,1.3387,-10.1937,-9.425728612343011,-16.93668599563873,-102.32833513027654
-0.2831,-0.1527,0.9155,-0.248,0.7605,0.3348,-3.0275,1.5137,-10.22,-9.46931885716298,-16.96173141358579,-102.42225459297858
-0.2825,-0.1527,0.9222,-0.2478,0.7602,0.3383,-4.0075,1.505,-9.695,-9.402027441698545,-16.820396616035083,-102.36815664833827
-0.2829,-0.1507,0.9194,-0.2478,0.7602,0.3383,-2.835,1.33,-10.7275,-9.308876120285605,-16.888610441038836,-102.32313788729698
-0.2815,-0.1524,0.9195,-0.2474,0.7603,0.3369,-2.9838,1.2512,-10.64,-9.410530564337156,-16.808219758544194,-102.37668268658864
-0.2839,-0.1518,0.916,-0.2474,0.7603,0.3369,-4.0338,1.155,-9.975,-9.409571650501436,-16.99566173943961,-102.31351028946183
-0.2866,-0.1497,0.9204,-0.2495,0.7586,0.3359,-3.535,1.3825,-10.3775,-9.238495562573963,-17.08185994052676,-102.42603373232492
-0.2838,-0.1512,0.9189,-0.2479,0.7605,0.3366,-3.1763,1.3912,-10.7625,-9.34372104978175,-16.95280847806457,-102.35269910101488
-0.2846,-0.1512,0.9107,-0.2479,0.7605,0.3366,-3.675,1.5925,-10.8413,-9.426406602824377,-17.12805669841291,-102.31168737895212
-0.2833,-0.1534,0.9166,-0.2514,0.7594,0.3365,-3.2638,1.155,-10.64,-9.500654011115495,-16.958696758867628,-102.62805971836256
-0.2829,-0.1523,0.9157,-0.2514,0.7594,0.3365,-3.6138,1.155,-9.905,-9.443184393297626,-16.949300885877328,-102.61682957895525
-0.2841,-0.1509,0.9193,-0.2489,0.7619,0.3362,-3.08,1.155,-10.2987,-9.322078425671362,-16.959201846680884,-102.40192766078789
-0.2835,-0.1526,0.9177,-0.2506,0.7592,0.3428,-3.1763,1.1375,-10.5525,-9.440767148107113,-16.948429377221274,-102.42855462173938
-0.286,-0.1522,0.9157,-0.2506,0.7592,0.3428,-2.7913,1.3212,-10.2287,-9.43696329329111,-17.118627535273454,-102.3697708643741
-0.2861,-0.154,0.9185,-0.2494,0.7614,0.3362,-2.9225,1.4875,-10.5525,-9.51775025857147,-17.07819127053796,-102.44638695647801
-0.2838,-0.1516,0.9112,-0.2494,0.7614,0.3362,-3.1238,1.575,-10.2725,-9.44618304919733,-17.078734247909246,-102.42958933666077
-0.2844,-0.1488,0.9168,-0.2505,0.7602,0.3386,-2.9925,1.3125,-10.3863,-9.219484380102942,-17.02643351082133,-102.42824206418648
-0.2831,-0.1518,0.9177,-0.2512,0.7608,0.3422,-3.3688,1.0412,-10.0187,-9.392024070408407,-16.93087774069923,-102.45805476683165
-0.2851,-0.1542,0.9123,-0.2512,0.7608,0.3422,-3.08,1.2512,-10.675,-9.593154869057736,-17.11979772566302,-102.4384324455004
-0.282,-0.1532,0.9159,-0.2489,0.7606,0.3374,-3.1325,1.3125,-10.395,-9.496034529830482,-16.89943312546517,-102.45087663420209
-0.284,-0.1508,0.9169,-0.2489,0.7606,0.3374,-3.4825,1.3737,-10.8413,-9.340050492001806,-16.991868507462975,-102.38298382237089
-0.2834,-0.151,0.9134,-0.249,0.761,0.3339,-3.4738,1.5312,-11.06,-9.386916589746946,-17.019210502198405,-102.46433701806629
-0.2831,-0.1512,0.9167,-0.2487,0.7612,0.3363,-3.675,1.295,-10.605,-9.366059574398323,-16.948710533398003,-102.40879400765614
-0.2834,-0.1487,0.921,-0.2487,0.7612,0.3363,-2.7037,1.5662,-10.1587,-9.172017048941068,-16.899112431580942,-102.3811666557786
-0.2847,-0.152,0.9145,-0.2477,0.7602,0.3369,-2.6338,1.3125,-10.0362,-9.43627049469092,-17.066484005873125,-102.31773182830553
-0.2849,-0.1521,0.9162,-0.2477,0.7602,0.3369,-2.835,1.2163,-10.9725,-9.425836328071128,-17.054310350450823,-102.32096092795695
-0.2818,-0.1533,0.9166,-0.2478,0.7602,0.3401,-3.255,1.0675,-10.255,-9.494586857343045,-16.874645400568955,-102.33228085444917
-0.2844,-0.152,0.9157,-0.2483,0.7591,0.3377,-3.115,1.4787,-10.6575,-9.424947368936545,-17.029432521546408,-102.36081727402157
-0.283,-0.1549,0.9137,-0.2483,0.7591,0.3377,-3.325,1.3125,-10.5087,-9.621413226744052,-16.9827549189073,-102.42226327624422
-0.2862,-0.1494,0.9175,-0.2499,0.76,0.3359,-2.7213,0.8925,-10.15,-9.249433238245263,-17.10847617615252,-102.42922668646911
-0.2852,-0.1502,0.9187,-0.2499,0.76,0.3359,-3.01,1.4262,-10.3337,-9.28515861837513,-17.03593107140924,-102.46306837756055
-0.2821,-0.1495,0.9105,-0.249,0.7618,0.3296,-3.2987,1.2687,-10.1675,-9.324409616999857,-17.00139763481983,-102.54193073525369
-0.2829,-0.1506,0.917,-0.2483,0.7602,0.3365,-3.2813,1.33,-10.6925,-9.32649249772446,-16.933916004904557,-102.3859318009735
-0.2826,-0.1523,0.9149,-0.2483,0.7602,0.3365,-3.7625,1.6362,-10.8062,-9.45084407108405,-16.94525691606468,-102.40918094529916
-0.2862,-0.1509,0.9117,-0.2481,0.7616,0.3366,-3.5088,1.33,-10.43,-9.398236150018018,-17.199713076377854,-102.28190943305155
-0.2828,-0.1508,0.9159,-0.2481,0.7616,0.3366,-3.2987,1.2512,-10.7187,-9.349802562956251,-16.952243709934418,-102.35564618739129
-0.2829,-0.1541,0.9179,-0.247,0.7601,0.3343,-3.3863,1.4525,-10.71,-9.529684446257914,-16.908094313911924,-102.4042930788153
-0.2823,-0.1542,0.9152,-0.2478,0.7622,0.3358,-3.6575,1.1987,-10.4387,-9.563729218865747,-16.91786780046152,-102.40324395407536
-0.2874,-0.1509,0.913,-0.2478,0.7622,0.3358,-3.6663,1.085,-10.7712,-9.385402782447937,-17.242833328209798,-102.2559212774879
-0.2831,-0.1485,0.9134,-0.2486,0.7613,0.3359,-3.5525,1.3037,-10.6837,-9.234688613466771,-17.017504393964956,-102.35971032198825
-0.281,-0.1509,0.9184,-0.2486,0.7613,0.3359,-3.7713,1.0412,-10.2637,-9.330518145709622,-16.806870500742686,-102.4488934573072
-0.2826,-0.1526,0.9164,-0.2484,0.7603,0.3388,-3.3425,1.4962,-10.7975,-9.453906862032309,-16.915755657448518,-102.37328236465393
-0.2838,-0.15,0.9174,-0.2485,0.7589,0.3374,-2.9838,1.0675,-10.5437,-9.286421771995895,-16.97541595373329,-102.37015213133719
-0.286,-0.1543,0.9135,-0.2485,0.7589,0.3374,-3.115,1.3562,-9.9663,-9.586640279405191,-17.150186029539302,-102.38049982097546
-0.2857,-0.1536,0.9203,-0.2477,0.7614,0.3371,-3.15,1.2775,-10.2375,-9.475719553693342,-17.028898779242255,-102.32349422590839
-0.2846,-0.1508,0.9188,-0.2477,0.7614,0.3371,-3.08,1.4962,-10.4912,-9.321072468523889,-16.997450954057946,-102.29774786720647
-0.2833,-0.1512,0.9195,-0.251,0.7604,0.3385,-3.2813,1.89,-10.3162,-9.3379489134253,-16.91309947849715,-102.52422174630998
-0.282,-0.1511,0.9176,-0.253,0.7615,0.337,-3.185,1.2512,-10.2287,-9.350873324989664,-16.870766406261037,-102.68987096416687
-0.2854,-0.1496,0.9154,-0.253,0.7615,0.337,-2.94,1.365,-10.6225,-9.281730044819696,-17.0954761381933,-102.59908730952813
-0.2841,-0.1504,0.9199,-0.2487,0.7605,0.3378,-2.9313,1.1462,-10.6138,-9.285468501519377,-16.955314487340132,-102.36468673372777
-0.2802,-0.152,0.9136,-0.2487,0.7605,0.3378,-3.4738,1.6362,-10.4912,-9.445654697156863,-16.836596139649227,-102.43829600944936
-0.2845,-0.153,0.9152,-0.2491,0.7606,0.3424,-3.1588,1.925,-10.745,-9.490634943911338,-17.039096553038252,-102.30330555093744
-0.284,-0.1538,0.9132,-0.2502,0.7601,0.3369,-3.0625,1.5137,-10.6837,-9.55979769474883,-17.04915280768329,-102.5158033933405
-0.2852,-0.152,0.9171,-0.2502,0.7601,0.3369,-3.6312,1.8812,-10.465,-9.411012937807614,-17.055540245216317,-102.48039015605025
-0.2801,-0.1496,0.9211,-0.247,0.7599,0.3359,-3.3863,1.1462,-10.1587,-9.225570757865903,-16.71860535215368,-102.36769844440572
-0.28,-0.1499,0.9153,-0.247,0.7599,0.3359,-2.8875,0.945,-10.43,-9.300661110688301,-16.79598301171649,-102.35504673503021
-0.283,-0.1513,0.9151,-0.2482,0.7617,0.3465,-3.3425,1.365,-10.6837,-9.387972604161911,-16.962213723856877,-102.14535322502518
-0.2828,-0.1527,0.9165,-0.2511,0.7593,0.3368,-3.3513,1.2163,-10.7625,-9.459105550651408,-16.9297106230949,-102.60166492105601
-0.2847,-0.153,0.9199,-0.2511,0.7593,0.3368,-3.0975,1.82,-10.57,-9.4431699395565,-16.975703699066553,-102.58286626442089
-0.2849,-0.1549,0.9138,-0.2499,0.7609,0.3371,-2.5113,1.68,-10.7012,-9.620428166142009,-17.083339655202845,-102.48484491932123
-0.2866,-0.1518,0.9162,-0.2499,0.7609,0.3371,-3.5525,1.225,-10.4387,-9.408075599854845,-17.148450094781133,-102.41604549797682
-0.2843,-0.1491,0.9191,-0.2468,0.7602,0.3341,-3.2375,1.3912,-10.255,-9.214949865691246,-16.984523228669087,-102.3006644078346
-0.2807,-0.1518,0.9194,-0.2493,0.7617,0.3361,-3.0363,1.4262,-10.5875,-9.374996870236853,-16.770868900296588,-102.50665900912792
-0.2843,-0.1507,0.9185,-0.2493,0.7617,0.3361,-3.2462,1.4875,-10.1412,-9.317749152798061,-16.978082953027247,-102.42313866412532
-0.2847,-0.1524,0.9188,-0.2499,0.7597,0.3362,-3.1675,1.7413,-10.6138,-9.417576282946929,-16.99693750847533,-102.50124525300058
-0.2849,-0.1527,0.9116,-0.2499,0.7597,0.3362,-2.9138,1.6013,-10.8238,-9.508974890056788,-17.126739508195378,-102.47910118532339
-0.2852,-0.1501,0.9143,-0.2488,0.7615,0.3391,-3.5875,1.5137,-10.3863,-9.323502709011384,-17.109569012151887,-102.28807715131761
-0.2849,-0.1504,0.917,-0.2498,0.7608,0.3362,-3.3425,1.0325,-10.4387,-9.314351604931058,-17.047077726029112,-102.44340418754089
-0.286,-0.1521,0.919,-0.2498,0.7608,0.3362,-3.78,1.785,-10.4825,-9.397400332829159,-17.06743876037599,-102.45486611675744
-0.2817,-0.1513,0.9165,-0.2486,0.7599,0.332,-3.2113,1.5575,-10.2725,-9.37415886503348,-16.87675908265144,-102.5375418415636
-0.2841,-0.15,0.9109,-0.2486,0.7599,0.332,-3.2813,1.4787,-10.6487,-9.35116271821733,-17.09818923107338,-102.45792101648868
-0.2815,-0.1525,0.9195,-0.2502,0.7613,0.3387,-2.695,1.0762,-10.4038,-9.416684139007627,-16.8145240308352,-102.50908681637992
-0.2818,-0.1529,0.9165,-0.249,0.7601,0.3371,-2.9838,1.1462,-10.7712,-9.47131138526804,-16.869834050403274,-102.47092593669853
-0.2854,-0.1511,0.9187,-0.249,0.7601,0.3371,-3.4388,1.3912,-10.5087,-9.340229466140533,-17.03681509807091,-102.3865607126572
-0.2827,-0.153,0.9189,-0.2496,0.7602,0.3368,-3.6138,1.4787,-11.06,-9.452943879117274,-16.886546186373295,-102.50788556663845
-0.2849,-0.1529,0.9189,-0.2496,0.7602,0.3359,-3.8763,1.6712,-10.535,-9.447168948775587,-17.001890174834898,-102.48665532702802
-0.2854,-0.1514,0.9183,-0.2502,0.7614,0.3359,-3.3863,1.715,-10.7625,-9.362335657029842,-17.046770484753473,-102.47888989351937
-0.2852,-0.151,0.9145,-0.2486,0.76,0.3354,-3.6225,1.47,-10.3863,-9.375908145742542,-17.10124147758707,-102.38786246937688
-0.2848,-0.1532,0.9123,-0.2486,0.76,0.3354,-3.8588,1.4525,-10.185,-9.53219434001684,-17.11155054328793,-102.42045444774489
-0.2857,-0.1498,0.9212,-0.2484,0.7582,0.3367,-3.6575,1.8025,-10.9112,-9.236976949550167,-17.023226908422757,-102.3620635912301
-0.2818,-0.149,0.921,-0.2484,0.7605,0.3364,-3.1937,1.4,-10.6138,-9.189843726944261,-16.813535716006168,-102.40102902846519
-0.2835,-0.1502,0.9144,-0.2483,0.7605,0.3364,-3.465,1.6887,-10.0625,-9.327804937879,-17.00461241820386,-102.35938532177641
-0.2835,-0.1531,0.9191,-0.2503,0.7603,0.3366,-3.4213,1.2337,-10.0887,-9.456949267717103,-16.925567279831697,-102.54409474274671
-0.2856,-0.1543,0.9159,-0.2503,0.7603,0.3366,-4.305,1.4,-10.1675,-9.562461147091012,-17.08692162478657,-102.51379755999929
-0.2843,-0.1503,0.9195,-0.2487,0.7616,0.3353,-3.0538,2.2225,-10.5525,-9.284063390813907,-16.972897622518,-102.40038709678424
-0.2817,-0.151,0.9173,-0.2474,0.7612,0.3349,-2.9838,1.9075,-10.0887,-9.347671440393142,-16.861511197315703,-102.37934092517276
-0.2819,-0.1513,0.9145,-0.2474,0.7612,0.3349,-3.3775,1.5662,-10.2637,-9.394123087846696,-16.91392742816671,-102.37123653749981
-0.2838,-0.1516,0.9143,-0.2506,0.7589,0.3376,-3.3688,1.6625,-10.9987,-9.414503482268096,-17.022083259346807,-102.5152399656816
-0.2881,-0.1532,0.919,-0.2506,0.7589,0.3376,-3.7362,1.5837,-10.92,-9.464221567055656,-17.177813756015883,-102.47572050754201
-0.2833,-0.1549,0.9234,-0.2507,0.7622,0.3339,-3.535,1.4437,-10.5262,-9.522539504870748,-16.84533436000712,-102.64960466335432
-0.2829,-0.1526,0.9177,-0.2498,0.7604,0.3378,-2.8,1.8812,-10.5525,-9.441259605281928,-16.912037028787058,-102.48369555992016
-0.2838,-0.1491,0.9107,-0.2498,0.7604,0.3378,-3.5088,1.4437,-10.1587,-9.298339973766106,-17.088644378454337,-102.39321898589846
-0.2857,-0.1538,0.9192,-0.2496,0.7609,0.3385,-2.8438,1.3825,-10.675,-9.498214884152755,-17.044488074253817,-102.42084156693046
-0.2868,-0.1529,0.9193,-0.2496,0.7609,0.3385,-3.4913,1.085,-9.9225,-9.443253669362605,-17.103766559053057,-102.38812852272837
-0.2855,-0.1514,0.9154,-0.2478,0.7602,0.3359,-2.765,1.2687,-9.905,-9.391385993161485,-17.103422045603065,-102.32587998838319
-0.2873,-0.151,0.9171,-0.248,0.7606,0.333,-3.2288,1.5575,-10.6662,-9.34993277620706,-17.17446721575696,-102.36558236919676
-0.2824,-0.1511,0.9168,-0.248,0.7606,0.333,-2.8,1.5312,-10.6662,-9.35889839684503,-16.91406155328402,-102.453993016341
-0.2858,-0.1514,0.9177,-0.2476,0.7604,0.3372,-3.605,1.505,-10.5,-9.368116381137002,-17.075677266675754,-102.28394471733085
-0.2858,-0.1529,0.9193,-0.2476,0.7604,0.3372,-3.605,1.3125,-9.9925,-9.442933647103768,-17.050340970059327,-102.31087991844889
-0.2852,-0.1528,0.9188,-0.2507,0.7619,0.3362,-3.43,1.3037,-10.4212,-9.442098420769566,-17.0253770924827,-102.52426356001509
-0.2806,-0.1495,0.9157,-0.2496,0.7603,0.3394,-2.9925,1.015,-10.36,-9.272894060863639,-16.833025342913842,-102.42782228236435
-0.2832,-0.1491,0.9185,-0.2496,0.7603,0.3394,-3.2987,1.3562,-10.4912,-9.220518981590173,-16.92437162515732,-102.3833345474593
-0.2866,-0.1522,0.919,-0.2489,0.7589,0.3373,-3.325,1.7413,-10.6837,-9.403223208081224,-17.095864063289294,-102.38453818913054
-0.2848,-0.1536,0.919,-0.2489,0.7589,0.3373,-3.4475,1.3825,-10.8062,-9.488396555453804,-16.999563922652126,-102.43755600031112
-0.2821,-0.1523,0.9149,-0.2482,0.7608,0.337,-3.6925,1.5225,-10.5612,-9.45124251587719,-16.91998472933478,-102.39395506850867
-0.2853,-0.1503,0.9208,-0.2491,0.76,0.3382,-3.5263,1.645,-9.9925,-9.27094359316207,-17.00056901314248,-102.36701465610238
-0.2828,-0.1512,0.9163,-0.2491,0.76,0.3382,-3.8588,1.33,-10.01,-9.369780349645845,-16.93829627885931,-102.41097046597788
-0.2826,-0.1521,0.9184,-0.2482,0.7601,0.3363,-3.045,1.2775,-10.64,-9.403551987898389,-16.88855129463671,-102.41644476006601
-0.2849,-0.1521,0.9123,-0.2482,0.7601,0.3363,-2.905,1.2163,-11.0687,-9.465225656337834,-17.11337948712657,-102.35540313848118
-0.2832,-0.1486,0.9168,-0.2481,0.7596,0.3362,-3.0013,1.3475,-10.675,-9.20738239360987,-16.962509547224396,-102.35114598163076
-0.283,-0.1527,0.9202,-0.2474,0.7616,0.3355,-3.0625,1.785,-10.6662,-9.421402582631325,-16.88016400486236,-102.37188004214757
-0.2831,-0.1516,0.9182,-0.2474,0.7616,0.3355,-3.2462,1.6712,-10.4737,-9.375390760904835,-16.91860659154133,-102.34793464598657
-0.2828,-0.1526,0.9154,-0.2498,0.7607,0.3362,-3.535,1.4,-10.4038,-9.464133354045721,-16.946671803947442,-102.50953012405326
-0.2853,-0.1541,0.9159,-0.2498,0.7607,0.3362,-3.395,1.3562,-10.9112,-9.550342806054562,-17.071782124215055,-102.48810760150883
-0.2845,-0.1523,0.9162,-0.2503,0.7612,0.3346,-3.0888,1.8987,-10.2637,-9.438258097598023,-17.03211290866582,-102.53896266124255
-0.2822,-0.1522,0.9229,-0.25,0.7605,0.3442,-3.4125,1.6625,-10.8587,-9.364821755646043,-16.796369572214605,-102.37987150070813
-0.2852,-0.1521,0.9163,-0.25,0.7605,0.3442,-3.9113,1.5837,-10.4737,-9.424652752327583,-17.060406934583277,-102.300570710551
-0.2851,-0.1498,0.9138,-0.2488,0.761,0.3364,-3.2375,1.26,-10.22,-9.310022425213901,-17.111124584122496,-102.34898946658582
-0.2845,-0.1515,0.9152,-0.2488,0.761,0.3364,-2.94,1.6013,-11.3837,-9.399148206533592,-17.05206592351621,-102.38946476305877
-0.2858,-0.153,0.9215,-0.2501,0.7614,0.3385,-3.01,1.6975,-10.2987,-9.426960651018142,-17.01319637907508,-102.44140226607914
-0.2822,-0.1531,0.9209,-0.2496,0.7602,0.3378,-3.745,1.33,-10.255,-9.439085412459848,-16.825693596916047,-102.5028831618901
-0.2825,-0.1502,0.9182,-0.2496,0.7602,0.3378,-3.3163,1.4437,-11.025,-9.290580666357409,-16.887904124008802,-102.44725442382327
-0.2843,-0.1531,0.9188,-0.2511,0.7593,0.337,-2.8875,1.2862,-10.8413,-9.459882933944444,-16.970388317148682,-102.58348733878286
-0.2813,-0.1537,0.9175,-0.2511,0.7593,0.337,-3.36,1.365,-10.4912,-9.509787893280118,-16.82892738476094,-102.64235542843848
-0.2846,-0.1524,0.9164,-0.2482,0.7588,0.3421,-3.5963,1.7237,-9.9488,-9.442210045554242,-17.026197683596664,-102.265416926518
-0.2858,-0.1519,0.9195,-0.2492,0.7585,0.3379,-3.4475,1.3212,-10.0887,-9.380607134043318,-17.048210024077104,-102.40705196305139
-0.2823,-0.152,0.9143,-0.2492,0.7585,0.3379,-3.675,1.505,-10.0712,-9.438804240745043,-16.943168605716405,-102.4556292714756
-0.2855,-0.1506,0.9218,-0.2522,0.7607,0.3367,-3.22,1.365,-10.43,-9.279172796457116,-16.99499556455686,-102.59690028874891
-0.2843,-0.1523,0.9176,-0.2522,0.7607,0.3367,-3.1937,1.75,-10.7275,-9.423485261748473,-16.995674458628656,-102.62969374169988
-0.2869,-0.1545,0.9143,-0.2494,0.7605,0.333,-3.7975,1.4437,-10.0012,-9.59091909773602,-17.186102711018226,-102.50794337286948
-0.2857,-0.1515,0.9156,-0.2496,0.7586,0.3378,-3.2987,1.5662,-10.5087,-9.395815362378025,-17.113380985307074,-102.41753359387492
-0.2822,-0.1522,0.9153,-0.2496,0.7586,0.3378,-3.0975,1.4962,-10.8062,-9.440892762413435,-16.92278639711261,-102.4906094776265
-0.2807,-0.1509,0.9234,-0.2477,0.7606,0.337,-3.465,1.2512,-9.9663,-9.28150513381482,-16.706604587238505,-102.39619766892638
-0.282,-0.1505,0.9181,-0.2477,0.7606,0.337,-3.675,1.4962,-10.7537,-9.309373289219728,-16.857640171327464,-102.34979007360505
-0.2854,-0.1534,0.914,-0.2482,0.7618,0.3406,-4.1125,1.3562,-10.5262,-9.526831684520177,-17.10785305020507,-102.25664045196432
-0.2879,-0.1524,0.9154,-0.2483,0.7611,0.3382,-4.1388,1.1462,-10.2112,-9.45235593496961,-17.231805536330395,-102.26822662381426
-0.2842,-0.1511,0.9058,-0.2483,0.7611,0.3382,-3.465,1.3825,-10.0625,-9.470483289959082,-17.197349754245998,-102.28521255296248
-0.2849,-0.1523,0.9202,-0.2505,0.761,0.3358,-3.4213,0.9975,-10.4038,-9.397868648738257,-16.99200733360914,-102.53312402439826
-0.283,-0.1541,0.9185,-0.2505,0.761,0.3358,-3.85,1.2425,-9.8437,-9.523705934220974,-16.904986089383126,-102.58809695036747
-0.2843,-0.1521,0.9172,-0.249,0.7614,0.3341,-3.7538,1.2775,-10.1237,-9.415983806517506,-16.99995575608123,-102.467389084225
-0.2835,-0.1502,0.915,-0.247,0.7615,0.3362,-3.3075,1.155,-10.1675,-9.32236636845629,-17.000680836457136,-102.27005122724321
-0.2812,-0.1518,0.9177,-0.247,0.7615,0.3362,-3.9988,1.6187,-9.5025,-9.392276759897067,-16.826365454787126,-102.34330280646981
-0.284,-0.154,0.9148,-0.2496,0.7585,0.3365,-3.115,1.61,-10.185,-9.555335299412318,-17.015346959132373,-102.51221090366923
-0.2828,-0.1533,0.9151,-0.2496,0.7585,0.3365,-3.815,1.2163,-10.3687,-9.510147187419046,-16.952741748276015,-102.52481840579524
-0.2855,-0.1516,0.9187,-0.2488,0.758,0.3383,-3.0275,1.26,-10.9287,-9.370609076160944,-17.04354905016012,-102.37669084374626
-0.2884,-0.1525,0.9142,-0.2493,0.7625,0.337,-3.4563,1.2775,-10.4038,-9.470207045571861,-17.276820273069507,-102.33249121575028
-0.2824,-0.1541,0.9187,-0.2493,0.7625,0.337,-3.2375,1.1987,-10.2112,-9.521853808103193,-16.877976121739017,-102.47807434753874
-0.2851,-0.1534,0.9137,-0.2494,0.7609,0.337,-3.08,1.1462,-10.8413,-9.53041835769059,-17.097119703882893,-102.42861188855845
-0.2847,-0.1526,0.9137,-0.2494,0.7609,0.337,-3.2025,1.9425,-10.4387,-9.48176166771265,-17.08436889784827,-102.42402839528684
-0.2805,-0.153,0.9194,-0.248,0.7623,0.3394,-3.8675,1.1725,-10.5962,-9.44825628969181,-16.75981706429073,-102.36482579126081
-0.2824,-0.1522,0.916,-0.2478,0.7606,0.3366,-3.57,1.505,-10.8413,-9.433954062039703,-16.91097414227766,-102.37559935690004
-0.283,-0.1488,0.9145,-0.2478,0.7606,0.3366,-3.9638,1.7937,-10.2375,-9.242185844507095,-16.982486891367625,-102.31038837523086
-0.286,-0.1378,0.9101,-0.2498,0.7605,0.3375,-3.0888,1.365,-10.43,-8.611420434933665,-17.251709250007472,-102.18793460468504
-0.2868,-0.1199,0.9153,-0.2498,0.7605,0.3375,-3.7188,1.3737,-10.4038,-7.465809954722523,-17.259026380362386,-101.92977713971094
-0.2755,-0.141,0.9163,-0.2489,0.761,0.3334,-3.1763,1.8637,-10.7887,-8.744890609731344,-16.573109958831605,-102.4792786267928
-0.2771,-0.1764,0.9189,-0.2494,0.7608,0.336,-3.8325,2.1438,-10.815,-10.861570325863351,-16.49907830986484,-102.93540040326761
-0.3206,-0.172,0.9076,-0.2494,0.7608,0.336,-3.9463,2.135,-10.7012,-10.73123374391062,-19.05407068868389,-102.11147015091142
-0.3021,-0.1368,0.9168,-0.247,0.7626,0.337,-2.6425,1.6625,-10.5525,-8.492262693811076,-18.083296798419184,-101.69614086634678
-0.2699,-0.1351,0.9312,-0.247,0.7626,0.337,-2.24,1.2425,-10.3337,-8.255548911079503,-16.07058245873157,-102.33752181593893
-0.2466,-0.1464,0.927,-0.2494,0.7599,0.3323,-2.8087,1.015,-10.0887,-8.972765615501817,-14.764687001573988,-103.17977402945814
-0.2664,-0.1439,0.9118,-0.2492,0.761,0.3373,-3.5963,1.4262,-10.0537,-8.968442360459902,-16.05562167266157,-102.61152134389154
-0.3104,-0.1335,0.9145,-0.2492,0.761,0.3373,-3.7713,2.6863,-10.0187,-8.307084031844088,-18.482077346743843,-101.6278246393147
-0.2991,-0.1571,0.9149,-0.2476,0.7605,0.3361,-3.2638,2.135,-10.71,-9.7398649434992,-17.879471283007856,-102.14518087506305
-0.2798,-0.1787,0.9155,-0.2476,0.7605,0.3361,-3.36,1.1287,-10.2375,-11.041701707233264,-16.734591368101746,-102.80158243019179
-0.2729,-0.1871,0.9155,-0.249,0.7614,0.3294,-3.255,1.365,-10.1325,-11.549186726543223,-16.294945022683695,-103.25592718222995
-0.2836,-0.1604,0.915,-0.2486,0.7606,0.3369,-2.975,1.7675,-10.395,-9.946898443656373,-16.95499344599344,-102.51664803740789
-0.2852,-0.1378,0.9238,-0.2486,0.7606,0.3369,-3.185,1.1287,-10.43,-8.487649055663542,-16.979081438490887,-102.18862391161238
-0.2727,-0.1574,0.9142,-0.2478,0.7602,0.3362,-3.2638,0.6913,-10.605,-9.76582487149963,-16.400220531210426,-102.63088016530925
-0.2726,-0.1507,0.9224,-0.2478,0.7602,0.3362,-3.9288,1.4088,-10.15,-9.280097798928926,-16.264638336079496,-102.56520657790607
-0.2799,-0.1356,0.9206,-0.2497,0.7587,0.3399,-3.8937,2.2662,-9.87,-8.381362765858876,-16.72548404647849,-102.27594318639652
-0.2849,-0.1429,0.9123,-0.2505,0.7605,0.3374,-2.8963,1.855,-10.675,-8.901027510575979,-17.132776722904072,-102.33996242574199
-0.2934,-0.1686,0.9094,-0.2505,0.7605,0.3374,-2.4938,1.6538,-10.9462,-10.49927749591134,-17.58533584745216,-102.56534579801018
-0.2928,-0.1607,0.9199,-0.2465,0.7604,0.336,-3.5875,1.2163,-9.8437,-9.910623689777706,-17.4142418998966,-102.25991686164556
-0.2836,-0.1602,0.9196,-0.2465,0.7604,0.336,-3.57,1.7762,-10.2112,-9.88217849947332,-16.916329133757927,-102.41225812463783
-0.2779,-0.1534,0.9146,-0.2494,0.7602,0.3356,-2.7475,1.05,-10.5612,-9.522119040096523,-16.688901728880737,-102.59982140927579
-0.2805,-0.1459,0.9148,-0.2503,0.7613,0.3373,-3.0275,0.4725,-10.6487,-9.06282560480248,-16.841330043462232,-102.45462087326094
-0.281,-0.1423,0.9248,-0.2503,0.7613,0.3373,-3.535,1.7237,-10.3687,-8.748334391475025,-16.719833977459547,-102.4287691893888
-0.2801,-0.1477,0.9171,-0.2486,0.7604,0.3371,-2.8788,2.0213,-10.2725,-9.148005920088865,-16.77788925511845,-102.39976478619555
-0.283,-0.1538,0.9128,-0.2486,0.7604,0.3371,-2.7562,1.4175,-10.535,-9.563058492797104,-16.99268894404032,-102.42121257754644
-0.2872,-0.1555,0.9155,-0.2478,0.7603,0.3401,-3.675,1.8112,-10.8675,-9.639644661178558,-17.179515184785213,-102.26181192933139
-0.2883,-0.1601,0.9153,-0.2487,0.7603,0.3354,-3.4125,1.68,-10.7187,-9.920845096890966,-17.235591472868897,-102.47274278706584
-0.2898,-0.1562,0.9128,-0.2487,0.7603,0.3354,-3.185,1.225,-10.6312,-9.711020976751634,-17.372317059447745,-102.38039909338994
-0.2877,-0.1498,0.9154,-0.2478,0.7603,0.3363,-3.01,0.84,-10.255,-9.294776973436262,-17.23634972366717,-102.25219537274452
-0.2818,-0.1472,0.9187,-0.2478,0.7603,0.3363,-2.5638,1.155,-10.465,-9.103395611171335,-16.862397966316795,-102.33307610087283
-0.2791,-0.145,0.9187,-0.2484,0.761,0.3461,-3.6925,1.4,-10.2287,-8.969434183729856,-16.7087091877791,-102.17093288506268
-0.2813,-0.1361,0.9195,-0.2511,0.7594,0.3371,-4.165,1.6625,-10.3687,-8.420871282807923,-16.833269112025256,-102.39531668426483
-0.2788,-0.1538,0.9121,-0.2511,0.7594,0.3371,-3.2638,1.3125,-10.71,-9.568456462142096,-16.77539209814489,-102.66855985930677
-0.2894,-0.188,0.9137,-0.251,0.7606,0.3361,-3.5263,1.4962,-10.7625,-11.621670745095376,-17.22106479061556,-102.99772852623832
-0.3016,-0.1803,0.9193,-0.251,0.7606,0.3361,-3.4125,1.5225,-10.6225,-11.097721231661769,-17.82564834521878,-102.69549554171046
-0.3051,-0.1367,0.9162,-0.249,0.7626,0.3388,-2.7738,0.7525,-9.6512,-8.49252524241093,-18.217239774218815,-101.72339343286133
-0.2758,-0.1257,0.915,-0.249,0.7606,0.3367,-2.9663,0.56,-10.22,-7.823809144163784,-16.675681620106698,-102.19545058388695
-0.2645,-0.1616,0.9215,-0.249,0.7606,0.3367,-2.9313,1.2425,-9.8787,-9.941391571740448,-15.81463333450149,-102.9144634518327
-0.296,-0.1448,0.9149,-0.2508,0.7622,0.3365,-2.695,2.5463,-10.7887,-8.995855344267612,-17.658696863808014,-102.19099667855508
-0.3156,-0.1512,0.8999,-0.2508,0.7622,0.3365,-2.66,2.3363,-10.7625,-9.536346172995106,-19.031874173128063,-101.87895759118982
-0.3028,-0.1682,0.922,-0.2488,0.759,0.3348,-3.1675,1.155,-11.025,-10.336776102542228,-17.940346606324713,-102.39892206821702
-0.2758,-0.1671,0.9445,-0.25,0.7595,0.3365,-2.7738,0.8225,-10.7625,-10.033640383523256,-16.101311182326842,-102.93638669357819
-0.2584,-0.1312,0.8976,-0.25,0.7595,0.3365,-3.3863,1.4787,-10.22,-8.320118568495198,-15.906124774321956,-102.6309896047751
-0.2891,-0.1678,0.9191,-0.2515,0.7594,0.3362,-3.395,2.17,-10.9375,-10.341550588730406,-17.151829869798416,-102.75718731424278
-0.3217,-0.1671,0.9145,-0.2515,0.7594,0.3362,-4.3225,1.89,-10.4387,-10.354977478794845,-19.02558653698616,-102.17184091639746
-0.3079,-0.1469,0.9379,-0.2487,0.7594,0.337,-3.4475,1.0237,-10.0275,-8.905289870628383,-18.002703753817972,-101.96943392457571
-0.2646,-0.1324,0.9021,-0.2496,0.7616,0.3358,-3.6138,1.2075,-10.9812,-8.3509787936652,-16.240514412703465,-102.50440924413698
-0.2724,-0.1721,0.9187,-0.2496,0.7616,0.3358,-3.6138,1.9337,-10.4387,-10.604683012328339,-16.247802140133853,-102.96066570924144
-0.3007,-0.1561,0.9235,-0.2492,0.7604,0.3368,-3.675,1.9075,-10.2812,-9.596555456742216,-17.749394753390728,-102.21802904924881
-0.3026,-0.1348,0.916,-0.2492,0.7604,0.3368,-3.1412,1.8025,-10.045,-8.374658480078818,-18.087665107994088,-101.82369519308763
-0.286,-0.151,0.9117,-0.2487,0.7605,0.3343,-2.8788,1.89,-10.64,-9.401694902078786,-17.22519040774663,-102.38892741968338
-0.2757,-0.165,0.9162,-0.2478,0.7614,0.3372,-3.5875,1.0937,-10.395,-10.207075686187247,-16.519702196107467,-102.65550570810191
-0.2836,-0.1335,0.921,-0.2478,0.7614,0.3372,-3.8325,1.2687,-10.2462,-8.252468555357924,-16.934597397743396,-102.07909492078706
-0.2822,-0.1461,0.9108,-0.2484,0.7599,0.3385,-3.3775,0.84,-10.745,-9.11097671152463,-17.00790532009231,-102.27826843680806
-0.2852,-0.1724,0.9112,-0.2484,0.7599,0.3385,-3.1675,1.19,-11.2788,-10.709840434489493,-17.09190428842337,-102.61457151797799
-0.289,-0.1694,0.9148,-0.2494,0.7622,0.3406,-4.095,1.3387,-10.2462,-10.491567410570836,-17.25140281137795,-102.5063645845288
-0.2926,-0.1428,0.9258,-0.2492,0.7597,0.3372,-2.4938,1.3125,-9.8787,-8.772710946793486,-17.3435513433093,-102.17209325302251
-0.2694,-0.1543,0.9123,-0.2492,0.7597,0.3372,-1.7675,1.7062,-10.0012,-9.597730585566897,-16.269175493264097,-102.71675606408083
-0.2774,-0.1626,0.9126,-0.2473,0.7602,0.3378,-3.3338,1.6887,-10.3162,-10.101264947472584,-16.647486833672065,-102.55085020635379
-0.2947,-0.1502,0.9228,-0.2473,0.7602,0.3378,-4.2613,1.225,-10.29,-9.24681674605197,-17.468397567013714,-102.09039624359922
-0.2973,-0.1451,0.9231,-0.2462,0.7611,0.3369,-2.8612,0.6737,-10.4387,-8.93386991748057,-17.643402175349408,-101.9050570747129
-0.2847,-0.1569,0.916,-0.2502,0.7604,0.338,-2.1525,1.5837,-10.395,-9.717839294487712,-17.051775163794055,-102.52917750626968
-0.2794,-0.1473,0.9082,-0.2502,0.7604,0.338,-2.835,1.1025,-10.2987,-9.213762568050054,-16.89715848934911,-102.46159812512711
-0.2881,-0.148,0.9422,-0.2488,0.7613,0.3366,-4.3663,1.1638,-10.7362,-8.927736082007984,-16.810792866240725,-102.35515398289097
-0.2862,-0.1432,0.9032,-0.2488,0.7613,0.3366,-3.2462,1.4,-11.3225,-9.008907451008145,-17.360230957708847,-102.1858902994623
-0.2916,-0.1736,0.9051,-0.2486,0.7592,0.3366,-3.115,2.1788,-11.0162,-10.853041787749362,-17.55130018321223,-102.57269319233147
-0.2821,-0.1399,0.9227,-0.2498,0.7607,0.3369,-2.4588,1.645,-10.78,-8.627008749099783,-16.842375716477616,-102.35017723435145
-0.2838,-0.1477,0.9159,-0.2498,0.7607,0.3369,-3.1238,1.2687,-10.4038,-9.159462019744364,-17.00396367404345,-102.4063998714392
-0.2776,-0.1518,0.9101,-0.249,0.761,0.3383,-3.675,1.68,-10.08,-9.468705567340821,-16.753011082846434,-102.47452922566593
-0.2821,-0.1603,0.9201,-0.249,0.761,0.3392,-3.4738,1.4,-10.5787,-9.881869187885203,-16.80509658356388,-102.52664463588204
-0.2893,-0.1496,0.9139,-0.2474,0.7607,0.3392,-3.6663,1.3475,-10.5262,-9.297968267692003,-17.3314458629445,-102.11988127779335
-0.2888,-0.1476,0.9187,-0.2498,0.7598,0.3369,-3.71,1.61,-10.3075,-9.12766534048262,-17.245964388493288,-102.33247989594388
-0.2779,-0.1503,0.9161,-0.2498,0.7598,0.3369,-3.3863,1.7237,-10.1412,-9.316762711057642,-16.68366398327938,-102.56299178011751
-0.2783,-0.1527,0.9171,-0.251,0.761,0.3372,-3.325,1.8812,-10.5525,-9.452868566900342,-16.664939337749423,-102.65025653948
-0.2887,-0.1524,0.912,-0.251,0.7586,0.3374,-2.7388,1.61,-10.3337,-9.486687786358994,-17.318232023588177,-102.46406443791922
-0.2915,-0.1559,0.9202,-0.2486,0.7586,0.3374,-3.0013,1.47,-10.9112,-9.615409915236599,-17.34420714889068,-102.33631058199828
-0.2803,-0.1499,0.9156,-0.2479,0.7599,0.3361,-3.01,1.47,-10.7362,-9.298631836132614,-16.827394460589808,-102.40467199154662
-0.2802,-0.1524,0.9118,-0.2479,0.7599,0.3361,-3.7888,1.2512,-10.2987,-9.488345980035024,-16.86094209419077,-102.43056170577559
-0.2873,-0.1509,0.9217,-0.2505,0.7604,0.3398,-3.7538,1.0762,-10.045,-9.298400364514498,-17.091020784697157,-102.39304757110364
-0.2877,-0.1542,0.9174,-0.2486,0.7619,0.3366,-3.1412,1.4262,-10.7275,-9.54070365468698,-17.18204015506652,-102.35095918117507
-0.2831,-0.1543,0.9154,-0.2486,0.7619,0.3366,-3.1412,1.5575,-10.9725,-9.567781817314852,-16.966794325737574,-102.42860840156723
-0.2826,-0.1516,0.917,-0.2501,0.761,0.3374,-3.885,1.575,-10.0712,-9.387772022761737,-16.913738571584176,-102.49352363314085
-0.2811,-0.1518,0.9201,-0.2501,0.761,0.3374,-3.4475,1.5312,-10.3162,-9.36843252621408,-16.779102149730676,-102.53359496592378
-0.2862,-0.1537,0.9143,-0.249,0.7625,0.3362,-2.24,1.2337,-11.1125,-9.542156994964502,-17.143309267993935,-102.38880110825413
-0.2818,-0.1523,0.9177,-0.2482,0.7602,0.3363,-2.8263,1.61,-10.6925,-9.42312531847964,-16.862346705361684,-102.43038624272882
-0.287,-0.1529,0.9114,-0.2482,0.7602,0.3363,-3.4563,1.6013,-10.255,-9.523231118967217,-17.24023530796252,-102.32527622975358
-0.2834,-0.1514,0.9157,-0.2467,0.7586,0.3366,-3.3425,1.0675,-10.64,-9.38856827007072,-16.987953499040415,-102.29620454946378
-0.284,-0.153,0.9181,-0.2467,0.7586,0.3366,-2.9313,1.7675,-10.36,-9.461131542161244,-16.968970358542904,-102.31626411025826
-0.281,-0.1533,0.9191,-0.2526,0.7622,0.3347,-3.5613,1.295,-9.975,-9.46937804644778,-16.787551327776615,-102.75974694685473
-0.2883,-0.1535,0.9086,-0.251,0.7602,0.3337,-3.22,1.1375,-10.4125,-9.58878159659735,-17.35478226662126,-102.54169181872726
-0.2851,-0.153,0.9148,-0.251,0.7602,0.3337,-3.5613,0.8225,-10.2725,-9.495051209953763,-17.09492112450072,-102.61090281423077
-0.2826,-0.1507,0.9182,-0.2477,0.762,0.336,-2.4413,1.5137,-10.6837,-9.321026934960594,-16.900599121366987,-102.34809421814555
-0.2849,-0.1516,0.9138,-0.2477,0.762,0.336,-3.6488,1.6013,-9.555,-9.419370178774805,-17.09012635503689,-102.30541408437334
-0.284,-0.1523,0.9234,-0.2502,0.7622,0.3372,-3.9463,1.715,-10.57,-9.365832546784516,-16.88761438029525,-102.49554265995538
-0.2846,-0.1523,0.9134,-0.247,0.7606,0.3378,-3.0275,1.2687,-10.78,-9.466143968203198,-17.078068755862173,-102.2507535540077
-0.2836,-0.1543,0.9144,-0.247,0.7606,0.3378,-2.3275,1.4525,-10.8675,-9.57784368749924,-17.007275957961067,-102.30121539615347
-0.2846,-0.1538,0.9235,-0.2513,0.7578,0.3364,-3.2638,1.3912,-10.5612,-9.455580731223352,-16.911803835637752,-102.64672407832143
-0.2835,-0.1538,0.9192,-0.2513,0.7578,0.3364,-3.8325,1.2163,-10.815,-9.49860073720774,-16.919088923655213,-102.65324341796422
-0.2862,-0.1509,0.9088,-0.248,0.7612,0.332,-3.71,1.4875,-10.6925,-9.427733276834841,-17.247507324872682,-102.37321182614042
-0.2851,-0.151,0.9148,-0.2506,0.761,0.3373,-3.0275,1.4525,-10.7625,-9.373056093504834,-17.09718434904869,-102.46668644426632
-0.2846,-0.1512,0.9154,-0.2506,0.761,0.3373,-3.2288,1.4787,-10.64,-9.379058241148265,-17.054592427322575,-102.48076724648315
-0.2867,-0.1533,0.9188,-0.2488,0.7605,0.3362,-3.1412,1.0325,-10.2637,-9.472204783086767,-17.105804257628385,-102.3978507661199
-0.2808,-0.1537,0.9178,-0.2488,0.7605,0.3362,-2.6513,1.225,-9.8525,-9.506774098417434,-16.80097535168262,-102.5064424217567
-0.2844,-0.1517,0.9109,-0.246,0.7602,0.3373,-3.675,1.7413,-10.6925,-9.455308984045802,-17.10746232251612,-102.1881639945642
-0.284,-0.1523,0.917,-0.2486,0.7602,0.3397,-3.6225,1.155,-10.1062,-9.42995870439201,-16.992717349800216,-102.33945137129781
-0.2858,-0.1519,0.9177,-0.2486,0.7602,0.3397,-3.4738,0.9975,-11.235,-9.398603667502933,-17.076862805178337,-102.30310920650135
-0.2844,-0.1532,0.9201,-0.2494,0.7618,0.3366,-3.2025,1.3212,-10.92,-9.45309946646786,-16.96024240229678,-102.4568164336515
-0.2854,-0.1519,0.9142,-0.2494,0.7618,0.3366,-3.2375,1.5137,-10.5525,-9.43391014571433,-17.11192070714652,-102.40121872514771
-0.2857,-0.1507,0.9124,-0.2476,0.7625,0.3353,-3.57,1.3125,-10.5525,-9.378934806627548,-17.166459644114582,-102.27653706020767
-0.2854,-0.1537,0.9168,-0.2514,0.7615,0.3334,-3.5788,1.2163,-10.4212,-9.516699445716664,-17.070433201326427,-102.63910828766957
-0.2835,-0.1532,0.9195,-0.2514,0.7615,0.3334,-3.3338,1.3912,-10.4387,-9.45943193122689,-16.92085819830851,-102.67434405960492
-0.285,-0.1527,0.9151,-0.2487,0.7606,0.3386,-3.1937,1.7237,-10.6837,-9.473455831327312,-17.071639191517782,-102.34751654876486
-0.2872,-0.1509,0.9106,-0.2487,0.7606,0.3386,-3.4038,1.7062,-10.7362,-9.40941426320244,-17.27688724732622,-102.26560697424382
-0.2839,-0.1522,0.9165,-0.2477,0.7601,0.3358,-3.7362,1.3912,-10.465,-9.428816660546836,-17.00116670628411,-102.36678840917214
-0.2838,-0.152,0.918,-0.2483,0.759,0.3364,-4.0075,1.4175,-10.3512,-9.401651716193541,-16.96284356893044,-102.40893758092993
-0.2838,-0.1535,0.9182,-0.2483,0.759,0.3364,-3.29,1.68,-10.045,-9.490434107400676,-16.95425383083318,-102.43135442451674
-0.2847,-0.152,0.9179,-0.2484,0.7616,0.3355,-2.9313,1.8025,-10.3775,-9.40280636461871,-17.012052066990915,-102.38887213492909
-0.2828,-0.1534,0.9148,-0.2484,0.7616,0.3355,-2.6688,1.5575,-10.3075,-9.518903773174731,-16.957317192226096,-102.43365899631432
-0.2818,-0.1532,0.9179,-0.2485,0.7604,0.3353,-2.7913,1.8987,-10.8325,-9.475587234415306,-16.850726774161178,-102.48300224508469
-0.283,-0.1516,0.9195,-0.2466,0.7612,0.3348,-3.3338,1.47,-11.1125,-9.36253597358406,-16.890966895899393,-102.32190431102914
-0.2852,-0.1522,0.9152,-0.2466,0.7612,0.3348,-3.36,1.7587,-10.7275,-9.441821381471941,-17.081319839252323,-102.27753404604674
-0.2829,-0.1534,0.9147,-0.2469,0.7597,0.3372,-3.7362,1.4262,-10.3162,-9.52001816336617,-16.966629162291888,-102.31853173062342
-0.2858,-0.1512,0.9191,-0.2469,0.7597,0.3372,-4.0425,1.2775,-9.5025,-9.342421306360611,-17.054816929650745,-102.24791397449484
-0.2819,-0.1548,0.9265,-0.2483,0.7596,0.338,-3.9638,1.295,-9.8262,-9.485033695639139,-16.715760654639524,-102.467999499459
-0.2839,-0.1529,0.9107,-0.2491,0.7599,0.3392,-3.3163,1.2425,-10.2462,-9.53055162058713,-17.077474760184717,-102.37678567465335
-0.2857,-0.1519,0.911,-0.2491,0.7599,0.3392,-3.325,1.8025,-10.1587,-9.466559432726749,-17.185381052097277,-102.3298878003493
-0.2804,-0.1526,0.9175,-0.2483,0.761,0.3367,-3.2025,1.5662,-11.1125,-9.443138188447849,-16.78962693696359,-102.44781314262185
-0.2838,-0.153,0.916,-0.2483,0.761,0.3367,-3.885,1.6013,-10.675,-9.482510322530134,-16.986229374909996,-102.38768487698496
-0.283,-0.1533,0.9186,-0.2486,0.7591,0.3382,-3.1412,1.2425,-10.1237,-9.474478999884887,-16.905357028849703,-102.42297933648963
-0.2834,-0.1512,0.9151,-0.2494,0.7597,0.3372,-3.255,1.715,-10.465,-9.38232022523558,-16.987810733808136,-102.44105758896482
-0.2832,-0.1527,0.9141,-0.2494,0.7597,0.3372,-3.2288,1.505,-10.01,-9.48341686584647,-16.991896296246885,-102.46334517082742
-0.284,-0.1521,0.9217,-0.2478,0.7616,0.337,-3.9988,1.3562,-10.5437,-9.370843046943516,-16.91263531794385,-102.34324630082797
-0.2851,-0.153,0.918,-0.2478,0.7616,0.337,-3.6837,1.3037,-10.4825,-9.462097113160151,-17.028188336772157,-102.32465827923846
-0.2862,-0.1515,0.9125,-0.2472,0.7609,0.338,-3.36,1.1287,-10.2462,-9.426768085679829,-17.187332101655198,-102.21187145022158
-0.2847,-0.1518,0.9167,-0.2499,0.7602,0.3358,-2.8175,0.91,-11.1562,-9.402571967276979,-17.039725182175577,-102.48863411415212
-0.2843,-0.1504,0.9171,-0.2499,0.7602,0.3358,-3.6138,1.0325,-10.465,-9.313550768330995,-17.01047606850194,-102.4770568479579
-0.2868,-0.1543,0.9151,-0.2489,0.7612,0.3359,-3.5088,1.085,-9.7388,-9.570294130912746,-17.168421528580186,-102.40431488079115
-0.2857,-0.1515,0.9176,-0.2489,0.7612,0.3359,-3.0625,1.4787,-9.9663,-9.375699723853304,-17.079709713342297,-102.39071486499955
-0.284,-0.152,0.9186,-0.2489,0.7602,0.3367,-4.2263,1.4437,-10.2637,-9.39550445560826,-16.966403142412066,-102.42580550151584
-0.287,-0.1523,0.9124,-0.2486,0.7593,0.3367,-4.2613,1.6187,-9.87,-9.47637840711781,-17.228486751551184,-102.34671719864285
-0.284,-0.1524,0.9215,-0.2486,0.7593,0.3367,-3.6138,1.47,-10.6662,-9.390930904884405,-16.922628515931798,-102.43170715089168
-0.2821,-0.1516,0.9155,-0.2486,0.7598,0.3358,-3.4213,1.7937,-10.395,-9.402405714122356,-16.909593212371163,-102.44944698611386
-0.2858,-0.154,0.9125,-0.2486,0.7598,0.3358,-3.7625,1.68,-10.535,-9.57894130230324,-17.154573174013414,-102.40839078229797
-0.2858,-0.1524,0.9195,-0.2502,0.7601,0.3335,-3.4038,1.4962,-10.605,-9.411194374514473,-17.050933867226,-102.55800950578868
-0.2826,-0.1538,0.9218,-0.2492,0.761,0.3366,-3.5788,1.3037,-10.36,-9.472250762575511,-16.83215271940313,-102.49956545768258
-0.2821,-0.1531,0.9132,-0.2492,0.761,0.3366,-3.22,1.54,-10.2375,-9.517144237683732,-16.94040748824336,-102.47155282326965
-0.2848,-0.1517,0.9166,-0.2474,0.7602,0.3365,-2.9575,0.9275,-10.7887,-9.397729782359782,-17.039386881958066,-102.3076887061558
-0.2865,-0.1531,0.9202,-0.2474,0.7602,0.3365,-3.255,0.9013,-10.6662,-9.446047281437338,-17.07190780473608,-102.30880812080184
-0.285,-0.1533,0.9183,-0.249,0.761,0.3287,-3.4563,1.2687,-10.4212,-9.477420944047012,-17.022018275935057,-102.5991665977583
-0.2819,-0.1537,0.9184,-0.2497,0.7597,0.337,-3.3688,1.1462,-10.2025,-9.500704101073289,-16.848625274277854,-102.53890179387714
-0.2849,-0.1526,0.9163,-0.2497,0.7597,0.337,-3.22,1.5225,-10.6837,-9.45533589955136,-17.044343583051138,-102.46202989141463
-0.284,-0.1535,0.9137,-0.2487,0.7608,0.336,-2.9488,1.4787,-10.6487,-9.536338733805193,-17.04187994374917,-102.42780333801753
-0.2874,-0.1527,0.9187,-0.2487,0.7608,0.336,-2.7913,1.1987,-10.5437,-9.437280585152758,-17.146785690232125,-102.37060497359728
-0.2846,-0.1512,0.9216,-0.2486,0.7622,0.3431,-2.7037,1.295,-10.8937,-9.31738110992208,-16.954201799802053,-102.23063678885694
-0.2823,-0.1533,0.9182,-0.2498,0.761,0.3364,-2.7738,1.1287,-10.465,-9.478116149005066,-16.87267645168667,-102.52948920534352
-0.2847,-0.1518,0.9155,-0.2498,0.761,0.3364,-3.5438,1.4088,-10.2462,-9.414772531604298,-17.049625622974858,-102.45613677996707
-0.2845,-0.1524,0.919,-0.2515,0.7617,0.337,-3.255,1.5662,-10.6662,-9.415806789306068,-16.985049051422067,-102.56832904359037
-0.2835,-0.1537,0.917,-0.2515,0.7617,0.337,-2.7825,1.1987,-10.5787,-9.51475790691428,-16.95772059928781,-102.59892911894664
-0.2849,-0.1531,0.916,-0.2477,0.7605,0.3358,-2.975,1.0412,-10.5525,-9.488756631163906,-17.051445266769157,-102.35610931400085
-0.2835,-0.1517,0.9199,-0.2494,0.7602,0.3373,-2.9138,1.225,-11.0513,-9.364627687583532,-16.917758844637934,-102.45395702041142
-0.2833,-0.1529,0.9149,-0.2494,0.7602,0.3373,-3.325,1.7062,-10.36,-9.487406330736249,-16.981381012792713,-102.45904784138975
-0.2843,-0.1542,0.9156,-0.2489,0.7609,0.3356,-3.535,1.4175,-10.5087,-9.559534305337705,-17.02295051870883,-102.45920730934978
-0.2843,-0.152,0.9165,-0.2489,0.7609,0.3356,-3.2113,1.0587,-10.7012,-9.417047546934187,-17.015491489081473,-102.42988530712243
-0.2822,-0.1517,0.9149,-0.249,0.7606,0.3338,-3.3338,1.3737,-10.5525,-9.414591100634887,-16.92759076268828,-102.50772710894961
-0.2851,-0.152,0.9188,-0.2498,0.761,0.3373,-3.1063,1.6625,-10.78,-9.393596363207752,-17.01819289306708,-102.44256942828365
-0.2857,-0.1528,0.917,-0.2498,0.761,0.3373,-3.9463,1.7325,-10.5612,-9.460131532865006,-17.08126087531237,-102.43753487692823
-0.2854,-0.1547,0.9192,-0.2487,0.7607,0.3369,-3.43,1.6187,-10.3775,-9.553040384049925,-17.02546027313143,-102.41865338605338
-0.2835,-0.1527,0.9212,-0.2487,0.7607,0.3369,-2.5113,1.6887,-10.185,-9.412231237426287,-16.893087831347895,-102.43012416802175
-0.2841,-0.1511,0.9141,-0.251,0.7626,0.334,-3.1675,1.4787,-10.5437,-9.386137207374782,-17.042536248146547,-102.56414531473492
-0.2865,-0.1526,0.9166,-0.2489,0.7607,0.337,-3.5263,1.8288,-10.3512,-9.452022853374052,-17.132806381456927,-102.37073486470359
-0.2846,-0.1531,0.9166,-0.2489,0.7607,0.337,-3.2987,1.7587,-10.71,-9.482519058432638,-17.03073183467169,-102.41223359491191
-0.2866,-0.153,0.9124,-0.2482,0.7603,0.3365,-4.2438,1.4875,-9.9837,-9.519248268970747,-17.206730460548606,-102.33158875669317
-0.2842,-0.152,0.9153,-0.2482,0.7603,0.3365,-3.675,1.2163,-10.4737,-9.429043160146968,-17.035635722362134,-102.36942797904759
-0.286,-0.1523,0.9161,-0.2481,0.7596,0.3426,-3.465,1.4175,-10.7362,-9.43896925052455,-17.114473079182424,-102.21029001312208
-0.2826,-0.1522,0.9173,-0.2478,0.7599,0.3365,-3.7888,1.0412,-10.2025,-9.420833599710814,-16.91180130957272,-102.38616998714073
-0.2863,-0.1537,0.9182,-0.2478,0.7599,0.3365,-3.7362,1.0762,-10.1412,-9.502591485333308,-17.088344824668525,-102.3442987844463
-0.2831,-0.1518,0.9123,-0.2482,0.7612,0.3375,-3.3863,1.5662,-10.8413,-9.447181542003067,-17.02185758826811,-102.34460857310242
-0.2834,-0.1507,0.9133,-0.2482,0.7612,0.3375,-2.7213,1.225,-10.7712,-9.369911143469341,-17.02264181457085,-102.32623140488802
-0.2846,-0.1521,0.9187,-0.2498,0.7601,0.3459,-3.4563,1.225,-10.2725,-9.400543721826248,-16.99536599647027,-102.27398760094613
-0.2841,-0.1534,0.918,-0.2498,0.7598,0.3363,-3.5963,1.5925,-9.8437,-9.486399495526259,-16.975200788418288,-102.51404638838179
-0.2848,-0.1519,0.9138,-0.2498,0.7598,0.3363,-3.4213,1.4175,-10.2025,-9.438037310805198,-17.086235187207215,-102.46634245318435
-0.2855,-0.1537,0.9173,-0.2503,0.761,0.337,-3.6488,1.2512,-11.06,-9.511764621495363,-17.065098807258526,-102.49426132709101
-0.2863,-0.1501,0.9178,-0.2503,0.761,0.337,-3.5,1.5225,-10.7625,-9.288663018343778,-17.109610726841094,-102.42877416140759
-0.2824,-0.1528,0.9182,-0.2504,0.7613,0.3426,-3.85,1.5225,-10.0975,-9.447762504345631,-16.8844821095672,-102.42069677360617
-0.2816,-0.1526,0.9176,-0.2486,0.7613,0.3369,-3.6575,1.6712,-10.4387,-9.442083916096001,-16.843969362096697,-102.43820168910806
-0.2849,-0.1532,0.9135,-0.2486,0.7613,0.3369,-3.7975,1.7062,-9.7037,-9.520094624915181,-17.088838656659366,-102.3744840535787
-0.2832,-0.1526,0.9165,-0.2464,0.7612,0.3365,-3.955,1.5925,-10.7362,-9.453362747229221,-16.95589407182748,-102.27312433734241
-0.2853,-0.1516,0.9134,-0.2464,0.7612,0.3365,-3.4825,1.1112,-10.605,-9.423736881304107,-17.120505691979787,-102.21057638396032
-0.2866,-0.1501,0.9166,-0.2478,0.7604,0.3329,-3.6837,1.3562,-11.4537,-9.300364811029606,-17.147627566004147,-102.35469122793965
-0.2804,-0.1518,0.9168,-0.2496,0.7612,0.3368,-3.2288,0.9363,-10.7362,-9.401256552885174,-16.80174679928147,-102.5139626604715
-0.2863,-0.1513,0.9173,-0.2496,0.7612,0.3368,-3.1412,1.26,-10.5,-9.366157606069827,-17.106312259624666,-102.4015164298753
-0.2832,-0.1524,0.9172,-0.2502,0.7612,0.3386,-3.6312,1.3562,-10.7537,-9.433789152965197,-16.9454697334643,-102.47267824703549
-0.2847,-0.1521,0.9214,-0.2502,0.7612,0.3386,-3.3163,1.3825,-10.745,-9.373710045270933,-16.954112923367312,-102.45469431328576
-0.284,-0.1525,0.9206,-0.2514,0.7614,0.342,-3.2113,1.2163,-10.745,-9.405715760621682,-16.9283084122093,-102.47153673613917
-0.282,-0.1526,0.9174,-0.2494,0.7602,0.3372,-3.325,1.2512,-10.5612,-9.443996928927664,-16.870458374562297,-102.48839894373445
-0.2838,-0.1594,0.8947,-0.2494,0.7602,0.3372,-3.3425,1.26,-10.0537,-10.10022342553803,-17.327810891038663,-102.48782071104445
-0.2901,-0.1508,0.9248,-0.2475,0.7599,0.338,-2.8438,1.4612,-10.3075,-9.263331181429416,-17.206532757703172,-102.20169429819366
-0.2919,-0.153,0.9516,-0.2475,0.7599,0.338,-3.7188,1.5925,-10.0362,-9.134268009089887,-16.860716951508103,-102.28823194514547
-0.2786,-0.1282,0.9157,-0.2495,0.7609,0.3394,-4.13,1.4,-11.0075,-7.972601750182208,-16.770997127007075,-102.14948061903692
-0.2722,-0.1495,0.9002,-0.2496,0.761,0.3376,-3.1763,1.4962,-10.5787,-9.425711093642676,-16.614552606021856,-102.56288214424696
-0.3001,-0.1696,0.9215,-0.2496,0.761,0.3376,-4.06,1.505,-10.0537,-10.425985035433074,-17.723012038591698,-102.43105655777813
-0.3068,-0.1488,0.9206,-0.2482,0.761,0.3311,-3.2462,1.365,-10.5962,-9.184581057603664,-18.19527287836672,-102.04507270017635
-0.2858,-0.1346,0.9277,-0.2482,0.761,0.3311,-2.7388,0.875,-10.4912,-8.257718981180018,-16.99421711081042,-102.24162635497466
-0.2576,-0.1491,0.9127,-0.249,0.7609,0.3354,-3.5263,0.9713,-10.395,-9.27545812477459,-15.609808953380012,-102.87173944584579
-0.2636,-0.1549,0.9159,-0.2472,0.7597,0.3375,-3.36,1.68,-10.6138,-9.598420089653889,-15.83513580447047,-102.70398327829145
-0.3126,-0.1515,0.9249,-0.2472,0.7597,0.3375,-4.0338,1.5662,-10.2812,-9.303251501439998,-18.36213681610079,-101.79771483411784
-0.2987,-0.154,0.9143,-0.2486,0.7619,0.3373,-2.8963,2.0038,-9.135,-9.560233554539222,-17.873229491021252,-102.12389239848684
-0.2725,-0.1584,0.9121,-0.2486,0.7619,0.3373,-3.5875,1.3737,-10.08,-9.851303303415456,-16.448753112026793,-102.65081070718276
-0.2625,-0.1577,0.9171,-0.248,0.7604,0.3316,-3.5175,1.7237,-10.6138,-9.7571134823042,-15.775456684651836,-102.92944032359877
-0.2773,-0.1454,0.9213,-0.2498,0.7616,0.3365,-3.1588,1.8288,-10.4825,-8.970412986649851,-16.53244753227939,-102.51023297938862
-0.2973,-0.1519,0.9101,-0.2498,0.7616,0.3365,-2.835,1.855,-10.7275,-9.474352927299437,-17.816711791008533,-102.20227161446435
-0.2922,-0.162,0.9123,-0.2474,0.7608,0.3363,-3.01,1.4262,-10.5875,-10.067772052912526,-17.512954913332692,-102.31471177444823
-0.2822,-0.1562,0.9177,-0.2474,0.7612,0.3382,-3.15,1.19,-10.7362,-9.660637832522246,-16.885031923554454,-102.37458967429639
-0.2736,-0.1475,0.9261,-0.2479,0.7612,0.3382,-2.7913,0.9187,-10.5262,-9.05099407326634,-16.28427649025297,-102.46744380244483
-0.2746,-0.1545,0.9206,-0.249,0.7586,0.3375,-2.5988,1.6013,-10.4387,-9.525734499268593,-16.38883794195016,-102.64493114839998
-0.2921,-0.157,0.9124,-0.249,0.7586,0.3375,-3.395,1.6625,-10.36,-9.762895320782906,-17.474955019568185,-102.34140542019006
-0.2955,-0.1543,0.9146,-0.2506,0.7613,0.335,-4.2175,1.6538,-9.975,-9.576522922473679,-17.66506931155294,-102.37570213011617
-0.2881,-0.1513,0.9147,-0.2506,0.7603,0.3358,-3.6663,1.4612,-10.2025,-9.392673606354174,-17.275150526631887,-102.45753342226544
-0.2751,-0.1462,0.9146,-0.2479,0.7603,0.3358,-3.7713,1.4262,-10.7275,-9.082734260219228,-16.565578433618253,-102.44603111712293
-0.273,-0.1527,0.9167,-0.25,0.7601,0.3385,-3.1675,1.1375,-10.57,-9.456334005988428,-16.37680126603854,-102.66283705494521
-0.2959,-0.1588,0.9171,-0.25,0.7601,0.3385,-3.9025,1.54,-10.7625,-9.822712398499506,-17.596149935141685,-102.34076018827318
-0.2934,-0.1562,0.918,-0.2471,0.7598,0.3375,-4.0775,1.8637,-9.9837,-9.656946876251837,-17.492029550499,-102.18689403147954
-0.2863,-0.152,0.9174,-0.2471,0.759,0.3342,-2.94,1.365,-10.1587,-9.408235983689563,-17.124605877001933,-102.33233047592523
-0.2735,-0.1472,0.9119,-0.2485,0.759,0.3342,-2.485,1.26,-10.4387,-9.170241288703185,-16.51347287261095,-102.56931216841899
-0.2954,-0.1505,0.9163,-0.2494,0.7614,0.3375,-3.5875,1.0675,-10.185,-9.327021976405618,-17.61133972596454,-102.18966634047854
-0.2912,-0.1562,0.9185,-0.2494,0.7614,0.3375,-3.6312,1.3125,-9.8875,-9.650581784375213,-17.364767671653613,-102.35860674272142
-0.2886,-0.1568,0.917,-0.2481,0.7618,0.3417,-3.5963,1.2862,-10.7625,-9.703167908271558,-17.239015305005413,-102.22764263494848
-0.2829,-0.1538,0.9145,-0.2481,0.7606,0.3356,-3.3338,1.0062,-10.675,-9.547013297707421,-16.973713528906863,-102.42644706858827
-0.2773,-0.1496,0.9184,-0.249,0.7606,0.3356,-3.2375,1.365,-9.975,-9.25249191981945,-16.60662876961649,-102.53817918135094
-0.2813,-0.151,0.9161,-0.2463,0.7602,0.3375,-3.3775,1.715,-10.5087,-9.359592264717458,-16.847483743012173,-102.26614931146399
-0.2896,-0.1549,0.9143,-0.2463,0.7602,0.3375,-3.3338,0.98,-10.6925,-9.615071437428234,-17.327777126319564,-102.16752264784536
-0.2868,-0.1562,0.9192,-0.2486,0.7604,0.3432,-2.52,0.8925,-10.395,-9.644096669490446,-17.10512586446949,-102.27293379908221
-0.2834,-0.1529,0.9178,-0.2486,0.7589,0.3367,-2.9575,1.4088,-10.2637,-9.458729246800816,-16.945153288018233,-102.44253760601921
-0.2797,-0.1496,0.9191,-0.2509,0.7589,0.3367,-3.9113,1.8987,-10.2025,-9.245368245504856,-16.725825648777786,-102.61647861539882
-0.2961,-0.1534,0.9164,-0.249,0.7604,0.3358,-4.235,1.4,-10.1237,-9.502238186681474,-17.645772400463745,-102.24566012918034
-0.2902,-0.154,0.9201,-0.249,0.7604,0.3358,-3.7625,1.0587,-10.0537,-9.501701374904373,-17.291036507873997,-102.37223175888063
-0.2883,-0.1523,0.9205,-0.2478,0.7599,0.3386,-3.08,1.4787,-10.71,-9.39494440280619,-17.17489035393419,-102.24838594402117
-0.2818,-0.1532,0.917,-0.2477,0.7604,0.334,-3.43,1.4612,-10.5,-9.484391055300227,-16.872291386342607,-102.45656821068071
-0.279,-0.1481,0.916,-0.2477,0.7604,0.334,-3.4913,1.1287,-10.2375,-9.184913124156122,-16.739330142589523,-102.43079625646108
-0.2873,-0.1538,0.9165,-0.2484,0.7581,0.3364,-2.975,1.1987,-10.7712,-9.525339606792759,-17.16524010308151,-102.38404251569396
-0.2873,-0.1559,0.9152,-0.2484,0.7581,0.3364,-2.8525,1.155,-10.465,-9.666923090430789,-17.19439435895089,-102.41099581023157
-0.2849,-0.1542,0.9112,-0.249,0.7596,0.3354,-3.395,1.2425,-9.94,-9.605168287403997,-17.135485220386762,-102.46053234810292
-0.2807,-0.1515,0.919,-0.2482,0.7611,0.3386,-3.4475,1.4437,-10.5175,-9.361791277211289,-16.78296844013718,-102.38261565203521
-0.2839,-0.1495,0.9146,-0.2482,0.7611,0.3386,-3.1588,1.7062,-10.7362,-9.283628022559496,-17.024105292359774,-102.28074523363485
-0.2879,-0.1518,0.9143,-0.2518,0.7603,0.3378,-3.6663,1.4175,-10.5612,-9.42639902872874,-17.249154873893627,-102.5002854572669
-0.2843,-0.1549,0.9218,-0.2518,0.7603,0.3378,-3.395,1.4175,-10.605,-9.538632026950422,-16.927887277366775,-102.6350090769199
-0.2833,-0.1537,0.9138,-0.2476,0.7621,0.3385,-3.1063,1.3475,-11.0513,-9.547686969072148,-16.997657106165747,-102.30286785294376
-0.2849,-0.152,0.92,-0.2484,0.7595,0.3378,-3.1412,1.4525,-10.2812,-9.381918512556597,-16.989843927488216,-102.36531166125008
-0.2797,-0.1492,0.9154,-0.2484,0.7595,0.3378,-2.8875,1.6975,-10.7362,-9.257479345324484,-16.788411987792333,-102.40511186979006
-0.2862,-0.1531,0.9188,-0.247,0.7602,0.3379,-3.1937,1.75,-10.5175,-9.459801268817221,-17.070572052560912,-102.25298532749756
-0.2866,-0.1524,0.9187,-0.247,0.7602,0.3379,-3.8937,1.54,-10.1237,-9.418929837626122,-17.104971576718707,-102.23500600900263
-0.2841,-0.1509,0.9097,-0.2515,0.7618,0.3397,-3.4038,1.015,-10.1763,-9.418399925146058,-17.123001933964613,-102.46266805016177
-0.284,-0.1499,0.9134,-0.2493,0.7607,0.3378,-3.0538,1.155,-10.745,-9.320096018120612,-17.059234069415584,-102.3743732029929
-0.2838,-0.1515,0.9191,-0.2493,0.7607,0.3378,-3.7975,1.2862,-10.5437,-9.36009211651042,-16.947990965215844,-102.41984782545659
-0.2846,-0.1548,0.9157,-0.247,0.7604,0.3375,-3.57,1.2163,-9.9137,-9.594612243475686,-17.034972625023727,-102.3036112318811
-0.286,-0.1527,0.9192,-0.247,0.7604,0.3375,-3.4475,1.4,-9.7825,-9.432395655504429,-17.06212691876578,-102.25850165905173
-0.2835,-0.1491,0.9171,-0.2476,0.7601,0.3328,-2.8438,0.805,-10.8238,-9.23470963221601,-16.970955294235704,-102.39023442867553
-0.2863,-0.1501,0.9124,-0.249,0.7606,0.3339,-2.9925,1.12,-10.9462,-9.341854045042906,-17.196548657655388,-102.40007632729234
-0.2832,-0.1521,0.9185,-0.249,0.7606,0.3339,-3.7538,1.155,-10.6662,-9.402480069856528,-16.927787552004844,-102.50463840123672
-0.2841,-0.1546,0.9188,-0.2478,0.7608,0.3374,-3.9113,1.2163,-11.1125,-9.550921235592062,-16.956637677444732,-102.36889397739301
-0.2857,-0.1529,0.9139,-0.2478,0.7608,0.3374,-3.815,1.33,-10.3775,-9.498031939381521,-17.13045402187472,-102.29959113339378
-0.2822,-0.15,0.9153,-0.2478,0.7626,0.3374,-3.185,1.6625,-10.395,-9.307411760152846,-16.929331269147372,-102.30467261483867
-0.2826,-0.1505,0.9173,-0.2489,0.7608,0.3377,-3.2987,1.5925,-10.57,-9.317394101013306,-16.91059517824023,-102.39646554689092
-0.2848,-0.154,0.9206,-0.2489,0.7608,0.3377,-3.7362,1.7587,-10.4387,-9.496192375260836,-16.96634096441375,-102.41782653454727
-0.2879,-0.1534,0.9138,-0.2503,0.7586,0.3374,-3.5263,1.6187,-10.395,-9.52933391683794,-17.25115507802759,-102.45383987085813
-0.2858,-0.1516,0.9138,-0.2503,0.7586,0.3374,-3.9463,1.3037,-10.1325,-9.419882895495114,-17.15051933031656,-102.46553614810746
-0.2811,-0.1526,0.9176,-0.2501,0.7606,0.3362,-3.1763,1.6625,-9.8,-9.442015384131036,-16.825176540409384,-102.56784535907977
-0.2836,-0.1537,0.9157,-0.2479,0.7602,0.3398,-3.465,1.5312,-10.7275,-9.528050080233353,-16.979459993624037,-102.31570717010561
-0.2846,-0.1518,0.9151,-0.2479,0.7602,0.3398,-3.5263,1.5575,-10.5612,-9.418926912406572,-17.054157518415995,-102.26748614984183
-0.2862,-0.1516,0.9165,-0.2488,0.7627,0.3382,-3.8588,1.7675,-9.975,-9.392423240131917,-17.121240595575554,-102.30517034939821
-0.2852,-0.1512,0.9173,-0.2488,0.7627,0.3382,-3.5875,1.3562,-10.6225,-9.360070118172477,-17.056711189350626,-102.32010649066996
-0.2833,-0.1509,0.9148,-0.2476,0.7613,0.3374,-4.3663,1.5137,-10.255,-9.366807603648864,-16.99294647462653,-102.29797750813492
-0.283,-0.1526,0.9193,-0.2518,0.7608,0.3342,-3.745,1.5137,-10.2375,-9.42477985864228,-16.89606256047522,-102.69033579644207
-0.2826,-0.155,0.917,-0.2518,0.7608,0.3342,-3.57,1.9425,-10.6575,-9.593573601088739,-16.902171007013646,-102.72523004001906
-0.284,-0.1502,0.9154,-0.2486,0.7621,0.3379,-3.3075,1.575,-10.6925,-9.318810775534788,-17.018296657818652,-102.32202261277075
-0.2821,-0.1516,0.9193,-0.2486,0.7621,0.3379,-3.43,1.295,-10.4212,-9.364146342735735,-16.8504656339509,-102.38910858385411
-0.2813,-0.1527,0.9127,-0.2487,0.7594,0.339,-3.2462,1.2862,-10.465,-9.497619329344367,-16.906465030608388,-102.41192178765328
-0.2866,-0.1546,0.915,-0.2498,0.761,0.3362,-3.465,1.1987,-10.3075,-9.589991162884653,-17.15502498568227,-102.46579958291031
-0.2899,-0.1517,0.9105,-0.2498,0.761,0.3362,-3.1675,1.5575,-10.6925,-9.459582096165526,-17.42682925573105,-102.34851343607896
-0.2816,-0.1538,0.9215,-0.2474,0.7598,0.3376,-3.3075,1.5837,-10.4825,-9.475390259679434,-16.794683596414355,-102.39168597552867
-0.28,-0.152,0.9184,-0.2474,0.7598,0.3376,-3.395,1.7413,-10.5087,-9.397754315213893,-16.742305286605767,-102.38521959923338
-0.2846,-0.1502,0.9161,-0.249,0.7598,0.3367,-2.7475,1.9425,-10.8587,-9.311350966686655,-17.03429809136271,-102.39171040898873
-0.2857,-0.1535,0.9136,-0.2488,0.7612,0.3353,-3.7275,1.5312,-10.4038,-9.537006166979122,-17.136209581284213,-102.41426477181152
-0.2849,-0.1524,0.9159,-0.2488,0.7612,0.3353,-4.0862,1.2687,-10.5087,-9.447326445508677,-17.06065033772788,-102.4196771267692
-0.2832,-0.1518,0.92,-0.2468,0.7598,0.3372,-3.5613,1.1112,-10.0625,-9.36957682228503,-16.89978416414155,-102.29917705611736
-0.2808,-0.1524,0.9228,-0.2468,0.7598,0.3372,-3.7538,1.4962,-10.3863,-9.37770604074072,-16.717062525466748,-102.35993311342584
-0.2829,-0.1509,0.9135,-0.2486,0.7609,0.3334,-3.6925,1.6362,-10.4475,-9.379911984133443,-16.98164356258661,-102.45839814871138
-0.2864,-0.1507,0.9202,-0.2498,0.7616,0.3376,-3.1063,1.3562,-10.7362,-9.300890229859059,-17.071151426648214,-102.39105202210574
-0.2869,-0.1548,0.9192,-0.2498,0.7616,0.3376,-3.5438,1.225,-9.9925,-9.558695138901598,-17.10643984961402,-102.4386279853607
-0.2798,-0.1521,0.9183,-0.2494,0.761,0.3378,-2.6688,1.1025,-10.9987,-9.405019017508492,-16.742497641263494,-102.50159276463941
-0.284,-0.1487,0.914,-0.2494,0.761,0.3378,-3.045,1.4612,-10.0275,-9.240977889916673,-17.040449647059987,-102.3618708923327
-0.2843,-0.1513,0.9162,-0.249,0.7603,0.3384,-3.3425,1.6538,-10.08,-9.376781840406975,-17.02291251479971,-102.37035466450268
-0.2843,-0.1553,0.9178,-0.25,0.7618,0.3378,-3.22,1.61,-10.4212,-9.603431931005353,-16.98502201544748,-102.49441444943528
-0.2844,-0.1553,0.9168,-0.25,0.7618,0.3378,-3.7013,1.4612,-9.905,-9.614243819372653,-17.00569643854435,-102.48963853379419
-0.281,-0.1524,0.9182,-0.2456,0.7602,0.3374,-3.325,1.54,-9.8437,-9.424333986970005,-16.80582621897852,-102.25509268469945
-0.2805,-0.1524,0.9163,-0.2456,0.7602,0.3374,-2.975,1.7325,-10.0712,-9.44300929781219,-16.803054928193628,-102.25794961309863
-0.2848,-0.1525,0.9159,-0.2519,0.762,0.3426,-3.1675,1.7237,-10.43,-9.453167029214141,-17.044261866741316,-102.45338479137371
-0.2877,-0.1541,0.9221,-0.2488,0.7598,0.3361,-3.255,1.7413,-10.465,-9.487426289956838,-17.103139128169655,-102.41221362643994
-0.2849,-0.1537,0.9231,-0.2488,0.7598,0.3361,-3.5263,1.855,-10.1587,-9.45334729800742,-16.937985735952992,-102.45970451237034
-0.2843,-0.1492,0.9135,-0.249,0.761,0.3386,-3.5263,1.7675,-9.7912,-9.276528739960154,-17.06999730373502,-102.31840732877681
-0.281,-0.1501,0.9171,-0.249,0.761,0.3386,-3.0363,2.1263,-10.8062,-9.295033075515141,-16.832125381172542,-102.40387803469788
-0.2826,-0.1538,0.9181,-0.2504,0.7606,0.3343,-2.8438,1.155,-10.675,-9.509352234314324,-16.885474349681328,-102.62060743152574
-0.2862,-0.1546,0.9185,-0.248,0.761,0.3378,-3.2113,1.1987,-10.8325,-9.554239140045015,-17.074602750144376,-102.33222658280668
-0.2823,-0.1523,0.9166,-0.248,0.761,0.3378,-3.3513,0.9713,-10.3425,-9.43423316128853,-16.90533710527826,-102.36286993862495
-0.2818,-0.1504,0.9143,-0.2474,0.7607,0.3372,-3.6925,2.0125,-10.255,-9.341579403316093,-16.91557194213796,-102.31469132124766
-0.2867,-0.1526,0.9159,-0.2474,0.7607,0.3372,-3.2638,1.1725,-10.22,-9.458989562963811,-17.1513951310837,-102.26301998761988
-0.2866,-0.1534,0.918,-0.2486,0.7588,0.3354,-3.1325,1.3475,-10.2287,-9.486543354678515,-17.11635956336831,-102.42258665201236
-0.2851,-0.1549,0.9154,-0.2486,0.7594,0.3382,-3.255,1.3037,-10.395,-9.604072037699437,-17.072277528890996,-102.39471735373286
-0.2858,-0.1516,0.917,-0.2486,0.7594,0.3382,-3.5788,1.4612,-10.1675,-9.387860961299998,-17.091745717823294,-102.33871530179908
-0.2835,-0.1519,0.9177,-0.2472,0.7613,0.3374,-3.0888,1.19,-10.325,-9.398500159509972,-16.954517188127543,-102.29230300290445
-0.2852,-0.1534,0.9162,-0.2472,0.7613,0.3374,-3.4913,1.3387,-10.5612,-9.504647522872364,-17.063557962956956,-102.27871361686235
-0.2888,-0.1538,0.9154,-0.2526,0.761,0.339,-3.8675,1.3037,-10.15,-9.53733426538368,-17.275536432566167,-102.53401925120679
-0.2859,-0.1542,0.9175,-0.2479,0.7606,0.3386,-3.1675,1.68,-10.8325,-9.540272495359437,-17.0882814927595,-102.30891289808038
-0.2856,-0.1521,0.9158,-0.2479,0.7606,0.3386,-3.3775,1.19,-10.9112,-9.430125183390658,-17.099840583916045,-102.27785139802506
-0.2815,-0.1537,0.9216,-0.2486,0.7616,0.3373,-4.6463,1.26,-10.22,-9.468276733010038,-16.77733871690458,-102.45595619942057
-0.2821,-0.1543,0.9162,-0.2486,0.7616,0.3373,-4.3575,2.03,-10.0887,-9.55942319278746,-16.886036533718688,-102.43722131967422
-0.2861,-0.1518,0.9132,-0.2486,0.761,0.3443,-3.7975,1.4437,-10.8325,-9.438201158712733,-17.16477219066735,-102.17054584823076
-0.2884,-0.1527,0.9152,-0.2481,0.7597,0.3375,-3.4825,1.5662,-10.395,-9.472389723684865,-17.263332406285258,-102.28126884198237
-0.2832,-0.1499,0.9135,-0.2481,0.7597,0.3375,-3.5788,1.2425,-9.73,-9.319229272881108,-17.01817994306893,-102.32939874506638
-0.2826,-0.1524,0.9208,-0.249,0.7597,0.3378,-3.1063,1.7675,-10.22,-9.397538879953325,-16.85122172369284,-102.45208088390108
-0.2837,-0.1532,0.9215,-0.249,0.7597,0.3378,-2.6425,1.7675,-10.4825,-9.43902835701056,-16.89213550077227,-102.44596992652556
-0.2871,-0.1535,0.9134,-0.2493,0.7608,0.3374,-3.4738,1.3387,-10.2812,-9.539365462674564,-17.211592045698488,-102.37874360512093
-0.2862,-0.1535,0.9125,-0.2504,0.7601,0.3369,-3.3338,1.7762,-10.0712,-9.54882527836415,-17.187540420367778,-102.48239069785649
-0.283,-0.153,0.9179,-0.2504,0.7601,0.3369,-3.7188,1.645,-9.8437,-9.46354480752788,-16.92409994050282,-102.55022241477177
-0.2833,-0.1526,0.9143,-0.2487,0.759,0.3379,-2.8525,1.61,-10.1237,-9.475502992674105,-16.99230786786043,-102.408015822355
-0.2835,-0.1532,0.918,-0.2487,0.759,0.3379,-3.3075,1.1112,-10.43,-9.47446969449202,-16.942911471307617,-102.42480064233801
-0.2838,-0.154,0.9154,-0.2492,0.7608,0.3442,-3.8238,1.19,-10.325,-9.549404115858444,-16.998273390195777,-102.29608165303067
-0.2868,-0.1527,0.9178,-0.2485,0.7594,0.3384,-3.0188,1.4525,-10.7275,-9.44637780787463,-17.127621255207767,-102.32821883814327
-0.284,-0.1526,0.9217,-0.2485,0.7594,0.3384,-2.6338,1.6013,-9.9663,-9.40093192136476,-16.915646682315526,-102.3902936978816
-0.2819,-0.1532,0.9159,-0.2484,0.7604,0.3359,-2.975,1.1812,-10.3425,-9.495562274256292,-16.887493386667927,-102.45534626845051
-0.2871,-0.1535,0.918,-0.2484,0.7604,0.3359,-3.395,1.3037,-10.3162,-9.49269002666169,-17.134945438698246,-102.37291430926626
-0.287,-0.1521,0.9159,-0.2485,0.7609,0.3422,-2.7913,1.5137,-10.7537,-9.428999365885689,-17.176047265524367,-102.20843088314653
-0.2833,-0.1517,0.9187,-0.2482,0.7602,0.3393,-3.5438,1.3825,-10.2025,-9.376466160148876,-16.930462573730964,-102.33191725929078
-0.2846,-0.1509,0.9179,-0.2482,0.7602,0.3393,-3.22,1.3475,-10.22,-9.335847859292986,-17.008860262663333,-102.29401874005048
-0.2855,-0.1521,0.9152,-0.2484,0.7614,0.3373,-3.465,1.7937,-10.3425,-9.435678589232737,-17.101761323447928,-102.32977787118458
-0.2832,-0.1526,0.9177,-0.2484,0.7614,0.3373,-3.255,1.7237,-11.165,-9.441046323095975,-16.93664508820523,-102.38670472024916
-0.2826,-0.1528,0.9199,-0.2501,0.7584,0.3367,-2.8087,1.4962,-10.4475,-9.431033272034215,-16.862144906035343,-102.56560385557646
-0.2851,-0.1519,0.9171,-0.2474,0.7597,0.3362,-3.1675,1.4787,-10.675,-9.404630451357935,-17.0444083303605,-102.31917604288864
-0.2838,-0.1532,0.9152,-0.2474,0.7597,0.3362,-4.0338,1.3037,-10.0362,-9.502683753778784,-17.0069910500365,-102.35543506892438
-0.2827,-0.1532,0.912,-0.2457,0.7592,0.3368,-3.5088,1.47,-10.2987,-9.535577055888234,-16.998412778904395,-102.24732479867896
-0.2853,-0.1515,0.9182,-0.2457,0.7592,0.3368,-3.1412,0.9975,-9.9663,-9.369611694381488,-17.042620992911242,-102.19487220554775
-0.2838,-0.1527,0.9221,-0.2494,0.7609,0.3336,-2.8263,1.4175,-10.2725,-9.402781083010263,-16.895248918062396,-102.54261108495805
-0.284,-0.153,0.918,-0.2483,0.7608,0.3386,-2.6513,1.3562,-10.5787,-9.462176071561148,-16.967663373521866,-102.35104284324368
-0.2835,-0.1529,0.9161,-0.2483,0.7608,0.3386,-3.0625,1.5487,-10.4825,-9.47547372334418,-16.97416198061094,-102.35242665098927
-0.279,-0.1509,0.9198,-0.2475,0.7602,0.337,-3.5088,1.4787,-10.1412,-9.31719199309227,-16.673659999966347,-102.40703738928896
-0.2839,-0.16,0.919,-0.2475,0.7602,0.337,-3.2987,1.0325,-10.2375,-9.874956510454009,-16.919379568250875,-102.44754628375972
-0.2862,-0.152,0.9148,-0.2482,0.7593,0.3367,-3.6488,1.6013,-10.8762,-9.434966753153866,-17.144064124950297,-102.33862136269718
-0.286,-0.1461,0.916,-0.2513,0.7611,0.3378,-3.045,1.2775,-10.6312,-9.063135684506609,-17.136342837425595,-102.41552377922947
-0.2791,-0.1537,0.9156,-0.2513,0.7611,0.3378,-3.22,1.2775,-10.185,-9.528138056977017,-16.744684974199032,-102.65040138780118
-0.2847,-0.1497,0.918,-0.2482,0.7609,0.3377,-3.4125,1.7237,-10.9112,-9.262462445514604,-17.009907810444524,-102.30254626307085
-0.2849,-0.1524,0.9224,-0.2482,0.7609,0.3377,-3.605,1.6275,-10.3425,-9.381427084175565,-16.94989230329054,-102.3520182116485
-0.2847,-0.154,0.9166,-0.25,0.761,0.3302,-3.9113,1.26,-9.8,-9.536932842100182,-17.02786725194801,-102.64125417887026
-0.2842,-0.1505,0.9141,-0.2485,0.7608,0.338,-3.815,1.3475,-9.8,-9.34992277468926,-17.053942963881127,-102.32455259435864
-0.2828,-0.1579,0.9231,-0.2485,0.7608,0.338,-3.1063,1.7675,-9.9137,-9.705855033839674,-16.81096906374869,-102.48475941617022
-0.2835,-0.1494,0.9177,-0.2473,0.7611,0.338,-3.7975,1.4,-10.4825,-9.247667606991595,-16.95236812399526,-102.25174039440797
-0.288,-0.1538,0.9175,-0.2473,0.7611,0.338,-3.395,1.0587,-10.6312,-9.515325337639444,-17.19350517133986,-102.2336360873902
-0.2866,-0.1501,0.9124,-0.2485,0.7606,0.3421,-3.1937,1.3387,-10.57,-9.342543569874682,-17.219975814689,-102.17987045247673
-0.2835,-0.1542,0.9127,-0.2475,0.7596,0.3386,-3.5875,1.82,-10.2725,-9.588916260564583,-17.034753172585553,-102.32224704039297
-0.2817,-0.1479,0.9154,-0.2475,0.7596,0.3386,-2.5988,1.6362,-10.6662,-9.17890121939179,-16.90286193465591,-102.27232994544437
-0.2853,-0.1548,0.9198,-0.2509,0.7606,0.3374,-3.9988,1.0062,-10.4125,-9.552288362713048,-17.004255858806008,-102.55617453708638
-0.288,-0.1574,0.9167,-0.2509,0.7606,0.3374,-3.5963,1.4787,-10.5087,-9.742375273583214,-17.19819541400215,-102.53653775234919
-0.2853,-0.1508,0.9137,-0.2482,0.7604,0.3341,-2.59,1.4175,-11.2788,-9.372705779827493,-17.125365732658572,-102.37883150055669
-0.2851,-0.1479,0.919,-0.25,0.7587,0.3372,-3.7713,1.505,-10.9462,-9.143114760590018,-17.032231469696825,-102.42543240322122
-0.2836,-0.1588,0.9115,-0.25,0.7587,0.3372,-3.815,1.365,-10.045,-9.880963077987078,-17.040986010197333,-102.58779725460371
-0.2891,-0.1522,0.9193,-0.2475,0.7602,0.3382,-3.5263,1.47,-10.4125,-9.401840903135621,-17.230535696719908,-102.21469569416531
-0.2863,-0.1499,0.9192,-0.2475,0.7602,0.3382,-4.0338,1.6275,-10.7887,-9.262413684938624,-17.09229724268504,-102.23125337751509
-0.2858,-0.1529,0.9148,-0.2499,0.7588,0.3355,-3.2725,1.925,-10.36,-9.488170887986913,-17.125243503956174,-102.50162239707137
-0.2827,-0.154,0.9148,-0.2498,0.7614,0.3376,-2.7913,1.7062,-10.2637,-9.555571060024947,-16.953827983027136,-102.49113343321159
-0.2872,-0.1501,0.9197,-0.2498,0.7614,0.3376,-3.3163,1.1462,-10.1587,-9.26996197568845,-17.123675265286206,-102.36838827514225
-0.2865,-0.1547,0.9174,-0.2482,0.7601,0.3361,-3.15,0.8925,-10.4825,-9.570925692031732,-17.116345373672427,-102.38540029812711
-0.2849,-0.1554,0.9148,-0.2482,0.7601,0.3361,-3.08,1.1287,-10.605,-9.640811792354263,-17.06986406294181,-102.41631092867566
-0.2833,-0.1496,0.9156,-0.2483,0.7599,0.3362,-2.4063,1.68,-11.375,-9.280453744980507,-16.983708606105868,-102.36949448068235
-0.2827,-0.1533,0.9166,-0.2499,0.7606,0.3372,-3.0538,1.2862,-10.1062,-9.494229764327702,-16.921645418883806,-102.51098801836932
-0.2835,-0.154,0.9168,-0.2499,0.7606,0.3372,-3.08,1.8463,-9.87,-9.535173437397166,-16.958152549860916,-102.50744857199469
-0.2835,-0.151,0.9142,-0.2505,0.7616,0.3417,-2.8963,1.0325,-10.6138,-9.379347357270673,-17.010410633984954,-102.38398505147097
-0.2862,-0.1514,0.9171,-0.2505,0.7616,0.3417,-2.9138,0.8663,-10.85,-9.374172075827445,-17.110537699385784,-102.34951236574217
-0.2838,-0.1527,0.9185,-0.2492,0.7596,0.335,-3.1325,1.3737,-10.5525,-9.438895247485277,-16.956206131756005,-102.50293684131675
-0.2788,-0.1529,0.9221,-0.2498,0.7594,0.3384,-3.5613,1.5487,-10.5612,-9.41501672508793,-16.61989968292099,-102.57477065957194
-0.2903,-0.1521,0.9114,-0.2498,0.7594,0.3384,-3.3513,1.3387,-10.15,-9.474408712586138,-17.41542320019895,-102.31890196636469
-0.2863,-0.1558,0.9159,-0.2516,0.7614,0.3366,-2.9925,1.365,-10.2375,-9.65350176946514,-17.136450363915433,-102.59440726704368
-0.2847,-0.151,0.9234,-0.2516,0.7614,0.3366,-2.8525,1.1987,-10.64,-9.288055157087605,-16.930440781165974,-102.57762508473655
-0.283,-0.1509,0.9187,-0.2496,0.7603,0.3402,-3.6138,1.6712,-10.15,-9.327663511707287,-16.908467604182402,-102.39622062230353
-0.2818,-0.1526,0.9138,-0.2498,0.7586,0.3385,-2.5025,1.4787,-10.8062,-9.48024773718587,-16.91790320000943,-102.49646818034232
-0.2885,-0.1512,0.9135,-0.2498,0.7586,0.3385,-3.5,1.7762,-10.1937,-9.398434711333277,-17.29347065929781,-102.35216288864413
-0.2857,-0.1538,0.9186,-0.249,0.7596,0.3393,-3.3775,1.925,-10.36,-9.504536456611195,-17.06099977959871,-102.37720716067544
-0.2819,-0.1538,0.9194,-0.249,0.7596,0.3393,-3.4038,1.75,-10.7887,-9.496697572313678,-16.833441070201136,-102.44880195308608
-0.2844,-0.1545,0.9179,-0.2484,0.7579,0.3393,-3.0713,1.8463,-10.2812,-9.554268077991468,-16.98495082501849,-102.38932017645296
-0.2852,-0.1519,0.9192,-0.248,0.761,0.3383,-2.8875,1.4,-10.5525,-9.383881798101092,-17.01917829758932,-102.30184522457894
-0.2851,-0.1547,0.9206,-0.248,0.761,0.3383,-3.1763,1.6187,-10.255,-9.538627250230038,-16.984207169013136,-102.34873301650572
-0.2843,-0.1537,0.9166,-0.2489,0.7594,0.3363,-3.535,1.365,-10.2987,-9.51912586350104,-17.007946138834455,-102.45671325608099
-0.2863,-0.1513,0.9187,-0.2489,0.7594,0.3376,-3.0188,1.3387,-10.5875,-9.352461040822643,-17.089668332337702,-102.36356639157043
-0.283,-0.1507,0.9167,-0.2477,0.7609,0.3376,-2.94,1.2163,-11.0425,-9.335623486193558,-16.94681701998468,-102.31336554769797
-0.2821,-0.1512,0.913,-0.2482,0.7597,0.3373,-3.2375,1.4437,-10.7275,-9.403121679332665,-16.95258028698664,-102.37779435376731
-0.2854,-0.1522,0.9141,-0.2482,0.7597,0.3373,-4.3137,1.6187,-9.7125,-9.45305072331459,-17.112490932403148,-102.33594279205514
-0.2832,-0.1518,0.9169,-0.2469,0.7607,0.3343,-3.57,1.1725,-9.9575,-9.400627362844327,-16.952192827020806,-102.34905787802755
-0.2818,-0.1534,0.9203,-0.2469,0.7607,0.3343,-3.4913,1.0325,-10.2112,-9.463177571352189,-16.81085892745552,-102.40773860976485
-0.284,-0.1539,0.9113,-0.2477,0.7591,0.3377,-2.8525,0.8838,-10.7712,-9.585343227009579,-17.07328313759198,-102.34306903258383
-0.2844,-0.1504,0.9192,-0.2479,0.7606,0.3382,-3.255,1.1725,-10.7275,-9.293145588401057,-16.982445015825657,-102.29484014854093
-0.2827,-0.1545,0.9178,-0.2479,0.7606,0.3382,-2.9838,0.8663,-10.6225,-9.554787414325599,-16.898627405234393,-102.3805404955396
-0.2844,-0.1526,0.9124,-0.2465,0.7601,0.3389,-3.0538,1.4175,-10.6225,-9.495052669767977,-17.083208476916834,-102.20439492639679
-0.2862,-0.1508,0.9155,-0.2465,0.7601,0.3414,-3.1325,1.6625,-10.6575,-9.354043439034314,-17.140962656352755,-102.09945102055339
-0.2843,-0.1513,0.9143,-0.2478,0.7609,0.3414,-2.905,1.645,-10.5787,-9.39615222711096,-17.057527154991618,-102.21321829098832
-0.2833,-0.1526,0.9201,-0.2486,0.761,0.338,-3.4125,1.4088,-10.5087,-9.416824069086742,-16.901388745142594,-102.39463823383934
-0.2849,-0.1518,0.9165,-0.2486,0.761,0.338,-3.2725,1.6187,-9.9925,-9.40455781543179,-17.044902792920244,-102.3426099087874
-0.2849,-0.1532,0.9159,-0.2502,0.761,0.3362,-3.2025,1.3912,-10.5087,-9.49557105534344,-17.05555539444745,-102.50440673284089
-0.2869,-0.1527,0.9159,-0.2502,0.7618,0.3393,-3.4825,1.3825,-10.2725,-9.465439772663144,-17.16641892932046,-102.38331031375026
-0.2851,-0.1536,0.9233,-0.2486,0.7618,0.3393,-3.325,1.2862,-10.6925,-9.445263907770562,-16.94775149227333,-102.34926109683435
-0.285,-0.152,0.9149,-0.2495,0.761,0.3372,-3.6837,1.155,-10.6138,-9.43289942513084,-17.077820416539396,-102.41446002737922
-0.2825,-0.1518,0.9134,-0.2495,0.761,0.3372,-2.835,1.2687,-10.4737,-9.435865381976996,-16.970418320568378,-102.45219515792934
-0.2838,-0.1515,0.9163,-0.248,0.7605,0.339,-3.5525,1.6887,-10.3775,-9.388401940557936,-16.99117095992643,-102.30248207801712
-0.2836,-0.1528,0.9207,-0.2457,0.7608,0.3346,-3.6488,1.4962,-10.7887,-9.422875983640711,-16.905288901276112,-102.28260135017673
-0.2815,-0.1524,0.9179,-0.2457,0.7608,0.3346,-4.1213,1.3212,-10.7275,-9.4268808188622,-16.83479959136603,-102.30566700242848
-0.2831,-0.1526,0.9151,-0.2501,0.7617,0.3388,-3.4125,1.5925,-10.2375,-9.467299108325362,-16.96533023664014,-102.45395939193698
-0.2826,-0.1513,0.9118,-0.2501,0.7617,0.3388,-3.1325,1.5312,-10.4737,-9.42166993290846,-17.00015562017806,-102.43362412502464
-0.283,-0.1526,0.9141,-0.2482,0.7591,0.3366,-3.0275,0.9887,-10.3162,-9.477430693884902,-16.981606180430617,-102.40774212124616
-0.2819,-0.1517,0.9137,-0.2511,0.7614,0.3383,-3.185,0.9275,-9.8175,-9.426852430849719,-16.92979355718898,-102.53747272712316
-0.284,-0.1529,0.9202,-0.2511,0.7614,0.3383,-3.7275,1.155,-9.9312,-9.434030734577245,-16.932993985347036,-102.53761465560848
-0.284,-0.153,0.9126,-0.2498,0.7602,0.3372,-3.885,1.3475,-10.4387,-9.517085986714681,-17.057962005813387,-102.46870160676717
-0.2859,-0.1508,0.9163,-0.2498,0.7602,0.3372,-3.22,1.4437,-10.5087,-9.346095035505071,-17.110522298308414,-102.41374729936649
-0.2802,-0.1513,0.9192,-0.2482,0.7582,0.3376,-2.8087,1.4612,-11.06,-9.347050993287807,-16.752169172440887,-102.44473425657186
-0.2819,-0.154,0.9216,-0.2486,0.7614,0.336,-3.8413,1.1462,-10.255,-9.486173053071957,-16.787313130460767,-102.48378183023573
-0.2855,-0.1535,0.9171,-0.2486,0.7614,0.336,-3.8588,1.1287,-10.6662,-9.501790308238938,-17.059538992021135,-102.39818683475274
-0.2838,-0.152,0.9142,-0.2472,0.7593,0.3376,-3.2725,1.505,-10.7625,-9.440113673212702,-17.02729634901418,-102.29545352202732
-0.2841,-0.1512,0.9165,-0.2472,0.7593,0.3376,-3.15,1.2075,-10.3425,-9.36819293673632,-17.006887620183523,-102.28562293490859
-0.2833,-0.1519,0.9193,-0.2495,0.7598,0.3402,-3.15,1.225,-10.8238,-9.382424706473444,-16.91472205722323,-102.4060655441594
-0.2843,-0.1543,0.9173,-0.2482,0.7604,0.3381,-3.0538,1.1638,-10.4737,-9.547988176808486,-16.992582164482847,-102.37124438839147
-0.285,-0.1534,0.9177,-0.2482,0.7604,0.3381,-2.9313,1.2163,-10.0537,-9.48979931421777,-17.029113349519495,-102.34670048875967
-0.285,-0.1509,0.9139,-0.2486,0.759,0.3378,-2.7037,1.3125,-10.01,-9.376164519438339,-17.099988914422255,-102.34628405316032
-0.2822,-0.1507,0.9169,-0.2486,0.759,0.3378,-3.4125,1.5137,-10.3075,-9.333686242355942,-16.900192603033574,-102.40447606951585
-0.2814,-0.1531,0.919,-0.2482,0.7602,0.3372,-3.0975,1.1725,-10.4562,-9.457971978449033,-16.809359702723743,-102.43356087398026
-0.2858,-0.1509,0.9132,-0.2506,0.7614,0.3355,-2.8263,1.3912,-10.6487,-9.383128306763659,-17.14842670067634,-102.48253305989829
-0.2857,-0.1507,0.9134,-0.2506,0.7614,0.3355,-3.5,1.68,-10.0537,-9.36874882804378,-17.1509368597166,-102.48208788511963
-0.2834,-0.1529,0.9151,-0.251,0.762,0.3398,-2.87,1.7675,-11.0862,-9.485385885786759,-16.99104308043282,-102.4858244907346
-0.2839,-0.152,0.9138,-0.251,0.762,0.3398,-3.0888,1.6625,-10.78,-9.444121084724474,-17.037194951793197,-102.45936801903922
-0.2835,-0.1509,0.9168,-0.2479,0.7603,0.3338,-3.1937,1.6187,-10.2987,-9.346990795091873,-16.970325465610646,-102.41084697691646
-0.2808,-0.1519,0.9138,-0.249,0.7608,0.3366,-3.64,1.2687,-10.1937,-9.43769438089446,-16.86694131214106,-102.46881250228678
-0.2879,-0.1523,0.9173,-0.249,0.7608,0.3366,-3.0975,1.4262,-10.3687,-9.426894132621214,-17.192739226163546,-102.35735532397526
-0.2816,-0.1541,0.921,-0.2493,0.763,0.3379,-2.835,1.7937,-10.9287,-9.498459629675121,-16.79457640132874,-102.47422058629421
-0.2844,-0.1532,0.9139,-0.2493,0.763,0.3379,-3.1063,1.3562,-10.7537,-9.516152866619645,-17.053371405168516,-102.3887105706289
-0.2852,-0.1524,0.9189,-0.2511,0.761,0.3421,-4.445,1.5312,-10.815,-9.417060557357136,-17.024927580243908,-102.4253553807676
-0.2835,-0.153,0.9167,-0.2504,0.761,0.3381,-3.5875,1.4,-9.8175,-9.475354087641767,-16.96584269440635,-102.50055226007363
-0.2843,-0.1545,0.919,-0.2504,0.761,0.3381,-3.1675,1.155,-10.36,-9.543017460565563,-16.965733542064655,-102.51515815481842
-0.2823,-0.1515,0.9185,-0.2482,0.761,0.3382,-3.3075,1.1725,-10.535,-9.366631613231638,-16.873022648868073,-102.3617982193655
-0.2836,-0.1537,0.9193,-0.2482,0.761,0.3382,-3.7538,1.7325,-10.57,-9.49132188498611,-16.921925437602685,-102.37238824982127
-0.2827,-0.1535,0.9146,-0.2478,0.7611,0.3366,-3.3163,1.4962,-11.0075,-9.527237477307747,-16.951984868911573,-102.37900158804415
-0.2865,-0.1499,0.9181,-0.2483,0.7615,0.3343,-3.15,1.7587,-11.0775,-9.27359876346255,-17.11243357316185,-102.34740000111393
-0.2812,-0.1519,0.9157,-0.2483,0.7615,0.3343,-3.2725,1.3562,-10.4912,-9.418329814800545,-16.862251926406838,-102.46425542161622
-0.2833,-0.1543,0.9142,-0.2496,0.7604,0.3378,-3.5788,1.5487,-10.36,-9.579776737777786,-16.987282168916675,-102.47691248294393
-0.2866,-0.1523,0.9166,-0.2496,0.7604,0.3378,-3.3425,1.4787,-11.2175,-9.434295940336773,-17.137359545686834,-102.39547485717908
-0.2814,-0.1528,0.9169,-0.2496,0.7613,0.3374,-3.1675,1.19,-10.955,-9.461242492626498,-16.851877236434436,-102.49634133374147
-0.2828,-0.1532,0.9164,-0.2493,0.7608,0.3376,-3.5613,1.3125,-10.4562,-9.490636052989334,-16.92649098024334,-102.45728003693873
-0.2817,-0.1516,0.9174,-0.2493,0.7608,0.3376,-3.0625,1.505,-10.92,-9.383571260118195,-16.856734580447142,-102.4572872191416
-0.2868,-0.1527,0.9131,-0.247,0.7586,0.3371,-2.8963,1.4088,-10.1062,-9.493592358509698,-17.20129801246283,-102.253733593562
-0.2851,-0.1524,0.9142,-0.247,0.7586,0.3371,-2.5638,1.61,-10.5612,-9.464426582741863,-17.10183103036635,-102.28353692910194
-0.2858,-0.1524,0.9203,-0.2485,0.7606,0.3402,-3.3513,1.5487,-10.1763,-9.402898059824839,-17.036102099150394,-102.29681772022116
-0.2838,-0.1529,0.919,-0.2497,0.7617,0.3383,-3.2462,1.7587,-10.3687,-9.446038942532194,-16.945144396698996,-102.44313320474198
-0.2832,-0.154,0.9173,-0.2497,0.7617,0.3383,-3.1325,1.3212,-10.7187,-9.529965436049885,-16.934335864983918,-102.46464130228063
-0.2848,-0.1518,0.913,-0.2482,0.7606,0.3374,-3.0713,1.3825,-10.5437,-9.440153502666007,-17.0985045306966,-102.32505964660022
-0.2868,-0.1512,0.9151,-0.2482,0.7606,0.3374,-2.8263,1.2337,-10.6312,-9.382235702226474,-17.17979147195571,-102.28645343347256
-0.283,-0.154,0.9129,-0.2506,0.7608,0.3341,-3.2725,1.295,-10.535,-9.574782766866536,-17.003228446175218,-102.61526599246379
-0.2802,-0.1543,0.9208,-0.25,0.7614,0.3375,-3.2638,1.6887,-10.2375,-9.512919053858637,-16.714895284577377,-102.57428033617582
-0.2842,-0.1516,0.9128,-0.25,0.7614,0.3375,-3.7625,1.9775,-10.4212,-9.42995166316472,-17.062331032699714,-102.43773141726476
-0.2857,-0.1524,0.9226,-0.2494,0.7603,0.3383,-3.71,1.8637,-9.9575,-9.379846466065334,-16.99173243107277,-102.40981877426053
-0.2849,-0.1533,0.9188,-0.2494,0.7603,0.3383,-3.5,1.3125,-10.0012,-9.47220651923958,-17.005812897876147,-102.42511114430835
-0.284,-0.1529,0.919,-0.249,0.7596,0.3333,-3.5963,1.12,-10.2375,-9.446209355646129,-16.955030847634347,-102.52827624815852
-0.2849,-0.152,0.9158,-0.2493,0.7608,0.3385,-3.1238,0.8838,-10.6487,-9.42382031219127,-17.05771298188765,-102.38000486030859
-0.2844,-0.154,0.9158,-0.2493,0.7608,0.3385,-3.395,1.6712,-10.465,-9.545195569975633,-17.02810236518193,-102.41819492226054
-0.2857,-0.1521,0.9171,-0.247,0.7606,0.3378,-3.6837,1.6887,-9.7475,-9.41704245340332,-17.081851916178138,-102.23963405549489
-0.2846,-0.152,0.918,-0.247,0.7606,0.3378,-3.5875,1.0412,-10.5612,-9.401622681987766,-17.00900454578506,-102.26086382443488
-0.2809,-0.1537,0.917,-0.2465,0.7604,0.332,-3.2638,1.295,-11.4187,-9.5147227532061,-16.816421670231463,-102.44558043250164
-0.2858,-0.152,0.9099,-0.2494,0.7608,0.3386,-3.1588,1.3037,-10.57,-9.483840552114119,-17.200801312806956,-102.34857534782007
-0.2835,-0.151,0.9165,-0.2494,0.7608,0.3386,-3.395,1.6362,-10.0887,-9.356158176160518,-16.9802247272583,-102.39739351894417
-0.2844,-0.1534,0.9183,-0.2483,0.7599,0.3384,-3.1238,1.8637,-10.6225,-9.483255270638892,-16.986141262386138,-102.3650728045754
-0.2858,-0.1534,0.917,-0.2483,0.7599,0.3384,-3.465,1.6712,-10.535,-9.496734926134424,-17.08403346208207,-102.33550491973675
-0.2843,-0.1525,0.9168,-0.2482,0.7599,0.3439,-2.9575,1.3387,-10.5175,-9.444208675032316,-17.01111783118335,-102.22144324362927
-0.2835,-0.1527,0.9155,-0.249,0.7594,0.3378,-2.9663,0.9975,-10.9112,-9.469364265465057,-16.985958566832238,-102.42646396276758
-0.2836,-0.1527,0.9204,-0.249,0.7594,0.3378,-3.1325,1.1112,-10.5262,-9.420040538841173,-16.91025818802382,-102.44052478518532
-0.2829,-0.1527,0.9162,-0.2487,0.761,0.3372,-3.8937,1.505,-10.36,-9.462218115388835,-16.938452689851676,-102.41513734035314
-0.2838,-0.1519,0.9179,-0.2487,0.761,0.3372,-3.6138,1.2512,-9.9663,-9.396676700221152,-16.962768091456645,-102.39262717447778
-0.2817,-0.15,0.9155,-0.2484,0.7617,0.3342,-3.325,1.2425,-10.08,-9.305170028592151,-16.893280812531675,-102.43355486835178
-0.2844,-0.1516,0.9171,-0.2473,0.7615,0.3384,-3.4738,1.19,-10.7187,-9.386122822020168,-17.008063778335273,-102.25204043878242
-0.2848,-0.1537,0.9188,-0.2473,0.7615,0.3384,-3.7975,1.6013,-10.3687,-9.496428517143286,-16.99978824399809,-102.2806967716075
-0.2831,-0.1512,0.918,-0.2494,0.7611,0.3376,-3.99,1.0675,-10.3512,-9.35333248953849,-16.926748387099583,-102.43085922640607
-0.284,-0.1521,0.9154,-0.2494,0.7611,0.3376,-3.6488,1.4262,-10.4912,-9.433701945364238,-17.013916093810643,-102.41932784578273
-0.2826,-0.153,0.916,-0.2494,0.7603,0.3316,-3.1675,1.3737,-11.3137,-9.482487304366353,-16.927807437663606,-102.60053174491993
-0.2839,-0.1529,0.9194,-0.2517,0.7602,0.3382,-3.7888,1.2687,-10.3863,-9.442208941693528,-16.94057222015731,-102.59192128878281
-0.2847,-0.1526,0.9184,-0.2517,0.7602,0.3382,-3.2725,1.2337,-10.395,-9.434013219689334,-17.001791146267696,-102.56982203420057
-0.2838,-0.1521,0.9162,-0.2498,0.7615,0.337,-3.22,1.6013,-10.3687,-9.425830804423425,-16.99218545239509,-102.46013169434131
-0.283,-0.1532,0.912,-0.2498,0.7615,0.337,-3.5963,1.1725,-9.6425,-9.535387973679807,-17.014404212063404,-102.47724994965985
-0.2834,-0.1515,0.9206,-0.2498,0.761,0.3404,-2.9488,1.5837,-10.64,-9.34567594531742,-16.900291123647936,-102.40420029639681
-0.284,-0.1537,0.9195,-0.2498,0.7602,0.337,-3.7188,2.0563,-10.5262,-9.489248364223096,-16.94129493105674,-102.50502314796087
-0.284,-0.1539,0.9151,-0.2498,0.7602,0.337,-3.9025,1.1638,-10.0362,-9.546432052607088,-17.014383429374,-102.49416889075832
-0.286,-0.1528,0.9139,-0.249,0.7606,0.3366,-3.675,1.2075,-10.2112,-9.491937082930873,-17.148980825236208,-102.39051748324759
-0.2849,-0.1512,0.9155,-0.249,0.7606,0.3366,-3.7625,1.3475,-10.2637,-9.378347000354516,-17.070968137439667,-102.39194643455237
-0.283,-0.1541,0.922,-0.2486,0.7608,0.3396,-3.5525,1.8112,-10.3162,-9.488250003308229,-16.850598431347766,-102.3951431605832
-0.285,-0.1526,0.9151,-0.2501,0.7601,0.3379,-3.4913,1.645,-10.1325,-9.467450023408714,-17.06967902264654,-102.45766979138187
-0.2838,-0.1518,0.917,-0.2501,0.7601,0.3379,-4.1213,1.6187,-10.2112,-9.39965864698475,-16.982012241821685,-102.47406011191887
-0.2825,-0.1509,0.9215,-0.253,0.7608,0.3377,-3.535,1.5137,-10.22,-9.300159835221274,-16.837216265025475,-102.68357253269949
-0.2844,-0.1542,0.9176,-0.253,0.7608,0.3377,-2.9225,1.2163,-10.4562,-9.538671911542108,-16.990929473229894,-102.68400622018285
-0.2822,-0.1519,0.9165,-0.2483,0.7594,0.3434,-3.2375,1.12,-10.3075,-9.410926904835165,-16.899987232777434,-102.27412332759675
-0.2833,-0.1512,0.914,-0.2485,0.7605,0.3372,-3.3425,1.6362,-9.8437,-9.393227005477057,-17.00032645032573,-102.3716099487826
-0.2867,-0.1521,0.9138,-0.2485,0.7605,0.3372,-3.3775,1.47,-10.7975,-9.449980695727,-17.190365844307927,-102.32245365735726
-0.2842,-0.1518,0.9202,-0.2504,0.7603,0.338,-3.465,1.1462,-10.57,-9.367587941551319,-16.955071182008812,-102.49196449334528
-0.2838,-0.1527,0.9213,-0.2504,0.7603,0.338,-3.8763,1.3475,-9.9225,-9.410775016467722,-16.905496440447433,-102.51585992354717
-0.2849,-0.1532,0.9133,-0.2485,0.7626,0.3334,-4.0862,1.6625,-9.5288,-9.522058967769704,-17.0941397817974,-102.42995732771797
-0.2858,-0.1539,0.9132,-0.2484,0.7602,0.3382,-3.8763,1.4787,-10.1587,-9.565960702739497,-17.149123699671527,-102.33833060065685
