AcclX,AcclY,AcclZ,MagX,MagY,MagZ,GyroX,GyroY,GyroZ,Roll,Pitch,Yaw,Time(s)
-0.2022,0.9647,0.0946,-0.4858,0.1578,0.0301,-2.3975,1.1025,-14.4637,0,0,0,1.6206923522585344
-0.2029,0.9432,0.0881,-0.4865,0.1585,0.0315,-2.5988,1.1462,-14.56,0,0,0,1.6327247978872612
-0.2004,0.9411,0.0918,-0.4865,0.1585,0.0315,-3.08,0.7263,-14.4812,0,0,0,1.6448485539157827
-0.2044,0.9647,0.0982,-0.4864,0.1582,0.0305,-2.7388,0.8575,-14.4025,0,0,0,1.656998145832618
-0.2014,0.9656,0.0972,-0.4864,0.1582,0.0305,-2.9225,1.0762,-14.1662,0,0,0,1.6663195927697736
-0.2003,0.9658,0.1027,-0.4863,0.157,0.0314,-3.0188,1.225,-14.2975,0,0,0,1.6785891623049434
-0.2058,0.9647,0.0981,-0.4863,0.157,0.0314,-2.905,1.3387,-13.895,0,0,0,1.690560380417529
-0.204,0.965,0.0965,-0.4853,0.1578,0.033,-3.4038,1.015,-14.3062,0,0,0,1.7026360038322055
-0.2026,0.9638,0.0959,-0.4853,0.1578,0.033,-3.5,0.9887,-14.4287,0,0,0,1.714783472251371
-0.2045,0.9648,0.0976,-0.4877,0.1582,0.03,-3.0625,1.1987,-14.8575,0,0,0,1.7268835158892482
-0.2002,0.964,0.0999,-0.4877,0.158,0.0314,-2.8875,0.875,-14.9012,0,0,0,1.7389602010527594
-0.2026,0.9657,0.095,-0.4877,0.158,0.0314,-3.1063,0.77,-14.3325,0,0,0,1.7483499538316214
-0.205,0.9662,0.0942,-0.4867,0.1574,0.0311,-2.8963,1.2075,-14.7087,0,0,0,1.7604984839996218
-0.2018,0.9668,0.0979,-0.4867,0.1574,0.0311,-2.485,0.735,-14.9625,0,0,0,1.7725730456654634
-0.2036,0.9648,0.0967,-0.4866,0.1578,0.0317,-3.43,0.3588,-15.0412,0,0,0,1.784719098419516
-0.2012,0.9659,0.0952,-0.4874,0.1569,0.0306,-2.205,0.7788,-14.63,0,0,0,1.7967444657226774
-0.2031,0.9658,0.095,-0.4874,0.1569,0.0306,-2.6163,1.0237,-14.8137,0,0,0,1.808864328672138
-0.202,0.9629,0.1004,-0.4838,0.1575,0.031,-2.8175,0.9538,-14.42,0,0,0,1.820991623863442
-0.2034,0.9657,0.0956,-0.4838,0.1575,0.031,-2.8438,1.2337,-14.0787,0,0,0,1.8331132563942938
-0.204,0.965,0.0942,-0.4875,0.1603,0.0287,-3.22,1.1987,-14.0875,0,0,0,1.8424212545128749
-0.204,0.9665,0.098,-0.4849,0.1567,0.0302,-2.7388,1.365,-14.805,0,0,0,1.8545545662809095
-0.202,0.9654,0.0998,-0.4849,0.1567,0.0302,-2.45,1.2862,-14.84,0,0,0,1.8666623960769089
-0.2038,0.9673,0.0972,-0.4888,0.159,0.0306,-2.0913,1.19,-14.9187,0,0,0,1.878765271045012
-0.2004,0.9659,0.0976,-0.4888,0.159,0.0306,-2.3363,1.085,-14.8925,0,0,0,1.8908886731572552
-0.2048,0.9649,0.0988,-0.4862,0.159,0.0318,-2.3975,0.9275,-14.7875,0,0,0,1.902965004404488
-0.2023,0.9663,0.098,-0.4839,0.1582,0.027,-2.6425,1.1025,-14.1837,0,0,0,1.915101147502749
-0.2022,0.9658,0.0948,-0.4839,0.1582,0.027,-2.87,1.5925,-14.7,0,0,0,1.9244494920770532
-0.2,0.9644,0.1001,-0.4884,0.1596,0.0302,-2.8788,1.1725,-14.8575,0,0,0,1.9365587375381654
-0.205,0.9665,0.0987,-0.4884,0.1596,0.0302,-3.4125,1.1112,-14.5075,0,0,0,1.9486216199668238
-0.2041,0.9671,0.0953,-0.4878,0.1584,0.0283,-2.6075,0.8838,-14.9537,0,0,0,1.960728388013988
-0.2059,0.965,0.0952,-0.4878,0.1594,0.0327,-2.8525,1.1025,-14.4287,0,0,0,1.9728560371215704
-0.2013,0.967,0.1008,-0.4878,0.1594,0.0327,-2.8612,0.9625,-13.9475,0,0,0,1.9849897028058836
-0.2025,0.9658,0.0961,-0.4867,0.1592,0.0297,-2.8875,1.0237,-14.5687,0,0,0,1.9971077961739525
-0.2039,0.9667,0.0957,-0.4867,0.1592,0.0297,-3.2025,1.2425,-14.2187,0,0,0,2.009113344165531
-0.2031,0.9646,0.0974,-0.4847,0.1587,0.0309,-3.0188,1.2337,-14.2275,0,0,0,2.0185176075118023
-0.2018,0.9633,0.0969,-0.4847,0.1587,0.0309,-3.01,1.0325,-14.6475,0,0,0,2.0306487957821675
-0.2027,0.9661,0.0982,-0.4861,0.158,0.0287,-2.52,0.6125,-14.4112,0,0,0,2.0427803379688108
-0.2048,0.9661,0.0967,-0.4848,0.1579,0.0309,-2.5813,0.7,-14.7087,0,0,0,2.054826940248669
-0.2047,0.965,0.1001,-0.4848,0.1579,0.0309,-2.6338,1.05,-14.0,0,0,0,2.0669372474586156
-0.2053,0.9672,0.1005,-0.4874,0.1574,0.033,-2.835,0.9887,-14.5425,0,0,0,2.0790914402870686
-0.2034,0.9649,0.0907,-0.4874,0.1574,0.033,-2.7213,0.8925,-14.665,0,0,0,2.0911950230877285
-0.2036,0.9641,0.0916,-0.4873,0.1567,0.0386,-2.94,1.1287,-14.4637,0,0,0,2.100461259085473
-0.2078,0.9665,0.0932,-0.485,0.1583,0.0306,-2.3187,0.8487,-14.6037,0,0,0,2.1126550905370927
-0.2038,0.9652,0.103,-0.485,0.1583,0.0306,-2.5638,1.085,-14.6387,0,0,0,2.1247728299888835
-0.1993,0.9637,0.0964,-0.4844,0.1572,0.0304,-2.2313,1.2337,-15.3387,0,0,0,2.136871811877926
-0.2022,0.9647,0.0919,-0.4844,0.1572,0.0304,-2.6863,1.0062,-14.7525,0,0,0,2.1489916748273865
-0.2048,0.9669,0.0979,-0.4863,0.1585,0.0294,-2.9488,1.4612,-14.4725,0,0,0,2.161064820828115
-0.2015,0.966,0.1024,-0.4917,0.16,0.0319,-2.3187,1.68,-14.1662,0,0,0,2.173164864465992
-0.2022,0.9795,0.0948,-0.4917,0.16,0.0319,-2.4413,1.0062,-14.4462,0,0,0,2.1852291625597635
-0.2037,0.9661,0.0989,-0.4869,0.1579,0.0298,-3.3075,1.19,-14.3325,0,0,0,2.1946557226315657
-0.2018,0.966,0.1,-0.4869,0.1579,0.0298,-3.4038,1.05,-14.6125,0,0,0,2.2067302842974073
-0.2033,0.9651,0.0991,-0.4862,0.1576,0.0257,-2.8175,0.7437,-14.5687,0,0,0,2.2188225417771625
-0.2048,0.9659,0.0974,-0.4861,0.1581,0.029,-2.835,1.2075,-14.2187,0,0,0,2.2309381577312837
-0.2,0.9641,0.0986,-0.4861,0.1581,0.029,-3.0188,1.6538,-14.0087,0,0,0,2.243064745090031
-0.2037,0.9654,0.0984,-0.4878,0.1594,0.031,-2.5638,1.05,-14.4812,0,0,0,2.2551368293419247
-0.2038,0.9666,0.0941,-0.4878,0.1594,0.031,-2.5113,1.0412,-14.5425,0,0,0,2.2672492600495415
-0.2037,0.9666,0.098,-0.4855,0.1593,0.0341,-3.0013,0.9713,-14.9362,0,0,0,2.276612469107533
-0.2053,0.9669,0.0971,-0.4878,0.1578,0.0304,-2.9575,1.2687,-13.895,0,0,0,2.288746134791846
-0.2037,0.9653,0.0977,-0.4878,0.1578,0.0304,-2.3538,0.91,-14.9012,0,0,0,2.300867767322698
-0.2022,0.9661,0.0915,-0.4852,0.1585,0.0309,-2.8963,0.9187,-14.6562,0,0,0,2.312926402756017
-0.2033,0.9642,0.094,-0.4852,0.1585,0.0309,-2.5813,0.9538,-14.84,0,0,0,2.325035294300851
-0.2042,0.9662,0.0955,-0.4894,0.1586,0.0308,-2.66,1.0762,-14.875,0,0,0,2.3371576346642593
-0.2031,0.9643,0.0994,-0.4894,0.1575,0.0319,-2.5288,1.3037,-14.9625,0,0,0,2.349300502171807
-0.2011,0.9655,0.0996,-0.486,0.1575,0.0319,-2.695,1.015,-14.8137,0,0,0,2.3586527398251724
-0.2017,0.9651,0.0972,-0.4866,0.1579,0.0298,-2.87,1.2425,-14.8925,0,0,0,2.37072199274684
-0.2012,0.9656,0.0975,-0.4866,0.1579,0.0298,-2.8963,1.2425,-14.6562,0,0,0,2.3829144085333462
-0.2032,0.9655,0.0999,-0.4868,0.1561,0.027,-3.4913,0.8575,-14.3762,0,0,0,2.3949408375853425
-0.1994,0.9662,0.0966,-0.4868,0.1561,0.027,-2.3275,1.225,-14.2362,0,0,0,2.407064239697586
-0.2019,0.9673,0.0966,-0.4866,0.1576,0.0289,-3.0188,0.9013,-14.6475,0,0,0,2.4191455257727146
-0.2046,0.9655,0.0955,-0.486,0.1577,0.0306,-2.9575,1.155,-14.2537,0,0,0,2.4312777757919144
-0.2014,0.9659,0.0991,-0.486,0.1577,0.0306,-3.3513,1.0937,-14.1225,0,0,0,2.4433898525832527
-0.2013,0.9646,0.098,-0.4855,0.1574,0.0304,-3.2638,0.84,-14.5513,0,0,0,2.452753769473801
-0.2033,0.964,0.0952,-0.4855,0.1574,0.0304,-2.5288,1.0587,-14.2712,0,0,0,2.4647986021722676
-0.2025,0.9656,0.0984,-0.4862,0.1584,0.0303,-2.1963,0.8487,-14.14,0,0,0,2.4769828778843737
-0.2013,0.9662,0.0974,-0.485,0.1596,0.0305,-3.115,1.2687,-13.9212,0,0,0,2.489071596201346
-0.204,0.9648,0.0954,-0.485,0.1596,0.0305,-3.3513,1.2775,-14.84,0,0,0,2.5011606684345966
-0.2041,0.9662,0.0977,-0.4868,0.1582,0.0301,-3.01,1.3912,-14.5075,0,0,0,2.5132164725376898
-0.2028,0.9659,0.101,-0.4868,0.1582,0.0301,-2.7125,0.98,-14.0175,0,0,0,2.525341290315046
-0.2022,0.9636,0.0948,-0.4858,0.1596,0.0314,-2.31,1.1462,-14.105,0,0,0,2.5346998984614197
-0.2029,0.9661,0.0977,-0.487,0.1578,0.031,-2.03,0.6913,-14.385,0,0,0,2.5468303788992284
-0.2039,0.9672,0.0939,-0.487,0.1578,0.031,-2.0213,0.7788,-14.5162,0,0,0,2.558939624360341
-0.2045,0.9651,0.096,-0.4863,0.157,0.0299,-2.835,1.2512,-14.1925,0,0,0,2.5709979058773818
-0.2048,0.9659,0.0978,-0.4863,0.157,0.0299,-3.2638,1.05,-14.6387,0,0,0,2.583123077571016
-0.2054,0.9664,0.0984,-0.4861,0.1589,0.0359,-2.7125,0.9187,-14.7175,0,0,0,2.595244710101868
-0.2041,0.9671,0.0992,-0.4878,0.1592,0.0337,-2.4413,1.225,-15.1375,0,0,0,2.6073815610326854
-0.2,0.9647,0.0949,-0.4878,0.1592,0.0337,-2.8,0.8138,-14.1837,0,0,0,2.6193846316103158
-0.2026,0.9669,0.0982,-0.4868,0.1576,0.0309,-2.8087,1.12,-14.77,0,0,0,2.62880057419377
-0.2055,0.9678,0.0966,-0.4868,0.1576,0.0309,-2.9225,1.435,-14.5687,0,0,0,2.6409724628361366
-0.2007,0.9639,0.0989,-0.4859,0.1598,0.031,-2.975,1.225,-14.77,0,0,0,2.653085955292588
-0.2017,0.9658,0.0992,-0.4869,0.1579,0.0338,-2.6163,1.1462,-15.1112,0,0,0,2.6651368045677852
-0.2037,0.9661,0.0967,-0.4869,0.1579,0.0338,-2.5988,1.1725,-14.5862,0,0,0,2.6776127072931883
-0.2186,0.9664,0.0953,-0.4862,0.1578,0.0303,-2.975,0.8487,-14.5775,0,0,0,2.689223638634492
-0.204,0.9655,0.1005,-0.4862,0.1578,0.0303,-3.0188,1.2425,-14.665,0,0,0,2.701338192839778
-0.202,0.9657,0.1003,-0.4882,0.159,0.0336,-2.9575,1.2862,-14.9362,0,0,0,2.7101684039826908
-0.2034,0.9638,0.0942,-0.4882,0.159,0.0336,-2.695,0.7788,-14.2887,0,0,0,2.7223275516390397
-0.2049,0.9653,0.0953,-0.4874,0.1582,0.0289,-2.625,1.2512,-14.77,0,0,0,2.7345334162441204
-0.2026,0.9658,0.0974,-0.4871,0.1578,0.0306,-2.4063,1.4612,-13.9737,0,0,0,2.7467346799375836
-0.2026,0.9638,0.096,-0.4871,0.1578,0.0306,-2.73,0.9625,-15.4088,0,0,0,2.758929927054316
-0.2038,0.9648,0.0997,-0.4861,0.1582,0.031,-2.1875,0.8838,-14.98,0,0,0,2.7711350838268403
-0.2036,0.965,0.1003,-0.4861,0.1582,0.031,-2.8438,0.91,-15.1287,0,0,0,2.7832991863110847
-0.203,0.9673,0.1035,-0.4863,0.1585,0.0268,-2.8,1.2687,-14.7875,0.9513704465284316,-6.198933785126568,0.22410946367500595,29.027593436551836
-0.2025,0.9654,0.1014,-0.4866,0.1593,0.0305,-2.3538,1.2425,-14.6825,1.9976694586645338,-8.99726320591111,0.46943257761517126,29.032291321229632
-0.204,0.9654,0.0959,-0.4866,0.1593,0.0305,-2.765,0.98,-14.4375,2.475718139018406,-10.239291895717272,0.5072508582398843,29.03680269202878
-0.2036,0.9683,0.0995,-0.4868,0.1574,0.031,-2.8,1.1725,-14.6562,3.003990150149789,-11.017856084205151,0.6654129917799055,29.041553664148317
-0.202,0.9653,0.0998,-0.4868,0.1574,0.031,-2.8175,1.0325,-14.3675,3.4911636026845407,-11.320007461228988,0.6838992363984491,29.04606998977536
-0.2004,0.965,0.0986,-0.485,0.1569,0.0318,-2.4763,0.77,-14.5162,3.7774067284043658,-11.480805438290803,0.8967469702388708,29.050501729411895
-0.2011,0.9658,0.0998,-0.4864,0.1566,0.0294,-3.2025,1.155,-14.77,4.562403069859659,-11.596025126247532,0.9692651270282153,29.054977000750657
-0.2031,0.9673,0.1004,-0.4864,0.1566,0.0294,-2.6163,1.1987,-15.1025,4.563517370387739,-11.713704619593425,1.0479974908401695,29.0594607660801
-0.2031,0.9638,0.0937,-0.4855,0.1616,0.0314,-2.765,1.0675,-14.9713,4.692194497321342,-11.788017275735784,1.0844806836430896,29.063835171279553
-0.2028,0.9653,0.0947,-0.4855,0.1616,0.0314,-2.4063,1.1112,-14.6037,4.849763828156357,-11.798407544751308,1.1430873997862914,29.06822974970687
-0.2054,0.9657,0.0966,-0.4851,0.1598,0.0275,-2.6163,1.2337,-14.6037,4.850468851380831,-11.871130587735347,1.1699564245607508,29.071686096080484
-0.202,0.9659,0.1037,-0.4882,0.1567,0.0307,-2.73,1.0937,-14.2362,4.981722324361941,-11.826488943567924,1.198123165204406,29.073548757453036
-0.2026,0.9643,0.0954,-0.4882,0.1567,0.0307,-2.905,0.8575,-14.2537,5.131760129970289,-11.820201942062758,1.2654109846700512,29.075401155253516
-0.204,0.9669,0.0959,-0.4866,0.1583,0.0302,-2.38,1.2075,-14.7,5.233250363791886,-11.838911914505022,1.32357009104145,29.077226655416847
-0.2028,0.965,0.0999,-0.4866,0.1583,0.0302,-2.4938,1.1812,-14.8487,5.306708187811147,-11.82169908903605,1.3554936917554152,29.07905073991507
-0.2011,0.964,0.098,-0.487,0.1593,0.0317,-3.2375,1.155,-14.3587,5.497692658118255,-11.782432413798533,1.4024072829742802,29.080867392171445
-0.2016,0.9634,0.0942,-0.4866,0.1602,0.0317,-3.325,1.2075,-14.0525,5.533743837581016,-11.777567829425866,1.4660985569726916,29.082682628762708
-0.2039,0.9651,0.095,-0.4866,0.1602,0.0317,-2.8963,1.155,-14.0087,5.553054835477352,-11.801498350797843,1.5052786955620174,29.084525470823674
-0.1994,0.9664,0.0959,-0.4872,0.1588,0.0301,-3.6138,1.2337,-14.1225,5.610055014097704,-11.740417968717708,1.5231215508966471,29.086346016159112
-0.202,0.9667,0.1012,-0.4872,0.1588,0.0301,-2.5988,1.05,-14.2625,5.616064467404622,-11.740353175004335,1.5225162054222416,29.088321222908153
-0.2036,0.9639,0.0996,-0.4868,0.157,0.0279,-2.8963,1.2425,-14.5687,5.678196141787895,-11.799362998129979,1.4823344056457435,29.09017468245747
-0.2045,0.9646,0.0943,-0.4869,0.1585,0.0362,-2.7388,1.3475,-14.7087,5.667804201593902,-11.857845391664522,1.6909267633426126,29.092033450750957
-0.2025,0.9649,0.0971,-0.4869,0.1585,0.0362,-2.5638,1.3912,-14.4025,5.671669231486196,-11.831258172807393,1.8481271813858975,29.093909560942084
-0.2009,0.9662,0.0983,-0.4889,0.1569,0.0308,-2.5463,1.2163,-14.2012,5.680569133157431,-11.781843450635698,1.815467636016893,29.095805490444793
-0.2029,0.9648,0.0914,-0.4889,0.1569,0.0308,-3.1763,0.7525,-14.1138,5.5839779369914995,-11.794921958521131,1.8076860648691486,29.097640900263915
-0.2044,0.9667,0.0975,-0.4858,0.159,0.0279,-3.4825,1.2075,-15.12,5.665393081027005,-11.845325861301168,1.7299560024714289,29.099489051069057
-0.2061,0.9679,0.1031,-0.4858,0.159,0.0279,-2.9225,0.6737,-14.5687,5.762825829882924,-11.897028648663596,1.6026670173775148,29.101320213892844
-0.2026,0.9651,0.0982,-0.4858,0.1578,0.03,-2.5375,1.0587,-15.0412,5.766232213007217,-11.839072109942055,1.6009632120654378,29.102868243694008
-0.202,0.9664,0.0992,-0.4861,0.1573,0.0315,-2.5463,1.1725,-14.805,5.7723530553401465,-11.789851392608709,1.6173948473343942,29.104129601309776
-0.2035,0.9658,0.0964,-0.4861,0.1573,0.0315,-2.4675,1.1725,-14.9275,5.7630289050828205,-11.818459099579744,1.6384574466000648,29.10534353414425
-0.2025,0.9663,0.1028,-0.4855,0.1579,0.0291,-2.5375,1.1725,-14.84,5.785422139276155,-11.793059960668815,1.602907247772503,29.106542956411317
-0.2001,0.9646,0.1006,-0.4855,0.1579,0.0291,-2.835,0.9275,-14.9625,5.815760194609624,-11.717086247356344,1.5882333567160956,29.107734592520263
-0.2036,0.9649,0.0947,-0.4849,0.1566,0.0325,-3.08,0.805,-14.7875,5.749017557075053,-11.792054851188468,1.6463032380068308,29.108923397298984
-0.2032,0.9672,0.0966,-0.4843,0.1583,0.0309,-3.15,1.3387,-14.3325,5.733181526056591,-11.79823790210721,1.6586571659226326,29.1101122020777
-0.2003,0.9663,0.0994,-0.4843,0.1583,0.0309,-3.5263,1.4088,-15.2775,5.799906464938971,-11.707614987432953,1.6543403281731495,29.111294282447133
-0.2043,0.9642,0.0987,-0.4845,0.1582,0.0302,-3.1937,0.8925,-14.5075,5.816319405819103,-11.796101745080092,1.645639505473791,29.112481317644463
-0.2026,0.9661,0.0986,-0.4845,0.1582,0.0302,-3.0888,0.7525,-14.6037,5.819885614066387,-11.790441886210965,1.6319502009937992,29.11367012242318
-0.2015,0.9653,0.101,-0.4864,0.159,0.0311,-3.0013,1.0237,-14.3937,5.862558645368762,-11.764634310959616,1.6318140683447506,29.11486034286701
-0.203,0.9658,0.1049,-0.4878,0.1579,0.0301,-2.7738,1.1725,-14.2625,5.908523952678693,-11.778662368849854,1.6062006124904866,29.116045962399227
-0.2028,0.967,0.0967,-0.4878,0.1579,0.0301,-2.7213,1.0237,-14.2275,5.889583545667217,-11.781733105523667,1.606122221452612,29.117235121094225
-0.2026,0.964,0.0961,-0.487,0.158,0.0299,-2.6075,1.0237,-14.7525,5.888026354399513,-11.797406700151495,1.6058844200168485,29.11853505558432
-0.201,0.9666,0.0997,-0.487,0.158,0.0299,-2.9838,1.0762,-14.245,5.888275155409991,-11.75735570452519,1.6009055038114461,29.11982897349769
-0.2026,0.965,0.0916,-0.4868,0.1582,0.0278,-2.4763,0.8312,-14.3062,5.831355769851217,-11.77587776869906,1.5748032043447657,29.12103936716938
-0.2038,0.9648,0.0965,-0.4853,0.1586,0.0302,-2.8525,0.8312,-15.0325,5.80844244637924,-11.83003689332613,1.580000585912277,29.122237373771338
-0.2024,0.9651,0.0966,-0.4853,0.1586,0.0302,-2.6863,1.3125,-14.3762,5.8023210933726865,-11.812398571605398,1.586333352071266,29.123426886382614
-0.2061,0.9662,0.0989,-0.4885,0.1585,0.0302,-2.52,1.2512,-14.6037,5.8059910579438965,-11.893205358832814,1.5808557760779534,29.124635864389194
-0.207,0.9662,0.0991,-0.4885,0.1585,0.0302,-3.465,1.1112,-14.3325,5.829036447817763,-11.947732306513597,1.578460711409365,29.125825377000467
-0.2036,0.964,0.1009,-0.4874,0.1585,0.0307,-3.0188,1.4175,-14.7525,5.871067406566597,-11.903766328026052,1.5777587173271101,29.127023383602424
-0.2033,0.9638,0.0975,-0.4862,0.1587,0.0302,-2.555,1.19,-15.1812,5.8656744318937255,-11.872895988748265,1.5787198883392257,29.128262798408937
-0.2015,0.966,0.0991,-0.4862,0.1587,0.0302,-2.73,0.4462,-14.8925,5.864820944869338,-11.790523155663752,1.5715825314030853,29.129463990257392
-0.2023,0.964,0.0983,-0.4885,0.1588,0.0306,-2.6775,0.9363,-14.5338,5.8623425741355755,-11.791381244020194,1.5740641708177403,29.13068854058022
-0.2061,0.966,0.0967,-0.4885,0.1588,0.0306,-2.7213,1.3037,-14.4987,5.848383305550122,-11.87889694176719,1.5886847670490758,29.131900349917025
-0.2032,0.9665,0.103,-0.4858,0.1591,0.0315,-2.3975,0.9187,-15.1637,5.890382879199264,-11.836613112224777,1.5921634722781637,29.13309623302131
-0.2023,0.9653,0.0981,-0.4858,0.1591,0.0326,-2.87,1.05,-15.0587,5.872622802471634,-11.802241359464002,1.6009697638943414,29.134339186990605
-0.2011,0.9648,0.0989,-0.4908,0.1588,0.0326,-2.66,1.0412,-14.7262,5.871780036738955,-11.757241153768577,1.6066836211833835,29.13560054460637
-0.2034,0.9658,0.1073,-0.4861,0.159,0.0306,-2.555,0.9887,-14.7788,5.898457618845656,-11.79126181779794,1.6028516837326527,29.13683004975709
-0.2036,0.9661,0.0975,-0.4861,0.159,0.0306,-2.5375,1.12,-14.84,5.888647544502452,-11.818621629489119,1.6054672682189686,29.138026286777652
-0.2017,0.9651,0.096,-0.4862,0.1579,0.0294,-3.36,0.7613,-14.84,5.799863791256744,-11.780775301557282,1.5912176634505177,29.139217215054042
-0.2034,0.965,0.0996,-0.4862,0.1579,0.0294,-3.1063,0.9275,-14.0963,5.830451445537979,-11.798623361730803,1.581451273750855,29.140442119293144
-0.201,0.9652,0.0979,-0.4865,0.1585,0.0287,-3.255,0.8663,-14.3937,5.815331773349176,-11.75964027060216,1.5599259036975057,29.14163835631371
-0.2049,0.9661,0.0986,-0.4856,0.157,0.0304,-2.7913,0.7175,-14.4987,5.817139319735069,-11.82934965952036,1.571955858816511,29.142828222841263
-0.2011,0.9667,0.1002,-0.4856,0.157,0.0304,-3.2987,0.6038,-14.7525,5.8579435098646675,-11.757482523785923,1.575752143920063,29.144036139099008
-0.2023,0.9682,0.0956,-0.4878,0.1582,0.0293,-3.3075,0.9363,-14.315,5.76843972842058,-11.753138851398571,1.572361238760754,29.14525573459394
-0.2028,0.9658,0.0953,-0.4878,0.1582,0.0293,-2.8875,0.805,-14.7262,5.73998940651192,-11.778681695583808,1.5649424895908826,29.146453387279614
-0.2031,0.9654,0.0968,-0.4887,0.1589,0.0334,-2.9488,1.0237,-14.7525,5.736459866190181,-11.801623439955295,1.5688593652685714,29.147648562551343
-0.2013,0.9668,0.1009,-0.4871,0.1586,0.0299,-2.6513,0.9538,-14.77,5.744124046149622,-11.748519548108435,1.5645574021818969,29.14891770632523
-0.2169,0.9666,0.0986,-0.4871,0.1586,0.0299,-2.3888,0.9013,-14.6912,5.758963350153509,-12.169051074420764,1.5612700150992227,29.150125622582973
-0.2065,0.9653,0.0988,-0.4906,0.1582,0.0315,-2.345,0.8663,-14.9012,5.777059874586535,-12.083728620966143,1.5789755398947887,29.15132115177098
-0.2027,0.9665,0.0985,-0.4906,0.1582,0.0315,-2.4588,0.9975,-14.4287,5.78276237557745,-11.955822911910575,1.5809841273295022,29.15252588278222
-0.2047,0.9684,0.1015,-0.4858,0.1588,0.0304,-2.1175,0.6038,-14.5513,5.849475374247485,-11.916885396195887,1.5693615087669206,29.153740169532977
-0.2011,0.9664,0.0994,-0.4867,0.1566,0.0293,-2.5025,0.875,-14.5862,5.851818886071951,-11.811309454500087,1.5582064866248917,29.154929328227976
-0.2053,0.9628,0.0942,-0.4867,0.1566,0.0293,-3.1675,0.84,-14.6125,5.757988982782803,-11.893511327621615,1.5592795405914226,29.156129458327598
-0.2017,0.9656,0.0992,-0.487,0.1579,0.0296,-2.5025,0.7962,-14.2537,5.768917901362015,-11.836907567631135,1.5480928904475075,29.15733631283651
-0.2026,0.967,0.0977,-0.487,0.1579,0.0296,-2.7213,1.0412,-14.4725,5.768949827115252,-11.809432916331511,1.547514123058241,29.158547060424482
-0.2012,0.9623,0.0936,-0.4867,0.1589,0.0247,-3.2462,1.3212,-14.3675,5.686397243315184,-11.787422467135801,1.4269098661756896,29.159736926952036
-0.2025,0.963,0.0947,-0.4865,0.1581,0.0274,-3.15,1.2337,-14.175,5.661988926744686,-11.7981579615464,1.4089867567277659,29.160944489293502
-0.2039,0.9663,0.0995,-0.4865,0.1581,0.0274,-3.2113,1.1287,-14.8312,5.743024579890365,-11.82825600762109,1.3920215789236747,29.162138248900117
-0.1976,0.9633,0.0948,-0.4862,0.1574,0.0296,-3.6663,1.2862,-14.4987,5.680232835175335,-11.697408018752729,1.4328510330664292,29.16332634584628
-0.2027,0.9646,0.0956,-0.4862,0.1574,0.0296,-3.0975,1.0675,-14.7175,5.673656043505707,-11.755388161707847,1.4398590861033917,29.16458947304344
-0.2028,0.967,0.0976,-0.4857,0.1551,0.0302,-2.6863,1.4525,-14.7962,5.679590303835346,-11.771685607419036,1.4988310997527619,29.165819332110434
-0.2041,0.9671,0.0992,-0.4877,0.1578,0.0272,-3.5438,1.6013,-14.805,5.764812304970865,-11.816665934030473,1.3994398174357003,29.16700884472171
-0.2033,0.966,0.1008,-0.4877,0.1578,0.0272,-2.9575,0.9187,-14.3238,5.813825428989133,-11.818916821225047,1.3821128882879805,29.16819517208648
-0.1998,0.965,0.097,-0.4863,0.1575,0.0314,-2.9838,0.8312,-14.2537,5.793949277692675,-11.753766036722432,1.4379714122836076,29.169383269032647
-0.2014,0.9673,0.1028,-0.4863,0.1575,0.0314,-2.3625,1.3037,-14.14,5.848948080718875,-11.735954054982008,1.4838635894712187,29.170570304229972
-0.2027,0.967,0.0959,-0.487,0.1585,0.0301,-2.8,0.7525,-14.4025,5.8200845277088264,-11.755551735605376,1.5096975521639506,29.17175344634824
-0.2029,0.9638,0.0987,-0.487,0.1585,0.0301,-2.8525,1.1025,-14.1925,5.825263430270882,-11.78024476312147,1.5130591442132233,29.172935172801395
-0.2036,0.9656,0.0962,-0.4849,0.1582,0.0346,-3.15,1.47,-14.5862,5.777952999677025,-11.813255037676866,1.7017842530793863,29.17413282548707
-0.2073,0.9673,0.0929,-0.4854,0.1585,0.0292,-2.9925,1.3912,-14.7087,5.697988487159418,-11.929443994107244,1.6651507753941666,29.175324461596016
-0.2039,0.9656,0.0968,-0.4854,0.1585,0.0292,-2.3013,1.2425,-14.2012,5.704372665212011,-11.90760951459643,1.6331053385889334,29.17651645162124
-0.2017,0.9648,0.0981,-0.4906,0.159,0.0318,-1.9337,1.1375,-14.91,5.745502835255015,-11.820199809869008,1.644459332167571,29.1777045485674
-0.2027,0.9657,0.0932,-0.4906,0.159,0.0318,-2.4063,1.0587,-15.1462,5.705205020674909,-11.808769695160327,1.6524211563359226,29.17889583076007
-0.2026,0.9669,0.0991,-0.487,0.1582,0.033,-2.2488,0.7437,-15.2862,5.744577860010243,-11.787546024319878,1.7000988716184104,29.180463325956538
-0.2034,0.9654,0.0975,-0.4862,0.1604,0.0319,-2.8875,0.8838,-14.6737,5.749372513045967,-11.813274299590018,1.7066181630304669,29.181759367367576
-0.2045,0.9667,0.1002,-0.4862,0.1604,0.0319,-2.3363,1.4437,-14.7788,5.786102862867361,-11.849633146601148,1.7072279411423772,29.18298604118807
-0.2015,0.9658,0.0976,-0.4861,0.159,0.0323,-2.6775,0.7613,-15.1375,5.785191648508036,-11.776751699680409,1.7295529898178186,29.184182632124912
-0.2024,0.9661,0.0981,-0.4861,0.159,0.0323,-2.5113,0.7875,-14.8487,5.786406855667415,-11.775060266696638,1.7442290769643876,29.185400458038448
-0.2034,0.9639,0.0988,-0.4865,0.1585,0.0308,-3.0363,1.2337,-14.945,5.805950843480912,-11.81988797696076,1.7233763942269134,29.186599526389237
-0.2015,0.9653,0.0941,-0.4867,0.1577,0.0296,-3.0975,1.3562,-14.7962,5.728478088959006,-11.775988561499629,1.690186618007368,29.187790454665627
-0.2029,0.9676,0.095,-0.4867,0.1577,0.0296,-3.0013,1.2075,-14.9012,5.6947664242825775,-11.78254695552964,1.6723980824822797,29.18899235434664
-0.2026,0.9646,0.0991,-0.4875,0.1627,0.0288,-3.1937,1.0762,-14.3413,5.75743237759306,-11.790044817918233,1.653203675018841,29.190198501022994
-0.2021,0.9649,0.0976,-0.4875,0.1627,0.0288,-2.485,0.9625,-14.5425,5.759557580301349,-11.781360709149558,1.6398452216400952,29.19139190671333
-0.2042,0.9658,0.0986,-0.4834,0.1588,0.0318,-2.9313,1.1987,-14.385,5.776277173655175,-11.821508098945314,1.657787910735235,29.192615041371045
-0.2029,0.9666,0.0975,-0.4868,0.1575,0.0347,-2.7475,1.1638,-13.8162,5.774365767186463,-11.818501897934075,1.7162752712537401,29.193821188047398
-0.2031,0.9634,0.0994,-0.4868,0.1575,0.0347,-2.7913,0.9975,-14.6037,5.791763984699119,-11.830498502070405,1.7216869480194004,29.195021318147024
-0.1998,0.9664,0.1028,-0.4868,0.16,0.0306,-2.8087,1.1462,-14.84,5.8371357658611185,-11.715966032893455,1.6978170894133795,29.196277367018613
-0.2038,0.9659,0.0962,-0.4868,0.16,0.0306,-2.275,1.155,-15.1025,5.799175838098315,-11.79904583685607,1.6906094634527475,29.19756951535059
-0.2067,0.9665,0.092,-0.4866,0.1594,0.0341,-2.4413,1.3037,-14.6737,5.745528771803921,-11.90874764244953,1.7866190776909645,29.198789818678073
-0.2035,0.966,0.0978,-0.4874,0.1586,0.0287,-2.6425,1.1112,-14.3762,5.746463358381859,-11.879392494327861,1.7532998737742436,29.200004459345106
-0.2001,0.9654,0.101,-0.4874,0.1586,0.0287,-2.59,0.8575,-14.42,5.75208130195494,-11.780908098321742,1.6993391518720693,29.201211667770295
-0.2049,0.9656,0.0956,-0.4878,0.1594,0.0315,-2.6163,1.0062,-14.665,5.752001290769758,-11.85188976717964,1.6997285542718363,29.202427724102442
-0.2014,0.9662,0.0947,-0.4878,0.1594,0.0315,-2.4675,0.9975,-15.0412,5.732129221547056,-11.775727551647597,1.700869019363086,29.203623607206726
-0.2031,0.9657,0.1004,-0.4865,0.1582,0.0319,-2.905,0.8487,-14.5775,5.777787255215065,-11.79437868077097,1.7048850616435458,29.20481347373428
-0.2017,0.9657,0.0975,-0.4865,0.1581,0.0351,-2.9575,1.2425,-15.0675,5.774584259488099,-11.762418792291568,1.7864129704379608,29.20602068215947
-0.2003,0.9669,0.1003,-0.4855,0.1581,0.0351,-2.695,1.4962,-14.4025,5.785466155705736,-11.71221947472448,1.8875454096262965,29.20720948693819
-0.2081,0.966,0.0981,-0.4852,0.157,0.0303,-2.5638,1.2163,-14.84,5.786114887027278,-11.918879264026547,1.840904250662951,29.20839793780063
-0.2016,0.9648,0.0937,-0.4852,0.157,0.0303,-3.0013,0.9625,-15.1112,5.719568710466431,-11.818647451079332,1.8336586910516168,29.209598421816533
-0.2017,0.9653,0.0979,-0.4877,0.1599,0.0232,-2.66,1.1812,-15.0937,5.722617143979722,-11.774681983777787,1.6821919419068483,29.210796428418487
-0.2028,0.9665,0.0942,-0.4877,0.1599,0.0232,-2.065,1.2163,-14.5338,5.6672800165585295,-11.784554082233214,1.5419115177866938,29.212040444136615
-0.2033,0.9653,0.0978,-0.4869,0.1585,0.0296,-2.3275,1.2425,-14.3762,5.693650051941827,-11.804996870287983,1.5368357875824177,29.213249776059477
-0.2058,0.9696,0.1,-0.4854,0.1574,0.0309,-2.1525,1.12,-14.665,5.755281194118283,-11.863068602791268,1.5472851086972714,29.21451927374964
-0.2073,0.9598,0.0946,-0.4854,0.1574,0.0309,-3.4213,1.015,-14.2975,5.6989379429447995,-11.965409152857433,1.547583933025299,29.21573037525389
-0.1882,0.9733,0.0991,-0.4854,0.1595,0.0342,-2.765,0.9275,-14.28,5.713870053329395,-11.560931971947728,1.5847044570919908,29.216924842693064
-0.1953,0.9744,0.0969,-0.4854,0.1595,0.0342,-2.3363,1.5487,-13.9038,5.706293088022791,-11.509115047126981,1.7498737096824362,29.21812461887641
-0.2078,0.9594,0.0968,-0.4872,0.1586,0.0269,-3.5088,0.7613,-14.5162,5.732312718148459,-11.806445903577565,1.6427619710664516,29.21936226410153
-0.214,0.9618,0.1005,-0.4883,0.1586,0.0283,-3.5263,1.05,-14.3762,5.843359183422386,-12.082576593766557,1.630861746206372,29.220562394201153
-0.1935,0.9689,0.092,-0.4883,0.1586,0.0283,-3.185,0.7962,-13.6763,5.691242736372774,-12.081026100672123,1.6039166580082114,29.221766771296117
-0.1979,0.9603,0.0902,-0.4871,0.159,0.0296,-3.185,0.4812,-14.035,5.573221098923157,-11.953184534450832,1.616934775718009,29.22297362580503
-0.2026,0.9627,0.0985,-0.4871,0.159,0.0296,-2.485,1.085,-14.3325,5.604240374488131,-11.90227698288782,1.608460977744852,29.224167385411643
-0.2069,0.9722,0.0979,-0.4845,0.1604,0.0234,-2.3712,1.4088,-15.2075,5.632909213884483,-11.934473639856586,1.3833220869011011,29.22536680767871
-0.4141,0.9688,0.1663,-0.4844,0.1575,0.0314,0.9538,0.1925,-12.3025,8.841321833942462,-18.252040888044622,0.9780998163618259,29.226579324848075
-0.1526,0.7817,0.1305,-0.4844,0.1575,0.0314,11.2087,-6.9825,-5.0487,9.434839862356245,-11.662560802097419,0.615613446281316,29.227832896305717
-0.1017,0.8118,0.0461,-0.4906,0.1593,0.0276,2.9138,-4.1475,-0.1837,4.1974047493128905,-7.442043544698443,1.8536326839108566,29.229069479782
-0.2547,0.9502,0.0614,-0.4906,0.1593,0.0276,-8.0587,5.7663,-5.1188,3.774830314461486,-14.187429394936983,1.907556714405759,29.230304293676898
-0.1979,1.0702,0.1038,-0.4881,0.1588,0.0315,-1.4875,5.2063,-17.5263,4.710421225683984,-11.204116542193189,1.8225646133888205,29.231522119590434
-0.144,0.9435,0.0795,-0.4894,0.161,0.0281,-4.8213,3.7975,-14.5513,4.783346664660182,-10.012388759343407,1.6823675633450998,29.232714463531938
-0.151,1.0201,0.0996,-0.4894,0.161,0.0281,-1.1462,-0.8663,-9.6775,5.255315833336323,-8.707047420555522,1.4913099311045135,29.233959540998903
-0.0691,1.0894,0.0356,-0.4902,0.1579,0.0279,-0.9538,-5.0662,-8.9775,3.1429173852041203,-4.518500453981493,2.448966031160539,29.235173827749655
-0.1638,0.9101,0.0692,-0.4902,0.1579,0.0279,-7.4113,2.625,-24.955,4.140203314953007,-9.713450132470129,2.034623088822451,29.23640687206316
-0.2459,0.9848,0.1326,-0.4871,0.1598,0.0286,-6.4138,1.5487,-26.4337,6.933230036132644,-13.5950083426603,1.599186081663668,29.23762399014414
-0.233,0.9406,0.0972,-0.4871,0.1598,0.0298,-3.6488,-2.345,-19.74,6.408102138152096,-13.807076297342995,1.5069286197538616,29.238883578178513
-0.2374,0.9277,0.1311,-0.4869,0.1593,0.0298,-2.7475,-1.68,-11.4275,6.5988390015828475,-14.091993186951408,0.9971706096792345,29.240098572761827
-0.2833,0.9196,0.1825,-0.4881,0.1579,0.0281,-1.3912,-1.9862,-9.8962,9.145065546155552,-16.244409723062585,0.0162401202896848,29.241326662247435
-0.347,0.9073,0.1325,-0.4881,0.1579,0.0281,-3.7975,-4.0425,-11.3925,8.691950253216344,-19.363827608691167,0.4621645997537617,29.242566077053944
-0.3579,0.9356,0.1302,-0.4894,0.159,0.022,-1.0062,-9.8612,-16.5025,8.21739956294143,-20.388206303783466,0.02611682570851736,29.243789565627935
-0.3421,0.94,0.1438,-0.4894,0.1587,0.0214,-0.455,-14.4112,-16.345,8.545664413427883,-19.95040789118425,0.29578421510281117,29.245018362946098
-0.3394,0.9307,0.1756,-0.4873,0.1587,0.0214,2.5288,-22.855,-14.2012,10.33655567230998,-19.86959848087994,0.9122481760298093,29.246273703985135
-0.2134,0.9302,0.0868,-0.4844,0.161,0.0242,5.3638,-32.025,-13.1337,5.888473030085511,-17.40095614841234,0.972481091625483,29.247501085638184
-0.1408,0.9714,0.0565,-0.4844,0.161,0.0242,5.5213,-34.1162,-12.6262,3.608924838175229,-12.70122336863901,1.668020586976694,29.248729175123792
-0.1886,0.8552,0.067,-0.4854,0.1611,0.0192,5.495,-28.3412,-14.1487,4.384071168549562,-12.604754743311082,0.7690253055563746,29.249951955865225
-0.1819,0.9037,0.1125,-0.485,0.1614,0.0128,15.7937,-18.375,1.19,6.956411184704074,-11.378203871622128,0.7394751289398664,29.251159872122972
-0.1873,0.8909,0.153,-0.485,0.1614,0.0128,27.8337,-20.0462,13.6588,9.656053420924335,-11.694655692246737,1.617378226625144,29.252408488752717
-0.1158,0.9632,0.1662,-0.4906,0.1645,0.007,37.0475,-22.2775,26.6788,9.786682919277599,-6.875940177559425,2.351363679116605,29.25362914599648
-0.0851,0.8653,0.0966,-0.4906,0.1645,0.007,44.6512,-21.6212,34.6937,6.440774622142116,-5.608570968689999,1.3282939737859514,29.254882717454127
-0.0588,0.8838,0.106,-0.5003,0.1664,-0.0038,52.6662,-18.7512,36.9863,6.832115470512241,-3.8147300145620733,2.584225226479459,29.256127087088533
-0.0406,0.9701,0.1055,-0.5056,0.1714,-0.0086,57.5838,-14.9975,33.985,6.216840907510367,-2.411908546048452,3.000410602291327,29.25738809078802
-0.0306,0.925,0.043,-0.5056,0.1714,-0.0086,51.5988,-11.0775,29.8113,2.725953918411207,-1.9043439113920202,1.9426186580745144,29.258637061334046
-0.1186,1.1427,0.0056,-0.5105,0.1729,-0.0178,49.3587,-10.64,27.9913,0.3269434148210939,-5.831163148604999,2.024775172022534,29.259909744270715
-0.005,0.8423,-0.0504,-0.5105,0.1729,-0.0178,50.2775,-10.7712,23.52,-3.3546717838204465,-0.4832714903649571,0.9266034551087401,29.261171809719038
-0.0456,0.8691,-0.0746,-0.5144,0.1771,-0.0278,53.5675,-5.3638,15.645,-4.878881428061469,-2.9097130451015625,1.3140259311346698,29.26244201524176
-0.1144,0.9812,-0.0114,-0.5204,0.1809,-0.0378,61.3288,-3.1238,27.8075,-0.7305312975560523,-6.561724818801804,3.313408805365218,29.26368780054128
-0.146,0.9504,0.0099,-0.5204,0.1809,-0.0378,76.685,-14.0175,34.3525,0.5802797777362431,-8.688726649309254,4.134536007656712,29.264949512073326
-0.1182,1.1747,0.1547,-0.5262,0.1874,-0.0521,85.3213,-18.2437,35.63,7.424461529636581,-5.75645085563176,7.812885769531409,29.266181494637994
0.1701,0.9543,-0.2065,-0.5262,0.1874,-0.0521,67.2438,-17.0538,21.8838,-11.932834901852694,9.454792177707962,1.6728761574560902,29.267431173016575
-0.2658,1.0766,-0.0237,-0.5308,0.19,-0.0614,80.885,-10.6837,6.8338,-1.3873832147962402,-12.7810513828699,5.493682367358855,29.26871305777648
-0.0761,0.8834,-0.0703,-0.5294,0.1937,-0.0714,43.54,-33.8013,0.9713,-4.482879903857462,-5.4111979703904,5.842525199367105,29.269941147262088
-0.0003,0.9478,-0.1843,-0.5294,0.1937,-0.0714,33.18,-46.095,4.4888,-10.826642031964905,-0.2991923249657221,3.6258976068982247,29.271203920542966
-0.0198,0.9384,-0.1645,-0.5317,0.1949,-0.0777,38.4038,-35.8575,5.8975,-9.963866013728223,-1.1472741599417164,4.550155767742037,29.27243059436346
-0.0413,0.9963,-0.1752,-0.5317,0.1949,-0.0777,23.8612,-31.43,-8.1287,-9.973177232079646,-2.1561203454753666,4.532218770705999,29.273766274397662
-0.1777,1.1585,-0.1011,-0.5282,0.197,-0.0862,19.3463,-28.8575,-18.9175,-5.204585170668332,-7.641118058321433,7.004733567021649,29.275066208887758
-0.1513,1.1292,-0.0947,-0.5274,0.1983,-0.0874,-0.3588,-34.6237,0.245,-4.91998771857688,-7.607558754154114,7.30000205908918,29.27631376376867
0.1322,0.9304,-0.3375,-0.5274,0.1983,-0.0874,3.9463,-42.455,10.3512,-17.9520440095152,7.000210702175827,1.811742036468116,29.277518140863634
0.2413,0.9083,-0.4057,-0.529,0.2008,-0.0896,1.4525,-31.0625,7.245,-22.86148773869025,13.331963331780823,0.04500270117777831,29.278722871874876
0.1643,0.8792,-0.388,-0.5296,0.2006,-0.0872,-8.3737,-1.2687,-11.0687,-23.671662111032152,10.707570924900644,0.0859641732518061,29.280028822941702
0.0903,1.0039,-0.3053,-0.5296,0.2006,-0.0872,-16.2925,22.9687,-24.4387,-17.37558811387596,5.410856587576625,2.6921375375620324,29.281274962157504
0.0013,0.9709,-0.1896,-0.53,0.1979,-0.0813,-21.91,36.7062,-22.015,-11.361512522567779,0.6467469498561762,4.468779843179421,29.282617720517273
-0.0884,1.1615,-0.1397,-0.53,0.1979,-0.0813,-34.8425,39.97,-18.1212,-6.993861754764351,-3.408550250646909,5.952153810323788,29.283894296533003
-0.1331,1.108,-0.071,-0.5323,0.1957,-0.0784,-39.27,44.5988,-16.9312,-3.7548339567665856,-6.030136095091638,6.766992803240266,29.28518325961847
-0.1805,1.0917,-0.0135,-0.5371,0.1969,-0.0716,-36.4875,36.1813,-11.06,-0.7958434447040951,-8.459619926407985,7.006696704054061,29.28646054346676
0.0283,0.9699,0.1283,-0.1561,0.145,0.0257,-3.2375,-0.4025,-13.965,2.3990677736781034,-6.204586363098695,1.4713985278538753,29.289172603907165
0.0241,0.9699,0.1269,-0.1561,0.145,0.0257,-3.5525,0.0263,-14.7087,4.844419284948519,-2.339326847331718,0.5043894712031395,29.29037273400679
0.0211,0.9675,0.1318,-0.1566,0.1438,0.0267,-3.7888,0.3763,-15.1812,6.4171170914268485,-0.1912355912080067,1.3313600107854877,29.29156543186457
0.0229,0.9629,0.131,-0.1566,0.1438,0.0267,-3.6663,0.5163,-14.6125,7.0987273282988514,0.553197058882043,1.7672315890635797,29.29275636014096
0.0207,0.9615,0.1318,-0.1575,0.1434,0.0256,-3.1063,1.3125,-15.0412,7.3313555895436915,0.9389161967482799,1.8633131862469627,29.29393454743133
0.02,0.9634,0.1307,-0.1549,0.1428,0.0252,-3.4213,1.0062,-14.9975,7.507407705377694,1.0751940790943608,1.8655333274064807,29.295121582628656
0.0234,0.9612,0.1247,-0.1549,0.1428,0.0252,-2.975,1.4175,-14.4637,7.476863681960833,1.2106038104761736,2.0492551118234923,29.29630932565854
0.0241,0.9631,0.1274,-0.1552,0.1443,0.0259,-3.5088,1.3475,-13.965,7.504484573669688,1.2575157818073643,2.175150084476538,29.2975186575814
0.0259,0.9679,0.1261,-0.1552,0.1443,0.0259,-2.7913,1.6013,-14.5425,7.492270943427579,1.3791948267981482,2.356540404319804,29.298691182211318
0.0295,0.9742,0.1272,-0.1567,0.1451,0.0235,-2.7037,1.9775,-14.3675,7.487948466671655,1.5182084884943021,2.0339571802947263,29.29987963307376
0.0302,0.9825,0.1291,-0.1572,0.1442,0.025,-3.4213,2.0213,-13.195,7.486967570371539,1.5922846729420408,2.142800004667645,29.30109285807568
0.0311,0.9764,0.1274,-0.1572,0.1442,0.025,-3.8675,2.4588,-13.44,7.457473685892592,1.6339742556160564,2.237411293819754,29.30227529236139
0.0129,0.9576,0.1325,-0.157,0.1421,0.0247,-4.2438,2.9488,-13.6763,7.717884301223327,1.632365255869273,1.977604935682664,29.30351293758651
0.0087,0.9511,0.133,-0.157,0.1421,0.0247,-3.955,2.1088,-13.4225,7.856803200324802,1.405689158789024,1.86357356764224,29.304717668597753
0.0099,0.9531,0.1307,-0.1582,0.1438,0.0285,-2.275,1.0237,-14.455,7.844496567547864,1.0488914773492062,1.8770669473436177,29.30594611199964
0.0163,0.9599,0.1303,-0.1582,0.1438,0.0285,-1.8725,0.2362,-14.9362,7.7958050076011185,1.001596882367846,2.486474855228361,29.30714093335509
0.0211,0.9684,0.1283,-0.1578,0.1466,0.0253,-2.1438,-0.1138,-15.1988,7.71605201429962,1.1438413716262328,2.312947900783778,29.308405122301078
0.0281,0.9782,0.1302,-0.1559,0.145,0.0261,-2.5725,0.2888,-15.295,7.710511089336904,1.4448762016802694,2.4105037480237383,29.309599235823974
0.0317,0.9833,0.1274,-0.1559,0.145,0.0261,-2.415,0.595,-15.0762,7.655704243346954,1.670093777063663,2.5099569426743265,29.310809983411946
0.0307,0.9795,0.1332,-0.157,0.1443,0.025,-3.5875,1.1287,-14.9275,7.699236209464265,1.7304969264441619,2.457465739766875,29.312013298758075
0.0264,0.973,0.1327,-0.157,0.1443,0.025,-4.3225,1.6013,-14.7525,7.741473689598558,1.6318099712534557,2.278110826776005,29.313250236150637
0.0228,0.962,0.1346,-0.1574,0.145,0.0286,-4.5325,1.6712,-14.5075,7.8883303753456175,1.5016008977457238,2.5891180990895295,29.314448242752594
0.0192,0.9573,0.1288,-0.157,0.1433,0.0269,-4.375,2.4763,-14.4112,7.7445584412450375,1.3481156623671164,2.717928529178197,29.315633508368528
0.0175,0.9551,0.1344,-0.157,0.1433,0.0269,-4.1388,2.7037,-14.3413,7.904785224985427,1.2250440483677172,2.564959237266684,29.316825852310032
0.0218,0.9612,0.1406,-0.1574,0.1447,0.0258,-4.3575,2.2488,-13.9562,8.169811809663784,1.2382115213532037,2.089515797808978,29.31800580918179
0.0228,0.9629,0.1362,-0.1574,0.1447,0.0258,-3.92,2.4938,-13.5975,8.10252621674913,1.2460367476260559,2.0150429250411204,29.319855375652047
0.0231,0.9635,0.1389,-0.1571,0.1453,0.028,-4.165,2.8175,-13.5887,8.163804646419287,1.2553416777126059,2.3934272592124706,29.33205734717807
0.0181,0.9648,0.1392,-0.157,0.1442,0.026,-4.5675,2.9138,-13.16,8.19428608915826,1.189950953590346,2.0761094044790664,29.344868408618996
0.0223,0.9615,0.1466,-0.157,0.1442,0.026,-3.9813,3.3513,-13.1512,8.468418121684158,1.2325688864921072,1.658431601730952,29.35697694624755
0.0182,0.9664,0.1367,-0.1577,0.143,0.0274,-3.185,3.43,-13.755,8.317037994234571,1.2208448311708668,2.341332162040179,29.368973646332172
0.0133,0.9663,0.1387,-0.1577,0.143,0.0274,-3.045,3.255,-14.4112,8.272342858839185,1.0346131468826314,2.452642998402155,29.381085723123512
0.0164,0.9653,0.1413,-0.1585,0.1438,0.025,-3.0625,3.2288,-14.0963,8.289467565352643,1.0135195197464275,1.7515960922285223,29.39046733582797
0.0127,0.9652,0.139,-0.1585,0.1438,0.025,-2.9925,2.8788,-14.14,8.26357963873509,0.92904905224351,1.622782385647266,29.402549329735656
0.0073,0.965,0.1431,-0.1572,0.1431,0.029,-2.555,2.9138,-14.5513,8.273352218427489,0.6958322637464585,2.408701404651465,29.41453930541099
0.0027,0.9642,0.1384,-0.1586,0.1447,0.0266,-2.2838,2.2313,-15.015,8.247203600585292,0.38861891337073634,2.233257193468251,29.42660254175593
0.0056,0.9618,0.1347,-0.1586,0.1447,0.0266,-2.2225,1.33,-15.0237,8.169681393847435,0.3552049656912693,2.2438730270229272,29.438823978677252
0.0044,0.9637,0.1414,-0.1569,0.1436,0.0266,-2.4413,1.2337,-14.5687,8.196019307854028,0.3098046868451695,2.2008630814968426,29.4479712988055
0.0068,0.9643,0.1362,-0.1569,0.1436,0.0266,-2.31,0.7788,-14.5162,8.159373207758097,0.3509551610812776,2.2193356917375477,29.460032411652765
0.0115,0.9656,0.1377,-0.1578,0.1446,0.0225,-1.855,0.595,-14.4637,8.140628333617878,0.49374190517572264,1.766197069261238,29.472056009374537
0.0129,0.97,0.1368,-0.1607,0.1432,0.031,-0.945,0.9887,-13.4663,8.069884105416536,0.5393209578431891,1.8164036126927972,29.484174810575162
0.0151,0.9711,0.1365,-0.1607,0.1432,0.031,-1.9425,-0.3237,-13.2388,8.042256177288388,0.6439738488460124,3.0012113251471058,29.496252557487505
0.0159,0.9687,0.1355,-0.1586,0.1431,0.0253,-2.66,-0.0438,-12.9062,8.038868218216043,0.7691431350174902,2.4447633424011688,29.50837595959975
0.017,0.9675,0.1315,-0.1586,0.1431,0.0253,-2.5375,0.2275,-12.7575,8.017252135015474,0.8785924407652977,2.30514098672347,29.51762237628591
0.0191,0.9649,0.1294,-0.1603,0.143,0.0194,-1.8288,0.07,-12.9237,7.8503549197433475,0.9841020122232941,1.2251713102241357,29.529786832686433
0.0187,0.9629,0.1346,-0.1603,0.143,0.0194,-2.0213,-0.0438,-12.0837,7.8903227250849355,1.0564730927352999,0.4864473205389345,29.541824940975612
0.0189,0.9622,0.1333,-0.1599,0.1444,0.0269,-2.5813,0.1138,-12.4162,7.890224931359066,1.0889269196343785,1.435594700598327,29.553857386604342
0.0225,0.9637,0.1316,-0.1606,0.1424,0.0258,-2.0563,0.385,-13.16,7.849275131957606,1.1695602422667626,1.7665485397999978,29.56586824334009
0.0148,0.9785,0.1295,-0.1606,0.1424,0.0258,-2.2313,0.7,-12.3025,7.763163863374475,0.9897575154162452,1.9395818250316965,29.57794386675477
0.0155,0.9792,0.1286,-0.161,0.1426,0.0253,-2.0563,0.1488,-12.5562,7.6623034196919475,0.9418518956259868,2.1303774945575444,29.587346006603372
0.0178,0.9767,0.1269,-0.161,0.1426,0.0253,-2.3975,0.315,-12.3987,7.615863054256242,0.9943481519624906,2.252927573133654,29.599323595208965
0.0172,0.976,0.1258,-0.1582,0.1436,0.0257,-2.6513,0.875,-12.0312,7.606481407696722,0.9986949976584178,2.2979960912183572,29.611364180912094
0.0179,0.977,0.1273,-0.1605,0.1427,0.0246,-2.625,0.8838,-11.2087,7.6047574913283675,1.0286818563303688,2.2822898579881428,29.623363004494383
0.0217,0.9751,0.1301,-0.1605,0.1427,0.0246,-2.1,1.015,-10.7712,7.603019119125627,1.2035186110719482,2.2818301488754447,29.63544853756485
0.0252,0.9687,0.1298,-0.1605,0.1424,0.0256,-2.5113,0.7788,-10.5525,7.605737778778729,1.4106939668601164,2.2968565629805773,29.64749867900749
0.0237,0.9679,0.129,-0.1605,0.1424,0.0256,-3.395,1.2512,-10.0362,7.599519042533352,1.3947520720321096,2.3156384132466794,29.65686047240037
0.0249,0.9665,0.1307,-0.1607,0.1415,0.0247,-3.3688,0.805,-9.6337,7.643293112598294,1.4490556948273254,2.263275677555702,29.66883133659668
0.0253,0.9658,0.1284,-0.1607,0.1415,0.0247,-3.675,0.63,-9.5812,7.607069764374462,1.479948780500034,2.2263844227507583,29.68087723104398
0.0272,0.9645,0.131,-0.1626,0.1411,0.0281,-4.3838,0.7875,-9.2225,7.688582221562357,1.578557811490043,2.4051714553899926,29.692785452059034
0.0252,0.9661,0.1345,-0.1629,0.1399,0.0269,-3.6225,0.6737,-9.4062,7.807579956056684,1.4986237256841886,2.4658894670439637,29.704797016627342
0.0333,0.9622,0.129,-0.1629,0.1399,0.0269,-3.0888,0.2713,-9.1087,7.752453054317799,1.8808918466062354,2.661806489159684,29.714038124569328
0.0355,0.9598,0.1338,-0.1635,0.1418,0.0273,-3.6837,0.315,-8.1462,7.84731462911084,2.0647259519937857,2.678110895665423,29.726053228300422
0.0354,0.9593,0.1292,-0.1635,0.1418,0.0273,-3.3163,0.35,-8.54,7.774469754020465,2.0896251834117217,2.783703232127309,29.738035063901354
0.0396,0.9572,0.1321,-0.1658,0.1422,0.0311,-3.745,0.2713,-8.4,7.81854530190066,2.3058330360253687,3.33206186517344,29.750019376916235
0.0454,0.9556,0.1321,-0.1673,0.1418,0.0378,-3.8413,0.0963,-8.2862,7.847190293313153,2.6336596578521845,4.807990939884021,29.759254468281494
0.0475,0.9561,0.129,-0.1673,0.1418,0.0378,-3.6663,0.035,-8.5487,7.763635761047793,2.788489902655975,5.693259659514417,29.771217900235957
0.0513,0.962,0.1347,-0.169,0.1386,0.0268,-3.8063,-0.455,-8.0587,7.876228184630607,2.987616081395961,3.852283157030167,29.783324314366844
0.0614,0.9567,0.1378,-0.169,0.1386,0.0268,-3.6138,-0.28,-7.8313,8.03614367197833,3.540224301093273,3.047881124028031,29.79534260334444
0.0698,0.9584,0.1362,-0.1731,0.1366,0.0262,-3.1412,-0.5163,-8.4612,8.054098021541657,4.030257708028688,2.63538955894113,29.807415749345168
0.0742,0.9586,0.1343,-0.1731,0.1366,0.0262,-3.325,0.2538,-9.03,8.02136795814591,4.320948145166869,2.565055844182211,29.81935476107643
0.0779,0.9601,0.1376,-0.1696,0.1389,0.0272,-3.6488,0.35,-9.7125,8.08978724930624,4.537376208363723,2.5871476092045906,29.828623120571844
0.0836,0.9579,0.1395,-0.1717,0.1386,0.0272,-3.745,0.7175,-10.4912,8.19375282679387,4.840794920871663,2.5675393954668237,29.840802441456056
0.0869,0.9557,0.1421,-0.1717,0.1386,0.0272,-4.165,1.1638,-11.8737,8.35384828143212,5.032872360856645,2.5400815653440945,29.852734374861754
0.0806,0.9465,0.1402,-0.171,0.1376,0.028,-3.5088,1.8812,-13.5975,8.387727523517897,5.016614715670042,2.6236239551580414,29.864806105197367
0.0779,0.942,0.1402,-0.171,0.1376,0.028,-3.08,1.47,-15.1287,8.412338669642136,4.81506806211285,2.640863491566267,29.876792541709918
0.0788,0.9375,0.1371,-0.1705,0.1393,0.0269,-2.59,1.9512,-16.5987,8.410043138271906,4.769780789042267,2.494698086618416,29.886124960051703
0.0773,0.9432,0.1342,-0.1705,0.1384,0.03,-0.6825,1.8725,-19.075,8.204247936680584,4.659188604281921,3.044132242634882,29.898476992079708
0.0811,0.9522,0.1354,-0.1675,0.1384,0.03,0.3763,1.54,-21.8137,8.120893960112241,4.802349581959119,3.2946662433375375,29.910197991383555
0.0845,0.9614,0.1423,-0.169,0.1384,0.0267,-0.245,1.5575,-25.8125,8.330841787864845,4.956412889189741,2.9280888484069805,29.92224530149597
0.0794,0.9636,0.1329,-0.169,0.1384,0.0267,-0.9363,2.31,-28.6212,8.031171653914043,4.684699493400943,2.827487214949172,29.934284825450263
0.0734,0.9597,0.134,-0.1639,0.14,0.0279,-0.6563,3.465,-32.2612,7.976534626757602,4.349759599646534,3.022057935770784,29.94358893048978
0.0658,0.9561,0.1302,-0.1639,0.14,0.0279,-1.0675,3.8588,-34.7287,7.841784954887861,3.9214151094934184,3.1960401561061134,29.955885043745823
0.061,0.9514,0.1365,-0.164,0.142,0.0299,-1.1812,4.0862,-37.87,8.032027543491244,3.6429818753892236,3.4200034816442217,29.967731329412178
0.056,0.9478,0.1358,-0.1578,0.1457,0.0249,-1.0062,4.06,-40.1712,8.107129739109494,3.3579967963954194,1.9988879990465305,29.979698300529424
0.0531,0.9492,0.1322,-0.1578,0.1457,0.0249,-1.5225,3.8588,-42.0438,8.014043089454788,3.1777032889535666,1.8145622796950995,29.992040422901642
0.038,0.955,0.1354,-0.1517,0.1478,0.0242,-1.3212,4.3663,-44.0125,8.045394611412034,2.285503173915811,1.389944121954558,30.003831851544863
0.0362,0.9547,0.1316,-0.1517,0.1478,0.0242,-0.8575,4.3925,-45.535,7.919852109054369,2.155249308955957,1.4652790103362194,30.013143034909948
0.0302,0.9562,0.1293,-0.1501,0.1478,0.021,-1.0325,4.9088,-46.0687,7.785717423838481,1.8035448378335013,0.6145104506503971,30.02519353026887
0.0243,0.954,0.1281,-0.1422,0.151,0.023,-1.1812,4.7075,-46.3488,7.704424053550966,1.4567470332758836,1.0110710559435259,30.037211819246465
0.0241,0.9528,0.1294,-0.1422,0.151,0.023,-0.84,4.5675,-46.3312,7.7233665425974936,1.4363723838324567,1.02034667346092,30.049307615889003
0.0224,0.956,0.1275,-0.1363,0.1541,0.0243,-0.8487,4.8213,-46.9,7.642421297403058,1.3335679622671206,1.4828709697673095,30.061340769350284
0.0124,0.962,0.1282,-0.1363,0.1541,0.0243,-1.82,5.0138,-47.3025,7.61952500464587,0.7493937631075783,1.5696840394043705,30.073400820448718
0.0124,0.9653,0.1323,-0.1296,0.1555,0.0266,-1.9425,5.1538,-48.4925,7.693772487241025,0.7297161603499882,2.1993059094183023,30.08276969216716
0.0048,0.9633,0.1252,-0.1296,0.1555,0.0266,-2.2575,4.9088,-50.8725,7.6177051596828615,0.29480687188685273,2.690028521492693,30.09472356838211
0.0,0.9609,0.1221,-0.1252,0.1591,0.0262,-2.835,5.7225,-52.4125,7.550017784511143,0.007419446941113682,2.7100841146924712,30.10639112632794
-0.0085,0.9553,0.1313,-0.1202,0.1619,0.0226,-2.8263,6.0462,-54.0312,7.5980543875265045,-0.49264876410945824,0.584641693329269,30.118418263212494
-0.0093,0.9519,0.1267,-0.1202,0.1619,0.0226,-2.9925,6.1775,-57.645,7.5935581237707614,-0.5534814004484506,0.5053873888365359,30.13065739594773
-0.0193,0.9489,0.1243,-0.1106,0.1665,0.0226,-2.5988,5.8888,-60.165,7.591414220224986,-1.1426561885739397,0.4125995851543599,30.142865030134203
-0.0246,0.9475,0.1218,-0.1106,0.1665,0.0226,-2.0388,6.0113,-62.5625,7.494019690287631,-1.468442698321002,0.5619835678277081,30.15250570955436
-0.0309,0.9465,0.1214,-0.1052,0.1702,0.0222,-2.6163,6.5012,-64.7413,7.4938684403727205,-1.847246816417055,0.24720536359224696,30.164582394717872
-0.0401,0.9469,0.1258,-0.0969,0.175,0.0203,-3.325,6.2213,-68.4425,7.524507393279633,-2.3938757637262627,1.3085344866838475,30.176713936904516
-0.0484,0.9462,0.1235,-0.0969,0.175,0.0203,-3.6925,6.8075,-72.485,7.4787820195067924,-2.8951302443541,1.3573209516483007,30.188747090365798
-0.0739,0.9482,0.12,-0.0869,0.1819,0.0208,-3.6837,7.1225,-75.9938,7.3413819172731225,-4.39723152165141,1.2672541642704944,30.20087473947338
-0.0863,0.9492,0.1327,-0.0869,0.1819,0.0208,-4.0862,7.49,-79.5638,7.708715411984859,-5.134025543500122,2.378363618738841,30.21299495633912
-0.1033,0.9485,0.121,-0.0761,0.1874,0.0198,-4.9175,7.8225,-82.3113,7.402825408747782,-6.151118034645333,2.4255036460615775,30.225131807269936
-0.134,0.9543,0.1205,-0.0637,0.1976,0.0208,-5.2937,8.3125,-85.2688,7.252727197060638,-7.906362468243956,2.583853354323475,30.237113996787148
-0.1641,0.9617,0.1246,-0.0637,0.1976,0.0208,-6.2213,8.4175,-87.5263,7.35412485356235,-9.581966869904477,2.81049689561831,30.24655294392869
-0.2147,0.9675,0.12,-0.0546,0.2045,0.0194,-7.0613,8.6975,-89.3813,7.12245453689891,-12.382700363419525,3.3981382887858333,30.258798447156938
-0.2425,0.9646,0.1225,-0.0546,0.2045,0.0194,-8.7587,8.9075,-89.565,7.22145596932441,-13.982610284178332,3.606621822774308,30.270797978571785
-0.2664,0.9589,0.1246,-0.0431,0.2125,0.0234,-10.36,7.9888,-87.1325,7.382737601668249,-15.383921626496132,2.5799186917233294,30.282957126228133
-0.2849,0.9519,0.1257,-0.0338,0.2197,0.0213,-11.7512,6.37,-79.9575,7.508693764485165,-16.50970495104783,4.276853420689116,30.295079820507823
-0.2896,0.9326,0.1316,-0.0338,0.2197,0.0213,-12.355,5.4338,-76.2563,7.983296097499472,-17.082640761282462,5.396053444508429,30.30729240952219
-0.2996,0.924,0.1349,-0.0252,0.2236,0.0209,-11.97,5.075,-72.7738,8.275062442161728,-17.776634059309618,6.811578551318168,30.319524463931863
-0.304,0.919,0.1459,-0.0252,0.2236,0.0209,-10.92,4.235,-69.65,8.940797963261108,-18.08681614463629,8.299546803809156,30.331625923234853
-0.3054,0.9116,0.1411,-0.0177,0.232,0.0254,-10.36,3.605,-67.4888,8.81484356631795,-18.314087223632892,7.05643613950319,30.343748971430816
-0.3151,0.9089,0.1332,-0.0114,0.2375,0.0221,-8.8638,5.1363,-67.3575,8.403262013444948,-18.9216164014384,7.91558061025605,30.353107225660914
-0.3243,0.9151,0.1431,-0.0114,0.2375,0.0221,-8.4175,6.3612,-67.3663,8.816502378302673,-19.289941679708026,9.19438304416381,30.36524195309406
-0.3292,0.9147,0.1507,-0.0044,0.243,0.0241,-7.2975,6.335,-66.1763,9.260750046758137,-19.545697426625754,10.206859402972613,30.377345535894722
-0.3357,0.9159,0.1479,-0.0044,0.243,0.0241,-6.5975,5.9588,-64.2163,9.190587319413607,-19.885301977936646,9.818959711642218,30.389421159309396
-0.3346,0.9196,0.1524,0.0018,0.2494,0.0214,-5.8362,6.1425,-62.1775,9.357844259519124,-19.748817113468668,12.805826981477239,30.401449357942784
-0.3669,0.9258,0.1598,0.0018,0.2494,0.0214,-5.0138,6.4138,-61.6963,9.665079144326203,-21.299883883313587,13.367747145139091,30.413544800669044
-0.3904,0.9192,0.1444,0.0063,0.2542,0.0205,-4.5413,6.4575,-61.5563,9.179796879599218,-22.731631285367783,11.97154660750618,30.42555707306991
-0.3938,0.913,0.1448,0.0126,0.2595,0.0226,-5.25,8.225,-61.0488,9.058122508048687,-23.066969349518633,11.539705881977104,30.4349202821279
-0.4315,0.9263,0.1523,0.0126,0.2595,0.0226,-5.4513,10.1587,-62.0112,9.264219599042603,-24.653533853431693,11.534611290280116,30.446964053077533
-0.4376,0.9232,0.1558,0.0181,0.2682,0.0218,-5.5738,10.2025,-57.8112,9.499495919914636,-25.042316153482542,13.215750055126016,30.459084977775827
-0.4358,0.9137,0.154,0.0181,0.2682,0.0218,-4.1825,9.0212,-51.695,9.54072073541053,-25.185164581156865,13.279650913110968,30.471137596632417
-0.4474,0.9082,0.1411,0.0232,0.2708,0.0228,-3.4475,8.7237,-46.7775,9.218398614703897,-25.93342304325676,11.279181877312865,30.483204726056414
-0.4688,0.9052,0.1404,0.0262,0.2767,0.0204,-2.205,8.8638,-42.385,9.101449632741042,-27.062984068964667,12.120960015990999,30.495269378066464
-0.4596,0.9007,0.145,0.0262,0.2767,0.0204,-2.415,8.61,-38.255,9.108780437950857,-26.7509052470692,13.148492038011705,30.5045536637944
-0.4601,0.9148,0.1445,0.027,0.2784,0.0188,-2.3712,8.4525,-35.5687,9.08274478017647,-26.432369332692925,13.930712178090802,30.516709980120524
-0.4587,0.9227,0.1439,0.027,0.2784,0.0188,-2.1088,9.205,-33.8625,9.009243125937374,-26.172697070742707,13.899890016162471,30.52875693631666
-0.46,0.9219,0.1429,0.0299,0.2785,0.0233,-2.485,9.6775,-33.425,8.986369303296982,-26.24345161603941,11.752007508550863,30.540707981201383
-0.4727,0.9282,0.1402,0.0314,0.2827,0.0162,-3.5875,10.6925,-33.7837,8.790659183340715,-26.704753819446942,14.568268720582592,30.55291243014135
-0.4889,0.9277,0.1397,0.0314,0.2827,0.0162,-3.5,11.9612,-32.2788,8.684125046234998,-27.483363669929926,14.303468098245421,30.564890726579502
-0.4953,0.9066,0.1418,0.0347,0.2846,0.0169,-4.13,12.4337,-29.8725,8.807840715979761,-28.30769704716791,14.634683992414354,30.574263845293284
-0.5211,0.9053,0.14,0.0347,0.2846,0.0169,-3.7538,11.8562,-26.2763,8.798802112122214,-29.53583172916046,13.74921961825644,30.58662295564686
-0.5067,0.8965,0.1331,0.0346,0.2864,0.0123,-2.9663,11.165,-21.4112,8.706865798165586,-29.24575721838075,15.203121910179581,30.598464994317876
-0.5083,0.8983,0.1326,0.0346,0.2864,0.0135,-2.415,10.7625,-17.1325,8.655103820300406,-29.240723258128487,14.670377774286056,30.610195903277514
-0.4982,0.9045,0.1367,0.0348,0.2858,0.0135,-3.0363,10.7187,-14.8137,8.637081658339094,-28.885912171959315,15.461529466400354,30.62238407206868
-0.4836,0.9094,0.1358,0.0335,0.284,0.0125,-4.1737,9.2575,-11.4362,8.549427827190542,-28.09485365741823,16.101365878529496,30.63453012482273
-0.4712,0.901,0.1323,0.0335,0.284,0.0125,-3.9725,9.1262,-11.6112,8.436588849131605,-27.598407259693154,16.085023134874092,30.64665494260009
-0.4652,0.8973,0.1338,0.0322,0.2859,0.0148,-4.6988,8.5487,-12.2412,8.466672428439903,-27.332592454961627,15.297247068390016,30.655484445910446
-0.4657,0.897,0.1344,0.0322,0.2859,0.0148,-5.5475,8.5662,-13.0288,8.507477812988252,-27.271706759915766,15.28111455272364,30.668135537193592
-0.4635,0.8945,0.1335,0.0329,0.2866,0.006,-5.915,8.4087,-13.3,8.492895741016607,-27.23411378079451,19.360557401803465,30.680181431640897
-0.4643,0.8897,0.1349,0.0333,0.2846,0.0122,-6.2038,7.7613,-14.3675,8.593668992072953,-27.257777930016477,17.280790828754007,30.6922630716323
-0.4654,0.8911,0.1407,0.0333,0.2846,0.0122,-6.685,7.0963,-14.595,8.897874415017936,-27.272481250807,17.80572474649957,30.70418651104732
-0.4658,0.8926,0.1415,0.0333,0.2852,0.0108,-7.0613,6.0637,-14.9888,8.987690481888249,-27.269396220382678,18.579152627830414,30.71318518633869
-0.4651,0.8915,0.1412,0.0333,0.2852,0.0108,-6.5975,5.3812,-14.4987,8.997542813282026,-27.265716676861008,18.691040438493165,30.725272135074274
-0.4648,0.8882,0.1394,0.032,0.2846,0.0168,-6.72,3.9025,-14.9012,8.934883794464973,-27.30544621804111,16.038267779942842,30.737416418246934
-0.459,0.8857,0.1434,0.0334,0.2826,0.0134,-6.2213,3.1412,-14.595,9.139867798911082,-27.203848272291975,17.37338082895878,30.749559285754483
-0.4584,0.885,0.1472,0.0334,0.2826,0.0134,-6.0025,2.065,-15.12,9.374229644539659,-27.12163152516679,18.038576038543127,30.761633847420324
-0.4509,0.8886,0.1465,0.0348,0.2849,0.0121,-5.6613,1.4088,-14.8312,9.364959044167202,-26.839970921018683,18.535270667227977,30.773775653179037
-0.4523,0.8796,0.1473,0.0348,0.2849,0.0121,-5.845,0.805,-14.9275,9.473173203682334,-26.868758025046613,18.772552750164877,30.782766896228562
-0.4474,0.8792,0.1487,0.0326,0.2842,0.0139,-5.0313,-0.2538,-14.7875,9.56262209517621,-26.751093062785447,18.92685905456185,30.794902685410545
-0.444,0.8741,0.1471,0.0326,0.2842,0.0139,-4.6112,-0.3938,-14.21,9.555977963371834,-26.7009382010198,18.94448927957091,30.80707103489013
-0.443,0.8788,0.1496,0.0321,0.285,0.0076,-3.78,-0.4725,-14.1487,9.612464882423131,-26.612630476630354,21.135202118871906,30.81944076273205
-0.4418,0.8846,0.1474,0.032,0.283,0.0118,-2.6163,-1.1025,-13.6062,9.61234044915367,-26.58673285552944,20.404009680970983,30.831562395262903
-0.443,0.8892,0.1466,0.032,0.283,0.0118,-2.7562,-0.5513,-13.02,9.581456580026,-26.42414345689558,20.06122328350815,30.843687920872814
-0.4462,0.8858,0.1491,0.033,0.2828,0.0122,-2.2313,-0.7,-13.16,9.574002786318717,-26.42113310189021,20.08396445506492,30.85582512571991
-0.4493,0.8852,0.1471,0.033,0.2828,0.0122,-1.785,-0.8138,-13.895,9.510951420124506,-26.452517012752548,19.783900361452385,30.86511755152225
-0.446,0.8851,0.1484,0.0328,0.2824,0.0165,-1.7937,-0.5425,-13.2212,9.514108009359683,-26.444071843634777,18.466950797512602,30.87723706055543
-0.4437,0.8884,0.1456,0.0301,0.283,0.0134,-1.4875,-0.6038,-13.65,9.40457468629449,-26.438399733517702,18.47096320778709,30.88935727742117
-0.4386,0.8905,0.142,0.0301,0.283,0.0134,-0.9363,-0.4375,-14.2712,9.188713142597452,-26.252002046508977,18.226993361687498,30.90150793108684
-0.4393,0.8863,0.1435,0.0317,0.2833,0.0128,-1.2512,-0.1663,-14.2712,9.19343489307766,-26.18491130125327,18.592313581170536,30.913552763785304
-0.4406,0.8889,0.143,0.0317,0.2833,0.0128,-0.805,0.0175,-13.8512,9.158394515077863,-26.16885201493991,18.66728253036189,30.925617769711632
-0.438,0.8932,0.1427,0.0334,0.2846,0.0122,-0.6388,0.385,-14.0787,9.104355189994891,-26.07414430445709,18.952100038366325,30.937724891675074
-0.4385,0.8971,0.1401,0.0326,0.2831,0.0123,-0.7788,0.1663,-15.1112,8.956616058386402,-25.899667693890397,18.839849622204444,30.946977678854246
-0.4352,0.8978,0.1408,0.0326,0.2831,0.0123,-0.665,0.2538,-14.77,8.92776477104591,-25.737597787954456,18.898594151594143,30.95913788825943
-0.4397,0.8955,0.1419,0.0333,0.2825,0.0123,-0.7263,0.5075,-14.6475,8.977721588022922,-25.803518417426485,18.964218708734595,30.97105283368377
-0.4394,0.8953,0.1405,0.0333,0.2825,0.0123,-0.84,0.385,-13.9038,8.939980357054903,-25.815110840581998,18.92505498348728,30.983100497712464
-0.4365,0.8947,0.1385,0.0323,0.2844,0.0166,-0.8312,0.4288,-14.5075,8.849999554496305,-25.781120287057885,17.872868866601785,30.995195586522446
-0.44,0.898,0.1314,0.0323,0.2844,0.0166,-0.175,0.49,-13.7462,8.477407637946685,-25.78645184815712,16.762467749969982,31.007227324318613
-0.4396,0.8969,0.1296,0.0322,0.2834,0.0126,-0.8225,0.455,-14.5162,8.313573959320465,-25.828088244399805,16.69759476697148,31.016555495665056
-0.441,0.9015,0.1321,0.033,0.2837,0.0118,0.35,0.21,-15.1725,8.330662751666228,-25.827867112358398,17.062195350346283,31.028532376438097
-0.441,0.9025,0.1359,0.033,0.2837,0.0118,-0.6475,0.5338,-13.7987,8.484957060850304,-25.8237514244146,17.424536099201376,31.04057614738773
-0.438,0.9012,0.1316,0.031,0.2834,0.0119,-0.8225,0.0263,-13.7987,8.371382779147542,-25.808689819195713,17.304727127246434,31.05259726769555
-0.4349,0.8999,0.1325,0.031,0.2834,0.0119,-1.12,-0.2538,-13.2912,8.374130138940197,-25.73747787964099,17.401117662093252,31.064861882402823
-0.4318,0.8976,0.1292,0.0322,0.2825,0.0186,-0.9975,-0.595,-13.3962,8.260865204784896,-25.6768029030091,14.881244228440051,31.076755946766745
-0.4282,0.899,0.1322,0.0319,0.2838,0.0117,-0.9275,-0.77,-12.9325,8.32658513678239,-25.486655620460397,16.866523010408443,31.08623771777796
-0.4283,0.9019,0.1298,0.0319,0.2838,0.0117,-0.6125,-0.3675,-13.335,8.235271474194723,-25.407176201077302,17.250177998629546,31.098335637918165
-0.4296,0.8976,0.1313,0.0342,0.283,0.0118,-0.6212,-0.2538,-12.985,8.29313155735668,-25.38001216258563,17.71751608108267,31.110404536923557
-0.4278,0.8971,0.1293,0.0342,0.283,0.0118,-1.505,-0.8225,-13.5625,8.244981273442065,-25.368292936313008,17.77299940191595,31.12245184703597
-0.4275,0.8944,0.1284,0.0314,0.2842,0.0095,-1.6013,-0.42,-13.65,8.207005003025634,-25.36696866854261,18.211206835042663,31.1348116652221
-0.4263,0.8962,0.1274,0.03,0.2818,0.0167,-1.5837,-0.4725,-13.86,8.147951201434923,-25.343992368223645,15.696575560630917,31.1465008120609
-0.4284,0.9012,0.1257,0.03,0.2818,0.0167,-1.0412,-0.56,-14.1312,8.021040883066618,-25.30266817586405,14.399153698789632,31.15870101400553
-0.4294,0.9057,0.1294,0.0306,0.2802,0.0115,-1.2337,-0.2975,-14.0612,8.084826301686205,-25.258350972146847,16.02891024481964,31.167510698004303
-0.4324,0.9014,0.1289,0.0306,0.2802,0.0115,-1.61,-0.4288,-13.6412,8.111541550571644,-25.263453309401815,16.649811905673864,31.179677277902496
-0.4344,0.8996,0.132,0.0324,0.2832,0.0087,-2.0738,-0.105,-13.405,8.194464736905811,-25.32211247888847,18.12285257383624,31.19186367711227
-0.4338,0.9007,0.1294,0.0308,0.284,0.009,-2.38,0.1225,-12.9587,8.190853221487439,-25.391761768312087,18.331489609716932,31.204035919670915
-0.4286,0.9027,0.1311,0.0308,0.284,0.009,-2.3888,0.1312,-12.4337,8.204249755352905,-25.267335259109835,18.687900214107806,31.216303365708416
-0.4304,0.9055,0.131,0.0312,0.2826,0.0123,-2.345,0.8838,-12.7137,8.210146973842466,-25.230955948036165,18.513547975855587,31.22844092447179
-0.4338,0.9029,0.1335,0.0312,0.2826,0.0123,-2.31,0.6475,-12.7925,8.257062159498373,-25.32022815952271,18.237681683822988,31.23748065405144
-0.4383,0.8971,0.1377,0.0295,0.2815,0.0095,-2.0563,0.4638,-12.3462,8.425414710654962,-25.58098538297122,18.619952536707256,31.249537519903367
-0.4436,0.8905,0.1277,0.0295,0.2815,0.0095,-2.0913,0.665,-12.215,8.334385652404091,-25.97722280507093,18.310376651063724,31.26170409980156
-0.4458,0.894,0.1266,0.0303,0.2809,0.0091,-1.7325,0.1225,-12.4162,8.205767789293636,-26.144478517569787,17.91360799212022,31.273829625411473
-0.4466,0.9031,0.1278,0.0306,0.2796,0.0122,-0.7263,-0.4725,-12.2325,8.106915776889942,-26.111235259730794,16.720740465122883,31.28596683025857
-0.4479,0.9116,0.1285,0.0306,0.2796,0.0122,-0.5862,-1.1112,-11.6462,8.051105556336443,-25.999182505888136,16.188918474888002,31.29810686643589
-0.4443,0.9107,0.1234,0.0294,0.2826,0.0119,-1.0675,-1.9687,-11.3925,7.847876647848452,-25.86157965178545,15.464760899454557,31.31027061500386
-0.4443,0.9128,0.1211,0.0294,0.2826,0.0119,-0.9187,-1.4875,-11.3925,7.6650023715229985,-25.789568861992706,14.99794009464754,31.319360246778743
-0.4423,0.9115,0.1312,0.0298,0.2806,0.0156,-2.0213,-1.6712,-11.5587,7.860982651369349,-25.69793662549238,14.691895287391993,31.33143976327248
-0.4441,0.9073,0.1262,0.0294,0.2814,0.0126,-2.1438,-1.8025,-11.7775,7.879479073902565,-25.807030373242053,15.163310440496824,31.34361094408229
-0.4451,0.9071,0.1216,0.0294,0.2814,0.0126,-3.08,-2.2838,-11.1737,7.801993724475798,-25.898656727059517,14.655168118966344,31.355762659496797
-0.4447,0.9069,0.1309,0.0284,0.2787,0.0118,-3.0013,-3.1325,-9.5637,7.9164828746505895,-25.890353418697057,16.05730010482499,31.36787509020441
-0.4374,0.908,0.129,0.0284,0.2787,0.0118,-3.2638,-3.3163,-8.575,7.983128697601849,-25.562140604486295,16.28717220978289,31.379945758791195
-0.4343,0.9123,0.1286,0.03,0.2794,0.0135,-3.5175,-3.5875,-7.4812,8.002362152082323,-25.283628640619884,15.744940603617353,31.38899044319874
-0.4319,0.9159,0.1311,0.0275,0.2751,0.0133,-4.8038,-3.2638,-6.1687,8.100856769565135,-25.053786108514455,15.810637466857049,31.401084116343608
-0.4348,0.9236,0.128,0.0275,0.2751,0.0133,-4.8125,-3.3513,-4.375,7.956130200389159,-25.005308620356516,15.248762062625813,31.41320928803724
-0.4397,0.9297,0.1275,0.0239,0.2744,0.0148,-5.9938,-2.345,-1.3125,7.842518443336773,-25.098491284873887,13.865220321118363,31.425356402540128
-0.4587,0.9474,0.1286,0.0239,0.2744,0.0148,-6.9913,-2.3625,2.345,7.750994907298551,-25.598941974875373,13.139383376751137,31.437395572578144
-0.4641,0.9451,0.1332,0.021,0.2726,0.0178,-8.1112,-2.9925,6.6325,7.980519672065035,-25.915898186331138,11.837814933269163,31.449527468681065
-0.4608,0.9337,0.1289,0.021,0.2726,0.0178,-8.7587,-3.5875,10.7275,7.877014359328996,-26.047847484300423,11.173079209595988,31.45926087416613
-0.4525,0.9232,0.1332,0.019,0.2686,0.0196,-9.3887,-4.9175,13.3875,8.167181988131334,-25.884952777845847,10.783276762438929,31.47090967454921
-0.4433,0.9182,0.1302,0.0158,0.2645,0.0184,-9.52,-6.0725,14.6562,8.08289603458098,-25.559773091356295,10.739023067415692,31.48289858847571
-0.4379,0.924,0.1395,0.0158,0.2645,0.0184,-9.3013,-6.8425,15.05,8.519964812543543,-25.123324535484937,12.103764071824024,31.49497952063456
-0.454,0.9662,0.1369,0.0112,0.259,0.0202,-9.9488,-7.2275,16.6688,8.11916091094089,-24.955053316177803,9.647463730084795,31.50704806572367
-0.4626,0.9721,0.1404,0.0112,0.259,0.0202,-11.5937,-7.7263,21.5075,8.208432192617366,-25.212642022234565,9.635844003508794,31.51909785325003
-0.4587,0.97,0.1457,0.008,0.2552,0.0284,-12.635,-9.7388,27.6238,8.5120192953995,-25.066243667544693,5.879708312543111,31.528510256670703
-0.443,0.9473,0.1473,0.0012,0.2482,0.0232,-14.0,-11.445,34.1075,8.812048372712235,-24.806707141634156,8.192377687289751,31.540625164792267
-0.4091,0.9301,0.1494,0.0012,0.2482,0.0232,-14.6912,-13.0288,41.3263,9.101390277556865,-23.498055762692406,9.445194981041677,31.552954546178466
-0.3588,0.9135,0.1627,-0.008,0.2406,0.0274,-16.03,-13.4488,41.5537,10.02963947496778,-21.18288886749096,9.153445692118124,31.565070516048866
-0.3396,0.9107,0.1605,-0.008,0.2406,0.0274,-15.1375,-13.65,40.3812,9.997616062577077,-20.18375502383097,9.233614777880039,31.577311772281774
-0.3433,0.9101,0.1632,-0.0156,0.2342,0.0348,-14.77,-13.6062,39.5587,10.153461751847876,-20.365981769998374,4.500634427975659,31.58942172557544
-0.3577,0.9257,0.1713,-0.0202,0.2285,0.0348,-14.3413,-13.2475,39.1125,10.457971922134822,-20.79660756725472,4.191451966086319,31.60185338876606
-0.3651,0.9325,0.1836,-0.0202,0.2285,0.0348,-14.315,-13.895,42.2887,11.084911669289522,-21.010603480096208,5.526706665437089,31.613744621799757
-0.3231,0.9138,0.1788,-0.0299,0.2199,0.0379,-13.7112,-16.0212,46.3838,11.072141194298396,-19.167379720479687,2.9902372295934283,31.625842895856245
-0.289,0.9054,0.1821,-0.0299,0.2199,0.0379,-12.8013,-17.7975,48.5713,11.34517867227848,-17.404750724168828,3.692859778720636,31.638154581428527
-0.2693,0.8742,0.1806,-0.0398,0.214,0.0401,-12.565,-17.5,49.49,11.642573201033004,-16.797265308916266,2.3549077745661284,31.65031479083371
-0.2785,0.8616,0.1928,-0.0475,0.2069,0.0436,-11.2262,-16.2925,48.5537,12.512271354743662,-17.49586894947932,1.4379133071391155,31.66256808022008
-0.3153,0.9063,0.2127,-0.0475,0.2069,0.0436,-9.4062,-15.9162,53.0513,13.118475513709274,-18.693065899848673,2.3935077441610466,31.67481287561577
-0.3157,0.9321,0.2107,-0.0578,0.1983,0.0452,-4.9263,-19.2675,60.7775,12.852613056444218,-18.287059983081157,0.055605491178600946,31.6870293577092
-0.288,0.9316,0.2185,-0.0578,0.1983,0.0452,-3.3688,-22.0412,70.3588,13.001748423136968,-16.76870328616551,0.6121314794358157,31.69586841675907
-0.2423,0.92,0.2106,-0.0723,0.1898,0.0498,-2.1875,-24.2725,76.7113,12.969335578979916,-14.424463999492145,2.846921320198536,31.70829158595901
-0.1898,0.9072,0.197,-0.085,0.1794,0.0496,-0.4638,-25.2787,78.645,12.47937392365574,-11.585645370286995,4.856560187401536,31.720344558731878
-0.131,0.8804,0.2041,-0.085,0.1794,0.0496,0.2362,-24.6662,77.8575,12.90341568310955,-8.2837582126401,4.059653370652556,31.732530957941652
-0.1284,0.8894,0.207,-0.1013,0.1725,0.0541,-0.385,-23.87,74.585,13.040418648244055,-8.006961772939812,6.101941640420863,31.744724081560715
-0.1286,0.9099,0.2222,-0.1013,0.1725,0.0541,1.2687,-23.1175,73.1238,13.583401952450794,-7.819959703089541,5.352310444847333,31.756926053086733
-0.1024,0.9099,0.2275,-0.1151,0.1646,0.0484,3.2725,-24.115,74.1563,13.971766273358567,-6.248704331073356,3.113794628246019,31.769121300203466
-0.0648,0.9043,0.2103,-0.1286,0.1571,0.0528,5.4163,-24.92,75.6525,13.189188423096214,-4.017470328604162,6.342111758197368,31.781319378650426
0.0141,0.9187,0.206,-0.1286,0.1571,0.0528,6.125,-24.1238,76.9825,12.694927177752165,0.8048016021418847,7.689226445650813,31.790113490332956
0.0579,0.9091,0.1987,-0.1443,0.1493,0.0536,7.0437,-23.5112,75.2763,12.363443139814157,3.5297494808183743,8.636620223576468,31.802256357840502
0.0949,0.9086,0.1964,-0.1443,0.1493,0.0536,7.5775,-22.3038,72.1788,12.212063649543937,5.802581914249378,9.253356524528607,31.814416567245686
0.1218,0.9057,0.1862,-0.1574,0.1423,0.0582,7.6825,-20.1075,60.9525,11.670025253148058,7.481677436090377,11.636319013398296,31.826582085395046
0.1448,0.9069,0.1802,-0.1713,0.1376,0.0561,9.0212,-15.7675,53.8125,11.272402082557416,8.879702354751787,10.928752562977389,31.83873167731188
0.1484,0.9122,0.1755,-0.1713,0.1376,0.0561,8.6363,-13.4312,45.2287,10.921383006040177,9.073240515348466,11.235852921952754,31.850854371591566
0.1525,0.94,0.153,-0.1795,0.1357,0.0538,8.2687,-11.4362,37.905,9.385814415276954,9.09690225747366,11.423401568323118,31.85969059931121
0.1441,0.9639,0.1684,-0.1795,0.1357,0.0538,6.6325,-9.2662,33.0138,9.85880603268152,8.392603403649328,10.771593041886927,31.871894694334898
0.1428,0.9604,0.1627,-0.1893,0.1316,0.0542,5.74,-8.33,29.5137,9.641156699337937,8.341299756307082,10.668511520275217,31.88396288550773
0.1389,0.9481,0.1516,-0.1893,0.1316,0.0542,5.1188,-8.75,28.4288,9.148338787800084,8.234177897342121,11.022713000781094,31.89603567759218
0.1453,0.9317,0.1526,-0.1971,0.1282,0.0538,4.4187,-8.8375,28.7,9.28260555227239,8.737351399139797,10.570631622994524,31.90815412487653
0.1606,0.9238,0.15,-0.2038,0.1274,0.0517,3.8675,-8.8462,26.3113,9.230780097254472,9.712716206638712,9.823693558606134,31.91696203929391
0.1741,0.9264,0.1402,-0.2038,0.1274,0.0517,3.4913,-8.26,23.695,8.693702267312739,10.505208547977075,10.276386994521944,31.929105968550292
0.1901,0.9324,0.1415,-0.209,0.1223,0.0508,3.36,-7.8225,21.6037,8.638532776989614,11.372076654224538,10.091428910797427,31.94124317339739
0.1972,0.9317,0.1382,-0.209,0.1223,0.0508,3.1937,-7.8925,19.3375,8.466785604064084,11.811637152004778,10.254542835428957,31.953337200458535
0.2029,0.9244,0.1393,-0.2148,0.1229,0.0494,4.2088,-7.6388,16.7912,8.556422057347133,12.23193503843614,9.573422836853315,31.962112908494593
0.2112,0.9199,0.1337,-0.2148,0.1212,0.0496,3.7275,-6.9913,12.6787,8.308636082273807,12.779683309806682,9.866115646097184,31.974229940113826
0.2192,0.9213,0.1346,-0.2208,0.1212,0.0496,4.305,-7.07,8.0062,8.311564437898205,13.22701805970625,9.664627391175575,31.986364667546976
0.2256,0.9213,0.1328,-0.2226,0.1194,0.048,4.0163,-6.5713,4.41,8.216664165070457,13.603076175740755,9.30825723591198,31.998439229212817
0.2345,0.9435,0.1249,-0.2226,0.1194,0.048,4.2263,-6.265,-0.42,7.627107250848285,13.82484820302743,9.670739602875324,32.007203258011685
0.2253,0.9579,0.129,-0.2252,0.1188,0.0466,3.7625,-5.1275,-4.6988,7.664060766356146,13.19173059862763,9.105850352744387,32.01939036505402
0.2051,0.9515,0.1216,-0.2252,0.1188,0.0466,2.2575,-2.5113,-7.5075,7.347735061734959,12.225564983914989,9.10905122413798,32.03143059684087
0.2416,0.9524,0.124,-0.2256,0.1183,0.0557,1.4175,-1.1462,-9.275,7.404066225637197,13.769297979303373,11.067549005932284,32.043582312255374
0.2153,0.9515,0.1244,-0.2285,0.1176,0.0482,-0.4987,0.0088,-11.6112,7.434349047601107,13.012084729159978,10.244741898013881,32.05584728087893
0.2139,0.9437,0.1338,-0.2285,0.1176,0.0482,-1.6975,0.6125,-12.145,7.738460746012846,12.79206911371585,9.902815031179738,32.065167666067246
0.2153,0.9329,0.1199,-0.2273,0.1186,0.0467,-1.75,-0.4375,-12.1975,7.546048735199496,12.852342473962127,9.449335157715277,32.07728894468182
0.2121,0.9231,0.1177,-0.2273,0.1186,0.0467,-1.8288,1.0237,-15.89,7.422873805908368,12.843665440808616,9.446412770651031,32.089379786496465
0.2048,0.9386,0.123,-0.2267,0.1188,0.0448,-1.8987,2.52,-18.1912,7.440818288427845,12.323021173171641,8.838931975660111,32.1014235574461
0.1996,0.9567,0.1369,-0.2267,0.1188,0.0448,-2.3625,2.6863,-18.0425,7.5826959325522525,11.791107980381387,8.28548297188676,32.11342202711211
0.1864,0.9617,0.1279,-0.2242,0.1191,0.0466,-4.55,2.94,-16.5287,7.577965649505634,11.113512209510562,8.630807183406313,32.12547358421986
0.1827,0.9639,0.1265,-0.2244,0.118,0.0466,-5.2588,3.3513,-15.2337,7.5044487466764345,10.827423921207572,8.794234452387727,32.13643578702309
0.172,0.9622,0.1352,-0.2244,0.118,0.0466,-6.4663,4.7775,-14.805,7.8965256238033374,10.409382437930345,8.543380620283797,32.14693612908317
0.1907,0.9568,0.1353,-0.2251,0.1182,0.0468,-7.525,4.9612,-14.9275,8.023003435642122,10.82834496180041,8.590578838802099,32.158848951009844
0.1926,0.9495,0.134,-0.2251,0.1182,0.0468,-8.0412,4.6988,-14.3762,8.031382232549127,11.045641481877867,8.62649991233328,32.17058906179272
0.1892,0.9411,0.1378,-0.225,0.1204,0.0461,-8.4525,5.8362,-14.6387,8.28658155156945,11.145976223498549,8.251236497354807,32.182692290677096
0.1844,0.9343,0.1355,-0.2249,0.12,0.047,-8.155,5.985,-15.6625,8.257270186424543,11.083534543658672,8.434064540789885,32.19487727422176
0.185,0.9334,0.1455,-0.2249,0.12,0.047,-8.2687,6.5887,-16.975,8.769458875872044,11.081050241392743,8.147484429040764,32.20352911156043
0.1781,0.9395,0.1466,-0.2242,0.1183,0.0498,-8.0675,6.5887,-18.1037,8.853520056911487,10.695772920232477,8.79710948400865,32.21574134665851
0.1747,0.9464,0.1526,-0.2242,0.1183,0.0498,-7.9713,6.9125,-18.9437,9.111511865834295,10.386917925798638,8.714879469331617,32.22791748229622
0.1754,0.9451,0.1551,-0.2236,0.1176,0.0481,-8.435,7.6912,-19.46,9.289184483114244,10.379390476292736,8.252510919765225,32.24010742066878
0.1717,0.9426,0.153,-0.2236,0.1176,0.0481,-8.3825,7.9012,-19.2413,9.229942816771025,10.221411492740954,8.226621961314667,32.25230195995295
0.1728,0.9362,0.1585,-0.2238,0.12,0.0542,-9.1,8.5312,-18.9,9.558475815087524,10.299258941379492,9.444779271374458,32.26444199613028
0.167,0.932,0.1566,-0.2236,0.1194,0.052,-9.2925,8.9075,-17.8937,9.540728631360949,10.074465519317455,9.076158540091834,32.27317027938505
0.1665,0.9251,0.1618,-0.2236,0.1194,0.052,-8.7062,9.3625,-17.2287,9.867101416793467,10.058081468290492,8.826667936803515,32.28597815557947
0.1635,0.9224,0.1627,-0.2207,0.1198,0.0504,-8.575,9.7562,-18.27,9.983792520557886,9.929746324332793,8.42765066796701,32.29800776987797
0.1558,0.925,0.162,-0.2207,0.1198,0.0504,-7.4637,9.2487,-19.6175,9.94231346073781,9.493442585595897,8.374874111157787,32.310085516790316
0.1475,0.9256,0.1647,-0.2212,0.1202,0.0574,-7.49,9.6162,-19.7313,10.064471291117272,8.998338116955708,9.938938287319173,32.32210203618652
0.1413,0.9324,0.1703,-0.219,0.1202,0.0533,-6.3963,9.485,-20.615,10.290912162898683,8.544525320680293,8.976156964777278,32.331560448723366
0.139,0.9338,0.171,-0.219,0.1202,0.0533,-6.125,8.3825,-20.4837,10.358051987965744,8.357501944824786,8.845561127536117,32.34349273604534
0.1319,0.9323,0.1717,-0.2197,0.1217,0.0524,-6.3612,7.6125,-19.8013,10.418887652410964,7.982426326263161,8.45537318838462,32.35554252357171
0.1337,0.9314,0.1692,-0.2197,0.1217,0.0524,-5.915,6.8075,-20.0637,10.32472355501154,8.031377470173798,8.491177201700994,32.367533560995874
0.1344,0.929,0.1745,-0.2197,0.121,0.0534,-4.4975,6.0375,-18.725,10.529477840268552,8.082278514368731,8.579728612771751,32.379606706996604
0.1377,0.929,0.1712,-0.2197,0.121,0.0504,-4.5675,5.4425,-17.2725,10.471340069157463,8.247569073129371,8.032990801237911,32.391705688885644
0.1362,0.9269,0.1687,-0.2162,0.1211,0.0504,-4.0775,4.8562,-18.235,10.378608562076161,8.229930097623653,8.099274086758367,32.4009814806229
0.1318,0.9291,0.1667,-0.2209,0.1213,0.0519,-3.6488,4.0775,-18.1737,10.273527319524282,7.999881467821282,8.322120132835408,32.41305250312596
0.1176,0.9412,0.1721,-0.2209,0.1213,0.0519,-3.9288,4.13,-18.9088,10.323843724274521,7.166377062151381,8.209334992048293,32.42523253184273
0.1105,0.9443,0.1743,-0.2164,0.1226,0.0515,-3.6575,3.815,-19.2325,10.392308951641827,6.656228612871447,8.109745879997986,32.43708306450443
0.1092,0.9433,0.1728,-0.2164,0.1226,0.0515,-3.4388,3.5088,-18.095,10.387079808395717,6.525769328949427,8.114123177171159,32.449171782821395
0.1094,0.9388,0.1762,-0.2173,0.1226,0.0454,-3.15,1.3825,-16.4587,10.47168655050276,6.531622216275837,7.609046529557312,32.46122864867333
0.11,0.9353,0.1779,-0.2158,0.1214,0.0522,-3.045,0.2888,-14.56,10.561131894590261,6.559265097243178,7.838218095236186,32.47047718885715
0.1156,0.9323,0.1713,-0.2158,0.1214,0.0522,-2.66,0.63,-14.0963,10.554748145446188,6.675375494155789,7.999578744741247,32.48255918276484
0.1282,0.9341,0.1735,-0.2179,0.1222,0.0527,-2.6775,0.0525,-12.6787,10.552848869573461,7.179987893977566,8.219702156428896,32.494602245881914
0.1332,0.9371,0.1713,-0.2179,0.1222,0.0527,-1.4437,-0.7788,-12.215,10.448354947555677,7.64315255535645,8.454042184427188,32.506722108831376
0.1399,0.9339,0.1781,-0.2156,0.1223,0.0479,-1.3912,-1.2775,-11.865,10.6402460507269,8.112268911546098,7.494188173922557,32.519359043463396
0.1494,0.9363,0.185,-0.2183,0.1209,0.0533,-1.4962,-1.225,-12.88,10.923671392627712,8.46048336979145,8.11052187826705,32.53093883017221
0.1479,0.9331,0.1737,-0.2183,0.1209,0.0533,-0.6475,-0.9713,-14.0612,10.67266408509467,8.570300973710426,8.55908577708217,32.54028682083023
0.1507,0.9376,0.1687,-0.2177,0.1206,0.0524,-1.3125,-0.6737,-14.385,10.40521098442375,8.74373300355664,8.714515325167486,32.552450215481926
0.1526,0.9398,0.172,-0.2177,0.1206,0.0524,-1.1462,-0.525,-14.5687,10.385067896081107,8.899657878527472,8.710515290970495,32.56455698352909
0.147,0.941,0.1742,-0.2189,0.1217,0.0524,-1.1987,-0.175,-15.3912,10.445402648970777,8.794283093267984,8.59121063957118,32.576720378180774
0.1434,0.9414,0.1642,-0.2189,0.1217,0.0526,-1.05,-0.3763,-16.3537,10.108966815469891,8.60494022551919,8.771306075390939,32.588701152032876
0.1484,0.9387,0.1657,-0.2165,0.1227,0.0526,-1.7413,-0.5425,-16.415,10.063162335933654,8.783690620042695,8.867445670055247,32.600816767987
0.1528,0.9454,0.1679,-0.2155,0.1222,0.0515,-2.1088,-0.175,-17.115,10.065645127639153,8.983721782422402,8.757916594664518,32.612752948388035
0.1537,0.9456,0.1672,-0.2155,0.1222,0.0515,-2.0913,0.1312,-17.2375,10.052470066099861,9.069498266672328,8.730980158440468,32.621564048051916
0.148,0.9418,0.1732,-0.2179,0.1229,0.051,-1.82,0.1488,-17.64,10.215498669149577,8.84296127853134,8.453082705305537,32.633725319205936
0.1387,0.9357,0.1668,-0.2179,0.1229,0.051,-1.4787,0.6125,-18.5762,10.158044950902273,8.394225559135922,8.402953988681308,32.64588871385762
0.1304,0.934,0.1642,-0.2153,0.1226,0.0485,-1.4787,0.4112,-18.4713,10.058472324835936,7.926901402417914,8.147390160363862,32.658056355504655
0.1249,0.9374,0.1624,-0.2144,0.1221,0.0515,-0.9625,-0.105,-18.5412,9.915283231435993,7.555656102070832,8.430695916598266,32.67024523212837
0.1202,0.95,0.1638,-0.2144,0.1221,0.0515,-1.2075,-0.6388,-18.62,9.837824775403513,7.182781499305526,8.579443586180986,32.682584169254085
0.1277,0.9507,0.1588,-0.2142,0.123,0.0514,-0.6038,-0.9538,-18.3312,9.60071215987858,7.482545959321676,8.763518301390068,32.69467642673384
0.1296,0.9534,0.1614,-0.2142,0.123,0.0514,-1.855,-0.665,-17.01,9.604050325202088,7.598823855867848,8.777908795322517,32.70408635274057
0.1322,0.9539,0.1598,-0.2151,0.1226,0.0474,-2.5288,-0.07,-16.0825,9.596551564628099,7.72904173808097,8.222656371727918,32.716181795466824
0.1362,0.9496,0.1624,-0.2125,0.1206,0.0496,-2.24,-0.07,-15.785,9.626101778122461,7.94461363526396,8.333070610883482,32.72824857097454
0.1359,0.9431,0.1592,-0.2125,0.1206,0.0496,-1.9425,-0.0438,-15.2687,9.608154886720696,8.032017169623005,8.428634637991221,32.74036383301239
0.1354,0.9359,0.1651,-0.2145,0.1216,0.0502,-2.3625,0.315,-14.91,9.688175971577927,8.074270024316915,8.372879232612764,32.75249997611065
0.1341,0.9337,0.1659,-0.2145,0.1216,0.0502,-2.8087,0.315,-14.3325,9.750843313845772,8.064148667347697,8.318473439049058,32.764477564716245
0.1279,0.9349,0.1656,-0.2146,0.1216,0.0531,-2.2313,0.735,-13.5975,9.832399622226253,8.03488676845027,8.474310254926921,32.77381989271382
0.1338,0.9393,0.1654,-0.2135,0.1222,0.0514,-2.5638,0.7613,-12.9412,9.839984832469794,8.01406084101014,8.509481562530077,32.78584242868675
0.138,0.9414,0.1711,-0.2135,0.1222,0.0514,-1.855,0.7437,-11.9962,10.039173313779632,8.135076913024353,8.501275554863364,32.79787841347826
0.1418,0.9431,0.1656,-0.2153,0.1226,0.0511,-2.0825,1.0762,-11.7337,10.011335553723585,8.325667542958117,8.503496753412096,32.809946604651095
0.1448,0.9406,0.1649,-0.2153,0.1226,0.0511,-1.3125,1.435,-11.4275,9.973057518035931,8.530962293769532,8.524109619968574,32.8220006391728
0.1496,0.9435,0.1679,-0.2147,0.1224,0.048,-2.38,1.1025,-11.3837,9.995424580631674,8.768904876119548,8.45232414276383,32.834014327238776
0.1539,0.9444,0.1687,-0.2147,0.1224,0.048,-2.03,1.5575,-11.095,10.044393184115807,9.017551219908434,8.169324889601034,32.843341082920105
0.1518,0.9445,0.167,-0.2156,0.1221,0.0534,-1.925,1.3475,-12.4425,10.037293820210925,9.004163337155209,8.435786623446713,32.85539440960925
0.1531,0.945,0.1693,-0.2161,0.1216,0.0499,-2.2662,2.1525,-12.4075,10.068277598245887,9.035831902363036,8.285213063082482,32.86742473174031
0.1547,0.9345,0.1628,-0.2161,0.1216,0.0499,-2.0825,1.7062,-13.5712,10.003640444989118,9.057745930265353,8.313846852170055,32.87948690633641
0.1445,0.9366,0.1575,-0.2162,0.1209,0.0512,-1.8812,1.0675,-14.4287,9.809722751163374,8.88332632433624,8.343663334492181,32.8915069648954
0.1426,0.9424,0.1634,-0.2162,0.1209,0.0512,-1.7325,1.47,-14.9187,9.822304898020738,8.659924207807139,8.451483383294885,32.90362470434719
0.1399,0.9475,0.1633,-0.2145,0.1218,0.0513,-1.9687,0.7263,-15.4,9.80520320528595,8.41882816669259,8.521291613684214,32.913234593051136
0.1466,0.9492,0.1595,-0.2156,0.1217,0.0494,-2.2225,0.14,-15.645,9.73000584809626,8.578836679286809,8.454801172883062,32.924952761024755
0.1473,0.9496,0.1607,-0.2156,0.1217,0.0494,-3.0625,0.2013,-15.4437,9.691423782942152,8.653395647392164,8.40336603092942,32.93693495054197
0.1464,0.9417,0.1586,-0.2173,0.1208,0.0498,-2.9838,0.07,-16.2838,9.656040132416592,8.698523319490995,8.426659440169505,32.948997832970626
0.1427,0.9391,0.1646,-0.2173,0.1208,0.0498,-3.7888,0.2013,-15.995,9.81014624046559,8.568517721698411,8.318670391942526,32.96108371995737
0.1422,0.9369,0.1634,-0.2151,0.121,0.0493,-4.3838,-0.0175,-15.6712,9.863173915870357,8.525474235321923,8.235310871218044,32.97319721241382
0.1411,0.9329,0.1562,-0.2151,0.121,0.0493,-4.3313,0.1138,-16.0125,9.636974495506584,8.496703094642104,8.313774048757026,32.98249353129522
0.1446,0.9331,0.1635,-0.2152,0.1211,0.0493,-3.6925,-0.1488,-16.3887,9.793383534144942,8.629679798251093,8.218645131007248,32.99460100717494
0.144,0.9349,0.1635,-0.2147,0.1226,0.0513,-3.5788,-0.3237,-16.2838,9.855436791288728,8.628009651977386,8.478369300854807,33.00668370891518
0.1415,0.9429,0.1617,-0.2147,0.1226,0.0513,-3.0888,-0.6125,-16.59,9.815498905286374,8.468410929244135,8.658407526305563,33.018809942357656
0.1415,0.9418,0.1617,-0.2178,0.1232,0.0506,-2.975,-0.63,-16.6863,9.79613344784193,8.43433684458834,8.501211800589035,33.03093369838617
0.1444,0.9442,0.1649,-0.2178,0.1232,0.0506,-2.66,-0.2888,-16.3625,9.800838189177664,8.531267113564532,8.396755436067703,33.043014276628746
0.1416,0.9429,0.161,-0.2163,0.1234,0.0502,-2.8875,0.7263,-16.2225,9.77709179071594,8.451741669430941,8.393041490740355,33.05502407161566
0.1407,0.9406,0.1637,-0.2144,0.123,0.0505,-2.905,0.5075,-16.1175,9.798568104034233,8.403232242078131,8.4086623469585,33.06440993131547
0.1385,0.9412,0.1651,-0.2144,0.123,0.0505,-3.535,0.7263,-16.0825,9.870764393440487,8.29288871525087,8.400757776162754,33.07649192522315
0.1395,0.938,0.1588,-0.2145,0.1212,0.0509,-2.66,0.28,-16.3625,9.859601799196627,8.328720334960384,8.566587434526614,33.08845217193111
0.1412,0.9381,0.1626,-0.2145,0.1212,0.0509,-2.7037,0.7437,-16.6863,9.857471776295617,8.409086674370515,8.586390549167753,33.100513992610935
0.1389,0.9437,0.1635,-0.2139,0.1229,0.0503,-2.415,1.0412,-16.2138,9.852744145656867,8.29632210941628,8.581893241456962,33.112572628044255
0.1387,0.9432,0.1638,-0.213,0.1228,0.049,-2.1,1.575,-16.7562,9.852478418011739,8.256738749169129,8.398584101607801,33.12189442889768
0.1398,0.9443,0.1644,-0.213,0.1228,0.049,-2.8612,1.4262,-16.8612,9.857127732906193,8.288294800553215,8.30040974717019,33.13336167023001
0.1346,0.9453,0.1584,-0.2138,0.1219,0.0506,-2.3363,1.6712,-16.1963,9.781899928909644,8.077519032363588,8.470096801841706,33.14552152571892
0.1344,0.9467,0.167,-0.2138,0.1219,0.0506,-1.8812,1.5487,-16.7038,9.876012460576158,7.98831632677743,8.447796722374035,33.157689167365945
0.1356,0.9473,0.1636,-0.2127,0.1228,0.0467,-2.8875,1.96,-16.6513,9.859416736604333,8.018700122635963,7.953271661702498,33.169877336157114
0.1369,0.945,0.1643,-0.2127,0.1228,0.0467,-3.15,1.7587,-16.0125,9.860662221863235,8.09156028002507,7.716274727203522,33.18203152898556
0.134,0.9428,0.1602,-0.2126,0.1232,0.05,-3.6225,1.9862,-16.3887,9.75172969037099,8.007458936130993,8.085798107959315,33.19090810316093
0.1316,0.9392,0.1656,-0.2117,0.1246,0.051,-3.605,2.0738,-16.59,9.875025427678057,7.895214548271281,8.289263297817515,33.20302407303133
0.1282,0.9387,0.1633,-0.2117,0.1246,0.051,-3.185,2.24,-16.59,9.872708544336614,7.722498200714564,8.430181201386938,33.21514004290173
0.1241,0.9426,0.1628,-0.2102,0.1216,0.0507,-3.4038,1.8725,-17.0362,9.840259646947537,7.467878565241503,8.540834910177896,33.22730025230691
0.1224,0.944,0.1671,-0.2102,0.1216,0.0507,-3.22,1.8288,-16.485,9.91479806809591,7.326359908948802,8.522576614576627,33.23946577045627
0.1215,0.9431,0.1668,-0.2114,0.1242,0.0521,-2.8263,1.6275,-16.6513,9.934823478908628,7.25426134565855,8.60238266704136,33.251579616829
0.1255,0.9462,0.1688,-0.2113,0.1224,0.0542,-2.87,1.4,-15.5837,9.97138411932074,7.375593055362041,8.82172061949719,33.26040310356262
0.1254,0.9464,0.1654,-0.2113,0.1224,0.0542,-3.2462,0.7437,-14.7087,9.94892717150901,7.40646458587566,8.970065023064196,33.27256685213059
0.1276,0.9432,0.1693,-0.2099,0.1228,0.0506,-3.0363,0.7,-14.77,10.016170822094619,7.499477124023712,8.828081633664832,33.2847267076195
0.129,0.9427,0.1619,-0.2099,0.1228,0.0506,-2.7913,0.595,-14.35,9.975616131618361,7.572397929686355,8.781980582996445,33.29684621665268
0.132,0.9452,0.161,-0.2122,0.123,0.0499,-2.7388,0.4638,-14.7,9.941699042303513,7.70695802681675,8.65750147656382,33.30901775137877
0.1311,0.95,0.1623,-0.2122,0.123,0.0499,-3.2725,1.4088,-15.2163,9.843854615449057,7.7308297277329014,8.584963464709713,33.3178313284566
0.134,0.9538,0.1609,-0.2109,0.1224,0.0507,-3.4125,1.19,-14.2012,9.72473725733494,7.784522201757376,8.618837779168294,33.33029307453087
0.1339,0.9508,0.161,-0.2108,0.1232,0.0513,-3.3163,0.9275,-13.5887,9.677786371337227,7.794422703568324,8.643725495991506,33.34213405145305
0.1331,0.95,0.1534,-0.2108,0.1232,0.0513,-3.465,0.8312,-13.1075,9.445738551309816,7.82363550297521,8.732357962463807,33.35429461477452
0.135,0.9504,0.1483,-0.2121,0.123,0.0505,-3.2813,1.2425,-13.86,9.215175031635866,7.849097285472012,8.810034451449644,33.36645871725876
0.1407,0.9521,0.1515,-0.2121,0.123,0.0505,-4.1125,1.505,-14.1925,9.110883251145944,8.0033568773024,8.897933483645852,33.37862848240346
0.1449,0.9598,0.1507,-0.2118,0.1242,0.0482,-3.7625,1.8812,-13.8337,9.010651157605965,8.067876176798007,8.70128072850651,33.387427548913884
0.1513,0.9659,0.1446,-0.2122,0.1209,0.0518,-4.0513,2.3363,-13.58,8.7180312552834,8.133849038412317,9.405700823894128,33.39959943755625
0.1516,0.9728,0.1424,-0.2122,0.1209,0.0518,-5.2762,3.3163,-13.3962,8.434472751751711,8.272822705015283,9.856582306729715,33.411750799054474
0.1532,0.9882,0.1314,-0.2116,0.1238,0.0522,-5.635,5.1712,-13.9212,7.788174429607341,8.363518118266688,10.448865470471263,33.42420015805901
0.1545,0.9951,0.122,-0.2116,0.1238,0.0522,-8.2425,6.8863,-13.1162,7.110123411709604,8.506435088386413,10.900366009181582,33.436274011892294
0.1544,0.9938,0.1296,-0.2124,0.1237,0.0519,-10.2812,8.4175,-10.1062,7.393024429409107,8.703025697980554,10.602030965299923,33.448395290506866
0.1482,0.9879,0.1315,-0.2124,0.1217,0.0534,-13.8162,11.4187,-9.45,7.566608803432972,8.504952632433863,10.883031976942684,33.457304071063554
0.1509,0.9759,0.133,-0.2157,0.1217,0.0534,-15.9862,12.8625,-8.2337,7.74720519715054,8.678659830417594,10.673999751412204,33.4694437533246
0.1566,0.9678,0.1387,-0.2138,0.1202,0.055,-17.5525,14.385,-7.7788,8.130156666438804,9.03891568005239,11.045552017302164,33.481652449259904
0.1631,0.9814,0.1387,-0.2138,0.1202,0.055,-18.7337,16.03,-7.8575,8.049280659417505,9.299792268771938,11.174179996134788,33.493820444823214
0.1687,0.9894,0.143,-0.2178,0.119,0.0575,-20.055,17.6487,-7.7088,8.21464337864145,9.53862936899333,11.604081237187044,33.50589996131695
0.1687,0.9903,0.1459,-0.2178,0.119,0.0575,-22.645,19.6262,-6.7725,8.373130319497182,9.562836938999977,11.534747103048634,33.51808175961511
0.1715,0.9857,0.1567,-0.2177,0.1222,0.0606,-25.2875,21.6212,-5.6,9.005039773046633,9.729326582924523,11.909003202410775,33.53025081692725
0.1724,0.9809,0.1607,-0.2174,0.1214,0.0621,-27.1513,23.1612,-5.495,9.292355258116622,9.827735200049169,12.225939545393972,33.54239297660224
0.1718,0.9683,0.1732,-0.2174,0.1214,0.0621,-28.3762,24.2987,-5.25,10.10953728117651,9.898520767924117,11.735829851276817,33.55146915955855
0.1717,0.9625,0.1774,-0.2196,0.1206,0.0658,-30.5988,25.8388,-4.9175,10.43157304307239,9.945092349252354,12.44296673545337,33.563568495363874
0.169,0.9553,0.1862,-0.2196,0.1206,0.0658,-31.22,27.4837,-6.1687,11.009191076985537,9.861730493990041,12.093821429316243,33.5757605572341
0.1656,0.9573,0.1857,-0.2206,0.1207,0.0682,-33.215,29.2337,-6.4837,10.979052248869735,9.665365400896885,12.656298379861306,33.58797208449963
0.1695,0.9543,0.1957,-0.2215,0.118,0.0718,-34.1688,31.045,-7.1312,11.570333887580965,9.843255847777826,13.363489269495236,33.60008097604447
0.1688,0.9405,0.2158,-0.2215,0.118,0.0718,-35.9888,32.4625,-6.3438,12.883612028566882,9.913014598282142,12.588295243738356,33.612180311849784
0.1661,0.9314,0.2188,-0.2238,0.1179,0.0759,-37.17,34.6587,-5.2413,13.210486033586735,9.85562844475007,13.317898130696307,33.62434264475264
0.1667,0.921,0.2235,-0.2238,0.1179,0.0759,-38.15,36.1287,-4.1563,13.628582115143928,9.964497523978908,13.106900857216827,33.63282000136611
0.162,0.9124,0.2331,-0.224,0.1206,0.0851,-37.9487,38.4388,-3.605,14.31203157831409,9.779337263293595,14.874970617037215,33.64500569274333
0.1681,0.9129,0.2386,-0.2239,0.1206,0.083,-38.1763,40.0138,-3.8588,14.638267991460369,10.071715472461372,14.254057714570404,33.65732374880863
0.1664,0.9166,0.2406,-0.2239,0.1206,0.083,-38.5175,41.685,-3.8763,14.70597930018135,9.969570101940514,14.170938390460183,33.669467324148734
0.1567,0.9229,0.2446,-0.2263,0.1185,0.087,-39.1475,43.8725,-2.9138,14.84037545616604,9.375708584111218,14.939498484288732,33.68170858038164
0.1536,0.9229,0.2603,-0.2263,0.1185,0.087,-39.83,44.7388,-2.73,15.727052643396304,9.123511089393592,14.35574104222331,33.69428570316263
0.1479,0.9215,0.2719,-0.2267,0.1192,0.0869,-40.5213,45.8587,-1.715,16.42103990720049,8.780013378473457,13.752405982374842,33.70643848032597
0.1394,0.919,0.2805,-0.2302,0.1184,0.0913,-42.2013,47.1275,-0.21,16.95978865119559,8.291131095008861,14.240008667719264,33.715597833607674
0.1239,0.9119,0.2846,-0.2302,0.1184,0.0913,-42.91,48.0288,0.49,17.32387877475393,7.449431548982661,13.868820156625409,33.727697169413
0.1009,0.9026,0.3005,-0.2297,0.1195,0.0999,-43.8462,48.0025,1.1287,18.388184907308332,6.142665858576783,14.958931895323827,33.73978871906019
0.0877,0.9057,0.3091,-0.2297,0.1195,0.0999,-44.1875,47.5387,1.225,18.833195356797752,5.293040494106694,14.563876795665603,33.75190114976781
0.0796,0.9011,0.3126,-0.2306,0.1198,0.1034,-45.325,46.3225,1.2425,19.125298206275225,4.803501058670035,15.0211049520336,33.763907405591944
0.0749,0.9008,0.329,-0.2306,0.1198,0.1034,-46.0075,44.7388,1.5925,20.04261562832549,4.486610138003526,14.403348751885954,33.77602691462513
0.0779,0.8967,0.3364,-0.2361,0.1182,0.1094,-47.005,42.6825,1.2775,20.55226607043724,4.639876180498187,15.241957988072748,33.785218828204435
0.0827,0.8926,0.3444,-0.237,0.119,0.1126,-47.845,38.78,0.4987,21.086748390401496,4.920547407392289,15.575232667997826,33.797240302428534
0.0727,0.8719,0.363,-0.237,0.119,0.1126,-48.72,36.4263,0.3675,22.57133141155643,4.436220777438322,14.562293014059644,33.809407944075566
0.0706,0.8677,0.3678,-0.2369,0.1183,0.1188,-49.0262,33.775,-0.665,22.96264703847354,4.295017618270975,15.681897259192652,33.82147330391817
0.0684,0.8614,0.3828,-0.2369,0.1183,0.1188,-48.8512,31.535,-0.5688,23.938905527858143,4.1605463940445135,15.077449693467324,33.833609800932706
0.0704,0.8598,0.3888,-0.2372,0.1202,0.1207,-48.9212,28.7175,-0.7263,24.324078500767968,4.25910541951003,15.05910064791287,33.84576116243093
0.0714,0.8544,0.3954,-0.2403,0.121,0.1323,-48.86,26.6963,-1.5487,24.82300923526393,4.331072215739731,16.88606121926429,33.8578923507013
0.0813,0.8538,0.4045,-0.2403,0.121,0.1323,-49.0875,23.8262,-1.715,25.338826389828508,4.873025836766829,16.751823843083603,33.86712638031772
0.0831,0.8486,0.4157,-0.2396,0.1214,0.1378,-49.9188,21.7,-2.2488,26.082916687193165,5.013447896726815,17.41532623796679,33.879217576048646
0.0863,0.8444,0.4258,-0.2396,0.1214,0.1378,-51.0913,19.6437,-2.8612,26.7464488802158,5.197197848413496,17.058178508098543,33.89132186668186
0.0937,0.8343,0.4267,-0.2419,0.1221,0.1375,-52.115,17.885,-3.605,27.080574322758896,5.663757897529217,16.658019693218915,33.903510035473026
0.0966,0.8282,0.4331,-0.2451,0.1211,0.153,-52.5438,16.3625,-3.64,27.596591882658384,5.879575601982146,19.24476625675488,33.91561644960391
0.0971,0.8251,0.4415,-0.2451,0.1211,0.153,-53.1037,14.8225,-3.7362,28.139880531892157,5.919874334396321,19.055405815550493,33.92771083058134
0.1116,0.801,0.4637,-0.2446,0.1238,0.1593,-53.5062,13.545,-4.1213,30.029478517240662,6.7849372613313585,18.989000823426437,33.93983246311219
0.1204,0.8029,0.4682,-0.2446,0.1238,0.1593,-53.7863,11.8825,-4.305,30.24381752758643,7.323546408009511,18.999931594042234,33.94907746413324
0.1242,0.784,0.4742,-0.2452,0.127,0.1698,-53.235,10.3075,-6.2038,31.149623450396415,7.672777776628057,20.057761923829073,33.96119272617108
0.13,0.7808,0.4889,-0.2462,0.1286,0.1704,-52.3862,9.9837,-7.2362,32.0350597376107,7.983957343828085,19.49547810448313,33.97326197909275
0.1396,0.7795,0.4839,-0.2462,0.1286,0.1704,-51.9487,10.0625,-8.4087,31.835337214205484,8.54501049057754,19.791457061051602,33.98544660872113
0.1404,0.7834,0.5056,-0.2472,0.1302,0.1799,-52.3775,10.4125,-8.785,32.81812005812713,8.560218375846986,20.575938299615853,33.99751338422885
0.139,0.7718,0.5092,-0.2472,0.1302,0.1799,-53.0075,9.9137,-8.6712,33.403472419123226,8.551020949389486,20.213225234673978,34.009627938434136
0.1432,0.7627,0.5305,-0.249,0.1306,0.187,-53.1125,10.3775,-8.82,34.793225733713484,8.72627011438405,20.284825440871764,34.02170816276043
0.151,0.7659,0.5308,-0.249,0.1306,0.1965,-54.3025,10.9112,-9.2487,34.724863685364014,9.116297837056278,22.260927368683454,34.03094042279546
0.151,0.7534,0.5464,-0.2472,0.1338,0.1965,-55.2125,11.3312,-9.3887,35.92844954895903,9.196959692875671,21.242677207476657,34.04308859904718
0.1421,0.7303,0.5698,-0.2464,0.1373,0.2034,-54.3288,11.8562,-9.9925,37.92374343869869,8.82307676932831,20.135857975657952,34.05518298002461
0.1371,0.6887,0.5994,-0.2464,0.1373,0.2034,-53.6025,11.795,-11.6287,40.97437418196476,8.632744954199316,17.164240849961228,34.0673902602948
0.1354,0.6781,0.6122,-0.2456,0.1382,0.211,-51.0037,11.5237,-12.7487,42.053940006691626,8.53528717260088,17.167608110365624,34.079501629253585
0.1363,0.6687,0.6116,-0.2456,0.1382,0.211,-48.8862,11.1737,-13.9038,42.438060618566965,8.538651657789199,16.850442783598425,34.09172554358886
0.1351,0.6615,0.6263,-0.2454,0.1407,0.2186,-47.0575,11.0075,-14.5862,43.41237597809357,8.489722531406436,16.780904699797347,34.10392503770093
0.1382,0.6684,0.6321,-0.2437,0.1422,0.2216,-44.1875,11.55,-15.5662,43.40141933221038,8.524813518873026,17.270029044677464,34.11611603782232
0.1474,0.6605,0.6521,-0.2437,0.1422,0.2216,-35.9012,12.6262,-15.96,44.5974089386072,8.871650191682274,16.18025913244522,34.12825536616709
0.1469,0.6537,0.6555,-0.244,0.1465,0.2254,-38.0187,13.0725,-17.2812,45.06555190700046,8.985177727477689,15.559713668526465,34.14039292493046
0.1335,0.6464,0.662,-0.244,0.1465,0.2254,-35.6212,14.1575,-17.9638,45.664942671585415,8.356923764473471,14.558217135100072,34.149708001374606
0.1185,0.6338,0.6748,-0.2401,0.148,0.2314,-33.88,15.0937,-18.5587,46.759547036507676,7.474962454466267,13.965385684217972,34.16191811297503
0.1082,0.6206,0.6779,-0.2398,0.1505,0.2337,-31.36,13.7812,-19.67,47.500908379451566,6.823163089369049,12.876893164259627,34.17347241771181
0.1074,0.6318,0.6881,-0.2398,0.1505,0.2337,-28.2275,13.9125,-20.8162,47.44465283321992,6.591008456810998,12.850487227981018,34.18575402040044
0.1064,0.6366,0.6883,-0.2374,0.1534,0.2391,-25.865,14.3238,-21.1925,47.243311440554905,6.4882548838201135,13.62011325171369,34.19794466660556
0.1023,0.6354,0.6902,-0.2374,0.1534,0.2412,-24.2637,14.175,-20.9562,47.3617743004158,6.255264986688128,13.794615403040673,34.21058726389803
0.0934,0.6342,0.6965,-0.238,0.1551,0.2412,-22.2775,13.895,-20.545,47.6650608407972,5.73788949649256,12.92984233848397,34.22279454416822
0.0803,0.6291,0.6944,-0.2342,0.1542,0.2411,-20.6238,13.5012,-18.6112,47.81622462171587,5.039773570566023,12.823740696880224,34.2349791737966
0.0587,0.6319,0.6924,-0.2342,0.1542,0.2411,-18.9088,12.5913,-17.9813,47.62730590179049,3.857854611284343,12.692037941559818,34.24707320085775
0.0591,0.6335,0.6964,-0.2341,0.1565,0.2435,-15.4,9.8612,-17.1325,47.70204256804184,3.6517808592355028,12.577446466513834,34.25923411809549
0.0626,0.6361,0.6927,-0.2341,0.1565,0.2406,-14.455,8.3475,-16.7737,47.459513882104574,3.769999525543556,12.475316423782328,34.26827738683792
0.0716,0.6429,0.6928,-0.232,0.1574,0.2406,-13.1162,7.6825,-16.905,47.167325733013776,4.199205358432134,12.89063732271021,34.28042839441987
0.079,0.6496,0.7048,-0.229,0.159,0.2446,-12.9325,7.56,-16.7125,47.319143022519185,4.584660815365272,13.358639302800567,34.29255568961118
0.0786,0.6416,0.6975,-0.229,0.159,0.2446,-11.9962,7.9975,-15.575,47.383529539255456,4.6870765040638664,13.364225838419424,34.30469678753733
0.0738,0.6387,0.697,-0.2297,0.1578,0.2442,-11.2175,7.8925,-13.9038,47.48718282889576,4.645946200281037,13.257753107669801,34.31685805869135
0.0646,0.6348,0.6992,-0.2297,0.1578,0.2442,-10.255,7.175,-11.7163,47.73183306793445,4.160599049295147,12.796624218672893,34.32904658139879
0.0541,0.6269,0.7002,-0.23,0.1587,0.2454,-8.7675,6.7987,-9.7825,48.10135304187285,3.471419610074547,12.155491460597423,34.341045758897366
0.043,0.6112,0.7006,-0.232,0.1582,0.2469,-6.8863,4.5763,-7.4463,48.747436572927114,2.76188584278556,11.382563621665941,34.350054343844526
0.0487,0.6154,0.6949,-0.232,0.1582,0.2469,-3.9813,1.9425,-6.4663,48.588456811431946,2.973909165418153,11.58701589222223,34.36212572026386
0.0686,0.6387,0.6815,-0.2308,0.1596,0.2476,-1.7587,-1.12,-7.6388,47.78943047767211,4.026367079044488,13.364295372039653,34.37427566609698
0.0836,0.663,0.6842,-0.2308,0.1596,0.2476,-0.3675,-2.485,-10.0187,46.48279829803115,4.802606252522954,15.212718107475032,34.38638703505576
0.0917,0.6795,0.6839,-0.2327,0.1603,0.2508,0.0438,-2.3538,-11.7163,45.53959080993969,5.220469797472199,16.71971118737619,34.39851291458195
0.0998,0.6891,0.6805,-0.2342,0.1582,0.2393,-0.0875,-2.6863,-12.635,44.89515413441723,5.558985985390021,16.267162447898293,34.40750946637565
0.1071,0.6878,0.6753,-0.2342,0.1582,0.2393,-1.5312,-3.85,-12.215,44.676372414371,6.0230436636095135,16.492596286348867,34.41971320748306
0.1078,0.6654,0.6715,-0.237,0.1569,0.2475,-1.6625,-4.2962,-13.0637,44.96185714560595,6.206666325021255,17.067549110117245,34.43187837171614
0.107,0.6579,0.6706,-0.237,0.1569,0.2475,-2.8963,-4.8213,-13.8075,45.09030501557571,6.240020886254101,16.844283680964622,34.444021593139965
0.1066,0.6545,0.6725,-0.237,0.1573,0.245,-0.9363,-5.1363,-14.2275,45.520778155728635,6.325380728298155,16.086282016438624,34.45615915190334
0.1157,0.6561,0.6713,-0.2406,0.1577,0.2521,0.0875,-5.8625,-14.3062,45.6195288411355,6.595952992742996,17.173325661481083,34.46830803598762
0.123,0.6626,0.6709,-0.2406,0.1577,0.2521,1.0937,-6.4488,-14.315,45.412446655024006,6.921168889723823,17.816476966631484,34.48042542152313
0.1334,0.6701,0.6553,-0.237,0.1574,0.2469,0.6825,-6.51,-14.8925,44.60505157188611,7.567917403272377,18.7490964736704,34.489363931047194
0.1412,0.685,0.6515,-0.237,0.1574,0.2469,0.3325,-5.5475,-15.785,43.827807844659226,8.196663407405127,19.924917393519816,34.50148697924316
0.1422,0.6861,0.6478,-0.2377,0.1576,0.2474,1.19,-4.1563,-17.2637,43.45365041975727,8.488559803689247,20.33214412251092,34.51362064492748
0.1418,0.69,0.6448,-0.2377,0.1576,0.2474,0.0525,-3.4738,-17.2725,43.1677195775315,8.528167458130705,20.6900104481877,34.52570900932817
0.1368,0.6884,0.6448,-0.2389,0.1562,0.2479,-0.49,-2.6863,-17.7275,43.13996582904644,8.306988269621899,20.734799864010416,34.537878774472865
0.1348,0.6819,0.6476,-0.2386,0.1554,0.2461,-0.28,-1.8288,-18.4363,43.407564491670925,8.18329533619551,20.19931998229208,34.54999969917116
0.1273,0.6714,0.6485,-0.2386,0.1554,0.2461,-0.4025,-1.1025,-19.005,43.819764805943876,7.831825826371456,19.525528586209774,34.55903730525314
0.1208,0.6733,0.6467,-0.2378,0.1561,0.2462,-1.4612,0.0788,-19.1187,43.83358580458229,7.444122778951386,19.36270639219411,34.57125378734657
0.1152,0.6749,0.6425,-0.2378,0.1561,0.2462,-2.3625,0.5862,-19.1275,43.78463857542016,7.109107754543984,19.35833234707923,34.58334285957982
0.1086,0.6756,0.646,-0.2349,0.1575,0.2526,-1.435,1.1025,-19.1712,43.74799593269392,6.70123494071092,19.42970363450206,34.59542556132006
0.105,0.6793,0.6458,-0.2358,0.1565,0.2413,-1.4875,1.4612,-18.1562,43.64400210477876,6.448399505613358,19.06856005375822,34.60754860951603
0.1046,0.6799,0.6465,-0.2358,0.1565,0.2413,-1.505,1.68,-16.0912,43.5985096201113,6.387042029256179,18.73779756597061,34.61969006135846
0.1125,0.6778,0.6435,-0.237,0.1552,0.2462,-1.68,1.3037,-15.995,43.557168722150394,6.719988399903342,18.926533639688383,34.62908689246289
0.1163,0.6787,0.6493,-0.237,0.1552,0.2462,-1.2425,1.8637,-16.0387,43.65818620460478,6.9577188315260505,19.144412329417328,34.641482456193124
0.1163,0.6819,0.6468,-0.2358,0.1566,0.2428,-1.1025,2.3275,-15.8987,43.554988818457986,7.024119772497004,19.015927899198054,34.65311285292974
0.119,0.684,0.6549,-0.2358,0.1566,0.2428,-1.4787,2.9838,-15.4962,43.66135068835478,7.113381226077599,18.762462366732358,34.664875614354415
0.1193,0.6852,0.6511,-0.2324,0.1562,0.2437,-1.8463,3.5525,-16.0562,43.60782222807051,7.1698074625665855,19.269309942706396,34.67704537949911
0.1142,0.6878,0.6462,-0.2346,0.1574,0.2449,-1.9425,4.0862,-15.2512,43.44933855620885,7.004677494430435,19.491125803518788,34.68920912806708
0.106,0.6885,0.6498,-0.2346,0.1574,0.2449,-1.6887,4.5325,-15.12,43.398489531448874,6.640880564492747,19.230565754287852,34.69791405284749
0.1074,0.6924,0.6434,-0.2346,0.1574,0.245,-2.03,4.9963,-15.3562,43.21411717974509,6.5417078787393885,19.660720812372826,34.710099036392144
0.101,0.6874,0.6459,-0.2346,0.1574,0.245,-2.5288,4.9,-14.4987,43.21436307799059,6.347942862457775,19.29547135541172,34.72246416332245
0.1027,0.6813,0.651,-0.2338,0.1572,0.2431,-3.7538,4.8738,-13.9125,43.47138082843079,6.323632364064336,18.582759717915536,34.734566330457994
0.0996,0.6776,0.6522,-0.2326,0.1557,0.2442,-3.2288,5.1625,-14.0612,43.63650972063616,6.246537457781539,18.61768567217881,34.74675237575149
0.1021,0.6779,0.656,-0.2326,0.1557,0.2442,-3.9025,5.1538,-13.9475,43.87449160005589,6.231832505610868,18.51876298787316,34.756107444735086
0.1042,0.6871,0.6715,-0.2341,0.1535,0.2447,-4.06,5.18,-14.4462,44.15083231353201,6.213661446589798,18.49866249431658,34.76820536487529
0.0988,0.6809,0.6737,-0.2341,0.1535,0.2447,-4.5325,5.6613,-14.9275,44.50875501412341,6.0333561569372165,18.024880736835907,34.78023462525751
0.0921,0.6687,0.6751,-0.2322,0.1579,0.2426,-4.865,5.9412,-15.8812,45.037726691529635,5.691338590989238,16.365925446269827,34.79217434482133
0.0835,0.6598,0.6729,-0.2322,0.1584,0.2479,-4.5237,5.5738,-16.2575,45.38250148250791,5.238799147111229,16.365320570396676,34.8042485525709
0.0784,0.6537,0.6762,-0.2298,0.1584,0.2479,-3.7975,4.8038,-16.9575,45.700359010607336,4.875774427093886,15.998316527927855,34.816343287464605
0.0757,0.6572,0.6747,-0.2325,0.1578,0.2443,-2.6163,2.5813,-15.6975,45.70040185026262,4.688036946018529,15.614316682606004,34.82551042690443
0.0828,0.6697,0.6751,-0.2325,0.1578,0.2443,-0.7437,1.855,-15.5662,45.39384574829844,4.876534201388407,15.87047007356462,34.83763878384457
0.0906,0.6707,0.6717,-0.2328,0.1577,0.2454,-1.3912,0.5688,-15.0325,45.20055912557208,5.207676058822026,16.157342014545012,34.84968644787326
0.088,0.6709,0.6682,-0.2328,0.1577,0.2454,-1.7587,0.7962,-15.7762,45.05470761219453,5.276691571185303,16.29763592212654,34.86170792209736
0.0885,0.6694,0.6705,-0.2331,0.156,0.2411,-0.8225,0.6212,-16.485,45.0497836117275,5.3207304748613735,16.277669581896735,34.873811150981744
0.087,0.6686,0.6708,-0.2344,0.157,0.2429,-0.455,0.035,-16.6338,45.080084631563636,5.266703194943413,16.23667390197117,34.88590270062894
0.0852,0.6685,0.6708,-0.2344,0.157,0.2429,-0.6563,-0.21,-16.8087,45.092207226142406,5.171284594408275,16.187586059498226,34.8951377919942
0.0883,0.6595,0.6673,-0.2312,0.1563,0.2431,-0.105,-0.2275,-17.3337,45.267144254701996,5.3325010559883586,16.271855519906353,34.907259070608774
0.0871,0.6596,0.6651,-0.2312,0.1563,0.2431,0.6737,-0.7088,-17.6225,45.24470589716115,5.316433664432399,16.37790041263275,34.91930142589329
0.0839,0.6583,0.661,-0.231,0.1573,0.2363,1.5487,-1.1987,-18.2875,45.14193714781289,5.170725751997192,15.487644940497649,34.93142412017298
0.0872,0.6612,0.668,-0.2303,0.1562,0.2448,2.5725,-1.9425,-18.0513,45.268683768106435,5.276346014437816,16.445296706630547,34.94349160351325
0.0863,0.6649,0.6778,-0.2303,0.1562,0.2448,3.0888,-2.0913,-18.0163,45.5084244804471,5.208995896247327,16.40903210204223,34.95559978722553
0.0755,0.6705,0.7189,-0.2306,0.1561,0.2418,3.7625,-2.6163,-18.34,46.7936001508811,4.536131029306621,14.286440775084603,34.96475383176306
0.0545,0.6606,0.7368,-0.2306,0.1561,0.2418,3.4213,-3.6663,-18.2087,47.932567292993774,3.40253148330087,12.31214632838835,34.976810697614994
0.0406,0.6346,0.7358,-0.2312,0.1552,0.2421,4.2962,-5.075,-18.8125,49.06029552296583,2.5572940621337654,10.751471166111743,34.98886225472275
0.0182,0.5975,0.7313,-0.2312,0.1552,0.2421,5.8013,-6.8775,-19.9412,50.570445355599716,1.30417322419989,8.592004829793025,35.00096831493735
-0.0034,0.5752,0.7358,-0.2302,0.1558,0.2406,7.875,-9.8262,-20.7025,51.861021566422444,-0.02006158644513699,6.47267452984702,35.01307154382173
-0.0228,0.5669,0.7335,-0.2283,0.1546,0.237,16.345,-19.04,-21.4638,52.27862190271529,-1.2507984224628894,5.537382454027244,35.02530784522675
-0.0213,0.5544,0.7093,-0.2283,0.1546,0.237,22.6625,-25.9,-20.6675,51.99930884094435,-1.342270170926323,5.856299800804697,35.037552994538714
-0.0059,0.5735,0.6929,-0.2309,0.1529,0.2341,30.1788,-32.9,-20.0025,50.43383276894741,-0.5077784917288095,7.650073314033272,35.04975673564613
0.0196,0.6027,0.6925,-0.2309,0.1529,0.2341,34.7725,-38.8063,-20.475,49.00436998386214,1.0010722661691864,9.626380588245786,35.05903217346711
0.0443,0.6256,0.6754,-0.2351,0.1514,0.2327,37.3187,-43.5838,-20.9037,47.23638429237224,2.5417129953118756,11.932912660019467,35.07124723989542
0.0622,0.6559,0.6707,-0.2367,0.1482,0.2259,39.3312,-47.39,-22.3913,45.676374943333954,3.6645124318252194,13.346035741821069,35.083483895216716
0.0745,0.6686,0.6481,-0.2367,0.1482,0.2259,40.5125,-49.9625,-23.765,44.14356214940572,4.492294344478812,15.32517615225521,35.09558323102203
0.0781,0.6556,0.6376,-0.2403,0.1444,0.2194,42.5163,-52.6575,-25.9787,44.201275027850805,4.851979163898133,14.595456315905258,35.1078170550131
0.0836,0.6414,0.6223,-0.2403,0.1444,0.2194,44.8875,-55.3437,-28.63,44.13546308233694,5.313407544921703,14.79902493283347,35.11991426732075
0.0935,0.6376,0.6052,-0.2404,0.1446,0.219,47.565,-58.135,-31.3425,43.51891450832891,6.030549360310059,15.610358666063842,35.13209748128402
0.1033,0.6465,0.5811,-0.2421,0.1414,0.2094,50.89,-61.4863,-33.5563,41.97924435322502,6.741191346462092,16.134302074579217,35.14429803714493
0.1328,0.6829,0.5636,-0.2421,0.1414,0.2094,57.575,-64.9863,-35.9188,39.572966322749465,8.45282867568125,19.3121858854147,35.156454707387326
0.1417,0.7045,0.5485,-0.2423,0.1382,0.2081,60.2175,-66.3075,-36.2775,37.92928453253032,8.994031673436087,21.38641441654767,35.16865597108079
0.1486,0.7157,0.5334,-0.2423,0.1382,0.1925,63.0788,-67.0163,-37.905,36.71506864772927,9.433721417079113,19.591638419189092,35.18079706900695
0.1532,0.7194,0.5167,-0.2454,0.1363,0.1925,64.9338,-67.34,-40.0312,35.70231472437272,9.79920211323652,20.642361245639314,35.18929672234595
0.1493,0.7207,0.4743,-0.247,0.1368,0.1889,67.3225,-67.41,-42.63,33.3824909818413,9.817054854948514,21.811578470332506,35.20166432669021
0.154,0.7261,0.4626,-0.247,0.1368,0.1889,69.195,-67.5063,-44.7562,32.51340929449877,10.131356581724956,22.704815142819438,35.21376295466297
0.1598,0.7365,0.4474,-0.2452,0.1326,0.1829,72.5025,-67.06,-45.1763,31.293570091922657,10.493988787424362,23.29149141442685,35.226611531229395
0.1615,0.7524,0.4286,-0.2452,0.1305,0.1715,75.6525,-66.8413,-44.1963,29.688244728071112,10.562522770139694,22.4265605503589,35.23877527979736
0.1635,0.7566,0.4052,-0.2421,0.1305,0.1715,77.8925,-67.1125,-42.77,28.190053856719725,10.778151341590522,23.98157916594674,35.250989638393115
0.1731,0.7826,0.3511,-0.2413,0.1274,0.1594,80.0013,-66.57,-41.615,24.2107329506148,11.387643605384763,24.922908820322014,35.263162942700596
0.1909,0.8144,0.3307,-0.2413,0.1274,0.1594,81.8125,-65.4238,-42.84,22.125092877891014,12.224673406553043,26.710360561476236,35.27533200001274
0.1931,0.8403,0.3107,-0.2398,0.1247,0.1538,82.635,-63.455,-43.2513,20.313073316163713,12.165304419804057,26.961755532772973,35.28750282690627
0.1886,0.8634,0.2901,-0.2386,0.1221,0.1383,83.4575,-60.69,-42.63,18.592198605451618,11.714104337901297,24.654349270441667,35.299698074023006
0.1847,0.8753,0.2634,-0.2386,0.1221,0.1383,82.4075,-60.0775,-42.7262,16.76931516072138,11.433191507558554,25.601213736584864,35.31187562532582
0.1814,0.8891,0.2291,-0.236,0.1212,0.1296,82.6613,-59.325,-44.2313,14.476326715307891,11.18429810709968,25.198585250896762,35.32113726041195
0.1793,0.8985,0.2197,-0.236,0.1212,0.1296,81.375,-59.0275,-46.0513,13.748940099411579,10.97679878238934,25.511980861312207,35.33332472137056
0.1798,0.9052,0.197,-0.2321,0.1202,0.1169,79.94,-58.2837,-47.8275,12.295517591881616,10.983605932996623,23.859205243653996,35.34549908742687
0.1835,0.9175,0.1856,-0.2269,0.1232,0.1084,79.38,-57.33,-49.8312,11.446329663409777,11.088125378910096,22.750366213087435,35.35770884511101
0.1923,0.9277,0.1746,-0.2269,0.1232,0.1084,77.5688,-55.8338,-51.3362,10.668504929323833,11.503173601639205,23.320439715841484,35.369797917344265
0.2003,0.9476,0.1387,-0.2222,0.1224,0.0978,76.685,-53.2612,-53.4012,8.356394837262465,11.805385949139358,22.622016664108692,35.38199210271216
0.2001,0.9542,0.1207,-0.2222,0.1224,0.0978,75.1013,-49.9712,-55.7638,7.223822863933434,11.753771223416205,23.213901490415626,35.3941873498289
0.1972,0.9578,0.1194,-0.2157,0.1227,0.0906,72.4063,-45.3775,-57.9075,7.107424614884068,11.551594064658756,22.050310271425374,35.40638153519679
0.1965,0.9661,0.1091,-0.2108,0.1238,0.0818,71.1988,-42.0788,-57.68,6.451897625441015,11.428941159934602,20.51607543163889,35.41857430489958
0.1938,0.9771,0.0953,-0.2108,0.1238,0.0818,67.8038,-33.985,-53.7337,5.582978621924266,11.173297154269173,20.92228280393653,35.430720003737356
0.1823,1.0006,0.0658,-0.205,0.1268,0.0716,65.205,-29.4,-51.1787,3.7888386869841844,10.326314209837863,19.54897834177369,35.44285260767283
0.1695,1.0108,0.0497,-0.205,0.1268,0.0716,62.0988,-24.5525,-47.9412,2.8297284743035056,9.531231765084659,19.85447864008419,35.45265254941821
0.159,1.0241,0.0424,-0.1986,0.1289,0.0646,58.4938,-20.545,-45.1587,2.3782064550429,8.839714494916016,18.641114100276692,35.46437496438717
0.1393,1.0436,0.0228,-0.1944,0.1301,0.0602,51.3625,-16.2838,-41.4137,1.2720601850272828,7.644225013159113,18.141541482950554,35.4765376512063
0.1444,1.0527,0.0052,-0.1944,0.1301,0.0602,43.4437,-12.2675,-38.1325,0.30403738661256663,7.803954034578563,18.760422516600297,35.48868511962547
0.1177,1.0904,0.0069,-0.1924,0.1272,0.0483,43.155,-7.7088,-36.05,0.3613088872512467,6.230958803850193,15.361088779511176,35.500803566909816
0.1136,1.0873,0.0013,-0.1924,0.1272,0.0483,40.11,-5.9675,-31.2725,0.07520050659955874,5.9788875048721275,15.15460034520759,35.512978640798686
0.1099,1.0763,-0.0091,-0.1895,0.1306,0.0488,36.0412,-5.11,-25.6812,-0.4703064878690994,5.841455583627641,15.787036561788652,35.52509638025048
0.1061,1.0601,-0.016,-0.1906,0.1322,0.0376,31.8412,-3.3688,-21.805,-0.8535716193586192,5.728644006461966,13.224335077800319,35.5372852568742
0.1032,1.0484,-0.0117,-0.1906,0.1322,0.0376,27.58,-0.665,-20.9037,-0.646252389269844,5.634518673229841,12.747737531178263,35.54948227357232
0.1076,1.0516,-0.0034,-0.1893,0.1322,0.0358,23.7125,1.2163,-18.1825,-0.2021156447552357,5.804435198385353,12.571641886604537,35.55871559535619
0.1114,1.0535,-0.008,-0.1893,0.1322,0.0358,17.6225,2.765,-17.6138,-0.4241113520448417,5.989091167631093,12.155214509218464,35.570855277617234
0.1214,1.051,-0.008,-0.1862,0.1327,0.0319,14.7087,3.71,-16.2838,-0.4354603953665451,6.422468305488647,11.290857558922765,35.58293196278075
0.1196,1.0502,-0.012,-0.1886,0.1324,0.0322,10.7012,5.7925,-16.1,-0.639345233443438,6.4749413242322476,11.100497953492967,35.5950748302883
0.1185,1.0575,-0.0043,-0.1886,0.1324,0.0322,6.4313,7.8225,-16.5812,-0.2734223164390172,6.414480211701788,10.781033273532744,35.607298390707285
0.1173,1.0566,0.0156,-0.1875,0.1318,0.0296,2.3712,9.1087,-16.2925,0.6589086332486662,6.3563756956885396,9.324856514213087,35.619195286401435
0.1032,1.0452,0.0056,-0.1875,0.1318,0.0296,-1.4088,9.4325,-15.4263,0.46646201523501385,5.899951118830096,9.434987279914784,35.62832455679949
0.0967,1.0282,0.0096,-0.1877,0.1339,0.031,-4.7688,9.7037,-14.945,0.5132226315405083,5.605185463165972,9.6591519912094,35.64046105381403
0.0935,1.0119,0.0171,-0.1877,0.1339,0.031,-7.2188,10.6925,-15.1725,0.8869558755662862,5.409419703629488,9.377438846635942,35.652548356465886
0.0894,1.0007,0.0227,-0.1852,0.1328,0.0306,-9.9137,10.745,-15.12,1.2497689806510266,5.228959754623887,9.106926307935808,35.664729800847766
0.0889,0.9931,0.03,-0.1864,0.1337,0.0302,-11.2437,10.3775,-14.8925,1.6803822618027446,5.165383959486445,8.615260721145578,35.67652972348167
0.0938,0.978,0.0384,-0.1864,0.1337,0.0302,-11.9962,9.8875,-14.77,2.193767535414413,5.326618289382251,8.255478455654698,35.68872107751934
0.098,0.9692,0.0484,-0.1857,0.1331,0.0316,-13.2125,9.5462,-14.9625,2.8015161567710596,5.574027788390971,8.277805414816516,35.70091455505468
0.1033,0.9629,0.0511,-0.1857,0.1331,0.0316,-13.2388,8.96,-15.1112,3.017445759064133,5.892502114202305,8.197106757909275,35.71312289707371
0.1108,0.9651,0.0594,-0.186,0.1318,0.0297,-13.6237,9.1875,-15.3125,3.4799819636929716,6.292351810098242,7.344501844766691,35.72179101456118
0.1061,0.9684,0.0656,-0.1875,0.1313,0.0354,-13.615,8.855,-16.695,3.842383191876148,6.251776857288734,8.587549694275877,35.7347747871459
0.1067,0.9694,0.0678,-0.1875,0.1313,0.0354,-13.65,9.1087,-17.2637,3.98760124441815,6.262873412510081,8.647503620106372,35.746834484328055
0.0958,0.9649,0.0768,-0.1859,0.1329,0.036,-13.9737,8.715,-17.0012,4.505219441457534,5.793509395292058,8.426221907800459,35.75893311230082
0.0913,0.9627,0.0816,-0.1859,0.1329,0.036,-14.4287,8.82,-17.8325,4.818391461408016,5.475006310465855,8.171841812968113,35.770861152627454
0.0851,0.9586,0.0814,-0.1876,0.1331,0.0347,-13.9562,7.8225,-17.7625,4.850798627314308,5.13765023950902,7.665861269912248,35.78300968279545
0.0817,0.9557,0.0935,-0.1839,0.1321,0.0381,-14.1225,7.0262,-18.1737,5.528777099636753,4.913028611723198,8.208677858180035,35.79525306252603
0.0806,0.9537,0.0899,-0.1839,0.1321,0.0381,-14.4287,5.9325,-18.4188,5.396259991976574,4.8275638009384245,8.407428703997796,35.8046166255003
0.0856,0.9499,0.0935,-0.1858,0.1325,0.0394,-13.3612,4.4713,-18.2787,5.602411343819365,5.071606722022548,8.57620610568503,35.81673294928698
0.0919,0.9502,0.0983,-0.1858,0.1325,0.0394,-13.7637,3.6663,-18.5412,5.881327902011568,5.422884094799767,8.487736513685537,35.82884998090621
0.0919,0.9458,0.1022,-0.1844,0.1341,0.0462,-14.245,2.8438,-18.7512,6.144621884361803,5.5022403666421695,9.783268257050947,35.84090047626513
0.0869,0.9463,0.1053,-0.1817,0.1337,0.0389,-13.335,2.1613,-19.81,6.332013791901686,5.255125614852135,8.865291878699155,35.85308156673074
0.0853,0.9429,0.1066,-0.1817,0.1337,0.0389,-11.9787,2.1963,-20.5713,6.438807307610103,5.151685080171234,8.383183125075245,35.86516745371748
0.072,0.9381,0.1142,-0.1795,0.1358,0.0438,-12.1625,1.54,-20.6413,6.893180849072598,4.45667099003154,8.642498676839985,35.87726820518792
0.0686,0.9381,0.1204,-0.1795,0.1358,0.0438,-11.2175,1.1987,-20.8687,7.269830911279177,4.186115874878073,8.667746416749795,35.889296403821305
0.0706,0.934,0.1218,-0.1797,0.1342,0.042,-10.2025,0.6212,-19.9937,7.411201255004661,4.272816723640245,8.53250928116727,35.89889355153923
0.072,0.9337,0.1205,-0.1782,0.1339,0.0474,-7.07,-1.12,-19.6262,7.364276500767132,4.358898233669931,9.624174740339585,35.910876448889
0.0703,0.9299,0.1264,-0.1782,0.1339,0.0474,-5.9412,-1.9425,-19.0312,7.653675167726855,4.295841948053146,9.76374628952343,35.922964813289695
0.07,0.9198,0.1265,-0.1797,0.1351,0.0455,-4.0425,-2.6338,-18.7075,7.757794713457145,4.308978837710394,9.152657482744868,35.935074412667085
0.052,0.9195,0.1262,-0.1797,0.1351,0.0455,-2.73,-3.6663,-18.3225,7.763665818295338,3.4020480622392046,8.900925179662329,35.94711782970044
0.0514,0.9215,0.1328,-0.1774,0.1353,0.0444,-0.2975,-4.8125,-18.5675,8.068912047438397,3.2010935192203114,8.369451060160774,35.95924477097547
0.0586,0.9285,0.1288,-0.1774,0.1353,0.0444,1.3212,-5.6,-17.6925,7.932283494610228,3.502137936398324,8.550486230707984,35.97148213412931
0.0645,0.9346,0.1266,-0.1775,0.134,0.0479,3.1325,-7.28,-17.5,7.746582522483869,3.8272393293261278,9.823026986857007,35.980631577755226
0.0663,0.9418,0.125,-0.1772,0.1351,0.045,4.06,-8.2862,-17.0275,7.584630971079683,3.954058140310286,9.194050475330496,35.992623323011955
0.0687,0.9514,0.1146,-0.1772,0.1351,0.045,5.2675,-8.3212,-16.4325,6.9490463200915285,4.061556595794683,9.655246546787536,36.0047092099987
0.0716,0.9562,0.1167,-0.1778,0.1349,0.0431,5.5475,-9.0475,-16.205,6.957277279355795,4.19719664282367,9.056179708453136,36.01676501410179
0.074,0.9532,0.1073,-0.1778,0.1349,0.0431,6.37,-9.2225,-16.6425,6.476185910957579,4.357369139484127,9.418286164753406,36.0287928588189
0.0705,0.949,0.105,-0.1767,0.1356,0.045,7.2013,-9.03,-16.4587,6.328707430161846,4.258505832533387,10.11679447434605,36.04082318094996
