AcclX,AcclY,AcclZ,MagX,MagY,MagZ,GyroX,GyroY,GyroZ,Roll,Pitch,Yaw,Time(s)
-0.1471,0.98,0.0268,-0.5911,0.0785,0.0213,-3.0275,0.84,-13.9387,0,0,0,1.6195785777308092
-0.1468,0.9518,0.0184,-0.591,0.077,0.015,-2.3888,1.015,-14.7087,0,0,0,1.6316442914896938
-0.1453,0.9777,0.0275,-0.591,0.077,0.015,-2.8438,1.0587,-14.735,0,0,0,1.6437662779368238
-0.1473,0.9743,0.023,-0.5945,0.0778,0.0151,-2.8788,1.1812,-14.455,0,0,0,1.6559048984490325
-0.1472,0.9783,0.0207,-0.5945,0.0778,0.0151,-2.835,0.98,-13.9912,0,0,0,1.6680049420869096
-0.1476,0.9811,0.0251,-0.5889,0.0773,0.0159,-2.8175,1.2862,-13.8425,0,0,0,1.6800589766086114
-0.1466,0.9806,0.0257,-0.5902,0.0773,0.0174,-2.8087,1.12,-14.1837,0,0,0,1.6921827326371328
-0.1449,0.9797,0.023,-0.5902,0.0773,0.0174,-2.73,1.0237,-14.21,0,0,0,1.7015409868672287
-0.1463,0.9782,0.0251,-0.5946,0.0762,0.0188,-2.87,1.0237,-14.0963,0,0,0,1.7136668663934196
-0.1485,0.9783,0.0257,-0.5946,0.0762,0.0188,-2.8087,1.3212,-14.6212,0,0,0,1.7258090260684111
-0.1464,0.9768,0.0234,-0.5891,0.0763,0.0207,-2.9663,1.3037,-14.4812,0,0,0,1.73788004857147
-0.148,0.9792,0.0193,-0.5918,0.0758,0.0169,-3.465,1.015,-13.86,0,0,0,1.749954256321033
-0.1463,0.9792,0.0237,-0.5918,0.0758,0.0169,-3.0713,0.6475,-14.1575,0,0,0,1.7620857985076765
-0.144,0.9766,0.0271,-0.5906,0.0786,0.0174,-2.8,1.0762,-14.1837,0,0,0,1.774242114833799
-0.1466,0.975,0.0176,-0.5906,0.0786,0.0174,-2.5463,1.0762,-14.3675,0,0,0,1.7862126251138282
-0.147,0.9809,0.0221,-0.5889,0.0776,0.0164,-2.8263,1.0937,-14.6825,0,0,0,1.7956207815391605
-0.145,0.9827,0.028,-0.5915,0.076,0.0229,-2.7388,1.295,-14.0,0,0,0,1.8077540933071954
-0.1457,0.9765,0.0251,-0.5915,0.076,0.0229,-2.7125,1.2775,-14.2275,0,0,0,1.8199114713821527
-0.1466,0.9774,0.0277,-0.5915,0.0758,0.0185,-2.0388,0.6038,-14.4025,0,0,0,1.8319920496247248
-0.1454,0.9794,0.0263,-0.5915,0.0758,0.0185,-2.2662,0.5338,-14.7175,0,0,0,1.8440542242208267
-0.1476,0.9778,0.0207,-0.5905,0.0768,0.019,-3.0275,1.2075,-14.7087,0,0,0,1.8562519487515072
-0.1492,0.9803,0.0231,-0.5891,0.078,0.0152,-3.185,0.9887,-14.9187,0,0,0,1.8683144772638873
-0.1485,0.9793,0.0253,-0.5891,0.078,0.0152,-3.22,1.19,-14.595,0,0,0,1.8776546817637914
-0.1462,0.9783,0.0252,-0.59,0.0746,0.0181,-2.7913,1.0325,-14.805,0,0,0,1.8897501244900508
-0.1451,0.9768,0.0204,-0.59,0.0746,0.0181,-2.975,0.9013,-14.6562,0,0,0,1.9019128113091823
-0.1476,0.9769,0.0253,-0.5922,0.0777,0.0168,-2.6075,0.945,-14.7437,0,0,0,1.9139544587611443
-0.1488,0.9808,0.0238,-0.5922,0.0777,0.0168,-3.15,0.8575,-13.9737,0,0,0,1.9260814000361701
-0.1465,0.9784,0.0242,-0.593,0.0774,0.0161,-2.6513,0.7175,-14.3675,0,0,0,1.9381584391159596
-0.1465,0.9786,0.022,-0.5913,0.0758,0.0177,-3.2375,0.6563,-14.0612,0,0,0,1.9502903352188812
-0.1454,0.9803,0.0301,-0.5913,0.0758,0.0177,-3.5525,0.98,-13.9125,0,0,0,1.9623390609964086
-0.145,0.9784,0.0245,-0.5905,0.0756,0.0171,-3.5788,1.0237,-14.2887,0,0,0,1.9717500487519672
-0.1473,0.9779,0.022,-0.5905,0.0756,0.0171,-3.3075,1.3562,-14.175,0,0,0,1.9838815909386107
-0.1477,0.9775,0.0245,-0.5923,0.0787,0.0246,-2.5025,0.6737,-14.455,0,0,0,1.99592996279986
-0.1455,0.9793,0.0274,-0.5893,0.0762,0.0186,-2.765,0.8925,-14.5775,0,0,0,2.0080576119074425
-0.145,0.9761,0.0203,-0.5893,0.0762,0.0186,-2.9138,1.1725,-14.4462,0,0,0,2.0201824296847986
-0.1433,0.9784,0.0276,-0.5909,0.0766,0.019,-2.9225,0.9625,-14.4987,0,0,0,2.0323058317970415
-0.1465,0.9796,0.0236,-0.5909,0.0766,0.019,-2.1088,0.665,-14.5775,0,0,0,2.044352080160621
-0.1445,0.9795,0.0274,-0.591,0.0757,0.0133,-2.3538,1.4175,-14.5513,0,0,0,2.053731215451135
-0.148,0.9773,0.0248,-0.5902,0.0773,0.0172,-2.905,1.435,-14.105,0,0,0,2.066035822697854
-0.1488,0.979,0.0279,-0.5902,0.0773,0.0172,-2.7562,1.0937,-14.3587,0,0,0,2.077968463936108
-0.1443,0.9787,0.028,-0.5912,0.0766,0.0169,-2.7037,1.3475,-14.3937,0,0,0,2.0901113314436564
-0.1498,0.9771,0.023,-0.5912,0.0766,0.0169,-2.1788,1.3387,-14.7613,0,0,0,2.102135636997983
-0.1476,0.978,0.0265,-0.5926,0.0768,0.0146,-2.5988,1.0062,-14.0612,0,0,0,2.114345394682125
-0.1479,0.9786,0.027,-0.5907,0.0773,0.0182,-2.6775,1.1638,-14.0963,0,0,0,2.126424911175862
-0.148,0.9785,0.0249,-0.5907,0.0773,0.0182,-2.1788,0.8575,-14.07,0,0,0,2.138446031483684
-0.1451,0.9775,0.0232,-0.5917,0.0765,0.0184,-2.6688,1.0762,-14.5513,0,0,0,2.1477968534719363
-0.1448,0.9791,0.0289,-0.5917,0.0765,0.0184,-3.605,1.2075,-14.1312,0,0,0,2.160278418857792
-0.147,0.9797,0.0241,-0.5912,0.0773,0.0194,-3.2462,1.1375,-14.4725,0,0,0,2.1720344558731877
-0.1455,0.9763,0.021,-0.5895,0.0766,0.0161,-2.52,0.8838,-14.3413,0,0,0,2.184157150152874
-0.1474,0.9782,0.0249,-0.5895,0.0766,0.0161,-2.8525,0.6038,-14.245,0,0,0,2.1962267569908196
-0.1463,0.9798,0.0248,-0.5899,0.0776,0.0166,-3.3688,0.9013,-14.3675,0,0,0,2.2083650235867505
-0.1475,0.9801,0.0215,-0.5899,0.0776,0.0166,-2.7562,0.7525,-14.315,0,0,0,2.2204781621269234
-0.146,0.9789,0.0239,-0.5904,0.0779,0.0225,-3.22,0.945,-14.385,0,0,0,2.230074248096019
-0.1435,0.9775,0.0229,-0.5918,0.0754,0.0183,-2.8438,1.1725,-14.3062,0,0,0,2.2419707898738888
-0.1481,0.9793,0.0206,-0.5918,0.0754,0.0183,-2.9225,1.3037,-13.6763,0,0,0,2.2540248243955907
-0.1462,0.9823,0.0267,-0.5928,0.0782,0.0178,-2.7738,0.9625,-14.0875,0,0,0,2.2661347776892593
-0.1487,0.9754,0.0172,-0.5928,0.0782,0.0178,-2.4325,0.6737,-14.1487,0,0,0,2.27825464063872
-0.1466,0.9808,0.0265,-0.5891,0.0778,0.0178,-2.7562,0.6825,-14.49,0,0,0,2.2903975081462677
-0.1455,0.9789,0.0271,-0.5891,0.0778,0.0178,-2.8175,0.8663,-14.2712,0,0,0,2.3024334929377774
-0.1454,0.9765,0.0244,-0.5918,0.076,0.0146,-3.5613,1.26,-14.245,0,0,0,2.311800241158552
-0.1471,0.9803,0.0192,-0.5907,0.077,0.0177,-2.5725,0.9013,-14.3413,0,0,0,2.323927536349856
-0.1473,0.9784,0.0256,-0.5907,0.077,0.0177,-2.1,1.3125,-14.6212,0,0,0,2.3361057954852313
-0.1454,0.9783,0.0271,-0.5904,0.0755,0.0158,-2.6775,1.0762,-14.595,0,0,0,2.348156998676707
-0.1489,0.9808,0.0214,-0.5904,0.0755,0.0158,-2.8263,1.12,-14.6387,0,0,0,2.3602304985937135
-0.1455,0.9766,0.0244,-0.5904,0.0763,0.0114,-2.9225,1.225,-14.6737,0,0,0,2.3723953089105145
-0.1454,0.9781,0.0255,-0.5922,0.0768,0.0178,-2.6688,0.9538,-14.63,0,0,0,2.384482611562374
-0.1478,0.9814,0.0248,-0.5922,0.0768,0.0178,-3.0538,0.6825,-14.525,0,0,0,2.396583716949086
-0.1479,0.9794,0.0253,-0.5902,0.0769,0.0164,-2.6338,1.3912,-14.42,0,0,0,2.4058991473095106
-0.1465,0.9795,0.0228,-0.5902,0.0769,0.0164,-2.9663,1.7062,-14.4375,0,0,0,2.4180119319334055
-0.1444,0.9786,0.0218,-0.5906,0.0772,0.0153,-3.5,1.33,-14.455,0,0,0,2.430160108185128
-0.1477,0.98,0.0312,-0.5923,0.0774,0.0174,-2.415,1.2163,-14.6212,0,0,0,2.442289526874102
-0.1474,0.9785,0.0268,-0.5923,0.0774,0.0174,-2.9138,0.8663,-14.6737,0,0,0,2.454384969600361
-0.147,0.9789,0.0254,-0.5906,0.0758,0.0176,-2.7825,0.7613,-14.5687,0,0,0,2.466444312866237
-0.1476,0.9797,0.0249,-0.5906,0.0758,0.0176,-2.8788,1.2337,-14.665,0,0,0,2.4785666532296453
-0.147,0.9772,0.0247,-0.5907,0.0785,0.0206,-2.6163,0.9625,-14.315,0,0,0,2.488056564315259
-0.1456,0.9795,0.0296,-0.59,0.0766,0.0207,-2.7562,0.7788,-14.0,0,0,0,2.5001240476555346
-0.1459,0.9821,0.0234,-0.59,0.0766,0.0207,-3.185,0.8487,-14.1138,0,0,0,2.5121175624936516
-0.1469,0.9773,0.0263,-0.5903,0.0782,0.0181,-2.6688,1.1375,-13.475,0,0,0,2.5242388411082253
-0.1463,0.9789,0.0238,-0.5903,0.0782,0.0181,-2.7213,1.0762,-14.28,0,0,0,2.536338530829824
-0.1468,0.9783,0.0232,-0.5904,0.0773,0.0188,-2.625,1.19,-14.2712,0,0,0,2.5484707808490237
-0.1469,0.9778,0.0206,-0.5906,0.0764,0.0159,-2.5463,1.225,-14.3762,0,0,0,2.560543926849752
-0.1462,0.9775,0.0229,-0.5906,0.0764,0.0159,-2.8,1.085,-14.7525,0,0,0,2.5725937143761146
-0.1455,0.9787,0.027,-0.5908,0.0762,0.0173,-2.9488,0.98,-14.315,0,0,0,2.582004702131673
-0.1471,0.9803,0.0237,-0.5908,0.0762,0.0173,-3.43,1.1112,-14.735,0,0,0,2.594143322643882
-0.1464,0.9784,0.0271,-0.5901,0.0762,0.0136,-2.4588,1.1725,-14.91,0,0,0,2.6063166269513616
-0.146,0.9772,0.0291,-0.5901,0.0786,0.0156,-2.1613,1.1375,-14.6037,0,0,0,2.6183136809522614
-0.146,0.9786,0.0266,-0.5918,0.0786,0.0156,-2.3712,1.1462,-14.5075,0,0,0,2.630449824050522
-0.1483,0.9807,0.0248,-0.5894,0.0771,0.0178,-2.4938,0.7175,-14.4025,0,0,0,2.6425718104976523
-0.1466,0.9796,0.0246,-0.5894,0.0771,0.0178,-3.29,0.8838,-14.6125,0,0,0,2.6546909656145563
-0.1468,0.9787,0.023,-0.5915,0.0782,0.0203,-3.0625,1.26,-14.2275,0,0,0,2.663988346244789
-0.148,0.9803,0.0208,-0.5915,0.0782,0.0203,-2.485,0.7875,-14.7,0,0,0,2.6761237815104932
-0.1454,0.9808,0.0252,-0.5903,0.0788,0.0204,-3.3513,0.8575,-14.3325,0,0,0,2.6882404592134495
-0.1462,0.9758,0.0194,-0.5895,0.0766,0.0168,-3.5963,1.1287,-13.86,0,0,0,2.700333424525761
-0.1475,0.9793,0.0177,-0.5895,0.0766,0.0168,-3.36,1.0237,-14.4462,0,0,0,2.712458950135674
-0.1471,0.9798,0.0287,-0.5905,0.0761,0.0181,-3.1763,0.735,-13.7987,0,0,0,2.724547668452646
-0.1462,0.9782,0.0246,-0.5905,0.0761,0.0181,-3.0538,1.085,-13.895,0,0,0,2.7366484199230796
-0.144,0.978,0.0271,-0.5902,0.0777,0.0168,-2.66,0.8575,-14.2625,0,0,0,2.7487254590028694
-0.1465,0.9798,0.0173,-0.5894,0.0775,0.0187,-2.94,0.6388,-14.7,0,0,0,2.758194842944343
-0.1459,0.9806,0.0259,-0.5894,0.0775,0.0187,-2.9138,0.5425,-14.2625,0,0,0,2.770215963252165
-0.1463,0.9784,0.0253,-0.5918,0.0768,0.0178,-2.73,0.98,-14.3413,0,0,0,2.7823099903133115
-0.145,0.9791,0.0221,-0.5918,0.0768,0.0178,-3.185,1.3125,-14.455,0.43817360859558624,-4.108579368033465,0.400569832660103,18.515314488235294
-0.1482,0.9781,0.0264,-0.5926,0.0774,0.023,-2.485,0.9363,-14.8312,0.6130623743025275,-6.678570062471681,0.4400152721564906,18.52010474506172
-0.1443,0.9789,0.0253,-0.5894,0.0778,0.0168,-2.2225,0.5775,-14.8312,0.8822421253411075,-7.6509970619936025,0.7131982205283097,18.524947735413605
-0.1454,0.9773,0.0191,-0.5894,0.0778,0.0168,-2.7213,0.5688,-14.4812,0.8933003753861173,-8.051470171272882,0.927179332352186,18.52716183565048
-0.1477,0.9799,0.0254,-0.5906,0.0744,0.0171,-2.485,1.155,-14.63,0.9866749537753032,-8.325647542759926,1.0135131480754997,18.52926303659459
-0.1463,0.9792,0.0244,-0.5906,0.0744,0.0171,-1.9425,1.05,-14.4112,1.1726444271502177,-8.40626251312482,1.0503658343522835,18.531156134767073
-0.1459,0.9782,0.0232,-0.5918,0.0779,0.0182,-1.7587,0.9713,-14.56,1.2614461735894014,-8.444606299697938,1.05538166692614,18.532974910521116
-0.1501,0.9782,0.0235,-0.5914,0.0752,0.0152,-2.8612,0.7088,-14.385,1.279666494705097,-8.574290801330656,1.102096775702543,18.534813859503025
-0.1455,0.9791,0.0249,-0.5914,0.0752,0.0152,-3.1588,0.7263,-14.2187,1.3376288496059972,-8.522394097542527,1.1353245930014,18.536631219591957
-0.1455,0.9781,0.0255,-0.5897,0.0762,0.0181,-3.9025,0.8663,-14.4725,1.4235589051388986,-8.490841176683379,1.1715453822620432,18.538458135420402
-0.1489,0.9793,0.0231,-0.5897,0.0762,0.0181,-3.4388,0.7088,-14.7,1.392190214559897,-8.573807356301845,1.25199457434114,18.540297084402308
-0.1443,0.9786,0.0283,-0.5903,0.0774,0.0175,-3.5613,1.1025,-13.895,1.516553701769979,-8.520494746133794,1.2786626847187201,18.542119399319137
-0.1449,0.9781,0.0298,-0.5907,0.0774,0.0191,-2.905,0.9538,-13.9912,1.559676678944644,-8.488456900998669,1.2811970533148196,18.543948084728974
-0.1454,0.9784,0.0195,-0.5907,0.0774,0.0191,-3.22,0.7875,-14.6825,1.4118166623531867,-8.468293100574792,1.3414760182548378,18.54583976723634
-0.1491,0.9791,0.0255,-0.5902,0.078,0.0169,-3.1063,0.63,-14.4025,1.4360462248459307,-8.55708725776996,1.3635967561851359,18.547714461762354
-0.1451,0.9786,0.0209,-0.5902,0.078,0.0169,-3.045,0.9275,-14.2275,1.3783490624691404,-8.504544783521952,1.3669527528375074,18.54952899052106
-0.1482,0.9775,0.0226,-0.591,0.0765,0.0166,-3.045,0.9013,-14.4987,1.363720138998686,-8.561545768588413,1.3702780893233404,18.55136475425646
-0.1469,0.9778,0.0219,-0.591,0.0765,0.021,-3.1063,1.1462,-14.245,1.3393112934696394,-8.553146648565315,1.445584282235076,18.553181760429116
-0.145,0.9783,0.0246,-0.5918,0.0765,0.021,-2.66,0.7962,-14.49,1.3405538361995497,-8.491047062271502,1.500200798823737,18.555015046750572
-0.1463,0.9797,0.0232,-0.589,0.0779,0.0171,-2.3975,0.9625,-14.6475,1.344003764214318,-8.490996743067344,1.5001720724493506,18.55674711301644
-0.1459,0.9795,0.0279,-0.589,0.0779,0.0171,-3.0975,0.9363,-14.7962,1.4297768144029213,-8.47843973643582,1.4985491743451071,18.55793804129283
-0.1476,0.9776,0.0287,-0.5931,0.075,0.0174,-2.9663,0.6563,-14.6737,1.4869670159482542,-8.53437981567607,1.4885775343610474,18.559157282871478
-0.1505,0.9798,0.0225,-0.5931,0.075,0.0174,-3.1325,1.26,-14.7613,1.4329388509949623,-8.643550229303354,1.4917106582940183,18.560361306050165
-0.1496,0.9784,0.0256,-0.5905,0.0769,0.0186,-2.66,1.1375,-14.8837,1.4337482404382833,-8.670736899826657,1.5072087532144394,18.561554711740502
-0.1446,0.9777,0.0285,-0.5914,0.0765,0.0182,-2.3013,0.9713,-14.2712,1.4976161164941177,-8.557166562636239,1.5074627369857294,18.562752010509897
-0.1449,0.9797,0.0238,-0.5914,0.0765,0.0182,-2.1175,1.015,-14.7,1.4597878014798675,-8.477375269511443,1.510604181518303,18.563949663195576
-0.1463,0.9803,0.0301,-0.5918,0.0759,0.019,-2.3013,0.9013,-14.3762,1.5406994378397496,-8.480574301180297,1.515666589865401,18.565138114058016
-0.1477,0.9783,0.026,-0.5918,0.0759,0.019,-2.7388,1.0762,-14.3325,1.5395591148886476,-8.526791687602179,1.5274330101727924,18.566318424846056
-0.1476,0.9762,0.028,-0.5916,0.0785,0.019,-2.6688,1.2512,-14.35,1.5399340716473102,-8.55782060950243,1.5452918167588459,18.56752103235963
-0.1484,0.9791,0.0194,-0.5898,0.077,0.017,-2.8087,0.8838,-14.1312,1.4913884708131047,-8.580638109697137,1.5413154136350156,18.568708775389513
-0.1477,0.978,0.0243,-0.5898,0.077,0.017,-3.045,0.805,-14.4375,1.4729107022625358,-8.582959546640163,1.5293153454517723,18.569899349749623
-0.1471,0.9781,0.0226,-0.5919,0.0768,0.0166,-3.2987,1.3825,-14.07,1.4154284967810473,-8.571233572020715,1.4977183689467468,18.571091693691123
-0.1466,0.9809,0.0235,-0.5919,0.0768,0.0166,-3.4213,1.785,-14.5425,1.3970064210246254,-8.533795166411466,1.4609635753737498,18.572347742562716
-0.1473,0.9798,0.0251,-0.5898,0.0792,0.0217,-3.5963,0.9538,-14.3587,1.4308352720212163,-8.53982851732053,1.4642754623906937,18.573572646801818
-0.1464,0.978,0.0208,-0.5894,0.0762,0.0185,-3.36,1.1638,-14.0175,1.3442736681067562,-8.530259300215937,1.491597370738366,18.574784102222345
-0.1464,0.9787,0.0224,-0.5894,0.0762,0.0185,-3.2113,1.3037,-14.0787,1.3326672686614058,-8.521164465559687,1.5229848166645432,18.576011483875398
-0.1453,0.977,0.0271,-0.5918,0.0758,0.0176,-2.8525,1.2687,-14.4987,1.3717587690275468,-8.488570926695484,1.5146403757200058,18.577205951314568
-0.1471,0.9789,0.0247,-0.5918,0.0758,0.0176,-2.3275,1.0675,-14.7087,1.3906466211940023,-8.518469021924966,1.5137987215258155,18.578401126586296
-0.1463,0.9789,0.0254,-0.5907,0.0775,0.0204,-2.1963,0.9013,-14.0787,1.4215159048551347,-8.510737421156643,1.5282071516728724,18.579600194937086
-0.1465,0.9775,0.0257,-0.5919,0.0768,0.0214,-2.5288,0.875,-14.4725,1.4321331085126487,-8.515642294535446,1.554573922980362,18.580797139790207
-0.1465,0.978,0.0275,-0.5919,0.0768,0.0214,-2.695,0.63,-14.7087,1.4360716688319781,-8.515832183160548,1.6270642703275726,18.581984528903813
-0.1438,0.9767,0.0234,-0.5904,0.0769,0.0189,-3.0538,1.12,-14.3238,1.4185052592913572,-8.451486439664784,1.628920827105865,18.583174749347645
-0.1465,0.9776,0.0278,-0.5904,0.0769,0.0189,-3.4563,1.2337,-14.6125,1.510947881509107,-8.487186364635615,1.624312198090602,18.584375941196104
-0.1469,0.9782,0.0229,-0.5924,0.0778,0.016,-3.08,1.1812,-14.3238,1.4617593429884443,-8.510190532225792,1.576553963571865,18.58556368422599
-0.1454,0.9787,0.0265,-0.5903,0.0774,0.017,-2.66,1.1987,-15.0237,1.4628559008815822,-8.472217075739138,1.5491480011267171,18.586746826344253
-0.1457,0.976,0.0227,-0.5903,0.0774,0.017,-2.2138,1.26,-14.8837,1.421822927870324,-8.481551934847174,1.5291591961411028,18.58794907994155
-0.1486,0.9782,0.0283,-0.589,0.0769,0.0172,-2.2225,0.6475,-15.1462,1.4948469354978906,-8.576521383631343,1.5087386445618538,18.589136822971433
-0.1437,0.9757,0.0222,-0.589,0.0769,0.0172,-2.8175,0.8138,-14.5162,1.470596333939232,-8.47562204329966,1.5062807946967682,18.59031961117342
-0.1469,0.9767,0.0199,-0.5907,0.0763,0.0176,-2.8963,1.1725,-14.1925,1.4151056780453333,-8.50667523532494,1.5126833851640042,18.59151407861259
-0.1478,0.9819,0.0218,-0.5907,0.0763,0.0176,-2.9313,1.4,-14.5687,1.385650730261927,-8.533199267858782,1.5178290994577832,18.592709607800597
-0.1464,0.9793,0.0231,-0.5911,0.0765,0.0187,-0.5775,0.5425,-14.315,1.362370674896742,-8.518365792172672,1.5490054999233966,18.59392070930485
-0.1462,0.9764,0.0226,-0.5907,0.0761,0.0186,-2.38,1.0762,-14.7262,1.3541288222354821,-8.515741466835706,1.5562267956458387,18.595132518641655
-0.1451,0.9775,0.0272,-0.5907,0.0761,0.0186,-2.7475,1.5225,-14.9975,1.3708699142437961,-8.470420085896865,1.5664649855504944,18.59633477223895
-0.1466,0.9755,0.024,-0.5911,0.0756,0.0198,-3.0713,1.2775,-14.5425,1.3818419525902599,-8.507939358690173,1.604304727182946,18.597524638766505
-0.1488,0.9791,0.0223,-0.5911,0.0756,0.0198,-3.36,1.7762,-13.9212,1.3504301210554481,-8.546700911529221,1.6640915543251003,18.598712735712667
-0.146,0.9794,0.0253,-0.5916,0.0757,0.0242,-2.7738,1.4962,-14.0175,1.3623310596117713,-8.52263479441284,1.8282815749963943,18.599911804063456
-0.1452,0.9769,0.0209,-0.5898,0.0769,0.0181,-2.9138,1.0675,-13.8512,1.3357482681533055,-8.504440531235968,1.8049156730100604,18.601110164581687
-0.148,0.9836,0.0258,-0.5898,0.0769,0.0181,-2.4325,1.2163,-14.1837,1.368022827699179,-8.524550789669746,1.75284624831382,18.60230675551853
-0.1454,0.9801,0.0206,-0.5902,0.0771,0.0186,-3.045,1.7937,-14.2975,1.323523240623503,-8.485584684698102,1.6987526108346238,18.603587932445876
-0.1448,0.9698,0.0223,-0.5902,0.0771,0.0186,-3.2288,1.5225,-13.8162,1.3212813446075713,-8.48660034817135,1.6701058301188756,18.60487194070345
-0.1471,0.9764,0.0224,-0.5915,0.0765,0.0126,-3.5525,0.98,-13.65,1.3179739799878327,-8.496714851906527,1.6587089272259854,18.60606711597518
-0.1471,0.9877,0.0268,-0.5901,0.0745,0.0183,-3.6138,1.4175,-14.2625,1.43255214526868,-8.484242265816919,1.6300990788930798,18.607269369572474
-0.1427,0.9726,0.0192,-0.5901,0.0745,0.0183,-2.3538,1.2687,-14.595,1.3596656990375129,-8.411692374604817,1.6278702048470532,18.608480117160447
-0.1464,0.9791,0.023,-0.5911,0.0763,0.0172,-2.1,1.015,-14.7525,1.3545762444500127,-8.461775104684024,1.6203957849168862,18.609671045436833
-0.1457,0.9812,0.0267,-0.5911,0.0763,0.0172,-2.9663,0.4987,-15.5225,1.4009420260341814,-8.449314430628226,1.5674801484229068,18.610864805043448
-0.1463,0.9788,0.0246,-0.5902,0.0786,0.0178,-2.3538,0.945,-14.6125,1.4103079016466318,-8.475110573862638,1.566740112018669,18.61224578636127
-0.1464,0.9744,0.0218,-0.5902,0.0771,0.0173,-2.0913,1.1987,-14.5162,1.3630203024355947,-8.50901535502048,1.553694377019935,18.613452286953905
-0.143,0.9775,0.0256,-0.5902,0.0771,0.0173,-2.1875,1.3825,-14.735,1.4078164439972882,-8.404685052345782,1.5289393762477754,18.614637906486116
-0.1491,0.9802,0.0273,-0.593,0.0756,0.0176,-2.5375,1.4088,-14.4112,1.4301144877649834,-8.51946027779987,1.51517674713615,18.615835559171792
-0.1462,0.9788,0.0267,-0.593,0.0756,0.0176,-2.24,0.9275,-14.6037,1.470093688069157,-8.505150015620876,1.514298588664453,18.617036397103973
-0.1427,0.9648,0.0156,-0.5916,0.0758,0.0229,-3.2813,1.3037,-14.5162,1.264315873306889,-8.458421178571388,1.6588065746673581,18.618224140133858
-0.1501,0.9802,0.024,-0.5906,0.0777,0.0194,-2.7213,1.505,-14.7087,1.2707574744969874,-8.592480064581197,1.6670352900229977,18.61941683799164
-0.1509,0.994,0.0247,-0.5906,0.0777,0.0194,-2.5725,0.77,-14.4812,1.2846315234986396,-8.61083396268345,1.6690222396134782,18.620624400333107
-0.1466,0.9678,0.0244,-0.5917,0.0774,0.0173,-3.4475,0.42,-14.105,1.3543162070313077,-8.610839416924376,1.6001764656850177,18.621822053018782
-0.1468,0.9804,0.0256,-0.5917,0.0774,0.0173,-3.3688,1.2687,-14.4462,1.4123774048707078,-8.563357844567319,1.5687118007488536,18.62300944213239
-0.1448,0.9769,0.0266,-0.5913,0.0779,0.0196,-3.3688,1.6625,-14.7613,1.4728622334224346,-8.488002429065983,1.6137760688002265,18.624203201739004
-0.1449,0.9785,0.0176,-0.5899,0.0781,0.017,-2.5025,0.9363,-14.5338,1.4085997539912556,-8.45450161602343,1.611003302851025,18.625403331838626
-0.1493,0.9848,0.0247,-0.5899,0.0781,0.017,-2.4675,0.6388,-13.8162,1.413387241602815,-8.493541429401791,1.5711406039307223,18.626592490533625
-0.1466,0.9742,0.0237,-0.5922,0.0769,0.0176,-2.7388,1.47,-13.825,1.4121556862344224,-8.508603846230573,1.5500264089498144,18.627811378195997
-0.146,0.9791,0.0206,-0.5922,0.0769,0.0176,-2.4588,0.9975,-14.0963,1.3757441233262342,-8.497724853026249,1.5494295046838513,18.629019294453744
-0.1451,0.9749,0.027,-0.5885,0.0756,0.0167,-2.73,0.9363,-14.4112,1.3872100486752332,-8.480868641117912,1.5459921630422033,18.630206683567348
-0.1462,0.975,0.0245,-0.5885,0.0756,0.0167,-2.6425,0.9013,-14.2275,1.3887282734925919,-8.49951820086021,1.5393245959873239,18.631493877071428
-0.149,0.9817,0.0238,-0.5904,0.0766,0.0178,-1.9862,0.945,-15.015,1.388752291953985,-8.576771210298018,1.5392333630462929,18.632705686408237
-0.1458,0.9838,0.0213,-0.5896,0.075,0.0161,-2.8087,1.2687,-14.8575,1.3709502159444016,-8.49115842658764,1.5053619623155872,18.633910417419475
-0.1456,0.9744,0.0206,-0.5896,0.075,0.0161,-3.1325,0.9013,-14.9362,1.3205888769490441,-8.494415955757882,1.4993096161270527,18.635165758458513
-0.1454,0.9776,0.0217,-0.5905,0.0766,0.0169,-2.7913,0.8225,-14.3762,1.315384430329736,-8.477259488388516,1.4947565067623192,18.63639207836273
-0.148,0.9773,0.0248,-0.5905,0.0766,0.0169,-1.8987,1.1025,-14.0262,1.3756888859006913,-8.522395609548342,1.4878113653074196,18.63760884252743
-0.1452,0.9791,0.0197,-0.5915,0.0764,0.0171,-2.2662,1.0587,-14.5338,1.3112609724586408,-8.477399063325667,1.4884102756928321,18.63879729338987
-0.1461,0.9794,0.0214,-0.5917,0.0754,0.0187,-2.2838,1.0762,-14.945,1.2945971952351907,-8.480365452086385,1.5037337494543517,18.63998574425231
-0.1459,0.9783,0.0241,-0.5917,0.0754,0.0187,-2.1788,0.9275,-14.5338,1.3331243720844468,-8.480090758832727,1.5074646542327674,18.641180565607762
-0.1472,0.9766,0.0223,-0.5903,0.0768,0.017,-2.4763,0.7613,-14.3587,1.329018156268714,-8.52124023268156,1.5007029728211785,18.642370786051593
-0.1484,0.9784,0.0289,-0.5903,0.0768,0.017,-2.2925,0.8225,-15.0237,1.4289340144898552,-8.5814111434603,1.4905055324980863,18.643553220337303
-0.1467,0.9778,0.0248,-0.592,0.077,0.0233,-3.1675,1.1462,-14.4112,1.4368648517532674,-8.556830908539975,1.5773080480144634,18.64475264260437
-0.1484,0.9802,0.0216,-0.589,0.0774,0.0174,-3.1412,0.56,-14.3937,1.3811785914308947,-8.580477536387631,1.5589158948644615,18.645952772703996
-0.1487,0.9801,0.0234,-0.589,0.0774,0.0174,-3.2375,0.945,-14.9187,1.3763062247262805,-8.606372282071273,1.5579468492874111,18.647180508273323
-0.1443,0.9781,0.0233,-0.591,0.0773,0.0178,-2.8525,1.12,-14.6387,1.3745237635476237,-8.49129464894674,1.5545790266266957,18.648387362782234
-0.1443,0.9795,0.022,-0.591,0.0773,0.0178,-2.8525,0.9538,-14.42,1.3611188657200202,-8.437300439350988,1.554493897278598,18.64959775645393
-0.1469,0.9759,0.0225,-0.5904,0.0781,0.0194,-2.8263,1.1725,-13.9825,1.3557368547624356,-8.476478520886754,1.5785084028743375,18.650830092934875
-0.1455,0.9788,0.0224,-0.5933,0.0771,0.0164,-2.4325,1.2425,-14.245,1.3470788017215423,-8.466474274006375,1.5395860313003447,18.652038717025178
-0.146,0.9793,0.0214,-0.5933,0.0771,0.0164,-3.4738,0.8925,-14.0262,1.3047139768176614,-8.470282201872891,1.5311357718860712,18.653240970622473
-0.1459,0.9783,0.0282,-0.5907,0.0775,0.0174,-3.255,1.3825,-14.2275,1.4322314660273523,-8.473899656349486,1.509375502170978,18.654439685056982
-0.1437,0.9793,0.0224,-0.5907,0.0775,0.0174,-2.5813,1.3825,-13.86,1.4220489823915652,-8.440138292492595,1.5072528787331576,18.655625304589197
-0.1487,0.9762,0.0273,-0.5906,0.0777,0.0127,-2.415,1.26,-13.9737,1.4588689089056892,-8.509819345672831,1.393450163864195,18.656819064195812
-0.1473,0.9768,0.0235,-0.5902,0.0802,0.0182,-2.3888,0.8663,-13.8775,1.4410360403884788,-8.527068535828043,1.4083056935945635,18.658013531634985
-0.1477,0.9786,0.0242,-0.5902,0.0802,0.0182,-2.94,1.54,-14.56,1.4358759797821827,-8.55441893496084,1.4635679351582147,18.65920056683231
-0.1484,0.9797,0.0262,-0.5902,0.0767,0.0181,-2.6775,0.805,-14.9888,1.436359360062841,-8.587862828451748,1.4744870552916554,18.66038087762035
-0.1446,0.9765,0.025,-0.5902,0.0767,0.0181,-2.1875,0.9275,-14.7175,1.4462173045698439,-8.496014726635957,1.477058545067603,18.661585254715316
-0.1459,0.9769,0.026,-0.5915,0.0748,0.0147,-2.8,1.1462,-14.6037,1.4550796920689182,-8.493583358149387,1.437133265058775,18.662810512870696
-0.1473,0.9789,0.0242,-0.5915,0.0775,0.0201,-2.4325,0.9275,-14.6562,1.44754767035866,-8.526380059006657,1.4472826664032383,18.66400710380754
-0.1454,0.9798,0.0254,-0.5934,0.0775,0.0201,-2.9138,0.9538,-14.6562,1.4548264082389666,-8.479122393517036,1.4494595659626712,18.66520935740483
-0.1468,0.9797,0.0224,-0.5895,0.0769,0.0172,-2.9925,0.6563,-14.7875,1.419661226940063,-8.501945443490152,1.4583882029698865,18.666401347430057
-0.1451,0.9794,0.0278,-0.5895,0.0769,0.0172,-2.7825,0.945,-14.9362,1.4401081964783848,-8.455931002561346,1.458194571539328,18.6675848434646
-0.145,0.9753,0.0268,-0.5904,0.0791,0.0134,-2.8525,1.1375,-14.4025,1.4605410153035665,-8.454638949063817,1.4015002257581308,18.668788866643286
-0.1448,0.9762,0.0211,-0.5904,0.0791,0.0134,-3.22,1.3037,-14.245,1.3818799195596734,-8.446371358466392,1.3307743864422523,18.669992181989414
-0.144,0.9805,0.026,-0.5909,0.0768,0.0157,-2.9925,1.0675,-14.7788,1.4151164150332485,-8.393489195870679,1.3290879589277829,18.671178509354185
-0.1455,0.981,0.023,-0.5911,0.0771,0.0178,-2.8438,0.98,-14.4725,1.4045781105892552,-8.413539695845008,1.3328476369059,18.67236342105384
-0.1453,0.9801,0.0273,-0.5911,0.0771,0.0178,-2.9575,1.1987,-14.4287,1.4469343195499806,-8.421198327823662,1.3655785745488493,18.673561781572076
-0.1456,0.9772,0.0273,-0.5908,0.0768,0.0162,-3.3863,1.5925,-14.0963,1.5107952316310873,-8.439867075175245,1.359916168064257,18.674760849922865
-0.1496,0.9769,0.0223,-0.5908,0.0768,0.0162,-3.2375,1.4,-14.3413,1.4374616436067134,-8.56047714598919,1.3687709567262347,18.675947177287636
-0.1478,0.9785,0.0235,-0.592,0.0774,0.0143,-2.3625,1.155,-13.6937,1.4228652788298992,-8.564737468356856,1.3403677852878637,18.67714306039192
-0.1452,0.9798,0.0253,-0.5914,0.0783,0.0171,-3.325,1.2512,-13.7812,1.4450868641518175,-8.534657896376055,1.3644066309877627,18.678346375738048
-0.1475,0.9791,0.0228,-0.5914,0.0783,0.0171,-3.08,1.0237,-14.0087,1.4129181292189334,-8.5447939885746,1.3703879708780768,18.6795330570191
-0.1454,0.9809,0.0257,-0.592,0.078,0.017,-2.9925,0.8663,-14.2712,1.4342332699203368,-8.494369402214303,1.3759514465072649,18.68071549130481
-0.1474,0.9794,0.0257,-0.592,0.078,0.017,-3.3688,0.9538,-14.0787,1.4625147858394678,-8.516862372238974,1.376397773822478,18.681914913571877
-0.1471,0.9777,0.0246,-0.5904,0.0758,0.0162,-3.0888,0.8925,-14.4462,1.4562843511018873,-8.534700037248069,1.3763237247663027,18.683107611429655
-0.1456,0.9772,0.0241,-0.5908,0.0756,0.0178,-2.485,0.8225,-14.4812,1.4494138342431155,-8.503698357772551,1.395358061130463,18.684292877045593
-0.1462,0.978,0.0214,-0.5908,0.0756,0.0178,-2.555,1.47,-14.7175,1.428824993804903,-8.50173043187966,1.448361299714948,18.685489821898713
-0.1451,0.9776,0.024,-0.5911,0.0766,0.0186,-2.8963,0.8225,-14.7788,1.4247093068936094,-8.46710025530373,1.4676504391788607,18.68668924416578
-0.1449,0.9792,0.0273,-0.5911,0.0766,0.0186,-2.8963,0.8575,-14.5687,1.4562211551595667,-8.439803998182875,1.4783993582671122,18.687879464609612
-0.1437,0.978,0.0269,-0.5906,0.0765,0.0186,-2.5288,1.155,-14.3762,1.4712061757658426,-8.400579584312904,1.495856554396242,18.68907216246739
-0.1471,0.9779,0.0207,-0.5928,0.0771,0.0166,-2.4675,1.0587,-14.0175,1.4272292737104584,-8.452278125777967,1.4903923277689513,18.69025919766472
-0.1629,0.9717,0.0304,-0.5928,0.0771,0.0166,-2.4588,1.19,-14.28,1.4914294031504993,-8.915933376358801,1.4660790923355058,18.691450833773665
-0.2254,0.9645,0.0642,-0.592,0.0769,0.0184,-1.8987,1.19,-13.335,2.502032765201141,-9.519793300578202,1.431014057149432,18.69263220631054
-0.0483,0.9113,0.0043,-0.592,0.0769,0.0184,-0.7,1.4,-8.47,1.0211415764200653,-4.109042343039894,1.523865765338909,18.693812517098582
-0.1157,1.036,0.0251,-0.593,0.0771,0.0177,-2.94,8.435,-7.0788,1.0985535330813558,-6.065877732830834,1.5171595074920872,18.69499742879824
-0.1568,0.9904,0.0013,-0.5937,0.0778,0.017,-3.605,10.1937,-8.435,0.6047357196965855,-8.513396420015095,1.6073006791571325,18.696215254711777
-0.1576,1.0024,0.034,-0.5937,0.0778,0.017,-1.7413,8.19,-8.4087,1.2498382350642538,-8.861634434795928,1.4018234090118544,18.69745466951829
-0.1673,0.9633,0.044,-0.5959,0.0799,0.0164,-2.3888,7.0088,-6.7375,1.5515453459658965,-9.716129995842337,1.2409142142610212,18.69870257831548
-0.1258,0.9556,-0.0386,-0.5959,0.0799,0.0164,-3.1412,4.9788,-8.8025,0.3181242837373854,-7.883469419049354,1.7434573846044166,18.6998995231686
-0.284,1.0124,0.0718,-0.5964,0.0809,0.019,-0.1663,6.0025,-8.7412,2.9903760641053605,-14.287571537897293,1.3488945677316395,18.701074525212466
-0.2553,0.9857,0.14,-0.5964,0.0809,0.019,2.8087,0.77,-3.6663,7.297841332459654,-14.373709890472268,1.2465200238625178,18.702242448930765
-0.2161,0.9409,-0.0173,-0.5975,0.0798,0.0174,3.7275,-2.0563,-1.645,0.07519089651076427,-13.044955990459217,1.6625498222437256,18.703439747700163
-0.1535,0.8459,-0.0007,-0.5952,0.0809,0.015,-1.6187,12.18,-3.22,0.012284636208883606,-10.529780253441855,1.4566508490897907,18.704643416962572
-0.0536,1.0707,-0.034,-0.5952,0.0809,0.015,0.1312,15.6712,-8.0412,-1.337405669786711,-4.0507874791049705,1.6664040133306017,18.705841069648248
0.0736,1.0734,0.0547,-0.5993,0.0798,0.0134,2.1263,15.225,-0.6737,2.1835248645428336,3.3411985939811264,0.9515702354315548,18.70701040903166
0.1053,0.9923,-0.0387,-0.5993,0.0798,0.0134,1.33,12.5738,3.185,-1.3504625668311632,5.899517688640281,1.5563345653454037,18.70816488393139
-0.101,1.044,-0.0501,-0.602,0.0807,0.0143,-4.095,15.26,-13.4663,-2.1707813977181214,5.50097420784118,1.702909818746804,18.70937775501703
-0.4167,1.0129,0.0163,-0.5997,0.0828,0.0141,-14.0175,20.8687,-22.8812,0.6714238780869318,-19.67495218721874,1.2693486352418537,18.71060513667008
-0.1318,0.9604,-0.0024,-0.5997,0.0828,0.0141,-3.7362,3.2638,2.1438,0.2515385806249262,-8.526643400341511,1.328228261595705,18.711786863123233
-0.0257,0.9039,-0.0523,-0.603,0.0853,0.0095,9.1087,-7.3675,1.7325,-3.0326933306839625,-2.050951569613715,1.3603430285369222,18.712967881743833
-0.0795,0.8713,-0.0271,-0.603,0.0853,0.0095,-2.9838,6.9563,-16.0825,-2.735617315541877,-4.3282384091339745,1.1750454499815195,18.714180398913193
-0.1332,1.077,-0.0371,-0.6052,0.0839,0.0137,-1.9162,9.1087,-30.6513,-2.4071978766132416,-6.896463121221317,1.513266300750377,18.715395039580226
-0.1253,1.1342,0.0163,-0.6032,0.0835,0.0146,-8.9425,14.0,-21.5163,0.37899684650469834,-6.3692875421599435,1.2788698439240094,18.716601186256582
-0.1697,0.9941,0.0356,-0.6032,0.0835,0.0146,-10.9637,6.9388,-7.8313,1.8710091255123256,-9.184860477521644,1.1187122698940706,18.717794238030642
-0.0288,0.9709,-0.0579,-0.6054,0.0821,0.0156,-4.5938,0.5862,-5.11,-1.6041280807576803,-2.4933858359221848,1.339788860979191,18.718988705469812
-0.085,0.9208,-0.0043,-0.6054,0.0821,0.0156,-12.1712,12.2062,-11.7425,-0.39486803138469806,-4.266536206506234,1.4869107924284424,18.720219272369366
-0.1568,0.9595,0.0376,-0.6027,0.0842,0.0211,-12.3812,16.59,-21.9625,1.9976745442012342,-8.744809363270797,1.6630047039068563,18.721433205203844
-0.1762,1.0294,0.0402,-0.6067,0.0827,0.0209,-3.5525,8.4525,-20.9913,2.109408953234313,-9.5925926620656,1.653618395552831,18.722631211805798
-0.1926,0.9962,0.0548,-0.6067,0.0827,0.0209,0.7,2.6688,-8.3475,2.9109409323882502,-10.709477119013618,1.575134763122499,18.723801966854325
-0.1837,0.9843,0.0041,-0.61,0.0862,0.0181,4.4012,-4.8125,-0.9887,0.5696468548840653,-10.581625642615698,1.6398595131694653,18.7249833393912
-0.2386,1.1105,0.0404,-0.61,0.0862,0.0181,9.2137,-5.9763,-0.3237,1.966022780018392,-12.00995239051663,1.4247566159162637,18.726166481509466
-0.1314,1.1386,0.0566,-0.61,0.0868,0.0174,10.9725,-2.0825,4.8213,2.785763825693915,-6.856298299571951,1.2671503767135253,18.727353162790518
-0.0563,1.1524,-0.0024,-0.616,0.0882,0.0121,12.7137,-7.0088,29.8375,0.05796476685652655,-2.8884814892745623,1.150447678732593,18.728603195085377
-0.0048,1.1586,-0.0334,-0.616,0.0882,0.0121,8.2337,-7.42,41.7988,-1.5077012196177548,-0.28436222725703714,1.3379633459298088,18.7298196053338
0.2092,1.1122,-0.2256,-0.6238,0.0894,0.0082,2.3888,-6.5012,48.16,-9.823365792628215,10.273516281742467,2.337771162632043,18.731027521591546
0.1366,1.0549,-0.1517,-0.6238,0.0894,0.0082,1.1287,1.575,52.7625,-8.524917406276154,7.348064250905783,2.1958316598683085,18.732210309793537
-0.0195,0.9714,-0.066,-0.6331,0.0942,0.0064,7.9012,-2.9925,51.9487,-4.287624689190639,-1.019518696114533,1.3630448899684315,18.73340229981876
-0.0216,0.9348,-0.1806,-0.6331,0.0942,0.0064,19.705,-10.9462,42.42,-10.650288651445136,-1.2947269088291284,2.1150413612815595,18.734642776374105
-0.1248,0.9082,-0.1393,-0.6463,0.0962,0.008,18.2875,-6.8338,35.0175,-8.807983332064449,-7.604883862524195,1.988770091450656,18.73586307970159
-0.1371,0.9235,-0.1147,-0.6552,0.0973,0.0025,16.135,-11.725,30.205,-7.167201027895453,-8.363457197862552,1.3058727912784267,18.73708515261047
0.0315,1.0489,-0.1793,-0.6552,0.0973,0.0025,21.5775,-23.2313,27.5538,-9.600110878515933,1.4563984850178582,1.6426660763299405,18.73828988362171
0.033,1.1373,-0.163,-0.6635,0.099,-0.0054,21.7787,-26.775,29.6625,-8.212929642983575,1.6409553760122877,0.7856670031095788,18.73956079697699
0.0896,1.2246,-0.1417,-0.6705,0.0954,-0.0119,18.165,-31.7712,28.5163,-6.6742548493058225,4.098561972742561,0.04857728438935412,18.740801627448615
0.1097,1.3735,-0.1066,-0.6705,0.0954,-0.0119,17.325,-38.4562,17.3162,-4.5444442388179835,4.538549712621065,0.380251472960687,18.742025823855162
0.2587,1.4345,-0.1088,-0.6669,0.0939,-0.0204,-7.35,-40.6963,-8.7762,-4.373791490486699,9.20658685239126,1.1671331418876694,18.743263469080283
0.1698,1.4007,-0.1283,-0.6669,0.0939,-0.0204,-20.8162,-38.7275,-16.765,-5.188611900882672,7.428441830896532,1.0378086045673007,18.744593132537755
0.2142,1.437,-0.0662,-0.6584,0.0986,-0.0312,-30.3362,-44.275,-23.6338,-2.726644529654486,8.375760257622723,2.3663256447926933,18.74596243461839
0.2243,1.5367,-0.0519,-0.6418,0.1091,-0.0465,-33.6875,-50.9337,-31.605,-1.9591009882902066,8.30368569426833,3.9237889503569767,18.74722910097833
0.3658,1.4294,-0.0744,-0.6418,0.1091,-0.0465,-41.6325,-52.97375,-13.5975,-2.9540091139187026,8.827216246415436,3.9244646692140543,18.748521603226585
-0.0122,0.9717,0.1238,-0.138,0.1738,0.0261,-1.2425,-0.2975,-13.5975,3.0570033411885515,7.999191101912441,0.8432996289152935,18.750610063184673
-0.0109,0.9759,0.1139,-0.138,0.1738,0.0261,-1.085,0.0875,-13.7462,5.265684028859956,6.307022575691172,0.652359121187754,18.75181762552614
-0.0147,0.9781,0.1188,-0.1399,0.1734,0.0257,-1.6187,0.175,-13.9212,6.117165475356572,4.193242157142934,1.180038447914669,18.75307190481634
-0.0115,0.9852,0.1175,-0.1399,0.1734,0.0257,-2.2925,-0.0438,-14.0,6.305518386555839,2.579468295411708,1.5967897077146855,18.75430105605078
-0.0124,0.9938,0.1215,-0.1376,0.1752,0.0218,-2.7738,-0.21,-13.8425,6.366697181618049,1.7448676844054272,0.8188301650397265,18.755530207285226
-0.0057,0.9944,0.1221,-0.1393,0.1745,0.0272,-3.5088,-0.2187,-13.125,6.655209846190032,1.177398785016558,1.6416950875977572,18.75675688110572
-0.0014,0.9886,0.1257,-0.1393,0.1745,0.0272,-5.2413,0.8225,-13.4925,7.080637412804642,1.1649888242134165,1.6903986653814518,18.757959488619292
-0.0084,0.9719,0.1319,-0.1366,0.1745,0.0256,-5.9063,1.505,-13.5362,7.575553687947183,1.110955725295718,1.3728104310269345,18.759166343128204
-0.0135,0.9636,0.1361,-0.1366,0.1745,0.0256,-5.7575,1.4962,-13.4925,7.925812023115209,1.0921543916112624,1.0300700490219294,18.76044221131138
-0.0145,0.9575,0.137,-0.1382,0.1739,0.0278,-5.2238,0.7437,-13.7375,8.081605300416712,0.7208640571000297,1.0560253150729604,18.7616798565365
-0.0132,0.9563,0.1341,-0.1415,0.1725,0.0279,-4.3137,0.8487,-14.1312,8.019972372844359,0.140272773463358,1.0972974572290275,18.762877155305894
-0.0074,0.9564,0.1426,-0.1415,0.1725,0.0279,-4.2438,0.9538,-14.175,8.301322932280815,-0.09243961207611791,1.0955143430234104,18.76407905498691
-0.0046,0.9594,0.1373,-0.1398,0.1732,0.0286,-3.2987,1.1025,-15.0237,8.24086052644473,-0.20074537373219564,1.1501307415192394,18.765283432081873
-0.0072,0.9629,0.1372,-0.1398,0.1732,0.0286,-3.08,1.8637,-15.61,8.202759872461042,-0.3522469002376788,1.352146660891775,18.766492764004735
-0.0118,0.9589,0.1416,-0.1378,0.1745,0.0278,-3.2025,2.1088,-15.505,8.271129794207795,-0.5824929030832199,1.0693566047322731,18.76769466368575
-0.0136,0.9551,0.1448,-0.1398,0.1736,0.0237,-2.9838,2.45,-14.8925,8.354153381425675,-0.7128232598530926,0.19404470874562404,18.768902579943493
-0.0199,0.9536,0.1412,-0.1398,0.1736,0.0237,-2.765,3.3688,-15.1988,8.359953252369046,-1.0083729174031217,0.6168601001522279,18.770089615140822
-0.0279,0.9453,0.1371,-0.1388,0.173,0.0274,-2.5113,3.605,-14.7525,8.345007467471659,-1.3776524335758842,0.4910381706843096,18.771287975659053
-0.0307,0.945,0.1365,-0.1388,0.173,0.0274,-2.3187,3.43,-14.4287,8.312135673893962,-1.6007435638293743,0.815586495207894,18.77248987534007
-0.0301,0.9505,0.1349,-0.1381,0.1737,0.0246,-2.1,3.0363,-14.35,8.226816891797313,-1.6902354397170427,0.25127015178403383,18.77367832620251
-0.0324,0.9603,0.1314,-0.1381,0.1737,0.0294,-0.6825,2.38,-14.8312,7.937109312795838,-1.8182360814566096,1.4063414708354665,18.77487350147424
-0.0301,0.9681,0.1349,-0.1385,0.1731,0.0294,-0.3588,1.3825,-15.3475,7.934104597540494,-1.7829505584501146,1.6064909730718577,18.7761235337691
-0.0256,0.9801,0.1296,-0.1382,0.1738,0.0258,-1.225,0.9013,-14.8575,7.696651672493603,-1.6105424005568925,1.578945101947829,18.77739763237088
-0.0199,0.9913,0.1315,-0.1382,0.1738,0.0258,-1.96,1.2163,-14.9187,7.63830249461306,-1.334773444460126,1.4817589793922104,18.78784594873806
-0.0196,0.9942,0.1354,-0.1406,0.1746,0.0251,-2.5638,1.785,-15.3037,7.649776677307991,-1.1960758987207565,1.0478031616230798,18.800089682384915
-0.0205,0.9919,0.1373,-0.1406,0.1746,0.0251,-3.8413,0.9887,-14.4987,7.774320602483804,-1.18446354183838,1.0297891015830793,18.812469319882627
-0.0256,0.9844,0.1354,-0.1375,0.1733,0.0263,-3.5088,0.84,-14.2625,7.800429621917884,-1.3102678377720558,1.0249122005152644,18.82466916791098
-0.0275,0.9756,0.1337,-0.1387,0.173,0.0268,-4.0775,1.0587,-14.8837,7.802179883097794,-1.478135241541531,1.0424047524993836,18.83683539389289
-0.0292,0.9666,0.1341,-0.1387,0.173,0.0268,-3.9113,0.6388,-15.5662,7.855444547747226,-1.6369570666508133,1.0574293165222963,18.8457324952124
-0.0271,0.9726,0.1376,-0.1409,0.1734,0.0253,-3.0013,0.4025,-16.1437,7.904226236984879,-1.5958718914194012,0.7854988004760372,18.857902614273375
-0.0243,0.9802,0.1382,-0.1409,0.1734,0.0253,-2.6075,-0.0438,-16.6425,7.911610960388789,-1.4520279492198072,0.5586570090671561,18.870121219864473
-0.0195,0.9811,0.1399,-0.138,0.1742,0.0272,-2.8525,-0.6563,-15.9425,7.942703936569661,-1.2216550290762949,0.7982327101394396,18.88232389922305
-0.0188,0.9804,0.1343,-0.1386,0.1758,0.0283,-3.2288,-0.2538,-15.8812,7.891729900535036,-1.1278382967408722,1.2853897643798358,18.89462850646977
-0.0228,0.9659,0.1385,-0.1386,0.1758,0.0283,-4.34,0.805,-14.8925,8.059430320005987,-1.2503736393122469,1.2777008970493111,18.90674978508434
-0.0258,0.9572,0.1385,-0.1366,0.1746,0.0262,-4.2788,1.4,-14.4812,8.166498211090424,-1.3877195450775968,1.0028424879248763,18.918902916163958
-0.0282,0.9531,0.1358,-0.1366,0.1746,0.0262,-3.57,1.1987,-14.2537,8.139329953390813,-1.51216453700078,0.9120772404143132,18.931079051801664
-0.0293,0.9502,0.1397,-0.1382,0.1762,0.0222,-3.395,1.1025,-14.2887,8.233489359742855,-1.615714593817011,0.6186539200833674,18.93994182324218
-0.0271,0.9516,0.1391,-0.1373,0.1732,0.027,-3.4475,1.47,-13.8512,8.269649776690471,-1.6152982802422322,0.63624678578198,18.95216432191234
-0.024,0.9604,0.1435,-0.1373,0.1732,0.027,-3.0538,0.875,-13.0462,8.332716404533317,-1.5527899737929496,0.6213051636387087,18.96434293496399
-0.0157,0.9625,0.1426,-0.1376,0.1738,0.0276,-2.7825,1.4525,-12.4862,8.34210412368014,-1.2360702906184269,0.66265206410605,18.97650420611801
-0.017,0.9615,0.1369,-0.1376,0.1738,0.0276,-2.7825,1.295,-12.1275,8.318437558966343,-1.1010278974734096,0.7847286048350304,18.988700868899855
-0.014,0.9631,0.1383,-0.1381,0.1738,0.0254,-2.7388,1.6275,-12.1187,8.309308619606124,-0.9404237218433722,0.542384468233125,19.000935046807196
-0.0148,0.969,0.1428,-0.1412,0.1718,0.0272,-3.1675,1.89,-12.075,8.333792364570659,-0.8964764133412264,0.638390338887313,19.013100564956556
-0.0142,0.9698,0.1398,-0.1412,0.1718,0.0272,-2.555,1.8463,-12.3375,8.32003336408091,-0.8608641370619933,0.7896444342092195,19.02189078356002
-0.015,0.9689,0.1393,-0.1405,0.1738,0.0266,-2.5025,1.7325,-12.25,8.299899740055416,-0.8703516048628243,0.7239351958843395,19.034088154174427
-0.0174,0.9664,0.1408,-0.1405,0.1738,0.0266,-2.5725,1.6275,-11.41,8.29894613769355,-0.9720977917966835,0.6362560319589209,19.046333657402673
-0.0185,0.9651,0.1351,-0.1393,0.1742,0.0273,-2.1175,1.1112,-13.0812,8.181119115995498,-1.0063228353117177,0.7043608207749849,19.058487850231124
-0.0145,0.9711,0.132,-0.1416,0.1716,0.023,-2.1175,0.315,-13.7462,8.02393102538875,-0.9752287014453408,0.3774749880487712,19.070680266017632
-0.0143,0.9724,0.1324,-0.1416,0.1716,0.023,-1.7587,-0.2625,-13.6412,7.894856262276065,-0.9581225486256734,0.0906502337171122,19.082875513134365
-0.0105,0.9735,0.1327,-0.1399,0.1724,0.0274,-1.68,-0.3063,-14.455,7.8288181308735485,-0.7894127618031879,0.9128669765923889,19.095110752790543
-0.0095,0.9733,0.1324,-0.1399,0.1724,0.0274,-2.9313,0.21,-14.2887,7.811893861582665,-0.6858458128140525,1.2002910421970894,19.107304230325884
-0.0065,0.9665,0.1347,-0.1402,0.175,0.0276,-2.8438,-0.175,-14.9362,7.829777522767457,-0.5066335719093304,1.2471754273702682,19.11953097599138
-0.0088,0.964,0.1316,-0.1412,0.1735,0.0258,-2.7125,-0.0175,-14.7875,7.827615781042099,-0.513144535845604,1.0461166485197604,19.128428785143445
-0.0066,0.9624,0.1343,-0.1412,0.1735,0.0258,-3.0975,-0.1488,-14.7437,7.86237529668669,-0.4444738294306149,0.8288010490657697,19.1405911180463
-0.0057,0.9595,0.1388,-0.1377,0.1746,0.0267,-3.0363,0.5425,-15.3825,7.960781599673093,-0.3742259018003995,0.7581694851053338,19.152763360604943
-0.0074,0.9615,0.131,-0.1377,0.1746,0.0267,-3.0625,0.4112,-15.75,7.904025083987495,-0.41761543593922473,0.9109680247576276,19.165034699721502
-0.0095,0.9625,0.139,-0.1393,0.1734,0.028,-2.59,0.6737,-16.5375,7.927906545098401,-0.5244816310486675,0.9732293389054407,19.17712908069893
-0.012,0.9637,0.1391,-0.1388,0.1744,0.0282,-2.3538,1.2512,-15.96,7.996874818312319,-0.6535674354450786,1.0281160705319532,19.189346270624913
-0.0149,0.967,0.1355,-0.1388,0.1744,0.0282,-2.6688,1.6975,-15.82,7.996801226601538,-0.8077169911433734,1.231810730724141,19.201519221016117
-0.0153,0.9656,0.1355,-0.1415,0.1743,0.0271,-2.5813,1.4962,-14.9275,7.996066050783433,-0.8613422969549078,1.1645296825545928,19.213767909490866
-0.0191,0.9647,0.1374,-0.1415,0.1743,0.0271,-2.0738,1.2512,-14.3238,8.037228193834821,-0.9792995534657404,1.102929949218221,19.22257157691291
-0.0222,0.9617,0.1343,-0.1382,0.175,0.021,-1.9162,1.68,-14.0963,7.999607002609668,-1.1023949603998537,0.06821454108293847,19.234733909815763
-0.0201,0.9653,0.1335,-0.1382,0.175,0.0277,-1.6887,1.365,-13.7812,7.937318323903238,-1.119665978183994,0.4509135802970326,19.24689942796512
-0.0198,0.9678,0.1378,-0.1393,0.1735,0.0277,-1.4262,1.33,-14.0437,8.02956115746152,-1.1339487978784246,0.6498545259070313,19.259080872347
-0.0179,0.9718,0.1324,-0.1392,0.1726,0.0262,-1.3387,1.3912,-14.84,7.8745489809731355,-1.083383668182097,0.776260087528367,19.271304432765994
-0.0163,0.9772,0.1333,-0.1392,0.1726,0.0262,-1.2687,1.1025,-14.8312,7.812199298357449,-1.0054831483372977,0.811448890030734,19.28346605783629
-0.0183,0.9772,0.1292,-0.1402,0.1734,0.0286,-1.8112,0.6563,-15.3562,7.682381967667202,-1.0432331670738768,1.146871700013304,19.295657057957683
-0.022,0.9762,0.1256,-0.1402,0.1734,0.0286,-2.0038,0.5075,-15.0587,7.541788446548574,-1.1876621426071297,1.5628847353771187,19.304499656170336
-0.0201,0.9712,0.1326,-0.1385,0.1732,0.033,-1.2775,0.8925,-14.9975,7.677415438367621,-1.1799139830436076,1.7029288245225653,19.316691010208007
-0.0178,0.97,0.1298,-0.1381,0.173,0.027,-0.945,0.4987,-14.1837,7.642143673348978,-1.1240326620648287,1.6537338308444367,19.328863252766652
-0.0135,0.9674,0.1246,-0.1381,0.173,0.027,-2.2313,0.5163,-13.9562,7.549418555927463,-1.0206983799399876,1.731857383396334,19.34104894414387
-0.0079,0.9683,0.128,-0.1407,0.173,0.0253,-2.5288,0.6125,-14.1487,7.547016585058186,-0.8019341132978343,1.535159868782592,19.353246314758273
-0.0083,0.9687,0.1244,-0.1407,0.173,0.0253,-1.9162,0.8225,-14.3238,7.448334881293155,-0.6598733999403513,1.498185444175516,19.36552650178179
-0.006,0.9685,0.126,-0.1404,0.1722,0.0258,-2.3538,1.68,-14.5162,7.439660845682186,-0.5048791502368735,1.442132248494082,19.377644241233583
-0.0052,0.9684,0.1249,-0.1401,0.1721,0.0258,-3.4038,1.645,-14.4812,7.401443328335497,-0.40607775301615634,1.4459830623451229,19.389750301448192
-0.0104,0.9608,0.1235,-0.1401,0.1721,0.0258,-3.115,1.8987,-14.5513,7.377857352152666,-0.513081545951841,1.4586759521531711,19.398646694935138
-0.0089,0.9635,0.1257,-0.1383,0.1725,0.0247,-2.5638,1.9512,-14.4112,7.3832544621422,-0.518654947618672,1.176574923120695,19.410840880303038
-0.0104,0.9628,0.1244,-0.1383,0.1725,0.0247,-2.4675,2.3975,-14.9275,7.379673097480985,-0.5745498921947761,1.059362281922137,19.423031880424432
-0.0128,0.9686,0.1204,-0.1388,0.1768,0.0191,-2.2838,2.2225,-15.6712,7.297398248329582,-0.6955446761610695,0.17780142842465144,19.43517899492732
-0.0156,0.9745,0.1192,-0.1385,0.1736,0.0242,-2.205,2.6163,-15.5575,7.19429590161211,-0.8400318577596129,0.6770513147544852,19.447416711997445
-0.0167,0.9753,0.1176,-0.1385,0.1736,0.0242,-2.3275,2.765,-15.155,7.1125166321136755,-0.9234463834557576,1.086638461704124,19.45958647714214
-0.0227,0.9789,0.1197,-0.1375,0.1748,0.025,-3.045,2.5463,-15.225,7.074246556843646,-1.1734535807476725,1.3134472013416574,19.471816761970423
-0.0239,0.9805,0.1071,-0.1375,0.1748,0.025,-3.605,2.6425,-14.9625,6.668641210093462,-1.3008309150199495,1.9773154915797957,19.480645203531942
-0.0275,0.9825,0.1133,-0.139,0.1732,0.0301,-3.1063,2.7562,-14.4462,6.641269815345133,-1.4425558837795,3.2770110873509717,19.492926806220574
-0.0246,0.9823,0.1129,-0.1387,0.1738,0.025,-2.8,2.1088,-14.5862,6.631677982874108,-1.4335266291844047,2.5940931712134043,19.50498827298412
-0.0243,0.9829,0.1052,-0.1387,0.1738,0.025,-3.5088,1.6975,-14.525,6.393683168878528,-1.4207130185160244,2.574481517346805,19.5171941375892
-0.0254,0.9917,0.105,-0.1378,0.1736,0.0258,-4.1125,1.995,-14.7875,6.18724463199629,-1.4422560175261396,2.7753789655027425,19.52938372204548
-0.0242,0.998,0.1036,-0.1378,0.1736,0.0258,-4.7863,2.415,-14.63,6.010244251619118,-1.4101327043460998,2.979045350914795,19.541520926892577
-0.022,1.0006,0.0985,-0.1386,0.1748,0.0245,-5.8187,2.3275,-14.1225,5.715740544718025,-1.3501814139579063,2.9432580031780105,19.55374271773018
-0.0215,1.0007,0.1039,-0.1378,0.1741,0.029,-6.6937,2.8612,-13.9825,5.885429940527311,-1.3093299920278971,3.8910096731402684,19.565879568660996
-0.0258,0.9944,0.1023,-0.1378,0.1741,0.029,-8.26,3.3775,-14.0262,5.875483523814355,-1.3674503720316435,4.274136129190123,19.574904787673237
-0.0276,0.9905,0.1067,-0.1386,0.1742,0.0257,-9.555,3.5788,-13.1687,6.113764171235652,-1.4223762200514352,3.1730121607258552,19.586974394511184
-0.0281,0.9872,0.1086,-0.1386,0.1742,0.0257,-10.745,3.7625,-11.5937,6.259681525173314,-1.5525019601821306,2.744920371766684,19.599190876604613
-0.0268,0.9822,0.1127,-0.1392,0.1742,0.0292,-10.9812,4.0338,-10.1412,6.514911853628297,-1.5527188886353291,3.418917740451677,19.61138293847484
-0.0212,0.9807,0.1157,-0.1392,0.1722,0.0316,-11.3312,3.9638,-9.905,6.706368408913622,-1.300081878881741,4.217557092547468,19.62357712384274
-0.0201,0.98,0.1169,-0.141,0.1722,0.0316,-12.0137,4.3575,-8.785,6.793136701370696,-1.1900407204712269,4.31595791264898,19.635758922140898
-0.014,0.98,0.1239,-0.141,0.1719,0.0296,-12.215,5.005,-8.5837,7.166470925883376,-0.8758653702937107,3.3524417685343284,19.647932226448376
-0.0098,0.9811,0.1191,-0.141,0.1719,0.0296,-13.7287,5.4688,-8.4,6.941834424299419,-0.6185545689234347,3.453406237547713,19.660082880114047
-0.0115,0.9839,0.1251,-0.1404,0.1709,0.0332,-13.8162,6.0988,-7.945,7.221053423377461,-0.6573283066805049,4.38685460233627,19.66895343771268
-0.0127,0.9881,0.133,-0.1404,0.1709,0.0332,-14.3937,6.755,-7.6213,7.631058009667583,-0.7192668524765651,4.102530906976077,19.681154347489866
-0.0089,0.9903,0.1294,-0.1429,0.1716,0.033,-15.8287,7.14,-6.9125,7.457694106538822,-0.5380692772562452,4.145893920641717,19.693317034308997
-0.0098,0.9867,0.1308,-0.1422,0.1694,0.0344,-17.3075,7.3413,-6.2825,7.545292593693416,-0.5609453992895698,4.628416771549892,19.705521129332688
0.0008,0.9806,0.1389,-0.1422,0.1694,0.0344,-18.5237,7.735,-5.6087,8.03152156617809,-0.021994130738462132,4.2095703352776646,19.71768346223554
-0.0006,0.9788,0.1355,-0.1482,0.1691,0.0337,-18.935,7.6213,-5.8187,7.890319778522464,-0.03331669868548364,3.9681901000648208,19.729881894598776
-0.002,0.9794,0.1384,-0.1482,0.1691,0.0337,-19.6525,8.0325,-5.6087,8.034761728937841,-0.1065706743338245,3.7674526605134764,19.74208280437596
-0.0015,0.982,0.1459,-0.147,0.1686,0.039,-21.1837,8.3825,-5.3725,8.42953583541903,-0.08875949405714781,5.164902402613067,19.750878685639883
0.0032,0.9839,0.1496,-0.1496,0.1672,0.0405,-21.7175,8.4962,-4.935,8.634715713422395,0.15569568077395235,5.647139887428095,19.763042788124128
0.0058,0.9854,0.1532,-0.1496,0.1672,0.0405,-22.75,8.9337,-4.3925,8.827422391948467,0.3156716506772454,5.524769981609869,19.775199812282807
0.0093,0.9842,0.1573,-0.1507,0.1646,0.0426,-23.6775,9.7212,-4.0425,9.069012014062855,0.5136737615191895,6.093180081377332,19.78736179126938
0.0105,0.9854,0.1566,-0.1507,0.1646,0.0426,-25.4013,10.1325,-4.2,9.031591453528145,0.5942668759092359,6.210440318131353,19.799542881734983
0.0085,0.9862,0.1599,-0.1556,0.1646,0.043,-26.9762,10.5787,-3.3863,9.202612737959537,0.49706043733257926,5.986420537674002,19.81179617112135
0.0118,0.9887,0.1677,-0.1546,0.1622,0.046,-28.3412,11.0513,-2.7913,9.610795656053126,0.6590348406427632,6.736513888816231,19.82075485387328
0.0117,0.9846,0.1684,-0.1546,0.1622,0.046,-29.4787,11.795,-2.205,9.702201068925898,0.6700913187717281,6.72597542783662,19.832766772357864
0.0157,0.9831,0.1735,-0.1568,0.1645,0.0506,-31.5613,12.11,-1.75,9.99839197552983,0.8829004637773455,7.755796369752264,19.844975114376894
0.0195,0.9833,0.1809,-0.1568,0.1645,0.0506,-33.215,12.6612,-1.75,10.410773637149552,1.0989630383867155,7.452687214984794,19.857135677698356
0.0239,0.9807,0.1834,-0.1579,0.1639,0.0532,-36.995,13.3437,-2.5113,10.587346990064002,1.3494699273758766,8.146670288893581,19.86932809348486
0.0257,0.9786,0.1877,-0.1598,0.1621,0.0654,-37.38,13.9912,-2.8263,10.85015633016453,1.4664776505034787,11.947711312652503,19.881498212545836
0.0304,0.975,0.1984,-0.1598,0.1621,0.0654,-39.2438,14.7525,-3.0538,11.484571704678558,1.7252655422232828,11.641545794007973,19.893718587718325
0.0404,0.9579,0.2109,-0.1604,0.1597,0.0626,-39.83,15.2775,-3.3163,12.39223334594903,2.302007988293808,10.028464309386163,19.905847298574745
0.0436,0.9561,0.2213,-0.1604,0.1597,0.0626,-40.7487,16.17,-2.8175,13.015871678988965,2.5231329875386477,9.334026046751632,19.914718917922215
0.0458,0.9506,0.225,-0.1637,0.1613,0.0702,-41.5975,17.29,-2.9838,13.308892944835101,2.6703339461628057,11.221994395127963,19.92691310329011
0.0519,0.9484,0.2341,-0.1637,0.1613,0.0753,-42.2363,18.2262,-2.87,13.85181606453495,3.0093327169529247,12.518729188492742,19.939106226909175
0.0547,0.9432,0.2399,-0.1652,0.1618,0.0753,-43.54,19.9762,-3.5,14.26041329062335,3.1980335258664794,12.068141092690174,19.95129121045384
0.0556,0.9406,0.2569,-0.164,0.1612,0.0762,-44.4675,21.0263,-3.8238,15.252511854412791,3.2574789063400558,11.444227764514856,19.963475486165944
0.0581,0.9333,0.2677,-0.164,0.1612,0.0762,-44.765,22.1112,-4.0687,15.987116035280083,3.4084528381227686,10.683449086171475,19.975644189561805
0.0543,0.9242,0.2692,-0.1669,0.1597,0.0778,-45.2988,23.3625,-5.04,16.23393896377218,3.247598446530727,10.83831098535965,19.987848284585496
0.0533,0.9158,0.2719,-0.1669,0.1597,0.0778,-46.1212,24.5088,-5.6087,16.52929771523007,3.199504924865622,10.531647892666243,19.996704685533
0.0513,0.9111,0.2786,-0.1684,0.1586,0.0843,-46.305,26.1537,-5.5125,16.99219609793728,3.095146057634882,12.113295421072774,20.00891727454737
0.0497,0.9118,0.2816,-0.1686,0.1602,0.0897,-46.4975,27.2912,-5.9763,17.15895727429715,2.994645111884698,13.531931051359505,20.021032182668932
0.0447,0.9141,0.2989,-0.1686,0.1602,0.0897,-46.5237,29.1112,-5.39,18.085998272997536,2.697727339554069,12.53054740895959,20.0332366316089
0.0405,0.9095,0.3013,-0.1719,0.1598,0.095,-46.7513,29.8987,-5.2063,18.323657090141054,2.450318692964904,13.638427825839766,20.045429401311686
0.0411,0.9098,0.3117,-0.1719,0.1598,0.095,-47.1538,30.59,-5.635,18.898674774793932,2.4474770768510377,13.092356772765202,20.057650130400454
0.0321,0.907,0.3123,-0.1696,0.158,0.0987,-47.81,31.4475,-5.4688,18.997519565053302,1.9753574627658175,14.333338848510312,20.06991616077284
0.0296,0.9015,0.3213,-0.1695,0.1596,0.1046,-47.8712,31.9288,-5.6087,19.602976461759734,1.7944294152484004,15.322982015477708,20.081950022066682
0.0264,0.8983,0.3351,-0.1695,0.1596,0.1046,-48.5713,31.99,-6.6937,20.439205746635775,1.605071913690439,14.439132923585516,20.090924984967405
0.021,0.8971,0.3395,-0.1707,0.1602,0.108,-49.6912,32.2875,-6.615,20.7227003488618,1.2986856578265782,14.883673699231466,20.103016888530885
0.0167,0.8913,0.3506,-0.1707,0.1602,0.108,-49.56,31.92,-7.4812,21.456933618166055,1.0416142863878688,14.067557190244989,20.11518913108953
0.0168,0.8856,0.3583,-0.1712,0.161,0.1152,-49.245,31.4475,-8.6712,22.01549745951933,1.0133235263052314,15.416240094156384,20.12738083904348
0.016,0.878,0.3631,-0.1691,0.1619,0.1182,-49.7,32.0425,-8.855,22.45829785444889,0.9733672110576688,15.924411424047934,20.139578917490436
0.0167,0.8767,0.3762,-0.1691,0.1619,0.1182,-50.0763,31.43,-9.485,23.20878261050379,0.9969873067678083,15.151701839570153,20.151768855862993
0.0212,0.8783,0.3939,-0.1694,0.1639,0.1229,-50.9075,31.5875,-9.9137,24.13605715738901,1.203998117552936,15.27702562897872,20.16393472792863
0.0159,0.8722,0.4044,-0.1694,0.1639,0.1229,-51.065,31.7625,-9.8262,24.86007727337973,1.0023527938775822,14.401706636078773,20.17277166348083
0.0149,0.8611,0.4163,-0.1715,0.1644,0.1266,-51.1525,32.3488,-10.1587,25.78248338105205,0.9177940895346679,14.15433622964283,20.184999470895164
0.0058,0.8477,0.4225,-0.1694,0.1649,0.129,-51.3275,32.6463,-10.22,26.47771875616029,0.48323916220830043,13.996926881206498,20.19732920619764
-0.0056,0.8347,0.4279,-0.1694,0.1649,0.129,-50.785,31.8237,-10.5087,27.127944342521197,-0.13541639809339578,13.086119902160718,20.20949012343538
-0.0182,0.8253,0.4429,-0.1685,0.1639,0.1381,-50.1637,30.7213,-11.1737,28.197851150191937,-0.8194567656447533,14.321394632992108,20.221711914272984
-0.0187,0.8284,0.4479,-0.1685,0.1639,0.1381,-49.8838,29.8987,-11.1212,28.395062352441453,-1.0434911774040816,14.15717720321761,20.233970866319805
-0.0168,0.8283,0.4518,-0.168,0.1658,0.1418,-48.9475,29.1725,-11.1562,28.605903409166736,-1.0270877212670433,14.689843604263611,20.246223447873618
-0.011,0.8323,0.4596,-0.1661,0.1691,0.149,-49.7962,29.4175,-11.3837,28.901416660175723,-0.7796465569166354,16.05750045106016,20.258478860757656
-0.0045,0.8375,0.4734,-0.1661,0.1691,0.149,-50.12,30.1788,-11.7075,29.46557680094372,-0.4510624320119856,15.565143291117977,20.270717639576617
-0.0037,0.8273,0.479,-0.1659,0.1702,0.1522,-51.5112,31.535,-11.76,30.058356319527324,-0.3053710656871952,15.559600539731827,20.28300525884198
-0.0118,0.8182,0.4843,-0.1659,0.1702,0.1522,-52.9287,32.4362,-11.1737,30.610684411435923,-0.5891775787568435,14.736456086790161,20.295207584284277
-0.0205,0.7975,0.4867,-0.1639,0.1731,0.1597,-53.06,32.9,-10.8762,31.37970857305336,-1.0728236752184699,15.262207325502995,20.307468659828768
-0.0293,0.7839,0.4931,-0.1636,0.173,0.163,-54.005,33.145,-9.45,32.15617539002652,-1.6658101857063292,15.028519055250417,20.31964302588508
-0.0364,0.7751,0.5106,-0.1636,0.173,0.163,-54.2762,33.0488,-8.4,33.351871639972515,-2.1507785161327093,13.393809326581886,20.33189206827611
-0.0306,0.774,0.5134,-0.1626,0.1744,0.1742,-55.0462,32.2788,-8.0587,33.55277883696491,-1.9279222065817267,15.884868361016116,20.34407599007194
-0.0235,0.7714,0.5295,-0.1626,0.1744,0.1742,-55.2825,32.13,-7.1225,34.449221944371295,-1.505044106783324,14.947263397449479,20.352987248042577
-0.0135,0.7683,0.5392,-0.1603,0.1767,0.1773,-55.7025,33.3462,-6.6588,35.05019807106013,-0.9108371996769395,14.910511012848863,20.36520691538251
-0.0068,0.7619,0.5444,-0.161,0.1794,0.1788,-56.6125,34.2562,-6.5975,35.5378831968087,-0.4786524380008536,14.215477543018066,20.377406409494583
-0.0052,0.7402,0.5664,-0.161,0.1794,0.1788,-56.4463,35.5775,-6.5975,37.388746486315746,-0.3397710673985668,11.555238279528075,20.38962926208102
-0.0095,0.7193,0.5749,-0.1594,0.1806,0.1822,-56.7525,37.0563,-7.7175,38.61097053829375,-0.5540543734958213,10.376124123292522,20.401856715579076
-0.0207,0.6978,0.5825,-0.1594,0.1806,0.1822,-56.63,38.6575,-8.295,39.83137692917104,-1.1836640544314159,8.367074509229553,20.41409053957014
-0.0311,0.6881,0.5871,-0.1575,0.1813,0.188,-55.2388,39.7513,-9.38,40.45949202129149,-1.8158520801587845,8.65470725176875,20.42628437102176
-0.0365,0.6861,0.6028,-0.1547,0.1841,0.194,-53.55,40.7487,-10.4737,41.285943979742584,-2.1712774620442694,8.350699819199939,20.438547216147644
-0.0432,0.6794,0.6104,-0.1547,0.1841,0.194,-50.33,41.9738,-12.67,41.92438931151818,-2.4151209861407943,7.280114917503208,20.45080333686424
-0.0429,0.6776,0.6159,-0.1524,0.187,0.2005,-48.3263,42.4025,-12.8275,42.26167126999642,-2.522812043118423,7.7828541616912394,20.46304388526459
-0.0397,0.6801,0.6164,-0.1495,0.189,0.1982,-47.215,44.0913,-12.7487,42.18882509344576,-2.502963902936894,7.0673592153000655,20.475388131134476
-0.0348,0.6872,0.6248,-0.1495,0.189,0.1982,-47.1975,45.3775,-12.3812,42.2750717326158,-2.31417326133953,6.96891725536754,20.487542323962927
-0.0449,0.6841,0.6383,-0.1483,0.1919,0.2038,-47.2762,47.5737,-12.0925,43.00015480482833,-2.567656923289014,6.404089316236297,20.49977685578655
-0.0578,0.6708,0.6458,-0.1483,0.1919,0.2038,-47.5213,49.2537,-11.8562,43.89228907671657,-3.180043190861626,4.7790395763726385,20.511996169210203
-0.0743,0.6542,0.6404,-0.1444,0.1946,0.2047,-47.5563,51.275,-11.585,44.378438151024206,-4.139561462163317,3.508640272346311,20.520964761617922
-0.1006,0.6428,0.6473,-0.1406,0.197,0.2098,-46.8737,53.0075,-11.7512,45.18168031368656,-5.5102964330544495,2.7053879474849607,20.533180181962514
-0.1171,0.637,0.6617,-0.1406,0.197,0.2098,-45.605,53.2788,-12.9675,46.06891244092989,-6.122047243703524,1.194883271222026,20.54543913400934
-0.1304,0.6499,0.672,-0.1378,0.2005,0.2117,-43.89,53.2,-14.7788,45.96043408313188,-7.141802222817556,0.9912481964351515,20.557697732139882
-0.1493,0.64,0.6753,-0.1378,0.2005,0.2117,-42.5075,53.9875,-17.325,46.523206598975364,-8.707048786934257,0.048310598535795904,20.569923416056543
-0.1746,0.6177,0.6919,-0.1313,0.2043,0.2096,-40.9938,53.6113,-16.555,48.1990946254621,-10.17877932974348,3.9271293062435366,20.582223776307924
-0.1932,0.6144,0.7041,-0.1283,0.2052,0.2134,-40.5563,51.6338,-16.4762,48.87412276424331,-11.30307751624143,4.400270572662649,20.594421146922326
-0.2326,0.6236,0.714,-0.1283,0.2052,0.2134,-39.7775,49.3063,-16.24,48.866586230232336,-13.121616011379873,4.160760726952114,20.60667372847614
-0.2446,0.6206,0.7105,-0.1246,0.207,0.2148,-38.9025,47.5563,-15.7587,48.86385729813956,-14.101417307942016,4.269512102312627,20.618921001285777
-0.2594,0.6196,0.7135,-0.1246,0.207,0.2148,-38.01,44.6862,-17.2637,49.02455933676883,-15.087594271444122,4.4366421037526695,20.631170043676807
-0.2697,0.6244,0.7215,-0.1218,0.2101,0.2136,-37.9575,42.5163,-18.935,49.12364830331742,-15.675045948495008,5.467587175716988,20.643424040895734
-0.2868,0.6226,0.725,-0.1143,0.2126,0.2183,-38.605,39.935,-20.0725,49.339376652626086,-16.56904391698927,5.529645133242073,20.655687239937894
-0.3065,0.6024,0.7461,-0.1143,0.2126,0.2183,-38.0013,36.6188,-19.81,51.034660798897505,-17.56702855987703,7.931243775579531,20.667974505286978
-0.3176,0.5821,0.7415,-0.1137,0.2158,0.2219,-38.5,32.0513,-17.1325,51.84440936200659,-18.39188098761978,8.991031907483785,20.680199481371087
-0.3263,0.5746,0.7496,-0.1076,0.2178,0.225,-37.2137,22.61,-16.765,52.50907119944448,-18.90236835125418,9.989685581991486,20.692422333957524
-0.3282,0.5674,0.7535,-0.1076,0.2178,0.225,-35.9275,18.3312,-17.2375,53.00464690133242,-19.125538316462062,10.697868878410754,20.704679870339234
-0.3052,0.5744,0.7687,-0.1078,0.2222,0.2255,-34.8688,14.105,-18.4188,53.22476895583106,-17.893747896980603,12.15851094560473,20.716914402162853
-0.297,0.5758,0.7732,-0.1078,0.2222,0.2255,-33.4513,10.7012,-19.1275,53.321886476622424,-17.23920885710059,12.524034172011598,20.729212992832842
-0.2912,0.5592,0.7825,-0.1064,0.2226,0.2296,-33.215,7.3938,-20.2737,54.41342598568875,-16.895661080408953,13.650293406714656,20.738065146785008
-0.2926,0.538,0.7863,-0.1069,0.2258,0.2333,-32.5325,3.9813,-21.105,55.58031544944331,-17.051928076696147,15.083631722127,20.750255439073843
-0.2951,0.5169,0.7848,-0.1069,0.2258,0.2333,-31.0187,0.7962,-21.0175,56.5937823985386,-17.388798872452927,15.349560072348783,20.762489616981185
-0.2708,0.5283,0.7804,-0.1047,0.2271,0.2366,-28.63,-2.6775,-21.1925,55.92915476034143,-16.188149282970294,16.07230470647363,20.77474573769778
-0.2621,0.5358,0.7967,-0.1047,0.2271,0.2366,-21.4725,-5.4163,-21.2537,56.07068668395741,-15.374114554810982,16.757028645012873,20.786944877893575
-0.251,0.5272,0.797,-0.1044,0.2295,0.2354,-22.5312,-7.105,-21.3937,56.494783528122184,-14.791058109154068,18.383968947475775,20.799194274200882
-0.2399,0.5246,0.7925,-0.1035,0.2319,0.2428,-23.975,-10.64,-21.5425,56.49709187742072,-14.235731153990333,18.153071592538996,20.811511268517343
-0.2104,0.5159,0.8052,-0.1035,0.2319,0.2428,-22.435,-11.1475,-21.0,57.310721200846274,-12.623339493716172,20.32264655410621,20.823784023299016
-0.2028,0.5103,0.8113,-0.1051,0.2341,0.247,-22.365,-11.27,-20.7812,57.805377831426085,-12.028847961218316,21.12639426049292,20.836038020517943
-0.1955,0.5051,0.8144,-0.1051,0.2341,0.247,-21.63,-10.8937,-20.5888,58.172957578797835,-11.591961941702225,21.99483375551913,20.848335195522818
-0.1953,0.4964,0.8154,-0.1067,0.2354,0.2451,-19.7663,-9.905,-20.5975,58.640395251942735,-11.565971913791987,23.179901084455043,20.860589546658023
-0.1921,0.486,0.8109,-0.1043,0.236,0.2521,-17.0975,-9.2662,-21.2012,59.036824707624945,-11.49517201284097,23.253364438817524,20.87284283604439
-0.1817,0.4946,0.8109,-0.1043,0.236,0.2521,-14.8837,-8.2512,-21.6737,58.650933549032125,-10.902199168897203,22.960183412062477,20.88511275949584
-0.1805,0.4998,0.8147,-0.105,0.238,0.2562,-12.7225,-7.3763,-20.9387,58.48803564749168,-10.718939743869308,22.498626723355844,20.897326056342763
-0.1821,0.4995,0.8158,-0.1047,0.2406,0.2535,-11.235,-6.5713,-21.28,58.518087229047985,-10.771516098914876,23.460001106676106,20.909587131887257
-0.1807,0.4901,0.8111,-0.1047,0.2406,0.2535,-9.3362,-3.2725,-20.405,58.81356074583129,-10.792420985820566,24.02777848007768,20.92181069230625
-0.1882,0.4876,0.8003,-0.1039,0.2383,0.2561,-7.6563,-1.8463,-20.3,58.67503350426891,-11.28310768624018,22.924701383308133,20.934015141246217
-0.1906,0.495,0.7964,-0.1039,0.2383,0.2561,-4.7775,-0.6563,-19.9675,58.31034949124922,-11.461958273573332,22.072188212402033,20.9462241910978
-0.2011,0.5018,0.8,-0.1026,0.2405,0.255,-3.8325,0.455,-19.5125,58.09104932686232,-11.941734421172189,21.92839412356443,20.955037768175636
-0.2086,0.5078,0.8,-0.1031,0.2399,0.2562,-2.7825,1.6275,-18.2875,58.0418335887466,-12.33349688949656,21.34306374080673,20.967289287980613
-0.2119,0.5104,0.7987,-0.1031,0.2399,0.2562,-2.1,1.5575,-16.905,57.81540622867439,-12.540765997576427,20.859631595169564,20.97941410575797
-0.2158,0.5162,0.7959,-0.1006,0.2422,0.2571,-2.065,1.785,-15.3475,57.519970682209696,-12.719090955294378,20.412020196525216,20.991616431200267
-0.2127,0.5183,0.7902,-0.1006,0.2422,0.2571,-1.0412,1.5837,-15.2512,57.03564264322807,-12.697105558348776,20.03012871418803,21.003829374130916
-0.2131,0.5178,0.7854,-0.1006,0.2428,0.2563,-0.4812,1.925,-15.3737,56.73916134001659,-12.740446645842677,19.72652625314788,21.01600763326629
-0.2154,0.5185,0.7856,-0.1006,0.2428,0.2578,0.0963,2.24,-15.54,56.618548105880755,-12.840408157553986,19.330125577990433,21.028174213164483
-0.2155,0.5265,0.7798,-0.1023,0.2412,0.2578,0.7437,2.5288,-16.3187,56.11982613055042,-12.884616909201066,18.152460366149207,21.037147760400096
-0.22,0.5383,0.7716,-0.1026,0.2415,0.2546,1.5137,2.4938,-16.38,55.295661455034974,-13.090119448925234,17.044627145756817,21.049105883610384
-0.2169,0.5466,0.7759,-0.1026,0.2415,0.2546,1.1462,1.68,-15.2512,54.931683954274604,-12.951899661430742,16.600251190345677,21.06127812616903
-0.2151,0.5412,0.7651,-0.1033,0.2383,0.2558,1.1287,1.0675,-13.4837,54.768837423874615,-12.951436833689021,16.42051008355403,21.07343868949049
-0.2087,0.5399,0.7682,-0.1033,0.2383,0.2558,0.9975,-0.6212,-13.16,54.871913539037664,-12.844289739341255,15.68488692574144,21.085628627863052
-0.1978,0.545,0.7668,-0.1033,0.2411,0.2533,0.9538,0.035,-13.7812,54.6563012708793,-12.632776290013622,15.890624548785834,21.097741766403225
-0.1924,0.5516,0.7627,-0.104,0.2394,0.2542,0.875,0.4462,-14.1487,54.241670218449244,-12.208704585565089,15.495742089095497,21.106574101043805
-0.1931,0.5554,0.7634,-0.104,0.2394,0.2542,0.9275,0.9975,-14.175,54.023432608526086,-11.947836366604282,15.458297290325753,21.118737495695495
-0.199,0.5448,0.7582,-0.101,0.2411,0.2544,0.245,0.8663,-13.0288,54.230216376465165,-11.974976756901652,15.458558243333325,21.131011312226004
-0.204,0.5472,0.7502,-0.101,0.2411,0.2544,1.0325,1.0325,-14.2362,53.96450219243916,-12.150923982174463,15.396452391954368,21.143054375343077
-0.2026,0.5544,0.7537,-0.1078,0.2386,0.2523,1.2075,0.5775,-14.5513,53.724681914970176,-12.185251611011756,14.862020270528104,21.155205382925026
-0.2017,0.5664,0.7537,-0.1022,0.2379,0.2506,1.1462,0.175,-14.4462,53.210149857084,-12.132041501992884,14.039593196504624,21.167335155530278
-0.195,0.5708,0.7513,-0.1022,0.2379,0.2506,1.0412,0.0525,-14.7525,52.866730332524526,-11.879159914223102,13.341499851648926,21.17618837123128
-0.1916,0.5691,0.752,-0.1045,0.2384,0.2538,-0.0613,-0.875,-15.2687,52.877932589865,-11.627026915883803,12.580998105593979,21.188401314161926
-0.1971,0.5574,0.7505,-0.1045,0.2384,0.2538,-0.91,-0.2625,-15.3125,53.2100858058415,-11.806492172939741,12.808132395323927,21.20060222393911
-0.1994,0.5599,0.7604,-0.103,0.2395,0.2494,-1.3037,-0.1138,-16.765,53.45557549140023,-11.896091663160663,13.782149047986676,21.212916386925343
-0.2022,0.5624,0.7543,-0.103,0.2395,0.2517,-0.9275,-0.1138,-17.4037,53.35164577107318,-12.081194009303637,13.632624808478802,21.225046159530596
-0.2086,0.5613,0.7555,-0.1017,0.2388,0.2517,-2.0038,-0.735,-16.5375,53.36678812919308,-12.393732102363396,13.519333926845896,21.237270427782146
-0.2074,0.5634,0.7576,-0.1027,0.2382,0.2515,-1.5225,-1.0325,-15.3037,53.36483632924821,-12.39106349002899,13.352959617161265,21.249509560517385
-0.2054,0.5618,0.7587,-0.1027,0.2382,0.2515,-2.135,-1.2425,-13.9825,53.40540791664826,-12.353299067474834,13.480412138849847,21.261706931131787
-0.2072,0.5578,0.7621,-0.1026,0.2396,0.2476,-3.0975,-1.0675,-13.1687,53.52270895119223,-12.358538555795853,14.633393624729838,21.27393084546706
-0.2014,0.5492,0.7613,-0.1026,0.2386,0.2512,-2.9575,-1.5312,-13.02,53.67148799743234,-12.277351202737526,14.975087808977499,21.286114413346606
-0.2006,0.5478,0.7574,-0.1041,0.2386,0.2512,-2.2925,-1.7937,-13.3437,53.79584338940469,-12.254730268117246,14.889482229712094,21.295036288805594
-0.1917,0.5449,0.7647,-0.1084,0.2385,0.2534,-2.3888,-1.3737,-13.3525,53.95753205680798,-12.16136929164735,15.019094754722952,21.307211008778186
-0.1952,0.5453,0.7621,-0.1084,0.2385,0.2534,-2.0825,-1.295,-14.3238,54.12742634898926,-11.983361222348243,14.843628266188029,21.319443417104136
-0.1996,0.543,0.7697,-0.1053,0.2386,0.2505,-2.0563,-0.9538,-14.9888,54.38315015593226,-11.971748912727666,15.739676733726231,21.331669454937078
-0.2075,0.5414,0.769,-0.1051,0.2394,0.2547,-1.9337,-0.5688,-14.9975,54.582885679174794,-12.253610837199478,15.592577184147256,21.343935839225743
-0.2172,0.5352,0.7732,-0.1051,0.2394,0.2547,-1.1112,-0.1925,-15.26,55.02578583673515,-12.733041754534083,15.84418743105852,21.356083307644912
-0.2286,0.5305,0.786,-0.1055,0.239,0.2527,-0.8225,-0.6038,-15.7412,55.64722827723034,-13.300272691591921,16.686844567097314,21.36829802015695
-0.2291,0.5347,0.7859,-0.1055,0.239,0.2527,0.0263,-0.6563,-14.9537,55.73676535649708,-13.448659274210886,16.791746259291294,21.38046495397142
-0.2238,0.5338,0.7891,-0.1073,0.2363,0.2538,2.31,-3.3688,-12.1275,55.89182916793652,-13.316190992146888,16.40644291413995,21.392686390892745
-0.2203,0.5306,0.7845,-0.1056,0.237,0.2522,3.7188,-4.3313,-11.2875,55.9225644604755,-13.163512890896849,16.883120392995963,21.401529696937953
-0.2109,0.5334,0.7804,-0.1056,0.237,0.2522,5.0838,-4.725,-11.0513,55.67896986662449,-12.74715093427097,16.750160412018815,21.413688490678023
-0.201,0.5438,0.7648,-0.1073,0.2355,0.2525,6.1075,-5.39,-10.955,54.69759433864277,-12.27486277103069,14.789592776005101,21.425881968213364
-0.1941,0.5548,0.7631,-0.1073,0.2355,0.2525,6.4313,-6.4138,-11.7425,54.05242500934939,-11.860667526443407,13.704755061569928,21.438115792204428
-0.1846,0.5659,0.7617,-0.1071,0.2357,0.2512,5.565,-6.2737,-12.6262,53.461479035767816,-11.462806363491788,13.094983739071177,21.450281664270065
-0.1818,0.5727,0.7612,-0.1071,0.2357,0.2512,5.2063,-6.0113,-13.7725,53.09056689935747,-11.322934251401628,12.509212768514544,21.46244399717292
-0.1718,0.5727,0.7609,-0.1078,0.2345,0.2483,4.6463,-5.4513,-15.3125,53.039601782558414,-10.616383861213752,12.831738809784357,21.474640306038484
-0.1706,0.5688,0.7568,-0.1093,0.2321,0.2506,3.36,-5.1188,-15.6275,53.067395507944504,-10.343529500612881,11.921849033389904,21.48680617810412
-0.1742,0.5731,0.7609,-0.1093,0.2321,0.2506,2.485,-4.5237,-15.05,53.02218204800269,-10.355508730608838,11.652431719743722,21.495683106195766
-0.1738,0.5687,0.7542,-0.1114,0.2323,0.2543,2.3625,-3.8325,-14.7962,52.988740492307386,-10.395050727057937,10.85046122472964,21.507889324717123
-0.1762,0.5659,0.7519,-0.1114,0.2323,0.2543,1.8812,-3.745,-14.5338,53.02577278977707,-10.501649483790654,10.745251023477172,21.52003643922001
-0.1752,0.5576,0.7526,-0.1114,0.2343,0.251,1.9162,-3.6488,-13.125,53.386669032036096,-10.527136036102355,12.35777014000945,21.532233455918135
-0.1809,0.5591,0.7439,-0.1102,0.233,0.2507,1.8987,-3.465,-13.0987,53.1286679129087,-10.663375706298128,11.764926866938097,21.544423394290693
-0.167,0.5803,0.7449,-0.1102,0.233,0.2507,2.7125,-3.4738,-12.95,52.24450487735265,-10.437811739088025,10.360756525167636,21.556623242319045
-0.161,0.589,0.739,-0.1141,0.2328,0.2498,2.1963,-3.3513,-12.74,51.5806906566003,-10.105031750001285,9.118451851962469,21.568773895984712
-0.1581,0.5946,0.74,-0.1141,0.2328,0.2498,1.4612,-2.66,-13.2037,51.288369802629674,-9.955633878216267,8.588816488808558,21.577621449025262
-0.159,0.5874,0.7396,-0.1119,0.2317,0.2482,0.665,-1.2425,-13.2388,51.48424664530412,-9.872234475440733,9.033004068715428,21.58981740397455
-0.1704,0.5702,0.7412,-0.1151,0.23,0.2495,-0.0263,-1.0762,-13.2212,52.170010343938074,-9.972054185992558,9.578099450840902,21.602038840895876
-0.1988,0.5752,0.7486,-0.1151,0.23,0.2495,0.105,-1.61,-14.3413,52.38506277905195,-10.847682811929184,9.491470405441833,21.61422347052426
-0.1942,0.5826,0.7458,-0.113,0.2314,0.2503,0.1312,-2.7738,-15.1988,52.10414771259291,-11.318628354030208,9.084496540391262,21.626405976654976
-0.1887,0.5818,0.7494,-0.113,0.2314,0.2503,-0.8225,-3.3075,-15.0237,52.150700468337824,-11.276713852895968,9.33318469063497,21.638636615399534
-0.1844,0.577,0.7563,-0.1122,0.2304,0.2389,-1.5662,-4.305,-15.12,52.4177185647188,-11.087473530036377,11.979336093501306,21.650896275278914
-0.1703,0.5713,0.7559,-0.1132,0.2322,0.2498,-2.1613,-4.34,-15.4875,52.58709218907108,-10.490166628134341,11.508017286170949,21.66309683113982
-0.1651,0.5533,0.7623,-0.1132,0.2322,0.2498,-2.3888,-3.9638,-16.0475,52.90520441542397,-10.096390795229253,13.26484751141116,21.67525810229384
-0.1712,0.5458,0.7695,-0.113,0.2315,0.2498,-1.295,-3.9988,-16.625,53.91739909127059,-10.239603255461914,14.281890299246133,21.68414352437616
-0.1764,0.5403,0.7624,-0.113,0.2315,0.2498,1.9687,-3.29,-17.0538,54.5410659341047,-10.59125619908929,14.339922097239045,21.69632744617199
-0.1828,0.5509,0.7702,-0.115,0.2316,0.2425,2.8525,-3.7538,-16.4237,54.44282498747681,-10.840722662220612,14.929264531924671,21.708541096935193
-0.1809,0.5665,0.7672,-0.1153,0.2294,0.2491,3.7625,-4.0775,-16.0825,53.67689059413762,-10.768526952057458,12.266612723127773,21.72068184094507
-0.1856,0.576,0.7585,-0.1153,0.2294,0.2491,4.2175,-5.3725,-15.7587,52.89996096766954,-10.947745083706906,10.502864246823988,21.732900800452448
-0.1832,0.5883,0.7621,-0.116,0.2302,0.2487,3.3513,-6.02,-14.2712,52.41440699259782,-10.872176026502679,9.797305177172236,21.745074812592485
-0.1778,0.584,0.7511,-0.116,0.2302,0.2487,2.835,-7.4463,-14.5425,52.17708624258937,-10.725879020585346,9.4224221862099,21.757274660620833
-0.1699,0.5835,0.7544,-0.116,0.2302,0.2538,1.6187,-7.315,-14.8225,52.260061627195995,-10.370290764179916,8.826180241461232,21.769396647067964
-0.1665,0.5767,0.7542,-0.1177,0.2278,0.2477,1.6275,-6.93,-15.9862,52.53311549960375,-10.068372520131273,9.825874901603921,21.778357807233835
-0.1637,0.5681,0.7589,-0.1177,0.2278,0.2477,1.3387,-7.245,-15.855,53.05257613226544,-9.8782119325222,10.95908083755829,21.79047306927168
-0.1594,0.5552,0.7632,-0.1186,0.2277,0.25,2.3888,-7.3587,-15.5487,53.81487093647706,-9.682270708883431,11.975805408938957,21.802669024220968
-0.1584,0.5544,0.7659,-0.1186,0.2277,0.25,2.73,-7.4812,-15.8025,54.05625826637873,-9.562557297211958,12.336457002103089,21.81488302890045
-0.1515,0.5568,0.7648,-0.1187,0.2297,0.2533,3.465,-7.7525,-15.4263,53.95983844718338,-9.257148125863264,12.113299899365188,21.82703368256612
-0.148,0.5565,0.7616,-0.1188,0.229,0.2489,3.8675,-7.6213,-15.54,53.85975826514729,-9.029129844137783,12.599572292259941,21.839236008008417
-0.147,0.5542,0.7548,-0.1188,0.229,0.2489,4.0862,-7.2713,-16.065,53.73157588599985,-8.951811987585103,12.42550367234546,21.851418160222856
-0.1379,0.5638,0.7622,-0.1178,0.228,0.2487,5.355,-6.3787,-17.1763,53.534220237683776,-8.420521978073253,12.156079404437504,21.86024978703088
-0.1407,0.5669,0.7537,-0.1178,0.228,0.2487,6.4488,-5.6963,-17.4475,53.09885495266695,-8.472199770962318,11.277581652371014,21.872452466389458
-0.1387,0.5699,0.7595,-0.1202,0.227,0.2479,6.2038,-4.9963,-17.0625,53.11500766100731,-8.345931167489814,11.114682486632415,21.88461515320859
-0.1434,0.5702,0.7633,-0.1202,0.2252,0.2441,6.195,-4.06,-16.4937,53.22692925929254,-8.505864168208545,11.475808125913051,21.896807215078816
-0.1499,0.5708,0.7656,-0.1198,0.2252,0.2441,7.5513,-4.095,-16.345,53.287383594490066,-8.812877810533907,11.53428037436387,21.909013433600176
-0.1568,0.5705,0.7691,-0.1208,0.225,0.2469,8.015,-4.6988,-15.4263,53.42041206897562,-9.132938870004752,11.081564817361965,21.92120797288435
-0.152,0.5699,0.7687,-0.1208,0.225,0.2469,8.5487,-5.005,-14.4725,53.4452323936659,-9.080122959983933,11.115521267345224,21.93337561453138
-0.1518,0.5708,0.7698,-0.1213,0.2249,0.2475,9.3625,-5.495,-14.4287,53.443528525463606,-9.042009390880725,10.968878916264178,21.94552803777844
-0.1491,0.5634,0.7754,-0.1213,0.2249,0.2475,9.4325,-5.635,-14.0612,53.95579849499979,-8.97034631385424,11.898311826626612,21.954401426707303
-0.1541,0.5512,0.7706,-0.122,0.2249,0.2415,10.7012,-5.95,-14.385,54.39176160962219,-9.09590584861865,13.543428653056417,21.966629941954192
-0.1606,0.5417,0.7646,-0.1206,0.2232,0.2433,12.915,-6.5625,-14.8837,54.66580041596821,-9.461061433043792,13.409652377356094,21.978845008382507
-0.1514,0.5648,0.75,-0.1206,0.2232,0.2433,15.68,-7.735,-15.5137,53.10297172115087,-9.260253923175537,10.850188400476194,21.99104839557364
-0.143,0.593,0.7308,-0.1255,0.2206,0.2411,17.815,-8.7412,-17.0538,51.04329346133529,-8.776093183909985,6.806684122202944,22.003254968011277
-0.1329,0.6168,0.7226,-0.1255,0.2206,0.2411,19.3375,-10.0537,-19.9412,49.582805518980614,-8.072556380625988,4.049254192571011,22.015539755946413
-0.1243,0.6323,0.7172,-0.1247,0.2198,0.2416,18.7512,-9.8175,-20.4137,48.64369390298579,-7.49122987665306,1.9566290312389056,22.02776473203052
-0.1202,0.6434,0.707,-0.125,0.2183,0.2372,16.8087,-9.9663,-20.2125,47.74272405672484,-7.208878155936468,0.7402885988944706,22.03994688424496
-0.1215,0.6461,0.6999,-0.125,0.2183,0.2372,15.5487,-9.5725,-21.21,47.312520212586,-7.262222734455667,0.09142323102105908,22.05219380313832
-0.1233,0.6426,0.7008,-0.1231,0.2187,0.229,13.7725,-8.505,-21.9188,47.471030003975585,-7.375318492510784,2.0356640501133785,22.06438940417133
-0.1266,0.6347,0.6935,-0.1231,0.2187,0.2339,12.7225,-8.4263,-22.4962,47.53096137899133,-7.640233830228674,1.2698024767483136,22.076542889167225
-0.1334,0.6277,0.6903,-0.1244,0.2192,0.2339,11.6462,-7.4637,-22.6712,47.70699460136855,-8.087995207997468,1.5984943792599073,22.085459455882035
-0.1362,0.6534,0.688,-0.125,0.2178,0.2333,11.3662,-7.2975,-22.9075,46.55930858724183,-8.160985240605806,0.6529662594854192,22.097794853844963
-0.1316,0.6626,0.6865,-0.125,0.2178,0.2333,10.9725,-7.455,-22.9162,46.05209062657284,-7.882803441315292,1.692479810674063,22.109928873445554
-0.1258,0.6694,0.6862,-0.1254,0.2175,0.2315,9.765,-7.175,-22.5137,45.73548794093399,-7.51678137918126,2.0215611417687005,22.122141462459926
-0.1262,0.6695,0.6832,-0.1254,0.2175,0.2305,8.9775,-6.9212,-21.1575,45.59253624340666,-7.515867837144294,2.0621623148693344,22.134297424869768
-0.126,0.6667,0.6809,-0.1223,0.2182,0.2305,7.5862,-6.3963,-20.4137,45.60272454617747,-7.529974290032647,1.9044877959574738,22.146463650851683
-0.1274,0.6658,0.6824,-0.1219,0.2173,0.2313,4.8562,-5.005,-18.6987,45.69338833729363,-7.59811299143005,2.07849128778504,22.158661021466084
-0.1246,0.6709,0.6827,-0.1219,0.2173,0.2313,2.9925,-3.7013,-18.305,45.528559308797504,-7.448004576455126,2.4453573746748773,22.170856268582817
-0.1309,0.6675,0.6862,-0.1231,0.2185,0.2321,0.8925,-2.45,-17.745,45.73384769108407,-7.721730933836733,1.9529390936513011,22.17969072672107
-0.1361,0.66,0.6906,-0.1231,0.2185,0.2321,0.5862,-2.3538,-17.1238,46.165455156365155,-8.024866960393425,1.0850061411179905,22.191948263102777
-0.1373,0.6493,0.6868,-0.1222,0.2173,0.235,0.4638,-2.1963,-15.365,46.50076903257333,-8.18145747947618,1.1830359465781257,22.204053615484828
-0.1368,0.6493,0.6874,-0.1238,0.2181,0.2306,0.665,-1.3475,-14.9187,46.60225341898538,-8.21113983710704,0.30884420963904113,22.216249924350397
-0.1337,0.6742,0.6752,-0.1238,0.2181,0.2306,-0.0263,-1.6538,-14.7262,45.470253200335755,-8.081989877034506,2.2236164987055624,22.22847100735544
-0.1371,0.684,0.6722,-0.1243,0.2163,0.2303,-0.8312,-1.6275,-13.9038,44.8424578570902,-8.097411100319535,3.730104385869303,22.240660237895444
-0.1369,0.6909,0.6656,-0.1243,0.2163,0.2303,-2.1,-1.47,-13.9212,44.51082894048876,-8.104450909537066,4.899149546837288,22.25291034203531
-0.1283,0.6938,0.6667,-0.1242,0.2159,0.2298,-3.1588,-0.945,-13.4225,44.29749717359968,-8.066726453457097,5.347865821672189,22.26513496420314
-0.1221,0.6928,0.6666,-0.1222,0.2167,0.2305,-5.3375,-0.245,-12.9675,44.00544774116809,-7.777830263019832,5.4973071752567435,22.277351800212845
-0.1294,0.6733,0.68,-0.1222,0.2167,0.2305,-7.0963,1.0937,-13.0375,45.047996223988484,-7.753439903620079,5.19046749045393,22.28618519660226
-0.1349,0.648,0.685,-0.1253,0.2171,0.2316,-8.9337,2.695,-12.6087,46.377594139365584,-7.936680716886532,2.2097091389005734,22.298362393988803
-0.1398,0.6274,0.692,-0.1253,0.2171,0.2316,-9.0125,3.2987,-11.3925,47.60885420017241,-8.327075128742177,0.576033201274026,22.310556225440422
-0.1369,0.6237,0.699,-0.1253,0.2155,0.2319,-8.225,3.7625,-10.8413,48.159165562889456,-8.317624291464993,1.7434382771618635,22.322749349059485
-0.133,0.6298,0.7023,-0.1249,0.2147,0.2326,-8.0325,4.4713,-10.3687,48.12217088682654,-8.095956580731006,1.5949923622481745,22.33496299982269
-0.1293,0.6414,0.7105,-0.1249,0.2147,0.2326,-7.3325,5.1188,-9.765,47.96068104380981,-7.778173937288245,1.2833862064718944,22.347084986269817
-0.1344,0.6398,0.7044,-0.1262,0.2142,0.2321,-7.2275,5.425,-8.925,47.78909218939478,-7.992340995490018,0.9284890368341108,22.35921086579601
-0.1295,0.6358,0.7054,-0.1262,0.2142,0.2321,-7.805,5.88,-8.0937,47.94102983879491,-7.800742694939073,1.211283775437956,22.368046739599375
-0.1226,0.6365,0.7035,-0.1277,0.2159,0.2421,-7.525,6.0025,-7.6038,47.87583945193484,-7.426830953371575,0.46182977391768215,22.38022110565569
-0.12,0.6381,0.7075,-0.1262,0.2171,0.2302,-7.56,6.3263,-7.35,47.93943172530635,-7.213382553887181,1.9900249485920103,22.392327165870295
-0.1175,0.6356,0.7087,-0.1262,0.2171,0.2302,-7.4637,7.0613,-7.9975,48.08265674355373,-7.063561037987715,2.6569814490586285,22.404515688577742
-0.1184,0.6295,0.7169,-0.1285,0.2162,0.2333,-7.4637,7.875,-8.5487,48.60504826499939,-7.072548164622927,2.893059313418125,22.416680498894543
-0.1197,0.6226,0.716,-0.1285,0.2162,0.2333,-7.4812,7.7175,-8.9425,48.92481303097818,-7.169001168313788,3.3712399412385996,22.425479919321244
-0.1205,0.6203,0.711,-0.1278,0.2166,0.2301,-6.5713,7.7175,-9.17,48.90305594758052,-7.2573769971957836,4.003473404417443,22.43765180796361
-0.1245,0.6196,0.7271,-0.1278,0.2166,0.2301,-5.67,7.6825,-9.555,49.39862134826523,-7.391384833974611,5.155120719573368,22.449783350150256
-0.1266,0.618,0.7313,-0.1296,0.2162,0.2333,-4.8825,7.91,-10.9287,49.67484942654076,-7.492837998599619,4.920698777119651,22.462054689266818
-0.1316,0.6144,0.7318,-0.1262,0.2171,0.2326,-4.1912,8.0675,-11.5412,49.86130052163479,-7.7239492998353185,5.574858287481538,22.47415402507214
-0.1528,0.5999,0.7379,-0.1262,0.2171,0.2326,-3.9288,7.2888,-12.67,50.433801015217924,-8.361786813148,6.873437281337234,22.48635139568654
-0.1566,0.5978,0.7459,-0.1271,0.2182,0.2326,-0.9975,5.5738,-14.1662,50.96969454483006,-8.737629103360147,7.78588635668782,22.498496032775478
-0.1642,0.5961,0.7458,-0.1271,0.2182,0.2326,0.5163,3.5,-14.28,51.271004674618766,-9.184121924111928,7.949471613972313,22.507348186727643
-0.1703,0.5969,0.7443,-0.1271,0.217,0.2288,1.9162,1.8463,-15.5575,51.27159761510312,-9.813994068435482,8.089728207724749,22.51946698792827
-0.1731,0.5955,0.7435,-0.1269,0.2164,0.2306,2.9663,1.0062,-15.6712,51.30193436820535,-10.146087003823283,8.076280770656785,22.53167072903568
-0.1773,0.5926,0.7527,-0.1269,0.2164,0.2306,4.8387,-1.5662,-16.485,51.72972121692632,-10.40023313471857,8.416020279529462,22.543847572505943
-0.1769,0.5951,0.7483,-0.1282,0.2141,0.2305,6.755,-4.8038,-16.905,51.527317838166915,-10.463917210274438,7.6326397794603285,22.556012736739024
-0.1745,0.6059,0.7469,-0.1282,0.2141,0.2305,9.1175,-6.8513,-17.57,50.99546530902518,-10.319353833157473,6.711125973031177,22.56821577001388
-0.1741,0.6114,0.7466,-0.1293,0.2131,0.2287,9.8787,-8.96,-17.6575,50.708399591354095,-10.24491121304881,6.2839948285034835,22.580360761019094
-0.1732,0.6104,0.7482,-0.1289,0.2131,0.2254,10.78,-10.2725,-17.815,50.78583063814666,-10.183274695727565,7.041758748678612,22.589318382022185
-0.1726,0.6029,0.7483,-0.1289,0.2131,0.2254,12.0487,-11.6637,-18.2962,51.119207351959524,-10.182598496653867,7.646586553709517,22.601578395817842
-0.1781,0.5919,0.7501,-0.1287,0.2125,0.2261,14.35,-13.8162,-18.9088,51.68969893306838,-10.499713833018196,8.269283763521909,22.61377258118574
-0.1738,0.5916,0.75,-0.1287,0.2125,0.2261,16.1,-15.9162,-17.8762,51.73140183033292,-10.34674808425138,8.376807792171379,22.62603401064651
-0.1681,0.5935,0.7488,-0.1294,0.2118,0.2239,18.3575,-18.3575,-17.9463,51.60558636860055,-10.045793917174382,8.467992684071433,22.63830499584679
-0.1647,0.5988,0.7447,-0.1316,0.2104,0.2228,23.0037,-22.505,-17.8762,51.213142924233786,-9.828778656573348,7.673221395440254,22.650558285233164
-0.1596,0.6035,0.7327,-0.1316,0.2104,0.2228,25.06,-24.1063,-17.0275,50.54690461170805,-9.607015781726014,6.602703900124681,22.662786446563775
-0.1571,0.5975,0.7293,-0.1326,0.2101,0.221,27.7375,-25.8913,-17.4125,50.668952094663894,-9.490167901824076,7.065842002662604,22.675039382033866
-0.161,0.5941,0.7266,-0.1326,0.2101,0.221,30.5812,-28.525,-16.9575,50.727307622327565,-9.67903973287626,7.122529455269185,22.687308951569037
-0.1565,0.5983,0.7188,-0.1361,0.2065,0.2221,33.285,-30.8875,-17.6487,50.24090146736378,-9.534687466423392,5.217352300710454,22.69956507228563
-0.1437,0.6155,0.707,-0.139,0.2043,0.2165,36.645,-33.2238,-17.29,48.989648664254375,-8.886632757809881,3.7832132115257453,22.711792879699964
-0.1223,0.651,0.6911,-0.139,0.2043,0.2165,39.585,-35.7525,-17.22,46.76407265843166,-7.667906121174912,0.1838893039284648,22.724054309160735
-0.1166,0.6502,0.6827,-0.1422,0.2014,0.2114,39.9087,-37.4325,-17.4825,46.405190107237175,-7.174344842169977,0.01922762772580675,22.736309368128495
-0.1165,0.6506,0.6783,-0.1422,0.1981,0.2096,41.265,-38.955,-18.1475,46.198814937364865,-7.08510961240998,0.6711825651388794,22.74854283820328
-0.1179,0.6454,0.6766,-0.143,0.1981,0.2096,43.7238,-41.1688,-19.2062,46.348732845212425,-7.171316581353588,0.43308834547148567,22.760764275124604
-0.1047,0.648,0.6626,-0.1446,0.1971,0.2071,46.1475,-42.84,-19.5475,45.65250602654789,-6.548438588584745,1.2481453621748737,22.773029597664436
-0.0903,0.6618,0.6491,-0.1446,0.1971,0.2071,48.0812,-45.08,-19.565,44.468268867106396,-5.703171539158289,3.238124004435716,22.785287841878702
-0.0721,0.6714,0.6396,-0.1486,0.1935,0.2076,50.5575,-46.305,-18.9525,43.62630671597885,-4.640910210655221,5.604975775242243,22.797539715599957
-0.055,0.6747,0.6332,-0.1506,0.1882,0.2013,51.8087,-46.4625,-18.165,43.19059752107254,-3.6205472340843015,6.15077529608387,22.809733193135298
-0.0484,0.674,0.6265,-0.1506,0.1882,0.2013,52.2638,-46.375,-17.3512,42.9132830108154,-3.1365606533156782,6.670682744443162,22.818667455664023
-0.0521,0.6728,0.6095,-0.1541,0.1878,0.1936,54.3025,-46.305,-16.7038,42.18667410190218,-3.249355651216986,5.8834814131295285,22.83092499204573
-0.0468,0.6854,0.5958,-0.1541,0.1878,0.1936,56.5687,-47.0575,-15.89,41.01927122193303,-3.038374976997263,7.737980588154641,22.843179343180935
-0.0264,0.7105,0.5824,-0.157,0.1828,0.1878,59.3688,-47.5737,-16.1,39.368237046504184,-2.033052153733914,10.075163806157521,22.855439356976593
0.0021,0.739,0.5719,-0.1601,0.1782,0.1843,60.9175,-47.4513,-16.9137,37.760976519732075,-0.3613081780143191,12.894036710258193,22.867634958009603
0.0376,0.7497,0.5614,-0.1601,0.1782,0.1843,61.2938,-43.785,-14.5338,36.841450867257386,0.98932249691929,15.151153645047888,22.88012006255824
0.0273,0.7362,0.5499,-0.1638,0.1771,0.1762,61.8538,-41.0988,-13.3437,36.75894184705502,1.0869293467637482,12.737216204835143,22.892094112001054
0.011,0.7275,0.5431,-0.1638,0.1771,0.1762,63.35,-38.8763,-12.6087,36.742660622407236,0.901572379503581,12.374453522870734,22.904318026336327
-0.0001,0.7336,0.5231,-0.1674,0.1736,0.1755,66.0363,-38.1413,-14.315,35.509060139512904,0.49455865197991317,14.072741164966038,22.91655185032739
0.003,0.7576,0.4987,-0.1688,0.1712,0.1633,68.495,-37.0125,-15.7675,33.38527052962319,0.2829389168184326,14.119130882586674,22.92877894990917
0.0162,0.8085,0.4694,-0.1688,0.1712,0.1633,69.6938,-36.715,-16.9837,30.182902314198447,0.8343473915866807,18.425655454040033,22.94097773618868
0.012,0.8085,0.4568,-0.1682,0.1669,0.1544,70.0875,-36.5575,-17.5963,29.476029121338758,0.758808288143105,17.585457690125132,22.953203420105346
0.0095,0.8055,0.4463,-0.1682,0.1669,0.1544,70.5075,-35.9888,-17.7975,28.995898301324672,0.6227378267822281,18.067871084948933,22.965360798180303
0.0126,0.8113,0.4325,-0.1702,0.1662,0.147,70.4113,-35.875,-18.0338,28.074463828230876,0.7558132537629831,17.152557921698207,22.97428055014162
0.0166,0.83,0.4102,-0.1737,0.1634,0.1386,71.33,-35.3763,-18.9612,26.323026487082554,0.9851758606469966,16.974092655771948,22.986515789797796
0.0345,0.892,0.3899,-0.1737,0.1634,0.1386,70.9013,-35.2013,-20.1513,23.646878948827087,1.8931235510536424,20.21898203775926,22.998741827630738
0.0384,0.9129,0.3717,-0.1715,0.1618,0.1309,67.5063,-31.9725,-21.9975,22.17535131524838,2.19542805890415,20.207129855424416,23.010943445240482
0.0381,0.9237,0.363,-0.1715,0.1618,0.1309,64.1813,-30.6688,-22.5837,21.464699088329304,2.198158195442696,20.913347686259822,23.02317691531527
0.0369,0.9215,0.3515,-0.1723,0.1626,0.1259,61.0138,-29.9512,-22.61,20.888071081385476,2.148153094155231,19.93715248300673,23.03536791543666
0.031,0.9075,0.3497,-0.1746,0.1587,0.1155,57.6625,-29.19,-21.56,21.070857086092836,1.8612915464469109,16.854493404767833,23.047596076767274
0.0159,0.8718,0.3482,-0.1746,0.1587,0.1155,56.7525,-29.0675,-21.28,21.760339603109877,1.0718390841513115,15.806716929019732,23.05982282243277
0.0187,0.8706,0.3489,-0.1719,0.1595,0.1094,54.9762,-28.8312,-20.3437,21.8375057966422,1.1332343351638867,14.152507497812698,23.072026209623903
0.0303,0.8831,0.3303,-0.1719,0.1595,0.1094,55.51,-29.1375,-20.02,20.529451259913497,1.7465574551252594,15.647717726639247,23.084252955289404
0.0445,0.9038,0.3186,-0.1729,0.1572,0.105,55.475,-29.2687,-20.405,19.43693493718211,2.5432485404980945,15.88756036722257,23.096435461420118
0.0586,0.9204,0.3071,-0.1722,0.1558,0.097,54.9238,-28.9713,-20.2388,18.468567961265958,3.3381664014720798,14.877027658333684,23.105369016116285
0.0621,0.9159,0.2838,-0.1722,0.1558,0.097,53.7513,-27.8075,-19.88,17.237885026291153,3.6557494504482486,16.13967423959707,23.117567094563245
0.0614,0.9138,0.286,-0.1738,0.1554,0.0894,51.7562,-27.0988,-18.9437,17.376466096983027,3.6669822289768605,13.574978516097431,23.129987786349236
0.0651,0.914,0.2796,-0.1738,0.1554,0.0894,50.75,-26.88,-18.8475,17.016042404689298,3.8602312244443926,13.907364000187247,23.14198660993153
0.0614,0.9085,0.2711,-0.1722,0.1578,0.088,49.6212,-24.7712,-19.2413,16.62283111517018,3.728390609739126,13.737669124825988,23.154223265252817
0.0531,0.9055,0.2644,-0.1751,0.153,0.0798,49.0875,-23.975,-20.9212,16.2840007584553,3.28200761260853,11.613137284161613,23.166446471755535
0.0499,0.9134,0.248,-0.1751,0.153,0.0798,48.7725,-23.5112,-21.525,15.211197565598646,3.0472339730381615,12.504491042972745,23.178640303207153
0.0449,0.916,0.2411,-0.1731,0.1544,0.0685,48.51,-23.135,-22.7325,14.755242230572122,2.7465351797351083,9.402135630710367,23.190859970547088
0.0442,0.9193,0.2312,-0.1731,0.1544,0.0685,49.0875,-23.2225,-22.7588,14.1289710294761,2.6771527513185704,9.86345262314802,23.20310405811022
0.0461,0.9229,0.228,-0.1741,0.1552,0.0675,49.3587,-23.5462,-22.61,13.881663344684815,2.7664798972321436,9.69485267384001,23.21530213655718
0.0436,0.9264,0.2181,-0.1712,0.1555,0.0624,49.6825,-23.415,-21.77,13.259639825905314,2.6384541426179386,8.770441614466248,23.224317091997353
0.0398,0.9415,0.198,-0.1712,0.1555,0.0624,49.6738,-23.7825,-22.2162,11.902319133960717,2.3966184284079555,9.985880663433012,23.236350599374912
0.0434,0.9449,0.1934,-0.1718,0.1572,0.0558,49.2887,-24.2637,-22.5487,11.573729582865303,2.5585516043551095,8.098095080157556,23.24860459659384
0.0399,0.9482,0.1738,-0.1718,0.1572,0.0507,48.4137,-24.1937,-22.61,10.409503700972248,2.388771616548792,7.463889389487047,23.26080869161753
0.04,0.9469,0.1655,-0.1694,0.1554,0.0507,49.0175,-24.0975,-22.7062,9.923465521860228,2.383416144700836,8.094413563921945,23.273067289748074
0.0335,0.9476,0.1419,-0.166,0.1564,0.0446,47.7663,-24.99,-23.3013,8.543923855942367,2.037679521994902,7.4702774619193075,23.285305714650754
0.0373,0.952,0.127,-0.166,0.1564,0.0446,47.285,-25.27,-24.2987,7.617137084391207,2.2082569363370648,8.350696268771205,23.29746521622338
0.04,0.9591,0.1135,-0.1674,0.1571,0.0411,46.97,-25.095,-24.325,6.766142959439947,2.3578299320403118,7.939441068520261,23.309695147135383
0.04,0.9678,0.0979,-0.1674,0.1597,0.04,46.2788,-25.3663,-24.7012,5.796052902835625,2.354986853550768,8.387831283422363,23.321927555461336
0.0457,0.9751,0.0857,-0.1682,0.1597,0.04,45.15,-25.3575,-25.48,5.038569184790009,2.6485211941966322,9.129969428310579,23.3341206790804
0.0366,0.9861,0.0594,-0.1641,0.1591,0.0297,42.0525,-24.9725,-25.4188,3.481981178375436,2.162548929181725,7.311010105797821,23.34633822292266
0.0566,0.9974,0.0464,-0.1641,0.1591,0.0297,39.1388,-23.9575,-26.145,2.682651563034219,3.165109386221112,8.156130862559111,23.35520665702363
0.0505,1.0109,0.0467,-0.1615,0.1623,0.0228,38.8587,-23.1612,-28.2887,2.645867315679785,2.876348403130632,5.797044693132606,23.367442604512362
0.0527,1.0207,0.0395,-0.159,0.1626,0.0158,37.1613,-22.8812,-28.0875,2.226702460151573,2.948475229675606,3.7026317483759765,23.379639621210487
0.0564,1.0177,0.0251,-0.159,0.1626,0.0158,35.5687,-22.925,-26.2413,1.4335659616490002,3.1548703893504166,4.468360930598558,23.39185539547136
0.0464,1.0256,-0.0038,-0.1569,0.1629,0.0172,34.965,-22.8463,-25.6725,-0.16969098690268483,2.6332422723706843,6.702718145694362,23.404155047890182
0.0445,1.0329,-0.0059,-0.1569,0.1629,0.0172,32.4625,-20.2737,-27.7637,-0.3229131421204411,2.4777851227161656,6.894287253702971,23.4163814396394
0.0453,1.0468,-0.0134,-0.1566,0.1638,0.0177,28.3325,-19.9675,-28.3237,-0.7205727789088928,2.4777159761139917,7.518629642528258,23.42863720643972
0.0384,1.0585,-0.0215,-0.1534,0.1657,0.0134,23.7825,-18.7162,-28.4638,-1.1474810416841927,2.1023143007516296,6.541588623158634,23.440923410039968
0.0393,1.067,-0.0188,-0.1534,0.1657,0.0134,19.0312,-16.8,-27.58,-1.0154992787726878,2.1086044942085858,6.336587566837484,23.453111932747415
0.0314,1.075,-0.0201,-0.1521,0.1663,0.0102,16.6338,-15.5487,-27.9037,-1.0684313083207166,1.7010984227104626,5.232885001646552,23.465384687529088
0.028,1.0761,-0.0236,-0.1521,0.1663,0.0102,13.0025,-15.2075,-27.2125,-1.245085222723845,1.5044766717009095,5.34650673613645,23.477617803687597
0.0281,1.066,-0.0201,-0.1502,0.1689,0.0094,9.415,-14.1925,-25.5062,-1.092812180284359,1.5093091612072647,4.961063530460694,23.489842779771703
0.0238,1.0591,-0.0251,-0.1481,0.1662,0.0092,5.2325,-13.6325,-23.625,-1.3278824568491836,1.3069578719854127,5.184517418718672,23.50203873472099
0.0257,1.0513,-0.0199,-0.1481,0.1662,0.0092,2.0038,-12.5475,-23.0387,-1.1273108099967588,1.3912767123916794,4.919110405603747,23.514258048144647
0.0238,1.0404,-0.0118,-0.1475,0.1683,0.011,-2.17,-10.7712,-21.5163,-0.9676265333051682,1.3193502462115823,5.118844184685854,23.526476299819468
0.0201,1.0327,-0.007,-0.1475,0.1683,0.011,-3.7188,-9.5812,-17.6225,-0.6714341125272622,1.1549218738724045,4.839091357802039,23.535903567723828
0.0259,1.0244,0.0021,-0.1448,0.1709,0.0095,-9.0562,-7.5687,-16.1875,0.01061394631634482,1.3686887481461665,3.8443229433908637,23.548083596440595
0.0282,1.0152,0.0062,-0.1464,0.1705,0.0131,-10.4737,-6.405,-14.6387,0.3113598351120006,1.4869920309785087,4.74499075255377,23.560262209492247
0.0276,0.992,0.0138,-0.1464,0.1705,0.0131,-11.4187,-5.285,-13.7812,0.7471777520977172,1.5102195582896831,4.3892683228723595,23.572423126729987
0.0271,0.9819,0.0156,-0.1486,0.1682,0.0142,-11.375,-4.1475,-12.9762,0.8934104290892273,1.5345343897973869,4.548467332361553,23.584612003353712
0.0282,0.9791,0.0228,-0.1486,0.1682,0.0142,-11.5937,-3.4913,-12.3462,1.289580641824689,1.5960906394132954,4.175970175672062,23.596909886191142
0.0268,0.9791,0.0242,-0.1482,0.1687,0.0118,-11.4712,-2.2838,-12.8887,1.4029792211093768,1.585191825186414,3.3093343193868363,23.608898446201366
0.0273,0.9825,0.0264,-0.1479,0.1677,0.0167,-11.76,-1.0587,-12.5125,1.5256784631341382,1.5881070793482783,4.350730519086523,23.621100063811106
0.0328,0.9874,0.0314,-0.1479,0.1677,0.0167,-10.85,-0.3325,-12.2762,1.7892057547521791,1.760796822443915,4.472603984783347,23.63327442986742
0.0339,0.9886,0.0365,-0.1478,0.1682,0.0181,-11.655,0.7088,-11.9437,2.0818698521657866,1.883744174937294,4.535685149751711,23.642962180152587
0.0294,0.9925,0.0335,-0.1478,0.1682,0.0181,-12.2762,2.4237,-11.6025,1.9472015037502746,1.7605854320498888,4.794219542005738,23.654689196033164
0.0298,0.997,0.0428,-0.1466,0.169,0.0202,-12.4337,2.625,-12.1887,2.4106505975986603,1.7321284121201892,5.062308700345093,23.66682073821981
0.0309,0.9956,0.0442,-0.151,0.1682,0.0202,-13.4137,3.5525,-11.6112,2.530809725526463,1.7607902666329687,5.009963830670438,23.678920427941407
0.0323,0.9895,0.0478,-0.151,0.1682,0.0202,-15.0412,4.7775,-11.8825,2.7480838414011033,1.826740702520281,4.797081637794423,23.691237776174145
0.0325,0.9838,0.0504,-0.1478,0.168,0.0222,-15.7412,6.0375,-13.02,2.919572605844919,1.8472018335648166,5.346975252136263,23.703131840538067
0.0296,0.9821,0.0542,-0.1478,0.168,0.0222,-15.4962,7.3063,-12.9325,3.1415197736323304,1.802373372450093,5.194744438802596,23.71524497907824
0.0268,0.9788,0.0586,-0.1504,0.167,0.024,-15.925,7.4025,-13.0113,3.4061929970053804,1.7243814250651652,5.439646035297679,23.727343253134727
0.0286,0.9778,0.0645,-0.1489,0.1673,0.0297,-16.5375,7.1925,-12.8625,3.749270619968502,1.7038448534096962,7.106323881538157,23.736721326676406
0.0278,0.9833,0.061,-0.1489,0.1673,0.0297,-16.695,7.5163,-12.67,3.5631265017074933,1.6640914806258007,7.555015090152763,23.74879482659341
0.0279,0.9858,0.0722,-0.1492,0.1678,0.0269,-17.2287,7.9363,-11.9612,4.148640038858363,1.6354201287800965,5.988256238811381,23.760926368780055
0.0264,0.988,0.0772,-0.1492,0.1678,0.0269,-18.2,7.4463,-11.8562,4.448563972275245,1.567328402444736,5.503915136709713,23.77302464283654
0.0274,0.9818,0.0782,-0.1496,0.1675,0.025,-18.4625,7.665,-11.025,4.547695177047302,1.5860075410703942,4.706407873626934,23.785113361153513
0.0279,0.9786,0.0806,-0.1519,0.1671,0.0294,-19.39,7.2362,-11.1475,4.699329232586851,1.61517388929977,5.865358045202017,23.79719712464259
0.0246,0.9742,0.0906,-0.1519,0.1671,0.0294,-19.4512,7.1838,-11.4362,5.278661912109161,1.4973207577458474,5.413978505979226,23.809313802345546
0.0283,0.9714,0.0951,-0.1524,0.1662,0.0314,-19.705,6.86,-11.865,5.5740902723796415,1.5988180696788397,5.770112390900738,23.818690106305834
0.0282,0.9698,0.0985,-0.1524,0.1662,0.0314,-20.02,7.1838,-12.6262,5.787206646793199,1.6260214454826,5.6190154506907595,23.830875797683053
0.0325,0.9642,0.1104,-0.1508,0.1669,0.0337,-19.8537,7.7438,-13.72,6.490910408759109,1.6781887304698035,5.695979603849901,23.8429209842978
0.0312,0.9625,0.1171,-0.1508,0.1669,0.0347,-19.5037,8.4525,-14.1138,6.911650219989448,1.7407348968153336,5.627313414114453,23.854973603154384
0.0252,0.9585,0.1175,-0.1524,0.1666,0.0347,-19.4862,8.6012,-14.3062,6.984534854777205,1.6311635644402702,5.490091180112244,23.867095589601515
0.0246,0.9541,0.1173,-0.1511,0.1664,0.0379,-18.97,8.26,-14.2275,7.007536490953462,1.5617130349218051,6.580558049268872,23.879232440532334
0.0245,0.9496,0.1207,-0.1511,0.1664,0.0379,-17.7712,8.1287,-14.945,7.229126345329593,1.5052637761487355,6.476351801589806,23.891349472151568
0.0237,0.95,0.1261,-0.1528,0.1651,0.0382,-16.8875,7.9888,-14.0612,7.539245076746474,1.4735040623639275,6.235193110817106,23.90335041923153
0.0248,0.9485,0.1322,-0.1528,0.1651,0.0382,-17.0362,8.0587,-13.125,7.908916185101282,1.47621933933415,5.8441912538083995,23.912829358912514
0.0309,0.9473,0.1343,-0.1538,0.165,0.047,-16.8612,8.1025,-12.39,8.058578076500241,1.6729466390016092,8.577989197488657,23.924959485434044
0.0264,0.9428,0.1375,-0.1523,0.1639,0.0417,-15.6275,8.54,-12.0312,8.28050995279092,1.6218843142104278,7.011318614547727,23.937011396458075
0.0216,0.9398,0.141,-0.1523,0.1639,0.0417,-14.49,8.3562,-12.3025,8.512890342302795,1.4474394905498755,6.563641619336417,23.949123119333137
0.0221,0.9393,0.1435,-0.153,0.1662,0.0431,-13.7812,8.1462,-12.0662,8.671801212906846,1.3795974903396,6.6846691579774085,23.96120334365943
0.0232,0.9388,0.1471,-0.153,0.1662,0.0431,-14.0437,8.0062,-11.585,8.886363896323587,1.3920672352117907,6.489930394364844,23.97332568402284
0.0224,0.9379,0.1491,-0.1507,0.1649,0.0418,-12.53,7.63,-11.6812,9.01935608586985,1.3656741431505945,6.056256727264583,23.985444131307187
0.0228,0.9358,0.1513,-0.1516,0.1644,0.0444,-11.6375,7.42,-11.8562,9.167565950645873,1.3732200075859768,6.70195865928318,23.99479707679311
0.0246,0.9349,0.151,-0.1516,0.1644,0.0444,-10.5525,6.3875,-12.5037,9.174048334574161,1.4305743583623853,6.808089659129516,24.006872700207783
0.0237,0.9338,0.1542,-0.153,0.1647,0.0439,-7.1838,6.3438,-12.6087,9.339956310364473,1.4324018518780541,6.399649920609048,24.019012736385108
0.0219,0.9345,0.1512,-0.153,0.1647,0.0439,-6.1687,5.7488,-12.67,9.223881065327035,1.3837251787780285,6.498310877444483,24.03098643191164
0.0214,0.9374,0.1583,-0.1547,0.1662,0.0421,-5.3638,5.67,-13.3087,9.487305204583231,1.368436424997082,5.46237216817079,24.0430574544147
0.0184,0.9442,0.1522,-0.1535,0.1665,0.0425,-4.1213,4.585,-13.3262,9.291884167405208,1.3285377567443224,5.788172452774876,24.055053092750484
0.0149,0.9505,0.1508,-0.1535,0.1665,0.0425,-3.0188,4.06,-13.9212,9.220661393700919,1.1982193109853567,5.957507598832509,24.064372416189972
0.0182,0.9601,0.1455,-0.1544,0.1648,0.0444,-2.0825,2.9488,-13.2037,8.996829929936142,1.1695826720990534,6.810235202608599,24.076445916106977
0.0204,0.9611,0.1506,-0.1544,0.1648,0.0444,-2.4237,2.5375,-13.0025,8.97865196488699,1.1801562544880522,6.888701860561798,24.088531803093723
0.0155,0.9618,0.1405,-0.1541,0.1658,0.0469,-2.6163,2.2313,-13.3875,8.943162266408105,1.152669803766495,7.753087161615799,24.100565310471286
0.0085,0.9686,0.141,-0.1541,0.1658,0.0469,-2.4675,2.1263,-13.51,8.830781601480941,1.1477697132932951,8.099444828299633,24.112571566295422
-0.0019,0.9744,0.1362,-0.1545,0.165,0.0465,-2.3712,1.3125,-13.9387,8.628534637704405,0.7655439873348103,8.21025362476886,24.124701692816952
-0.0102,0.9734,0.1364,-0.1568,0.163,0.0446,-3.15,-0.2975,-13.9562,8.417878353417542,0.3410331429901775,7.948518729371183,24.13682226359897
-0.0145,0.983,0.1351,-0.1568,0.163,0.0446,-3.5438,-2.0825,-14.3413,8.142050190103262,-0.19646251464412917,7.884343079042105,24.146284215298596
-0.002,0.9891,0.1368,-0.1555,0.1664,0.0464,-4.3225,-4.1125,-14.0612,7.975449056625844,-0.16717651462716715,8.360869314761851,24.158475569336268
0.0091,0.9833,0.136,-0.1555,0.1664,0.0464,-4.9525,-5.6175,-13.545,7.905351108532669,-0.1389258975920531,8.532397727840454,24.17070231500177
0.0211,0.9762,0.1332,-0.1545,0.1641,0.0472,-5.9063,-7.385,-13.195,7.801877394700254,0.1822526102231403,9.177936345952702,24.18264805114232
0.0257,0.974,0.1365,-0.1558,0.1647,0.0475,-7.56,-7.4288,-13.5012,7.947826177406583,0.1839121471587265,9.09029854396005,24.19477534633362
0.0427,0.977,0.1498,-0.1558,0.1647,0.0475,-8.225,-7.455,-12.6262,8.599678298868007,1.2532842353626998,8.503203381090893,24.206896978864474
0.0492,0.9756,0.1476,-0.1553,0.1657,0.0503,-8.995,-6.9212,-12.18,8.60265152241775,2.1650982089955053,9.529151011701579,24.218947474223395
0.0509,0.9728,0.1504,-0.1553,0.1657,0.0503,-9.2312,-6.3525,-12.1712,8.76403911356345,2.6190610362729037,9.476675443530215,24.230991245173026
0.0498,0.9641,0.1513,-0.1547,0.1643,0.0498,-9.8175,-5.3375,-12.845,8.899893675013473,2.738933800836884,9.272762657247231,24.240416389579714
0.0504,0.9548,0.1496,-0.1572,0.1638,0.0514,-9.4937,-4.795,-13.1162,8.90419100035771,2.807567280296559,9.66956925127087,24.252840620528488
0.0487,0.9464,0.152,-0.1572,0.1638,0.0514,-8.05,-4.4538,-13.1862,9.089765660031867,2.8318255543723936,9.508963568682594,24.26460444370201
0.0532,0.9452,0.158,-0.1572,0.1646,0.0522,-7.3325,-3.7013,-13.5362,9.419159267594603,2.8431054586842572,9.398066773884134,24.27673633980493
0.0565,0.9474,0.1624,-0.1572,0.1646,0.0522,-7.7788,-2.9225,-13.7375,9.676509196579921,2.9422260001111717,9.194821669121994,24.288873190735746
0.0566,0.948,0.1583,-0.1571,0.1653,0.0533,-7.4025,-1.5837,-13.8775,9.514263760908122,3.0589582461022053,9.629985313103331,24.301033046224653
0.0568,0.9508,0.158,-0.157,0.1623,0.0541,-6.3438,-0.4987,-13.93,9.451935380661299,3.1528912293557747,10.047133890916113,24.313100883481205
0.0607,0.9484,0.1615,-0.157,0.1623,0.0541,-5.8187,0.1312,-14.3062,9.61286565760579,3.3566881540625864,10.083697377586995,24.322372782139404
0.058,0.949,0.1627,-0.157,0.1632,0.0544,-5.4862,1.505,-14.4725,9.698118040060145,3.4012669621138856,10.082283300145166,24.334416553089035
0.0529,0.9462,0.1601,-0.157,0.1632,0.0544,-5.4688,2.9488,-14.4375,9.628544551225948,3.2823626910463037,10.13258250230519,24.346810347237877
0.0529,0.946,0.1547,-0.1586,0.1624,0.0546,-4.8738,4.7425,-14.2275,9.393969130346184,3.2304107299948286,10.438343568992876,24.358533823955675
0.0459,0.948,0.164,-0.1571,0.1641,0.0533,-4.76,5.6525,-14.14,9.67849214119098,3.0361550998409035,9.556484317481594,24.370551051184435
0.0407,0.9511,0.1621,-0.1571,0.1641,0.0533,-4.5237,5.775,-14.0525,9.674422719057665,2.815930369379968,9.481853359953766,24.38255306001323
0.0352,0.9537,0.1609,-0.1553,0.163,0.0542,-4.0075,6.0813,-13.6937,9.618303712117958,2.6984830647627547,9.931277858499199,24.391904943750315
0.0348,0.9561,0.1582,-0.1553,0.163,0.0542,-3.9288,5.6,-13.3612,9.494109004251955,2.6190299322041857,10.162980113747324,24.403988707239392
0.0382,0.9589,0.1618,-0.1556,0.165,0.0556,-4.375,5.4425,-13.7462,9.546698996192813,2.546620261467464,10.379485298509561,24.416063622821515
0.0402,0.961,0.1626,-0.1556,0.165,0.0556,-4.6813,5.1275,-13.4663,9.584569159518933,2.540171004549907,10.414471842494176,24.428049351501507
0.0425,0.961,0.1609,-0.1568,0.1618,0.0553,-4.6287,5.1712,-13.3525,9.531821067737788,2.5346093978225017,10.52902453374927,24.440085690209298
0.0394,0.9567,0.1609,-0.1575,0.163,0.0538,-4.1475,5.5037,-14.0437,9.5407441164074,2.4612353274940593,9.939878502439734,24.449422709462695
0.0437,0.954,0.1686,-0.1575,0.163,0.0538,-3.9463,5.3725,-14.0437,9.810559623381767,2.503908801562801,9.448586825359536,24.46149267021692
0.045,0.9529,0.1628,-0.1585,0.162,0.0534,-4.1125,5.5825,-13.755,9.742476729007473,2.5364247352822464,9.54347453653358,24.47352016101775
0.0437,0.9526,0.1708,-0.1585,0.162,0.0534,-3.7625,5.0487,-14.0875,9.96286860873333,2.5545011455959874,9.136481159294085,24.48555862322321
0.0433,0.9543,0.1682,-0.1587,0.1626,0.0575,-3.7625,5.4775,-14.4462,9.980143727917168,2.5564661294254547,10.380909801517214,24.497629999642545
0.0412,0.9523,0.1655,-0.1583,0.1604,0.0551,-3.5788,5.3288,-15.1637,9.922523951283358,2.4842270939584488,10.128545368442985,24.50970172997816
0.0387,0.9509,0.167,-0.1583,0.1604,0.0551,-3.1588,5.3288,-15.295,9.93507518246514,2.3630577373943216,9.969306134033328,24.519026008245543
0.0365,0.9502,0.1665,-0.1612,0.1634,0.0517,-2.975,4.7688,-15.8375,9.93594596223967,2.2256734428770444,8.692943153520668,24.53102766315806
0.0457,0.9497,0.1676,-0.1612,0.1634,0.0517,-2.87,4.445,-15.7412,9.947886072776502,2.5626102681746943,8.444281264513895,24.54306577144724
0.0493,0.949,0.1646,-0.1576,0.1614,0.0478,-2.3275,4.025,-15.4962,9.920169079194963,2.8073734209939794,7.709101326579961,24.555131131289844
0.0539,0.9496,0.1667,-0.1576,0.1614,0.0478,-2.87,4.7512,-14.5687,9.926193143857608,3.0098964947870477,7.449188280007251,24.567218080025427
0.0568,0.9476,0.1679,-0.1592,0.1628,0.0509,-1.8725,4.48,-14.0437,9.980168089775455,3.1390824940499726,8.107566275724544,24.57915461434274
0.059,0.9434,0.164,-0.1592,0.1582,0.0518,-1.715,4.865,-14.4112,9.92222488799858,3.323224594881654,8.930742805790665,24.58852596347513
0.0606,0.9471,0.161,-0.1592,0.1582,0.0518,-1.2687,5.5825,-15.12,9.761868701046975,3.500086947433142,9.30655470765642,24.600711300936073
0.0573,0.9504,0.1588,-0.157,0.1614,0.0515,-1.1812,5.4163,-15.4,9.596605752868372,3.4366014252372374,9.351558436038847,24.612648543085946
0.0545,0.9542,0.1623,-0.157,0.1614,0.0515,-1.05,4.795,-16.065,9.63153518770214,3.2827869647077694,9.185108768086119,24.624706824602985
0.0513,0.9626,0.1598,-0.157,0.165,0.0514,-0.6212,5.1275,-17.6487,9.493119144562634,3.062586268344836,9.119939690484191,24.636726883161973
0.0473,0.962,0.1577,-0.1564,0.1618,0.0481,-0.9275,4.69,-19.5037,9.376492168714996,2.818525532539951,8.379720948045648,24.64604585268518
0.0399,0.9678,0.1513,-0.1564,0.1618,0.0481,-1.2075,3.9725,-20.9913,9.084603913276702,2.38977795761357,8.524680342266224,24.658236852806574
0.028,0.9738,0.1573,-0.155,0.1646,0.0494,-1.75,2.7825,-22.645,9.128386541505032,1.7012385158835093,8.529663189905659,24.67016737054716
0.0246,0.975,0.149,-0.155,0.1646,0.0494,-2.2488,2.2488,-23.065,8.997560780039912,1.4545294223589098,8.814728875752198,24.682142127822527
0.0238,0.9728,0.1523,-0.1542,0.1646,0.0443,-2.4763,1.8725,-23.6338,8.981219737193761,1.3909081299154897,7.928558133700455,24.694272254344057
0.0187,0.9709,0.1543,-0.1542,0.1646,0.0443,-3.4563,1.3912,-24.4913,9.002740373706297,1.1148563192915226,7.580010286371913,24.706308593051844
0.021,0.9683,0.1555,-0.154,0.1651,0.05,-3.885,1.1725,-24.675,9.068797632974995,1.2175070458936497,7.787418290140709,24.715598895356514
0.0169,0.9673,0.1569,-0.1513,0.167,0.0504,-4.8738,1.0937,-25.62,9.168207798989904,1.0055147778415823,7.907993706154637,24.727667794361903
0.0171,0.9614,0.1602,-0.1513,0.167,0.0504,-5.9588,0.5775,-26.5562,9.39222392323604,1.0051588076620805,8.083858721794572,24.739668033609306
0.0158,0.9575,0.1665,-0.1486,0.1682,0.0505,-5.7925,0.7525,-26.5387,9.74990508760036,0.9366502944491174,8.099618777129471,24.75198573575832
0.0123,0.9551,0.1617,-0.1486,0.1682,0.0505,-5.7663,1.1638,-25.6637,9.643533406331072,0.7433697070961931,8.15657436766272,24.76380406203869
0.0093,0.9539,0.1618,-0.1465,0.1682,0.0479,-4.9525,1.05,-24.815,9.63193832528328,0.5663657019649707,8.104189902706967,24.77585066431855
0.0062,0.9567,0.1638,-0.1442,0.1693,0.0518,-5.1275,1.155,-24.4825,9.691392736373023,0.38270766487020935,8.238349177908939,24.78512468647442
0.009,0.9559,0.1659,-0.1442,0.1693,0.0518,-4.6375,2.1088,-24.5,9.793739229069695,0.5190900783741285,8.542011957579728,24.79716456434499
0.0013,0.9561,0.1657,-0.1448,0.1699,0.0522,-4.69,2.2313,-23.7475,9.819432732626007,0.11609579400212622,8.695230976514182,24.809246558252674
-0.0001,0.9564,0.1707,-0.1448,0.1699,0.0522,-5.2325,2.1875,-22.4088,10.035353310597138,0.006417104964271196,8.564768521091095,24.8213653594533
-0.0047,0.9511,0.1743,-0.1413,0.1706,0.0503,-4.6988,2.5813,-22.1112,10.269382642112943,-0.2488438882971322,7.9084713415393715,24.833494070309715
-0.003,0.9488,0.166,-0.1432,0.1694,0.0523,-3.9638,2.625,-21.8487,10.074677231367614,-0.1859832676425932,8.48225152278199,24.845619949835907
-0.004,0.9508,0.1662,-0.1432,0.1694,0.0523,-3.6138,2.275,-21.5075,9.997316058605811,-0.23172649848080773,8.677836463951246,24.85490742081035
-0.0041,0.9661,0.1646,-0.1388,0.1708,0.0515,-2.8963,2.8788,-21.14,9.937256813112384,-0.23877700759112064,8.88450162292815,24.866438367072764
-0.0076,0.9704,0.1674,-0.1388,0.1708,0.0515,-3.0013,3.1412,-20.7112,9.900207505580045,-0.4174101422335891,8.83120591019717,24.878642108180173
-0.0091,0.972,0.1667,-0.1388,0.1705,0.0498,-3.1675,3.535,-20.3175,9.844399178090677,-0.5144396786886275,8.384666033471438,24.890814350738818
-0.013,0.9689,0.1655,-0.1388,0.1705,0.0498,-3.185,3.955,-19.5562,9.79318655396035,-0.7232423462677977,8.259782949519561,24.902755485967752
-0.0184,0.9623,0.1676,-0.1378,0.1717,0.047,-2.5813,4.2438,-19.4162,9.800427620854926,-1.0276882735663568,7.1456196271922625,24.915043105233114
-0.0242,0.9579,0.1609,-0.1375,0.1739,0.0514,-2.205,3.4738,-19.2675,9.715895038232796,-1.3681482617517184,8.303468581678047,24.927246846340523
-0.0247,0.9636,0.1604,-0.1375,0.1739,0.0514,-2.205,4.0425,-18.9875,9.631435819375076,-1.436044122537901,8.727230315624203,24.939468991094405
-0.0207,0.9677,0.1624,-0.1375,0.1742,0.0518,-1.8112,3.08,-18.2612,9.582943867118907,-1.2480359078702017,8.879976655312268,24.94798740199616
-0.0239,0.9725,0.1605,-0.1375,0.1742,0.0518,-2.065,3.3338,-17.885,9.503054309973185,-1.3628319428042153,9.041703861887926,24.960198575345412
-0.0182,0.9736,0.1652,-0.1384,0.1726,0.0596,-2.0738,3.325,-17.185,9.55066599805259,-1.1214059572631665,11.057301569084178,24.972445140322495
-0.0176,0.9725,0.161,-0.1374,0.1715,0.0499,-2.8175,2.975,-17.5963,9.531605783270837,-1.0422287283573615,9.405747307670943,24.98472143426695
-0.0164,0.9649,0.1668,-0.1374,0.1715,0.0499,-4.55,2.9838,-16.4762,9.711725756028091,-0.9803264856164692,8.527225125078898,24.997344920080398
-0.0157,0.9618,0.1653,-0.1358,0.1735,0.0517,-3.7362,3.15,-17.0275,9.732424442156503,-0.9346384055783541,8.74141108588042,25.009489911085613
-0.0142,0.961,0.1618,-0.1358,0.1735,0.0517,-3.5175,3.1238,-17.2287,9.652098544967862,-0.8559311590303335,8.988727606711176,25.02164374999779
-0.0127,0.9607,0.1612,-0.1366,0.1731,0.0532,-4.0862,3.255,-17.465,9.577757787377609,-0.768901365968835,9.504760436073878,25.030828231335253
-0.0115,0.9623,0.1703,-0.133,0.1762,0.0522,-4.2,3.4125,-17.8237,9.854598736941046,-0.6920027702202999,8.938121811626646,25.0430248941171
-0.0094,0.9556,0.1653,-0.133,0.1762,0.0522,-3.885,3.6312,-18.9088,9.832309177261875,-0.5766719860264732,9.000843908170765,25.055071496396955
-0.017,0.9547,0.1646,-0.1323,0.1762,0.0498,-3.5613,4.4538,-19.6963,9.808731645207526,-0.9457246815902275,8.254786762034248,25.067210116909166
-0.0198,0.9622,0.1705,-0.1323,0.1762,0.0498,-3.675,4.3925,-20.7112,9.928718283457894,-1.134581048508171,7.796277819833875,25.079506230165205
-0.0277,0.9641,0.1688,-0.1336,0.1742,0.0482,-3.85,4.8038,-20.9475,9.929953608829997,-1.5634832239968355,7.297667778422048,25.09151071640795
-0.0314,0.9631,0.1695,-0.1306,0.1751,0.0512,-4.5763,4.8213,-20.4487,9.963753039968182,-1.8044241191300123,8.15363335586824,25.103813200157
-0.0314,0.9659,0.1671,-0.1306,0.1751,0.0512,-3.7888,4.0425,-19.5125,9.885277232614847,-1.8303918826254113,8.485303278033166,25.11570549493953
-0.0376,0.958,0.1677,-0.1318,0.1758,0.05,-3.9375,4.1038,-19.2062,9.909778966167964,-2.1567636699182637,7.945442630347145,25.124977393597725
-0.0442,0.9582,0.1706,-0.1318,0.1758,0.05,-4.3575,4.0163,-19.0575,10.02619448432776,-2.5325882045506254,7.60701767263875,25.137119907188996
-0.0419,0.9575,0.1734,-0.131,0.1776,0.0498,-3.8588,3.57,-18.41,10.155677774883397,-2.4769384448291714,7.260837272380955,25.149188806194385
-0.0431,0.9572,0.1692,-0.1302,0.1778,0.0514,-3.6488,2.835,-18.0163,10.090808969200786,-2.5275959968007564,7.80636937524695,25.16134476860423
-0.0461,0.9568,0.1741,-0.1302,0.1778,0.0514,-3.2025,2.7562,-17.5525,10.167696464299192,-2.6770602684168785,7.732048348331012,25.17345012098628
-0.0415,0.9597,0.1718,-0.1292,0.1749,0.0502,-3.5175,2.2662,-17.3162,10.159251846192232,-2.4871724675085978,7.737492126358931,25.185628380121656
-0.0441,0.9618,0.1708,-0.1292,0.1749,0.0502,-2.87,2.1613,-17.3425,10.144498105866335,-2.5646883521063035,7.782197573491299,25.197695155629376
-0.0461,0.9654,0.1767,-0.129,0.1778,0.0474,-2.3888,2.0563,-17.2987,10.194813517147539,-2.663330877314612,6.886518517636681,25.20696351512479
-0.045,0.9643,0.1748,-0.1282,0.1769,0.0464,-2.3975,1.9775,-16.0562,10.212001551381507,-2.638690342613916,6.390336986474537,25.2190858554882
-0.048,0.9632,0.1747,-0.1282,0.1769,0.0464,-2.6688,1.7062,-15.4962,10.212249044383572,-2.750903495260073,6.16866682145942,25.231196870530702
-0.0491,0.9589,0.176,-0.1303,0.1777,0.0507,-2.3625,1.6975,-15.05,10.256794051493973,-2.831246482443731,6.636519708107764,25.243355310354495
-0.054,0.9561,0.1759,-0.1303,0.1777,0.0507,-1.9687,1.5487,-14.2975,10.32607017869829,-2.985425792236782,6.842893489685323,25.255456769657485
-0.0517,0.9564,0.1682,-0.129,0.1791,0.0462,-2.345,1.225,-12.9587,10.23934438935292,-3.0073041471617383,6.6594719625763625,25.267599283248753
-0.0496,0.9604,0.1636,-0.129,0.1791,0.0462,-0.7525,1.0587,-12.9325,9.863205971072468,-2.9736168437842596,6.635263732421503,25.279797361695714
-0.045,0.9638,0.168,-0.1307,0.177,0.0498,-0.5425,1.4088,-11.935,9.87999878249466,-2.766006535472688,6.948872369646987,25.29180538710124
-0.0436,0.9714,0.1635,-0.1301,0.1773,0.0499,-0.7962,1.5925,-11.5237,9.667419820091535,-2.6120996457279158,7.41457585616688,25.301102413815194
-0.0386,0.9793,0.1615,-0.1301,0.1773,0.0499,-1.505,2.0738,-10.395,9.504298168142823,-2.3208661730726137,7.963186714936678,25.31351425769423
-0.0422,0.9811,0.156,-0.1299,0.1776,0.0487,-1.9862,2.4063,-8.6887,9.313185524022302,-2.413234038402348,8.196026050769307,25.325276311286355
-0.0471,0.983,0.1599,-0.1299,0.1776,0.0487,-3.2288,2.835,-6.2125,9.286706763417428,-2.6721517559179704,8.095221837069849,25.337352996449866
-0.0476,0.9823,0.1629,-0.1314,0.1785,0.0461,-3.465,3.3688,-3.78,9.343858459799842,-2.7308889184884357,7.060336713110644,25.34944136085056
-0.0537,0.9769,0.1625,-0.1347,0.1736,0.0478,-3.5525,3.6925,-1.4962,9.390852197156406,-3.0751360157094245,7.291294595041191,25.361427089530554
-0.0578,0.973,0.1668,-0.1347,0.1736,0.0478,-4.9263,3.6925,0.735,9.624093350979583,-3.332738323549618,7.073483273099659,25.370673152300437
-0.0618,0.9677,0.1674,-0.1352,0.1735,0.0487,-4.2962,3.2288,2.4237,9.741822045755034,-3.584934442465278,7.146531898400598,25.38266525147344
-0.0603,0.9654,0.167,-0.1352,0.1735,0.0487,-4.2088,2.9313,4.3137,9.785665743905732,-3.525292875119963,7.175573051004471,25.394711499837022
-0.0562,0.9617,0.1652,-0.1405,0.1714,0.0498,-4.1825,2.8525,6.1163,9.762458538587264,-3.3073930937737,7.44996245044619,25.406686964944946
-0.0508,0.9607,0.1627,-0.1405,0.1714,0.051,-4.305,2.2662,8.3212,9.669253097012717,-2.9986046556531303,7.8986190559133025,25.415796062115138
-0.0397,0.9622,0.1704,-0.143,0.1697,0.051,-3.9813,1.3737,10.2375,9.880912365001365,-2.3536683960587808,7.878053321023482,25.427910262404147
-0.0356,0.9568,0.1638,-0.1474,0.1676,0.0492,-3.6488,1.2425,11.865,9.79875763831122,-2.109922514639966,7.793834514798477,25.439986239735102
-0.0404,0.9679,0.1668,-0.1474,0.1676,0.0492,-4.3313,1.8725,12.6525,9.785711917737771,-2.346407599641175,7.6005395541452305,25.45207566588463
-0.0447,0.9795,0.1732,-0.1532,0.1645,0.0506,-4.7425,1.4962,14.595,9.948855583354993,-2.565259937422884,7.568611329165502,25.464131469987723
-0.0407,0.9783,0.174,-0.1532,0.1645,0.0506,-5.4513,0.4375,19.9237,10.049074834925538,-2.3519046209073577,7.537724818684763,25.47621452564424
-0.0334,0.9708,0.1689,-0.1596,0.1631,0.0478,-5.5738,-0.21,22.995,9.915560737725166,-1.9522723785377714,7.0352740386937365,25.485489963465223
-0.0314,0.9675,0.1728,-0.1653,0.1597,0.0494,-4.5675,-0.9187,26.0225,10.0536489003422,-1.8329505809178206,6.929073436939623,25.49766609910293
-0.0156,0.9618,0.1796,-0.1653,0.1597,0.0494,-4.6638,-1.505,28.3062,10.40218394582635,-0.9349254716346631,6.65091708251486,25.509663860936385
