AcclX,AcclY,AcclZ,MagX,MagY,MagZ,GyroX,GyroY,GyroZ,Roll,Pitch,Yaw,Time(s)
-0.1978,0.9684,0.0792,-0.6914,0.0421,0.0685,-3.15,1.2425,-14.49,0,0,0,1.6216220903215577
-0.1949,0.9448,0.0715,-0.6914,0.0416,0.0724,-2.7213,0.8925,-14.6037,0,0,0,1.6309760975563141
-0.1977,0.9709,0.0778,-0.6914,0.0416,0.0724,-3.325,1.2163,-15.0325,0,0,0,1.643136660877776
-0.197,0.9679,0.0825,-0.6908,0.0424,0.0703,-3.15,0.8575,-14.7875,0,0,0,1.6552653717341932
-0.1993,0.9684,0.0826,-0.6908,0.0424,0.0703,-2.8875,1.2075,-14.5338,0,0,0,1.6672712736420496
-0.1995,0.9662,0.0838,-0.6934,0.0432,0.0666,-2.9313,1.1812,-14.595,0,0,0,1.6794056471589194
-0.1997,0.9659,0.0836,-0.6933,0.0422,0.0702,-3.4475,0.9887,-14.3238,0,0,0,1.691521970945597
-0.1986,0.9662,0.0798,-0.6933,0.0422,0.0702,-2.5638,1.3825,-14.9625,0,0,0,1.7036528052996838
-0.1961,0.9696,0.0825,-0.6907,0.043,0.0688,-2.7825,1.3212,-14.9713,0,0,0,1.7156498593005836
-0.1999,0.9685,0.0784,-0.6907,0.043,0.0688,-2.8,1.2425,-14.595,0,0,0,1.7250746497909948
-0.202,0.967,0.0822,-0.6923,0.0421,0.0673,-3.4125,1.085,-14.1662,0,0,0,1.7372072537264729
-0.198,0.9669,0.0846,-0.6923,0.0416,0.0697,-2.5463,1.1462,-14.5162,0,0,0,1.7493257010108203
-0.1982,0.9673,0.0856,-0.6921,0.0416,0.0697,-2.6075,1.1287,-14.14,0,0,0,1.7614278681463669
-0.2007,0.9545,0.0852,-0.6922,0.0414,0.0681,-2.5988,1.1725,-13.9387,0,0,0,1.773513401216835
-0.1988,0.9681,0.0797,-0.6922,0.0414,0.0681,-2.2925,1.2862,-14.175,0,0,0,1.7856541452267134
-0.1996,0.9686,0.0818,-0.6909,0.041,0.0718,-2.7562,0.9887,-14.4987,0,0,0,1.7977531271157556
-0.1995,0.9673,0.0818,-0.6909,0.041,0.0718,-2.4675,0.735,-14.7875,0,0,0,1.8071099656807383
-0.1994,0.9679,0.0818,-0.6922,0.0413,0.0646,-2.905,0.6388,-14.385,0,0,0,1.8191841734303016
-0.1995,0.966,0.0779,-0.6949,0.0425,0.0686,-2.7913,1.2425,-14.2012,0,0,0,1.8313125303704405
-0.1992,0.9679,0.0764,-0.6949,0.0425,0.0686,-2.7037,0.9363,-14.0612,0,0,0,1.8433994791060215
-0.1968,0.9692,0.0837,-0.6923,0.0402,0.069,-2.6775,0.8838,-14.3062,0,0,0,1.8555593345949268
-0.1988,0.968,0.0841,-0.6923,0.0402,0.069,-2.7125,1.0325,-14.665,0,0,0,1.8675783314050793
-0.1959,0.9679,0.0822,-0.6916,0.0428,0.0661,-2.6338,0.9013,-14.735,0,0,0,1.879710227508001
-0.1999,0.9684,0.0798,-0.6914,0.043,0.0686,-2.8263,1.4175,-14.455,0,0,0,1.8917854970063992
-0.1965,0.9667,0.0814,-0.6914,0.043,0.0686,-2.4325,1.1725,-14.1662,0,0,0,1.9012014395898535
-0.1974,0.9706,0.0818,-0.6917,0.0432,0.0688,-2.3275,1.0412,-13.7725,0,0,0,1.913349969757854
-0.2,0.9694,0.0803,-0.6917,0.0432,0.0688,-3.0188,1.26,-14.56,0,0,0,1.9253831232191374
-0.1961,0.965,0.0844,-0.6921,0.0417,0.0669,-2.1963,1.2862,-14.5425,0,0,0,1.9375075870802154
-0.199,0.9658,0.0829,-0.6929,0.0414,0.0685,-2.66,1.1287,-14.63,0,0,0,1.9496026758901968
-0.1989,0.9687,0.0846,-0.6929,0.0414,0.0685,-2.625,1.155,-14.735,0,0,0,1.9617306789140574
-0.1959,0.9687,0.0879,-0.6929,0.0417,0.0679,-2.5463,1.0412,-14.5425,0,0,0,1.973796392672942
-0.1999,0.9672,0.0797,-0.6929,0.0417,0.0679,-2.8263,0.9887,-14.5425,0,0,0,1.9832459573028323
-0.1998,0.9675,0.0819,-0.6924,0.0424,0.0694,-2.3538,1.33,-14.5862,0,0,0,1.9952868969222377
-0.1985,0.9675,0.0817,-0.694,0.0427,0.0705,-3.0013,0.9975,-14.4462,0,0,0,2.0074187930251597
-0.1997,0.9681,0.081,-0.694,0.0427,0.0705,-2.695,0.8925,-14.0175,0,0,0,2.0197779033787326
-0.1997,0.9685,0.0843,-0.693,0.0418,0.0692,-2.7037,1.2425,-14.49,0,0,0,2.0315721633521817
-0.2006,0.9693,0.0801,-0.693,0.0418,0.0692,-3.3163,1.0762,-14.2625,0,0,0,2.043699812459764
-0.2009,0.9689,0.0813,-0.6929,0.0419,0.069,-3.4825,0.9538,-14.7788,0,0,0,2.055820383241781
-0.1956,0.9673,0.0836,-0.693,0.0427,0.0725,-2.59,0.6563,-14.525,0,0,0,2.0679391844424067
-0.197,0.9678,0.0781,-0.693,0.0427,0.0725,-2.8525,0.7875,-14.3587,0,0,0,2.077268417537684
-0.1948,0.9673,0.0848,-0.6914,0.0415,0.0684,-2.625,0.9625,-14.385,0,0,0,2.089395004896432
-0.1987,0.9689,0.0806,-0.6914,0.0415,0.0684,-3.0188,1.2512,-14.3238,0,0,0,2.1014677969808817
-0.1984,0.9696,0.0773,-0.6926,0.0429,0.0674,-2.4237,1.0675,-14.2712,0,0,0,2.1136294220511784
-0.1978,0.9678,0.082,-0.6926,0.0434,0.069,-2.695,1.085,-14.455,0,0,0,2.1256919505635583
-0.196,0.968,0.0876,-0.6922,0.0434,0.069,-3.0975,1.26,-14.3675,0,0,0,2.137797656861888
-0.1976,0.9673,0.0845,-0.6925,0.041,0.0686,-3.1412,0.8312,-14.5162,0,0,0,2.149912918899731
-0.1986,0.9692,0.0795,-0.6925,0.041,0.0686,-2.73,0.7437,-14.5513,0,0,0,2.159282144534453
-0.1972,0.9679,0.0758,-0.6922,0.0404,0.0674,-2.6513,1.2687,-14.5687,0,0,0,2.1714175798001576
-0.1987,0.9701,0.0798,-0.6922,0.0404,0.0674,-2.4325,1.0587,-14.5162,0,0,0,2.183730327121277
-0.1975,0.9709,0.0827,-0.6918,0.0427,0.0664,-2.7825,1.1025,-14.28,0,0,0,2.1955652874667275
-0.1971,0.9677,0.0825,-0.6925,0.0411,0.0686,-3.1937,0.98,-14.5338,0,0,0,2.2076692241836655
-0.199,0.9673,0.0811,-0.6925,0.0411,0.0686,-3.0275,1.155,-14.6825,0,0,0,2.219837219746971
-0.1952,0.9668,0.0864,-0.6922,0.0426,0.0687,-2.625,1.0762,-14.175,0,0,0,2.231900456091908
-0.1989,0.9683,0.0781,-0.6922,0.0426,0.0687,-2.6863,1.26,-14.77,0,0,0,2.2412976411126135
-0.2003,0.9696,0.0819,-0.6912,0.0446,0.066,-3.0625,1.2775,-14.3238,0,0,0,2.2534079483225606
-0.2016,0.969,0.0823,-0.6892,0.0427,0.0696,-3.0188,1.435,-14.7525,0,0,0,2.265514362453447
-0.1963,0.9673,0.0761,-0.6892,0.0427,0.0696,-3.465,1.7587,-14.6212,0,0,0,2.2776101590959845
-0.1987,0.9672,0.0802,-0.693,0.0394,0.0683,-2.7213,1.4875,-14.1575,0,0,0,2.289669148445582
-0.1958,0.9695,0.0784,-0.693,0.0394,0.0683,-2.73,1.2337,-14.2712,0,0,0,2.3018084767903475
-0.1997,0.9664,0.0783,-0.6945,0.0438,0.0674,-2.7825,1.2163,-14.3937,0,0,0,2.3139216153305204
-0.1993,0.9665,0.0802,-0.6921,0.0422,0.0677,-2.5638,1.0412,-14.0525,0,0,0,2.3260602358427294
-0.1982,0.968,0.0825,-0.6921,0.0422,0.0677,-2.3712,0.8575,-14.385,0,0,0,2.335337797161379
-0.1992,0.9678,0.0794,-0.6922,0.0441,0.0694,-2.485,0.5163,-14.5687,0,0,0,2.347751410621806
-0.2001,0.9678,0.0817,-0.6922,0.0441,0.0694,-2.695,0.3763,-14.2537,0,0,0,2.359610083357901
-0.1989,0.9674,0.0839,-0.6915,0.0419,0.0662,-2.73,0.8838,-14.6562,0,0,0,2.3716867685214122
-0.2004,0.9666,0.079,-0.6972,0.0408,0.0723,-2.8263,1.12,-14.1837,0,0,0,2.3838363604382473
-0.1987,0.9679,0.0811,-0.6972,0.0408,0.0723,-3.2288,1.2512,-14.5075,0,0,0,2.395890394959949
-0.2022,0.9708,0.0847,-0.6946,0.041,0.0684,-2.9925,1.7762,-14.7613,0,0,0,2.408007072662905
-0.199,0.9665,0.0792,-0.6946,0.041,0.0684,-2.66,1.33,-14.8225,0,0,0,2.4173791296278533
-0.1995,0.9676,0.0791,-0.6936,0.0432,0.0623,-2.065,1.2075,-15.1287,0,0,0,2.4295060709028795
-0.198,0.9706,0.0837,-0.6922,0.0429,0.0679,-2.38,0.9975,-15.3912,0,0,0,2.4416627411452803
-0.1965,0.9665,0.082,-0.6922,0.0429,0.0679,-2.73,0.8487,-14.8662,0,0,0,2.453718191332095
-0.2023,0.9666,0.0807,-0.693,0.042,0.0688,-3.08,0.7437,-15.0062,0,0,0,2.46576125444917
-0.1997,0.9676,0.0816,-0.693,0.042,0.0688,-2.66,1.225,-14.455,0,0,0,2.477916862942736
-0.2003,0.9682,0.0818,-0.6918,0.0391,0.0702,-3.1675,0.9975,-14.5162,0,0,0,2.4901404233617304
-0.1995,0.9692,0.0841,-0.6918,0.0596,0.0702,-3.1063,1.0237,-14.665,0,0,0,2.5020514757070096
-0.1986,0.9639,0.0814,-0.6924,0.0417,0.0702,-2.0563,0.5425,-14.5425,0,0,0,2.5115371397972837
-0.2001,0.9673,0.0798,-0.6934,0.0415,0.0684,-2.3975,1.1375,-14.5513,0,0,0,2.5239203164577795
-0.1978,0.9668,0.0845,-0.6934,0.0415,0.0684,-2.9575,1.155,-14.525,0,0,0,2.5356572419941483
-0.1966,0.9689,0.0842,-0.6918,0.0406,0.0611,-3.2288,1.1462,-14.3762,0,0,0,2.547768257036652
-0.1979,0.9686,0.0791,-0.6918,0.0406,0.0611,-3.2113,1.3037,-14.6387,0,0,0,2.5598895356512252
-0.1957,0.9659,0.0867,-0.6916,0.0426,0.0662,-2.4938,1.19,-14.6737,0,0,0,2.572065317372653
-0.1982,0.967,0.0786,-0.6933,0.0415,0.0686,-2.8788,0.8487,-13.9038,0,0,0,2.58399937427602
-0.1968,0.9692,0.0858,-0.6933,0.0415,0.0686,-2.4063,1.0237,-13.965,0,0,0,2.592829231502654
-0.1972,0.9669,0.0808,-0.6934,0.0439,0.0689,-2.6338,1.0762,-14.5862,0,0,0,2.6052163012422107
-0.2023,0.97,0.0831,-0.6934,0.0439,0.0689,-2.6163,1.295,-14.2275,0,0,0,2.617377218479951
-0.1976,0.967,0.0789,-0.6919,0.0434,0.0631,-3.0975,1.1112,-14.0,0,0,0,2.6295391974665256
-0.1962,0.9692,0.0828,-0.6934,0.0427,0.0685,-3.0538,1.295,-14.5513,0,0,0,2.641722411429797
-0.2023,0.9687,0.0808,-0.6934,0.0427,0.0685,-2.4588,0.6825,-14.7613,0,0,0,2.6538252863979004
-0.1994,0.9669,0.0828,-0.692,0.0411,0.0694,-2.8,0.77,-14.6562,0,0,0,2.666078929700548
-0.1972,0.9659,0.0803,-0.692,0.0411,0.0694,-2.94,0.9013,-14.6212,0,0,0,2.6781573844454503
-0.1994,0.9659,0.0811,-0.6914,0.0425,0.0614,-2.9925,0.9275,-14.4375,0,0,0,2.6871971140251003
-0.1984,0.9681,0.0829,-0.6928,0.0425,0.0674,-2.4763,0.875,-14.5513,0,0,0,2.699328656211744
-0.1968,0.9705,0.0809,-0.6928,0.0425,0.0674,-2.9488,1.2075,-14.6562,0,0,0,2.7115139936726846
-0.1988,0.9686,0.0842,-0.6918,0.042,0.0675,-2.8,0.6212,-14.4375,0,0,0,2.7236826970685466
-0.1966,0.9665,0.0792,-0.6918,0.042,0.0675,-2.5375,1.155,-14.4025,0,0,0,2.735996506138501
-0.2003,0.9698,0.0799,-0.692,0.0457,0.0681,-2.2313,1.0937,-14.3675,0,0,0,2.7480101942044795
-0.1967,0.967,0.083,-0.6922,0.0417,0.0722,-2.5288,1.1812,-14.1138,0,0,0,2.760128995405105
-0.1977,0.9703,0.0822,-0.6922,0.0417,0.0722,-2.9488,1.1025,-14.1662,0,0,0,2.7692741920356805
-0.1986,0.9697,0.0812,-0.6919,0.042,0.0698,-2.7213,0.8663,-14.4725,0,0,0,2.781292127096998
-0.1972,0.9644,0.0826,-0.6919,0.042,0.0698,-2.9925,1.015,-14.3587,1.394172445500836,-4.957212599289031,0.02346424439779538,14.054843574313749
-0.1983,0.9686,0.0817,-0.691,0.0417,0.0694,-2.7913,1.0412,-14.2625,1.9582123981106765,-7.569849736576781,0.1844400602074702,14.059583928944937
-0.1974,0.9692,0.0827,-0.6946,0.0419,0.0666,-2.8438,0.875,-14.3937,2.54105520771593,-9.292902538316342,0.7836069303170807,14.064022746907037
-0.1994,0.9694,0.0817,-0.6946,0.0419,0.0666,-2.625,0.8487,-14.0787,2.6088523107373702,-10.031421009027499,1.3999446784483012,14.068773719026575
-0.1972,0.9713,0.0805,-0.6944,0.0426,0.068,-2.7738,1.1725,-14.5775,2.9328326220790624,-10.72589418368334,1.9456900453289085,14.073188470681753
-0.1979,0.9697,0.0798,-0.6944,0.0426,0.068,-3.1588,0.9975,-14.2187,3.572069028019397,-11.019759604824962,1.9896730678989853,14.077538809574285
-0.1973,0.9667,0.0804,-0.6918,0.0407,0.0682,-3.1675,1.085,-14.5775,4.002824890409506,-11.25522133979759,2.2234724641204484,14.081416316319045
-0.1981,0.9684,0.0824,-0.6918,0.0612,0.066,-3.4213,1.19,-14.595,4.392419297992386,-11.387415281628138,2.6469289022313562,14.083382321244851
-0.1986,0.967,0.0809,-0.6908,0.043,0.066,-3.01,0.945,-14.3587,4.506894139139364,-11.464536650318768,2.8028549265224947,14.085162874040844
-0.2001,0.9667,0.0788,-0.6925,0.0409,0.0684,-2.9138,0.77,-14.4375,4.5439978510824846,-11.552123883407683,3.304400248199509,14.086847515525422
-0.1983,0.9682,0.0825,-0.6925,0.0409,0.0684,-3.115,1.1462,-14.7262,4.655756604905641,-11.542628220804996,3.5511386520623627,14.088503135875184
-0.1976,0.9669,0.0844,-0.692,0.0424,0.0661,-2.94,1.2862,-14.5075,4.741277012614848,-11.52598746152401,3.899791386844996,14.090290059164184
-0.2014,0.9668,0.0812,-0.692,0.0424,0.0661,-3.1675,0.8225,-14.2975,4.763005941617398,-11.608468537182311,4.102762575462902,14.092058932722994
-0.1982,0.9668,0.0831,-0.6922,0.043,0.0694,-2.45,1.1987,-14.35,4.781884128185426,-11.580920493857862,4.313681642078691,14.09374003504479
-0.1987,0.9686,0.079,-0.6937,0.0409,0.0681,-2.0738,1.0675,-14.2187,4.741112403650351,-11.571258025771698,4.369534852046009,14.09540414938523
-0.1981,0.9678,0.0808,-0.6937,0.0409,0.0681,-3.08,1.0237,-14.5425,4.7513606223333715,-11.550837606835938,4.382053490973646,14.097071095055895
-0.2,0.9672,0.0804,-0.6934,0.0414,0.0691,-3.0363,0.9625,-14.3675,4.751518421535818,-11.59122511243317,4.4301509608515675,14.098731316317275
-0.2012,0.969,0.0798,-0.6934,0.0414,0.0691,-3.2725,0.8225,-14.385,4.733871941203761,-11.635255446019006,4.5887857789418645,14.100403924648393
-0.1968,0.9684,0.085,-0.6927,0.0429,0.0709,-3.7362,0.91,-15.0237,4.884389941055482,-11.523287318294397,4.676442727324785,14.102082549556242
-0.1958,0.9682,0.0809,-0.6921,0.0415,0.0689,-3.395,1.0412,-14.77,4.83636000534558,-11.453724080760747,4.698328197986456,14.103737462073447
-0.1989,0.9679,0.0835,-0.6921,0.0415,0.0689,-2.975,1.0937,-14.3413,4.862359994039189,-11.50337461029253,4.752665038785373,14.105430597548706
-0.1989,0.9675,0.0781,-0.692,0.0426,0.0671,-2.9488,1.05,-14.21,4.797649971017165,-11.532490420197187,4.772347528241829,14.107115592949564
-0.1995,0.9689,0.0802,-0.692,0.0426,0.0671,-3.045,1.3125,-14.735,4.777201192613986,-11.566332126292568,4.8865842113374045,14.108766966303985
-0.1972,0.9683,0.0814,-0.6914,0.0438,0.0666,-3.255,1.1112,-14.385,4.788365497130444,-11.524849958068751,4.916266920434693,14.11043001889559
-0.197,0.9682,0.0828,-0.6921,0.0411,0.0693,-2.8788,1.0587,-14.245,4.810436259250819,-11.49959775451229,4.94049354352049,14.112074313924447
-0.1978,0.9667,0.0808,-0.6921,0.0411,0.0693,-2.7475,1.0412,-14.1225,4.806109456375191,-11.508207107963448,4.955681812023443,14.113422734944667
-0.1964,0.967,0.0794,-0.6931,0.0409,0.0698,-3.2288,1.1812,-14.7,4.762591305875218,-11.474227398392651,5.03400554118654,14.114661441918622
-0.1989,0.9687,0.0779,-0.6931,0.0409,0.0698,-2.8438,1.1725,-14.5513,4.729658946467933,-11.519270616923679,5.099123323126266,14.115863341599638
-0.1977,0.9701,0.0817,-0.6935,0.0411,0.0696,-2.9225,1.155,-14.3325,4.75049539481862,-11.502372417487672,5.145184589494598,14.117068072610879
-0.199,0.9673,0.0841,-0.693,0.041,0.0667,-3.3775,1.2337,-14.3413,4.8464532331559225,-11.536452874359203,5.159131206800746,14.118274573203513
-0.201,0.9669,0.0785,-0.693,0.041,0.0667,-3.3338,1.2075,-14.6125,4.759327313895702,-11.62163051061712,5.173362724899432,14.119471518056631
-0.1975,0.9692,0.0825,-0.6934,0.0422,0.0682,-2.3013,1.2337,-14.9362,4.783361492233631,-11.539227279564463,5.203272498677752,14.12066456983069
-0.1972,0.9682,0.0788,-0.6934,0.0422,0.0682,-2.3538,1.2075,-14.7875,4.758076253503915,-11.504629751278053,5.227782108643741,14.121880980079116
-0.2,0.9683,0.0843,-0.6945,0.043,0.068,-2.4063,1.0587,-14.6212,4.7925017895534445,-11.566581572575975,5.231083669646684,14.123084295425244
-0.1979,0.9686,0.0833,-0.6911,0.0425,0.073,-2.7388,0.91,-14.7962,4.808013900081188,-11.533702602457044,5.277970373286989,14.124276639366744
-0.1988,0.9678,0.082,-0.6911,0.0425,0.073,-3.4738,0.7875,-14.6737,4.824387312175504,-11.55122257280032,5.364028781776234,14.12546615197802
-0.1989,0.9677,0.0841,-0.6922,0.0398,0.0693,-3.1675,1.0762,-14.7962,4.876323081200148,-11.562700317187762,5.369420052980872,14.126652125426514
-0.1977,0.9676,0.0775,-0.6922,0.0398,0.0693,-2.275,0.875,-14.7788,4.804444664326608,-11.535219999782006,5.3822786044361814,14.127849070279634
-0.1968,0.9686,0.0831,-0.6922,0.0393,0.0666,-2.7475,0.6563,-14.6475,4.817619975828339,-11.488656433261886,5.344194102922093,14.129044953383918
-0.197,0.9679,0.082,-0.6922,0.0393,0.0689,-2.9313,1.295,-13.965,4.823892657256936,-11.482230377051618,5.363218870694705,14.130246499148654
-0.1964,0.9679,0.0846,-0.6942,0.041,0.0689,-3.36,1.19,-14.2275,4.898216739454592,-11.46135494861872,5.367192130324073,14.13145052232734
-0.1993,0.9672,0.081,-0.6925,0.0441,0.0683,-3.2113,1.1025,-14.6037,4.855845814044309,-11.532615863623562,5.365197115102273,14.132750810733715
-0.1971,0.9692,0.0838,-0.6925,0.0441,0.0683,-2.7913,1.0587,-14.385,4.869971827958649,-11.497902785887248,5.36359971096167,14.133976776721653
-0.1982,0.9676,0.0816,-0.6922,0.0425,0.0656,-2.9313,0.9538,-14.49,4.857497843467966,-11.515953941289922,5.351246108553969,14.135187878225903
-0.1984,0.9684,0.0814,-0.6922,0.0425,0.0656,-3.4125,1.3387,-14.3325,4.833769793516419,-11.525509410828064,5.297903201546363,14.136384823079023
-0.1972,0.969,0.0835,-0.6918,0.0407,0.0714,-3.5263,1.0325,-14.0175,4.877820837878326,-11.506823382892001,5.304795484192611,14.137577874853081
-0.1961,0.9678,0.0798,-0.6903,0.0404,0.0695,-2.7738,0.9713,-13.7025,4.852839190847587,-11.498657150513777,5.3119301573017665,14.138779774534097
-0.2002,0.9684,0.0822,-0.6903,0.0404,0.0695,-2.5988,1.0762,-14.1575,4.8528343880076665,-11.548964122446195,5.322658071254685,14.139971056726763
-0.1976,0.9659,0.0836,-0.6902,0.0418,0.0689,-3.2725,1.3825,-14.63,4.890768601394719,-11.534238520142754,5.348374899430943,14.141161631086874
-0.1968,0.9679,0.0816,-0.6902,0.0418,0.0689,-2.7825,0.9625,-14.8837,4.879400576392638,-11.488922038786448,5.351931110407758,14.142364946433002
-0.1957,0.9686,0.0814,-0.6958,0.0432,0.0698,-2.6163,0.98,-14.5162,4.877772994699146,-11.438565273592857,5.354698468645734,14.143643645946403
-0.1981,0.9678,0.0832,-0.691,0.0423,0.0683,-2.625,0.875,-14.4987,4.87883802169046,-11.480243357592807,5.355347916802231,14.144872089348288
-0.1996,0.9669,0.0812,-0.691,0.0423,0.0683,-2.835,0.7525,-15.1112,4.863624821515057,-11.566746382580613,5.358225442734515,14.146073635113025
-0.1983,0.9687,0.0788,-0.6926,0.0406,0.0696,-2.31,0.7525,-14.5338,4.8164570452533875,-11.549978311251332,5.384744089970007,14.147292876691676
-0.1943,0.9682,0.0814,-0.6926,0.0406,0.0696,-2.5113,1.6187,-14.3937,4.815636996607924,-11.443391151521173,5.4184957082094485,14.148489467628517
-0.1977,0.9689,0.0823,-0.6924,0.0418,0.0735,-3.1412,1.0325,-14.63,4.829605100514167,-11.468210453360406,5.426297922556491,14.149738438174543
-0.1994,0.9677,0.0822,-0.6951,0.0418,0.0684,-3.3863,0.7962,-14.56,4.840943273805449,-11.533891670961973,5.412225849031264,14.151116588162138
-0.1987,0.9675,0.0806,-0.6951,0.0418,0.0684,-2.7825,0.875,-14.3937,4.828466695595794,-11.548399498127182,5.405109705900525,14.152337953238458
-0.198,0.9691,0.0786,-0.6938,0.0404,0.067,-3.1325,1.3912,-14.1662,4.761437020255258,-11.534770243976103,5.367085115003501,14.153532774593907
-0.1989,0.9689,0.0787,-0.6938,0.0404,0.067,-2.4413,1.3125,-14.7788,4.745816008946596,-11.550408445632614,5.343964178625744,14.154738567353984
-0.1965,0.9689,0.0895,-0.6913,0.0415,0.0732,-3.1412,1.2687,-14.7613,4.933823383339774,-11.478907265257957,5.425235441237066,14.155943652281504
-0.1979,0.967,0.0797,-0.6927,0.0411,0.0637,-3.1325,1.1987,-15.12,4.856091135418717,-11.50852039822044,5.356898768975709,14.157138473636953
-0.1982,0.966,0.0796,-0.6927,0.0411,0.0637,-2.52,1.365,-14.6912,4.846030100715424,-11.53362568895798,5.261911624735448,14.158327278415673
-0.1956,0.97,0.0878,-0.6933,0.0423,0.0693,-2.7825,1.1987,-14.4025,4.897669528782552,-11.454506473785692,5.284429477869963,14.159541919082706
-0.2131,0.9683,0.0872,-0.6933,0.0423,0.0693,-2.9313,1.05,-14.3675,4.960231109489978,-11.848226050084559,5.28952384467829,14.1607360326056
-0.2805,1.0142,0.1631,-0.6926,0.0416,0.0677,-2.7738,0.6563,-13.6675,5.595685445084328,-12.056267394733773,5.226580590704534,14.161925191300597
-0.2987,0.952,0.1381,-0.6926,0.0414,0.0702,-7.595,-2.6338,-13.7287,7.810935631544184,-12.63694127843006,5.3345598623914,14.163142663297856
-0.2979,0.9354,0.1146,-0.6926,0.0414,0.0702,-5.9763,-7.1663,-16.5287,7.1732925492567094,-16.29277390190801,5.453195380712837,14.164359781378836
-0.3769,0.9437,0.1899,-0.6936,0.0438,0.0676,-5.9588,-9.24,-17.2025,10.414330520351445,-20.275701033233165,4.988231317733967,14.165573360297035
-0.3489,0.9606,0.1366,-0.6936,0.0438,0.0676,-7.7088,-16.6338,-19.9325,8.472942493802742,-19.846096772870364,5.167218977233262,14.166809589857044
-0.3421,0.8999,0.0752,-0.693,0.0403,0.0626,-7.4812,-25.1737,-22.2862,5.404671117499844,-20.65516384771095,5.082240208626043,14.168046173333328
-0.3124,0.9898,0.1328,-0.6909,0.0375,0.0598,-1.4787,-31.0012,-22.1987,6.5842808530014185,-17.712831561200915,4.626517867897745,14.169269661907318
-0.2175,0.8943,0.0283,-0.6909,0.0375,0.0598,-2.9313,-37.7475,-23.0912,5.381531909999252,-14.04891106705844,4.911998802657313,14.170492088732473
0.0173,0.8999,0.0051,-0.6897,0.0355,0.0569,1.75,-37.6162,-21.9275,1.270916868260028,-0.5234255197596601,4.710287830362769,14.171696819743715
-0.0065,1.0504,0.0188,-0.6897,0.0355,0.0569,7.1487,-22.3388,-16.52,1.048223865350346,-0.39761823327020807,4.6635954172688106,14.172908275164245
-0.0072,1.018,0.0468,-0.6902,0.0357,0.0482,2.2925,-11.8125,-8.0675,2.363108224411788,-0.40370200972365367,3.9122882045433616,14.174093894696458
-0.0123,0.9919,-0.0065,-0.6942,0.0371,0.0518,3.5175,-5.9412,-7.5687,0.009615022616382807,-0.666834098197467,4.237946638064938,14.175401615344677
-0.0601,0.9637,-0.0123,-0.6942,0.0371,0.0518,2.9138,3.3425,-9.5987,-0.6174075825220011,-2.9884625649184655,4.281535175633172,14.176609177686146
-0.218,1.0108,0.109,-0.6931,0.0378,0.0511,1.8637,4.6725,-11.9787,4.913957030465728,-8.629349768743323,3.97771207675355,14.17781497044622
-0.3005,1.0113,0.1266,-0.6931,0.0378,0.0511,-0.2538,0.315,-11.5325,6.47045043194809,-13.887776221928391,3.9403510048720474,14.17902253278769
-0.367,0.9415,0.1773,-0.6942,0.0378,0.0521,-1.9512,-3.6488,-11.2613,8.112116368868575,-18.843780509854003,3.827294553098216,14.180243190031453
-0.4106,0.9029,0.2193,-0.6914,0.0372,0.0497,-2.0825,-10.7975,-13.9737,9.98753583957123,-20.195735076109653,3.4975139603684484,14.181473049098452
-0.4324,0.8566,0.2173,-0.6914,0.0372,0.0497,1.295,-19.04,-16.45,13.36577519889775,-24.544552116349063,3.4782545619031526,14.182679903607363
-0.4196,0.8883,0.2238,-0.696,0.0362,0.042,7.5075,-28.805,-15.7325,14.071092978029872,-24.589166164207448,2.822982895538487,14.183948693464972
-0.3187,0.8815,0.1632,-0.696,0.0362,0.042,10.4038,-40.8975,-14.3762,10.744821130734525,-22.400457513241072,2.960939676717661,14.18520120317378
-0.2171,0.9352,0.1082,-0.6954,0.0354,0.0342,13.5975,-50.1987,-14.5075,6.840732334444644,-17.92865899819567,2.5035912875691664,14.186423629998934
-0.1871,0.9715,0.0564,-0.6981,0.0357,0.0213,16.17,-53.165,-13.02,3.5005584405019787,-15.334376409650252,1.6043368783421885,14.18765667431244
-0.2025,0.9526,0.0864,-0.6981,0.0357,0.0213,17.4913,-54.845,-8.1287,5.10273073705963,-12.475650515918169,1.4937677009580228,14.18887379239342
-0.2054,1.0137,0.0666,-0.7006,0.0339,0.0108,22.6625,-59.7975,-6.3525,3.8101047190707216,-11.557119569636107,0.7193936178763107,14.190078169488382
-0.1668,0.873,0.0338,-0.7006,0.0339,0.0108,24.3687,-60.97,-4.0775,2.2741812425662316,-10.880040294447308,0.7809699315064478,14.191320769541399
-0.1657,0.963,0.0461,-0.703,0.0363,-0.0008,24.4037,-59.9113,-4.48,2.7240638912306188,-9.863549374750681,0.19181324518451437,14.192559830431634
-0.1682,0.9817,0.0411,-0.7069,0.0366,-0.0138,25.9088,-61.0662,-3.6925,2.4084274683461477,-9.727750276597753,1.2318539760981373,14.19378579641957
-0.1039,1.022,-0.0228,-0.7069,0.0366,-0.0138,26.8362,-60.0075,-2.5113,-1.1568680098666246,-6.128050802897016,1.0547022782493505,14.19506272635158
-0.1061,0.9582,-0.0215,-0.7085,0.0383,-0.0262,25.5937,-55.09,-2.9663,-1.2809785826160198,-6.300722363518207,2.0305609732317738,14.196425304022931
-0.1078,0.9547,-0.0105,-0.7085,0.0383,-0.0262,25.2525,-49.0,-2.765,-0.6526885208591923,-6.429958306194268,2.083035973858412,14.19773090117348
-0.1049,1.0127,-0.0049,-0.7117,0.0394,-0.038,26.0575,-46.1562,-2.66,-0.28988872625004347,-5.957013060379437,3.01986666851571,14.19898518046368
-0.1421,0.8799,-0.0112,-0.7158,0.0428,-0.0482,30.2838,-43.4525,3.7188,-0.7162932481782219,-8.997546946269821,3.8028815269259395,14.200232381428314
-0.1558,0.9675,0.0051,-0.7158,0.0428,-0.0482,31.8937,-42.6212,4.375,0.2733268480072693,-9.139963121193727,3.881110199997835,14.201502940867314
-0.209,0.965,0.0751,-0.7187,0.0454,-0.061,34.3787,-39.0775,6.685,4.340017012211257,-12.041634235585226,5.138799371895207,14.20276040540402
-0.2586,0.998,0.0788,-0.7187,0.0454,-0.061,38.1937,-42.8838,7.245,4.510411473181197,-14.371933388584303,5.209286016706392,14.203993095801243
-0.3093,1.0403,0.1292,-0.7222,0.049,-0.0709,42.245,-44.5638,13.0462,7.023547552250649,-16.36401062273812,6.1726974735399605,14.20523392627287
-0.2541,0.9017,0.0205,-0.727,0.0536,-0.0886,42.8138,-47.7925,17.2112,1.425665062923677,-15.753829428494036,7.150601234691689,14.20657385330241
-0.1789,0.8876,0.013,-0.727,0.0536,-0.0886,46.0687,-46.0862,20.4837,0.8509183257500054,-11.518620182435376,7.049135304176099,14.207862108555325
-0.2158,1.0981,0.0786,-0.736,0.0621,-0.1008,48.2125,-33.1362,28.0438,4.031542810053388,-11.100524829777488,8.12114097958848,14.20914010023617
-0.0047,1.1075,-0.093,-0.7412,0.0663,-0.1119,31.2812,-28.9713,25.8475,-4.546800717516237,-0.5107307862998633,8.131962403198106,14.210390840363585
-0.1692,0.4874,0.0407,-0.7412,0.0663,-0.1119,33.6875,-20.4225,14.8575,4.523377660200037,-18.452351498509245,9.194845276559404,14.211612559356185
-0.0257,0.6071,-0.2771,-0.7475,0.0708,-0.1208,-5.0925,-37.8875,13.2912,-16.22724448577911,-2.7878563741434,6.192225449305282,14.212902938106767
0.081,1.338,-0.1364,-0.7475,0.0708,-0.1208,11.2087,-34.4313,22.0237,-6.523801597294101,3.2763162783796598,8.600382045990129,14.214215259666604
-0.0791,0.9235,0.0212,-0.7544,0.0754,-0.1321,32.0163,-31.0713,27.8075,1.0949320967115075,-4.701633811937281,9.96986561131517,14.21549502092884
-0.1003,0.9447,0.0214,-0.7606,0.0806,-0.1437,30.555,-46.2262,29.0762,1.2917446680852671,-6.027845081476156,10.75799241762597,14.216772304777127
-0.2176,0.897,-0.0002,-0.7606,0.0806,-0.1437,33.2238,-51.0563,34.2475,0.02265649516001346,-13.480029912718619,10.731458190671434,14.218031538895222
-0.355,0.9555,0.0877,-0.7675,0.0882,-0.1552,30.3712,-44.5112,29.505,5.090435974867836,-20.148672206974464,12.273124580006558,14.21926139796222
-0.1948,0.9089,-0.0273,-0.7675,0.0882,-0.1552,27.3175,-35.6562,16.3187,-1.5001039819726603,-12.352181598705288,11.230903835531555,14.220514615503586
0.0146,0.9122,-0.161,-0.7695,0.0941,-0.1632,25.1912,-28.8137,7.4288,-9.713802134164832,0.30135781774327847,10.671214368974073,14.221786236691422
0.041,0.9875,-0.1638,-0.773,0.097,-0.1774,30.66,-24.2112,5.8625,-9.426727782322326,2.2456033742559707,11.677739200913765,14.223058565711813
0.0644,0.9342,-0.1377,-0.773,0.097,-0.1774,44.625,-30.9137,23.6163,-8.406559425653443,3.8581539201486246,11.934143214362424,14.224306828425282
0.0942,0.939,-0.2108,-0.7805,0.107,-0.1896,54.9588,-31.3512,27.5187,-12.580274233241333,5.549361865063326,11.960962846002923,14.22554093448762
0.0932,0.9303,-0.1631,-0.7805,0.107,-0.1896,58.1525,-20.195,28.3937,-9.986717207401531,5.633565407822587,12.413189915173348,14.226766900475557
0.0974,0.9402,-0.1523,-0.7874,0.1182,-0.2065,62.2825,-18.0425,26.9412,-9.213160309199326,5.833942065775096,13.4820765435503,14.227980479393755
0.1142,0.9134,-0.1341,-0.795,0.1314,-0.2207,66.7013,-18.6462,33.0488,-8.364409165681977,7.026184538098538,14.475449392503014,14.229218478535156
0.2009,0.8152,-0.2442,-0.795,0.1314,-0.2207,69.65,-21.315,39.6463,-16.56255021470184,13.167726225321408,13.42757156078416,14.230444798439372
0.2923,0.8405,-0.3353,-0.8029,0.1459,-0.2424,78.9075,-18.8038,35.91,-21.685641839245836,17.807511249589172,13.81420579484179,14.231667225264527
0.2515,0.8414,-0.298,-0.8108,0.1605,-0.246,79.5988,-1.085,24.8587,-19.528940065039766,15.788061937233001,13.914865409403985,14.232888944257125
0.1374,0.8811,-0.239,-0.8108,0.1605,-0.246,83.7813,13.37,17.185,-15.226219996392599,8.78636040760412,14.229337840947528,14.234112078914837
0.1076,0.8599,-0.263,-0.8188,0.1747,-0.2581,91.4638,16.4237,18.0338,-16.987501107358515,6.883667248188495,14.02688310306133,14.23532247258653
0.235,0.9681,-0.3958,-0.8188,0.1747,-0.2581,110.425,16.9662,-1.7937,-22.190769981341187,12.212256403427466,13.162830700164653,14.236550562072138
0.0744,0.973,-0.3407,-0.8269,0.189,-0.2758,158.025,34.93,-15.9337,-19.315813946958944,6.554913426519702,13.783638543539016,14.2378575748878
0.0779,0.7989,-0.3088,-0.8298,0.2124,-0.2902,184.4412,44.4588,-14.4637,-21.12342183296221,5.926634736993729,13.658053222286835,14.239117162922174
0.0986,0.8599,-0.3562,-0.8298,0.2124,-0.2902,154.7875,36.8462,-24.1413,-22.492312031662888,6.03665807905338,13.270421208729067,14.240366841300755
0.109,0.8571,-0.3949,-0.8339,0.2265,-0.3025,114.9225,26.6963,-34.02,-24.718457300959848,6.5628666806874145,12.845249533155473,14.241620766674677
0.1157,0.8106,-0.4881,-0.8339,0.2265,-0.3025,90.7813,23.6513,-40.81,-30.986971530586704,6.956881405063389,10.380833047329455,14.242844255248666
0.1514,0.7909,-0.5748,-0.8374,0.234,-0.3085,96.9588,37.2313,-47.95,-35.95847773344029,8.750215460428395,8.323014104289722,14.24406314291104
0.1545,0.7659,-0.6238,-0.841,0.2494,-0.3133,136.115,68.2063,-57.0675,-39.138739312514964,8.886459206471855,6.3561816735506484,14.245313529122178
0.1163,0.6964,-0.5694,-0.841,0.2494,-0.3133,182.3937,90.9388,-63.5075,-39.26987573671128,7.396586284453122,6.167700607500171,14.246555775258917
0.3168,0.6123,-0.5193,-0.8415,0.2643,-0.3191,171.3513,22.96,-46.7687,-40.29583468856771,21.11989193185283,6.509861752080615,14.24782562686536
0.3795,0.5516,-0.8575,-0.8415,0.2979,-0.3417,217.8575,17.8762,-19.67,-57.17167811259993,20.515296038107454,5.235114671807096,14.249076720909056
0.4255,0.481,-0.9367,-0.8458,0.2979,-0.3417,189.1313,36.8638,-25.3137,-62.78997752341201,21.8861363948596,9.845454435067525,14.250335247194595
0.296,1.0583,-0.8319,-0.8474,0.3166,-0.3457,164.29,64.7588,-32.1738,-38.31654586676725,12.886048880588643,5.723032036073387,14.25157607766622
0.178,1.207,-0.5655,-0.8474,0.3166,-0.3457,150.9987,65.5113,-44.4938,-25.18935553092621,7.771985246100289,12.755441884890116,14.252825048212246
-0.0464,1.3723,-0.7286,-0.8532,0.3353,-0.3476,136.2113,56.2275,-21.035,-27.945472539617494,-0.5859884225541401,9.858984473891116,14.254089944990794
-0.2062,1.443,-0.7968,-0.8614,0.3499,-0.341,108.2113,61.985,-1.1375,-28.89813369238854,-6.644249074939594,8.09251709491895,14.255330067629862
0.0745,1.0578,-0.9163,-0.8614,0.3499,-0.341,78.3388,71.7938,12.9937,-40.753665947100075,2.696024857357433,2.052279522583104,14.256538691720165
0.2189,0.9733,-0.873,-0.8741,0.3614,-0.332,44.5112,62.7025,32.9263,-41.86683949608788,9.361305464386337,0.45417186585199115,14.257760410712763
0.0972,0.9871,-0.8402,-0.8741,0.3614,-0.332,-29.575,77.0263,44.5112,-40.456060184656074,4.374098008799347,1.263258222560902,14.258985314951866
0.0892,0.9905,-0.7965,-0.8879,0.3668,-0.314,-65.9313,67.3313,59.7013,-38.82980602359142,4.019255022832932,1.0018227461801636,14.260204202614238
0.201,0.9378,-0.6634,-0.9046,0.3704,-0.3002,-95.1475,54.67,80.045,-35.31359095673639,9.862551050799187,2.1841632097437564,14.261441493923082
0.3277,0.8667,-0.7976,-0.9046,0.3704,-0.3002,-127.7763,41.1075,99.9425,-42.56458091478947,15.497913917250836,2.1942650388689136,14.262689048803994
0.2553,0.6873,-1.6307,-0.9176,0.3716,-0.277,-148.8813,32.4625,120.4,-66.9788786669226,8.263297854078523,15.017380578142006,14.263979781470855
-0.1768,1.0174,-0.8768,-0.9245,0.3786,-0.2795,-144.48,15.5137,121.6863,-40.9384457339857,-7.383478670973451,2.9102299445686657,14.265258834900534
0.1088,0.6645,-0.0172,-0.9245,0.3786,-0.2795,-46.0425,-17.43,93.0388,-2.370398832791496,9.140643310561762,16.54242184175218,14.266514529855847
-0.0908,0.693,-0.996,-0.9172,0.3868,-0.2866,75.7225,-39.6813,27.65,-54.5047691091355,-3.9620168965381004,8.592062679513202,14.267758545573976
0.3081,0.6565,-1.3082,-0.9172,0.3868,-0.2866,25.9962,7.2188,-27.6675,-63.05196715845608,10.834921321022929,14.132833355852174,14.269041138166438
0.2025,0.6082,-0.8868,-0.913,0.3709,-0.2814,-98.1138,6.8688,-48.72,-55.63389992573693,10.669489212326571,10.77293255251232,14.270300372284533
-0.0558,1.1063,-0.4996,-0.9033,0.3654,-0.2878,9.905,-39.585,-29.3913,-26.624590814896155,-1.8396456531625691,6.487093898064575,14.271544034086386
0.1648,0.5852,-1.0809,-0.9033,0.3654,-0.2878,60.6463,-74.4538,-3.9375,-61.02489612876019,6.747985758655184,12.149279107662412,14.272771415739436
0.0702,0.8092,-1.2414,-0.888,0.3698,-0.3038,48.8512,-78.995,-15.9162,-56.98050913455076,3.9302699638756375,9.474070005511502,14.27402038628546
0.1037,0.8331,-1.0158,-0.888,0.3698,-0.3038,-8.26,-64.4175,-35.595,-51.594097052939944,4.487933729192221,6.323275297119614,14.275270418580321
0.0115,0.914,-0.7352,-0.8734,0.3578,-0.3077,-26.2938,-56.4463,-62.93,-39.32986602487407,0.63972221116684,0.8966116035404916,14.276523990037965
-0.0519,1.1026,-0.9334,-0.8498,0.347,-0.3277,12.8975,-77.3325,-78.155,-40.193643546011295,-2.016382272862799,1.7028057439791893,14.277780746742113
0.1688,0.9011,-1.0217,-0.8498,0.347,-0.3277,32.5937,-95.4975,-59.5612,-48.356957712628805,6.870067759562089,3.1210528342953308,14.279039273027651
0.0608,0.9989,-0.9585,-0.8199,0.3402,-0.3478,-10.43,-105.875,-60.7337,-44.33135610033308,2.605212597991752,1.067534761661512,14.28031018638293
0.039,1.026,-0.8414,-0.7901,0.3251,-0.3575,-27.7025,-102.6025,-65.73,-39.54505103031325,1.7009064550827406,5.137731062568857,14.281586408482383
0.027,1.0462,-0.8266,-0.7901,0.3251,-0.3575,-22.0062,-110.3813,-68.2763,-38.37257478423237,1.1697874648793616,5.773035351259778,14.282887758637592
0.1187,1.0117,-0.8713,-0.76,0.311,-0.3712,-21.9625,-118.44,-64.1025,-40.61978435774744,5.004419211034022,6.249673308945003,14.284398981145818
0.1466,0.9684,-0.8003,-0.76,0.2905,-0.3817,-43.2863,-118.7288,-62.7112,-39.595987488031334,6.622915292463403,8.833570898207915,14.285696792138246
0.197,1.0102,-0.7542,-0.7243,0.295,-0.3817,-63.9712,-112.455,-65.7213,-36.79017497495854,8.838950854716312,11.339595498640433,14.286982216060933
0.0056,0.8663,-0.8406,-0.6921,0.2722,-0.3812,-72.2663,-103.2325,-63.5775,-44.033427085521225,0.43399067821283993,6.9849743954131505,14.288252067667377
-0.0348,0.838,-0.898,-0.6921,0.2722,-0.3812,-67.4625,-112.0088,-53.165,-46.934754435073806,-1.5721903799062258,4.968820304916392,14.289542092501682
-0.0234,0.8261,-0.843,-0.6593,0.2558,-0.3804,-84.9625,-110.3375,-49.3325,-45.59636129401231,-1.1476559909835333,7.10860185381836,14.290838133912718
-0.0903,0.7487,-0.7485,-0.627,0.2386,-0.3792,-87.4038,-107.765,-54.2938,-44.99938529876914,-4.7858265075572035,8.534508661343125,14.292121080421458
-0.113,0.6808,-0.8402,-0.627,0.2386,-0.3792,-71.4875,-109.06,-61.7137,-50.89712175913327,-5.941409870415581,4.589239619057728,14.293402257348806
-0.1351,0.6252,-0.8542,-0.5934,0.2234,-0.3718,-66.01,-110.215,-65.94,-53.75407061872801,-7.248208351666528,3.507259565854351,14.294706438834243
-0.2067,0.6395,-0.7855,-0.559,0.2117,-0.3675,-69.0638,-113.715,-65.7825,-50.892936450517674,-11.453235053283537,6.110605577547448,14.295991154924375
-0.2304,0.569,-0.6628,-0.559,0.2117,-0.3675,-39.4538,-125.055,-64.3213,-49.39522952674819,-14.71134899486755,6.935442732766078,14.29727480926567
-0.2526,0.5187,-0.7237,-0.5261,0.2026,-0.3646,-15.1637,-129.6662,-69.0375,-54.00297984127284,-15.818478790223143,4.426708520078359,14.298567665430202
0.1587,0.9456,0.1321,-0.2318,0.134,0.0194,-2.38,1.3387,-14.525,-43.068892554780035,-3.701934297819556,3.287188013661476,14.301512602781711
0.1614,0.9538,0.1369,-0.2318,0.134,0.0194,-2.1525,1.2775,-14.8837,-27.368697798310997,3.7168608889849337,2.5852136448325624,14.302726889532467
0.1614,0.9538,0.1369,-0.2318,0.134,0.0194,-2.1525,1.2775,-14.8837,-16.47941905740878,6.969473018991513,2.0310816833319993,14.304811810327774
0.1594,0.9543,0.1401,-0.2281,0.1374,0.0191,-2.5638,1.7413,-14.9713,-15.74440978204044,8.364553724234444,1.3003127547951803,14.306004508185554
0.1623,0.9509,0.1349,-0.2281,0.1374,0.0191,-3.6138,1.8725,-14.7087,-3.7200169739653632,9.008975052864729,0.7494686677775266,14.307197206043334
0.1569,0.9432,0.1392,-0.2274,0.1372,0.0122,-4.0425,1.9337,-15.1112,3.446609710394819,9.211147124183986,1.4728770563433138,14.308384595156939
0.15,0.9335,0.1463,-0.2274,0.1359,0.0166,-3.3775,2.0563,-14.9713,5.844889897238472,9.10088465682289,1.389135932814713,14.309563490279867
0.1508,0.9277,0.1379,-0.2274,0.1359,0.0166,-2.7213,1.4612,-15.6975,6.139007181924065,9.123418339978116,1.2702340516833732,14.310747694146968
0.1466,0.9417,0.1354,-0.2298,0.1334,0.0174,-1.4962,0.1312,-15.9337,7.208295700288297,8.8690223720376,0.9045149029609604,14.31193225193035
0.1537,0.9548,0.1365,-0.2298,0.1334,0.0174,-1.2337,-0.35,-15.9075,7.742995611023939,8.998227542642573,0.6486596811813944,14.31312247237418
0.1591,0.962,0.1373,-0.2286,0.136,0.0162,-1.2775,0.5338,-15.6887,7.958750369160434,9.201046637380047,0.728162854602598,14.314325787720309
0.1588,0.9615,0.1321,-0.2267,0.1368,0.021,-2.485,1.0325,-16.4062,7.945360920293555,9.268442432847035,0.6993673056894486,14.315516008164142
0.152,0.9566,0.1279,-0.2267,0.1368,0.021,-3.7888,1.1025,-16.94,7.7657777610738234,9.023619500319151,0.5766491877475968,14.316719677426548
0.1501,0.9515,0.1329,-0.2278,0.1376,0.0174,-4.06,1.575,-16.7388,7.876059519953312,8.914558564960744,0.5514697464728462,14.317906004791318
0.1388,0.9381,0.1324,-0.2278,0.1376,0.0174,-4.2,0.8312,-16.8875,7.973051422861919,8.470199678618934,0.5525126696674824,14.319088792993307
0.1413,0.9383,0.1338,-0.2284,0.135,0.0218,-4.3575,0.5425,-17.0362,8.063991774746633,8.477321245047603,0.15221038589262778,14.32027688993947
0.146,0.9381,0.134,-0.2284,0.135,0.0218,-4.4713,0.6825,-16.7562,8.106565469637882,8.690939906423985,0.05750159809516475,14.321471357378641
0.1469,0.9401,0.1358,-0.2279,0.1362,0.0186,-4.0338,1.0062,-16.485,8.173308243919433,8.765533410930267,0.055907395643426526,14.322659454324803
0.151,0.9426,0.1357,-0.2269,0.1355,0.0186,-3.7013,0.945,-15.8638,8.183241578132659,8.934922284505276,0.03681433668549176,14.32384896693608
0.1519,0.9445,0.1394,-0.2269,0.1355,0.0186,-4.4538,1.12,-14.98,8.321431778712045,8.995866041790649,0.005368405585602159,14.325028215975285
0.1568,0.9398,0.1374,-0.2267,0.1374,0.0184,-3.9375,1.715,-14.1312,8.319343544558118,9.126710560533732,0.19981205809646568,14.326206757181936
0.1552,0.9406,0.1368,-0.2267,0.1374,0.0184,-4.025,1.6538,-13.3175,8.29325794829115,9.159318003062602,0.296067325347067,14.327395561960653
0.1551,0.9425,0.1464,-0.2268,0.1378,0.012,-4.8038,2.4763,-12.8275,8.662271263903634,9.192874017375159,1.6880987005212826,14.328569148339408
0.1562,0.941,0.1483,-0.2282,0.1361,0.0224,-6.6238,3.3513,-12.6525,8.897642368087979,9.250878995364463,0.31946692413327105,14.329740257304213
0.156,0.9346,0.1421,-0.2282,0.1361,0.0224,-4.3575,3.0625,-11.4975,8.736589003338123,9.331972459514159,0.2160006918662676,14.331015063738553
0.1568,0.9301,0.1462,-0.2278,0.1356,0.0182,-4.34,3.5613,-11.655,8.861517167140539,9.413406447112042,0.5653127224558219,14.332272882191536
0.1529,0.9343,0.1509,-0.2278,0.1356,0.0182,-3.36,3.5788,-12.3375,8.997323367702622,9.281532434428918,0.9002951261641179,14.33893217088352
0.1526,0.937,0.1518,-0.2279,0.1352,0.0153,-2.485,3.01,-12.7137,9.017523361379176,9.211606605761046,1.5234633749737354,14.351162455711803
0.1521,0.9443,0.1441,-0.2279,0.1352,0.0153,-2.1875,3.29,-13.6062,8.918878382342239,9.21105381352537,1.4948058264050201,14.363677997060371
0.153,0.9472,0.1427,-0.2295,0.1364,0.0142,-2.4675,2.6863,-13.405,8.879329862028344,9.188581054176828,1.6571590949047128,14.375745834316927
0.1509,0.949,0.1423,-0.229,0.1361,0.0191,-2.5463,2.4325,-14.0175,8.863228905256186,9.114738205649163,0.8966202348635877,14.38800655594514
0.1443,0.9438,0.1396,-0.229,0.1361,0.0191,-2.135,2.1175,-14.7875,8.721764888976722,8.835954472880987,0.5746883525636242,14.39691887566461
0.1425,0.9408,0.14,-0.2272,0.1362,0.0182,-2.2488,1.9425,-14.6125,8.655586838537575,8.67747704060506,0.5741123438764419,14.409082270316299
0.1477,0.9448,0.1393,-0.2272,0.1362,0.0182,-1.6362,0.7,-14.735,8.524257167694952,8.738057183699413,0.5622048111492007,14.421170280800714
0.1477,0.9454,0.1397,-0.2288,0.136,0.0233,-2.135,0.175,-15.0412,8.486930558436255,8.766138121768444,0.0968489677585472,14.433310670894315
0.15,0.9468,0.1369,-0.23,0.1354,0.0207,-2.2488,0.2187,-15.0062,8.420315132883173,8.850897587326472,0.19056700601082863,14.445465217639047
0.1507,0.9451,0.1401,-0.23,0.1354,0.0207,-2.66,-0.315,-14.8487,8.421036845284105,8.91332942332295,0.18058384664245353,14.457633921034908
0.1576,0.9398,0.1385,-0.229,0.1348,0.019,-2.6688,-0.7613,-15.3475,8.418429967658822,9.235248651188886,0.08890152989207059,14.466640382484401
0.1543,0.9387,0.1387,-0.229,0.1348,0.019,-2.7388,-0.3763,-15.4612,8.416742977849399,9.235782207300739,0.18527238308701455,14.478718837229303
0.1509,0.9373,0.1362,-0.2287,0.135,0.0165,-2.8,-0.5775,-15.5487,8.391339244670402,9.114613861182601,0.6019659184793101,14.490906298187914
0.155,0.9389,0.1383,-0.228,0.1353,0.021,-2.6338,-0.0875,-15.05,8.39088610431661,9.209994725465044,0.13043305880167633,14.503085265155846
0.1595,0.9412,0.143,-0.228,0.1353,0.021,-2.4588,-0.1837,-13.8337,8.420504989619571,9.266472788370736,0.00815315346127315,14.515276973109795
0.1565,0.9446,0.1396,-0.2287,0.1359,0.0177,-1.8812,-0.3063,-14.21,8.414776713948578,9.28213488691475,0.3738920489889126,14.527416655370839
0.1584,0.9446,0.1382,-0.2287,0.1359,0.0177,-2.3363,0.9363,-13.9912,8.396081969275398,9.32095031294917,0.39017567369434164,14.53955492196677
0.1562,0.9481,0.1393,-0.2284,0.1349,0.022,-2.3975,1.2425,-14.28,8.38988632486684,9.295464155525298,0.202460125074781,14.548462994690903
0.1584,0.947,0.1325,-0.2284,0.1349,0.022,-2.3363,1.015,-14.315,8.302718612503586,9.341324338158664,0.19785304977337428,14.560608693528676
0.1572,0.9481,0.1362,-0.2271,0.1349,0.0209,-2.3712,1.26,-13.5537,8.279410493217933,9.340340792504232,0.07316363029702838,14.572757577612956
0.1615,0.9498,0.1398,-0.2275,0.1351,0.0192,-2.0825,0.77,-13.5712,8.311155062050098,9.346740171670705,0.09632696837241259,14.584863637827564
0.1595,0.9496,0.1373,-0.2275,0.1351,0.0192,-2.8175,1.3387,-13.8863,8.295839580387293,9.36697518535587,0.09566966959036868,14.596987747772364
0.1603,0.9492,0.1401,-0.2269,0.1365,0.0198,-4.0687,1.8463,-13.6675,8.355593431936047,9.374129498307674,0.09666420370749557,14.609112211633441
0.1577,0.949,0.1412,-0.2269,0.1365,0.0198,-3.6575,2.135,-14.07,8.410864516727358,9.361349089184115,0.1213484508491974,14.618058507315627
0.1579,0.9468,0.1393,-0.2283,0.1373,0.0224,-3.605,2.275,-14.1925,8.390182252876688,9.364248461286298,0.2899842357119493,14.630167752776739
0.1541,0.9435,0.1333,-0.2298,0.1358,0.023,-3.885,1.995,-14.315,8.19380942922767,9.29029358290168,0.6699593183532768,14.6423201760238
0.1565,0.9393,0.1387,-0.2298,0.1358,0.023,-4.0862,2.4675,-14.3238,8.317121323759817,9.319365370458412,0.757431186521409,14.65446092003368
0.1539,0.9382,0.1452,-0.2298,0.136,0.0192,-4.1912,2.9838,-14.665,8.612550616744558,9.261993910715503,0.08419370610155219,14.66655813234133
0.1535,0.9384,0.1382,-0.2298,0.136,0.0192,-4.6112,1.9512,-14.7962,8.455637773137397,9.224196067751862,0.15453407077701975,14.67551787684209
0.1541,0.9391,0.1401,-0.2289,0.1357,0.0214,-4.5763,2.1788,-14.525,8.475228949809997,9.22149341359291,0.10171731885028322,14.687622167475308
0.1579,0.938,0.1407,-0.2289,0.1357,0.0214,-3.7713,2.3538,-14.91,8.50525493623653,9.351868824805281,0.21041463761641704,14.699784854294439
0.1551,0.9385,0.1424,-0.2286,0.1346,0.0202,-3.71,2.3363,-15.2075,8.569859547902109,9.307444003357125,0.05511295150687035,14.711882774434645
0.1528,0.9409,0.1463,-0.2285,0.1356,0.0198,-3.85,2.4413,-14.7525,8.719191491667306,9.205325495790206,0.18722018276338695,14.724017855784071
0.1498,0.9312,0.14,-0.2285,0.1356,0.0198,-3.9638,1.575,-14.945,8.621415904400337,9.109936993706295,0.17841633292865325,14.736132409989358
0.1533,0.9356,0.1459,-0.2278,0.1363,0.0194,-2.8087,1.155,-14.8487,8.664149875009839,9.15775340939536,0.22119142397924663,14.745066672518083
0.152,0.9432,0.1415,-0.2278,0.1363,0.0194,-2.94,1.5662,-14.7175,8.630189935891464,9.103634177096152,0.2465011859071414,14.75721803401631
0.1541,0.952,0.1444,-0.2293,0.1351,0.0223,-2.7825,1.5575,-15.4437,8.629355042500604,9.096397929336755,0.01742848601363263,14.769336835216935
0.1551,0.9556,0.1446,-0.2281,0.1336,0.0188,-2.9138,1.54,-14.8837,8.62336964853034,9.108003450219762,0.12481940701021724,14.781440064101316
0.1529,0.9514,0.1466,-0.2281,0.1336,0.0188,-3.4388,1.3387,-13.79,8.685805439920005,9.094953878307583,0.21638529729453693,14.793590363850708
0.146,0.9313,0.1435,-0.2278,0.1348,0.0201,-4.0862,1.3562,-14.1225,8.729967438516745,8.996642372234398,0.2085741168069028,14.805772516065145
0.1451,0.9298,0.1371,-0.2278,0.1348,0.0201,-3.1238,1.54,-15.1112,8.61154109904819,8.864180656827015,0.11491806525969298,14.814683774035782
0.1449,0.9368,0.1454,-0.2277,0.134,0.0195,-2.59,0.7613,-15.8287,8.61244470432424,8.74409313485968,0.1636697561197942,14.826813192724757
0.1482,0.9468,0.146,-0.2277,0.134,0.0201,-1.9687,0.2713,-15.855,8.671604784500506,8.77857026730938,0.16046096328615755,14.838918191190528
0.152,0.9534,0.1421,-0.2287,0.1348,0.0201,-2.3275,-0.3237,-15.9862,8.630676514396033,8.907111583421557,0.06736638712578474,14.851104944316583
0.1543,0.9587,0.1385,-0.2279,0.1347,0.0198,-2.6163,0.245,-15.5137,8.621846880404082,9.00143702014553,0.002948185909741354,14.863224807266043
0.1551,0.9518,0.1401,-0.2279,0.1347,0.0198,-2.5638,0.7263,-15.96,8.614496120559192,9.111552461224576,0.0006201105186204695,14.875322373489972
0.1505,0.9444,0.1391,-0.2285,0.134,0.0186,-3.5525,1.7762,-16.6775,8.499169032563827,8.996797179859673,0.13617197009575177,14.884374490139361
0.1476,0.94,0.1419,-0.2285,0.134,0.0186,-4.0425,1.6187,-15.5662,8.5495913077923,8.883239460560915,0.2547953746760405,14.896378976382106
0.1457,0.9381,0.1446,-0.226,0.1372,0.021,-3.9288,2.2225,-15.0237,8.671404045049368,8.791448708403221,0.13792237010137456,14.90851865864315
0.1498,0.9355,0.1449,-0.2242,0.1378,0.0199,-3.6925,1.8725,-14.6562,8.741120127355313,8.894331429274342,0.2635907243359561,14.920667542727427
0.1492,0.9351,0.1467,-0.2242,0.1378,0.0199,-3.9463,2.205,-14.7525,8.841636022686535,8.92820491490105,0.3850820092769369,14.932821381639602
0.1537,0.9393,0.1529,-0.227,0.1355,0.0194,-3.3688,2.66,-14.9012,9.017932676364325,9.067300138409527,0.6077363985752207,14.941701141061474
0.1508,0.9414,0.151,-0.227,0.1355,0.0194,-3.5613,2.975,-14.8487,9.064466525256984,9.02316934315247,0.6363991194600704,14.953822773592325
0.1535,0.9368,0.1534,-0.2289,0.1358,0.0204,-3.3163,3.5175,-14.42,9.163048840252257,9.096096901789073,0.5453740509922889,14.96597448900683
0.1514,0.9336,0.1484,-0.2286,0.1346,0.0209,-2.9313,3.5,-14.5075,9.129983181045011,9.097505368448816,0.25422108000319443,14.978173983118902
0.1518,0.9345,0.1521,-0.2286,0.1346,0.0209,-3.0188,4.025,-14.1837,9.16409281769842,9.10162359137378,0.2729097252034041,14.990229433305716
0.1487,0.9381,0.1494,-0.227,0.135,0.0198,-2.9313,4.1475,-13.7025,9.135038722041566,9.083061437015528,0.4249326727376267,15.002368053817925
0.1424,0.9415,0.1552,-0.227,0.135,0.0198,-1.8025,3.9113,-13.2388,9.234735478588862,8.924210275462714,0.613661181948621,15.011267986467658
0.1407,0.941,0.1458,-0.227,0.1376,0.0259,-1.9162,3.0713,-12.9937,9.062079229501292,8.727716080841343,0.6547612744074324,15.023427841956563
0.1374,0.9448,0.1454,-0.227,0.1376,0.0259,-1.925,3.2375,-13.02,8.936509351042218,8.525820956792652,1.1042720575618619,15.035571417296667
0.1356,0.9461,0.1481,-0.2276,0.1372,0.013,-1.1462,2.975,-13.755,8.912979520812623,8.464238154309957,1.1696917902867492,15.047625805734647
0.1385,0.9482,0.1449,-0.2305,0.1347,0.0177,-1.295,1.9425,-13.2388,8.786121943186416,8.398030349501866,0.9829894415560787,15.059814682358372
0.1382,0.9511,0.1421,-0.2305,0.1347,0.0177,-2.1175,0.9713,-13.195,8.69292898392537,8.334291573697602,0.9706697903043217,15.071923573903206
0.1471,0.9484,0.1415,-0.2297,0.1354,0.0194,-2.0913,0.4812,-13.9125,8.623629075315634,8.425843975885105,0.7108489654913486,15.08087022350167
0.1482,0.949,0.1382,-0.2297,0.1354,0.0194,-2.0388,0.0875,-13.51,8.502900115286641,8.456324067134434,0.4115942522714805,15.093018045837113
0.1477,0.9498,0.1438,-0.23,0.1352,0.0221,-2.8087,-0.035,-14.3762,8.52166958065235,8.580479406704285,0.02745636654279323,15.105146402777253
0.1501,0.9473,0.1452,-0.2291,0.1343,0.0207,-3.0275,-0.42,-14.5513,8.579907399107267,8.736705201814756,0.029934522551397776,15.117348020386993
0.1529,0.9428,0.1461,-0.2291,0.1343,0.0207,-3.3775,-0.1312,-13.9387,8.68040195356152,8.829305220470022,0.002488648496316941,15.129524863857256
0.1552,0.9349,0.1436,-0.2289,0.1382,0.0192,-3.4388,-0.0875,-13.79,8.704184345746446,8.906388339626954,0.29678892364599463,15.141705246490302
0.1602,0.9312,0.1433,-0.2289,0.1382,0.0192,-3.0363,0.2888,-13.755,8.717759899479848,9.004596551690682,0.4149915646001105,15.150623228870225
0.1632,0.9304,0.1419,-0.229,0.1358,0.0274,-2.6688,0.42,-14.1138,8.714562593289156,9.286247941188124,0.435336841034612,15.162721502926711
0.1656,0.9347,0.1446,-0.229,0.1373,0.0192,-2.5725,0.5688,-14.0875,8.716258914447073,9.496743545061713,0.12633126662963046,15.174861185187755
0.1709,0.9383,0.1435,-0.2286,0.1373,0.0192,-1.75,1.715,-13.6062,8.706628471043372,9.499129316487188,0.13585887048428263,15.187005114444137
0.1767,0.9393,0.1487,-0.2305,0.1346,0.0188,-1.9162,2.905,-13.6237,8.823481337015409,9.52012093067938,0.5073215034712253,15.199095248426223
0.164,0.9419,0.1405,-0.2305,0.1346,0.0188,-2.065,4.1475,-13.6412,8.706004816748878,9.529396250526476,0.3916685189893052,15.21125687349652
0.157,0.9453,0.1416,-0.2295,0.1346,0.0225,-2.2225,5.39,-13.6675,8.655376334873607,9.517142840111775,0.45489457344972967,15.220189720360132
0.1494,0.9428,0.1444,-0.2295,0.1346,0.0225,-1.6538,5.4163,-13.09,8.680783638301927,9.308731755373524,0.5071940914600701,15.23230993722587
0.1515,0.942,0.1412,-0.2297,0.138,0.023,-1.645,5.0225,-11.9263,8.604828492538896,9.138687738997511,0.6136122461695545,15.244472270128723
0.1559,0.9417,0.1376,-0.231,0.1361,0.0185,-1.995,4.655,-11.6112,8.495530507518954,9.248154067994788,0.16770132369636184,15.256570898101486
0.1557,0.9409,0.1427,-0.231,0.1361,0.0185,-1.4525,4.5062,-11.3925,8.563989198258506,9.27818847827679,0.49561422292689933,15.268717658688097
0.1623,0.9486,0.1407,-0.2304,0.1349,0.0165,-1.7325,4.6638,-11.4975,8.505124000930751,9.500346942672206,0.8699159116182562,15.280808854419016
0.1627,0.95,0.1402,-0.2304,0.1349,0.0165,-2.205,4.4713,-12.11,8.47428077788631,9.56972133865891,0.9279988872567481,15.289756211850037
0.1609,0.9483,0.1396,-0.232,0.1352,0.0197,-2.3712,4.7337,-13.195,8.456063452250186,9.557924004443542,0.24045703976085397,15.301910050762212
0.1596,0.9458,0.1423,-0.2327,0.1364,0.0145,-2.73,4.9875,-14.105,8.468032861845169,9.52971543502969,1.3652324860337943,15.31400160040941
0.1564,0.9429,0.1396,-0.2327,0.1364,0.0145,-2.415,5.6087,-13.9737,8.460985846663613,9.472495372137805,1.521535688734154,15.326163933312264
0.1549,0.9425,0.1437,-0.2326,0.1358,0.018,-2.5288,5.005,-14.6387,8.47377036387101,9.348273762801048,0.8948037161010939,15.338310693898872
0.1509,0.9403,0.1462,-0.2326,0.1358,0.018,-2.3888,4.2175,-15.12,8.535812457035641,9.144791560285183,0.8580073647505696,15.347196115981196
0.151,0.9385,0.1403,-0.2308,0.1356,0.0114,-2.8612,4.1213,-13.8775,8.528774027543388,9.122530731961021,2.048986024374177,15.359318810260882
0.1502,0.9365,0.1414,-0.2308,0.1356,0.0114,-2.8087,3.4738,-14.5338,8.538895490994848,9.068911664056344,2.3595776868340086,15.371469463926553
0.1505,0.9385,0.142,-0.2328,0.1336,0.0121,-3.08,3.325,-15.4,8.560144039160239,9.030854372595694,2.2473301331283073,15.383617994094553
0.1496,0.9391,0.1441,-0.2344,0.1334,0.0166,-3.3513,2.9575,-14.5862,8.630609933288913,8.989893778596965,1.449855980205321,15.39575484502537
0.152,0.944,0.1438,-0.2344,0.1334,0.0166,-2.8175,2.52,-14.7262,8.636211922322968,9.018782867660294,1.1803546945974985,15.407839670263282
0.149,0.945,0.1442,-0.2315,0.133,0.0172,-2.9663,2.625,-15.4787,8.64699607666578,8.914741417390516,0.9716220242292766,15.416789151191972
0.1479,0.9416,0.1432,-0.2315,0.133,0.0172,-2.975,2.1963,-15.4263,8.647099239926305,8.857959307357895,0.8912775010918097,15.428916800299556
0.1473,0.9398,0.1458,-0.2319,0.1346,0.0131,-2.7913,1.9687,-15.1462,8.675312958186467,8.825318035543146,1.4886292036265107,15.441059313890825
0.1478,0.9392,0.1469,-0.2339,0.1364,0.0141,-2.485,2.0738,-14.9362,8.696426483001735,8.83225464560926,1.7256143600099554,15.453185547333295
0.1474,0.9406,0.1444,-0.2339,0.1364,0.0141,-3.0013,1.4612,-14.0963,8.705516809842344,8.823180752800532,1.7618812023226937,15.465317797352494
0.1511,0.948,0.1458,-0.2326,0.1352,0.0161,-3.5613,1.4612,-13.7462,8.724158916188058,8.839405127657784,1.6103533898394269,15.477414301827588
0.1534,0.9448,0.1469,-0.2326,0.1352,0.0161,-3.29,0.9187,-13.685,8.770756235775785,8.860298737443918,1.587456167116801,15.486361305342331
0.1529,0.9403,0.1494,-0.2331,0.1335,0.0135,-3.5613,-0.0175,-14.455,8.897220920819288,8.981357553314778,1.8410873317080452,15.498550535882334
0.1505,0.9331,0.1412,-0.2331,0.1335,0.0135,-2.73,0.0963,-15.3475,8.862295321074662,9.031939662683875,1.828716292533608,15.510625805380732
0.151,0.9301,0.1463,-0.2334,0.1347,0.021,-2.4237,0.0263,-15.225,8.87348765261536,9.081032467351987,0.9467681085897371,15.522775043381289
0.1526,0.9348,0.1444,-0.2282,0.1351,0.017,-1.4612,-0.21,-15.5925,8.824444712906846,9.13662450023955,1.0177425578401467,15.534989048060769
0.1571,0.95,0.1362,-0.2282,0.1351,0.017,-1.4175,-0.0788,-15.6887,8.464594650916249,9.244732309139318,0.8318255611081086,15.547138286061326
0.1615,0.9534,0.1399,-0.2298,0.135,0.0169,-1.4875,-0.6825,-15.9425,8.403285261099539,9.43357514795505,0.8167689245040358,15.556121389036452
0.1646,0.9524,0.1452,-0.2298,0.135,0.0169,-2.5375,-0.1225,-15.7762,8.41753465211361,9.61296477106064,0.9268905991104965,15.568246206813809
0.1613,0.9493,0.1424,-0.2322,0.1357,0.0197,-3.2462,0.8838,-15.085,8.462336066161686,9.568540174290147,0.8427974676171529,15.580359345353981
0.1573,0.9442,0.1394,-0.229,0.1351,0.0168,-2.835,0.8925,-15.435,8.449927957759611,9.432832130928144,0.8461805303527438,15.592517785177774
0.1552,0.9417,0.1476,-0.229,0.1351,0.0168,-3.325,1.19,-15.4962,8.6433000847571,9.31173385967335,0.9019387148666527,15.604659944852767
0.156,0.9356,0.1444,-0.2311,0.1329,0.0161,-3.1412,1.1725,-15.0237,8.689427413593096,9.33859130126006,0.9449705761010125,15.61676494331854
0.1548,0.936,0.144,-0.2311,0.1329,0.0161,-3.6575,1.3212,-14.6037,8.718663749828545,9.311058221059769,1.0034442175448033,15.625678324786845
0.1568,0.9362,0.1509,-0.2309,0.1359,0.0142,-3.8325,1.47,-15.0762,8.960814698358341,9.357479099548407,1.354660590618638,15.637816237466497
0.158,0.9354,0.1502,-0.231,0.1348,0.0189,-3.43,1.6275,-15.3037,9.034324151262647,9.427318963579435,1.1262016949794729,15.649979278201908
0.1555,0.9393,0.1485,-0.231,0.1348,0.0189,-3.8588,1.715,-15.6363,9.006168783324307,9.333054503489103,0.934538925258629,15.662169216574465
0.1527,0.9425,0.1505,-0.2302,0.1344,0.0171,-3.4825,2.1088,-16.1175,9.03736772619218,9.158914061599846,1.072504077867302,15.674220419765941
0.1525,0.9448,0.1463,-0.2302,0.1344,0.0171,-2.6863,1.7062,-14.3937,9.017556076431871,9.116484098559125,1.0509957090336155,15.686358686361872
0.1486,0.9433,0.1469,-0.2328,0.1358,0.0186,-2.8875,1.8725,-14.8575,8.9799225156599,8.966760855265978,0.8840595325900967,15.695289763644093
0.1429,0.9409,0.1465,-0.2328,0.1358,0.0186,-2.7125,1.9775,-13.93,8.966189933741848,8.860215078962932,0.7868339422346404,15.707421305830735
0.1466,0.9387,0.1541,-0.2302,0.1348,0.0188,-3.2725,1.5487,-14.1925,9.110265529500804,8.823399156559141,0.8299774943664997,15.719512855477934
0.1471,0.936,0.1501,-0.2311,0.1342,0.0169,-2.0475,0.875,-14.7262,9.110372750304718,8.821893266750084,0.8812115481103701,15.731665986557552
0.1438,0.9393,0.1453,-0.2311,0.1342,0.0169,-1.6362,0.1138,-14.56,8.95526195900254,8.714949770900638,0.9605951166241536,15.743805668818595
0.1513,0.941,0.1421,-0.2314,0.1351,0.0167,-1.5225,0.2187,-14.9537,8.764919262780388,8.897998388517756,0.9833676984921154,15.755915976028543
0.1551,0.9465,0.1455,-0.2314,0.1351,0.0167,-1.7762,-0.315,-15.225,8.753408709248276,9.084817110670087,1.05817183370726,15.764923145310592
0.1587,0.9516,0.1441,-0.2304,0.1359,0.016,-1.96,-0.2625,-14.8575,8.69807222926099,9.23981774717909,1.1738647193435738,15.77704583959028
0.1577,0.9468,0.1416,-0.2302,0.1355,0.0152,-2.6513,-0.2888,-15.12,8.687709998062617,9.308800020304536,1.3015471813462676,15.789226576139601
0.1665,0.9395,0.1465,-0.2302,0.1355,0.0152,-2.8,-0.3413,-15.4962,8.71761260977187,9.716695464735954,1.502391342997239,15.801409790102873
0.1661,0.9286,0.143,-0.2303,0.1357,0.0167,-2.7037,1.26,-15.2425,8.721250822616376,9.908568336924096,1.4362032014784238,15.813551949777866
0.1688,0.9314,0.1466,-0.2303,0.1357,0.0167,-2.2575,1.5487,-15.575,8.77757983679836,10.068801498092538,1.3889739019056995,15.825652701248298
0.1706,0.9359,0.1448,-0.2317,0.1338,0.0183,-1.2687,2.765,-15.4175,8.787463529622869,10.16099884374697,0.9285801214540705,15.83459793518165
0.1665,0.9414,0.1404,-0.2317,0.135,0.0141,-1.2512,3.8063,-15.0762,8.612679995673261,10.018822966442297,1.4736045396278572,15.846711427638102
0.1559,0.9461,0.1358,-0.231,0.135,0.0141,-0.9625,4.3925,-14.63,8.33711994791626,9.6363204042806,1.4565948445483397,15.858855710810763
0.1583,0.9471,0.1376,-0.2308,0.1349,0.015,-1.6887,4.7163,-13.7725,8.3035181336364,9.600877305321392,1.3083212262735178,15.871003179229929
0.1567,0.95,0.1371,-0.2308,0.1349,0.015,-1.1987,5.2413,-13.195,8.250195779647878,9.505631155587361,1.2451909102836867,15.883115609937544
0.157,0.95,0.1394,-0.2298,0.1334,0.0165,-1.5925,5.3375,-13.4837,8.29905567335596,9.482292573092765,0.9239915316039087,15.895252106952084
0.1548,0.9508,0.1385,-0.2298,0.1334,0.0165,-1.8637,5.3725,-14.1138,8.294304821966023,9.370688786772067,0.8303440476285214,15.904146730857642
0.157,0.951,0.1394,-0.231,0.1351,0.0117,-1.68,5.2675,-14.2362,8.315734701687662,9.334353677338273,1.9614506613028182,15.916281812207068
0.1563,0.9517,0.1367,-0.2322,0.1346,0.0143,-2.1263,5.7137,-14.9012,8.270525667940642,9.277357029677857,1.4783357786785278,15.928414770058826
0.1526,0.9503,0.1352,-0.2322,0.1346,0.0143,-3.0013,5.285,-14.9625,8.22038260146855,9.136718774900858,1.3514953523749476,15.940561530645434
0.1469,0.9539,0.1369,-0.2311,0.1338,0.015,-2.7037,4.83,-16.0562,8.21512831954705,8.803232000759852,1.1876261416370366,15.952698735492529
0.1427,0.9533,0.1337,-0.2311,0.1338,0.015,-2.94,4.5237,-16.4325,8.155660963162882,8.529011481349366,1.0593203962309667,15.9648086887862
0.1383,0.9522,0.1359,-0.2302,0.1362,0.0202,-3.92,3.955,-16.4062,8.136770212884496,8.273404087950702,0.11380493176012114,15.973757461882332
0.1365,0.952,0.1366,-0.2302,0.136,0.012,-4.3925,2.7738,-15.225,8.155224908462856,8.15249872330579,1.343261450417562,15.985862814264383
0.1455,0.9502,0.1382,-0.2302,0.136,0.012,-4.8125,2.3363,-15.12,8.237953313971872,8.432198206985472,1.790712633002968,15.998010990516105
0.1499,0.949,0.1343,-0.2307,0.1345,0.015,-5.0225,1.7937,-15.3125,8.108268870873157,8.720357236594243,1.4897173659116896,16.010160582432942
0.1557,0.9565,0.1376,-0.2307,0.1345,0.015,-5.3113,2.1438,-15.0062,8.165293835213856,8.972963819411417,1.3335083984137774,16.02227301314056
0.1522,0.9575,0.1374,-0.2329,0.1352,0.0114,-6.335,2.4675,-15.2075,8.165947427797567,8.953782546363183,1.8295022736049578,16.031167637046117
0.1505,0.9561,0.1327,-0.2329,0.1352,0.0114,-7.2362,2.3363,-14.5425,7.948596956245382,8.90930046787084,1.924783335257902,16.043310858469944
0.1505,0.9589,0.1348,-0.2322,0.1357,0.0166,-6.755,2.3013,-14.1662,7.991711511005049,8.88229804805931,1.2200562659377039,16.0554600964705
0.1506,0.9585,0.1344,-0.2308,0.1339,0.0162,-7.6825,2.52,-14.2887,7.983529764662016,8.866800904494356,0.9101331775673043,16.067601548312936
0.1521,0.945,0.1333,-0.2308,0.1339,0.0162,-8.9862,2.5463,-14.4025,8.022906293383883,8.95057534826907,0.8056848596999375,16.079752909811162
0.1419,0.9326,0.1345,-0.2307,0.1371,0.017,-9.835,2.8175,-14.3587,8.184342096414982,8.784257738636471,0.7746612887933109,16.091821454900273
0.1432,0.9313,0.1365,-0.2307,0.1371,0.017,-9.6337,3.2288,-14.49,8.319264225794859,8.721393884970409,0.8239848669004548,16.100786154228928
0.1434,0.9438,0.1357,-0.2304,0.1346,0.0134,-9.4412,3.605,-14.4025,8.199440346121442,8.64645928357181,1.4019104137101752,16.112909556341172
0.151,0.9573,0.1351,-0.2318,0.1341,0.0228,-9.0037,4.8213,-13.685,8.055359742062258,8.663977865246245,0.5455439694977271,16.12506870399752
0.1588,0.9667,0.1326,-0.2318,0.1341,0.0228,-9.0037,5.0662,-12.46,7.843450877807887,8.973124276308514,1.0771907765503836,16.137138310835464
0.1583,0.975,0.1369,-0.2315,0.1322,0.0191,-9.9488,6.055,-11.4362,7.9748030751487455,9.083160468963252,0.30101696466901134,16.149308075980162
0.1574,0.9762,0.1406,-0.2315,0.1322,0.0191,-11.0775,7.3938,-10.4912,8.17252040199324,9.071239244410934,0.054830197067050536,16.161455898315605
0.1576,0.978,0.1405,-0.2318,0.1334,0.0216,-12.915,8.3475,-8.6975,8.174970088982189,9.064201955538294,0.5920668543819163,16.170389453011776
0.159,0.9782,0.1452,-0.2318,0.1334,0.0216,-14.5425,9.2925,-6.7025,8.422393380100754,9.125120499242264,0.5023066192767944,16.182546831086732
0.1611,0.9729,0.1488,-0.2346,0.1342,0.0239,-16.2313,10.15,-5.4163,8.67703325614123,9.277370682093139,0.8718231928906421,16.19468545159894
0.1609,0.9624,0.1552,-0.2349,0.1321,0.0242,-17.4562,10.5787,-5.355,9.130347828312535,9.36211097655702,0.7893046878459916,16.206861941152926
0.1487,0.9404,0.1547,-0.2349,0.1321,0.0242,-18.2087,10.815,-5.005,9.329019750714647,8.919654145220548,0.672226484071879,16.21905258735804
0.1475,0.944,0.1556,-0.2364,0.1316,0.0282,-17.9288,11.1825,-5.6,9.35803867414319,8.7815304736657,1.6313132206272938,16.231226599498076
0.1501,0.9474,0.1554,-0.2364,0.1316,0.0282,-17.8062,10.8325,-5.9063,9.317798953965037,8.873929885814668,1.7451744452489766,16.24330080724764
0.1541,0.9544,0.1598,-0.238,0.1326,0.0282,-18.3487,9.7737,-6.055,9.493969145622382,9.027764549052488,1.6017643971378506,16.252282848473932
0.1538,0.9614,0.1617,-0.2421,0.1318,0.0299,-18.3575,9.8087,-6.02,9.544162290859957,8.972356808904554,1.961335896946192,16.26439846442805
0.1554,0.9615,0.1667,-0.2421,0.1318,0.0299,-20.4312,8.7412,-7.0262,9.820391622151762,9.038184443639853,1.841511089542707,16.276536023191426
0.1565,0.9591,0.1685,-0.2399,0.1298,0.0334,-22.0587,8.0675,-7.4725,9.95731767779918,9.117185849214907,2.6552049002608706,16.288671104540853
0.16,0.9548,0.177,-0.2399,0.1298,0.0334,-23.205,7.7788,-7.875,10.477006293966516,9.320840423443007,2.4725957827495413,16.30081644946235
0.1681,0.95,0.1774,-0.2434,0.1294,0.0389,-24.2637,8.0675,-8.4787,10.572979755897187,9.778104449109884,3.6554110342509025,16.3097128429493
0.1697,0.9445,0.1832,-0.2439,0.1303,0.0398,-25.83,7.9975,-8.4,10.96039901404516,9.966903523440148,3.7520139863682322,16.32187305235448
0.1663,0.9394,0.1851,-0.2439,0.1303,0.0398,-26.4425,8.085,-8.995,11.139302315814719,9.873562995427,3.664843430616917,16.334004240624846
0.1616,0.9411,0.1911,-0.2458,0.1305,0.042,-27.8075,7.9888,-9.0125,11.465491113000056,9.609698978706799,3.917589479416837,16.346174359685822
0.1577,0.9465,0.1928,-0.2458,0.1305,0.042,-28.7525,7.8575,-9.4412,11.511740226662418,9.33772454786165,3.9171092988576444,16.358248567435385
0.1603,0.9479,0.1948,-0.245,0.128,0.043,-29.1462,6.7375,-10.2025,11.609320818040874,9.390155953234398,4.204762721964823,16.370430011817266
0.1656,0.9496,0.2023,-0.245,0.128,0.043,-30.87,6.1338,-10.0975,12.012093838038107,9.615138821734982,4.049784331705924,16.382561554003907
0.1722,0.9518,0.2084,-0.2454,0.1298,0.0526,-32.4188,6.335,-9.8875,12.33924809931956,9.936182380842368,5.855210626091301,16.391484491211727
0.1765,0.953,0.2069,-0.2472,0.1302,0.0558,-34.7287,6.44,-9.485,12.251770126798238,10.195775057256428,6.839471111905584,16.4036220499751
0.1812,0.9429,0.2261,-0.2472,0.1302,0.0558,-36.8638,6.6763,-9.0562,13.449520452933694,10.514895679174842,6.360198158641917,16.415761378319868
0.1832,0.9334,0.2299,-0.249,0.1298,0.0598,-38.3512,6.6238,-8.5487,13.8262185052248,10.744410394379418,6.95044614564223,16.427910970236702
0.179,0.9288,0.2331,-0.249,0.1298,0.0598,-39.1037,7.1575,-8.6975,14.081492857625202,10.614337210393229,6.886883231789117,16.44006020823726
0.184,0.9265,0.2394,-0.2503,0.1281,0.0638,-40.6613,7.3763,-8.4962,14.47747152828391,10.83991285396736,7.603907724936148,16.44892793450567
0.1886,0.9235,0.2437,-0.2515,0.128,0.0718,-41.65,7.875,-8.5662,14.775026742755362,11.115418938575974,9.276779283459856,16.461073279427165
0.1945,0.921,0.2537,-0.2515,0.128,0.0718,-44.73,8.9775,-7.5862,15.38632111148311,11.452168645726042,9.189744988662033,16.473207652944037
0.2062,0.9147,0.2584,-0.2509,0.127,0.0766,-45.3425,10.29,-7.7875,15.765945942000018,12.124419617286396,10.224731107729236,16.485397591316595
0.2078,0.9199,0.2616,-0.2509,0.127,0.0766,-46.5325,12.0225,-7.56,15.872206440144884,12.23957749083608,10.271322195623883,16.497547537149707
0.2044,0.9223,0.2711,-0.2514,0.1286,0.0842,-48.09,13.9387,-7.0088,16.369198612187613,12.034792808497665,11.580552425242615,16.509723672787413
0.1998,0.9216,0.2766,-0.2517,0.1298,0.087,-49.9275,15.2337,-6.7112,16.699118228492946,11.769108922910796,11.992705779679394,16.521901931922788
0.1995,0.9176,0.2851,-0.2517,0.1298,0.087,-50.96,16.66,-5.5563,17.24875118342333,11.733742374703636,11.678887314617963,16.53085353634915
0.1989,0.9046,0.2966,-0.2558,0.1291,0.0974,-52.71,18.2612,-4.865,18.135572924797852,11.794244763786734,13.336829392361455,16.54302507107524
0.1887,0.899,0.3071,-0.2558,0.1291,0.0974,-55.0988,19.8887,-3.9463,18.846713987761177,11.286984572232868,12.882266436599254,16.555167938582784
0.1746,0.8907,0.314,-0.2584,0.1298,0.1054,-56.4987,21.2187,-4.0513,19.40874408471217,10.551263562939852,13.954746319331868,16.567360354369292
0.1662,0.8879,0.3203,-0.2584,0.1298,0.1157,-57.7238,21.7787,-4.0425,19.82872412603903,10.039618166089731,15.870449087351805,16.57953224301166
0.1587,0.8789,0.3363,-0.2572,0.1292,0.1157,-58.3538,21.1487,-2.415,20.919163154099742,9.61076982033124,15.299149839504024,16.591714749142373
0.1629,0.8819,0.3498,-0.2602,0.1316,0.1192,-59.64,20.5625,-0.9275,21.623096185496145,9.733111996985016,15.260654441805569,16.603856554901085
0.172,0.8392,0.3758,-0.2602,0.1316,0.1192,-60.76,20.4662,0.035,24.080934254736533,10.536292806788833,13.827517094536628,16.61277453728101
0.1801,0.8325,0.3745,-0.2607,0.1344,0.1256,-61.1975,20.02,1.1375,24.218247576147387,11.12104206627952,14.91904827711558,16.62490430988626
0.1821,0.824,0.3957,-0.2607,0.1344,0.1256,-62.0812,19.7838,2.065,25.627487394827014,11.257953459596573,14.010441540979542,16.63705921054727
0.1851,0.8322,0.403,-0.264,0.1322,0.1385,-61.985,19.495,2.9225,25.835482914305913,11.316588761809156,16.547115148425092,16.649178365664177
0.1768,0.8241,0.3959,-0.2664,0.1336,0.1442,-61.5037,19.6525,3.3075,25.662696042015487,10.965508317473615,17.583554788729856,16.661310969599654
0.169,0.8194,0.4203,-0.2664,0.1336,0.1442,-61.7925,19.46,3.5088,27.130145198273052,10.430203438723566,16.466150271949672,16.67344640486536
0.163,0.8,0.4281,-0.2682,0.1357,0.1529,-63.4637,18.5937,4.235,28.13582717200178,10.197357137288595,17.067815353562043,16.682359078501108
0.1659,0.7918,0.4494,-0.2682,0.1357,0.1529,-62.72,17.2025,4.06,29.554247759929844,10.320117243472918,16.122908807375868,16.694507254752832
0.1707,0.7748,0.4434,-0.2694,0.1378,0.159,-62.8512,16.1262,4.0862,29.777791327918887,10.798224010330996,16.95853053056194,16.706618623711613
0.1762,0.7643,0.4668,-0.2722,0.1394,0.1709,-61.7225,15.89,4.6725,31.38748129266168,11.11324962312054,17.818664420396274,16.718760429470326
0.178,0.7569,0.4713,-0.2722,0.1394,0.1709,-60.5237,14.8487,3.8413,31.900486317167324,11.280103797574819,17.544591545237793,16.730936211191754
0.1676,0.754,0.4911,-0.276,0.1394,0.1755,-59.2025,13.5362,4.0075,33.05682748949422,10.590039948060046,17.024315751822414,16.74298104389022
0.1595,0.7461,0.4951,-0.276,0.1394,0.1755,-58.8087,11.7425,4.2175,33.55868669654407,10.126048800402156,16.49159064055874,16.75195140587933
0.1632,0.7486,0.504,-0.2766,0.1421,0.1852,-57.9337,10.0012,4.235,33.94371951695582,10.244017376725449,17.573031737030867,16.764059943507885
0.1761,0.7444,0.5117,-0.2766,0.1421,0.1852,-57.5925,7.9363,4.6988,34.49458679578228,10.990640928509741,17.49294960513109,16.776153262736475
0.1876,0.7333,0.5185,-0.2826,0.1425,0.1916,-56.8838,6.4488,4.445,35.24937184925554,11.75626875739802,17.80130968979687,16.788281619676614
0.2109,0.7261,0.5259,-0.2824,0.145,0.2019,-55.615,5.9588,3.0713,35.902754528690345,13.153590750658058,19.260662117407968,16.80032432887741
0.2211,0.7139,0.5465,-0.2824,0.145,0.2019,-55.37,6.1425,2.6863,37.406054632493515,13.777830967610202,18.51085755712244,16.80921859886669
0.2317,0.7124,0.5591,-0.2846,0.1475,0.2078,-54.425,6.23,2.0038,38.11163185785837,14.316902485617218,18.584856457813668,16.821337046151037
0.2256,0.7059,0.5599,-0.2846,0.1475,0.2078,-54.81,6.8863,0.315,38.41465731129841,14.074739899698189,18.238918467556456,16.83343815153775
0.2197,0.6888,0.5708,-0.286,0.1512,0.2162,-55.055,7.6038,0.0438,39.62504810743307,13.817192008558514,17.91946020609456,16.84554138042213
0.2162,0.6786,0.5775,-0.286,0.1512,0.2212,-55.0025,7.3675,0.2187,40.38386262857264,13.65020432345815,17.98120030981401,16.854426094671897
0.2176,0.6729,0.5883,-0.288,0.1521,0.2212,-54.1362,7.0437,-2.03,41.14758936920218,13.680070128730854,17.072923346505085,16.866533570551617
0.2207,0.6745,0.5959,-0.2887,0.154,0.2306,-53.165,6.8688,-3.3163,41.45355681291553,13.76925630386158,17.965942472906264,16.87867785372428
0.2346,0.672,0.6157,-0.2887,0.154,0.2306,-52.6312,6.6062,-4.55,42.476108782205316,14.368553313967727,17.363626442781964,16.890808334162088
0.2307,0.6406,0.6104,-0.2918,0.1578,0.2384,-47.3025,6.9913,-5.635,43.59214638336883,14.585735383471572,16.820516808510654,16.902959695660314
0.2216,0.6239,0.6057,-0.2918,0.1578,0.2384,-43.0675,7.3587,-7.2625,44.13849587726124,14.336443407923579,16.074965442639897,16.914993556954155
0.2148,0.6252,0.6224,-0.2912,0.1625,0.2431,-49.8312,6.4837,-10.1325,44.85621670576237,13.830262332419597,15.165356905879895,16.924009220226882
0.2146,0.6415,0.6221,-0.291,0.1634,0.251,-48.3525,5.6175,-11.06,44.13614574318607,13.596018538228327,16.82792473885615,16.93620906825523
0.2222,0.6424,0.6348,-0.291,0.1634,0.251,-47.8888,4.41,-10.3337,44.647769043228884,13.769138543971033,16.70711980201561,16.94834202610699
0.2423,0.6485,0.6338,-0.2918,0.1666,0.2565,-48.8338,3.4125,-9.485,44.34965006685977,14.72762960039106,17.69634301208658,16.960497634600554
0.2464,0.6368,0.6381,-0.2918,0.1666,0.2565,-49.3413,4.4275,-9.7125,45.043579425899246,15.17260907582026,17.4231226737237,16.972602986982604
0.2394,0.6223,0.6357,-0.2939,0.171,0.2646,-50.8288,5.9063,-11.655,45.598771456280694,15.099634230860605,17.212635431722376,16.984786908778435
0.2313,0.6155,0.6473,-0.2938,0.1738,0.2647,-52.5175,8.1812,-12.6175,46.42595603885242,14.810931773739872,15.53638349384299,16.99692375970925
0.2261,0.6116,0.666,-0.2938,0.1738,0.2647,-53.5412,8.785,-13.7375,47.41868657827526,14.719306631730925,13.915379985723371,17.00593305248897
0.2108,0.5873,0.6776,-0.2914,0.1781,0.2778,-54.18,8.6363,-13.8512,49.05170697887902,14.422835967357237,12.905358470006464,17.018053623270987
0.2097,0.567,0.6843,-0.2914,0.1781,0.2778,-52.9113,8.1637,-13.58,50.32999481812327,14.397265266175731,11.139878255972189,17.030294525587617
0.2148,0.5488,0.6922,-0.289,0.1841,0.2831,-50.8025,7.6737,-13.755,51.565773245918884,14.300810308340424,9.21270011238249,17.042418281616136
0.2072,0.5425,0.6986,-0.2912,0.1878,0.29,-52.4738,7.9975,-16.3362,52.1569113594925,13.483228486612427,8.326074547368501,17.054600433830576
0.1953,0.5405,0.7062,-0.2912,0.1878,0.29,-51.45,7.9012,-16.24,52.56255737647343,12.687759126888942,7.465588718946831,17.06673622301256
0.1907,0.5302,0.7245,-0.291,0.1905,0.2976,-51.415,7.2275,-14.91,53.777879283991076,12.293618346157293,6.158022041553835,17.078920144808386
0.2014,0.5207,0.7297,-0.291,0.1905,0.2976,-49.2625,5.9063,-14.1925,54.4741506312275,12.430377040160042,5.1331914585732745,17.08786467090918
0.2139,0.5164,0.7471,-0.2882,0.1946,0.3062,-47.8975,5.6175,-13.2562,55.32867691220906,12.642078444827717,4.254031611927279,17.100039390881772
0.2215,0.5144,0.7566,-0.2882,0.1946,0.3062,-48.7725,5.9675,-13.9562,55.7791010060977,12.894687259045162,3.460081324349809,17.112219773514816
0.2162,0.5079,0.7535,-0.288,0.2017,0.3052,-49.6562,7.105,-14.1312,56.01291790808692,13.063573108771893,1.3271407165421298,17.12437821333861
0.207,0.4935,0.759,-0.2867,0.2042,0.3164,-48.7375,7.8225,-13.51,56.94791019734408,13.04789938209336,0.4959996127290081,17.136550455897254
0.1937,0.4702,0.7671,-0.2867,0.2042,0.3164,-47.4863,7.455,-12.6087,58.45977853146159,12.600006126316421,2.090094676259774,17.148740748186093
0.1979,0.4671,0.7693,-0.2871,0.2092,0.3218,-45.7537,7.0437,-12.2587,58.7286775040732,12.48607322911849,3.2239475566789624,17.16089741842849
0.1956,0.4716,0.7738,-0.2871,0.2092,0.3218,-44.3537,7.0963,-12.3375,58.641460090964365,12.315339595684172,3.203690893503531,17.16985999425948
0.1936,0.4671,0.7658,-0.2866,0.2142,0.3334,-43.2163,7.4375,-11.3312,58.61942354085148,12.220803479747298,2.764436083728281,17.18199790693913
0.1922,0.4565,0.7704,-0.2873,0.2148,0.3303,-39.305,8.4087,-10.5087,59.3317626951995,12.139808405035971,4.49805211274307,17.19417687390706
0.1782,0.467,0.7925,-0.2873,0.2148,0.3303,-39.7337,8.7412,-10.4912,59.486086469749,11.249824377304778,4.758702986617712,17.206366812279622
0.1847,0.4695,0.7984,-0.2886,0.2209,0.336,-43.1375,8.2075,-7.7263,59.54094312743343,11.273594802405505,5.508883194866838,17.218501893629046
0.1856,0.4526,0.8101,-0.2886,0.2209,0.336,-43.5838,6.79,-5.1013,60.77788531606489,11.306538711959785,7.690308822022442,17.230615740001777
0.177,0.4336,0.8082,-0.2869,0.2243,0.3418,-42.8312,6.7288,-3.3338,61.761946719168506,10.957008599149002,9.655414484509805,17.242818419360354
0.1696,0.4163,0.8114,-0.2857,0.2284,0.3469,-41.2825,5.6875,-2.0738,62.812135804468575,10.568763416548352,11.850934134566026,17.251743833982122
0.1743,0.4069,0.8178,-0.2857,0.2284,0.3469,-39.1562,5.2937,-2.0388,63.527587601298016,10.784539676957957,13.43285007460312,17.263962085656942
0.2028,0.3883,0.8378,-0.2899,0.2312,0.3497,-35.28,5.6262,-3.5438,65.0857488872934,12.241820004676493,17.09944613737273,17.27591206879283
0.2115,0.378,0.8411,-0.2899,0.2312,0.3497,-35.5337,5.5825,-5.3463,65.77924816708739,12.844842799391818,19.119082341439878,17.288071924281738
0.2129,0.3781,0.8389,-0.2899,0.2334,0.357,-34.9912,6.5363,-7.1312,65.73969032411337,13.002888189769893,19.37552435114168,17.300216207454397
0.213,0.3777,0.8473,-0.2899,0.2386,0.3638,-33.145,7.8313,-8.4787,65.96674114426246,12.943059109030369,20.379064152345723,17.312311650180657
0.2108,0.3736,0.8596,-0.2907,0.2386,0.3638,-30.94,8.2075,-9.6512,66.4907477611246,12.729371651027705,21.168744733478896,17.321259007611676
0.2083,0.3665,0.8586,-0.2885,0.2419,0.3606,-28.6825,8.0762,-10.0012,66.86988245003893,12.61103775972543,22.958826996323328,17.333391965463434
0.1901,0.3565,0.8658,-0.2885,0.2419,0.3606,-26.7663,8.5837,-9.5375,67.59039024888585,11.700608888839152,23.493548001001212,17.34555394445001
0.1848,0.3457,0.8613,-0.2861,0.2446,0.3646,-21.4112,8.365,-9.555,68.10367524103962,11.348408046026142,24.705109524614073,17.357623197371677
0.1832,0.3389,0.8751,-0.2861,0.2446,0.3646,-16.4237,8.8462,-9.5987,68.78112170449563,11.106687382510598,25.74919833751724,17.36981844448841
0.179,0.3389,0.8758,-0.2876,0.2454,0.357,-18.5937,8.5925,-11.1562,68.84174232985855,10.883136905314524,26.117024379109576,17.3819199037914
0.1875,0.3433,0.8711,-0.2866,0.2461,0.3666,-18.76,8.2775,-12.1975,68.51108364475935,11.140699460731415,25.762494957194747,17.390925657408335
0.1941,0.3459,0.8766,-0.2866,0.2461,0.3666,-15.7062,8.2425,-10.9112,68.46935043208232,11.503559857119203,25.94852146509302,17.40310816353905
0.2117,0.3451,0.867,-0.2904,0.2467,0.3685,-11.83,6.0025,-10.9725,68.31248904767865,12.42984760780149,26.318355162609212,17.415323583883644
0.2072,0.3477,0.8617,-0.2904,0.2467,0.3685,-9.695,6.5538,-11.4712,68.06109656187667,12.525598979022023,25.782323807574393,17.427439907670323
0.2046,0.3514,0.8624,-0.2869,0.2482,0.3655,-7.8838,8.5137,-13.1337,67.86733171905041,12.482731426287803,26.080847937033482,17.43954596788493
0.2012,0.3581,0.8605,-0.2846,0.2483,0.3637,-6.1425,9.2225,-13.9387,67.50680562475472,12.407010605838753,25.609829877850903,17.451663353420443
0.1947,0.3601,0.865,-0.2846,0.2483,0.3637,-5.2238,8.5312,-14.035,67.427985290098,12.20542034135821,25.163461217814188,17.46055549991205
0.1991,0.3636,0.8536,-0.2835,0.2496,0.367,-3.8588,7.6213,-14.875,67.14873967916847,12.152809441686633,24.836513579995398,17.47274119128927
0.2016,0.3642,0.8516,-0.2835,0.2496,0.367,-2.625,7.2013,-15.1025,67.13970157346455,12.228844405655467,24.803143922634053,17.484852914164332
0.1976,0.3666,0.8578,-0.2836,0.2486,0.3657,-1.6538,8.4087,-15.9862,67.00388484796986,12.03930975129496,24.40848718575621,17.49699578167188
0.1854,0.3671,0.8539,-0.2836,0.2486,0.3862,-1.1375,9.1262,-16.2575,66.84542680246061,11.488267067489765,22.099512717803616,17.509118475951567
0.1679,0.3644,0.8506,-0.282,0.2489,0.3703,-1.155,9.3275,-16.6863,66.82425164031535,10.57886223173663,22.55681202812138,17.521253911217272
0.1617,0.3653,0.8545,-0.2819,0.2485,0.3674,-0.14,8.33,-16.5987,66.84483475316361,10.047894741955368,22.498545078131354,17.53018711199716
0.154,0.3802,0.8342,-0.2819,0.2485,0.3674,1.015,5.9237,-15.9687,65.7902887157371,9.687889006849565,20.205237889063064,17.542325024676813
0.1551,0.3999,0.8333,-0.2798,0.2474,0.3656,1.3737,4.1475,-16.0475,64.6508461644908,9.572824642562344,18.279146417322192,17.55434862239858
0.155,0.419,0.825,-0.2798,0.2474,0.3656,1.8375,3.0713,-16.7038,63.36507483456865,9.524924410041955,16.155588809679067,17.5664529130318
0.15,0.429,0.825,-0.2795,0.2482,0.3718,1.1112,2.6425,-16.1875,62.703977878688825,9.26437231066849,14.414115792831705,17.578520396372074
0.1485,0.4272,0.8248,-0.279,0.2462,0.367,-0.2538,1.435,-15.2775,62.64400758236286,9.150893325857567,14.167491715340832,17.587462091142644
0.156,0.4222,0.8228,-0.279,0.2462,0.367,-0.9187,-0.42,-14.63,62.764534826070445,9.365698652652135,14.242781990328933,17.599606020399026
0.1666,0.4221,0.8122,-0.2834,0.2468,0.3654,-2.1963,-1.9687,-13.2562,62.70036033036475,9.61017676989231,14.167753646066815,17.611800205766926
0.1697,0.4262,0.817,-0.2834,0.2468,0.3654,-4.0163,-1.9862,-13.6237,62.553688716038295,9.627033719271278,14.063486773783808,17.623988020641814
0.1684,0.4229,0.8168,-0.2836,0.2469,0.3614,-4.3313,-2.0213,-14.245,62.600239164463545,9.919584507940037,14.628904080471587,17.636126287237744
0.1676,0.4216,0.8186,-0.2836,0.2469,0.3642,-5.005,-2.1963,-14.735,62.70635296908922,10.13003518416499,14.696758954577627,17.648304900289396
0.1749,0.4214,0.822,-0.2791,0.2469,0.3642,-6.195,-2.2838,-14.1487,62.82500724120744,10.33893189355221,15.322610489855634,17.660446706048113
0.1819,0.4149,0.8234,-0.2821,0.2485,0.367,-6.195,-2.4413,-14.3937,63.16317309121292,10.701606366768011,16.234138670314657,17.669611014157713
0.1914,0.3997,0.8246,-0.2821,0.2485,0.367,-7.42,-1.3912,-14.7087,63.97200162784524,11.277197428036349,18.05772340636477,17.68160842207489
0.1912,0.3886,0.83,-0.2815,0.2485,0.3681,-7.3675,-0.2625,-15.7762,64.74863828862378,11.62459702940655,19.341398643323004,17.69375270524755
0.2007,0.3866,0.8331,-0.2815,0.2485,0.3681,-7.1838,0.6737,-17.0975,65.04234939488845,12.170553015971477,19.817273110960265,17.705895218838823
0.2023,0.3848,0.8259,-0.2842,0.2486,0.3698,-6.1687,0.9275,-17.7625,65.02366407299932,12.45085874928041,19.893140514778292,17.718048703834718
0.195,0.3892,0.8209,-0.2827,0.248,0.3678,-4.8475,1.75,-17.7887,64.75358864526628,12.179175685865598,19.87090024496776,17.730188032179484
0.179,0.4009,0.8311,-0.2827,0.248,0.3678,-5.1275,2.8175,-16.87,64.39153021569601,11.259734713488998,18.763667120608332,17.739088672661772
0.1794,0.3935,0.8306,-0.2825,0.2497,0.3686,-5.2675,3.1412,-16.4937,64.58004282909158,11.100031739352172,19.176920818035395,17.751198272039165
0.1851,0.3922,0.8317,-0.2825,0.2497,0.3686,-4.7688,2.59,-15.155,64.69859205090984,11.271143424560215,19.58776035595515,17.763316719323512
0.1931,0.3909,0.8368,-0.2818,0.251,0.3624,-4.3925,2.4588,-14.8225,64.86721938116861,11.566636978485153,20.78292798237068,17.775494978458887
0.1981,0.3917,0.8365,-0.2807,0.2501,0.3668,-3.7275,3.4125,-15.2425,64.88896690001198,11.900997549179133,21.10423024777932,17.787640323380383
0.1959,0.3941,0.8383,-0.2807,0.2501,0.3668,-4.2088,5.04,-16.9575,64.8469551497526,11.93191245684858,20.9506979286291,17.799733642608974
0.1735,0.3911,0.8405,-0.28,0.2511,0.3681,-3.6312,5.845,-17.29,64.9485760944528,10.884609902188643,20.51405800362827,17.80865127107262
0.1565,0.3924,0.8305,-0.28,0.2511,0.3681,-3.605,5.5125,-17.0625,64.82860320928673,9.941731094018044,19.314670469300797,17.820801924738287
0.149,0.3965,0.829,-0.2797,0.2503,0.3703,-2.765,3.7625,-15.4175,64.77176853580207,9.469945792013892,18.22202041473509,17.83293842175283
0.151,0.4003,0.8347,-0.2797,0.2503,0.3678,-3.01,3.0275,-14.9975,64.65639665138733,9.35014674428695,18.066738689189815,17.845030679232583
0.1582,0.3992,0.833,-0.2806,0.2491,0.3678,-3.1588,1.7237,-14.5338,64.56200183875498,9.527724901950576,18.030233311598202,17.857184518144756
0.1724,0.3972,0.8271,-0.2785,0.2494,0.3679,-3.4563,1.1987,-14.7,64.46301714237201,10.110443857889528,18.15256825470258,17.86612125808743
0.1918,0.3995,0.8335,-0.2785,0.2494,0.3679,-2.8175,1.4525,-15.4088,64.44995042122984,11.14833545248203,18.645968790182938,17.878242536702004
0.1957,0.3999,0.8312,-0.2778,0.252,0.3701,-3.5,2.3538,-15.8287,64.38213136478014,11.721175594418526,19.609946556776972,17.890387527707222
0.1895,0.3963,0.8245,-0.2778,0.252,0.3701,-3.7625,3.1063,-16.4587,64.35323730066659,11.707920630089022,19.962702052032306,17.902495711419498
0.1796,0.3947,0.8264,-0.2784,0.2518,0.3702,-4.2788,3.3688,-16.5637,64.42664144897482,11.250031397137612,19.843200175651308,17.914631854517758
0.1718,0.3963,0.8327,-0.2773,0.25,0.3691,-4.3225,3.2375,-16.2313,64.50428306472135,10.745049000131706,19.454078596555124,17.92684762877863
0.171,0.3941,0.8345,-0.2773,0.25,0.3691,-5.0925,3.4475,-15.8112,64.65873645595404,10.574500086397139,19.544314484706785,17.935692350488953
0.1711,0.3873,0.8375,-0.2778,0.2518,0.3691,-5.0575,2.8,-15.6012,65.03085357048644,10.528224664509628,20.41376345375154,17.947802303782623
0.1697,0.3764,0.8406,-0.2778,0.2518,0.3691,-3.9288,1.96,-16.1788,65.51531197485625,10.464485671064782,21.283553088556417,17.959945879122728
0.1678,0.3722,0.8377,-0.2766,0.249,0.3688,-4.5237,1.6538,-16.1788,65.8634293429199,10.398889682676872,21.53910421871362,17.972082730053543
0.157,0.3749,0.8315,-0.2767,0.2538,0.3711,-3.3338,1.3037,-17.0187,65.80701339151273,9.909737809307112,21.58698977493672,17.98424470904012
0.1411,0.3812,0.8285,-0.2767,0.2538,0.3711,-3.325,1.1638,-15.6363,65.58975849779796,9.162396268140617,21.395492009611154,17.996377666891874
0.1301,0.39,0.8359,-0.2733,0.2522,0.3685,-3.2813,-1.505,-14.5513,65.34469777659437,8.61034256364389,19.81237801087181,18.005286093532288
0.1416,0.4066,0.8383,-0.2733,0.2522,0.3685,-3.2375,-3.6488,-13.0113,64.86737262058713,8.621985870838401,18.292895375445777,18.01749125030481
0.1682,0.4072,0.8402,-0.2786,0.2518,0.3682,-4.3925,-5.4338,-11.8037,64.40187988913054,9.644097226986647,18.57182615157083,18.029653937123943
0.1915,0.407,0.837,-0.2786,0.2518,0.3682,-4.6463,-6.3612,-12.705,64.17751665746333,10.582057616367765,19.45983014178648,18.041831488426762
0.2058,0.4077,0.8342,-0.2812,0.2517,0.3765,-4.1825,-5.1013,-14.7788,64.04022079249283,11.617211754614882,18.996727413338462,18.05397081677153
0.2022,0.4031,0.8308,-0.2811,0.2494,0.3706,-4.8213,-2.4675,-16.8,64.09360110762235,12.176128169194662,19.13879318847219,18.066166771720816
0.1727,0.3917,0.8305,-0.2811,0.2494,0.3706,-4.5675,-0.63,-17.6837,64.52882449346228,10.951679471920741,19.127941617596967,18.078317071470206
0.1553,0.3921,0.8306,-0.2774,0.2532,0.3703,-3.9025,0.1312,-18.025,64.6425513035778,9.846699318327154,19.323953075917526,18.0872453174222
0.1535,0.3956,0.8352,-0.2774,0.2532,0.3703,-3.7013,-1.3562,-16.7475,64.64909364693318,9.531010296827903,19.290360452827276,18.099457552520292
0.167,0.3999,0.8326,-0.2781,0.253,0.3644,-4.2962,-3.1063,-15.0412,64.45748624484528,9.954269315276887,19.66336349423246,18.111574938055803
0.1839,0.398,0.829,-0.2793,0.2518,0.3711,-3.4738,-4.7775,-12.5738,64.40929484246102,10.641253503582247,19.56962512025792,18.123747888447006
0.2026,0.3945,0.8301,-0.2793,0.2518,0.3711,-3.0275,-4.7075,-12.0487,64.46115770666125,11.7305331503479,20.80217313640057,18.13592225450332
0.2239,0.3897,0.8286,-0.2806,0.2528,0.3707,-3.815,-2.9138,-11.7862,64.65393830832141,13.026849825615596,22.54569138750236,18.148095558810798
0.2169,0.3825,0.8274,-0.2806,0.2528,0.3707,-3.6575,-0.2275,-13.5362,64.92981828504045,13.049198592254088,23.036694082234877,18.16023347149045
0.2084,0.3782,0.8333,-0.2834,0.2529,0.3739,-3.4475,4.1737,-16.45,65.23315753565063,12.88646719422195,23.09465492672779,18.169137297219244
0.1954,0.3784,0.8343,-0.2786,0.2543,0.3734,-2.345,4.445,-17.0625,65.3069904310406,12.230172948353903,23.25378998704812,18.18128087255935
0.186,0.383,0.8344,-0.2786,0.2543,0.3734,-2.0038,3.9463,-16.2663,65.32083753599134,11.664883228927616,22.469703168906914,18.19343364972269
0.1943,0.3884,0.8289,-0.2791,0.2545,0.3714,-1.3562,3.5438,-15.7412,65.084431399624,11.882156999840204,22.100648749755063,18.20557616331396
0.1931,0.3903,0.8237,-0.2791,0.2545,0.3714,-0.6388,3.22,-15.8025,64.79477300706199,11.93656518051629,21.630080683282003,18.217661342468148
0.1921,0.3927,0.8192,-0.2794,0.2534,0.3723,-0.7088,4.6025,-17.2025,64.52918886259108,11.939002346946452,20.70385706822349,18.22982650670123
0.1873,0.3933,0.8292,-0.2794,0.2534,0.3732,-0.1488,6.1425,-17.3337,64.59678473332417,11.620330343197958,20.531396392748434,18.238742011667206
0.186,0.3894,0.8398,-0.278,0.2523,0.3732,-0.665,6.9038,-16.4062,64.9438239908271,11.429376598934395,21.140772952577244,18.250899035825885
0.1848,0.3876,0.8464,-0.275,0.2529,0.3696,-1.47,5.9938,-15.645,65.18265734590081,11.294135223413047,22.254417431267765,18.262976782738228
0.1887,0.3994,0.8573,-0.275,0.2529,0.3696,-0.9275,5.4688,-15.2687,65.08103765494471,11.287468846020884,21.85491923450651,18.275149379213154
0.1831,0.4026,0.8459,-0.2771,0.2522,0.3699,-0.805,5.3638,-15.7062,64.7392447316615,11.132583983671006,20.4916190143399,18.287281629232353
0.1565,0.4002,0.8326,-0.2771,0.2522,0.3699,-0.1837,5.1887,-17.5,64.44866958942882,9.925096749674427,18.964508835375185,18.299380965037674
0.1368,0.397,0.8275,-0.2743,0.2537,0.3727,0.0438,4.9875,-20.1338,64.3918051132738,8.669805723721174,18.339887054064462,18.30831664323151
0.133,0.4083,0.8267,-0.2742,0.252,0.3681,0.5425,3.675,-22.4962,63.87908441288009,8.254778937142733,17.2274154911012,18.32036501509276
0.1424,0.4238,0.8181,-0.2742,0.252,0.3681,0.8487,1.715,-23.3187,62.8991292977961,8.736278522510865,16.301872035491296,18.332483108460828
0.1568,0.4311,0.823,-0.2727,0.2517,0.3682,0.1837,0.0438,-22.3913,62.4981171623433,9.493409910368179,15.637041276032031,18.344581028601038
0.1557,0.4233,0.8228,-0.2727,0.2517,0.3682,-1.5837,-0.77,-21.105,62.63772322401295,9.544801699919873,15.751851970380198,18.356729558769036
0.1459,0.4097,0.8175,-0.2727,0.2528,0.367,-2.0038,-1.05,-19.985,62.9139409459287,9.130355042744752,16.68110092088995,18.365669483958214
0.1351,0.4052,0.8158,-0.2727,0.2528,0.3716,-3.22,-1.4612,-18.515,63.17293044796245,8.5537989739912,16.65377504710491,18.377857298833103
0.1332,0.4063,0.8158,-0.2728,0.2517,0.3716,-4.4975,-2.1613,-18.2087,63.40367604759904,8.357632666276725,16.2909093977588,18.390040158880097
0.1403,0.4092,0.8236,-0.2728,0.2526,0.3688,-5.0662,-2.7825,-17.5875,63.52909421330903,8.610550796801734,16.868617499461827,18.402229743336378
0.1573,0.4047,0.8346,-0.2728,0.2526,0.3688,-5.5125,-4.1563,-16.3712,63.97746887541969,9.355853111965198,18.48157288755318,18.41435880810907
0.1666,0.3951,0.8366,-0.2736,0.2541,0.3722,-5.74,-4.8213,-15.225,64.54096705204493,9.882875945455668,20.122234787787388,18.426537067244446
0.1671,0.3866,0.8399,-0.2736,0.2541,0.3722,-6.2125,-4.1125,-15.2337,65.12288869807976,10.106901395165023,21.333555315058877,18.4387075402217
0.1697,0.3758,0.8436,-0.2732,0.2546,0.375,-4.6638,-3.7713,-15.3825,65.70641252671034,10.302342179374248,22.741931091498532,18.4476633916434
0.172,0.3753,0.8458,-0.2736,0.2512,0.3709,-3.8588,-4.375,-15.8375,65.91060680722043,10.459612069182397,22.785624187121638,18.459843420360166
0.1704,0.3912,0.8526,-0.2736,0.2512,0.3709,-3.1238,-4.305,-15.3825,65.71751241748947,10.354576915860129,21.419253951798026,18.471989119197943
0.172,0.3964,0.8492,-0.2767,0.2534,0.3705,-3.1937,-5.3288,-15.1375,65.44006858028183,10.38202523885311,20.859951226260595,18.484204539542535
0.1677,0.396,0.8487,-0.2767,0.2534,0.3705,-2.9575,-5.6963,-15.7237,65.31920626836822,10.22569252527212,20.62016954071365,18.49633006515245
0.1595,0.393,0.8477,-0.2748,0.2534,0.3723,-2.5638,-7.0525,-16.4237,65.31352320533841,9.8281483542482,20.508998868932878,18.508534160176136
0.1504,0.3918,0.8417,-0.2755,0.2519,0.371,-2.2575,-8.3387,-17.5438,65.24427161875305,9.328500357567464,19.72725446181526,18.52067207285579
0.1584,0.4004,0.8344,-0.2755,0.2519,0.371,-1.8812,-10.2812,-19.985,64.87836457019296,9.660180738164428,18.785011716654576,18.532854225070228
0.1765,0.406,0.8326,-0.2775,0.2533,0.371,-2.9838,-12.4512,-23.6425,64.6334882988155,10.685681802800493,18.94744556332961,18.541870950091788
0.1922,0.4116,0.828,-0.2775,0.2533,0.371,-3.2725,-12.46,-25.2437,64.2028854883052,11.658701985391755,18.813168903418163,18.554089555682886
0.194,0.406,0.8256,-0.2784,0.253,0.368,-3.0538,-12.285,-26.2763,64.08036405584251,11.888968682234983,19.5714940758267,18.566300021199584
0.1876,0.3967,0.8245,-0.2802,0.2551,0.3723,-3.5088,-11.935,-26.005,64.18810894862766,11.60952315330004,20.264639533122182,18.578494206567484
0.1705,0.3933,0.817,-0.2802,0.2551,0.3723,-3.9025,-11.7775,-25.1037,64.24815374339266,10.726164748392655,19.566563183908507,18.59070502600046
0.176,0.3977,0.8189,-0.279,0.2563,0.3726,-3.78,-12.32,-24.5,64.16583226658027,10.92382278284394,19.711805859551266,18.602918322847383
0.1798,0.3993,0.8158,-0.279,0.2563,0.3726,-3.955,-13.0812,-23.485,64.02424143844507,11.172194659960345,19.576076064862495,18.615119586540846
0.1909,0.4005,0.8225,-0.277,0.2567,0.3792,-3.92,-14.105,-22.1462,64.0316027685461,11.72255198859247,19.91882661096851,18.627297845676225
0.2022,0.3965,0.8242,-0.2806,0.2547,0.373,-3.78,-13.1075,-21.84,64.18212299985487,12.38575035625708,20.836321879029345,18.639516451267323
0.2169,0.3922,0.8181,-0.2806,0.2547,0.373,-4.0775,-12.04,-21.4725,64.30436201843592,13.326034848895896,21.945558173422796,18.651763370160683
0.2198,0.3919,0.8186,-0.287,0.2535,0.3733,-3.395,-10.955,-21.5425,64.35467056880238,13.58178013432624,21.256177409420697,18.66390482200312
0.2197,0.3947,0.8264,-0.287,0.2535,0.3733,-2.8875,-7.2975,-19.6087,64.38086772737812,13.503114529166679,21.20079254412159,18.67284757852252
0.2191,0.3966,0.8204,-0.2829,0.257,0.3821,-2.4763,-7.0525,-18.83,64.36175871051026,13.51706827524135,21.128119815532372,18.685021590662558
0.2187,0.3924,0.8197,-0.2827,0.254,0.3739,-1.8812,-6.4225,-17.8062,64.38559252534105,13.528346129687884,21.604517478579634,18.69727806529543
0.2255,0.3898,0.8182,-0.2827,0.254,0.3739,-0.8138,-5.3725,-17.3075,64.47571197411452,13.877805652402227,22.263040370005957,18.709395450830943
0.2269,0.3966,0.8165,-0.2848,0.2571,0.3741,-0.2013,-3.7188,-16.9225,64.20556941491816,13.998143997337184,22.083642219001128,18.72157264821748
0.2257,0.4049,0.8214,-0.2848,0.2571,0.3741,0.14,-2.5988,-16.31,63.878966330993435,13.886376971235014,21.308317327215992,18.733680124097205
0.2302,0.4056,0.8222,-0.283,0.2562,0.3726,-0.2975,-1.8288,-15.1725,63.78381456032347,14.013832802738737,21.39026665930125,18.745824407269865
0.2214,0.405,0.8173,-0.2842,0.254,0.3727,0.2625,-0.0525,-14.7437,63.67730126140865,13.81636446134599,20.66437192009808,18.75475866979859
0.2175,0.4041,0.8122,-0.2842,0.254,0.3727,0.7175,1.3125,-15.0762,63.57793417299055,13.61747247940737,20.42272263462711,18.766883133659668
0.2125,0.4051,0.8154,-0.2852,0.2557,0.3729,0.6038,1.47,-15.2337,63.58049115756311,13.319760776584294,20.202024820910847,18.778950616999943
0.2095,0.4046,0.8148,-0.2852,0.2557,0.3729,0.7,1.7675,-15.1462,63.58984117027858,13.106611667670553,19.940708373907512,18.791031903075073
0.2087,0.4077,0.8139,-0.2832,0.2544,0.3701,0.8925,2.7213,-14.8312,63.43665855420229,12.999729021216691,19.508206630506148,18.799954840282894
0.2056,0.4056,0.8151,-0.2832,0.2544,0.3701,0.9625,2.8175,-14.0087,63.52099844373873,12.920522689409252,19.455930912511427,18.81203683419058
0.204,0.4072,0.8145,-0.2842,0.2537,0.3686,0.9363,3.0713,-13.9825,63.45613457607914,12.839789725703392,19.141333479407596,18.824145371819135
0.2025,0.4095,0.8078,-0.2833,0.2535,0.3724,0.9625,2.1175,-14.385,63.192260954127825,12.73612622800895,18.47620113055325,18.83622488831287
0.1995,0.4008,0.825,-0.2833,0.2535,0.3724,0.8225,2.2138,-14.5775,63.88572012869978,12.506638678376369,19.15774393474172,18.848333425941426
0.1997,0.4006,0.8255,-0.2839,0.2529,0.3706,0.91,2.2925,-14.2012,64.06297108519956,12.421198893624306,19.492513427980814,18.857199382628444
0.2064,0.4016,0.8217,-0.2839,0.2529,0.3706,0.2713,1.085,-13.7375,63.981640149412414,12.456330183324079,19.513182576919323,18.86934472754994
0.2088,0.4067,0.827,-0.2834,0.2533,0.3727,1.0325,-0.1312,-14.0175,63.84950985530416,12.547001202336416,19.48595988174224,18.881422474462287
0.2104,0.4025,0.8275,-0.2842,0.2526,0.3698,1.7062,-0.4462,-16.3362,64.02149564190253,12.790145761443025,19.87573729482705,18.893554724481486
0.2104,0.3944,0.8309,-0.2842,0.2526,0.3698,2.1263,-0.5338,-17.1325,64.505389802552,12.864141254869596,20.752326990383892,18.905696884156477
0.2081,0.3825,0.854,-0.2826,0.2513,0.3699,2.5813,0.1575,-17.15,65.65134619609138,12.609664755130682,21.987565563494165,18.91456991916906
0.215,0.369,0.8605,-0.2826,0.2513,0.3699,4.6463,-0.28,-18.0513,66.65125857799181,12.873442687812238,24.06561150947569,18.92671880325334
0.2075,0.3673,0.865,-0.2826,0.253,0.3678,6.0725,-0.665,-17.8237,66.95741867805049,12.532147741250341,25.361521711264658,18.938831587877235
0.1947,0.3656,0.878,-0.2826,0.253,0.3678,8.2425,-0.3325,-16.31,67.35630224615377,11.82915044487633,25.709190151766833,18.950984365040576
0.1761,0.3691,0.8861,-0.2839,0.2497,0.3694,10.185,-1.4525,-15.6625,67.38394119412732,10.864191974586486,24.365167664364147,18.96316050067828
0.1595,0.3637,0.8869,-0.2849,0.249,0.3653,11.7163,-3.3513,-16.0212,67.68164148586948,9.861608423492466,23.744568740942395,18.9753380519811
0.1492,0.3274,0.8696,-0.2849,0.249,0.3653,14.6475,-6.0025,-15.015,69.27640404616795,9.428679807438762,25.78301741313954,18.98429744256558
0.1584,0.3329,0.8542,-0.2855,0.246,0.3627,18.41,-9.135,-15.715,68.73390219980871,9.682546012972127,25.119476597115646,18.996466499877723
0.1759,0.3587,0.8414,-0.2855,0.246,0.3627,22.8025,-11.7512,-16.975,66.97986934832544,10.610479401426021,23.047369025477323,19.008647944259604
0.1974,0.3874,0.8293,-0.2874,0.2422,0.3704,26.0312,-13.2125,-17.745,65.02894847312756,11.866798887377284,18.68912103101901,19.020859117608858
0.2136,0.4129,0.8175,-0.2889,0.239,0.3561,28.14,-13.405,-18.2437,63.260281191822514,12.90450101225095,16.129975069512703,19.03306639787905
0.2255,0.4509,0.7945,-0.2889,0.239,0.3561,29.0587,-13.0288,-19.1712,60.51079377006623,13.71955954482167,10.6145584225831,19.04526412240973
0.2328,0.461,0.782,-0.29,0.2358,0.3534,28.3062,-12.32,-20.5012,59.51236340417215,14.299600186279386,7.881616849274274,19.05749476115429
0.2361,0.4679,0.7704,-0.29,0.2358,0.3534,26.81,-10.6312,-21.3325,58.75353653580409,14.63481096268194,6.120969607436918,19.06966983504316
0.2367,0.473,0.7637,-0.2916,0.2327,0.3484,24.7537,-9.2487,-21.5775,58.24640944657606,14.747439275456,4.817632158623427,19.081906490364453
0.2403,0.4758,0.7652,-0.2922,0.2299,0.3465,23.6163,-8.1812,-21.84,58.131123024495565,14.912358459518924,4.084754591835688,19.09394495256991
0.2364,0.4766,0.761,-0.2922,0.2299,0.3465,22.96,-7.385,-21.6737,57.94898692199914,14.767696357214955,3.5961989042807003,19.10295212185196
0.2367,0.4865,0.762,-0.2909,0.2258,0.3446,22.295,-6.6325,-22.365,57.463260574570164,14.681600323907828,1.8120229259589231,19.115144183722187
0.2431,0.4824,0.7639,-0.2909,0.2258,0.3446,20.5713,-6.09,-21.7,57.716797597605805,15.01852964853543,2.221937176188483,19.127302269629702
0.2416,0.4774,0.7657,-0.2917,0.2241,0.3302,20.65,-5.5913,-21.0963,58.04317128341816,14.992785575940001,4.589669727959144,19.139507072485948
0.2428,0.4773,0.7791,-0.29,0.2229,0.3378,20.0112,-4.5588,-21.42,58.48746217083837,14.89434392131588,4.437405214570517,19.15162693543541
0.253,0.4839,0.8016,-0.29,0.2229,0.3378,19.7575,-4.2,-21.4638,58.86508306983585,15.09488622561115,5.178616978010405,19.163801655408
0.2521,0.4631,0.8182,-0.2918,0.2195,0.3351,19.075,-3.1763,-21.0525,60.41851446561109,15.020411733580666,7.685741675725657,19.17598734678522
0.2331,0.4284,0.8211,-0.2918,0.2195,0.3351,19.3812,-2.8612,-20.2562,62.35889116347156,14.244046285923146,11.145510879201893,19.184992392569598
0.2111,0.3863,0.8164,-0.2925,0.2169,0.3379,20.1688,-3.1325,-20.37,64.58008310791212,13.295680823359751,14.140022075555091,19.19707332472845
0.1909,0.3567,0.8012,-0.2925,0.2145,0.3253,22.9862,-4.9437,-20.8687,65.9475697284227,12.402895308566173,16.867072966618814,19.209541087379453
0.1866,0.3528,0.7996,-0.2925,0.2145,0.3253,37.7125,-10.0887,-25.1737,66.18602356805889,12.080041066806887,17.455496072718756,19.221476206031653
0.2372,0.4307,0.7921,-0.2905,0.2102,0.325,40.8625,-12.88,-26.9062,61.57129872823161,14.553513722724988,9.702152734938252,19.233690210711135
0.2511,0.4688,0.7803,-0.2905,0.2102,0.325,44.5988,-12.9762,-28.525,59.05607710592664,15.366698222249916,4.506189874160146,19.24586457676745
0.2531,0.4837,0.7789,-0.2898,0.2062,0.3166,46.7775,-12.9412,-29.5312,58.17735252223449,15.428189851363909,2.735270757181005,19.258087783270167
0.246,0.486,0.767,-0.2889,0.201,0.3094,48.825,-12.4075,-30.9487,57.65036668719067,15.173467723032005,1.4126356339617723,19.270295771372915
0.2298,0.4832,0.7462,-0.2889,0.201,0.3094,50.995,-12.6787,-32.4888,57.08556202643308,14.527699039414145,0.25135790962432064,19.28250659080589
0.2184,0.4877,0.711,-0.2894,0.1962,0.3042,52.9287,-13.335,-33.8888,55.57952286796891,14.229220150680453,2.8522982681086404,19.29479314832242
0.2234,0.512,0.7025,-0.2894,0.1962,0.3042,56.77,-13.615,-35.2275,53.942058860396735,14.40465297566459,5.968280968137781,19.303679632153578
0.2327,0.5388,0.6938,-0.287,0.1911,0.2951,59.01,-14.3238,-36.1813,52.19569639331856,14.818552759715205,8.908188193066207,19.315890451586554
0.2384,0.5663,0.6898,-0.2842,0.1858,0.289,60.2612,-14.8312,-36.1725,50.64003451530465,14.949896471821663,11.852336704514245,19.32811188850788
0.239,0.5831,0.6771,-0.2842,0.1858,0.289,60.7775,-14.56,-37.1613,49.287216119280735,14.973178619524502,14.212978044482595,19.340318814861796
0.2324,0.6055,0.6629,-0.282,0.1825,0.2782,60.515,-14.0612,-39.9437,47.61754438024384,14.529407388835903,15.417900603048675,19.352512292397137
0.2222,0.6088,0.6482,-0.282,0.1825,0.2782,60.4275,-12.9587,-38.57,46.80816100938405,14.048387965809244,16.408243821603442,19.364725943160337
0.2116,0.6118,0.6385,-0.2789,0.1794,0.2682,60.4538,-12.8625,-39.0075,46.23248893969788,13.479445155802969,15.888863751588506,19.37694207133749
0.2034,0.611,0.6349,-0.281,0.1706,0.2631,61.285,-13.02,-38.9025,46.10102359319318,13.016526887477276,16.199860798560834,19.389179080575058
0.1964,0.6165,0.624,-0.281,0.1706,0.2631,62.7375,-13.335,-38.1587,45.35777960241414,12.635819449417815,17.001956926948814,19.401311330594257
0.1801,0.6309,0.6019,-0.275,0.1674,0.252,64.12,-14.3325,-37.9837,43.67762492990854,11.70813510979081,17.628797279393936,19.413530644017914
0.1822,0.6464,0.5868,-0.275,0.1674,0.252,65.9488,-15.4437,-37.0825,42.25384577321492,11.78516242346641,19.383567670365466,19.425713857981183
0.1848,0.6649,0.5743,-0.2758,0.1651,0.2429,66.2025,-16.8962,-36.2163,40.83901436779525,11.874385347279667,19.723470728657865,19.43478083911426
0.1891,0.6874,0.5624,-0.2726,0.1613,0.2318,67.6638,-17.1063,-35.4025,39.31025820650628,12.013234743679464,20.170430527639898,19.446943172017114
0.1935,0.7088,0.555,-0.2726,0.1613,0.2318,67.8388,-16.9137,-34.9388,38.07890765066478,12.125547012649863,21.52493911114576,19.459130632975725
0.1972,0.7269,0.5495,-0.2702,0.1585,0.2222,67.0075,-16.52,-34.2737,37.1014976984099,12.207212265136997,21.35388710449214,19.47134782290171
0.1943,0.722,0.5368,-0.2702,0.1585,0.2222,66.36,-16.975,-32.3925,36.637178588322485,12.187690012672814,21.786069218625773,19.483565012827697
0.1979,0.7182,0.5157,-0.2687,0.1534,0.2149,65.8,-17.675,-29.3388,35.693845101910206,12.59070871128471,22.259998640439484,19.495775478344395
0.2028,0.7267,0.5081,-0.2694,0.1493,0.2032,66.3425,-17.0012,-28.6387,34.97126996979875,12.864350841151836,21.203330277417706,19.507955507061162
0.2104,0.7448,0.5067,-0.2694,0.1493,0.2032,65.7475,-16.0825,-28.5775,34.238832065805326,13.128974114406734,21.929558734870568,19.520180483145268
0.245,0.803,0.522,-0.2681,0.1446,0.1951,64.6013,-14.4987,-28.2712,33.044154570981554,14.271084006072067,22.58722577183971,19.532394133908472
0.2374,0.7904,0.5134,-0.2681,0.1446,0.1951,62.6587,-11.4975,-27.1863,33.006101551943345,14.146859088437155,22.54668459830771,19.544613801248406
0.2081,0.7483,0.499,-0.2678,0.1441,0.1869,60.7513,-9.695,-25.62,33.68639535285937,13.11338466827439,19.982309883814445,19.553596904223532
0.1774,0.7099,0.4718,-0.2657,0.1414,0.1782,61.6,-9.0037,-24.955,33.60923993200911,11.866564579014033,18.169766606740318,19.565697655693963
0.1583,0.6966,0.4568,-0.2657,0.1414,0.1782,64.7238,-8.9162,-25.2612,33.26030429068765,10.847178669089264,17.96541600269846,19.577882993154905
0.159,0.7357,0.4094,-0.2646,0.1398,0.1654,68.5038,-10.6662,-23.975,29.15269769385702,10.707775969123103,18.91163473396766,19.590093458671603
0.1734,0.7672,0.3914,-0.2646,0.1398,0.1654,71.96,-12.74,-22.2162,27.05727320325037,11.312932734851321,20.722870255577934,19.602316311258043
0.1931,0.802,0.3736,-0.2639,0.1357,0.1542,74.5325,-14.91,-20.4925,25.004387933720725,12.185336864584297,20.746431559715123,19.61449563214225
0.2062,0.827,0.3459,-0.2629,0.1337,0.1434,74.725,-15.8463,-19.81,22.727001729735644,12.847459903715265,20.489009362924758,19.62671848472869
0.2105,0.85,0.3379,-0.2629,0.1337,0.1434,73.36,-13.5187,-19.0837,21.69289097847417,12.942500944011597,21.13431110430742,19.638940629482573
0.2144,0.8797,0.3192,-0.2664,0.1297,0.132,71.5925,-13.02,-19.0837,19.966621526929973,12.909923212787872,19.841726395347475,19.651171976059686
0.2072,0.8828,0.302,-0.2664,0.1297,0.132,69.1075,-12.4425,-17.2987,18.90034672675977,12.603547400981581,20.264077211941743,19.66325892479527
0.2049,0.8805,0.2914,-0.2671,0.1314,0.1246,66.9988,-13.0637,-16.3537,18.320211228778984,12.496751004649893,18.951232075788457,19.67229865437492
0.2094,0.8824,0.2805,-0.2656,0.129,0.1123,64.4963,-13.3787,-15.4175,17.644647662421146,12.655769870068958,16.979589430516196,19.68451230513812
0.2142,0.8858,0.2534,-0.2656,0.129,0.1123,63.2013,-13.405,-14.56,15.989346911120498,12.867232685593565,17.89707076430046,19.69673515772456
0.2278,0.896,0.2501,-0.2665,0.1271,0.1026,62.02,-14.0262,-14.4375,15.601979211950567,13.273313874004534,16.26443237414093,19.70893500575291
0.2325,0.9018,0.2419,-0.2665,0.1271,0.1026,59.7363,-14.0262,-14.7613,15.024872795265276,13.65425850028657,16.541894842697783,19.72111043355806
0.238,0.9028,0.2326,-0.2683,0.1267,0.1002,58.2925,-13.5187,-15.8812,14.456969884295773,14.11763406748691,16.334291779013952,19.73333222439566
0.2421,0.9003,0.2314,-0.2682,0.1242,0.0866,57.0237,-13.8863,-16.9575,14.415163709003112,14.487769996639456,13.503208884084565,19.74554445949375
0.238,0.8919,0.2128,-0.2682,0.1242,0.0866,55.965,-12.9675,-17.99,13.436136263146974,14.538956041208928,13.85741878156933,19.7577605876709
0.2322,0.8817,0.2018,-0.2662,0.1258,0.0788,54.3112,-12.1363,-21.1925,12.900990689936199,14.414295839190993,12.439804404711365,19.769949464294626
0.2348,0.8862,0.2036,-0.2662,0.1258,0.0788,53.3225,-11.48,-22.6712,12.938220404217896,14.472458697602276,12.328353421845978,19.782162053308994
0.2309,0.8855,0.1927,-0.2639,0.1266,0.0704,51.5112,-12.4075,-23.4675,12.289126872540082,14.310815680585103,10.817287985283484,19.794331818453692
0.2303,0.8822,0.1817,-0.2625,0.1254,0.0638,46.4538,-13.1862,-24.0538,11.651041346879493,14.339643886263318,9.647593302185554,19.803374379363568
0.2332,0.8935,0.1617,-0.2625,0.1254,0.0638,45.5788,-13.0113,-24.1763,10.28633182572549,14.39812020371735,10.33531170740458,19.815538127931532
0.2306,0.8929,0.1557,-0.2626,0.127,0.0558,49.7262,-13.1162,-24.465,9.898935374933865,14.284804219833669,8.641050484683673,19.827756025690075
0.2266,0.897,0.153,-0.2626,0.127,0.0558,54.6963,-13.0812,-25.165,9.683464541559438,14.007543400002543,8.61030255411607,19.839964367709104
0.2256,0.8941,0.1426,-0.2619,0.126,0.0468,54.18,-13.195,-26.1975,9.072543154086814,13.992737155785026,6.887619285396205,19.85220385436062
0.2315,0.8988,0.1276,-0.2594,0.1263,0.0396,54.5563,-13.44,-26.95,8.097184966215767,14.284181917167285,5.676868451481638,19.864409011133144
0.2201,0.9113,0.1048,-0.2594,0.1263,0.0396,55.2388,-13.1862,-27.9037,6.58635145300254,13.544309922021057,6.357198856691696,19.876585500687128
0.2205,0.9102,0.083,-0.2555,0.1269,0.0319,52.4562,-12.95,-28.3062,5.234870280611454,13.562391188856584,5.374472887480761,19.888797027952663
0.2206,0.9303,0.059,-0.2555,0.1269,0.0319,47.3987,-12.7137,-29.3738,3.6603559995181167,13.329033357379862,6.147037252295485,19.901014925711205
0.2108,0.949,0.0449,-0.2513,0.1302,0.023,50.12,-12.53,-28.2362,2.726527838304769,12.562521583864319,4.55179576510512,19.913202032753535
0.2089,0.969,0.0335,-0.2518,0.1313,0.0165,52.7537,-14.2012,-26.4337,1.9932733246796248,12.187953179091975,3.2204341110060777,19.922191152305395
0.2015,1.0153,0.0043,-0.2518,0.1313,0.0165,50.47,-15.4,-25.2087,0.2750379651090193,11.301537343602961,4.067171650823073,19.93439206208258
0.2053,1.0351,-0.0093,-0.2514,0.1325,0.009,44.03,-15.75,-24.9375,-0.49818395746140465,11.224696140845776,2.722166369503504,19.946737723617577
0.213,1.0604,-0.0264,-0.2514,0.1325,0.009,39.1825,-15.4,-26.3987,-1.4044629804801894,11.344901319896332,3.1652540813157315,19.95890147218554
0.2211,1.0799,-0.0232,-0.2491,0.1322,0.0022,35.6912,-13.615,-28.42,-1.235145379863498,11.55417332148291,1.4445455800994824,19.971128925683598
0.2262,1.0908,-0.017,-0.2454,0.1334,0.0023,31.8587,-12.4425,-30.1175,-0.9025304053497561,11.704909667710636,1.194982449753881,19.98335107043748
0.2223,1.0677,-0.0187,-0.2454,0.1334,0.0023,25.515,-11.3312,-31.4387,-0.9999269874117429,11.756567518689309,1.2424930954860913,19.995602236326178
0.213,1.0397,-0.0171,-0.2404,0.1357,0.0014,19.53,-11.0425,-31.2725,-0.9447554195357285,11.58593485502041,1.0174883388423968,20.00785340221488
0.2108,1.0105,-0.0075,-0.2404,0.1357,-0.0031,14.63,-10.99,-32.305,-0.4537518216762566,11.773133589382045,0.4548267734384466,20.02016544170344
0.2034,0.9817,-0.0094,-0.2379,0.1373,-0.0031,10.6662,-9.7475,-35.4025,-0.5419519666429895,11.70804371236856,0.49498638110926846,20.032362104485287
0.1882,0.9529,-0.0077,-0.2353,0.1358,-0.0062,10.395,-8.89,-37.4325,-0.46861957324082404,11.19350332444067,1.343451780841312,20.044615393871656
0.1813,0.9628,-0.0124,-0.2353,0.1358,-0.0062,10.2812,-8.8638,-38.3162,-0.7184721600971686,10.683956534728992,1.246891208415683,20.056863020597575
0.1735,0.9776,-0.0184,-0.2297,0.1398,-0.0047,10.1763,-8.4263,-37.03,-1.052143104635717,10.087519239368445,0.6506248914887132,20.06912728138857
0.1648,0.9913,-0.019,-0.2262,0.1398,-0.0092,8.3737,-7.945,-34.7638,-1.0942045536860596,9.466532490146319,1.7431969157532787,20.081303770942554
0.161,1.0006,-0.0232,-0.2262,0.1398,-0.0092,7.0963,-7.49,-31.9725,-1.3063365402279292,9.155271733235365,1.7016242845856766,20.09352096086854
0.1643,1.0046,-0.0228,-0.2235,0.1398,-0.0081,5.215,-7.0437,-27.8775,-1.3008424408432964,9.277451118578501,1.4557329720992287,20.10573496554802
0.1685,1.0057,-0.0235,-0.2235,0.1398,-0.0081,3.535,-6.195,-23.7038,-1.3332832224739306,9.487897142633798,1.409304423084406,20.117923488255467
0.1734,1.0071,-0.0173,-0.2235,0.1428,-0.0088,1.1987,-5.145,-20.8512,-1.0569781582133506,9.733907559860068,1.792161729797057,20.12689101891435
0.1779,0.9971,-0.0132,-0.2241,0.1405,-0.0075,-0.5862,-3.8675,-18.7775,-0.8576977739861574,10.053492135275276,1.6731418970905936,20.13914820137978
0.1749,0.9884,-0.0107,-0.2241,0.1405,-0.0075,-1.9862,-2.5638,-16.485,-0.7679016327443459,10.039160188096465,1.729741119150013,20.151448915547437
0.1688,0.9795,-0.0079,-0.2227,0.1434,-0.0093,-3.5438,0.9975,-16.24,-0.6189617596764775,9.849505631647633,1.738343547792741,20.16361337194796
0.1658,0.9783,-0.0063,-0.2227,0.1434,-0.0093,-4.1475,2.275,-15.5225,-0.46688016245566155,9.697791413590096,2.1369064380806257,20.175838701948344
0.1629,0.9774,-0.0046,-0.2221,0.1419,-0.0074,-4.55,3.9375,-15.0325,-0.3363806644240721,9.559175609847108,2.0123194027477194,20.188009528841878
0.1604,0.9747,-0.0121,-0.2226,0.1419,-0.0082,-4.865,4.5938,-13.9562,-0.5966269043445602,9.503077436058364,1.9054643453458162,20.200210084702782
0.1602,0.975,0.0045,-0.2226,0.1419,-0.0082,-6.7463,4.8913,-12.25,0.09730749773754752,9.403945658720728,2.440308149584642,20.21238834383816
0.1652,0.9701,0.0053,-0.2228,0.1428,-0.0075,-6.4313,4.9963,-10.7012,0.26842682690483394,9.597457282601386,2.426522630647518,20.224568372554927
0.1673,0.9668,0.0047,-0.2228,0.1428,-0.0075,-7.42,5.565,-10.3512,0.27680024537098197,9.76568113971997,2.4079009044717674,20.236705223485743
0.1723,0.9632,0.0106,-0.223,0.1432,-0.0072,-8.1112,5.9412,-10.115,0.5762372956218311,10.057651973431128,2.5557419053054997,20.245652227000484
0.1737,0.9593,0.0149,-0.2263,0.1413,-0.0108,-8.12,6.2038,-9.1787,0.8417966220869566,10.224413828132953,3.568223138534249,20.257792617094086
0.1792,0.9561,0.0148,-0.2263,0.1413,-0.0108,-8.8462,6.37,-8.9075,0.8806306324730222,10.545952010353755,3.748513524990222,20.269962736155062
0.1795,0.9536,0.0228,-0.2271,0.1404,-0.0056,-7.98,7.2362,-9.24,1.2930666514345037,10.636540394871645,2.7582646725151583,20.28204791530925
0.1733,0.9501,0.0271,-0.2271,0.1404,-0.0056,-8.4437,8.365,-9.205,1.5840727296836197,10.38931765503371,2.770551726194767,20.294204939467928
0.1735,0.9423,0.0274,-0.2271,0.1395,-0.0054,-9.5637,8.645,-9.1787,1.6553395560417137,10.42116759518966,2.735832233486319,20.306299674361632
0.1731,0.9388,0.0237,-0.2271,0.1395,0.0006,-7.9713,8.6712,-9.4237,1.4789322118771475,10.439471798156747,1.0632272575857047,20.315207747085765
0.1728,0.9452,0.0292,-0.2275,0.1405,0.0006,-8.4875,8.47,-9.9137,1.7273231358955508,10.373392488878597,1.0769228708428233,20.327326902202667
0.1757,0.9504,0.0345,-0.2294,0.1401,-0.005,-8.0762,7.9888,-10.6575,2.0247049202868954,10.443459119389935,2.656105607108029,20.339468000128825
0.1795,0.9554,0.0369,-0.2294,0.1401,-0.005,-7.595,8.1462,-11.4187,2.180630026831345,10.573410205638602,2.9424810678702373,20.351645905347922
0.1781,0.9502,0.0389,-0.2309,0.1394,-0.0042,-8.1112,8.3037,-11.6112,2.319192478809121,10.595992633053598,2.82992666958807,20.36387725192504
0.1756,0.9453,0.0385,-0.2309,0.1394,-0.0042,-7.7175,8.2775,-12.3287,2.330111445535129,10.550534418256571,2.805524492022729,20.37600950194424
0.1731,0.939,0.0442,-0.2319,0.137,-0.004,-7.8225,8.1462,-13.0812,2.6364139238100845,10.51045900479702,2.922316251663974,20.38493633223112
0.1754,0.9401,0.0434,-0.2334,0.1376,-0.003,-6.9913,8.0675,-13.8425,2.641942819741391,10.519554982399576,2.6561005574315444,20.397096187720027
0.172,0.9489,0.0423,-0.2334,0.1376,-0.003,-5.985,7.3238,-14.6912,2.5728227574215197,10.386395702651521,2.5612481788236074,20.409289311339087
0.1762,0.9503,0.0468,-0.2303,0.1393,-0.0026,-5.4862,7.84,-14.455,2.7560450092175395,10.434883351481727,2.673183984714496,20.421461199981454
0.1728,0.9532,0.0415,-0.2303,0.1393,-0.0026,-5.915,7.875,-14.8837,2.5538371568429183,10.339877237546157,2.4835416054313173,20.43364618352612
0.1698,0.9526,0.0462,-0.2304,0.1398,0.0018,-6.5275,7.3413,-15.365,2.7314469313195655,10.18374746065482,1.5549381516786438,20.445779141377873
0.1657,0.9526,0.0452,-0.2321,0.1384,0.0008,-6.7375,7.7088,-15.0412,2.7194826078109298,9.990832399000666,1.6024676164953888,20.45785476479255
0.1699,0.9503,0.0487,-0.2321,0.1384,0.0008,-6.8513,7.7613,-15.1112,2.8929258691080935,10.070643908905632,1.7421820263626733,20.466792920400337
0.172,0.9505,0.0551,-0.2328,0.1386,-0.0026,-6.5887,7.5862,-15.085,3.232645147298927,10.171932775305597,2.8093023140574522,20.47898427443801
0.1706,0.9503,0.0526,-0.2328,0.1386,-0.0026,-6.685,7.2975,-15.1988,3.1808132355102527,10.165966098843224,2.859479582842993,20.49112218711766
0.1693,0.9536,0.0598,-0.231,0.1398,-0.0044,-7.9012,7.35,-15.4962,3.523693821692239,10.088726780768601,3.586236910534207,20.503313187239055
0.1693,0.9558,0.0573,-0.2307,0.1374,-0.0039,-8.0237,7.6213,-15.5487,3.445217300810191,10.047907831932825,3.4329843707113006,20.51548896896048
0.1707,0.9554,0.0596,-0.2307,0.1374,-0.0039,-8.6363,7.9538,-14.98,3.551948939823485,10.084355206064123,3.4979189081580704,20.527669705509805
0.1682,0.9477,0.0641,-0.229,0.141,-0.0004,-8.6625,7.84,-14.8487,3.824527103470578,10.060699808798967,2.9103010194107357,20.539812219101073
0.1663,0.9481,0.0624,-0.229,0.141,-0.0004,-8.3125,7.5338,-14.8137,3.7743194806934945,9.987814678588908,2.7686211461238956,20.548753913871643
0.1649,0.952,0.0636,-0.2305,0.1375,0.0055,-8.575,7.2362,-14.4725,3.815224384114916,9.903016284188116,1.274339070913685,20.560896781379192
0.166,0.9553,0.0674,-0.2305,0.1375,0.0055,-8.3212,7.0613,-13.895,4.002962828414093,9.887352492574477,1.1925501731737054,20.573052743789034
0.1656,0.9569,0.0697,-0.2318,0.1391,0.0048,-8.4175,6.6325,-13.5537,4.14213239004056,9.882927488184723,1.4430929696832715,20.58518994863613
0.1681,0.9543,0.0684,-0.2311,0.1362,0.0008,-9.1787,5.9938,-13.4925,4.105291989060577,9.891094324418846,2.3299590280883886,20.597298840180965
0.1669,0.9467,0.069,-0.2311,0.1362,0.0008,-9.2487,5.5037,-13.5012,4.160344787620446,9.898594254058358,2.513205258926307,20.609400299483955
0.1651,0.942,0.0753,-0.2321,0.1372,0.0026,-9.415,5.4425,-13.5975,4.517876403155672,9.898654782430274,2.363019909021137,20.618320405361548
0.1713,0.939,0.0766,-0.2321,0.1372,0.0026,-8.7412,4.7075,-14.595,4.643246443468636,10.101116951187308,2.3964814564684946,20.630499018413204
0.1755,0.9398,0.0818,-0.233,0.1381,0.0012,-8.015,3.9638,-14.3062,4.922888324915578,10.28182405508283,2.8670436475250654,20.6426443633347
0.1728,0.94,0.0785,-0.2307,0.1374,0.0006,-7.2188,3.7713,-14.9275,4.800249660098509,10.338354144682716,3.0139166634901366,20.654746884386523
0.1751,0.944,0.0805,-0.2307,0.1374,0.0006,-7.595,3.6312,-15.6012,4.861818019106443,10.426796163430245,3.1045637221835993,20.66687807265689
0.1783,0.9505,0.0841,-0.2316,0.139,0.0033,-7.5338,3.885,-16.6775,5.02359666750182,10.545402454504433,2.6846948128819217,20.675811981269334
0.172,0.9509,0.0778,-0.2316,0.139,0.0033,-6.7025,3.92,-16.66,4.745143373760484,10.299789835586806,2.373356277827124,20.687950601781544
0.1666,0.9489,0.087,-0.2334,0.1373,0.0012,-6.615,4.0075,-16.3013,5.140254596556958,10.020689852447793,2.9525509614140693,20.700048168005473
0.1641,0.9461,0.088,-0.2334,0.1373,0.0058,-7.7438,3.8763,-16.3187,5.285735646996235,9.858311093143339,2.1899226660289615,20.71217864844328
0.1626,0.943,0.087,-0.2332,0.1378,0.0058,-7.4812,3.6925,-16.3187,5.273598901675918,9.773771490912582,1.9853733724426912,20.724344520508918
0.1582,0.9398,0.0822,-0.2299,0.1372,0.0046,-7.1487,3.2638,-16.4062,5.048174292285359,9.586393928470594,2.0432932809259934,20.736454119886307
0.1582,0.9389,0.0928,-0.2299,0.1372,0.0046,-7.0788,2.0125,-16.6688,5.535956778292486,9.53534290419384,2.2728184041500734,20.745393691159208
0.1633,0.9383,0.0867,-0.2292,0.1374,0.0058,-6.4925,1.6887,-16.835,5.331622976081797,9.76167892248438,2.139663724291808,20.757505767950544
0.163,0.943,0.0879,-0.2292,0.1374,0.0058,-6.2125,1.7675,-16.8262,5.326694408718865,9.764449644737166,2.067678837521658,20.7696518207046
0.1685,0.9445,0.0924,-0.2298,0.1371,0.0088,-5.7575,1.2775,-16.7562,5.524808829233407,9.995027906009893,1.906037170195265,20.781795042128426
0.166,0.9472,0.0912,-0.2306,0.1374,0.0058,-5.6788,1.2775,-16.5812,5.505848211607459,9.920501683951304,1.9427800722663642,20.793922691236006
0.169,0.9451,0.0917,-0.2306,0.1374,0.0058,-5.8713,1.75,-16.2663,5.5334532072833005,10.045112937206035,2.016041135169062,20.805980972753048
0.1677,0.9407,0.0953,-0.2287,0.1371,0.0068,-5.9237,1.61,-16.0912,5.726711932648419,10.054017669138327,2.0127511851935638,20.814959474816558
0.1661,0.9409,0.0958,-0.2287,0.1371,0.0068,-5.4163,1.6625,-15.855,5.790920473269505,9.989597715655625,2.017176897804296,20.827071905524175
0.1663,0.9387,0.0974,-0.2297,0.1375,0.005,-5.1363,1.6975,-15.4088,5.88631427474271,9.992247035776673,2.257594003298098,20.8392232670224
0.1668,0.9392,0.0908,-0.2286,0.1383,0.0153,-4.2,1.8288,-15.505,5.661864500790999,10.013599366522751,0.995272340615521,20.85140046440894
0.1622,0.9376,0.0931,-0.2286,0.1383,0.0153,-3.99,1.4175,-15.295,5.666987321176614,9.858996918140832,0.5793478839034939,20.863472194744556
0.1638,0.9394,0.0958,-0.229,0.1374,0.006,-4.1563,1.89,-14.4112,5.762039615230436,9.85094976395375,1.3646874049864828,20.87238805362681
0.1646,0.9409,0.0914,-0.229,0.1374,0.006,-3.3863,2.555,-14.3413,5.66760232864417,9.862132960827092,1.7944983593194412,20.884521719311124
0.1653,0.9425,0.0954,-0.2298,0.139,0.0065,-2.94,3.01,-14.175,5.696425514391239,9.875207336651775,2.0181020599236974,20.89667308080935
0.1657,0.9454,0.0971,-0.2298,0.139,0.0065,-2.9575,2.6688,-14.42,5.741116069220304,9.88197030726876,2.1237493592491723,20.908787988930914
0.1646,0.9465,0.091,-0.2306,0.1362,0.006,-2.9488,2.45,-13.8075,5.675851772896441,9.871594158107973,2.040541958586853,20.920957046243057
0.1639,0.9467,0.0911,-0.2291,0.1375,0.0084,-3.0713,2.7388,-13.3962,5.617959542517209,9.855538732065163,1.6102292581649842,20.933066645620446
0.163,0.9453,0.0917,-0.2291,0.1375,0.0084,-1.8288,2.2838,-14.105,5.584465784051411,9.816442866881815,1.4871029384876708,20.94199453765616
0.1623,0.9489,0.0877,-0.229,0.1364,0.0075,-2.485,2.6863,-14.0262,5.554508770489167,9.771559581463567,1.4551411490059818,20.954138820828824
0.1609,0.9466,0.0891,-0.229,0.1364,0.0075,-2.4325,2.6163,-14.1925,5.529815109682751,9.709809974600285,1.4826528253577576,20.966227893062072
0.1668,0.9457,0.0929,-0.229,0.1393,-0.0013,-3.08,1.9862,-14.6212,5.556159398602866,9.833944597154929,2.839446703813811,20.978408629611398
0.1663,0.9476,0.0855,-0.2298,0.1384,0.0075,-3.5088,2.3363,-14.0262,5.364881484169738,9.857859416347116,2.0218419060925945,20.9906222803746
0.1656,0.9489,0.0888,-0.2298,0.1384,0.0075,-3.0538,2.7125,-13.65,5.3590268566134736,9.857830669286358,1.7145336153529487,21.002695780291607
0.1651,0.941,0.0905,-0.2297,0.1358,0.0075,-3.1063,2.905,-13.8512,5.4045573969996985,9.867524526765798,1.6151094614889152,21.01156633789024
0.1641,0.9376,0.0863,-0.2297,0.1358,0.0075,-2.9925,1.785,-13.7637,5.3630715301190754,9.870150014501236,1.5235028300113544,21.02366213453278
0.1674,0.939,0.0808,-0.2297,0.1384,0.009,-2.5375,1.295,-13.93,5.339155941888517,9.919847047652556,1.368310550800235,21.03585207290534
0.1713,0.9479,0.0872,-0.2297,0.1384,0.009,-2.3888,1.1112,-14.4287,5.324981541689246,10.047243155296126,1.339832856012685,21.048058999259254
