AcclX,AcclY,AcclZ,MagX,MagY,MagZ,GyroX,GyroY,GyroZ,Roll,Pitch,Yaw,Time(s)
-0.2025,0.9667,0.0854,-0.6954,0.0418,0.0937,-2.7738,1.1112,-14.3762,0,0,0,1.6196532540655246
-0.1964,0.9426,0.0834,-0.697,0.0414,0.0958,-2.2225,0.7088,-14.91,0,0,0,1.6317798414242723
-0.2042,0.9658,0.09,-0.697,0.0414,0.0958,-2.6863,0.8225,-14.9537,0,0,0,1.6439043052853501
-0.203,0.9665,0.0847,-0.6968,0.0421,0.0979,-2.765,1.0937,-14.5775,0,0,0,1.6560386788022199
-0.2029,0.9682,0.0907,-0.6968,0.0421,0.0979,-2.835,1.015,-14.5513,0,0,0,1.6680725400960599
-0.2006,0.9673,0.0878,-0.6968,0.0416,0.1012,-2.5813,1.0675,-14.3937,0,0,0,1.6774722025307136
-0.2029,0.9665,0.0895,-0.6968,0.0416,0.1012,-2.3975,1.0937,-14.735,0,0,0,1.6895910037313393
-0.2047,0.9661,0.0881,-0.6955,0.0399,0.101,-2.3975,1.0412,-14.105,0,0,0,1.7017066196854604
-0.2056,0.9665,0.0879,-0.6966,0.0412,0.0962,-3.0275,1.1638,-14.2975,0,0,0,1.7138119720675116
-0.2031,0.9695,0.0881,-0.6966,0.0412,0.0962,-3.43,1.365,-14.14,0,0,0,1.72588511806824
-0.2025,0.9665,0.0897,-0.6954,0.0421,0.0974,-2.975,1.19,-14.3587,0,0,0,1.7380063966828134
-0.2044,0.9686,0.0913,-0.6954,0.0421,0.0974,-3.1763,1.295,-14.2537,0,0,0,1.750108209902082
-0.2029,0.9668,0.0902,-0.6953,0.0421,0.092,-2.4938,0.9975,-14.6387,0,0,0,1.7594827442809784
-0.2045,0.9662,0.0877,-0.6972,0.0426,0.0968,-2.5025,0.77,-14.1925,0,0,0,1.771548458039863
-0.2044,0.9663,0.0886,-0.6972,0.0426,0.0968,-2.2313,0.665,-14.4987,0,0,0,1.783693802961359
-0.2025,0.9664,0.09,-0.697,0.0408,0.0978,-2.5813,0.7088,-14.5687,0,0,0,1.7958837413339175
-0.2025,0.9664,0.087,-0.697,0.0408,0.0978,-2.4063,0.9887,-14.3675,0,0,0,1.8078765483394779
-0.204,0.9681,0.0914,-0.6969,0.041,0.1044,-2.5288,0.6212,-14.7262,0,0,0,1.8199564187494934
-0.2033,0.967,0.0872,-0.6974,0.0429,0.0975,-2.4763,0.6913,-15.1462,0,0,0,1.8320893766012498
-0.2044,0.9667,0.0859,-0.6974,0.0429,0.0975,-2.555,0.8838,-15.0062,0,0,0,1.8441497816159604
-0.2059,0.9675,0.0907,-0.6982,0.0415,0.0973,-2.5638,1.0325,-14.5075,0,0,0,1.8535979305807375
-0.2054,0.9684,0.0869,-0.6982,0.0415,0.0973,-2.4237,1.2512,-14.2537,0,0,0,1.865729472767381
-0.2011,0.9668,0.0888,-0.6956,0.0419,0.0974,-2.9138,0.49,-14.56,0,0,0,1.8777343129264028
-0.2011,0.9674,0.0825,-0.6963,0.0411,0.1006,-2.765,0.7962,-14.5075,0,0,0,1.889869394275829
-0.205,0.967,0.087,-0.6963,0.0411,0.1006,-2.4938,1.3387,-14.6212,0,0,0,1.9019864258950632
-0.2025,0.9658,0.0885,-0.698,0.0412,0.0959,-2.8612,1.6013,-14.8487,0,0,0,1.9141207994119327
-0.2045,0.9661,0.0861,-0.698,0.0412,0.0959,-2.6513,1.2775,-15.2337,0,0,0,1.9261674016917905
-0.202,0.967,0.0851,-0.6978,0.0414,0.0948,-2.625,1.4,-14.6825,0,0,0,1.9355504300613655
-0.2047,0.9672,0.0897,-0.6978,0.0426,0.0999,-2.1,1.365,-14.6825,0,0,0,1.947667815596878
-0.2033,0.9672,0.0897,-0.6958,0.0426,0.0999,-3.15,1.33,-14.7525,0,0,0,1.9597890942114515
-0.2035,0.9645,0.0855,-0.6978,0.0403,0.097,-2.4763,1.2687,-14.4112,0,0,0,1.9719167433190339
-0.2031,0.9659,0.0909,-0.6978,0.0403,0.097,-1.995,0.7263,-14.5687,0,0,0,1.9839626377663353
-0.205,0.9667,0.0892,-0.6976,0.041,0.0986,-3.465,0.5513,-13.6675,0,0,0,1.9960839163809088
-0.2017,0.9667,0.0922,-0.6976,0.041,0.0986,-2.6688,1.2512,-13.9475,0,0,0,2.0082133350698825
-0.2053,0.9653,0.0869,-0.6951,0.0409,0.0951,-2.8,0.77,-14.5862,0,0,0,2.020277633163654
-0.2037,0.9678,0.0827,-0.697,0.0406,0.0972,-2.9488,0.9363,-14.945,0,0,0,2.029645797049542
-0.2039,0.9657,0.0905,-0.697,0.0406,0.0972,-2.73,0.8925,-14.63,0,0,0,2.0417791088175763
-0.2028,0.9686,0.0872,-0.697,0.0419,0.0974,-2.485,0.9363,-14.5862,0,0,0,2.053892601274028
-0.2062,0.971,0.0877,-0.697,0.0419,0.0974,-2.8788,0.8487,-14.1662,0,0,0,2.065988397916566
-0.2016,0.9671,0.0905,-0.697,0.0411,0.0987,-3.325,0.91,-14.77,0,0,0,2.0781174626892613
-0.2008,0.9673,0.0921,-0.695,0.0406,0.0982,-3.3338,1.2775,-14.5513,0,0,0,2.0901838842807026
-0.2055,0.9672,0.0874,-0.695,0.0406,0.0982,-3.15,0.9975,-14.4637,0,0,0,2.102314364718511
-0.2045,0.9668,0.0868,-0.6976,0.0404,0.0978,-2.7562,1.155,-14.2187,0,0,0,2.1116733267811636
-0.2028,0.9685,0.092,-0.6976,0.0404,0.0978,-3.4213,0.945,-14.56,0,0,0,2.123802745470137
-0.2022,0.9667,0.0855,-0.6966,0.0422,0.0938,-2.6513,1.0237,-14.385,0,0,0,2.1358500555825515
-0.2038,0.9663,0.0818,-0.6978,0.0413,0.0972,-2.4938,1.2687,-14.6475,0,0,0,2.147959654959942
-0.2033,0.9678,0.0895,-0.6978,0.0413,0.0972,-1.9775,1.3125,-15.26,0,0,0,2.160082703155907
-0.206,0.9648,0.0888,-0.697,0.0398,0.0971,-2.9225,1.0937,-15.1375,0,0,0,2.172177084133332
-0.2033,0.9672,0.087,-0.697,0.0398,0.0971,-2.8875,1.2862,-14.805,0,0,0,2.1842675720316955
-0.2,0.9666,0.0862,-0.6966,0.0418,0.0967,-3.08,1.505,-14.4375,0,0,0,2.193649184736157
-0.2053,0.9691,0.0885,-0.6967,0.0411,0.0962,-2.5638,1.4,-14.4987,0,0,0,2.2057488744577562
-0.2048,0.9686,0.0872,-0.6967,0.0411,0.0962,-2.765,1.0237,-14.6037,0,0,0,2.217875815732782
-0.2026,0.9661,0.088,-0.6964,0.0402,0.0978,-2.6425,1.1025,-14.7262,0,0,0,2.229966657547424
-0.204,0.9681,0.0892,-0.6964,0.0402,0.0978,-2.7213,1.0762,-14.3062,0,0,0,2.2420359104690912
-0.2047,0.9664,0.0914,-0.6965,0.0421,0.1049,-2.7125,0.6825,-14.2975,0,0,0,2.2541593125813346
-0.2021,0.9672,0.0886,-0.696,0.0412,0.0944,-3.0013,1.1462,-14.4462,0,0,0,2.2663499587864497
-0.202,0.9662,0.0851,-0.696,0.0412,0.0944,-2.7738,0.9887,-14.6562,0,0,0,2.278411425549995
-0.2026,0.9684,0.086,-0.6973,0.0408,0.0974,-2.5813,0.875,-14.0875,0,0,0,2.2878001165800224
-0.2042,0.9666,0.088,-0.6973,0.0408,0.0974,-3.2813,1.1025,-14.4987,0,0,0,2.2998445953622104
-0.2006,0.9683,0.0917,-0.6958,0.0417,0.0969,-3.01,1.5225,-14.2625,0,0,0,2.3119552564884356
-0.2042,0.9678,0.085,-0.6958,0.0417,0.0969,-3.1937,1.12,-14.4725,0,0,0,2.3240602549542086
-0.204,0.9653,0.0856,-0.6961,0.0427,0.0971,-2.9925,0.595,-14.42,0,0,0,2.3361794100711126
-0.2029,0.9678,0.0876,-0.6962,0.041,0.0976,-3.1937,0.7525,-14.2887,0,0,0,2.348261403978798
-0.2047,0.9662,0.0866,-0.6962,0.041,0.0976,-2.7475,1.0587,-13.9912,0,0,0,2.3603975470770586
-0.2037,0.9666,0.09,-0.6977,0.0422,0.0954,-2.625,0.8225,-14.1138,0,0,0,2.369755093474598
-0.2014,0.9673,0.0839,-0.6977,0.0422,0.0954,-2.5638,1.2687,-13.895,0,0,0,2.3818738946752234
-0.2024,0.9679,0.0903,-0.6966,0.0414,0.0998,-2.0913,1.1812,-14.4462,0,0,0,2.3939381927689953
-0.2013,0.9681,0.0885,-0.6978,0.04,0.0979,-2.6338,1.05,-14.385,0,0,0,2.4060315119975852
-0.2061,0.9678,0.0887,-0.6978,0.04,0.0979,-2.94,1.225,-14.2887,0,0,0,2.4181719020911854
-0.2026,0.9668,0.0875,-0.697,0.0414,0.0959,-2.52,1.2512,-14.875,0,0,0,2.4303048599429418
-0.2044,0.9669,0.085,-0.697,0.0414,0.0959,-2.9838,0.84,-15.2512,0,0,0,2.4422902347066584
-0.2043,0.967,0.0864,-0.6965,0.0394,0.1,-2.0913,0.8663,-15.0587,0,0,0,2.4544267317211976
-0.2027,0.9678,0.0874,-0.7015,0.038,0.0965,-2.17,0.8487,-15.1725,0,0,0,2.4638433821372088
-0.2027,0.9673,0.0904,-0.7015,0.038,0.0965,-2.3013,1.19,-14.5687,0,0,0,2.4759731547424604
-0.2047,0.9654,0.0911,-0.696,0.0424,0.0967,-0.4812,1.1287,-14.385,0,0,0,2.488095849022147
-0.2025,0.9681,0.0849,-0.696,0.0424,0.0967,-2.6163,0.8138,-14.3675,0,0,0,2.5001406817206138
-0.2005,0.9676,0.0816,-0.6956,0.043,0.1014,-2.5988,0.6388,-14.49,0,0,0,2.5122647916654133
-0.2037,0.9664,0.0875,-0.6976,0.0398,0.0984,-3.1763,0.77,-14.1487,0,0,0,2.5244037660939007
-0.2026,0.9634,0.0876,-0.6976,0.0398,0.0984,-2.8875,0.7088,-14.2275,0,0,0,2.536530353452648
-0.2018,0.9687,0.088,-0.6955,0.0387,0.0969,-3.185,0.4462,-15.12,0,0,0,2.54589356251064
-0.2,0.9669,0.0853,-0.6955,0.0387,0.0969,-3.43,1.47,-14.5425,0,0,0,2.5579472431160633
-0.2031,0.9656,0.0864,-0.6967,0.0413,0.0938,-2.9313,1.1812,-14.245,0,0,0,2.570054718995784
-0.2029,0.9662,0.0841,-0.6966,0.0462,0.0966,-2.6338,1.47,-14.2012,0,0,0,2.582167857535957
-0.207,0.9667,0.0906,-0.6966,0.0462,0.0966,-2.8087,1.5487,-13.8687,0,0,0,2.594290551815644
-0.2031,0.9667,0.0886,-0.6969,0.0428,0.0986,-2.4675,0.9625,-14.0963,0,0,0,2.606362282151259
-0.202,0.9678,0.0898,-0.6969,0.0428,0.0986,-3.2813,1.3737,-14.3325,0,0,0,2.6184729432774843
-0.2023,0.9659,0.0875,-0.6951,0.0418,0.0986,-3.08,1.3475,-14.4812,0,0,0,2.6305305169619686
-0.2056,0.967,0.0871,-0.7156,0.042,0.0999,-2.5988,1.015,-14.6125,0,0,0,2.6399896373313725
-0.2043,0.9653,0.0892,-0.6977,0.042,0.0999,-2.5375,1.2687,-14.455,0,0,0,2.652085080057632
-0.2035,0.9681,0.0877,-0.696,0.0402,0.0966,-2.03,1.19,-14.595,0,0,0,2.6641553947281342
-0.2037,0.9667,0.0888,-0.696,0.0402,0.0966,-2.4063,0.9538,-14.6737,0,0,0,2.6762625166915766
-0.2023,0.9652,0.0872,-0.6961,0.043,0.0952,-2.5813,0.8487,-15.225,0,0,0,2.6883696386550193
-0.2033,0.9676,0.0922,-0.6961,0.043,0.0952,-2.1438,1.1287,-15.0675,0,0,0,2.7004456159859735
-0.2029,0.9662,0.0912,-0.6954,0.0414,0.0937,-2.8087,1.2775,-14.9275,0,0,0,2.712562647605208
-0.2053,0.9665,0.0874,-0.6942,0.0422,0.0967,-2.59,1.1462,-14.7875,0,0,0,2.721949569053844
-0.203,0.9677,0.087,-0.6942,0.0422,0.0967,-3.3863,1.2775,-14.4375,0,0,0,2.7340492587754426
-0.2017,0.9661,0.0856,-0.6951,0.0429,0.0975,-3.1063,1.015,-14.4812,0,0,0,2.7461471789156504
-0.2017,0.969,0.0861,-0.6951,0.0429,0.0975,-2.6688,0.5513,-14.7437,0,0,0,2.7582121848419785
-0.2028,0.9686,0.0902,-0.698,0.0417,0.0982,-2.5463,0.9013,-14.9537,0,0,0,2.770319306805421
-0.206,0.966,0.0892,-0.6974,0.0422,0.0973,-2.4938,1.1638,-14.7962,0,0,0,2.782462174312969
-0.2043,0.9651,0.0823,-0.6974,0.0422,0.0973,-2.2662,0.8663,-15.1112,1.0726665767884258,-7.0533792869379015,0.8329992512643716,17.07820948092161
-0.2033,0.9675,0.0909,-0.6981,0.0426,0.097,-2.7562,1.0412,-14.3062,1.811656598754377,-8.924788029396575,1.174605591142067,17.082948065971408
-0.2022,0.969,0.0876,-0.6981,0.0426,0.097,-2.9225,0.8925,-14.6825,2.7248363944163256,-10.34882990837109,1.736262806993587,17.087398563170694
-0.2039,0.9669,0.0862,-0.6962,0.0434,0.1019,-2.6075,0.8838,-14.3325,2.8571341711376412,-10.957954647110476,2.3304677033087606,17.09190604089078
-0.2026,0.9654,0.0852,-0.6978,0.0414,0.0969,-2.765,0.7788,-14.385,3.2464325846330486,-11.315324238171774,3.2477704923385167,17.09652323265713
-0.2031,0.9686,0.0857,-0.6978,0.0414,0.0969,-2.415,1.225,-13.895,3.459403905039108,-11.40742146656076,4.087363743651815,17.100944708721595
-0.2041,0.967,0.0925,-0.6961,0.0399,0.0974,-2.3888,1.1112,-14.7613,3.735271099257406,-11.647659360577872,4.480740025770733,17.105346011558197
-0.203,0.9662,0.0904,-0.6961,0.0399,0.0974,-3.1588,1.2075,-14.3762,4.345500541754301,-11.71763532504998,5.056957875051968,17.11005876071968
-0.2061,0.967,0.0873,-0.6971,0.0422,0.0972,-2.1788,1.085,-14.5513,4.564918986840532,-11.843378034384825,5.286184399398138,17.114570485435106
-0.204,0.9672,0.0871,-0.6986,0.0418,0.0954,-2.8612,1.1112,-14.0175,4.703340391208801,-11.84869158482154,5.528048202188199,17.118993023248407
-0.2035,0.9668,0.0862,-0.6986,0.0418,0.0954,-3.6225,1.435,-14.525,4.906182674900382,-11.845089120450258,6.135718001511765,17.123409898401253
-0.2027,0.9687,0.0925,-0.697,0.041,0.0979,-3.3425,0.9538,-14.2537,5.1489123796363465,-11.815806798209776,6.187292597662199,17.12783916062384
-0.2049,0.9681,0.0899,-0.697,0.041,0.0979,-3.08,1.3737,-14.1575,5.203230464318366,-11.844032760426368,6.610263650644938,17.132261344520863
-0.205,0.9663,0.0903,-0.6969,0.0398,0.0942,-2.5288,1.0675,-14.4287,5.2058313994396315,-11.880210336386842,6.669785294457367,17.136665478687693
-0.204,0.9643,0.0875,-0.6979,0.0405,0.095,-2.3888,0.9975,-14.3238,5.20293528497208,-11.887100545893174,6.677348491238896,17.141165524165935
-0.2018,0.9665,0.0926,-0.6979,0.0405,0.095,-2.6775,1.1812,-14.245,5.233795813060274,-11.833248858924053,6.802947519326399,17.145622037941948
-0.2008,0.9671,0.0886,-0.6981,0.0422,0.0966,-3.1412,1.2862,-14.4287,5.2340540054723155,-11.767530884136935,6.981479505531523,17.150230381801343
-0.2058,0.9667,0.0849,-0.6981,0.0422,0.0966,-3.185,1.3562,-14.28,5.15043876751622,-11.84643137581148,7.148356611016142,17.153429077124372
-0.2053,0.9664,0.0909,-0.6966,0.0417,0.0967,-3.43,1.12,-14.7,5.2549326029929375,-11.895331942474444,7.201377422205266,17.155115134274066
-0.2068,0.9712,0.0895,-0.6966,0.0417,0.0939,-3.08,1.4088,-14.6825,5.258484756745763,-11.933783471396254,7.255894980761894,17.156775709451722
-0.2018,0.9693,0.088,-0.6982,0.0449,0.0939,-2.7562,1.2512,-15.0412,5.246270491073438,-11.806065190643228,7.273422825868735,17.158539274266357
-0.2018,0.9675,0.0864,-0.697,0.0417,0.0982,-2.59,1.1287,-14.8925,5.240548756581761,-11.767572068037316,7.330544322982095,17.160260723043876
-0.2033,0.9683,0.0914,-0.697,0.0417,0.0982,-2.7738,0.98,-15.0237,5.268464921214949,-11.789948311532545,7.333620402128377,17.161923775635483
-0.204,0.9678,0.0914,-0.6985,0.0418,0.0991,-2.5113,1.12,-14.6825,5.2729902571164535,-11.821205012054183,7.384730146702817,17.16358682822709
-0.2046,0.9698,0.0851,-0.6985,0.0418,0.0991,-2.9313,1.12,-14.4637,5.201515118408083,-11.842411528829631,7.433258492675968,17.16524067899546
-0.2059,0.9671,0.0888,-0.6974,0.0406,0.1082,-3.1238,1.4262,-14.35,5.217850899416642,-11.894623224339368,7.7709225784680696,17.166901254173116
-0.2015,0.9607,0.0944,-0.6963,0.042,0.0962,-3.2462,1.0762,-14.42,5.379836687845132,-11.849621179615111,7.7523928456380995,17.168612085462286
-0.1973,0.9698,0.0874,-0.6963,0.042,0.0962,-2.3363,0.7263,-14.6125,5.339567430645461,-11.656692460654293,7.714856880328032,17.170489611318526
-0.2034,0.9709,0.0866,-0.6955,0.0442,0.0975,-2.8263,1.2687,-14.1487,5.286821842485478,-11.69941656964478,7.705893585037052,17.17217708413333
-0.204,0.9681,0.0865,-0.6955,0.0442,0.0975,-3.5963,1.3037,-14.2887,5.194210438869356,-11.758959888447023,7.6983446173788055,17.173825980073804
-0.2008,0.9679,0.0872,-0.697,0.041,0.097,-3.22,1.155,-14.7262,5.175640156355845,-11.715262518695965,7.690280380710322,17.175506374563046
-0.2061,0.9676,0.0865,-0.6972,0.0412,0.0977,-3.2375,1.3125,-14.2362,5.148231780010581,-11.811414181345368,7.693360318981305,17.177240564326585
-0.1902,0.9659,0.0856,-0.6972,0.0412,0.0977,-2.5375,0.9625,-14.105,5.147330800468296,-11.591199924979975,7.6932967294370815,17.178955996527375
-0.1989,0.9679,0.0832,-0.6958,0.0418,0.0968,-2.45,0.6737,-14.0525,5.126346810980508,-11.585469472153287,7.682178486327287,17.18063320577011
-0.2032,0.9703,0.0905,-0.6958,0.0418,0.0968,-2.6775,0.42,-14.1138,5.149473516453601,-11.645737628317116,7.6593873624730335,17.18229519661288
-0.2006,0.9684,0.0838,-0.6969,0.0418,0.0957,-2.4763,1.1287,-14.875,5.135777735825033,-11.653940346948868,7.645320165114812,17.183933121148726
-0.2034,0.9659,0.0879,-0.6982,0.0412,0.0957,-2.9225,1.1112,-14.77,5.153202715157302,-11.754017533576492,7.6317575718806125,17.185135020829744
-0.2,0.9636,0.0868,-0.6982,0.0412,0.0957,-3.1238,1.4,-14.6912,5.1510274400689555,-11.716198570388572,7.599917901881632,17.186328426520078
-0.2025,0.9684,0.0882,-0.697,0.0413,0.0974,-2.9488,1.4088,-14.175,5.166182970647568,-11.732293887219367,7.620326532912628,17.187530326201095
-0.2023,0.9675,0.082,-0.697,0.0413,0.0974,-2.8963,1.155,-13.8337,5.08314908952821,-11.737772117719247,7.631091729622514,17.188724439723988
-0.2041,0.9676,0.0895,-0.6952,0.0405,0.1025,-2.4763,1.0062,-15.0062,5.096694491587653,-11.808986150937786,7.639525878759876,17.189919968911994
-0.2028,0.969,0.0869,-0.697,0.0403,0.0994,-2.59,0.8138,-14.9537,5.097809051214985,-11.789681082928034,7.670145201990921,17.1911236381744
-0.2043,0.9679,0.0885,-0.697,0.0403,0.0994,-2.6688,1.1112,-15.1988,5.111406881567444,-11.838789211082604,7.688806065929446,17.192330138767034
-0.2051,0.9656,0.088,-0.6962,0.041,0.0965,-1.8987,1.7062,-14.4812,5.149159001553737,-11.886136613703794,7.656090585884646,17.193536639359667
-0.2045,0.9672,0.0834,-0.6962,0.041,0.0965,-1.8375,1.3475,-14.6825,5.057402733353894,-11.89093809770146,7.649255840313838,17.19472862938489
-0.2025,0.9683,0.0863,-0.6972,0.0412,0.1006,-2.8175,1.085,-14.525,5.0649610297538175,-11.833262571060988,7.674429903996505,17.19593371431241
-0.2019,0.9678,0.0869,-0.697,0.0426,0.1003,-3.185,1.2075,-14.5687,5.0906111692690175,-11.787876539510584,7.714194115425232,17.197129951332972
-0.2014,0.9673,0.0897,-0.697,0.0426,0.1003,-3.3338,1.1025,-15.225,5.181852810136923,-11.74192024301781,7.731438178325684,17.198321941358195
-0.2031,0.9649,0.0871,-0.6997,0.0386,0.0975,-3.1063,1.1987,-14.4287,5.173317747345912,-11.784487298982251,7.722229293992376,17.19962046018318
-0.2021,0.9658,0.0853,-0.6997,0.0386,0.0975,-2.7738,0.9713,-14.63,5.150135238123969,-11.77953245557079,7.721617692236395,17.20084359484089
-0.2022,0.967,0.0933,-0.6966,0.0411,0.1026,-2.8175,0.98,-14.6475,5.226673838182675,-11.768495641722268,7.7244070101942,17.20206920691255
-0.2012,0.967,0.0869,-0.6966,0.0411,0.1026,-3.1238,0.875,-14.35,5.193234876225493,-11.743672177194776,7.762419891006663,17.20328066233308
-0.204,0.9672,0.0886,-0.6977,0.041,0.0966,-3.605,1.05,-14.175,5.21415368622876,-11.783914526607685,7.75289863165435,17.204489994255937
-0.205,0.9658,0.0837,-0.6985,0.04,0.096,-3.6663,1.05,-14.105,5.076359066649077,-11.832130904698488,7.742441663939401,17.20568446169511
-0.2027,0.9659,0.0879,-0.6985,0.04,0.096,-3.2113,0.9975,-14.0087,5.125559991592132,-11.824966508535558,7.740670734756087,17.20687680563661
-0.2005,0.9686,0.0847,-0.6968,0.0414,0.0994,-2.8612,0.7613,-14.4812,5.095059843048442,-11.746831040869816,7.759925696490256,17.208081536647853
-0.2015,0.9682,0.0826,-0.6968,0.0414,0.0994,-3.36,1.1287,-14.6037,4.997037142862077,-11.731416271059974,7.771650467587598,17.20928520591026
-0.2037,0.9672,0.0835,-0.6972,0.0401,0.0941,-3.08,1.33,-14.0262,4.975228599286442,-11.76334901414069,7.6852465568270985,17.21053134512606
-0.2027,0.9657,0.09,-0.6972,0.0391,0.0969,-2.8438,1.19,-14.0612,5.054858085074778,-11.775169134781008,7.6775710011970775,17.211751294537265
-0.2024,0.9659,0.0845,-0.6972,0.0391,0.0969,-3.2638,1.085,-13.5012,5.031849060788924,-11.777336135433629,7.676234981690211,17.212956025548507
-0.1995,0.9672,0.0869,-0.6985,0.0412,0.0967,-2.9488,1.1987,-14.49,5.061076811213765,-11.701030046764789,7.662939461629359,17.214164295722533
-0.2053,0.9675,0.0855,-0.6985,0.0412,0.0967,-2.3187,0.6475,-14.5513,5.059050625263133,-11.811395815764532,7.6499488305595476,17.21535947099426
-0.2029,0.9662,0.0874,-0.6968,0.0417,0.0892,-2.0213,0.63,-15.1725,5.0969181222425295,-11.812240019197423,7.480534104646097,17.216569510749675
-0.2028,0.9658,0.0894,-0.698,0.0423,0.0969,-2.5463,1.19,-15.3912,5.097313802821147,-11.810626959553355,7.501054992772843,17.21776928693302
-0.2034,0.9658,0.0882,-0.698,0.0423,0.0969,-2.87,1.1025,-15.155,5.126674985045698,-11.831201266601417,7.512104097402602,17.21895809171174
-0.2026,0.9678,0.0888,-0.6969,0.0403,0.0982,-2.7738,1.1112,-15.015,5.1479760176626135,-11.799155944140596,7.537257006969584,17.22016140705787
-0.2042,0.967,0.0866,-0.6969,0.0403,0.0982,-3.01,0.8138,-14.63,5.138347632005394,-11.837856415840774,7.56919817161151,17.22136613806911
-0.2029,0.965,0.0872,-0.6976,0.0409,0.1026,-2.485,1.1025,-14.9362,5.139839244795037,-11.831863603211659,7.622629694247126,17.222558482010612
-0.2011,0.9675,0.0904,-0.6962,0.0418,0.0967,-2.6338,1.225,-15.2163,5.155438219906301,-11.747007246417791,7.619197544349563,17.223756842528847
-0.2012,0.9671,0.0863,-0.6962,0.0418,0.0967,-3.2462,1.1462,-14.5687,5.132377566046086,-11.728048597686751,7.619704152600474,17.224958034377302
-0.2037,0.9667,0.0895,-0.6967,0.0408,0.0965,-2.8963,1.0587,-14.63,5.172943935087176,-11.788066337373175,7.6183625123351755,17.226160287974597
-0.2016,0.967,0.0889,-0.6967,0.0408,0.0965,-2.17,1.3387,-14.6737,5.194824921831443,-11.757941632740055,7.613578336463867,17.227359356325387
-0.2034,0.9682,0.0899,-0.6975,0.0415,0.0946,-2.3975,0.9187,-15.3387,5.209249329803582,-11.793591393470436,7.60160695699491,17.228558070759895
-0.2019,0.9675,0.0875,-0.6974,0.0426,0.0933,-2.24,1.19,-14.5687,5.199463663354991,-11.768473796226703,7.5548766471854325,17.229755369529293
-0.2017,0.9658,0.0896,-0.6974,0.0426,0.0933,-2.24,1.015,-14.5425,5.223234488922865,-11.758497926632375,7.5485423796321385,17.230948067387075
-0.2051,0.9686,0.0885,-0.6972,0.0418,0.0979,-2.9838,0.9713,-14.8137,5.222423770709539,-11.838370796871356,7.551095198396242,17.232147135737865
-0.2034,0.9693,0.0878,-0.6972,0.0418,0.0979,-3.5963,0.9625,-14.3937,5.198553304364073,-11.823878813384368,7.554930483445852,17.233346558004932
-0.2016,0.9672,0.0883,-0.6965,0.0405,0.0942,-3.1238,0.9275,-14.9713,5.205045231791495,-11.768646068906277,7.547320420621205,17.234534301034817
-0.2029,0.9672,0.087,-0.6965,0.0399,0.0942,-2.905,0.7875,-15.0675,5.187931408959976,-11.787828505784601,7.528418881947749,17.23572558322748
-0.2032,0.9666,0.0885,-0.6977,0.0399,0.0942,-2.3538,1.19,-14.5687,5.194995838441148,-11.804998557879168,7.5094508962990885,17.236950841382864
-0.2048,0.9677,0.0876,-0.698,0.0425,0.0966,-2.6688,1.3475,-14.28,5.192582199589773,-11.842254079329692,7.529954228906568,17.23814849406854
-0.2015,0.969,0.0886,-0.698,0.0425,0.0966,-2.5375,1.3825,-13.9475,5.192923047369521,-11.810309523782248,7.543975563786672,17.239334467517033
-0.2039,0.9681,0.0859,-0.6976,0.0423,0.1001,-3.0013,1.2425,-14.7613,5.154791798974064,-11.830334617081423,7.612566364870163,17.240533181951545
-0.2111,0.9692,0.0885,-0.6976,0.0423,0.1001,-2.2925,1.1375,-15.7062,5.1675368832507536,-12.10436822050756,7.647108999941666,17.24173897471162
-0.1877,0.9833,0.0833,-0.697,0.0414,0.0921,-2.6338,0.805,-15.3562,5.141933380958591,-11.264336900975138,7.5857093651678715,17.242936273481018
-0.2164,0.9636,0.0786,-0.6966,0.0422,0.0978,-3.4388,2.8963,-14.5513,4.9164601352322315,-11.90199973698834,7.695905225217305,17.244137819245754
-0.2595,0.933,0.1148,-0.6966,0.0422,0.0978,-0.875,1.4612,-12.985,6.229795401852713,-13.323405272872321,7.675859150312303,17.245342904173274
-0.2835,0.9712,0.0903,-0.6978,0.0419,0.097,0.665,-0.2362,-10.5875,5.52979980862783,-15.49851862655556,7.697931881820599,17.246543388189178
-0.2546,0.9423,0.09,-0.6978,0.0419,0.097,-0.84,0.1837,-9.0913,5.483139330261821,-15.134117396068829,7.687166062277147,17.247730069470226
-0.2275,0.9567,0.084,-0.6997,0.0436,0.0977,-0.735,-0.91,-9.345,5.183206548916354,-13.666963856893076,7.686878791957189,17.248931615234962
-0.1663,0.9431,0.078,-0.6984,0.0431,0.095,1.4612,-0.1225,-9.45,4.81882134617556,-10.677311425691792,7.563387095912899,17.250117942599733
-0.0861,0.9936,0.0545,-0.6984,0.0431,0.095,1.995,1.505,-9.1525,3.442513982181482,-5.9861519415231506,7.551261062328637,17.25128303498781
-0.19,0.959,0.0824,-0.7025,0.0429,0.0938,4.4012,4.0513,-6.9388,4.726234691079444,-10.495387913883064,7.376114016768676,17.25249201299439
-0.2068,0.9431,0.0897,-0.7025,0.0429,0.0938,6.5887,2.765,-4.7163,5.36342740198156,-12.13111406045734,7.326647997909103,17.253685772601006
-0.2084,0.9674,0.078,-0.7036,0.0456,0.0906,8.2512,0.175,-5.5037,4.673577740609829,-12.12020850047407,7.209743828689827,17.25485228065419
-0.2092,0.9595,0.0947,-0.7036,0.0442,0.0914,7.4288,0.9363,-6.0988,5.548943079953688,-12.227816249097664,7.202647602068654,17.256013479963208
-0.2114,0.9601,0.0834,-0.7053,0.0442,0.0914,8.6012,0.2625,-7.8663,5.0126869194409265,-12.351116097564494,7.16071540491513,17.257181757597785
-0.2319,0.9569,0.0608,-0.7089,0.0438,0.0878,8.9512,-0.385,-7.3413,3.7457718771192905,-13.42615109597154,7.012746130044062,17.258359944888156
-0.2017,0.8322,0.0256,-0.7089,0.0438,0.0878,12.1712,-0.3325,-2.73,1.888167392732776,-13.601768448354134,7.027201297647371,17.259557243657554
-0.2647,0.9398,0.07,-0.7138,0.0486,0.0842,19.8975,-0.035,5.0487,4.158597748710821,-15.58296124007762,6.775845693612719,17.260743217106047
-0.2888,0.9977,0.1364,-0.7138,0.0486,0.0842,32.4188,3.2813,18.4888,7.684075403240233,-15.9901168147128,6.403964680519259,17.26197661533583
-0.2333,0.9399,0.1209,-0.7215,0.0526,0.0814,39.4188,2.8438,29.4875,7.337994191793706,-13.879496900512407,6.080630811514425,17.263188424672634
-0.2061,0.7903,0.0702,-0.7319,0.0587,0.0681,43.0763,1.435,32.76,5.12460425010567,-14.547179729189407,5.728514187954412,17.264373336372294
-0.2849,0.6888,0.1219,-0.7319,0.0587,0.0681,48.6325,0.14,33.985,9.941852508072921,-22.004011889994686,5.217213905707999,17.265568157727746
-0.4702,1.1746,0.3187,-0.7427,0.0612,0.0597,50.6625,-12.2937,31.6925,15.083752781192349,-21.14245197589908,3.4410756692117883,17.266778551399437
-0.0889,1.0318,0.1685,-0.7427,0.0612,0.0597,50.82,-24.1588,23.8875,9.381761967768265,-5.2827798216457,3.7501628475556026,17.267983636326957
0.1654,0.8552,-0.1418,-0.7502,0.0659,0.0434,55.685,-16.345,16.2663,-9.097186583723335,10.282078142750947,4.196027648987074,17.269201816156773
0.1865,1.1136,-0.2898,-0.7619,0.0722,0.0424,39.0775,9.7037,29.5312,-14.458149234388758,9.230593717242044,4.521790508677612,17.270389559186658
0.6494,0.7821,-0.4273,-0.7619,0.0722,0.0424,44.345,44.2925,15.4525,-28.353646120270717,35.18795265756088,6.881487872311694,17.271608800765307
-0.3983,1.3419,0.1468,-0.7683,0.0752,0.0258,128.0475,40.5125,3.6925,5.980264972936893,-13.625861536756595,1.4560277963620833,17.27281742485561
-0.1795,1.0604,0.1225,-0.7683,0.0752,0.0258,82.4338,-5.18,29.575,6.582649432030817,-9.637653225520394,1.2906622050084977,17.274016139290122
-0.182,1.0344,0.1313,-0.7778,0.0835,0.0165,38.7537,-29.155,60.9087,7.218667470035639,-9.897566931877755,0.45721051498504733,17.275226886878094
-0.0715,0.8237,-0.3718,-0.79,0.0906,0.0055,29.0675,-48.7025,55.9388,-23.32720944201401,-4.5997721403985015,2.9979160052455285,17.276458515526485
-0.0121,0.804,-0.1371,-0.79,0.0906,0.0055,56.7088,-23.1087,30.2488,-9.903663070522718,-0.9334554410324587,1.554981658823049,17.277700053830667
-0.1037,1.1502,-0.1801,-0.7937,0.0913,-0.0054,41.86,-4.795,-3.0888,-8.92131782024315,-4.730816901316799,0.7667865728836383,17.2789309746465
-0.0282,1.1373,-0.1034,-0.7937,0.0913,-0.0054,35.9538,1.54,26.1975,-5.289218080621011,-1.4957269366929793,0.5680559937575215,17.280146323146088
-0.087,1.0535,-0.0994,-0.8015,0.1001,-0.0118,38.3425,-10.9637,40.95,-5.387617342736061,-4.642476585626159,0.1097608211689941,17.281403433766513
-0.0221,1.0266,-0.1591,-0.8129,0.1086,-0.0213,49.6738,-16.45,43.9775,-8.745185516261266,-1.277083036358921,0.2995867765990014,17.2826531121451
0.0769,1.0019,-0.1857,-0.8129,0.1086,-0.0213,36.6625,-6.6413,43.5138,-10.456834717983517,4.2197183289654925,0.10743129567119453,17.283861736235398
0.0201,1.1193,-0.1688,-0.8258,0.1186,-0.028,36.47,-6.9212,46.025,-8.62306443378138,1.0700586789088848,0.6297459571150531,17.285079916065214
0.0138,1.0984,-0.1682,-0.8258,0.1186,-0.028,38.4125,-14.525,59.1063,-8.704195732764434,0.7163782355452956,0.6732092725413068,17.286313668211275
0.0323,1.0997,-0.167,-0.8405,0.1308,-0.0414,36.9687,-20.6763,76.6588,-8.636648946314912,1.652958805331195,1.4239658615901356,17.287533617622483
0.1369,1.0467,-0.2561,-0.8566,0.1462,-0.0457,35.4813,-25.3838,86.59,-13.617686696359634,7.1851423187274746,0.6930339248267378,17.28875392094997
0.2627,1.0063,-0.2844,-0.8566,0.1462,-0.0457,31.0625,-20.5975,93.1788,-15.718813113923039,14.037621687658298,0.32162586015568195,17.289980240854185
0.3559,1.1177,-0.2295,-0.8743,0.1654,-0.0519,22.0675,-13.37,100.9225,-11.764059599362113,17.295016958114218,1.2223607627601096,17.291215762581636
0.3867,1.1431,-0.2335,-0.8743,0.1654,-0.0519,10.5,-8.4175,116.3663,-11.560529612852855,18.329631559678187,1.302245426220314,17.29258931165761
0.2255,1.113,-0.3453,-0.8944,0.1856,-0.0465,39.6813,15.1637,100.415,-17.104826811055716,11.015886240302551,0.5870155404000019,17.29391118895696
0.5524,0.9659,-0.0605,-0.913,0.2092,-0.0558,79.5113,40.2938,110.0313,-3.746872996999403,29.567021694120122,3.443260885142431,17.295224926181913
0.6208,1.5482,-0.1469,-0.913,0.2092,-0.0558,63.0875,38.9725,118.6675,-5.395135031885588,21.819879081253223,2.6853853422962897,17.29646504882098
0.3265,1.4148,-0.0106,-0.9345,0.2353,-0.0522,-9.2487,20.9825,140.5075,-1.0741553270681856,13.051436676001698,3.3333976905635714,17.29770906453911
0.4442,1.4853,-0.0497,-0.958,0.267,-0.0398,-56.2013,4.3575,174.0812,-1.9010614267872181,16.62222129594603,2.382685228095055,17.298947771513067
0.7161,1.4218,0.0131,-0.958,0.267,-0.0398,-104.3175,-5.005,209.0375,0.5042546025606868,26.68627695408454,3.158112837182156,17.3001868324033
0.4937,1.2958,-0.5382,-0.979,0.3012,-0.0321,-225.12,-37.6162,204.4175,-22.45201700534704,19.418143172263804,5.699076563232442,17.301466593665534
0.5471,1.1784,-0.0524,-0.979,0.3012,-0.0321,-103.0575,0.7437,162.3562,-2.7421981837963587,24.85172000854144,4.30372931157603,17.30272016512318
0.6976,1.5373,-0.5677,-0.9898,0.3155,-0.0147,-133.1662,49.2275,42.1925,-20.13521222634644,23.090242474546933,6.816941697794629,17.30395993384597
0.4017,1.5559,-0.1069,-0.9967,0.3184,0.006,-151.8387,73.255,41.3963,-4.038222762959046,14.598045982531971,1.8662250225878825,17.305188731164133
0.4856,1.3213,-0.3389,-0.9967,0.3184,0.006,-148.8725,36.2163,24.8762,-14.31543603336127,19.468994681739762,5.691137782488977,17.3064582288543
0.5174,1.204,-0.3296,-0.9969,0.318,0.0187,-91.595,15.645,8.0587,-15.298823544753077,22.37921230832553,7.120536224654853,17.307664375530653
0.5466,1.0996,-0.4533,-0.9969,0.318,0.0187,-92.0238,5.1712,-5.4075,-22.32492998379089,24.4332158815364,9.438102052227705,17.30886556737911
0.4089,0.9167,-0.3045,-0.9959,0.3124,0.0303,-76.125,5.3288,-25.7862,-18.427891476844383,23.05708992567997,9.064697515861535,17.31026530625968
0.3051,0.8728,-0.3947,-0.9858,0.2954,0.03,-60.795,-9.415,-59.9725,-24.23388467933518,17.781116914546434,9.751386650460994,17.311529141289395
0.4031,0.9481,-0.4252,-0.9858,0.2954,0.03,-42.4987,-17.395,-91.0175,-24.157009031104252,21.159546880356597,10.153197178188716,17.31277634225403
0.4566,0.9428,-0.3981,-0.9682,0.269,0.0278,-39.2262,-20.9737,-114.0213,-22.925614901315175,24.015969193032145,9.423315844437207,17.314039823367462
0.4979,0.9987,-0.3982,-0.9682,0.2281,0.021,-25.2875,-26.2325,-132.2563,-21.788100814694285,24.841641852637192,7.541627707888116,17.31530719755996
0.4851,1.0941,-0.4024,-0.9466,0.2388,0.021,12.0487,-50.3825,-156.135,-20.295327061541215,22.609124520322425,7.364543429733881,17.316572094338508
0.4262,1.0695,-0.3628,-0.9183,0.213,0.0067,25.8913,-66.6925,-154.07,-18.791059461193715,20.68927032980471,5.44392870191331,17.317825311879872
0.4471,0.9516,-0.462,-0.9183,0.213,0.0067,43.365,-83.2125,-154.3675,-25.745026968540795,22.89620307237516,7.2860407150761874,17.319070743263115
0.3001,0.9902,-0.4069,-0.8887,0.1879,-0.0102,62.4925,-93.59,-160.335,-22.390661471048524,15.708509238614742,4.418366634382891,17.320329269548655
0.2758,1.0411,-0.4843,-0.8534,0.1614,-0.0406,67.6375,-103.8363,-168.6387,-24.911046495188717,13.520440046425112,2.281965565331084,17.321600890736487
0.1993,0.9927,-0.5067,-0.8534,0.1614,-0.0406,75.3375,-105.8488,-181.0812,-27.01395332119195,10.158457067783585,2.622474181064692,17.322883129412673
0.1781,1.0065,-0.4821,-0.8089,0.1359,-0.0673,76.79,-107.8088,-195.58,-25.61147298924936,9.073190147566205,0.12186390118565167,17.324206068460857
0.1477,1.0899,-0.4484,-0.7586,0.1155,-0.0914,92.505,-121.5025,-209.86,-22.39676667683189,7.153141682638095,3.1352043448999942,17.325485829723092
0.1281,1.156,-0.4509,-0.7586,0.1155,-0.0914,100.345,-131.3638,-206.815,-21.31884094138738,5.90069108690951,3.3374314121406488,17.326786825962024
0.0844,1.1649,-0.4122,-0.7071,0.1037,-0.1238,101.2288,-140.7263,-202.125,-19.503820909286944,3.9179007690549734,6.705264357936402,17.32807649688005
0.1015,1.2263,-0.3533,-0.7071,0.1037,-0.1238,100.8088,-146.6237,-201.3375,-16.10470633885941,4.544071127892155,7.402148613450971,17.32936369038413
0.1178,1.2846,-0.3888,-0.6532,0.0922,-0.1475,87.0713,-147.945,-198.4763,-16.830981529984992,5.013441070972976,10.13371991215857,17.33064628297659
-0.0661,1.183,-0.2849,-0.6049,0.0882,-0.1674,71.0763,-147.5863,-186.9,-13.58469612918631,-3.0627362228560715,13.076795713423474,17.3319394930574
-0.2384,1.1846,-0.2266,-0.6049,0.0882,-0.1674,64.4263,-157.9113,-178.4212,-10.869724217680316,-11.132282836323826,13.487171000687914,17.33322420914753
-0.2046,1.1328,-0.3023,-0.5509,0.0871,-0.1901,55.6063,-171.2375,-184.0125,-14.872967424093652,-9.906062199226147,15.89553949266669,17.33452025055857
-0.1533,1.016,-0.2894,-0.4952,0.0858,-0.1926,34.02,-160.5975,-199.5437,-15.871889888075716,-8.26559299327765,17.600320120158237,17.335812398890543
-0.2198,0.9625,-0.2786,-0.4952,0.0858,-0.1926,29.1375,-162.4175,-208.4775,-16.135022570475556,-12.351414089428893,17.44547377804297,17.33710206980857
-0.1961,0.8644,-0.275,-0.4421,0.0886,-0.1947,31.4212,-167.65,-198.9837,-17.604671759150204,-12.199623587976982,18.930103192878054,17.33839527988938
-0.1033,0.7701,-0.3018,-0.3937,0.095,-0.1991,36.3913,-172.5675,-186.4187,-21.305043274205545,-7.148067875100962,20.14719341598378,17.339695214379475
-0.1624,0.7446,-0.3134,-0.3937,0.095,-0.1991,41.6675,-172.62,-180.7837,-22.792446085656497,-11.341204220166716,19.318481484044412,17.341041865818305
-0.2927,0.7371,-0.2517,-0.3474,0.1016,-0.1972,31.9988,-159.67,-167.93,-18.964472402618803,-20.53618028455145,21.94199789264579,17.34233578373167
-0.4111,0.7159,-0.1952,-0.3074,0.1086,-0.1928,39.9962,-162.7413,-153.7725,-15.336995609155839,-28.9273117462408,24.56104694739594,17.34364775137523
-0.4846,0.6934,-0.2013,-0.3074,0.1086,-0.1928,49.6388,-168.7263,-142.87,-16.17245977217711,-33.83016842589884,24.282803198110088,17.34493706837698
-0.512,0.5946,-0.1958,-0.2734,0.1201,-0.1957,54.7575,-171.1062,-136.6925,-18.1913296311654,-39.23511953905627,24.688246406405543,17.34622213838339
-0.5561,0.5411,-0.2079,-0.2734,0.1201,-0.1957,56.3763,-170.9225,-132.1687,-20.970476404226027,-43.77309365761852,23.350620265899384,17.347528443366492
-0.5193,0.5058,-0.2269,-0.2416,0.1334,-0.1936,62.1075,-172.5587,-123.8913,-24.112234982812122,-43.13537157256779,21.269460186948088,17.348819529949633
-0.5677,0.497,-0.1987,-0.2114,0.1482,-0.1918,80.85,-171.36,-117.915,-21.818968324816,-46.65158534487563,22.505402238509248,17.350106015621158
-0.6411,0.522,-0.1947,-0.2114,0.1482,-0.1918,90.3088,-171.8762,-117.9763,-20.46947030106264,-48.98633959345787,23.50238596929787,17.351397456120576
-0.6531,0.5245,-0.1871,-0.1818,0.1616,-0.1941,95.0863,-171.2462,-116.7163,-19.64085574242013,-49.541712281592545,24.389113160219246,17.352692081866497
-0.6278,0.5411,-0.1958,-0.1531,0.1784,-0.1909,99.1288,-171.7187,-118.3525,-19.89047956466971,-47.51128322884549,23.371343569698183,17.35397821362174
-0.7376,0.57,-0.1559,-0.1531,0.1784,-0.1909,103.285,-172.8912,-118.9475,-15.339785783534623,-51.264049386564025,26.95292710441477,17.3552901812653
-0.7674,0.5634,-0.133,-0.1299,0.1957,-0.1958,107.9663,-176.9862,-107.32,-13.30090724138291,-52.95301328212361,28.66750758127809,17.35734962008857
0.0812,0.9608,0.1555,-0.182,0.1422,0.0338,-4.2263,1.2337,-15.4525,0.7934417110731102,-15.893926613485535,22.304062093722937,17.358552227602143
0.0791,0.9605,0.1581,-0.183,0.1437,0.0382,-3.535,1.5225,-15.4088,5.041525514871611,-2.8238312873462976,12.858528589301683,17.359748464622704
0.0791,0.9581,0.1592,-0.1862,0.1435,0.0343,-4.0425,1.9337,-14.98,7.67299384150189,1.4333562227205014,4.956586567998046,17.360934791987475
0.08,0.9503,0.1607,-0.1862,0.1435,0.0343,-4.3488,2.1875,-14.7875,8.910713142679656,3.189139789172321,0.4726415205021646,17.362110855780177
0.0729,0.9418,0.1611,-0.183,0.1429,0.0334,-3.9988,2.345,-14.0087,9.381928448668178,3.493293319854754,1.497678425745848,17.363296121396115
0.0732,0.944,0.1616,-0.183,0.1429,0.0334,-3.43,2.3712,-13.58,9.537566624339982,3.5575246581187434,2.3370132104248977,17.364482448760885
0.0736,0.9452,0.1598,-0.1848,0.1421,0.0383,-2.8612,2.2138,-13.5012,9.551480177146752,3.671037854805207,3.611069295608232,17.365687533688405
0.0738,0.9498,0.1613,-0.1643,0.1438,0.0372,-2.3275,1.855,-12.8362,9.567189128105701,3.9912908925386836,4.127071893242305,17.36686926014156
0.0731,0.9533,0.1537,-0.182,0.1438,0.0372,-1.7413,1.2075,-12.1012,9.384860374365859,4.1971059439090945,4.2201898244867575,17.368093810464384
0.0758,0.9578,0.157,-0.1843,0.1448,0.0342,-2.0125,1.2687,-11.5587,9.358387305799901,4.378990669099859,4.047517137242657,17.369281907410546
0.0826,0.9545,0.1528,-0.1843,0.1448,0.0342,-2.0825,1.1025,-12.0575,9.274666993911929,4.689895932300977,4.005774288458173,17.37046186428231
0.0796,0.9529,0.1529,-0.1866,0.1415,0.0291,-2.415,0.5163,-12.7837,9.255976636617282,4.701637094001457,3.3875724332532964,17.371651376893585
0.085,0.9536,0.152,-0.1866,0.1415,0.0291,-1.7325,0.9538,-14.5862,9.166365101406212,4.859846998208539,3.3461671786584484,17.372840535588583
0.0852,0.957,0.152,-0.187,0.1418,0.0357,-2.94,0.91,-15.82,9.126549711406295,4.97266436878571,3.4144433313817633,17.374015891548726
0.0842,0.9601,0.1523,-0.1864,0.1407,0.0325,-3.0013,0.875,-16.6775,9.091366056301922,4.955930885563649,3.4049700784828323,17.375198679750714
0.0814,0.9622,0.1549,-0.1864,0.1407,0.0325,-2.5463,0.9538,-17.0275,9.091477435068876,4.815955210258111,3.398286272316168,17.376387838445712
0.067,0.9492,0.156,-0.1844,0.1407,0.0343,-3.1412,1.1025,-17.7275,9.181393617972464,4.148378386578519,3.421900312862031,17.377608495689476
0.0659,0.9431,0.1512,-0.1844,0.1407,0.0343,-2.3013,0.315,-18.55,9.166909120301018,3.9810678636758037,3.57871962005812,17.37879199172402
0.0626,0.9459,0.1514,-0.183,0.1436,0.0336,-1.2075,0.245,-18.13,9.124908058143525,3.7831484098806043,3.531076981409415,17.379979734753906
0.0683,0.9521,0.1504,-0.1834,0.1435,0.0322,-1.9862,-0.1663,-17.8587,9.07155305955756,4.0011540940391255,3.312355359895263,17.38117986485353
0.0697,0.9576,0.1518,-0.1834,0.1435,0.0322,-1.9075,-0.6038,-17.64,9.046594490958954,4.089613394756885,3.1816396520986268,17.382375394041535
0.0829,0.9686,0.1487,-0.1858,0.1435,0.0329,-2.0388,-0.5513,-17.0362,8.939028607798083,4.665097814006137,3.4101544360711693,17.38357764763883
0.0865,0.9675,0.1524,-0.1858,0.1435,0.0329,-2.0825,0.0,-16.1788,8.943037330478308,4.93855685270509,3.3956226375869174,17.38476822199894
0.0823,0.9643,0.1518,-0.1835,0.1435,0.0368,-3.01,1.2775,-16.1087,8.943998224493543,4.853751756947209,3.690144410700944,17.385949594535816
0.0796,0.9611,0.1518,-0.1835,0.1435,0.0368,-3.7625,2.17,-15.6363,8.961207562372364,4.736245842384809,4.221731852300793,17.38720918257019
0.0776,0.9578,0.1562,-0.1838,0.1426,0.0343,-3.4475,2.7825,-14.9975,9.103793300242007,4.642117792129478,3.8453536018559,17.38840117259541
0.0714,0.957,0.1569,-0.181,0.1443,0.035,-3.85,3.3775,-14.4112,9.220861083857647,4.45696375546589,3.7956358967796016,17.389584668629958
0.0581,0.9556,0.1551,-0.181,0.1443,0.035,-4.375,3.6138,-14.7525,9.21970950569547,3.92286526052193,3.803187749529112,17.39084708799456
0.0509,0.9607,0.1546,-0.1818,0.1426,0.0342,-3.675,3.22,-14.945,9.17849213255445,3.4005335494903313,3.7008375159653064,17.399816388234832
0.052,0.9636,0.1579,-0.1818,0.1426,0.0342,-3.5963,1.8112,-15.4437,9.243762877888287,3.174822653852297,3.6194123231171904,17.412020129342242
0.0592,0.9623,0.1567,-0.1828,0.1446,0.0269,-4.1475,1.4962,-15.015,9.24686849083035,3.347421125388428,2.768022262194894,17.420511642606847
0.0586,0.9627,0.1534,-0.1827,0.1413,0.0356,-3.955,0.6125,-15.3912,9.133905557432522,3.4061354749615846,3.17409612967729,17.432732371695614
0.0586,0.9593,0.1559,-0.1827,0.1413,0.0356,-4.7337,0.5425,-15.015,9.20030307719722,3.431658986665163,3.4622147424855525,17.444947438123933
0.0669,0.9593,0.1609,-0.1831,0.1428,0.0342,-4.8038,0.49,-14.8312,9.422760919692276,3.702996271405216,3.425270146928262,17.457562076030417
0.0687,0.9571,0.1639,-0.1831,0.1428,0.0342,-4.9788,-0.5338,-14.21,9.631540421452861,3.8251713203951994,3.2839153922510906,17.469783159035465
0.0749,0.9515,0.1595,-0.1858,0.1422,0.0379,-5.1975,-0.7263,-13.6675,9.547677116294372,3.8303510638808205,4.089833926839964,17.481897359324474
0.0734,0.9495,0.1585,-0.185,0.1431,0.0399,-5.0138,-0.5688,-14.0787,9.497394638870839,3.9870184686047714,4.771449851245035,17.491264461461526
0.0747,0.9499,0.1617,-0.185,0.1431,0.0399,-4.9788,-0.175,-14.5862,9.61314194219218,4.201571077351154,4.92652553096125,17.5034183003737
0.0726,0.9482,0.1615,-0.1856,0.1435,0.0362,-4.2,0.5775,-14.4375,9.646075364088672,4.2518576039960365,4.6021548963932295,17.51547870538841
0.078,0.9507,0.162,-0.1856,0.1435,0.0362,-3.5088,0.3588,-14.595,9.65797289131838,4.431759082509687,4.302932510832447,17.527514336263643
0.0797,0.9529,0.1586,-0.1815,0.1423,0.036,-2.975,0.4987,-14.98,9.595673217733268,4.593805643724826,4.241215257051245,17.53952377733428
0.0771,0.9559,0.1577,-0.1815,0.1423,0.036,-3.3425,0.98,-15.0325,9.494905014103868,4.56850314173207,4.240678408367578,17.551589491093164
0.078,0.9559,0.1593,-0.1825,0.143,0.0364,-3.6575,1.4,-14.7175,9.477259518226736,4.585588947816356,4.219594142432766,17.560892180467572
0.074,0.9562,0.1599,-0.1821,0.143,0.0362,-3.3425,1.3475,-13.9562,9.484409559593528,4.535028650252545,4.1796057314107715,17.572925333928858
0.0772,0.9504,0.1558,-0.1821,0.143,0.0362,-3.1937,0.6563,-13.51,9.415903757632375,4.541245940971616,4.194918912477734,17.584957779557584
0.0716,0.9506,0.1538,-0.1822,0.1418,0.036,-3.0363,1.3125,-12.95,9.341952252898274,4.421391766338134,4.223985648489247,17.597025616814136
0.0669,0.9496,0.1566,-0.1822,0.1418,0.036,-3.0188,1.1287,-13.4663,9.34915023722377,4.349488463000214,4.214558897875051,17.609095223652083
0.0555,0.9475,0.1515,-0.1833,0.1422,0.0357,-2.94,1.4875,-13.72,9.274639140310313,4.289737575864291,4.207696769620064,17.621051223364702
0.0406,0.9527,0.1489,-0.1843,0.1428,0.0349,-3.22,1.155,-14.6475,9.117303364632374,3.355793263008497,4.17730670299868,17.6304176176692
0.0282,0.9614,0.1509,-0.1843,0.1428,0.0349,-3.3688,0.525,-15.6012,9.02851220242285,2.236249722428248,4.096110334483834,17.642489701921093
0.0325,0.9701,0.1568,-0.183,0.1418,0.0347,-3.4388,-0.6913,-15.2687,9.10055943144361,2.025282288799247,3.8705240487841572,17.65457558890784
0.04,0.9662,0.1622,-0.183,0.1418,0.0347,-3.5963,-2.3363,-13.1775,9.320112068173794,2.126908446247282,3.567054382601003,17.666710670257267
0.0529,0.9564,0.1627,-0.1846,0.141,0.0365,-3.7713,-3.36,-10.9112,9.50410993651598,2.855858717761469,3.9189016262939096,17.678793371997507
0.0647,0.9511,0.1635,-0.1846,0.1413,0.0354,-2.7738,-3.1763,-8.5925,9.550109666830663,3.6740546425804066,3.6544511205577153,17.69085094568199
0.079,0.9471,0.1648,-0.1849,0.1413,0.0354,-2.52,-2.38,-7.6563,9.558959474962139,4.551675912522015,3.5633947952490144,17.70045694130688
0.085,0.9487,0.1635,-0.1856,0.1429,0.0362,-3.4038,-1.1987,-7.28,9.660113235762008,4.978858255577393,3.7219173878479777,17.71222996630363
0.0994,0.9499,0.1629,-0.1856,0.1429,0.0362,-2.695,-0.35,-6.86,9.669190278018364,5.7718587204899325,3.8175320540377933,17.724277276416046
0.0983,0.9552,0.1668,-0.1867,0.1418,0.037,-2.5813,-0.0263,-6.4925,9.67671746414209,5.7866030675368005,3.9257522317438176,17.736276453914616
0.0939,0.9599,0.1574,-0.1867,0.1418,0.037,-1.1987,1.12,-6.9825,9.467351249898105,5.549404730011133,3.9944315351064033,17.748309961292176
0.0989,0.9638,0.1596,-0.1896,0.1384,0.0358,-2.135,1.9512,-7.56,9.448396651082408,5.748120049221228,4.080734095429293,17.757548591820218
0.0975,0.9693,0.1541,-0.1873,0.1402,0.0362,-1.995,2.52,-8.6975,9.300532191726328,5.685748219460326,4.372673629362036,17.769571127793153
0.0914,0.9689,0.1488,-0.1873,0.1402,0.0362,-2.0038,3.2375,-8.8812,9.099750871007847,5.389002001653088,4.65977517790344,17.781501999450015
0.087,0.9631,0.1497,-0.1913,0.1412,0.0377,-3.0538,3.4475,-9.205,9.01089819543503,5.15363077754158,4.907481440920899,17.793523119757836
0.0825,0.9629,0.1479,-0.1913,0.1412,0.0377,-3.5875,3.7538,-10.1675,8.868926228709956,4.910273884968825,5.02740447715433,17.805593788344616
0.0773,0.9665,0.1464,-0.1892,0.1406,0.0358,-4.655,2.905,-10.5787,8.695628304526846,4.616693611658697,4.763316234060826,17.814896477719024
0.0744,0.9748,0.139,-0.1892,0.1406,0.0358,-5.3638,1.1812,-11.095,8.26739295860023,4.40396976636803,4.803634582120714,17.827032620817285
0.0818,0.9772,0.1449,-0.1911,0.1394,0.0375,-6.5975,0.0263,-11.8562,8.401328553627351,4.615912095591928,5.059136739106157,17.839231761013078
0.0884,0.9748,0.1407,-0.1944,0.1393,0.0382,-8.085,-0.665,-12.3638,8.24197701515539,4.905365120440386,5.431290401546932,17.851090787665452
0.1042,0.9711,0.1437,-0.1944,0.1393,0.0382,-8.7762,-0.7088,-13.2212,8.393083402671783,5.256629599149788,5.52278091955507,17.863196847880058
0.1118,0.9676,0.1444,-0.1926,0.1379,0.0394,-10.9025,-0.7263,-14.5425,8.477769411562544,5.848949876303188,5.864862681860153,17.875368382606148
0.1161,0.9689,0.1393,-0.1926,0.1379,0.0394,-11.9087,-0.9713,-15.33,8.210028617094352,6.42146635403579,6.175999530753118,17.887484352476548
0.1179,0.9708,0.1419,-0.1902,0.1388,0.0427,-12.4512,-0.6212,-15.9337,8.306213032365877,6.720760720507212,6.905377457562091,17.899661549863087
0.1213,0.9715,0.1506,-0.1948,0.1401,0.0426,-12.7662,-0.0525,-16.625,8.766676191938881,6.954926130012787,6.802200977202831,17.90909164909767
0.1247,0.9706,0.1553,-0.1948,0.1401,0.0426,-14.77,1.2775,-17.0625,9.066014639643399,7.167628340475256,6.733779520732658,17.921223191284316
0.1221,0.9615,0.1646,-0.1918,0.1416,0.045,-16.4412,2.3712,-16.7475,9.670813170098324,7.142607238154331,6.76220436636623,17.933379861526717
0.1191,0.9519,0.1645,-0.1918,0.1416,0.045,-16.94,2.7738,-17.255,9.795886792889863,7.053382047136646,6.718919214982278,17.945393549592694
0.1202,0.9427,0.1618,-0.1906,0.1394,0.0421,-17.2112,4.2962,-16.4675,9.74267822040865,7.134017097023926,6.148954674992258,17.95749819414219
0.113,0.9403,0.1651,-0.1897,0.1388,0.0482,-16.3975,4.83,-17.4475,9.944070224351302,6.830460976339077,7.459022028129904,17.969650617389252
0.1118,0.9479,0.1752,-0.1897,0.1388,0.0482,-16.1525,5.9588,-16.73,10.435644823378803,6.668405291460791,7.37431494190456,17.98175243060852
0.1186,0.9466,0.1722,-0.1899,0.1386,0.0506,-15.9075,6.6413,-16.2225,10.318910972434814,6.926555019288004,8.182329574914924,17.99377567441401
0.1217,0.9439,0.1762,-0.1899,0.1386,0.0506,-15.8812,7.7875,-15.6187,10.556050148520972,7.123083807725194,8.13915418897305,18.00320117273698
0.1243,0.9445,0.185,-0.189,0.1408,0.051,-16.24,9.1262,-16.1612,11.046450776764889,7.291644367896094,7.8087109201338665,18.015332361007346
0.1199,0.9416,0.1851,-0.1894,0.1406,0.0537,-16.6163,10.5262,-16.5375,11.116435361578477,7.1656818627137175,8.503789457066786,18.027444083882404
0.1133,0.9459,0.1825,-0.1894,0.1406,0.0537,-17.0012,11.7425,-16.5375,10.93303539382335,6.82585822864249,8.670480804887637,18.039658088561886
0.101,0.9598,0.184,-0.1904,0.1398,0.0541,-17.4212,12.7662,-16.87,10.857397499050924,6.120226996393738,8.742202742389168,18.051763794860214
0.0904,0.9659,0.1789,-0.1904,0.1398,0.0541,-18.1037,13.6412,-16.4937,10.515176549766796,5.482781143793979,8.935152458655464,18.063939576581642
0.0791,0.9716,0.1778,-0.1886,0.1413,0.0575,-18.9175,14.3062,-15.925,10.378565089753549,4.855448737571766,9.948692578526595,18.076115004386793
0.0784,0.9734,0.1824,-0.189,0.1405,0.0579,-20.4225,14.0525,-15.0675,10.600823479095974,4.662993580107133,9.961450680859713,18.088309897587248
0.0834,0.9756,0.187,-0.189,0.1405,0.0579,-22.5662,14.1138,-13.9125,10.838783693653527,4.690530298309736,9.821945066956943,18.100431530118097
0.0974,0.9736,0.1843,-0.1886,0.1398,0.0612,-23.8262,13.8863,-12.9675,10.724483400854137,5.068001592975497,11.055481809227501,18.112546084323384
0.1024,0.9791,0.191,-0.1886,0.1398,0.0612,-27.0988,15.9862,-11.5762,11.026176554877766,5.60372177380152,10.939855328129697,18.122014052599745
0.1011,0.98,0.1989,-0.1885,0.1404,0.0678,-29.1112,17.6487,-11.165,11.456660683548625,5.72462221804795,12.504531925064036,18.13420292922347
0.1006,0.9755,0.2108,-0.1896,0.1409,0.0661,-30.905,18.1912,-10.6662,12.168686164957323,5.74811805772622,11.424076861794125,18.146324915670597
0.1003,0.9645,0.2123,-0.1896,0.1409,0.0661,-32.5237,19.4337,-10.3775,12.405742827743683,5.7871953888984535,11.197424071927426,18.158504944387364
0.0873,0.9581,0.2169,-0.1898,0.1392,0.0695,-34.0462,20.5625,-10.1237,12.745146720474796,5.234744750363718,11.874257295151514,18.170657367634426
0.082,0.9628,0.2203,-0.1898,0.1392,0.0695,-35.4463,21.5775,-9.4762,12.8838724281219,4.840272372970374,11.743839605972886,18.182786432407124
0.0769,0.9597,0.2234,-0.1903,0.1395,0.0732,-36.96,22.3125,-8.505,13.097793939133137,4.523860898947316,12.535261934012889,18.194851084417174
0.0725,0.9554,0.2403,-0.1934,0.1386,0.0775,-38.08,22.1287,-6.4225,14.090128049987548,4.247179137628753,12.813059054318384,18.20694688105971
0.0797,0.9471,0.2446,-0.1934,0.1386,0.0775,-39.4712,22.5225,-5.5037,14.470600937121157,4.613188005767322,12.63273543776965,18.219046924697587
0.0852,0.9367,0.2544,-0.193,0.1406,0.0815,-40.0575,23.1,-4.9175,15.175745958202985,4.975048361893948,13.154073945224154,18.228464636862434
0.082,0.9384,0.2591,-0.193,0.1406,0.0815,-41.5013,24.3512,-5.1188,15.428773444055478,4.831523526205876,12.943997664996473,18.240049024482865
0.0791,0.9366,0.271,-0.196,0.141,0.0881,-42.5425,25.3925,-5.1625,16.120217164213454,4.658431585836804,13.945561000639485,18.25220923388805
0.071,0.9348,0.2689,-0.1966,0.1403,0.0921,-43.9337,25.5325,-4.1912,16.049852042485828,4.220948866548,15.045943562811573,18.26441332891174
0.0666,0.9313,0.2826,-0.1966,0.1403,0.0921,-45.6837,25.1387,-4.5413,16.86143759422106,3.945009318733692,14.385021157697159,18.276734924139816
0.0725,0.9184,0.2939,-0.196,0.1384,0.0956,-46.9437,24.7712,-5.5125,17.72587926642038,4.26094774955634,14.900203929026553,18.28880240748009
0.0723,0.9152,0.3027,-0.196,0.1384,0.0956,-47.9938,25.0163,-6.5975,18.289104187596894,4.285810957276018,14.482114511756919,18.300936073164404
0.0702,0.909,0.3149,-0.1961,0.1378,0.0983,-48.8075,25.1125,-7.63,19.09003220446594,4.189605005326142,14.570273509720705,18.309834590149023
0.0677,0.9063,0.3292,-0.1983,0.1398,0.1078,-49.175,24.535,-8.5662,19.944474649595975,4.044662386934763,16.009918729209755,18.32198595164725
0.0637,0.8994,0.331,-0.1983,0.1398,0.1078,-50.015,24.22,-8.0937,20.199411310103876,3.8395288094874145,15.823363059829237,18.33419146233605
0.0512,0.8925,0.3436,-0.1985,0.1407,0.1133,-50.7588,23.6425,-8.3562,21.03859993050065,3.187459271917867,16.255977073928698,18.346398742606247
0.0514,0.8907,0.3563,-0.1985,0.1407,0.1133,-52.1587,22.785,-7.8488,21.78742443424165,3.0846464828534916,15.676004351507212,18.35853240829056
0.0527,0.8827,0.3676,-0.1974,0.1418,0.1175,-52.0625,22.1462,-7.42,22.592994007577886,3.1449867906460747,16.043719382403424,18.370731194570073
0.0592,0.8728,0.373,-0.1974,0.1418,0.1249,-52.8063,21.07,-6.9038,23.129265801878446,3.5142906227168704,17.572527775448428,18.382960063733243
0.0643,0.8688,0.3855,-0.1979,0.1429,0.1249,-53.0075,19.9412,-6.825,23.912087809839697,3.8247161742667735,16.916521092863626,18.39508877458966
0.068,0.8664,0.396,-0.1998,0.1418,0.1323,-54.2675,20.3262,-6.3263,24.55106560279756,4.052013532189523,18.179976283175705,18.403975258420818
0.0586,0.8557,0.4067,-0.1998,0.1418,0.1323,-54.2325,19.8712,-5.4513,25.40445320551015,3.5949971964366916,17.360889742652173,18.416146439230626
0.0565,0.8519,0.4158,-0.2013,0.1446,0.1394,-54.6787,19.8362,-4.5675,26.004813772240155,3.429141382759238,18.03334675390889,18.428320097454385
0.0514,0.8444,0.4223,-0.2013,0.1446,0.1394,-55.0288,18.0075,-3.85,26.559902171950366,3.145204620545516,17.505728822795497,18.440516052403677
0.054,0.8397,0.4342,-0.2008,0.1459,0.1495,-55.3087,16.5725,-3.2638,27.328440589036965,3.258492724961204,19.074474972561855,18.452696788953
0.0536,0.8316,0.4415,-0.2026,0.1489,0.1528,-55.615,15.5487,-3.185,27.952268301421054,3.2582700852432005,18.87038975013078,18.464880710748826
0.0601,0.8062,0.4577,-0.2026,0.1489,0.1528,-55.6937,15.12,-2.8963,29.55451788048251,3.670862986743396,17.539016257021395,18.477073126535334
0.0615,0.7988,0.4694,-0.2038,0.1471,0.1593,-55.1075,14.0437,-2.765,30.42330461059385,3.786964816286502,18.27368488026018,18.48590192201313
0.0645,0.7895,0.4731,-0.2038,0.1471,0.1593,-53.6463,13.1075,-2.765,30.921969628459653,3.9900011009985805,17.94522712340296,18.498130083343746
0.0684,0.7826,0.4886,-0.2046,0.149,0.1691,-53.2088,13.0113,-4.1737,31.95729861493998,4.216202402304816,18.861595870872268,18.510550775129737
0.0734,0.7885,0.5025,-0.2043,0.15,0.1726,-51.66,12.3987,-5.145,32.497785747584054,4.459997158524272,19.170139831671023,18.522468197968024
0.0759,0.7802,0.5133,-0.2043,0.15,0.1726,-51.5988,12.0312,-5.3025,33.32439462886134,4.626373380487706,18.449486918952804,18.534660613754532
0.082,0.7763,0.5214,-0.2069,0.1524,0.1792,-51.5025,11.55,-4.9788,33.87592101762236,4.971503172673333,18.859363455329355,18.546853029541037
0.0802,0.7696,0.5267,-0.2069,0.1524,0.1792,-51.275,10.9462,-4.48,34.37673838464098,4.920778085281462,18.36827126700117,18.559027749513632
0.0816,0.7613,0.5364,-0.2058,0.1549,0.1881,-50.75,10.9025,-4.1563,35.151841558751116,4.999230064069038,19.19813021388961,18.567857252823988
0.0867,0.7458,0.5438,-0.2092,0.156,0.1922,-49.8138,10.2637,-4.4012,36.07806087483627,5.330413242413425,18.8645819539945,18.580049668610492
0.0912,0.7344,0.5486,-0.2092,0.156,0.1922,-48.1688,9.7388,-6.7463,36.74526633844955,5.637234079913839,18.265492811152285,18.592220849420304
0.1047,0.731,0.5677,-0.2104,0.1547,0.1968,-45.2988,10.9025,-7.4463,37.808311084497696,6.340731674063792,18.40835225343502,18.604411495625417
0.1107,0.734,0.5798,-0.2104,0.1547,0.1968,-43.785,12.2062,-7.8138,38.29407181773286,6.689758037197732,18.01868090806105,18.616583030351507
0.1113,0.7376,0.5923,-0.2099,0.1595,0.2067,-43.2163,12.985,-8.5925,38.753507126295304,6.706953765792785,18.853994362263542,18.628777215719403
0.1033,0.725,0.5936,-0.2103,0.1605,0.2057,-41.895,13.5537,-9.4937,39.295424647713865,6.371636460381294,17.69714089904229,18.640958306185006
0.0969,0.7086,0.5949,-0.2103,0.1605,0.2057,-40.2675,14.3587,-10.185,39.996314077928425,6.066711550402405,16.653167334016374,18.65317408044588
0.0885,0.6831,0.6147,-0.2085,0.162,0.2118,-39.4275,14.735,-11.2875,41.93059245551153,5.668720096233946,15.166337087258015,18.662033666639886
0.0905,0.6862,0.6261,-0.2085,0.162,0.2118,-36.8112,14.6562,-12.4775,42.36514834027297,5.612298935295529,14.595646069983111,18.674262535803056
0.0975,0.6939,0.6395,-0.2082,0.1652,0.2137,-34.3263,14.7962,-13.965,42.65463503310906,5.679487511655656,14.145560782659667,18.686474770901146
0.1028,0.6914,0.6425,-0.2104,0.1667,0.2196,-32.165,15.3825,-15.05,42.89247937330056,5.991581410604582,14.728091075085835,18.698723105459617
0.1003,0.6822,0.644,-0.2104,0.1667,0.2196,-30.905,17.045,-15.82,43.33451430356719,6.06736341738327,14.127792177653696,18.710888623608977
0.0784,0.6762,0.6426,-0.2064,0.1678,0.2224,-29.2687,18.48,-16.4675,43.533117965309906,5.135814532171209,14.02962587952578,18.72320491009288
0.0681,0.6756,0.6432,-0.2064,0.1678,0.2224,-26.39,20.3875,-17.4212,43.59025592327363,4.377126749143875,13.735684777855877,18.735350255014374
0.0595,0.6768,0.6473,-0.2022,0.1702,0.221,-24.43,21.9188,-18.2,43.71787017009671,3.7691963536771462,12.898944588078285,18.74757770851243
0.0498,0.6759,0.6415,-0.2003,0.1718,0.2252,-23.03,22.0937,-18.165,43.514175510884755,3.1880369867179064,13.650902198958635,18.759780033954726
0.0358,0.676,0.6495,-0.2003,0.1718,0.2252,-21.8575,21.4112,-17.3075,43.83790369766598,2.4023237034833187,12.926323529233128,18.772000409127216
0.0254,0.6869,0.6471,-0.1993,0.1733,0.2286,-21.1487,20.9475,-16.2488,43.31898119052972,1.7814860178370655,13.891179902142802,18.784186808336994
0.0233,0.6859,0.647,-0.1993,0.1733,0.2286,-20.6937,19.775,-15.085,43.32783854966906,1.5663840662531314,13.846106934169637,18.79311222295876
0.0268,0.6814,0.6503,-0.1981,0.174,0.2309,-20.2562,19.3113,-14.6037,43.64430825441076,1.5971834907782967,13.873203474492765,18.80531419448478
0.0247,0.6776,0.6577,-0.1966,0.1738,0.2332,-19.81,19.4162,-14.7087,44.118700690539185,1.5465599113177384,13.764994601227832,18.817514750345687
0.0259,0.6781,0.6565,-0.1966,0.1738,0.2332,-19.8275,18.655,-14.2187,44.075282995970376,1.5556474705252463,13.883933632463927,18.829762023155325
0.0256,0.6887,0.6637,-0.1949,0.1752,0.2321,-19.3025,18.1125,-14.2362,43.948535733713015,1.5474269353854635,13.69086091218094,18.84197567391853
0.0265,0.6846,0.667,-0.1949,0.1752,0.2321,-19.2675,18.7687,-13.8075,44.236722278508765,1.5526905935962512,13.268418298575822,18.854182600272445
0.0218,0.676,0.6678,-0.1918,0.177,0.2251,-19.1625,18.06,-13.125,44.62689543226086,1.4696849547351976,11.052434463336803,18.8664263339193
0.019,0.6689,0.6724,-0.1908,0.1799,0.2353,-19.2675,16.7038,-13.405,45.120013528877884,1.4044556270984898,11.695004388211764,18.878618749705808
0.0212,0.6612,0.6794,-0.1908,0.1799,0.2353,-17.885,16.03,-13.9038,45.73753580319629,1.3801839181502176,10.870136126200029,18.890853281529427
0.0398,0.6587,0.688,-0.1894,0.1782,0.2348,-16.9225,15.9162,-15.085,46.2132836692866,1.9753611683119945,10.773425814654914,18.903079673278647
0.043,0.6576,0.6914,-0.1894,0.1782,0.2348,-15.4525,16.0912,-17.675,46.41931345983282,2.4596694202985963,10.538085618481459,18.915267134237258
0.0437,0.6495,0.6958,-0.189,0.1802,0.2343,-15.2163,17.0538,-20.58,46.93074779466135,2.6073445134414426,9.20557887946203,18.924880208187712
0.0334,0.6468,0.6933,-0.187,0.1798,0.2384,-14.5862,17.6225,-23.135,46.98296556919216,2.073772885776677,9.96907579995091,18.936910176402492
0.0072,0.651,0.6907,-0.187,0.1798,0.2384,-13.755,17.5263,-24.5613,46.71845232018289,0.5723433224416796,10.025756742138439,18.949115333175016
-0.0242,0.6564,0.6925,-0.183,0.1835,0.2394,-13.0025,16.065,-24.8675,46.54920462918062,-1.286978180026937,9.430182202297104,18.961342078840513
-0.0294,0.6547,0.6892,-0.183,0.1835,0.2394,-11.9875,13.615,-23.8962,46.478083374229364,-1.7283651737792725,9.408681932622246,18.9734891933434
-0.0289,0.6544,0.6837,-0.1822,0.1877,0.2352,-11.2175,11.5237,-23.17,46.277524028193234,-1.747102675096171,8.163157134125083,18.985704967604274
-0.0351,0.6586,0.6823,-0.179,0.1841,0.2397,-10.7012,9.3712,-22.6187,46.041526726963916,-2.0823243177421213,9.938390317146213,18.997875440581527
-0.0317,0.668,0.6841,-0.179,0.1841,0.2397,-9.8787,6.1425,-21.4813,45.725345054263094,-1.919676051254106,10.59131426696628,19.009977253800795
-0.0228,0.6749,0.6819,-0.1791,0.1849,0.2393,-9.2575,5.2063,-21.84,45.351342900296906,-1.422161291363675,11.09625558175695,19.02207765135495
-0.0203,0.6756,0.6783,-0.1791,0.1849,0.2393,-10.0362,3.99,-20.9913,45.14219325829822,-1.239628223281046,11.431198494096163,19.034259803569388
-0.0135,0.68,0.6859,-0.1767,0.1846,0.2395,-10.7362,3.7362,-20.125,45.23602719801727,-0.8595705983838834,11.643159464768031,19.046380728267682
-0.0156,0.6789,0.6808,-0.1754,0.1874,0.2434,-11.6287,3.5,-19.8362,45.09553529566975,-0.9198142237696333,12.081767790021496,19.05586108361378
-0.015,0.667,0.6835,-0.1754,0.1874,0.2434,-11.69,3.3775,-19.6087,45.640386554370274,-0.902715681281638,11.503070057660075,19.06806517863747
-0.0145,0.6585,0.6901,-0.1746,0.1882,0.2439,-12.2937,2.8788,-19.1625,46.27697036376543,-0.8757947057766733,10.644268875386684,19.080166284024184
-0.0146,0.6496,0.6844,-0.1746,0.1882,0.2439,-13.265,2.765,-18.7337,46.47578190797967,-0.8846926049574653,10.189466737668464,19.092338880499106
-0.0268,0.6508,0.6831,-0.1754,0.1905,0.2446,-11.9087,2.9488,-17.9288,46.39568644532253,-1.4861928119640262,9.7307855858235,19.10447643926248
-0.0407,0.6572,0.6771,-0.1738,0.1902,0.2469,-11.4712,2.065,-16.5812,45.90900052388678,-2.2190182897830746,10.25617520095104,19.116669562881544
-0.0423,0.678,0.6859,-0.1738,0.1902,0.2469,-11.9525,0.49,-15.0937,45.387337377911926,-2.391290633367672,10.691061335857576,19.12879898157052
-0.0232,0.6781,0.6866,-0.1779,0.1908,0.2476,-12.425,-1.505,-14.4375,45.35966275352237,-1.9473911726928599,11.380957102783615,19.14103315947786
-0.0101,0.6767,0.6923,-0.1779,0.1908,0.2476,-13.1775,-3.6488,-14.5513,45.627654458161494,-1.3109700918434284,11.423335047051447,19.15327193829682
-0.0012,0.6664,0.6997,-0.1758,0.1921,0.2568,-14.4287,-3.3163,-15.4088,46.3366823318863,-0.5220286772406929,12.029960075507471,19.16546789324611
0.0031,0.6523,0.7049,-0.1748,0.1933,0.2503,-14.0437,-3.2725,-16.345,47.1488109318815,-0.006858846428191011,9.732910797071128,19.177596958018803
-0.0033,0.6364,0.7024,-0.1748,0.1933,0.2503,-13.0375,-2.6075,-17.0012,47.76365801784906,-0.15512251338259347,8.399802488461946,19.189846708242392
-0.0013,0.6342,0.7145,-0.1755,0.1943,0.2534,-12.3112,-2.135,-16.975,48.34749813986452,-0.09584168366611799,7.654963676708661,19.20200585589874
-0.0082,0.6334,0.7114,-0.1755,0.1943,0.2534,-11.8825,-2.5375,-15.7237,48.322213163540745,-0.36356727067136324,7.515554630029408,19.21156442674234
-0.0122,0.6296,0.711,-0.1746,0.1957,0.2534,-11.1475,-2.7125,-14.7262,48.458797593112365,-0.5558354748724444,6.9948034704334345,19.223789048910167
-0.0182,0.6321,0.7054,-0.1758,0.1933,0.255,-10.01,-3.0975,-15.1025,48.17492873459975,-0.8777776591229538,7.964309176823455,19.235973324622275
-0.0185,0.6432,0.7167,-0.1758,0.1933,0.255,-10.08,-3.1238,-14.7613,48.10323628788454,-0.9945920289613762,8.2148768493843,19.2483625178595
-0.0214,0.6511,0.7163,-0.179,0.1945,0.2606,-9.275,-3.045,-15.1462,47.7782132400114,-1.1571543026055693,9.296442914825214,19.2606381039714
-0.0249,0.6434,0.7208,-0.1769,0.1957,0.2578,-8.9512,-3.4563,-13.1425,48.18391978803142,-1.2658389493309097,8.152524900127176,19.272539954493446
-0.0245,0.6293,0.724,-0.1769,0.1957,0.2578,-7.455,-3.745,-13.265,48.864218103445005,-1.321573500728108,6.871755364405628,19.284631858056922
0.0008,0.6154,0.7293,-0.1782,0.1952,0.2582,-6.7375,-4.2088,-13.93,49.653217949407164,-1.0295426548929674,5.77410161603194,19.296757737583114
0.0129,0.6135,0.7252,-0.1782,0.1952,0.2582,-6.2913,-4.34,-14.5775,49.74511178936884,-0.16413431528747244,5.8184034144128765,19.30888644843953
0.0108,0.6184,0.7263,-0.1787,0.1963,0.2574,-4.0425,-4.2962,-15.015,49.65077597201921,0.30367765457763213,5.70129151210141,19.321013035798277
0.0113,0.6319,0.7182,-0.1779,0.1966,0.2597,-2.1788,-4.2088,-15.33,49.38273053773177,0.5370910361266745,7.489300505329231,19.333081580887388
0.0072,0.6442,0.7074,-0.1779,0.1966,0.2597,-2.135,-3.4475,-15.6012,48.883902920245426,0.46716460636911195,9.165912004557953,19.342591665200864
0.0054,0.6627,0.703,-0.1792,0.1944,0.2599,-2.6513,-3.1238,-15.2425,48.67917866737918,0.37711337260560307,11.225053931586045,19.35457491646691
0.0004,0.6597,0.7064,-0.1792,0.1944,0.2599,-2.9925,-3.1325,-14.5425,48.149809540568114,0.2113412733523932,11.169516136651884,19.366679561016404
0.0074,0.6492,0.7095,-0.1805,0.1966,0.2638,-3.92,-3.2113,-14.6475,47.79779573302519,0.32544201578328047,10.641578007374779,19.378790929975185
0.0102,0.6391,0.7026,-0.1805,0.1966,0.2638,-4.4538,-3.3863,-14.9625,47.74000377193235,0.48946098092454904,10.341216725341477,19.39086372205964
0.0104,0.6312,0.7084,-0.1806,0.1974,0.2594,-4.3575,-3.1412,-16.4412,48.099529943003766,0.5913695952690529,8.534285045635318,19.402988185920716
0.0116,0.6291,0.7083,-0.18,0.197,0.2598,-3.71,-2.7913,-18.2875,48.25512081354895,0.6819663128677188,8.237395064347176,19.415114419363185
-0.0013,0.6371,0.7103,-0.18,0.197,0.2598,-3.885,-2.695,-18.0513,48.17190232807808,0.06288411452443005,8.407650661149553,19.424534962858257
-0.0109,0.6414,0.7038,-0.1806,0.1971,0.259,-3.6663,-3.2462,-17.185,47.899526816453616,-0.4970338130863662,8.78584001568841,19.43666084238445
-0.0163,0.641,0.7036,-0.1806,0.1971,0.259,-4.2438,-3.9113,-15.2163,47.752368638029445,-0.7918211088698911,8.775161677960453,19.448965803547445
-0.011,0.6377,0.7062,-0.1787,0.1966,0.2672,-4.1038,-5.145,-15.0762,47.85312436651459,-0.7159060592801448,10.085155262075824,19.461024792897042
-0.0052,0.6327,0.7046,-0.181,0.1965,0.2628,-4.2,-5.2937,-14.4725,47.992911474258335,-0.5358945251715388,9.261320036179447,19.47316978390226
0.0097,0.6326,0.7092,-0.181,0.1965,0.2628,-3.3863,-5.9675,-14.2187,48.118019867385975,-0.13373245478905307,9.076014429397244,19.485287877270327
0.0171,0.6348,0.709,-0.1804,0.1986,0.2613,-3.5875,-5.7663,-13.9387,48.13965017405314,0.12049842504805985,8.647262925024242,19.497342973540864
0.0256,0.641,0.7112,-0.1804,0.1986,0.2613,-3.7013,-5.4513,-13.8075,48.04979844316256,0.3029615951169677,9.019699745608124,19.509491503708865
0.031,0.6445,0.7146,-0.1811,0.1958,0.2695,-3.4913,-4.865,-13.1425,48.0026265290732,0.8281903452893663,11.25963865914465,19.52158553077001
0.0292,0.6414,0.7133,-0.1829,0.1961,0.263,-3.2462,-4.1737,-12.9675,48.01720382335715,1.2023919225067117,10.083423157429827,19.53096785130703
0.0307,0.6205,0.7149,-0.1829,0.1961,0.263,-3.5438,-3.7625,-12.0487,48.52919533060579,1.606532102685799,8.38799844562186,19.543051260879828
0.0304,0.6111,0.7114,-0.1834,0.1962,0.2638,-2.94,-3.3688,-11.55,48.756548766077714,1.776165453250454,7.7537614211252475,19.55516510725256
0.0172,0.611,0.7061,-0.1834,0.1962,0.2638,-1.5225,-2.695,-11.8212,48.94556882256255,1.3093124668407488,7.780214899173826,19.567248162909078
0.0098,0.6242,0.7025,-0.1841,0.1965,0.2681,0.0788,-1.68,-13.0375,48.53418716071611,1.0364764921777427,9.245746054365103,19.579369441523653
-0.0014,0.643,0.7036,-0.1844,0.197,0.2615,0.6737,-1.7062,-12.5212,47.8034809076978,0.4400444146445629,9.441919262548273,19.591390915747752
-0.0106,0.6633,0.6964,-0.1844,0.197,0.2615,0.35,-3.3863,-11.2437,46.75593604854536,-0.31773137152982694,10.988636962877807,19.6035012229577
-0.0066,0.6612,0.6955,-0.1846,0.1954,0.2634,-0.1138,-5.2238,-9.9488,46.5378276921673,-0.37784771275471574,11.899093949485243,19.61289911581096
0.0073,0.6573,0.6844,-0.1846,0.1954,0.2634,-1.82,-6.405,-8.6012,46.37738885270255,0.3056318834797893,12.732661082776612,19.624944302425707
0.0139,0.6573,0.6841,-0.1876,0.1954,0.2572,-2.2138,-6.895,-8.0937,46.31902179889696,0.7581106806444879,11.662913135737913,19.636986303793947
0.0223,0.662,0.6878,-0.192,0.1929,0.2628,-2.6075,-7.1225,-7.77,46.306515554505786,1.2539782902948853,13.03358109016806,19.649020165087787
0.0384,0.6583,0.6902,-0.192,0.1929,0.2628,-3.7362,-7.28,-7.8313,46.332910316679815,2.151477222724146,13.140372387269021,19.661069244781594
0.0661,0.6495,0.6848,-0.1917,0.193,0.265,-3.7538,-7.3238,-8.1812,46.432683549547654,3.719821386760795,13.996876368288186,19.673138143786982
0.0649,0.6548,0.684,-0.1917,0.193,0.265,-3.6837,-6.0375,-9.6687,46.335263505969344,3.880598177086443,14.471283513679818,19.68244260274278
0.0699,0.6573,0.6926,-0.1934,0.195,0.2639,-3.6837,-4.4538,-10.6225,46.42176105552381,4.111003646052409,13.548219579141412,19.694511855664448
0.0702,0.656,0.6963,-0.1934,0.195,0.2706,-4.025,-3.7625,-12.2587,46.591810479978214,4.161128806656262,14.335185128223992,19.706608006223263
0.0684,0.6499,0.6955,-0.1925,0.1961,0.2706,-4.7425,-3.1937,-14.105,46.831813782990004,4.145374265593506,13.941471853683447,19.718737778828515
0.0601,0.6442,0.7014,-0.1942,0.1942,0.266,-5.6175,-2.2138,-14.5425,47.28609869950511,3.8947165197023583,12.483481484589891,19.730871798429106
0.044,0.6299,0.7133,-0.1942,0.1942,0.266,-5.5213,-1.7325,-14.77,48.23408990023245,3.2382161586368516,10.433536308453268,19.742987060466948
0.0462,0.6234,0.713,-0.1943,0.1938,0.2654,-4.8125,-2.5463,-14.5162,48.6513909982958,3.0325874499685015,9.458647679053962,19.75505737513745
0.0509,0.6206,0.7135,-0.1943,0.1938,0.2654,-3.7625,-2.2662,-14.9012,48.83342756799573,3.059432210438606,9.109814386670328,19.764418106781495
0.0531,0.6205,0.713,-0.1929,0.1942,0.2559,-3.92,-2.31,-14.6737,48.91128156351603,3.1380059528669415,7.505588435605373,19.776554249879755
0.0531,0.6247,0.7185,-0.1969,0.1935,0.267,-3.43,-1.6275,-15.05,48.95035028978343,3.16951416651418,8.795440544534737,19.788671281498992
0.058,0.6127,0.7167,-0.1969,0.1935,0.267,-2.835,-1.89,-15.1637,49.06682507810941,3.380047324700763,8.59091134109101,19.800710097620726
0.0581,0.607,0.7203,-0.1943,0.1938,0.2671,-1.7325,-1.5575,-15.6625,49.431740453316834,3.4797683777598873,8.054346153039486,19.812835269314363
0.0592,0.6035,0.7192,-0.1943,0.1938,0.2671,-1.2075,-1.6013,-16.0387,49.75672080115665,3.57006829806007,7.75581127958374,19.824962918421942
0.0533,0.5987,0.7272,-0.1947,0.1958,0.2677,-0.315,-0.7,-15.8463,50.29467764254863,3.3426159447792836,6.759229017150059,19.837103662431822
0.0418,0.5887,0.7333,-0.1942,0.1929,0.2666,1.3912,-0.5075,-15.4088,51.05036278002205,2.8351608382384255,5.852967756897973,19.846398919564386
0.0398,0.58,0.7293,-0.1942,0.1929,0.2666,3.8763,-1.4525,-15.0675,51.44407938348987,2.6074321755623093,5.072841193656354,19.858412607630363
0.0226,0.5915,0.7282,-0.1949,0.1934,0.2654,5.1625,-2.2662,-15.5225,50.974714083401295,1.8086263527900277,5.2169221923567655,19.870452131584656
0.0059,0.6037,0.7249,-0.1949,0.1934,0.2654,7.105,-3.0363,-16.3625,50.2838788039575,0.749935020634304,6.069897752361019,19.882521738422604
0.0014,0.6185,0.7202,-0.1958,0.1915,0.269,8.4787,-4.5588,-16.5112,49.42248723033132,0.25723774901973145,8.320052458366044,19.894571525948965
0.0018,0.6308,0.7094,-0.1959,0.191,0.2627,10.3687,-7.3763,-17.465,48.43303629911593,0.13956008750935894,9.157148227046672,19.906668030424058
0.0066,0.6362,0.7062,-0.1959,0.191,0.2627,11.4187,-10.0975,-18.6462,48.01494263135505,0.35469720535681876,9.871902335225814,19.918782938545622
-0.0018,0.6415,0.7076,-0.1946,0.1924,0.2622,11.6812,-13.65,-21.6212,47.81878475601148,-0.056354967240510825,9.763937479808693,19.92832345965903
-0.0063,0.6482,0.7015,-0.1946,0.1924,0.2622,11.34,-16.0037,-21.4813,47.298884228740995,-0.3414681238268033,10.504845885337781,19.940532155594337
0.004,0.6556,0.703,-0.198,0.1904,0.2571,11.165,-19.4687,-22.7062,47.018611636062765,0.18070199963251338,10.40635148015058,19.9527334192878
0.0115,0.6571,0.6966,-0.1972,0.1894,0.2618,11.2262,-21.6125,-23.3975,46.69487798485821,0.6407861647094515,12.141873691742493,19.96489221302787
0.0237,0.6549,0.7042,-0.1972,0.1894,0.2618,10.9375,-23.4937,-23.1,47.051027452251034,1.3379197982911333,11.830496046219645,19.977191511530414
0.0305,0.6343,0.7114,-0.1998,0.1874,0.26,11.41,-25.62,-23.4675,48.19699762747214,1.7870687179318354,9.9933402413123,19.989184672452254
0.0293,0.6218,0.7149,-0.1998,0.1874,0.26,13.7462,-27.44,-24.0888,48.9386520124939,1.772642259725136,8.795634599463334,20.001359038508568
0.0303,0.6113,0.7155,-0.2003,0.1878,0.2538,14.8662,-28.9363,-24.6225,49.46052902261183,1.8381470046355326,6.696075811495987,20.01347677796036
0.0368,0.606,0.7063,-0.2004,0.1866,0.2538,18.1037,-29.9425,-25.97,49.37480945196925,2.2324167687435406,7.160557498401469,20.025648666602727
0.0418,0.6094,0.7056,-0.2004,0.1866,0.2538,20.9562,-31.3425,-27.8162,49.19185429939345,2.544994966582417,7.538325650255855,20.03782904923577
0.0618,0.6406,0.6847,-0.2013,0.1839,0.2545,24.0275,-32.1125,-28.7875,46.98874065387713,3.6948824318481104,12.235583438558107,20.050040576501303
0.069,0.6495,0.6762,-0.2013,0.1839,0.2545,27.5275,-32.2788,-27.6763,46.180666250153045,4.17469528131087,13.743773263560115,20.059369809596582
0.0724,0.652,0.669,-0.2044,0.1824,0.2573,28.9975,-32.1125,-27.6325,45.75092368263409,4.414533893671409,15.194742478449362,20.07154382173662
0.0712,0.6506,0.6623,-0.2054,0.1806,0.2485,30.2838,-32.06,-25.8475,45.51768576770557,4.38770458800718,14.045900448037116,20.083764904741663
0.0818,0.657,0.6633,-0.2054,0.1806,0.2485,31.6225,-31.64,-25.06,45.280338805408306,4.957358951716135,14.632979182055696,20.095904587002707
0.0874,0.6756,0.6451,-0.2062,0.1785,0.2471,32.48,-30.7125,-23.87,43.721557619560166,5.310634906182142,17.274067977255992,20.108088154882257
0.0837,0.676,0.6384,-0.2062,0.1785,0.2471,32.7337,-30.59,-22.0062,43.37135758508554,5.161699875026095,17.72052104022394,20.12018288977596
0.0795,0.68,0.6263,-0.2075,0.178,0.2421,33.7313,-30.3887,-20.6588,42.66544098147795,4.945883020001208,17.582557354129047,20.13238698479965
0.086,0.6897,0.6265,-0.2089,0.1745,0.2386,34.93,-29.855,-19.8975,42.2617113016513,5.228097925599696,18.081721206943676,20.14454754812111
0.0916,0.6983,0.6109,-0.2089,0.1745,0.2386,35.7262,-29.5225,-18.2525,41.20822130201279,5.5650520557880165,19.756408062041924,20.15673182383322
0.0767,0.6997,0.6086,-0.2121,0.1718,0.2357,36.3913,-28.9625,-17.4125,41.02158284317451,4.90418152102024,19.12374821571428,20.168848501536175
0.0558,0.6972,0.6042,-0.2121,0.1718,0.2357,36.2163,-28.91,-16.275,40.91524902261229,3.860250969431892,18.650971676962424,20.181003048280903
0.0475,0.711,0.5937,-0.2138,0.1687,0.2311,37.7388,-29.6975,-16.8262,39.88808956522321,3.1574632884222167,19.14697860970803,20.19044341108756
0.0504,0.7319,0.582,-0.2142,0.1659,0.226,38.8587,-34.5975,-16.695,38.52432577797225,3.103074481503262,20.243962633332433,20.20263051812989
0.0603,0.7717,0.5665,-0.2142,0.1659,0.226,37.8087,-36.68,-16.2925,36.33636759566513,3.4663116980701627,23.02536751971318,20.21480382243737
0.0905,0.7735,0.5603,-0.219,0.1638,0.2242,37.135,-38.5788,-16.7388,35.928708083550696,4.935700478065554,23.855912056253107,20.226867058782307
0.0952,0.7671,0.551,-0.219,0.1638,0.2242,36.1637,-39.935,-16.1437,35.69532516977158,5.520424800622843,24.313044129917632,20.23907079988972
0.1004,0.7573,0.5481,-0.2198,0.1626,0.2226,33.9675,-41.1862,-15.6625,35.890012686049005,5.927038977462144,24.046013382562613,20.25125790693205
0.1146,0.7466,0.5433,-0.2249,0.161,0.2153,33.635,-42.7262,-15.6012,36.039217268581204,6.68479119383742,22.537276075203316,20.26347474294176
0.1303,0.7375,0.5297,-0.2249,0.161,0.2153,34.3087,-43.855,-16.1262,35.69661242097749,7.738937262022028,23.475012708363558,20.275538333202974
0.1523,0.7379,0.5273,-0.2285,0.1562,0.2117,35.56,-44.8875,-16.24,35.55319156097046,9.031701056827204,23.872317386799935,20.28771623842207
0.169,0.7399,0.5184,-0.2285,0.1562,0.2117,36.3563,-44.5375,-16.5112,35.02989026799916,10.189578967932434,25.078723715484767,20.29989131231094
0.1828,0.7451,0.5065,-0.2328,0.1534,0.2044,37.065,-44.2575,-16.6688,34.22713216076566,11.15023099922154,24.70230526150021,20.31207700368816
0.1943,0.7511,0.4971,-0.2334,0.1521,0.205,39.3138,-43.9425,-17.29,33.51477579762247,11.952438882297962,26.07637125747782,20.32144056666243
0.2169,0.7598,0.4851,-0.2334,0.1521,0.205,41.4925,-41.2125,-19.425,32.577776630303205,13.29586442030372,27.94202960325908,20.333623072793145
0.2219,0.7586,0.4754,-0.2366,0.1485,0.2003,42.1312,-39.585,-19.88,32.08559514365467,13.834369097526034,27.611898952185797,20.345802393677356
0.222,0.7592,0.4649,-0.2366,0.1485,0.2003,42.945,-38.7363,-20.8075,31.494426775857978,13.981785079461776,28.229280770761452,20.35798879288713
0.231,0.7698,0.4591,-0.2391,0.1478,0.1984,44.6425,-37.5112,-22.0937,30.825545538035875,14.402181793869318,28.48101198171765,20.370079988618052
0.2388,0.785,0.4457,-0.2382,0.145,0.1884,45.955,-35.4725,-23.0125,29.611667535602134,14.777411892856799,27.91198026816908,20.382270988739446
0.2502,0.8169,0.4198,-0.2382,0.145,0.1884,46.7687,-33.6,-24.08,27.246321159670437,15.19806188747124,30.239613848571064,20.394446770460874
0.2533,0.8214,0.4118,-0.2386,0.1426,0.1818,47.3725,-31.2112,-25.6287,26.638575816693354,15.395542513346204,29.49567244733883,20.40662467567997
0.2483,0.8208,0.4031,-0.2386,0.1426,0.1818,47.3025,-29.015,-26.5912,26.16543381838705,15.206013278617606,29.715619148943105,20.418804704396738
0.2405,0.8185,0.3882,-0.2381,0.142,0.1825,47.3812,-27.055,-26.95,25.389690757000043,14.891777949897566,30.40338746876846,20.430928460425257
0.2307,0.8166,0.3889,-0.2367,0.1409,0.1704,46.865,-25.3925,-26.95,25.46428657824137,14.34980002944256,27.523574049270408,20.443043368546824
0.228,0.8275,0.3662,-0.2367,0.1409,0.1704,46.5587,-23.38,-27.1425,23.90299313766921,14.156207641991813,28.560239927832704,20.45251416815341
0.2323,0.84,0.3573,-0.237,0.1393,0.1649,47.53,-22.225,-27.125,23.059662161937304,14.269313885150591,28.109734961821054,20.464694196870177
0.2325,0.851,0.3442,-0.237,0.1393,0.1649,47.8275,-19.775,-27.3875,22.041829975381248,14.216575346559146,28.79361578717089,20.476885904824126
0.2334,0.8612,0.3356,-0.237,0.1385,0.1594,47.6175,-18.27,-26.075,21.304993824451333,14.175422471433958,28.128447092069162,20.489000459029413
0.2369,0.8695,0.3213,-0.2365,0.1358,0.1509,46.9,-16.3013,-25.9612,20.300725866782493,14.323887582920861,27.153407005330866,20.501167392843882
0.2357,0.8821,0.3032,-0.2365,0.1358,0.1509,45.78,-14.0963,-26.0662,18.996131467054788,14.191975900667297,27.894132568036383,20.513306013356093
0.2327,0.8862,0.3013,-0.234,0.135,0.1462,44.6862,-12.4862,-26.6963,18.782100819252953,13.977497127199728,27.233967148262604,20.52549595172865
0.2289,0.8863,0.2935,-0.234,0.135,0.1462,43.2425,-10.9725,-26.2938,18.332215982677976,13.79037340056984,27.394996459228526,20.537617230343223
0.2269,0.8822,0.2891,-0.2322,0.1354,0.1366,41.7025,-9.1875,-26.705,18.14830551492878,13.738341397843348,25.541635238395525,20.549741340288023
0.2203,0.8822,0.2798,-0.2314,0.133,0.1326,40.9588,-8.295,-26.7138,17.609416588389774,13.413892501368002,24.877774934316786,20.561859433656092
0.216,0.893,0.2744,-0.2314,0.133,0.1326,40.9588,-7.1487,-26.8013,17.092955825174695,13.046640626754956,24.986950400684165,20.571224058379197
0.2214,0.8975,0.2668,-0.229,0.1321,0.1257,40.6,-6.2737,-27.1338,16.567815199606976,13.285958523244018,24.180347689655918,20.5832943730497
0.2173,0.9045,0.259,-0.229,0.1321,0.1257,40.2938,-5.775,-27.125,15.992289358800768,13.024468779746915,24.31853795670296,20.59555332509652
0.2153,0.9069,0.2556,-0.2284,0.1328,0.1194,39.0425,-4.69,-28.9363,15.745844267335436,12.880547275066258,23.094199728506386,20.607515341385874
0.2158,0.9021,0.2576,-0.2246,0.131,0.115,37.5812,-2.6775,-28.6125,15.932359121779708,12.949512553368843,22.327987387994295,20.619643698326012
0.2164,0.9054,0.2393,-0.2246,0.131,0.115,37.2313,-1.9512,-28.5687,14.83255700662276,13.007399050192882,22.776261432003714,20.63173524797321
0.213,0.9135,0.2356,-0.224,0.1305,0.1094,36.7762,-0.7263,-28.8488,14.471137950678603,12.740529835964331,22.07292888662579,20.643835291611087
0.2115,0.9146,0.2338,-0.224,0.1305,0.1094,36.8462,0.7175,-30.5812,14.34274551410687,12.634510503851146,21.99604285289172,20.653152491552902
0.2062,0.914,0.2284,-0.2206,0.1326,0.1006,36.6712,1.7062,-32.1475,14.038110793700932,12.360547544268863,21.03722817042903,20.665223514055963
0.1932,0.9107,0.2214,-0.2176,0.1331,0.0947,36.295,3.1675,-33.215,13.673470110774176,11.68248249597174,19.2044709684395,20.677277548577663
0.1826,0.909,0.2133,-0.2176,0.1331,0.0947,36.8987,3.8325,-34.6413,13.217298030361894,11.093623391903048,18.692725151501403,20.68927141733206
0.1604,0.9126,0.1974,-0.2144,0.1325,0.0897,36.9075,4.1912,-34.8162,12.230345879715745,9.808369143226756,17.988567443593155,20.70134810249557
0.1541,0.9149,0.1886,-0.2144,0.1325,0.0897,37.2925,3.8937,-35.8312,11.662206325054992,9.386466503748315,18.035795900311218,20.713356481817375
0.1473,0.92,0.1871,-0.2117,0.1326,0.082,37.9487,3.8675,-36.19,11.49946657802447,8.936800239081844,16.621748192891435,20.72271862912653
0.1396,0.93,0.1817,-0.2117,0.1326,0.0778,38.01,3.465,-35.3237,11.065676030316688,8.405187738128117,15.562639691193224,20.734736918104126
0.1347,0.9365,0.1724,-0.2087,0.1338,0.0778,38.1675,3.4563,-35.4725,10.445998884310267,8.066946129174585,15.648348409846582,20.746775734225864
0.1319,0.9389,0.1591,-0.2042,0.1338,0.0727,38.2812,3.045,-35.315,9.637420141725125,7.893803109840525,15.295283823989815,20.75885171155682
0.1215,0.9521,0.1421,-0.2042,0.1338,0.0727,36.96,2.6338,-35.0612,8.517038383731212,7.224789110314444,15.590339069714776,20.77091636356687
0.1131,0.964,0.1349,-0.2008,0.1369,0.0664,37.0737,3.8238,-36.2163,7.979675013425196,6.652916272679303,14.68093900519139,20.78023037826218
0.1033,0.9815,0.1154,-0.2008,0.1369,0.0664,35.3937,4.4012,-36.3475,6.738485150251803,5.996233308744404,15.028462897044667,20.7922433584956
0.0917,1.0011,0.1141,-0.1954,0.1397,0.0609,33.915,3.78,-32.9787,6.508513910706769,5.239341900804664,14.153499472203395,20.80442692637515
0.0842,1.0178,0.1056,-0.1964,0.1378,0.0558,28.84,3.5525,-29.3213,5.941490818376597,4.736155342832924,13.067097253191386,20.816345410962274
0.0747,1.0275,0.1016,-0.1964,0.1378,0.0558,26.075,2.5288,-25.3225,5.6570323608109225,4.1852527794603125,12.870057913014955,20.828431651865298
0.0711,1.0122,0.0883,-0.1899,0.1383,0.0518,22.8375,1.365,-23.3187,5.011063417110971,4.019986038417575,12.75123152780616,20.840436845940598
0.0796,1.0092,0.0798,-0.1899,0.1383,0.0518,19.8013,0.7875,-21.3237,4.54209843664971,4.440935198447679,12.772331708906131,20.84976501728704
0.0859,1.0048,0.0788,-0.194,0.1391,0.048,18.34,0.7962,-20.4312,4.486808439105158,4.816041330121982,12.572973291894549,20.86188275673883
0.0981,1.0081,0.0734,-0.194,0.1386,0.0487,16.3625,1.8375,-20.5012,4.180564815778538,5.450712909034818,12.362337229070175,20.87386494625604
0.1014,1.0078,0.072,-0.19,0.1386,0.0487,14.6562,2.6775,-20.3962,4.091596060943614,5.694757601056022,12.434159612269715,20.885877926489464
0.1014,1.0146,0.0753,-0.1894,0.1408,0.0437,12.1625,3.8063,-19.74,4.234774343598733,5.692121477582923,11.210396552940216,20.897954611652978
0.096,1.019,0.0639,-0.1894,0.1408,0.0437,10.2637,4.515,-18.9,3.6350457254220214,5.422841366390022,11.231761469410015,20.909932554174848
0.0896,1.0216,0.0607,-0.1913,0.141,0.0435,8.995,5.4425,-17.9463,3.419035737225587,5.082854099214013,11.155651806720764,20.919452194227837
0.0899,1.024,0.064,-0.1913,0.141,0.0435,6.3787,5.25,-16.7737,3.5604889489434206,5.025874998467372,11.03225523611617,20.931252470778016
0.088,1.0238,0.0651,-0.1903,0.1394,0.0403,3.8937,5.2413,-14.3937,3.6278856990384134,4.973786519776213,10.215634952045658,20.94320634699297
0.0926,1.0168,0.0711,-0.1903,0.1395,0.0404,0.8925,6.0725,-12.5825,3.9161381215217834,5.086377588444071,9.882491377774423,20.955240562203088
0.0978,1.0126,0.0669,-0.1903,0.1395,0.0404,-1.1025,5.985,-12.7137,3.8356003983129368,5.289687294253047,10.010686658148478,20.964540774163545
0.1011,0.9983,0.0728,-0.1909,0.1386,0.0406,-3.9375,6.1775,-12.9412,4.03052880962563,5.4893618262761725,9.848760179837049,20.976611796666603
0.1026,0.9909,0.0784,-0.1909,0.1386,0.0406,-4.7075,6.9038,-13.5362,4.367670652944262,5.533525047878357,9.60309644366418,20.98867326343015
0.098,0.9866,0.0838,-0.1916,0.1407,0.0371,-6.3175,7.7438,-13.8775,4.7527730668899055,5.554845852112654,8.274979953387449,21.000672440928717
0.0942,0.9826,0.087,-0.1916,0.1407,0.0451,-7.6125,8.3562,-14.1487,5.00917716728476,5.521988283307366,10.152634399218872,21.01285565489199
0.0962,0.9788,0.0941,-0.1905,0.14,0.0451,-8.4175,7.77,-14.2012,5.421226114747197,5.5450595801667415,10.166091384282948,21.024807053692992
0.0989,0.9765,0.0952,-0.1911,0.1389,0.0404,-8.68,7.1487,-13.8337,5.5476157776621475,5.576445714121784,8.855059749516405,21.03415256693707
0.1065,0.9752,0.0997,-0.1911,0.1389,0.0404,-9.555,7.5775,-13.4488,5.8011876772173645,5.68481997007123,8.53769988006126,21.046136172119397
0.1075,0.9686,0.1046,-0.1915,0.1389,0.0418,-10.1412,7.7175,-13.2737,6.121368997378008,5.855012994524505,8.654259373095023,21.058239401003778
0.1047,0.9678,0.1066,-0.1915,0.1389,0.0418,-11.4712,8.155,-13.0987,6.2690532688005325,5.956492715913519,8.565139100843952,21.07035253954395
0.1037,0.9639,0.1056,-0.1918,0.1389,0.0389,-12.46,8.1375,-12.7837,6.253655216785044,6.025450711794498,7.750673140945242,21.082481604316644
0.1032,0.9608,0.1192,-0.1914,0.1414,0.0436,-12.0662,7.7525,-12.7837,6.994344653235228,6.052952077752276,8.326217637183596,21.094525729182557
0.1108,0.9507,0.114,-0.1914,0.1414,0.0436,-12.3025,7.91,-12.9675,6.852341100325025,6.27688435270654,8.630701868285277,21.106665057527323
0.1124,0.9484,0.1234,-0.1907,0.1378,0.0441,-11.7075,7.9538,-13.2475,7.358108225563804,6.401087916440845,8.553000612425723,21.11604879372945
0.112,0.9457,0.1215,-0.1907,0.1378,0.0441,-11.5587,8.4875,-13.195,7.324745305277636,6.495686331844914,8.608108143716699,21.128164409683574
0.11,0.9428,0.1273,-0.1938,0.1409,0.0501,-11.2175,8.68,-13.2912,7.652010216359925,6.522528010865205,9.787652717567381,21.140296659702773
0.1072,0.9434,0.1274,-0.1928,0.1392,0.0458,-11.0862,8.3825,-13.2125,7.686816534573621,6.492416001397417,8.80396241159956,21.152322027005937
0.1091,0.9391,0.1338,-0.1928,0.1392,0.0458,-9.8,8.5575,-12.9237,8.057614231203733,6.5214613623999025,8.406959061997846,21.16437889285786
0.1107,0.9356,0.1371,-0.1934,0.1387,0.0465,-9.0125,8.5137,-12.3987,8.299238308135726,6.6082966068714,8.402426821889497,21.17644956144464
0.1089,0.9367,0.137,-0.1934,0.1387,0.0465,-8.785,8.1988,-12.39,8.31797242362255,6.5825127379747075,8.399144096795869,21.18844909285949
0.1051,0.9356,0.1415,-0.1942,0.14,0.0446,-8.2775,8.3387,-12.4687,8.558282427674042,6.449598850476788,7.568761599491035,21.197844508298804
0.1037,0.9356,0.142,-0.1935,0.14,0.0463,-7.3763,7.6737,-12.5562,8.617827060547334,6.346856553456926,7.93295868361899,21.20982422040207
0.1024,0.9376,0.1404,-0.1935,0.14,0.0463,-6.8513,7.14,-12.8275,8.535544166007515,6.26414045645868,8.048619784696882,21.2219869072212
0.1002,0.9428,0.1498,-0.1934,0.1394,0.0478,-7.0963,6.7638,-13.1337,8.939372968346431,6.1704075679879775,8.123610328793715,21.23397405156631
0.1061,0.9435,0.1438,-0.1934,0.1394,0.0478,-6.7813,6.8513,-13.1337,8.718104269262342,6.230024140980529,8.422983208785373,21.246066309046064
0.1014,0.9437,0.1447,-0.1977,0.1379,0.0494,-6.3787,6.3875,-13.1687,8.71755961379215,6.174926745858833,8.700908366361347,21.25529998474621
0.1011,0.9468,0.1424,-0.1977,0.1379,0.0494,-5.8538,5.355,-13.3962,8.591416435909215,6.144288993678626,8.841920192101739,21.26734375569584
0.1038,0.9483,0.1481,-0.1951,0.1383,0.047,-6.1075,4.5763,-13.2037,8.8139072642701,6.1530959544477035,8.186142381140547,21.279388942310586
0.1077,0.9451,0.1458,-0.1967,0.1386,0.0485,-5.8187,4.235,-12.8275,8.780166819844746,6.276901565992954,8.426980376737268,21.29145642565086
0.1084,0.9442,0.151,-0.1967,0.1386,0.0485,-4.7688,4.1825,-12.7137,8.991045070722674,6.369646890714768,8.298371106963694,21.30346374322383
0.1072,0.9462,0.1563,-0.1937,0.139,0.0479,-5.2675,4.1038,-12.9325,9.27528524048063,6.373192784960027,8.027709027117984,21.315531580480386
0.1084,0.9532,0.1566,-0.1937,0.139,0.0479,-4.6988,4.0075,-12.95,9.312432525005743,6.385485071873604,7.9951096467802385,21.32487178498029
0.1046,0.9539,0.1584,-0.1957,0.1388,0.0505,-4.6025,3.3075,-13.5887,9.390313635086224,6.371588746751246,8.421526569796974,21.33704933628311
0.1079,0.9537,0.1535,-0.1977,0.1393,0.0432,-4.6463,2.8875,-13.3525,9.223141776796139,6.372051101929305,7.153643739866624,21.349015599567796
0.1041,0.9477,0.1589,-0.1977,0.1393,0.0432,-5.9063,3.2638,-13.2825,9.450490612360236,6.320313176555207,6.471412035395796,21.360998143001286
0.0996,0.9349,0.1579,-0.1966,0.1381,0.049,-5.2325,2.7037,-13.1775,9.549585596062851,6.215168840928624,7.428679617705146,21.37304332961603
0.0918,0.931,0.1557,-0.1966,0.1381,0.049,-4.795,2.1525,-13.3962,9.511297219865398,6.077725914596171,7.73799345947503,21.38505666376573
0.0995,0.9384,0.1596,-0.197,0.1382,0.0443,-3.3688,0.805,-13.8162,9.574852345174188,6.062749527234552,7.540604907037834,21.394477561177084
0.1107,0.9497,0.15,-0.197,0.1382,0.0443,-2.4938,-0.07,-14.7087,9.543834265345907,6.321438905195131,7.292013603621565,21.406498327568627
0.1168,0.9592,0.1485,-0.1954,0.1388,0.051,-1.6975,-0.0525,-15.33,9.202098192191928,6.659412900357441,8.35322375982054,21.41862597667621
0.1168,0.9643,0.1449,-0.1958,0.1374,0.0487,-2.73,0.3063,-14.9975,9.10118384705081,6.757232378116273,8.570228495631039,21.430771675513984
0.1162,0.9614,0.1467,-0.1958,0.1374,0.0487,-2.9838,0.3763,-15.0675,8.972157649239545,6.790159610739945,8.6513329177542,21.443016824825953
0.1155,0.9574,0.1417,-0.1961,0.1378,0.0498,-3.7013,0.8925,-15.0762,8.675902361896906,6.799123217721578,8.707584050467181,21.45480117514361
0.1149,0.9553,0.1464,-0.1961,0.1378,0.0498,-4.1475,1.1462,-15.2163,8.698608809877054,6.787464231891071,8.755978033517323,21.46405820931812
0.1164,0.9525,0.1463,-0.1982,0.1379,0.0483,-4.41,1.2687,-15.61,8.720428477844647,6.85346264376904,8.69793186652541,21.476079329625943
0.115,0.9507,0.1495,-0.1966,0.1374,0.0485,-5.1712,1.7237,-15.1112,8.877020197299,6.830241774149451,8.605105044958894,21.488162031366183
0.112,0.9498,0.1521,-0.1966,0.1374,0.0485,-5.74,2.0388,-15.2775,9.04531175361238,6.713510864761085,8.463838918547822,21.500234115618078
0.1076,0.9486,0.1535,-0.1958,0.1391,0.0518,-5.4075,2.0388,-15.5925,9.153825616605761,6.499629883693692,8.844768705978025,21.512257713339846
0.1081,0.9475,0.1541,-0.1958,0.1391,0.0518,-5.3812,2.2662,-15.4437,9.215756723033971,6.451809823878311,9.03075062260843,21.52155686355147
0.1067,0.9518,0.151,-0.1954,0.1381,0.0522,-5.0138,2.5113,-15.0325,9.07269093524656,6.3743661271785115,9.32893047977628,21.533632840882426
0.1022,0.9506,0.1597,-0.1954,0.1381,0.0529,-5.11,1.925,-13.8512,9.406340129557247,6.322424780411409,9.310711515207949,21.54574951858538
0.1071,0.95,0.1615,-0.1967,0.1382,0.0529,-5.9325,2.3187,-12.6612,9.592913481182432,6.332179362115801,9.23378379991191,21.557741971674663
0.1087,0.947,0.1617,-0.1972,0.1374,0.0506,-5.9325,1.785,-11.7775,9.667693120940553,6.412593222127663,8.892551159374525,21.569761676317373
0.1092,0.9336,0.1613,-0.1972,0.1374,0.0506,-5.8538,1.7325,-10.9375,9.771066820994863,6.531243295092452,8.679074885999318,21.581829867490207
0.1098,0.934,0.1576,-0.1995,0.1342,0.0517,-5.3987,1.6975,-10.7012,9.627904057880222,6.5917657718514695,8.79100978705218,21.591147067432022
0.1122,0.9355,0.1627,-0.1995,0.1342,0.0517,-4.3137,1.7587,-11.6637,9.779941417248411,6.6898072002594215,8.772483495398191,21.603209242028125
0.114,0.9393,0.1579,-0.1995,0.1374,0.0513,-2.87,1.2075,-11.13,9.722139789836685,6.786783721471324,8.766093089926208,21.61514789984311
0.1195,0.9473,0.1566,-0.1972,0.1374,0.0512,-1.9862,1.2862,-12.635,9.601456941775151,6.942458626301731,8.814442023551848,21.627258560969334
0.1227,0.9545,0.1543,-0.1972,0.1374,0.0512,-2.1263,1.4175,-13.0113,9.477178590176857,7.056379108867428,8.917427466699174,21.639443898430276
0.1291,0.9613,0.1505,-0.1999,0.1374,0.0507,-3.115,1.855,-12.7837,9.267671957420852,7.29047456775761,9.019853645599973,21.651360259519727
0.1277,0.9573,0.1542,-0.1999,0.1374,0.0507,-3.0188,2.6688,-13.1862,9.2301827941682,7.35856621731787,8.9656784269364,21.66066365672669
0.1261,0.9545,0.1559,-0.1981,0.1369,0.049,-3.8063,2.135,-13.1337,9.255875884854504,7.382654503649562,8.665912724542254,21.67272618523907
0.1233,0.9504,0.1537,-0.1996,0.1366,0.0426,-4.5938,2.1613,-13.055,9.209224570831653,7.350849784702901,7.4522800811286976,21.6847667709422
0.1247,0.9446,0.1562,-0.1996,0.1366,0.0426,-4.5413,2.5813,-13.7987,9.329279229380312,7.359412941332399,6.727459242867893,21.696840978691764
0.1224,0.9435,0.1517,-0.1994,0.1374,0.0526,-4.4713,3.185,-13.9387,9.200867098986249,7.346202033202772,8.650958456842575,21.708913062943655
0.1219,0.9424,0.1631,-0.1994,0.1374,0.0526,-4.3313,2.6688,-13.685,9.596785915482688,7.344106206697197,8.862093729527214,21.718195579090203
0.1247,0.9416,0.1563,-0.1988,0.1351,0.0578,-4.3925,2.7388,-14.0437,9.48528456221061,7.3716740564779535,10.256995611469637,21.73023404129566
0.1257,0.9438,0.1576,-0.1988,0.1351,0.0578,-5.005,2.8875,-14.9012,9.481558194722076,7.433831415875662,10.755936213329557,21.74229656980804
0.1277,0.9467,0.1609,-0.1982,0.137,0.0461,-4.6112,3.3075,-15.2163,9.592142989742063,7.519736559539568,8.282541195040421,21.754338925092558
0.1253,0.9475,0.1637,-0.1984,0.1358,0.0522,-4.3663,3.2813,-15.2337,9.727689765010084,7.461489064254096,8.799357038508061,21.766420919000243
0.1252,0.9471,0.1591,-0.1984,0.1358,0.0522,-4.3488,3.3513,-15.0937,9.604374656603532,7.441492004071347,9.103382672790373,21.77840664768024
0.1144,0.9373,0.164,-0.1986,0.1352,0.0526,-4.7512,3.1937,-15.1637,9.824627947706002,7.089487052976988,9.025802422213717,21.787736588608073
0.1127,0.9385,0.1677,-0.1986,0.1352,0.0526,-4.375,3.0188,-15.05,10.022755623230147,6.887218749897665,8.885375229743937,21.799804779780903
0.115,0.9356,0.1652,-0.199,0.1367,0.0584,-4.0775,2.1,-14.5162,10.017201542208566,6.893901340050845,9.792101248745526,21.811858106470048
0.1143,0.9361,0.1607,-0.1983,0.1373,0.0576,-2.7213,1.82,-15.1025,9.976479621281754,6.875106748695834,10.150290487174201,21.823861884880237
0.1177,0.9387,0.1618,-0.1983,0.1373,0.0576,-2.8875,1.6362,-15.0937,9.926658381145844,6.974627742306985,10.319852238451086,21.835930783885626
0.117,0.9442,0.1671,-0.1977,0.1378,0.0524,-3.0275,1.82,-16.1612,9.96208271674693,6.961852258113199,9.618171552233022,21.847979155746874
0.118,0.9483,0.164,-0.1977,0.1378,0.0524,-3.045,1.8463,-16.7825,9.912194783623047,6.983418017626918,9.31249157953315,21.857312281921214
0.1138,0.9465,0.1616,-0.1962,0.1371,0.0522,-3.115,1.5487,-16.87,9.831442689205268,6.8123086032998605,9.223427636748845,21.8693861357545
0.1118,0.9486,0.1642,-0.1962,0.1371,0.0522,-3.3688,1.1462,-16.5375,9.826478773290445,6.672656160677548,9.184973519207917,21.88136584785776
0.1103,0.9498,0.1624,-0.1988,0.135,0.0553,-2.905,1.0325,-16.275,9.79396519071813,6.569552296911041,9.216864576516768,21.89349278913279
0.114,0.959,0.1577,-0.1978,0.1378,0.0522,-3.6663,0.6388,-16.2138,9.553428278848303,6.6562142709770145,9.21695831145791,21.905482764808124
0.1125,0.982,0.1534,-0.1978,0.1378,0.0522,-4.8738,0.7613,-15.9775,9.081475938430996,6.517583495878945,9.276713511833226,21.91750919386012
0.1205,0.9832,0.1545,-0.1988,0.1386,0.0536,-5.635,0.6212,-14.7525,8.967389190042569,6.719101267815103,9.44704970423893,21.926841258285624
0.1197,0.9821,0.1458,-0.1988,0.1386,0.0536,-7.385,0.5513,-13.4663,8.533926587032237,6.744195159517428,9.701722264289314,21.938863086426
0.1175,0.9731,0.1485,-0.1963,0.1374,0.0534,-9.1,0.2538,-13.0025,8.657780662251271,6.769074747727748,9.920392712729033,21.950939063756955
0.1215,0.9635,0.1469,-0.1966,0.1366,0.0544,-10.5525,0.3413,-12.635,8.667611810631598,6.939512193150755,10.186778938029683,21.963059634538972
0.1252,0.9508,0.1548,-0.1966,0.1366,0.0544,-11.5762,0.3675,-12.8187,9.18940647323027,7.152090077229768,10.190944507007059,21.97511437689323
0.1335,0.9403,0.1607,-0.1981,0.1356,0.0562,-11.4275,0.5338,-14.4637,9.646803555224604,7.515286593620598,10.274612655050115,21.987226807600848
0.1331,0.9455,0.1638,-0.1981,0.1356,0.0562,-11.2175,0.7613,-15.7062,9.809677416199646,7.77165394960492,10.287689505455505,21.996805551672306
0.1334,0.9559,0.1682,-0.1964,0.1366,0.0585,-11.2262,2.205,-17.7887,9.962039179464286,7.815293959754976,10.670164502108635,22.008751287812856
0.1322,0.9597,0.181,-0.1976,0.1382,0.0562,-11.025,3.0625,-17.2987,10.604741003898992,7.7318954784874965,9.90783841524661,22.02080744583223
0.1247,0.9478,0.1797,-0.1976,0.1382,0.0562,-10.9637,3.7713,-17.3687,10.7217708747846,7.443292814301651,9.565247101641686,22.032891209321306
0.1169,0.9202,0.1823,-0.1962,0.1383,0.0607,-10.4562,4.0425,-17.4387,11.151392757847207,7.17446157879957,10.260422685988022,22.044977804140608
0.1083,0.9131,0.1836,-0.1962,0.1383,0.0607,-9.7037,4.06,-17.8412,11.342359971728058,6.737117897167293,10.272950770610148,22.057219060373516
0.1086,0.9087,0.1898,-0.1966,0.138,0.0618,-7.875,4.0862,-17.9112,11.725766122499016,6.684817828712544,10.272767203422054,22.069159133853613
0.1082,0.9126,0.1848,-0.1966,0.138,0.0618,-5.8538,3.9463,-17.745,11.512135872668976,6.639379084611314,10.475928047555406,22.078418999358348
0.1115,0.9185,0.1868,-0.1949,0.1368,0.0689,-3.955,3.9988,-18.1737,11.502559095926722,6.757719557460469,12.278661163380681,22.090483651368398
0.1141,0.9237,0.1882,-0.195,0.1366,0.0607,-3.3163,3.9813,-18.6112,11.508461355355513,6.877266596149843,10.845886668696368,22.102540871136604
0.1088,0.931,0.1835,-0.195,0.1366,0.0607,-3.5175,4.0075,-19.1625,11.332075193795168,6.592568263546824,10.658866672052307,22.114599506569924
0.1091,0.9379,0.1859,-0.1968,0.1394,0.061,-2.7562,4.1475,-19.1975,11.311278937747051,6.522220756228663,10.447655199595111,22.12667548390088
0.1102,0.9435,0.1834,-0.1968,0.1394,0.061,-1.9687,4.4713,-18.4188,11.197100042033393,6.537395239917045,10.53106662655709,22.1359176535917
0.1071,0.9476,0.1792,-0.1948,0.1392,0.0619,-2.8788,4.8213,-18.0687,11.075800458696085,6.374012381205218,11.02736148183473,22.148044948783006
0.1044,0.9472,0.1791,-0.192,0.1399,0.0644,-2.7037,5.0138,-17.815,11.026254320371557,6.218495254604663,11.839816788551005,22.160048019360637
0.0988,0.9435,0.1809,-0.192,0.1399,0.0644,-1.925,4.7863,-17.8762,10.960019121602542,5.938283091376383,11.857657657909831,22.17209957646839
0.093,0.9457,0.1774,-0.1926,0.1386,0.0594,-2.5463,5.1275,-17.5875,10.959326181261439,5.605442104813384,10.74444077660244,22.18411291061809
0.0927,0.9443,0.1806,-0.1926,0.1386,0.0594,-2.7388,5.005,-16.8962,10.938194876852815,5.530580719637545,10.397600159278735,22.19619171927927
0.0975,0.9438,0.1819,-0.1918,0.1385,0.0571,-2.7825,4.8038,-17.1238,10.932645259735326,5.733613291519038,9.787728299563236,22.205510688802477
0.101,0.9467,0.182,-0.1918,0.1385,0.0571,-2.52,4.8913,-17.115,10.931252550618648,5.925435388121882,9.701159754742807,22.217565431156736
0.0991,0.9495,0.1858,-0.1894,0.1415,0.0577,-3.5088,4.7512,-16.3975,11.000129949940572,5.868933672323573,9.664127025816125,22.229671137455064
0.1022,0.9507,0.1945,-0.1937,0.1398,0.0584,-3.255,4.97,-16.2663,11.232923831275134,5.972432585644267,9.42319082013499,22.24162430583746
0.095,0.95,0.1887,-0.1937,0.1398,0.0584,-3.43,4.6638,-15.9862,11.233673345016108,5.713242887199215,9.535333110812848,22.25370063708469
0.0938,0.9426,0.1903,-0.1902,0.14,0.0594,-3.9025,4.5325,-16.275,11.337359736197168,5.6105044244386,9.821202182957613,22.265755733355228
0.0853,0.9421,0.1848,-0.1902,0.14,0.0594,-3.2113,4.3313,-16.2575,11.24197300688701,5.22551028866617,10.02121528262828,22.275103724013256
0.0801,0.9429,0.184,-0.1898,0.1399,0.053,-3.2375,3.885,-16.5462,11.160421698750591,4.884345868956153,8.604430226883023,22.28706644813516
0.0797,0.9421,0.1871,-0.19,0.139,0.0583,-2.975,3.78,-16.4675,11.182042591622608,4.780411267676444,9.371359946835957,22.29911694349408
0.0797,0.9419,0.1879,-0.19,0.139,0.0583,-2.87,3.0538,-16.4412,11.206332693799693,4.75333329998582,9.529713967848373,22.3112162792994
0.077,0.9407,0.1886,-0.1892,0.1378,0.0586,-2.4675,1.6275,-16.3887,11.216099287526063,4.6327261047466175,9.612889817623598,22.32327703823039
0.0752,0.9398,0.1864,-0.1892,0.1378,0.0586,-3.0275,1.6013,-15.8638,11.216862191613936,4.5330466160604255,9.692602606344582,22.33527763139407
0.0771,0.9376,0.182,-0.1906,0.1414,0.0583,-2.4325,0.5075,-15.4612,11.192809122823663,4.58585886517978,9.682294125234531,22.34462526813582
0.0815,0.9421,0.1859,-0.1906,0.143,0.0576,-1.5575,-0.2275,-15.0412,11.177720319903221,4.739814531948737,9.442093531744272,22.35671044729001
0.0828,0.9486,0.1856,-0.1898,0.143,0.0576,-1.6625,-0.9187,-15.3212,11.127333695231714,4.837416397163976,9.394247597845313,22.368811906593
0.0839,0.9531,0.1807,-0.1901,0.141,0.0583,-1.575,-1.6187,-15.4787,10.9340091759953,4.9056122630124195,9.806959848696621,22.380955481933103
0.0865,0.9505,0.1793,-0.1901,0.141,0.0583,-1.3037,-2.0388,-15.5925,10.794606138095876,5.040476108833791,9.978639074273339,22.39300526945947
0.0882,0.9457,0.1862,-0.1891,0.1395,0.0614,-2.3363,-2.5463,-15.6363,10.854785799447617,5.16529965776454,10.60832520337915,22.405139642976337
0.0848,0.943,0.1801,-0.1891,0.1395,0.0614,-2.1438,-2.2662,-15.5662,10.842604257256722,5.088212258816037,10.923853095767557,22.41719934015849
0.0841,0.9443,0.182,-0.1905,0.1398,0.056,-2.275,-1.9512,-15.8987,10.85689144588566,5.0257565236219905,9.609360143849464,22.42666553885346
0.0798,0.9465,0.1784,-0.1912,0.141,0.0595,-2.2925,-2.0388,-16.065,10.819650513957555,4.821240825767216,10.121543570907072,22.43874222401697
0.0856,0.9525,0.1821,-0.1912,0.141,0.0595,-2.5813,-2.345,-15.4175,10.819765819557409,4.963520436497689,10.197134130382791,22.450771130482917
0.0859,0.9525,0.1732,-0.1876,0.14,0.059,-1.89,-2.5113,-14.56,10.615764219605323,5.014227063648902,10.630195338712523,22.46291081274396
0.0861,0.9521,0.1763,-0.1876,0.14,0.059,-2.0563,-2.1438,-13.7462,10.574491307955869,5.019613649195502,10.610403461222356,22.4751449906513
0.0881,0.9509,0.1777,-0.1882,0.1415,0.0647,-2.3888,-2.0388,-12.9587,10.575949860288974,5.0954380819604825,11.815690487921614,22.487172835368412
0.0864,0.9538,0.1742,-0.1909,0.1407,0.0589,-2.4675,-1.7325,-11.3837,10.559067201478848,5.093212174136618,10.82432104722425,22.49920457316458
0.0861,0.9541,0.1748,-0.1909,0.1407,0.0589,-2.6163,-1.8375,-9.6162,10.547802863136122,5.076645184068515,10.533764311110145,22.50853557584125
0.09,0.9507,0.1804,-0.193,0.1386,0.0584,-2.625,-1.3475,-8.2687,10.561796954938389,5.2765593838134714,10.17172130406683,22.52061261492104
0.0914,0.9489,0.1738,-0.193,0.1386,0.0584,-2.66,-1.7062,-7.1138,10.543462268353348,5.394383474094633,10.281951832445626,22.53262559515446
0.0966,0.9509,0.1809,-0.1931,0.1392,0.0609,-3.22,-1.5137,-6.5275,10.63499689207101,5.661660703218196,10.644137060704487,22.544643176299502
0.106,0.9534,0.1855,-0.1972,0.139,0.0616,-3.6925,-0.7175,-6.4488,10.835260735924772,6.159281690827286,10.663054378144961,22.55673897294204
0.1074,0.953,0.1833,-0.1972,0.139,0.0616,-3.4388,-0.4987,-7.245,10.859777438953481,6.294106573472712,10.73680484814404,22.5687105449709
0.1148,0.9466,0.1899,-0.1953,0.138,0.0599,-3.4913,-0.1837,-7.4113,11.094624146542214,6.71384757873279,10.416097908672219,22.578096050754425
0.1181,0.9426,0.1843,-0.1953,0.138,0.0599,-3.9463,0.1925,-7.3238,11.076232015261121,6.969706847003315,10.411884380743388,22.59012247980642
0.1177,0.9413,0.1862,-0.1966,0.1369,0.063,-2.8263,0.3675,-8.1637,11.100825859717638,6.98953101346878,10.729248063695701,22.60206042978885
0.1236,0.9392,0.1914,-0.1966,0.1369,0.063,-2.5375,0.5425,-8.8462,11.105317864830566,7.286160644266224,10.826243224327003,22.614095706747804
0.127,0.9346,0.186,-0.1988,0.1371,0.054,-2.7388,1.4612,-9.5637,11.129372732413067,7.531386439617907,10.03996586174872,22.623331505945615
0.1276,0.939,0.1872,-0.2,0.1365,0.0592,-3.395,1.9775,-10.6575,11.196013110887211,7.576022050387215,9.989399103594234,22.635408545025406
0.1272,0.9378,0.1917,-0.2,0.1365,0.0592,-3.08,2.8612,-10.7275,11.319900645697638,7.571238213181492,9.811445829140025,22.64745797863549
0.1192,0.9332,0.186,-0.2001,0.136,0.0594,-2.1613,2.8,-10.675,11.306574083595903,7.2483668854311745,9.900926809057983,22.65944264556665
0.1173,0.9285,0.1796,-0.2001,0.136,0.0594,-1.995,2.1,-10.325,11.178672129094192,7.111538530714198,10.053286966442812,22.67150942107437
0.1196,0.9306,0.1843,-0.199,0.136,0.0544,-1.68,1.96,-10.6487,11.189582605245404,7.166989161623863,9.307228108346427,22.683580797493708
0.1168,0.9351,0.1825,-0.2014,0.1374,0.062,-1.5925,1.6187,-10.3337,11.118134400832842,7.030314656953164,9.861649183860505,22.692915693249436
0.1162,0.9355,0.1796,-0.2014,0.1374,0.062,-1.5225,1.26,-10.5175,10.991257614785011,6.973039158158895,10.077400422577186,22.70491380899917
0.1156,0.9253,0.1848,-0.2034,0.1347,0.0598,-0.7263,0.6825,-10.3512,11.187014641962765,6.9819695730601925,10.04132823962191,22.716936344972105
0.1167,0.9211,0.1782,-0.2034,0.1347,0.0598,-0.4288,-0.4462,-10.6837,11.025583121303745,7.063268690741868,10.13447648562928,22.72905762358668
0.1241,0.9245,0.1826,-0.2023,0.1349,0.0588,-0.2013,-1.155,-11.8475,11.12882129473232,7.346044836226194,9.936375806809949,22.74127516742894
0.1305,0.9332,0.1769,-0.2023,0.1349,0.0588,0.9713,-1.365,-13.3175,10.821191092367188,7.46749778956777,10.1429293260704,22.753296287736767
0.1373,0.9421,0.1765,-0.2032,0.1351,0.0565,1.2163,-2.2488,-14.5162,10.655280051781197,7.783405451022268,9.744346698020811,22.762536687846197
0.144,0.9496,0.1741,-0.2018,0.1365,0.0578,1.7237,-2.6688,-16.1525,10.439707827659413,8.283103667689758,10.142482324671041,22.774588598870228
0.1415,0.9569,0.1631,-0.2018,0.1365,0.0578,0.945,-2.625,-17.4125,9.84354744520821,8.29143129928476,10.638133123422737,22.786657851791894
0.1372,0.9562,0.1665,-0.2042,0.136,0.0576,-0.1488,-2.2575,-17.675,9.867647943072747,8.094839748203603,10.45675413258926,22.79878904006226
0.1352,0.9609,0.1637,-0.2042,0.136,0.0576,-2.2225,-2.7913,-18.445,9.818616685105582,7.930957493987296,10.51846587439138,22.810855461653702
0.1368,0.9607,0.1655,-0.2035,0.1368,0.0641,-2.975,-3.2987,-18.4188,9.8053992095506,7.978182498367673,12.065713926454503,22.822943826054395
0.1365,0.9556,0.1575,-0.201,0.135,0.0579,-4.2175,-3.78,-18.4625,9.526388117892512,8.014835063018394,11.27540437775058,22.835078199571267
0.1391,0.9426,0.1635,-0.201,0.135,0.0579,-4.2,-3.5963,-19.7313,9.721983564248434,8.23632512887813,10.873624822273204,22.844431498973467
0.1388,0.9434,0.1636,-0.2013,0.1363,0.059,-5.2325,-3.605,-20.4575,9.806599206095285,8.246814031755228,11.014391105120913,22.85656728815545
0.1368,0.9494,0.1652,-0.2013,0.1363,0.059,-5.3812,-3.325,-21.0788,9.8541241103964,8.099465604569664,10.994046594919647,22.868622738342264
0.1365,0.9482,0.1695,-0.1984,0.1374,0.0582,-5.4338,-3.1238,-21.8225,10.062805695616595,8.069396665333695,10.720517201290013,22.880731983803376
0.1366,0.9453,0.174,-0.1962,0.1399,0.0613,-5.7488,-2.6863,-21.7,10.342282673541874,8.086416684774484,11.25775407761576,22.892960499050265
0.1338,0.9418,0.1742,-0.1962,0.1399,0.0613,-6.335,-1.7675,-21.0088,10.450656774551275,7.968699544641147,11.315830478670945,22.904979495860417
0.132,0.9386,0.182,-0.1974,0.1378,0.0604,-6.51,-0.8225,-20.7375,10.868363117370789,7.874116609772923,10.9005005702931,22.917022558977493
0.1299,0.9382,0.1834,-0.1974,0.1378,0.0604,-6.405,-0.735,-20.9125,11.0211289716975,7.754688903617197,10.697410196227713,22.926395323774997
0.1286,0.9313,0.1787,-0.1946,0.1374,0.0622,-5.6175,-0.2187,-18.1387,10.90112302959336,7.728712759220265,11.13115193907712,22.938518018054683
0.1266,0.9256,0.1817,-0.1947,0.1374,0.0656,-3.9375,0.6388,-20.0112,11.020379254276017,7.655735073191926,11.442436502346245,22.950623370436738
0.1228,0.9248,0.1844,-0.1947,0.1374,0.0656,-3.885,0.9363,-19.7663,11.166927963281447,7.452669888946638,11.477271054730597,22.962566629163337
0.1146,0.9267,0.1812,-0.1932,0.1378,0.063,-3.78,1.3912,-19.355,11.10990173238,6.999492363148396,11.481643094202377,22.974670211963996
0.1157,0.9316,0.1844,-0.1932,0.1378,0.063,-3.4738,1.1375,-18.5412,11.15144918258284,6.955244552953628,11.469738679638441,22.986737341387997
0.1169,0.9355,0.1807,-0.1928,0.14,0.0583,-2.4325,2.1438,-18.4888,11.128718416675085,6.987996248915556,10.705278475206793,22.99603436810195
0.1112,0.9409,0.1783,-0.1928,0.14,0.0583,-2.6863,2.8263,-17.885,11.080423163410481,6.69318217646546,10.344188231227749,23.008117777674748
0.1062,0.945,0.1858,-0.1926,0.1389,0.0618,-2.6075,3.15,-16.975,11.082814527395211,6.385391918011061,10.746911627579662,23.020096781945455
0.1077,0.9503,0.182,-0.1925,0.1386,0.0609,-1.9687,3.0538,-16.5725,10.994414679501233,6.360106137320078,10.859452842803234,23.032159664374113
0.0994,0.9482,0.1798,-0.1925,0.1386,0.0609,-2.5638,3.115,-16.2925,10.990504197427626,6.012449962091685,10.897283050940622,23.044219715472547
0.098,0.9502,0.1771,-0.1926,0.1392,0.0608,-2.5288,3.4213,-16.2225,10.982198196410371,5.852024455209749,10.952475264592481,23.056309495538354
0.0997,0.948,0.184,-0.1926,0.1392,0.0608,-2.135,3.5963,-16.2925,10.982762411090098,5.882775316123778,10.733706764695608,23.065867712465675
0.1002,0.9478,0.1772,-0.1914,0.1382,0.0637,-2.415,3.7975,-16.205,10.936511593948598,5.918667434746644,11.666138465487746,23.07763188955547
0.0977,0.9528,0.1757,-0.1909,0.1388,0.0624,-3.01,3.6837,-16.485,10.782283230304337,5.800158979881778,11.67520758103262,23.089648408951675
0.0975,0.9559,0.1807,-0.1909,0.1388,0.0624,-3.1412,3.6837,-16.8962,10.753399277416973,5.741400467489307,11.522038508669946,23.101851796142807
0.093,0.9642,0.1774,-0.1904,0.1402,0.0619,-2.9488,3.5875,-16.905,10.659519540982355,5.49486042364538,11.462934786847049,23.11381522809727
0.0879,0.9712,0.1792,-0.1904,0.1402,0.0619,-2.94,3.71,-16.4587,10.601764593023182,5.193722213020125,11.384534046709698,23.125809804684224
0.0836,0.9775,0.1703,-0.1914,0.1412,0.0608,-3.6575,3.045,-15.9687,10.223720925650614,4.930189059878919,11.34039487456615,23.13514151519345
0.0814,0.9861,0.1644,-0.1914,0.1412,0.0612,-5.3025,2.7475,-13.93,9.667212134746007,4.8715039254273576,11.599170805865745,23.1472061672035
0.0808,0.9816,0.1714,-0.1914,0.1407,0.0612,-8.225,1.4175,-13.1775,9.869149258460807,4.79491200930924,11.54391795358139,23.1592602017252
0.0859,0.9711,0.1707,-0.1951,0.1392,0.0621,-9.4762,1.0587,-12.9675,9.956933622075402,4.87019911536628,11.543622197658944,23.171268934963283
0.0988,0.9526,0.1734,-0.1951,0.1392,0.0621,-9.835,0.5163,-12.9587,10.27310045765031,5.263969375843343,11.503727692493547,23.1833112902478
0.1028,0.9457,0.1829,-0.1914,0.1394,0.0641,-9.6162,0.245,-14.3062,10.86256150558197,5.589244219266138,11.631163576789946,23.192641231175635
0.1011,0.9399,0.1789,-0.1914,0.1394,0.0641,-10.5175,0.7525,-15.5312,10.786303600125288,5.877796570712697,11.687863468816174,23.20476888028322
0.0986,0.9359,0.187,-0.1918,0.14,0.0647,-10.0187,1.0062,-15.9687,11.238768114738882,5.892148920452885,11.686385906450449,23.216918118283775
0.0999,0.9346,0.1909,-0.1922,0.1414,0.0647,-9.52,1.3737,-16.4325,11.506015653324964,5.95575817497274,11.583192639863864,23.22884191161507
0.1016,0.9327,0.1935,-0.1922,0.1414,0.0647,-9.3187,1.4262,-16.2925,11.69284903184783,6.051709453461097,11.463474379236965,23.240930983848322
0.1057,0.9299,0.2037,-0.1917,0.1402,0.0661,-9.1,1.4612,-16.415,12.268017672423182,6.260238264700741,11.393574290948791,23.252990681030475
0.1051,0.9272,0.206,-0.1917,0.1402,0.0661,-8.5837,1.7937,-15.435,12.489493892183676,6.294834299127912,11.262567137090754,23.265012509170855
0.107,0.9224,0.2059,-0.1915,0.1394,0.0664,-8.0587,1.8725,-15.015,12.56896323904097,6.389469407734584,11.249739585178041,23.274345635345195
0.1005,0.9175,0.2032,-0.1892,0.1406,0.0727,-5.9763,2.1088,-15.6187,12.506134562303188,6.200661481196218,12.325291209787295,23.28639648462039
0.1013,0.9145,0.2038,-0.1892,0.1406,0.0727,-5.53,2.3712,-15.6712,12.548941855253645,6.180694751448112,12.854176506199764,23.298472461951345
0.1032,0.9133,0.2025,-0.1886,0.1402,0.067,-4.2525,2.7125,-16.1,12.519088649436595,6.2619814236187885,12.058217476216852,23.310615683375172
0.1017,0.9223,0.2031,-0.1886,0.1402,0.067,-4.1475,2.4938,-16.0562,12.457455253337546,6.180397158863595,11.80516060908073,23.32251682606466
0.1002,0.9239,0.2028,-0.1894,0.1421,0.0641,-2.9488,2.8,-16.6075,12.435400801983448,6.080684575797638,11.008360141253345,23.331811375364666
0.0958,0.9301,0.1973,-0.1894,0.1421,0.0641,-1.2775,2.485,-15.9775,12.178575825381587,5.85214362654312,10.918317288834523,23.343902571095587
0.0997,0.9368,0.1962,-0.1881,0.1406,0.0692,-0.6825,2.905,-14.9537,11.950879055821849,5.905567546626156,12.150092254128852,23.35593926371965
0.1019,0.9468,0.1957,-0.1897,0.1398,0.0664,-0.6913,3.1325,-15.6975,11.773745981397253,5.980080739998429,12.042824165871892,23.368005685311093
0.104,0.9564,0.1973,-0.1897,0.1398,0.0664,-1.0237,2.8525,-15.47,11.702808944067574,6.043813396138658,12.030265409517488,23.380017603795682
0.099,0.95,0.195,-0.189,0.1405,0.0677,-1.1462,2.7213,-14.9275,11.642562107688953,5.9235196685957625,12.285668500139348,23.392089334131295
0.0936,0.9373,0.1963,-0.189,0.1405,0.0677,-1.4175,3.185,-15.2425,11.741278070405214,5.71443894581397,12.221768602535686,23.401402287077772
0.0878,0.93,0.1928,-0.1889,0.1408,0.0714,-1.5312,2.7738,-15.61,11.72660730314566,5.428263085050948,12.949419352814052,23.4134966680552
0.087,0.9324,0.197,-0.1895,0.142,0.0694,-0.3675,2.1525,-16.1437,11.866160818693542,5.2770537036444605,12.673853622178795,23.425539023339716
0.0868,0.9419,0.1923,-0.1895,0.142,0.0694,0.3588,2.135,-16.52,11.622755949898943,5.189825768517114,12.714545538005384,23.437478742903536
0.1075,0.9601,0.1894,-0.1886,0.1422,0.0657,0.665,1.7062,-16.275,11.26945975849541,5.9704345631805396,12.49908856557198,23.449492430969514
0.0994,0.9639,0.1851,-0.1886,0.1422,0.0657,-0.4638,1.5487,-16.555,10.999714800953564,5.830933014712623,12.442613799004704,23.458806445664827
0.0981,0.9611,0.1917,-0.1877,0.14,0.063,-1.365,1.5925,-16.45,11.151693307602407,5.746463138999573,12.018944171823932,23.470894102232965
0.0943,0.9573,0.1876,-0.1877,0.14,0.063,-2.6513,1.8288,-16.3013,11.14571369603794,5.583253005169483,11.755173873933456,23.482849748029306
0.0905,0.9508,0.1873,-0.1876,0.1409,0.0728,-2.8963,1.8025,-16.0825,11.145302422586115,5.407710955119604,12.924471063329529,23.494922540113755
0.09,0.9425,0.1877,-0.1896,0.142,0.0649,-2.9138,1.4088,-15.9862,11.17684532975081,5.367510647415183,12.539098666089805,23.506997809612155
0.0873,0.9367,0.1896,-0.1896,0.142,0.0649,-2.835,1.435,-16.5112,11.236092121996888,5.2577847695590645,12.202412440106611,23.519063523371038
0.0877,0.936,0.1874,-0.1867,0.1428,0.0656,-2.765,1.2512,-16.3362,11.251335975394369,5.251545700329369,12.143283120535312,23.528367628410557
0.0874,0.9384,0.1876,-0.1867,0.1428,0.0656,-2.3275,1.2775,-16.5987,11.261087047209207,5.2267772112509165,12.094597743072054,23.540388040885823
0.0909,0.9419,0.1935,-0.1862,0.1418,0.0602,-2.0213,1.12,-15.61,11.38119977007659,5.341488819563211,11.860003908754212,23.55242898050523
0.0951,0.9459,0.192,-0.187,0.1406,0.0642,-2.73,1.9775,-15.68,11.395477093607466,5.532613753900262,11.695252062677513,23.564979559565348
0.0935,0.942,0.1907,-0.187,0.1406,0.0642,-2.9313,1.365,-14.665,11.409018966125064,5.544565738015918,11.652772797594876,23.576571379427627
0.095,0.9465,0.1984,-0.1877,0.1406,0.0649,-3.2375,1.5312,-13.8863,11.584285660877198,5.5567664618599,11.562011884718183,23.585818150030065
0.0965,0.948,0.1945,-0.1877,0.1406,0.0649,-2.7738,1.7325,-13.7987,11.58614742110672,5.5736488237574635,11.584970047328133,23.59794933830043
0.0984,0.9463,0.1951,-0.1889,0.1419,0.0623,-2.2225,1.9075,-13.6237,11.601723248895198,5.581878731023859,11.12352652116128,23.6099566558734
0.0963,0.9434,0.1969,-0.1889,0.1419,0.0623,-2.4763,1.9687,-13.755,11.614322518521167,5.592777951614466,10.807109664776693,23.62200078073931
0.0949,0.9383,0.1955,-0.1862,0.1398,0.0697,-1.9862,1.6013,-14.385,11.670168306151643,5.618804342474048,11.686450360318064,23.63401659230296
0.0938,0.9359,0.1923,-0.1861,0.1416,0.0642,-2.135,1.575,-14.9537,11.652864372639769,5.612120031833564,11.583996729406683,23.646098940126922
0.0897,0.9434,0.1925,-0.1861,0.1416,0.0642,-1.575,1.4787,-15.2075,11.593659989701163,5.436096801726141,11.530449507638316,23.655396320757156
0.0914,0.9466,0.1908,-0.1882,0.1411,0.0637,-1.4962,1.2425,-15.54,11.492339378584282,5.4171506096280035,11.481570111201519,23.66746982067416
0.0919,0.9484,0.1886,-0.1882,0.1411,0.0637,-1.435,0.9363,-15.0762,11.363185153852728,5.424115906286577,11.478429884330012,23.679506867214506
0.0905,0.9529,0.1876,-0.1874,0.1425,0.067,-1.3475,0.665,-14.9537,11.240065507026301,5.367463940828304,11.726928978192635,23.691527987522328
0.0926,0.9568,0.186,-0.187,0.141,0.0678,-1.435,0.56,-14.9713,11.114108103590755,5.401226145217645,12.106001878429042,23.703598656109108
0.0944,0.9517,0.1882,-0.187,0.141,0.0678,-1.6887,0.5338,-14.5775,11.147340898314896,5.4761672777485915,12.343226075191291,23.715661892454044
0.0953,0.9426,0.1929,-0.1874,0.1415,0.0662,-3.0713,0.7175,-15.0412,11.29099341578512,5.580929465940499,12.272160202178483,23.724964581828452
0.0952,0.9409,0.1888,-0.1874,0.1415,0.0662,-2.4763,0.2975,-15.295,11.294706682300582,5.633315783364635,12.241058957950523,23.737063209801217
0.0925,0.9422,0.1898,-0.185,0.1425,0.0631,-2.73,0.3413,-15.26,11.309267104118724,5.549583302225989,11.850151404434335,23.74902664175568
0.0897,0.9442,0.1893,-0.185,0.1425,0.0624,-3.2025,0.7613,-15.4787,11.320143204043491,5.402454336638035,11.699322096216445,23.761099787756407
0.0906,0.9455,0.1902,-0.1866,0.1411,0.0624,-2.555,0.2187,-14.875,11.320498058724517,5.382802164043219,11.391606888355104,23.77315417619439
0.0895,0.946,0.1914,-0.187,0.142,0.065,-1.8025,0.84,-15.0412,11.37069551127327,5.333530500730384,11.427128648824409,23.785182374827777
0.0885,0.942,0.1889,-0.187,0.142,0.065,-2.4063,0.7,-14.0612,11.366774054714856,5.313288196722059,11.49789190565268,23.794505237430045
0.0896,0.9471,0.1917,-0.1867,0.1406,0.061,-3.1937,1.015,-13.0288,11.396473978520214,5.307208219282898,11.471738757017347,23.806552193626178
0.091,0.9468,0.1914,-0.1867,0.1406,0.061,-2.2138,0.665,-12.0925,11.404524285057489,5.352742541353316,11.24129137969619,23.818607289896715
0.0961,0.9453,0.1892,-0.1874,0.1422,0.0622,-1.8987,1.12,-12.1712,11.370485494331225,5.556023676186434,11.2041274463088,23.83067123407421
0.0955,0.9463,0.1906,-0.1873,0.1419,0.0646,-2.0825,1.1462,-11.3837,11.376027600749639,5.621329750614562,11.263380140473735,23.84267430465184
0.1013,0.9448,0.1854,-0.1873,0.1419,0.0646,-2.5375,1.89,-11.6025,11.373083328674811,5.880214507939066,11.589369394391476,23.851993628091325
0.1008,0.9451,0.1873,-0.189,0.1426,0.0634,-2.2838,2.0913,-10.9812,11.338887127284332,5.947476209571139,11.449806986772632,23.864074206333896
0.1014,0.9441,0.1848,-0.189,0.1426,0.0634,-2.0213,2.275,-10.8413,11.24786085855419,5.998762430348012,11.447427154066574,23.87611337637191
0.0996,0.9454,0.1854,-0.1884,0.1418,0.0654,-1.75,2.8963,-11.025,11.180144030033386,5.928947527726186,11.88798028742465,23.888182629293578
0.1,0.947,0.188,-0.1889,0.1393,0.0654,-1.8987,3.535,-10.7625,11.199173222732293,5.917348952278839,12.04963735980099,23.900180391127037
0.1008,0.9413,0.1906,-0.1889,0.1393,0.0654,-1.8463,3.9025,-10.6312,11.301323130926484,5.973162037123789,11.974404259341767,23.91226415461611
0.0982,0.9412,0.1853,-0.1922,0.1397,0.0627,-1.6887,4.2175,-10.36,11.225703538150555,5.8748099173294355,11.307211947364792,23.921561181330066
0.0953,0.9386,0.1881,-0.1922,0.1397,0.0627,-1.3125,4.6025,-9.9837,11.284588568442576,5.725859273898827,10.999323942382832,23.933587256465785
0.0964,0.9392,0.1817,-0.1914,0.1389,0.0642,-1.1812,4.9,-9.975,11.090952980904373,5.748295782700147,11.631108122831094,23.945501847973848
0.0939,0.946,0.184,-0.1914,0.1389,0.0642,-1.61,4.97,-9.1612,11.050206109502197,5.598337877823367,11.694549296691838,23.957553051165323
0.0963,0.9431,0.1846,-0.1916,0.1438,0.0662,-1.61,5.075,-8.435,11.06216481881612,5.702482398033289,11.96051013374549,23.96949135506403
0.0942,0.9447,0.1776,-0.1918,0.1373,0.0606,-1.5837,5.4688,-7.0175,10.858372763602619,5.610779026975214,11.138238039983362,23.978826958652316
0.0866,0.9506,0.1809,-0.1918,0.1373,0.0606,-1.9162,4.69,-5.215,10.825927473230115,5.166620814361007,10.849419250766982,23.990775172206813
0.091,0.948,0.1862,-0.1959,0.1387,0.0612,-2.2488,3.675,-3.57,10.891919452916895,5.36159549829388,10.537572319789435,24.00275488431008
0.0853,0.9418,0.1779,-0.1959,0.1387,0.0612,-3.045,3.4038,-1.8112,10.827163095824414,5.107245198699065,10.651465346041073,24.01475512355748
0.0752,0.9468,0.1815,-0.1976,0.1386,0.0564,-3.7975,3.1238,-0.175,10.840876994352028,4.504994386128547,9.506680232844413,24.024021713471505
0.0724,0.9445,0.1898,-0.1976,0.1386,0.0564,-4.1912,2.4675,2.87,11.165077003444276,4.309629393700653,8.939487522261672,24.035990100253866
0.0739,0.9385,0.1878,-0.2005,0.136,0.0698,-3.4563,1.1112,7.2188,11.236803090801052,4.410335925520195,9.328305593915612,24.047943268636256
0.0783,0.9313,0.1858,-0.2051,0.1358,0.0631,-2.6163,-0.4462,10.5262,11.239723739055796,4.701405950778826,9.958090678805714,24.05992970514881
0.0971,0.9242,0.1866,-0.2051,0.1358,0.0631,-2.5113,-1.33,13.4137,11.24598197204257,5.837935192475235,10.321757345784006,24.07197595351239
0.1223,0.9288,0.1782,-0.2101,0.1336,0.061,-2.5025,-1.7587,14.7087,11.229089568504708,7.316294295531458,10.347192810435118,24.081308725770448
0.1294,0.9332,0.1803,-0.2101,0.1336,0.061,-2.9313,-1.1112,15.1988,11.147701566980231,7.738240011065301,10.358090973896298,24.093380102189787
0.1284,0.9277,0.1814,-0.2154,0.1323,0.0589,-2.5113,-0.9275,16.0825,11.144704951382716,7.735485258446655,9.771346474607139,24.105355921213988
