AcclX,AcclY,AcclZ,MagX,MagY,MagZ,GyroX,GyroY,GyroZ,Roll,Pitch,Yaw,Time(s)
-0.1906,0.9688,0.0827,-0.6962,0.0554,0.149,-2.4763,1.1025,-14.9275,0,0,0,1.6212154405178218
-0.1918,0.9441,0.0709,-0.6946,0.0541,0.1483,-2.5025,0.945,-14.2275,0,0,0,1.6306671286453818
-0.1948,0.9689,0.0781,-0.6946,0.0541,0.1483,-2.555,0.525,-14.0175,0,0,0,1.6426758618834645
-0.194,0.9725,0.08,-0.6925,0.0531,0.1481,-3.185,0.8925,-14.2975,0,0,0,1.654829346879361
-0.1919,0.9638,0.0785,-0.6925,0.0531,0.1481,-2.59,1.1025,-14.4025,0,0,0,1.6668479897732351
-0.192,0.9704,0.0759,-0.695,0.0536,0.1467,-2.625,1.0762,-14.9012,0,0,0,1.678976346713374
-0.1906,0.9683,0.0768,-0.695,0.0536,0.1467,-2.6425,1.0937,-14.7262,0,0,0,1.6911103663139655
-0.1936,0.9709,0.0828,-0.6957,0.055,0.1482,-2.8612,1.26,-14.665,0,0,0,1.703266682640088
-0.1935,0.9675,0.077,-0.6956,0.0552,0.1482,-2.2488,1.0062,-14.5513,0,0,0,1.7153631871151824
-0.1902,0.9681,0.0808,-0.6956,0.0552,0.1482,-2.2575,1.19,-14.5075,0,0,0,1.7246711852337635
-0.1933,0.9706,0.0757,-0.6941,0.0547,0.1494,-3.01,1.0062,-14.5775,0,0,0,1.7368009578390153
-0.1962,0.9654,0.0803,-0.6941,0.0547,0.1494,-3.6837,1.4962,-14.0525,0,0,0,1.7489063102210667
-0.1941,0.9692,0.0791,-0.6952,0.0541,0.1454,-2.52,1.3912,-14.4112,0,0,0,1.7610523629751194
-0.1918,0.9717,0.0803,-0.695,0.0548,0.1508,-2.7738,1.1638,-14.35,0,0,0,1.7730929486782465
-0.1932,0.9684,0.0786,-0.695,0.0548,0.1508,-3.36,1.4,-14.7175,0,0,0,1.7852177664556028
-0.193,0.969,0.0784,-0.695,0.054,0.148,-3.2113,0.805,-14.7175,0,0,0,1.797341522484124
-0.1923,0.9684,0.0784,-0.695,0.054,0.148,-3.2813,1.0062,-14.4375,0,0,0,1.806707562872342
-0.194,0.9681,0.0745,-0.692,0.0543,0.1499,-2.9225,0.805,-14.0087,0,0,0,1.8188104378404453
-0.1896,0.9703,0.0744,-0.695,0.057,0.1469,-2.7913,1.4262,-14.49,0,0,0,1.830878982929556
-0.1916,0.9709,0.0808,-0.695,0.057,0.1469,-2.0913,1.2687,-14.4812,0,0,0,1.8429701786604764
-0.1913,0.9677,0.0787,-0.693,0.0574,0.1476,-2.73,1.0412,-14.4025,0,0,0,1.8551250793214857
-0.1937,0.9702,0.0773,-0.693,0.0574,0.1476,-2.7037,0.8225,-14.7,0,0,0,1.867239633526772
-0.1909,0.9695,0.0797,-0.6957,0.0548,0.1474,-2.52,0.9187,-14.385,0,0,0,1.879292606299639
-0.1922,0.9685,0.078,-0.6957,0.0548,0.145,-3.0275,0.8575,-13.825,0,0,0,1.8913268215097572
-0.1936,0.9703,0.0755,-0.6962,0.0565,0.145,-3.5788,0.9187,-14.4287,0,0,0,1.9007636451536296
-0.1968,0.9698,0.0745,-0.695,0.0553,0.1481,-2.7213,1.2163,-14.595,0,0,0,1.9129135909867432
-0.1926,0.9717,0.0814,-0.695,0.0553,0.1481,-2.0825,1.05,-14.98,0,0,0,1.9250331000199254
-0.1961,0.968,0.0783,-0.696,0.0546,0.1495,-2.5463,1.1287,-14.8487,0,0,0,1.9370889041230184
-0.1947,0.9706,0.0746,-0.696,0.0546,0.1495,-2.7037,1.1812,-14.98,0,0,0,1.949227170718949
-0.192,0.9672,0.0808,-0.6953,0.0555,0.1526,-2.205,1.015,-14.8575,0,0,0,1.9613243830265998
-0.1922,0.9703,0.0803,-0.6973,0.0532,0.1493,-2.8612,1.1025,-15.365,0,0,0,1.9735111361526538
-0.1959,0.9695,0.0767,-0.6973,0.0532,0.1493,-3.3688,1.0237,-14.8662,0,0,0,1.982785512224799
-0.1925,0.9687,0.0778,-0.6965,0.0544,0.1482,-3.1325,1.4175,-14.945,0,0,0,1.9949004203463636
-0.1937,0.9687,0.0784,-0.6965,0.0544,0.1482,-3.2638,1.1462,-15.33,0,0,0,2.0070050648958584
-0.1928,0.965,0.0779,-0.6955,0.0545,0.1474,-2.9575,1.4175,-14.175,0,0,0,2.0190973223756137
-0.1908,0.9683,0.0806,-0.695,0.0558,0.1479,-2.6425,1.5925,-14.5338,0,0,0,2.031166575297281
-0.1915,0.9695,0.0814,-0.695,0.0558,0.1479,-2.8438,1.015,-14.49,0,0,0,2.0432995331490376
-0.1915,0.9665,0.078,-0.695,0.0551,0.1483,-3.0363,1.015,-14.5162,0,0,0,2.0554211656798893
-0.1961,0.9713,0.0737,-0.695,0.0551,0.1483,-2.9575,0.8138,-14.3762,0,0,0,2.067488649020165
-0.1945,0.9698,0.082,-0.6957,0.0554,0.1516,-2.5988,0.9713,-14.6475,0,0,0,2.0769042376873412
-0.1927,0.967,0.0751,-0.6935,0.054,0.148,-2.9575,1.2163,-14.5338,0,0,0,2.0889826924322437
-0.1929,0.9647,0.0789,-0.6935,0.054,0.148,-2.9575,0.9975,-14.4025,0,0,0,2.1010650402562074
-0.1932,0.9686,0.0788,-0.6948,0.0534,0.149,-2.765,1.3912,-13.9038,0,0,0,2.1135851825163945
-0.1906,0.971,0.0795,-0.6948,0.0534,0.149,-2.9925,1.0412,-14.4812,0,0,0,2.1253129062295284
-0.1903,0.9708,0.0756,-0.697,0.0547,0.1414,-3.22,1.1638,-14.35,0,0,0,2.137384282648865
-0.1883,0.9683,0.0824,-0.6946,0.0546,0.149,-3.1063,1.4437,-14.5687,0,0,0,2.1495101621750563
-0.1939,0.9666,0.0802,-0.6946,0.0546,0.149,-3.4738,1.3562,-14.2537,0,0,0,2.158861691995865
-0.194,0.9691,0.0794,-0.6958,0.0535,0.1489,-3.3338,1.1287,-14.3675,0,0,0,2.1710491529544758
-0.1923,0.97,0.0751,-0.6958,0.0535,0.1489,-2.5025,1.0237,-14.2012,0,0,0,2.183112035383134
-0.1923,0.9703,0.0808,-0.6927,0.0534,0.147,-2.5375,1.1638,-14.6037,0,0,0,2.1951650081560006
-0.1931,0.97,0.0811,-0.6954,0.0543,0.1527,-3.01,1.2425,-15.015,0,0,0,2.207284871105461
-0.1936,0.9653,0.0779,-0.6954,0.0543,0.1527,-2.4413,1.1462,-14.42,0,0,0,2.2194164132921044
-0.1952,0.97,0.0764,-0.6967,0.0529,0.1482,-2.4063,1.0325,-14.5513,0,0,0,2.231560696464766
-0.1909,0.9704,0.0805,-0.6967,0.0529,0.1482,-2.8087,0.9887,-14.805,0,0,0,2.2408824973181996
-0.192,0.9712,0.078,-0.6955,0.0561,0.1502,-3.1325,0.9187,-15.1025,0,0,0,2.2529878497002507
-0.1954,0.9723,0.0826,-0.6955,0.0561,0.1502,-2.3187,0.735,-15.295,0,0,0,2.265101342156702
-0.1967,0.9672,0.0783,-0.6948,0.0545,0.147,-2.9138,0.98,-14.525,0,0,0,2.2772042171248055
-0.1936,0.967,0.0766,-0.6933,0.053,0.149,-2.9925,1.1025,-15.12,0,0,0,2.289325495739379
-0.19,0.9689,0.0777,-0.6933,0.053,0.149,-3.255,1.3562,-15.015,0,0,0,2.3013972260749944
-0.1909,0.9692,0.0744,-0.6961,0.0536,0.153,-2.7825,1.19,-14.8837,0,0,0,2.3135206281872374
-0.1945,0.9717,0.0742,-0.6961,0.0536,0.153,-2.625,1.26,-14.7087,0,0,0,2.325622441406506
-0.194,0.9732,0.0761,-0.6958,0.0558,0.147,-3.1412,0.7437,-14.8662,0,0,0,2.3350114863528115
-0.192,0.9698,0.0791,-0.6961,0.0554,0.1466,-3.5263,1.3562,-14.7525,0,0,0,2.3470910028465486
-0.1944,0.9676,0.0786,-0.6961,0.0554,0.1466,-3.0013,1.7675,-14.6212,0,0,0,2.3592154667076266
-0.194,0.9688,0.0785,-0.6951,0.0542,0.1489,-2.3187,1.3387,-14.8925,0,0,0,2.3712917979548593
-0.192,0.97,0.0811,-0.6951,0.0542,0.1489,-2.1175,0.8925,-14.7613,0,0,0,2.383413076569433
-0.1894,0.9699,0.0766,-0.6942,0.0537,0.1533,-2.38,0.7,-14.5513,0,0,0,2.395486930402718
-0.1918,0.9727,0.0833,-0.6941,0.0544,0.1475,-3.1063,1.015,-14.1837,0,0,0,2.4075951141149954
-0.1954,0.9666,0.0802,-0.6941,0.0544,0.1475,-3.1238,1.0412,-14.9012,0,0,0,2.4169590310055433
-0.1931,0.966,0.0746,-0.6956,0.0546,0.1478,-3.3075,0.6475,-14.49,0,0,0,2.4291072072572657
-0.1934,0.9694,0.0755,-0.6956,0.0546,0.1478,-3.2375,0.5862,-14.3325,0,0,0,2.441348463490174
-0.1922,0.9707,0.0798,-0.6966,0.0564,0.143,-2.7913,1.4525,-14.5162,0,0,0,2.4532471287657134
-0.19,0.9705,0.0778,-0.6944,0.0561,0.1486,-2.66,1.3212,-14.1487,0,0,0,2.4653765474546874
-0.1937,0.9711,0.0792,-0.6944,0.0561,0.1486,-2.6688,1.4262,-14.84,0,0,0,2.477505612227383
-0.1943,0.9704,0.0779,-0.6944,0.0541,0.1495,-2.3712,1.4,-14.8575,0,0,0,2.4896346770000783
-0.1908,0.968,0.0789,-0.6944,0.0541,0.1495,-3.0975,1.0325,-14.8925,0,0,0,2.501638101493987
-0.1934,0.9679,0.0752,-0.6972,0.0553,0.1478,-2.5375,0.9187,-14.8662,0,0,0,2.511082357379703
-0.1937,0.9674,0.0758,-0.697,0.0555,0.1476,-2.3888,1.2337,-14.875,0,0,0,2.5231852323478066
-0.1949,0.9679,0.0773,-0.697,0.0555,0.1476,-2.31,1.2163,-14.6125,0,0,0,2.5352969552228664
-0.1881,0.9695,0.0792,-0.6952,0.0541,0.1478,-2.4413,1.2687,-14.6825,0,0,0,2.547411509428153
-0.1909,0.9683,0.0767,-0.6952,0.0541,0.1478,-3.0975,1.0937,-15.085,0,0,0,2.559475099689368
-0.1909,0.9703,0.0778,-0.6957,0.0564,0.1432,-2.7388,0.8312,-15.12,0,0,0,2.5716547744898564
-0.1931,0.9722,0.0774,-0.6951,0.0551,0.145,-2.8875,0.8838,-15.3562,0,0,0,2.583721903913854
-0.1937,0.9661,0.081,-0.6951,0.0551,0.145,-2.8175,0.8138,-15.1988,0,0,0,2.5930865286369587
-0.1931,0.9835,0.0771,-0.695,0.0538,0.149,-2.73,1.155,-14.5338,0,0,0,2.6051656912144177
-0.1905,0.9701,0.0767,-0.695,0.0538,0.149,-2.5463,0.945,-14.8575,0,0,0,2.617290508991774
-0.1932,0.9697,0.0805,-0.695,0.0539,0.149,-2.7388,1.05,-14.7962,0,0,0,2.6293792273087466
-0.1927,0.9682,0.0769,-0.695,0.0539,0.149,-2.555,1.0062,-14.5862,0,0,0,2.6415061685837724
-0.1948,0.9696,0.0805,-0.6946,0.0545,0.1433,-3.2288,0.9275,-15.2775,0,0,0,2.653574359756605
-0.1932,0.9686,0.0797,-0.6952,0.0551,0.1477,-3.4213,1.12,-14.5425,0,0,0,2.6657129802688138
-0.1926,0.9676,0.0778,-0.6952,0.0551,0.1477,-3.7975,0.7788,-14.4112,0,0,0,2.6777670147905153
-0.195,0.9673,0.0789,-0.6939,0.0522,0.1496,-2.66,1.1725,-14.4462,0,0,0,2.6872070236808923
-0.1971,0.9716,0.0786,-0.6939,0.0522,0.1496,-2.7037,0.8225,-14.4025,0,0,0,2.6993109603978303
-0.1916,0.9702,0.076,-0.6934,0.0546,0.1491,-2.8875,0.9538,-14.1925,0,0,0,2.7113554391800188
-0.1906,0.969,0.0748,-0.6922,0.0517,0.1478,-3.22,0.98,-13.755,0,0,0,2.7234738864643657
-0.193,0.9678,0.0806,-0.6922,0.0517,0.1478,-3.2375,0.9363,-13.8425,0,0,0,2.735602597320783
-0.1904,0.9687,0.0833,-0.6945,0.0538,0.1476,-2.695,0.8312,-14.385,0,0,0,2.7476934391354253
-0.1925,0.9694,0.0793,-0.6945,0.0538,0.1476,-3.22,1.2337,-14.2362,0,0,0,2.75979808368492
-0.1929,0.9715,0.0788,-0.6954,0.0574,0.1494,-2.8875,1.0237,-14.0875,0,0,0,2.7691566918312938
-0.1961,0.9711,0.0765,-0.697,0.0561,0.1479,-2.7037,0.6388,-14.7262,0,0,0,2.781291419264442
-0.1932,0.969,0.0766,-0.697,0.0561,0.1479,-2.5463,0.8925,-15.2075,0.5292053253815928,-6.691195918839947,1.389033615296203,10.900601905414458
-0.1915,0.9685,0.0783,-0.6945,0.0543,0.1487,-2.3013,1.0237,-14.6825,1.65109652261312,-8.857729625280983,1.4388120581414887,10.905453035840747
-0.1906,0.9711,0.0789,-0.6945,0.0543,0.1487,-1.7325,1.0237,-14.8137,3.106818564547267,-10.00409471831542,1.4883317443013733,10.910077305932662
-0.1932,0.9704,0.0766,-0.6958,0.0532,0.1495,-2.5288,1.4612,-14.0875,3.2903999424875576,-10.321168329531348,4.593697614455433,10.914644595503775
-0.1928,0.9695,0.0798,-0.6954,0.0542,0.1469,-2.7037,0.9625,-14.6212,3.3246287527661313,-10.738476036428612,5.0243509998362805,10.919032803438084
-0.1947,0.9692,0.0771,-0.6954,0.0542,0.1469,-2.7913,1.015,-14.7788,3.4482619851701957,-11.037205694100315,5.111745468861799,10.923699189567113
-0.193,0.9678,0.081,-0.6966,0.0531,0.1478,-2.3625,1.2862,-14.7525,3.769371018933178,-11.139258475582535,6.440930676635313,10.92822896401273
-0.1933,0.9701,0.0752,-0.6966,0.0531,0.1478,-2.1875,1.4787,-14.7,3.9878935684277694,-11.186809671820912,8.052915471979407,10.93262460418888
-0.1949,0.9692,0.0767,-0.6974,0.0545,0.148,-2.3363,1.1725,-14.8662,4.1249055014452365,-11.26574623242796,8.50138596793982,10.937021306113868
-0.192,0.97,0.0774,-0.695,0.0554,0.152,-3.045,0.945,-15.3212,4.242088457341383,-11.20197142066333,8.767557716319434,10.941431456857428
-0.1899,0.9697,0.078,-0.695,0.0554,0.152,-2.5988,1.0062,-14.8925,4.2685464844755945,-11.118055512031617,8.837067753038346,10.943724834340637
-0.1926,0.9687,0.0798,-0.6946,0.0532,0.1494,-2.5638,0.6475,-14.9012,4.314045095258699,-11.166483779048686,9.644425039239664,10.945374438113667
-0.1972,0.9694,0.0755,-0.6946,0.0532,0.1494,-2.5725,1.19,-15.0062,4.32744685780251,-11.333273222771089,9.943185972712541,10.94702793496576
-0.1951,0.9668,0.0818,-0.6967,0.055,0.1509,-2.87,0.63,-15.2163,4.409070655162833,-11.354882596932626,10.478007374716562,10.9486839092318
-0.1926,0.9675,0.0783,-0.6967,0.055,0.1466,-2.8875,0.9363,-14.9625,4.446661567743955,-11.28221559303028,10.564401225307,10.950342006995509
-0.1906,0.972,0.0794,-0.6967,0.0538,0.1466,-3.1588,1.54,-14.1138,4.519073119923734,-11.22098719752815,10.882638483635853,10.951995149931323
-0.1926,0.9711,0.078,-0.697,0.0548,0.1486,-3.1763,1.4,-14.245,4.543367728641727,-11.20815577954999,11.092537263443075,10.953652539862475
-0.1947,0.9695,0.0775,-0.697,0.0548,0.1486,-2.6775,0.9887,-14.91,4.5434058144678895,-11.268642803108884,11.114380584047423,10.955304621049454
-0.192,0.9683,0.0776,-0.6944,0.0556,0.1414,-3.4825,1.0237,-15.12,4.56056461472486,-11.217498216265499,11.114433210996484,10.956968027557336
-0.1936,0.9687,0.0765,-0.6944,0.0556,0.1414,-2.6425,1.2337,-14.7613,4.55897721932235,-11.242945484998158,11.117693146658212,10.958609845172244
-0.1923,0.9698,0.0823,-0.6954,0.0545,0.1462,-2.2575,0.9275,-14.6475,4.645453957578726,-11.211253768663145,11.150173596003055,10.960461889056448
-0.1916,0.9709,0.0771,-0.6942,0.0538,0.1496,-3.1238,0.9713,-14.385,4.613100784144846,-11.179031903681878,11.185072640645812,10.962165288103776
-0.1949,0.9694,0.0797,-0.6942,0.0538,0.1496,-3.5525,1.47,-14.2275,4.653641080605685,-11.22892425294658,11.36819376235928,10.96383081810933
-0.1955,0.9708,0.0749,-0.6959,0.055,0.1486,-2.8963,1.4088,-14.3937,4.61045438629182,-11.278142504574447,11.4581525980173,10.965482545380029
-0.1924,0.9698,0.0774,-0.6959,0.055,0.1486,-2.38,0.9713,-13.965,4.599561480031483,-11.261152023657305,11.469964134422735,10.96712188558099
-0.1945,0.969,0.0758,-0.6948,0.0558,0.15,-3.22,1.0937,-13.9912,4.5550728703429595,-11.27227720284322,11.490644761666424,10.968778921595865
-0.1951,0.9687,0.0763,-0.6955,0.0548,0.1486,-2.6688,0.9363,-14.5162,4.554557881314956,-11.307633888365576,11.507808983589696,10.970422862708443
-0.1928,0.9673,0.0771,-0.6955,0.0548,0.1486,-2.4063,1.1462,-14.4025,4.5551250945410136,-11.279654438147784,11.526587063000232,10.972067865569855
-0.1914,0.9695,0.0759,-0.6945,0.0524,0.1491,-2.5113,1.3912,-14.6212,4.543828213489577,-11.21157951031454,11.591366761071226,10.973770556784627
-0.195,0.9717,0.08,-0.6945,0.0524,0.1491,-3.045,0.9975,-14.4112,4.587433078802378,-11.251240670221222,11.596185203398159,10.97498732094933
-0.1921,0.9693,0.0792,-0.6953,0.0526,0.1462,-2.66,1.3037,-14.4462,4.588987281699265,-11.219013749459954,11.577405553534271,10.976199838118694
-0.1936,0.9679,0.0781,-0.6954,0.0548,0.1486,-2.7125,1.1112,-14.8575,4.589774475700459,-11.24879105301142,11.585464580253442,10.977399614302039
-0.1949,0.9683,0.0777,-0.6954,0.0548,0.1486,-2.905,1.0675,-15.0675,4.589409770220824,-11.303687479091076,11.58926833542902,10.97859443565749
-0.1912,0.97,0.0797,-0.6937,0.0537,0.1469,-2.7125,1.33,-14.945,4.592911164306913,-11.200074931714626,11.58605951003326,10.979795627505947
-0.1939,0.9689,0.0756,-0.6937,0.0537,0.1469,-2.6425,1.225,-14.9275,4.58829645118005,-11.24532939575083,11.588666993061018,10.980993634107902
-0.1934,0.9692,0.0787,-0.6948,0.0561,0.1505,-2.5375,1.2775,-14.6212,4.594985637757717,-11.246978548622751,11.635956616920133,10.982179253640117
-0.1959,0.9685,0.075,-0.6932,0.0543,0.1483,-2.9488,1.1725,-15.155,4.559519591862081,-11.337760511447241,11.64659160650658,10.983363811423496
-0.1921,0.9699,0.0801,-0.6932,0.0543,0.1483,-2.765,1.4875,-15.2163,4.572327750234221,-11.235309959673508,11.659166434112064,10.98455792494639
-0.1935,0.9704,0.0755,-0.6952,0.053,0.1494,-2.9138,1.3825,-14.805,4.548835160777268,-11.239741013340684,11.691167733788138,10.985752038469283
-0.197,0.9692,0.0772,-0.6952,0.053,0.1494,-2.695,1.295,-14.3587,4.548919853461127,-11.321924569527646,11.708968174270117,10.986934826671272
-0.1932,0.9675,0.0784,-0.6953,0.0545,0.1478,-2.17,1.1025,-14.6912,4.577196736032174,-11.290173659010506,11.702997338412722,10.988193352956811
-0.1888,0.9674,0.0755,-0.6943,0.0546,0.1495,-2.7388,1.085,-15.0325,4.5707191918236045,-11.132342583773923,11.707274581695142,10.989739613176585
-0.1945,0.9697,0.0734,-0.6943,0.0546,0.1495,-3.1588,1.4787,-14.42,4.49222720603135,-11.20452899137449,11.736782857769276,10.991006279536524
-0.1929,0.9703,0.0737,-0.6962,0.0546,0.1478,-2.6775,1.2687,-14.6562,4.492017804790898,-11.208384096214852,11.717009107252993,10.992216673208219
-0.1954,0.9685,0.0734,-0.6962,0.0546,0.1478,-3.0013,0.9713,-14.7175,4.453495979178512,-11.29078852016098,11.712781489038282,10.993416095475286
-0.1926,0.9694,0.0788,-0.6948,0.0564,0.1474,-3.15,0.6563,-14.6737,4.515528313575384,-11.24744176403653,11.67624024098078,10.994609501165623
-0.1943,0.9684,0.0805,-0.6948,0.0564,0.1474,-3.1063,1.2775,-14.7613,4.586299765317996,-11.277683886825997,11.6549514987493,10.99579441286528
-0.1912,0.9678,0.0853,-0.6965,0.0554,0.1469,-3.535,1.0587,-14.3937,4.794141538630573,-11.220513863716658,11.649852841899209,10.996987110723062
-0.1907,0.9683,0.0803,-0.6971,0.0537,0.1497,-3.43,1.2075,-14.245,4.771186964779848,-11.181353102358486,11.662995360157693,10.998179100748285
-0.1933,0.9691,0.0777,-0.6971,0.0537,0.1497,-3.43,0.7875,-14.8662,4.690908417388192,-11.215215791125857,11.680806926518182,10.999368613359561
-0.1902,0.9705,0.0794,-0.6962,0.0525,0.1474,-2.5375,0.9713,-14.2275,4.689204027883622,-11.161625795620976,11.67573585217751,11.000583607942872
-0.1933,0.9706,0.0767,-0.6962,0.0525,0.1474,-2.73,1.1638,-14.6825,4.680897647086221,-11.194498334107001,11.667432325662077,11.001787985037835
-0.194,0.9676,0.0761,-0.696,0.055,0.1431,-3.115,1.0675,-14.5775,4.625040293349317,-11.244163745221385,11.651824612074138,11.002976789816554
-0.1936,0.9679,0.0801,-0.6952,0.0556,0.1478,-2.835,0.8925,-14.4287,4.639321700426197,-11.256168194319532,11.646068800678366,11.00415603885576
-0.195,0.97,0.0799,-0.6952,0.0556,0.1478,-2.7475,0.945,-14.6912,4.6437868924616925,-11.291897878501931,11.643063229456777,11.005458804676083
-0.1912,0.9711,0.078,-0.6954,0.0542,0.1491,-2.415,0.8838,-14.8662,4.633017796724247,-11.192056012576334,11.653625723209226,11.006822090179991
-0.1916,0.9701,0.0779,-0.6954,0.0542,0.1491,-2.4588,1.3912,-14.3937,4.62544800282509,-11.170425322266347,11.67325558167345,11.00805796582372
-0.1933,0.9675,0.0789,-0.6954,0.0546,0.1478,-3.57,1.2163,-14.665,4.642754424745677,-11.214557587581034,11.66434449477419,11.009270836909362
-0.1952,0.9681,0.0747,-0.6952,0.0553,0.1486,-2.5463,1.0062,-15.0062,4.615769780155314,-11.299770835515826,11.665198437207259,11.010477691418274
-0.1927,0.9714,0.0809,-0.6952,0.0553,0.1486,-2.9313,0.9887,-14.56,4.644979590172339,-11.24685894339876,11.66517939752118,11.011666142280713
-0.1918,0.9712,0.0822,-0.6988,0.0546,0.1478,-2.695,0.525,-14.455,4.648033468994198,-11.199130285691556,11.624224187444202,11.012865210631503
-0.1925,0.9695,0.074,-0.6988,0.0546,0.1478,-2.5288,0.7613,-14.665,4.611067405917372,-11.198878826662956,11.617210264931858,11.01407701996831
-0.1938,0.9694,0.0775,-0.696,0.0563,0.157,-2.0738,0.98,-14.805,4.595912387122414,-11.235789223998458,11.649781390795443,11.01526759432842
-0.1925,0.9685,0.0805,-0.6951,0.055,0.1482,-2.2575,0.91,-14.8137,4.64201085718806,-11.21930910883604,11.64865526405362,11.016460292186201
-0.1917,0.9711,0.0785,-0.6951,0.055,0.1482,-2.87,1.0237,-14.8837,4.638723810016929,-11.172404522212018,11.648665404116555,11.017654759625373
-0.1925,0.9676,0.0799,-0.696,0.0537,0.1481,-3.4738,1.47,-14.7437,4.674945896249819,-11.19359605853829,11.643807087447094,11.01883967132503
-0.1909,0.967,0.0757,-0.696,0.0537,0.1481,-3.2462,1.1812,-15.2862,4.603000287107275,-11.157513544376396,11.645309909336971,11.02002422910841
-0.1924,0.9681,0.0769,-0.6926,0.0541,0.147,-3.0713,1.5662,-14.945,4.585723391815483,-11.18408806221423,11.634438132024354,11.021328410593846
-0.1939,0.9699,0.0807,-0.694,0.054,0.1501,-2.7562,0.8487,-14.2012,4.597961832005473,-11.210515945478443,11.662223197740271,11.022576673307315
-0.1899,0.9697,0.0763,-0.694,0.054,0.1501,-2.7562,1.0062,-14.595,4.590861849601616,-11.134973142400911,11.666061183290223,11.023773264244156
-0.1941,0.9683,0.0812,-0.6933,0.0554,0.149,-3.64,0.875,-14.5775,4.690176384630244,-11.208661768387145,11.673856839702799,11.02497728742284
-0.191,0.9682,0.0812,-0.6933,0.0554,0.149,-3.885,1.4437,-14.4812,4.74694021364929,-11.171502869810338,11.687729753376948,11.026222364889806
-0.1906,0.9686,0.0786,-0.695,0.0542,0.1511,-2.7388,1.26,-14.6825,4.740856611106923,-11.135197277437245,11.724853004144961,11.02743665164056
-0.1904,0.9692,0.0794,-0.6949,0.0546,0.1451,-2.8525,1.0762,-14.6212,4.732357579820326,-11.108390034591048,11.71038210481147,11.028627579916948
-0.1935,0.9691,0.0719,-0.6949,0.0546,0.1451,-2.695,1.0762,-14.6125,4.7246112825620195,-11.179898943342675,11.69870623808908,11.029818508193339
-0.1918,0.9684,0.078,-0.6938,0.0518,0.1478,-3.0013,1.0587,-14.7,4.695441296673763,-11.173907910925887,11.697952178637081,11.031014037381345
-0.1922,0.9697,0.0784,-0.6938,0.0518,0.1478,-3.0275,1.1112,-14.5775,4.676534210108496,-11.17463460579671,11.695928427287827,11.03218903942521
-0.1927,0.9719,0.0803,-0.695,0.0556,0.1487,-2.7125,1.2425,-14.315,4.678048946589629,-11.175701665967937,11.692513736320542,11.033384922529496
-0.1936,0.9712,0.0794,-0.695,0.0556,0.1487,-3.1412,1.05,-13.9212,4.676704144801856,-11.18524842695834,11.692308027294604,11.034605933689537
-0.1912,0.9671,0.0788,-0.6946,0.0548,0.1496,-2.7913,0.9625,-14.805,4.67483566113748,-11.165701484189048,11.696956937782986,11.035805709872884
-0.194,0.9706,0.077,-0.6945,0.0551,0.1483,-2.695,0.7613,-14.945,4.672635882021438,-11.222010792839137,11.693079256368415,11.037006193888786
-0.2047,0.9501,0.0817,-0.6945,0.0551,0.1483,-2.6513,0.7088,-14.6475,4.679143372248172,-11.647668800658533,11.684674631484732,11.038219772806984
-0.1966,0.9621,0.0846,-0.6936,0.0552,0.1488,-1.6625,0.6475,-14.49,4.853602189759298,-11.58676657427167,11.685225546595111,11.039422026404278
-0.2022,0.9631,0.0805,-0.6936,0.0552,0.1488,-1.2775,1.33,-13.4488,4.809435269685172,-11.638244575989432,11.692929396074483,11.040610477266718
-0.1978,0.9486,0.0805,-0.6972,0.0549,0.1512,-0.4025,1.3825,-13.195,4.838040989152726,-11.673101705595023,11.73206882298335,11.041813792612846
-0.191,0.9689,0.0828,-0.695,0.0543,0.1475,-0.1312,0.8925,-12.6962,4.871404584260117,-11.387079937394109,11.713554403256925,11.043016754042696
-0.1896,0.9824,0.0779,-0.695,0.0543,0.1475,0.1488,1.3387,-11.55,4.622012444725504,-11.046127019433229,11.688563898122283,11.04419848049585
-0.1911,0.9767,0.0712,-0.6975,0.0552,0.1473,-0.2975,1.8025,-12.1975,4.303255383430887,-11.043620965420171,11.642552425445205,11.04540356542337
-0.2056,0.9924,0.0722,-0.6975,0.0552,0.1473,-0.875,1.4612,-12.915,4.211801644301653,-11.328314687225873,11.628779959000209,11.04659803286254
-0.2297,1.0047,0.0838,-0.6978,0.0576,0.1483,-1.96,0.8225,-13.2475,4.444377673925221,-11.823451364168484,11.626032910178667,11.04778471414359
-0.2212,0.9739,0.0811,-0.6962,0.0553,0.1478,-5.005,-0.9625,-15.7325,4.665270380811124,-12.443139569669771,11.622650074245316,11.048985552075772
-0.1993,0.9504,0.0737,-0.6962,0.0553,0.1478,-6.0375,-1.12,-16.9487,4.487216069887736,-11.959512425070585,11.62884924504456,11.050195237914908
-0.1665,0.9441,0.09,-0.6945,0.0538,0.1478,-4.5062,0.0525,-15.75,5.106550730656615,-10.621979532282518,11.58397802768906,11.05138368877735
-0.1585,1.0023,0.1072,-0.6945,0.0538,0.1478,-2.695,-0.7088,-14.8137,5.12235734340205,-9.74787224150644,11.504136000297285,11.052599745109495
-0.1677,0.9561,0.054,-0.6977,0.0553,0.1469,-1.1638,-1.2075,-12.8275,3.983961198401055,-9.836037765103722,11.582846026086989,11.053811554446302
-0.204,0.9464,0.049,-0.6976,0.055,0.1469,-1.8463,2.17,-14.525,3.5204940554574544,-10.855099633089111,11.6412518661574,11.055005667969196
-0.2221,0.9431,0.1074,-0.6976,0.055,0.1469,0.6737,0.4725,-13.3,5.8130337647913075,-11.559001022642278,11.540837883722967,11.056207567650212
-0.2431,0.9667,0.1152,-0.6982,0.0566,0.146,2.1438,-1.6887,-11.795,6.627012327877549,-13.183811253600371,11.327804536782466,11.057396018512652
-0.279,0.9353,0.1078,-0.6982,0.0566,0.146,1.6013,-1.9775,-10.185,6.584636851636639,-15.776621188052712,11.34607814621342,11.058589070286711
-0.2791,0.9373,0.1035,-0.6986,0.0554,0.1429,0.9013,-3.3863,-10.605,6.363141770034613,-16.315260777634176,11.184066691871172,11.059769734991029
-0.255,0.8167,0.0633,-0.7002,0.0546,0.1431,3.8063,-4.1475,-9.3975,4.6899645824151,-17.108495846190124,11.346476209882951,11.06093801262561
-0.2448,0.8867,0.1415,-0.7002,0.0546,0.1431,13.475,-5.5388,-2.6513,8.811684825418263,-15.403726223959575,10.872487437336654,11.062131064399667
-0.2117,0.9164,0.0765,-0.705,0.0565,0.1379,17.5525,-11.69,0.0263,4.9621934604848414,-13.129531081106032,10.714996033986791,11.063334025829517
-0.1714,0.9206,0.0872,-0.705,0.0565,0.1379,21.1575,-10.8413,3.745,5.392891224733181,-10.643020844064097,10.599395295058452,11.064520707110567
-0.1416,0.9618,0.0552,-0.71,0.056,0.1264,21.9538,-8.5312,3.64,3.3669829581305106,-8.485728301729202,9.88014350933304,11.065686861247476
-0.1754,0.9972,0.0375,-0.71,0.0584,0.1322,21.8925,-5.8888,2.625,2.2010602580834564,-9.883521092679707,10.304201707098457,11.066875666026196
-0.2231,0.9787,0.101,-0.7168,0.0584,0.1322,20.6675,-1.5925,6.65,5.740360312197802,-12.640612657715481,10.053079247941564,11.06805951597702
-0.2455,0.9537,0.0996,-0.7209,0.0617,0.1224,21.2275,-4.6988,7.8313,5.953189601240216,-14.284519182570008,9.276482243761015,11.069255399081303
-0.2284,1.0546,0.1665,-0.7209,0.0617,0.1224,23.7038,-8.715,8.68,8.861552203532158,-12.169364645736422,8.813171476870638,11.070437833367013
-0.164,1.0324,0.1783,-0.7269,0.0634,0.1155,29.96,-11.41,12.2237,9.770719581417664,-9.018033233926756,8.082581531662626,11.0716499966201
-0.172,1.0369,0.1321,-0.7269,0.0634,0.1155,32.1825,-16.345,19.6612,7.330315824684012,-9.334749221219592,8.294712737380213,11.072859682459237
-0.2461,1.007,0.1387,-0.7357,0.0668,0.101,33.4687,-17.2812,31.3775,7.828555039004789,-13.516938771129112,7.127894983925094,11.074075030958825
-0.2963,0.933,0.1215,-0.7495,0.0706,0.098,37.0213,-24.57,41.3263,7.429641737165736,-17.409494493611557,6.801771714251426,11.075284362881685
-0.206,0.9845,-0.0763,-0.7495,0.0706,0.098,42.5862,-25.6812,47.53,-4.17526071234617,-11.874248594290972,7.829319328214927,11.0765025427115
0.1799,1.171,-0.3586,-0.7624,0.0782,0.091,16.0125,-14.3675,41.2388,-16.37374354078509,7.995320416786978,8.333918241237845,11.077707273722742
-0.2037,0.9267,-0.0707,-0.7624,0.0782,0.091,56.5163,14.6562,27.6763,-4.562304483349086,-11.882358339977486,7.324741851836934,11.078917667394435
-0.0941,1.2077,-0.0507,-0.7723,0.0815,0.0753,36.4962,-7.175,43.295,-2.4576259582711666,-4.579440979818612,5.954227447130503,11.080120274908008
0.1282,1.175,0.0063,-0.7899,0.0925,0.0819,-20.7375,-32.4712,72.6163,0.16213014746761772,6.102911301242554,5.993723518191661,11.081317219761127
-0.2111,1.191,-0.0762,-0.7899,0.0925,0.0819,-24.0975,-51.8263,90.3263,-3.4902613349317497,-9.877405671077456,6.300734563706095,11.08255663456764
-0.227,0.9825,-0.0673,-0.8126,0.1056,0.0696,23.1875,-42.4463,99.7325,-3.9026248666456853,-12.953034561354476,5.397579938978526,11.083904347755302
-0.0866,1.1111,-0.125,-0.8126,0.1186,0.065,-1.1112,-42.9538,87.5,-5.438901503893183,-4.512218137242877,5.431163460577976,11.085157565296667
-0.0766,1.1412,-0.05,-0.8313,0.1186,0.065,-35.9538,-30.345,83.7463,-2.59421633047342,-3.843258805148967,4.808266815505265,11.086390609610172
-0.0346,1.1635,-0.001,-0.8548,0.1338,0.0688,-38.2025,-41.8688,100.4063,-0.11892454727822635,-1.7219359649745556,4.595018903265975,11.087626485253901
0.0655,0.9756,-0.0742,-0.8548,0.1338,0.0688,-42.2363,-54.4687,116.83,-4.244994905593322,3.787743526937958,5.315469110838557,11.088856344320899
0.2471,0.7748,-0.1988,-0.8767,0.1545,0.0662,-38.2725,-58.6688,125.0813,-14.113393689811495,17.070987379764507,7.284856149770744,11.090112039276212
0.2725,0.6935,-0.1728,-0.8978,0.1718,0.0592,-25.3663,-56.0262,117.0838,-13.996668613781264,20.841854720672497,7.191771891669152,11.091345791422272
0.2893,1.0775,0.0718,-0.8978,0.1718,0.0592,-11.1737,-55.3,104.8338,1.936651987468065,15.04613046092464,3.38558172141739,11.09256361733581
0.151,1.1739,0.1319,-0.9189,0.1927,0.0487,-5.0138,-58.1263,106.0413,5.069247666587722,7.348690330176485,1.7640808690405778,11.09376020827265
0.4173,0.7837,0.1992,-0.9189,0.1927,0.0487,-18.06,-64.2775,118.4488,13.700227392939953,27.146872416547406,0.00547426978145652,11.094974495023406
0.2161,0.9777,-0.2065,-0.938,0.2142,0.045,-12.5475,-79.52,110.3113,-9.56832209559376,12.322261210397196,5.694832280895615,11.096201522760179
0.3966,0.8868,-0.03,-0.9544,0.2376,0.0241,-7.2275,-62.2125,106.2338,-3.3128124045127745,23.986003051357663,2.4256815267185545,11.09741439384582
0.546,0.9228,-0.059,-0.9544,0.2376,0.0241,-20.4662,-58.765,100.6425,-3.639886786428719,30.503672929303928,3.1841134789028827,11.098655578233723
0.6766,1.0404,-0.0687,-0.9674,0.2551,0.0212,-18.6462,-54.2938,98.8225,-3.7697540089156587,32.95828112670181,3.2243513083663857,11.099872342398426
0.6916,0.9609,-0.0502,-0.9674,0.2786,0.0077,-13.7025,-46.7337,103.1625,-3.0553717314863547,35.683818931038154,2.066033390589182,11.101105740628208
0.5768,0.9862,0.0115,-0.9834,0.2786,0.0077,-8.5662,-44.0037,110.9413,0.12746301205612912,30.363114644134576,0.39715149009712997,11.10230834814178
0.6098,1.0132,-0.0379,-0.9973,0.304,0.0004,-19.5387,-49.91,120.645,-2.015137307401055,31.019285912552657,0.9544637976507082,11.103565812678484
0.649,1.031,-0.1032,-0.9973,0.304,0.0004,-38.9113,-58.5025,124.4775,-5.616693789841523,32.05372985277199,2.538859357990935,11.104791424750143
0.7006,1.076,-0.1422,-1.0116,0.3295,-0.0066,-48.2825,-60.4188,123.9438,-7.487342974150845,32.836665697587904,3.109182417762843,11.106032963054325
0.7008,1.1307,-0.1128,-1.018,0.3498,-0.0112,-43.1813,-52.5612,98.2538,-5.7401838009932735,31.673833743040554,1.9975076949558686,11.107259636874819
0.6361,1.2783,-0.0299,-1.018,0.3498,-0.0112,-61.1188,-36.8725,83.1338,-1.4139578369296013,26.502713878628533,0.1715674279591065,11.108488080276706
0.6526,1.2819,-0.0496,-1.0267,0.365,-0.0149,-72.5988,-43.295,74.6725,-2.2045088533890205,26.957632561666113,0.06184798999019786,11.109712984515808
0.6965,1.2322,-0.104,-1.0267,0.365,-0.0149,-84.4288,-49.8225,67.8563,-4.792776625899104,29.360782015530408,1.2434648946667932,11.110973988215296
0.7001,1.1665,-0.1516,-1.0289,0.3769,-0.0181,-84.3063,-50.435,54.5825,-7.373127221911597,30.739502741269412,2.5101000612454443,11.112205970779964
0.7376,1.1314,-0.1746,-1.027,0.379,-0.021,-88.6288,-44.38,32.1475,-8.756700917602357,32.7502103562728,3.20394752028078,11.113435475930684
0.6944,1.071,-0.1268,-1.027,0.379,-0.021,-91.5338,-38.9637,11.3575,-6.774356742189859,32.77523681854086,2.0898955232121756,11.114860342867011
0.672,1.0671,-0.1313,-1.0285,0.3728,-0.0248,-87.5,-42.56,-5.1887,-7.011830480326573,32.087136255167145,1.7831005823670871,11.116290518547512
0.6886,1.0457,-0.1455,-1.0234,0.3624,-0.0329,-82.1363,-48.3175,-19.9325,-7.910043192223976,32.970697302011544,1.5150680210480911,11.122053337306633
0.7085,0.9903,-0.1882,-1.0234,0.3624,-0.0329,-70.7263,-42.875,-62.545,-10.719087530596514,35.05905931651045,3.177726659003267,11.123319649750293
0.6847,0.9611,-0.1778,-1.01,0.3428,-0.0316,-61.1275,-37.6688,-87.3513,-10.485021052754638,35.01288506484394,2.8491278457053757,11.124573929040494
0.5979,0.9406,-0.1915,-1.01,0.3428,-0.0316,-49.7612,-37.6425,-104.44,-11.486495005624338,31.951697692050377,3.159003777216044,11.125837764070207
0.5242,0.9186,-0.1709,-0.9958,0.3175,-0.0382,-40.88,-41.9125,-113.3738,-10.563212537148537,29.319902018734698,1.6841843811229054,11.127106200011537
0.5475,1.0244,-0.2045,-0.9767,0.2897,-0.0401,-24.8412,-52.8763,-124.215,-11.258138434509949,27.674721300752978,1.3712293553628556,11.128392685683059
0.5371,1.0046,-0.2434,-0.9767,0.2897,-0.0401,-12.0137,-57.7588,-137.445,-13.39100049761759,27.458455997691274,2.2708959850399477,11.129729073549818
0.4594,0.9597,-0.1806,-0.9513,0.259,-0.0456,-10.3075,-51.5462,-150.7975,-10.974295104028435,25.210288901213794,0.2740478548092452,11.131022637546906
0.3933,0.9752,-0.1997,-0.9206,0.2266,-0.0578,10.8937,-59.6487,-179.8125,-11.531866280098232,21.580967878367645,0.8124730323310716,11.132350531422986
0.4049,1.0138,-0.232,-0.9206,0.2266,-0.0578,15.3037,-60.4362,-188.9825,-12.818200412438351,21.273925565396972,0.43559430414914285,11.133636309261952
0.3622,1.076,-0.1895,-0.8824,0.1972,-0.0677,14.5162,-58.905,-198.7825,-10.143768096743162,18.356903570109232,2.3737223790555735,11.134898728626553
0.3213,1.1648,-0.1792,-0.8824,0.1767,-0.0794,12.145,-61.8275,-205.4937,-8.834484664911235,15.26625025584866,3.6604193123642386,11.13615159225164
0.2688,1.152,-0.1625,-0.845,0.1657,-0.0794,5.4775,-67.9875,-202.125,-8.117070239571266,13.0215879325995,4.042698317704923,11.137386052230255
0.2719,1.0396,-0.2366,-0.7986,0.1412,-0.0848,2.52,-78.7238,-196.7,-12.062517315079083,14.29973422444767,3.9962477673995056,11.138619450460038
0.2316,1.0283,-0.2186,-0.7986,0.1412,-0.0848,10.1763,-88.3925,-195.755,-12.00590146986514,12.434233646079653,4.105179427074595,11.139866651424672
0.1579,1.0253,-0.212,-0.7544,0.1193,-0.1006,14.3587,-89.9675,-205.3188,-11.700284874105732,8.596380272872748,5.8330296532307235,11.141107835812575
0.1433,1.0422,-0.1836,-0.7074,0.099,-0.1014,1.9162,-89.3025,-210.42,-10.296531810647178,7.716129769216003,6.865883975608725,11.14233840271213
0.1319,1.0837,-0.1536,-0.7074,0.099,-0.1014,-2.1875,-91.8925,-208.9062,-9.561972606671945,6.875782292392114,7.154046369353793,11.143604715155792
0.1663,1.0677,-0.1535,-0.6594,0.0854,-0.1067,-5.9325,-96.3375,-200.0337,-8.505800409752108,8.754217932207041,8.341129040873508,11.144849084790199
0.1417,1.0238,-0.1672,-0.6594,0.0854,-0.1102,-10.255,-101.0013,-188.6587,-9.185548811005821,7.783802433346093,8.447885778477628,11.146242807094039
0.1014,0.9681,-0.144,-0.6148,0.074,-0.1102,-12.0487,-104.8775,-178.6225,-8.530353184299544,5.926089377585873,9.24437485507641,11.147536371091126
-0.1492,0.8588,-0.1243,-0.5753,0.0668,-0.1088,-9.2925,-109.7775,-170.9487,-8.274330877997087,-9.656874926087614,9.584489267340455,11.148800560037119
-0.1964,0.7777,-0.1279,-0.5753,0.0668,-0.1088,-5.3375,-115.2988,-165.2525,-9.04815730726299,-13.964239795447197,9.474023207987583,11.15006899597845
-0.2661,0.715,-0.1032,-0.535,0.0644,-0.1052,-7.8225,-117.1275,-170.3013,-8.349026628948158,-20.18160017532232,10.162072129122631,11.151330353594213
-0.0215,0.7351,-0.1865,-0.4981,0.0619,-0.1054,-10.5,-117.1188,-170.7212,-13.568597531549985,-1.741340814526597,9.860176149702895,11.15260799135878
-0.0772,0.6958,-0.1091,-0.4981,0.0619,-0.1054,-6.335,-112.3588,-156.59,-9.91156152017482,-6.223962619285253,10.625926861602167,11.153868995058266
-0.1752,0.6342,-0.0594,-0.462,0.0627,-0.1043,2.0038,-120.4175,-136.8237,-6.1533575825722036,-15.30512284905657,11.900553896351626,11.155115134274066
-0.3479,0.5787,-0.1274,-0.4324,0.067,-0.112,23.6775,-140.91,-124.8363,-12.186628896403848,-30.283059703241825,12.788826786569567,11.156391356373518
-0.4075,0.4384,-0.1832,-0.4324,0.067,-0.112,63.5513,-150.1587,-120.4613,-22.523161351924312,-40.521914556461375,11.069740823335582,11.157672887217146
-0.5652,0.4462,-0.2024,-0.4038,0.077,-0.1222,84.2975,-148.3387,-137.6987,-24.378108905364932,-49.01023084900109,12.587641944650077,11.158948755400319
0.0839,0.9443,0.2018,-0.1965,0.1373,0.0637,-1.4525,3.9463,-22.5225,-4.304731150691732,-0.5501599311829285,4.535899630358161,11.160994745405016
0.0839,0.9443,0.2018,-0.1965,0.1373,0.0637,-1.4525,3.9463,-22.5225,4.711294082148567,4.4020988634903615,8.906656527427765,11.163084621028219
0.081,0.953,0.2022,-0.1946,0.1368,0.0665,-2.52,3.955,-21.455,5.707838252954149,4.7126284508025424,10.769921976449501,11.164273779723215
0.0824,0.9576,0.2064,-0.1935,0.1365,0.0609,-2.345,3.15,-20.5713,7.323822052448797,4.796013506697452,10.023649092073853,11.1654859429763
0.0791,0.9588,0.201,-0.1935,0.1365,0.0609,-2.52,2.8,-18.5675,7.943065596866251,4.647092893176213,9.942285377162326,11.16668890440615
0.0785,0.9562,0.2058,-0.1948,0.1354,0.0616,-4.0862,2.4675,-16.87,10.400259775056535,4.602758045664818,9.894283125205611,11.167854704626782
0.0794,0.9435,0.2034,-0.1948,0.1354,0.0616,-4.41,1.9162,-15.4263,11.519248152898845,4.665622994615816,9.879564038477225,11.169026167507866
0.079,0.9389,0.2051,-0.1932,0.1356,0.0636,-3.7625,1.19,-13.825,11.936999379227103,4.668344877127413,9.954134714248449,11.170192321644775
0.0869,0.9392,0.2062,-0.1932,0.1356,0.0636,-4.4975,1.2862,-12.5562,12.224599562103897,4.936708089663447,10.054378339030848,11.171349981791007
0.0919,0.9392,0.2098,-0.1938,0.1354,0.0614,-4.1563,0.7,-11.6287,12.44375439051559,5.288228395684866,9.950804194184771,11.172526045583709
0.0949,0.9342,0.2047,-0.195,0.1356,0.0626,-4.0425,0.0,-10.8325,12.394976974600699,5.569925374790655,10.046181828803306,11.173710957283367
0.1023,0.9425,0.2067,-0.195,0.1356,0.0626,-3.4125,0.6212,-10.6487,12.384290430478492,5.934063523626337,10.08846882464171,11.17488454366212
0.1114,0.9458,0.2097,-0.1962,0.1354,0.062,-2.8525,0.9275,-11.2087,12.401586332875336,6.382390069845756,10.074213496482729,11.176053883045533
0.1071,0.9515,0.2065,-0.1962,0.1354,0.062,-3.3425,1.2775,-11.27,12.33903489806391,6.307547525327043,10.077309479044871,11.177269585461401
0.1037,0.9496,0.213,-0.1954,0.1351,0.0602,-3.7888,1.7762,-11.4187,12.498656674251423,6.150158514535087,9.727375774259494,11.17847467038892
0.0981,0.9428,0.2097,-0.1952,0.1338,0.0618,-3.9375,1.5662,-11.445,12.521553631782357,5.906103254189511,9.779308619693424,11.179661705586248
0.0949,0.9306,0.2087,-0.1952,0.1338,0.0618,-3.3075,1.0062,-11.48,12.567361205365124,5.75118458722726,9.779328088539522,11.180875638420726
0.0877,0.9226,0.2077,-0.196,0.1333,0.0639,-3.0625,-0.2013,-12.04,12.600580277605994,5.466190725984496,10.06887905745266,11.18208390859475
0.0958,0.9282,0.2065,-0.196,0.1333,0.0639,-2.1263,-0.8312,-13.5012,12.57991964447452,5.520923782559188,10.341015822988867,11.183273067289747
0.1027,0.9342,0.2032,-0.1964,0.1362,0.0627,-0.9713,-2.2488,-13.7025,12.385341430957208,5.541309371156313,10.232275681652016,11.184470012142867
0.1105,0.941,0.2033,-0.1964,0.1362,0.0602,-0.49,-2.1613,-13.6675,12.252075247073481,5.606757908286165,9.725091245828795,11.185679697982003
0.1129,0.9431,0.1986,-0.1965,0.1361,0.0602,-1.68,-2.1875,-13.4925,12.071995687469727,5.817906613924341,9.800733278988995,11.186874165421175
0.1175,0.9434,0.2025,-0.1971,0.1353,0.0631,-2.24,-1.715,-13.7637,12.085010881638825,5.84711118449747,10.381020094448154,11.18806190845106
0.1135,0.9415,0.2008,-0.1971,0.1353,0.0631,-1.8375,-1.365,-14.1575,12.06420185418456,6.106717216860336,10.545499601105316,11.189261330718127
0.1144,0.9439,0.2037,-0.1989,0.1338,0.0638,-2.8788,-1.2687,-14.98,12.083168508270042,6.466770449001194,10.658312421239756,11.190468893059595
0.1133,0.942,0.2043,-0.1989,0.1338,0.0638,-3.3863,-0.7962,-14.8662,12.146795358871774,6.592567486070314,10.655254894762631,11.191661944833653
0.1164,0.9399,0.2012,-0.1971,0.136,0.0663,-3.7013,-0.5862,-14.8662,12.114384596950073,6.758186614280345,11.204773884202456,11.193151932365183
0.1126,0.937,0.202,-0.1966,0.1365,0.0639,-4.025,-0.49,-14.595,12.143844275159324,6.731290947108491,10.908488379613381,11.205350718644699
0.1185,0.9328,0.2032,-0.1966,0.1365,0.0639,-3.7275,0.0525,-14.49,12.218272613581297,6.879225361344679,10.795922986078864,11.217574632979971
0.1197,0.9298,0.209,-0.1966,0.1343,0.0646,-3.2725,0.1837,-14.7962,12.385923396335766,7.023157453330651,10.771337979207695,11.229820844040775
0.1194,0.9273,0.2021,-0.1966,0.1343,0.0646,-2.6163,0.5425,-15.1287,12.38056835273353,7.1089367525324,10.858474913779034,11.242508388700585
0.1215,0.9326,0.2053,-0.1961,0.1346,0.0618,-2.6163,0.6125,-14.6825,12.382592365425419,7.177995357103508,10.637481465260606,11.254568439799018
0.1183,0.9375,0.2067,-0.1979,0.1355,0.0644,-2.3363,1.4,-14.7525,12.39562093065837,7.100899671617228,10.652787891948762,11.263887055405947
0.1174,0.9383,0.2073,-0.1979,0.1355,0.0644,-2.7475,1.8987,-15.295,12.39964498902093,7.018444530141862,10.65816597084696,11.27590782179749
0.1123,0.9346,0.208,-0.1965,0.1353,0.0641,-3.045,1.4175,-14.7175,12.43912873529548,6.85563916686051,10.627581505234543,11.28795583974246
0.1064,0.9305,0.2028,-0.1965,0.1353,0.0641,-2.6338,1.7062,-14.3325,12.432915833066325,6.676219069964173,10.654117989804154,11.300021907417625
0.1052,0.9289,0.2048,-0.1966,0.1354,0.0661,-2.2313,1.4437,-14.4112,12.433071865354632,6.529169407271186,10.804630251859988,11.312035595483604
0.1007,0.9295,0.2084,-0.1966,0.1327,0.067,-1.9425,1.1112,-14.5775,12.51960267063737,6.303284360190602,10.849594782498027,11.324105556237827
0.1054,0.9325,0.2061,-0.1966,0.1327,0.067,-1.4875,0.7962,-14.5162,12.488874403846244,6.300977212449237,10.986102935787795,11.334096966689753
0.1089,0.9372,0.2039,-0.195,0.1358,0.0636,-1.19,0.6125,-14.2012,12.360431019914605,6.3569950531265285,10.882139027330775,11.34551041274778
0.1128,0.9365,0.209,-0.195,0.1358,0.0636,-0.9713,0.91,-13.9038,12.499298383053796,6.406691231437554,10.833915885325064,11.35747278295341
0.1148,0.9384,0.2042,-0.196,0.1342,0.0637,-1.4175,0.5075,-14.3937,12.374984769780598,6.569208009246586,10.807320005996454,11.369553361195981
0.11,0.9366,0.1995,-0.196,0.1342,0.0637,-1.5137,0.56,-14.8925,12.186399180099167,6.5604100811475305,10.839196814599982,11.381601379140953
0.1097,0.9344,0.1971,-0.1976,0.1358,0.0678,-1.3212,0.6125,-15.4962,12.027931920178833,6.5557210458172515,11.193487717515508,11.393687620043977
0.1087,0.9382,0.1989,-0.1982,0.1349,0.0629,-1.2687,0.7263,-16.065,11.993790226430141,6.49322005405977,11.03833315943353,11.4028597143117
0.1089,0.9404,0.2027,-0.1982,0.1349,0.0629,-0.875,0.4638,-16.0037,12.103173126092855,6.46912813562632,10.798399574565908,11.41487340237768
0.1169,0.9438,0.2087,-0.1962,0.1356,0.0629,-0.6212,0.8225,-15.645,12.349369192766098,6.749094189135416,10.70931315140836,11.426972738183
0.1167,0.9422,0.1986,-0.1962,0.1356,0.0629,-1.3387,0.4812,-15.8987,12.093598587919285,6.859322365726629,10.715757050010978,11.439067473076703
0.1122,0.9401,0.2014,-0.1967,0.1364,0.0674,-1.295,0.6125,-16.2138,12.092579725881215,6.714741876474357,11.042232671724731,11.451158314891345
0.1133,0.9407,0.2008,-0.1966,0.1369,0.0599,-2.0825,0.8487,-16.1875,12.076451876312534,6.716940383445413,10.816381276785508,11.460291124452182
0.1111,0.9397,0.2062,-0.1966,0.1369,0.0599,-2.0213,1.2687,-15.33,12.195431545997295,6.637378583882759,10.518934013732396,11.472362854787796
0.1102,0.9412,0.1947,-0.1977,0.1352,0.0621,-1.4437,1.3737,-15.3737,11.914772749483824,6.577430455742133,10.520562821264337,11.484449803523377
0.1155,0.9419,0.1984,-0.1977,0.1352,0.0621,-0.8575,0.6212,-14.9187,11.901872090591246,6.720887048672701,10.489800496763712,11.49654453841708
0.1188,0.9421,0.1984,-0.1958,0.1349,0.0671,-1.6275,0.7175,-15.4,11.896984578898051,6.91669120969493,10.873982737476657,11.508570967469076
0.1149,0.9428,0.1938,-0.1958,0.1349,0.0671,-1.6625,1.6625,-16.2225,11.755247896385999,6.838808866231909,11.419805171020851,11.520660393618606
0.1174,0.9459,0.1964,-0.1972,0.1351,0.0639,-1.3475,2.1263,-16.66,11.740728585409443,6.905834515903858,11.273798676321016,11.529876373504836
0.1135,0.9491,0.1971,-0.1955,0.1356,0.0626,-1.2425,2.73,-16.4675,11.735513103162505,6.73928263061398,10.957231651369618,11.541964030072974
0.1085,0.9514,0.1907,-0.1955,0.1356,0.0626,-1.54,3.0625,-15.8287,11.521852160471818,6.49635639087494,11.006894715421117,11.554014525431892
0.1061,0.9488,0.1889,-0.1959,0.1358,0.061,-2.17,3.01,-16.0475,11.433533085770083,6.330548475150084,10.700792200796942,11.566060773795472
0.101,0.9473,0.1903,-0.1959,0.1358,0.061,-2.345,2.7125,-16.065,11.4148195300048,6.076579363193973,10.525469910045416,11.578182052410046
0.1025,0.9439,0.1915,-0.1977,0.134,0.0549,-2.9925,2.4763,-15.1112,11.427658587034626,6.075533026250231,9.332889773822023,11.590341907898951
0.1041,0.9417,0.1929,-0.1954,0.1366,0.0614,-3.9375,3.0888,-14.245,11.510574843480265,6.110997950116337,10.04553999032329,11.599460560808655
0.1044,0.9414,0.1959,-0.1954,0.1366,0.0614,-3.885,2.625,-14.4287,11.644293925337587,6.14595263885099,10.173082946563918,11.611441334660755
0.1109,0.9414,0.1968,-0.1947,0.1354,0.0622,-3.8238,2.485,-14.315,11.731492821020971,6.304107831030496,10.443697203510068,11.623527575563779
0.1095,0.9416,0.1938,-0.1947,0.1354,0.0622,-4.3925,2.3975,-13.9212,11.667528072885645,6.334291906163222,10.62406002608595,11.635654516838805
0.1116,0.9434,0.1975,-0.1952,0.1371,0.0599,-4.27,2.31,-14.5513,11.763647905227076,6.455612166840085,10.15288964301083,11.64774500473717
0.1122,0.9445,0.2022,-0.1952,0.1371,0.0599,-5.005,3.36,-14.63,11.98738504920645,6.5359112731758,9.75241900964136,11.65978700610541
0.1079,0.9393,0.1989,-0.1957,0.1362,0.0686,-4.3838,3.6575,-14.7437,11.96758171296688,6.473773148493116,11.616821951554451,11.668968656112646
0.1035,0.9332,0.2015,-0.1955,0.1355,0.0618,-4.585,3.57,-14.7,12.109828800289677,6.333234281715189,10.52416697064728,11.681025875880852
0.1036,0.9365,0.1981,-0.1955,0.1355,0.0618,-4.3925,3.885,-14.7525,12.005009053175497,6.254550504508063,10.344392265953008,11.69311954902572
0.1018,0.9435,0.2027,-0.1966,0.1346,0.0627,-4.445,3.7275,-14.6125,12.0816387268081,6.145909327056675,10.369876423071506,11.705211098672919
0.1066,0.9476,0.2084,-0.1966,0.1346,0.0627,-4.76,3.2025,-13.8687,12.298878485365847,6.160332145858038,10.255897212601743,11.717257700952777
0.1099,0.9503,0.2098,-0.1966,0.1362,0.0568,-4.97,3.3425,-13.3437,12.40381929575977,6.2401369997569995,8.885877877617423,11.726431918718172
0.1111,0.9427,0.2101,-0.1952,0.1364,0.0645,-4.9875,3.3425,-12.95,12.515724078000892,6.381862788218444,10.113263977208069,11.738681668941759
0.1077,0.9329,0.2085,-0.1952,0.1364,0.0645,-4.2613,3.71,-13.405,12.566366686879137,6.393420346118261,10.463002534221012,11.750611124933508
0.0972,0.9277,0.2077,-0.1959,0.1354,0.0636,-3.955,3.8238,-14.665,12.596253098015683,6.126025003400168,10.289463525755385,11.762770272589856
0.0942,0.9312,0.2055,-0.1959,0.1354,0.0636,-3.4388,3.4475,-15.1287,12.530831997785796,5.84411650795302,10.319852887914546,11.774761310014025
0.095,0.9398,0.208,-0.1975,0.135,0.0658,-2.3275,2.2488,-15.05,12.517546082771858,5.726355316465105,10.636365755495794,11.786850736163554
0.0986,0.9468,0.2014,-0.1975,0.135,0.0658,-1.68,2.065,-15.295,12.26329583701918,5.781050982845933,10.968183761204143,11.79604902023587
0.1002,0.9515,0.204,-0.1958,0.1333,0.0634,-2.0563,1.435,-15.7237,12.200992795080808,5.8461264850902115,10.892856428396312,11.808126767148217
0.1026,0.9506,0.197,-0.1963,0.136,0.0633,-2.5813,1.6275,-15.2687,12.157159883561771,5.959172151469498,10.866560922068395,11.820140455214196
0.0938,0.9505,0.198,-0.1963,0.136,0.0633,-3.6488,2.4325,-14.8575,11.965103880064095,5.726202494048828,10.763791164674696,11.832237667521845
0.0928,0.9494,0.1956,-0.1958,0.135,0.0624,-4.41,2.4675,-14.7,11.759967839695738,5.599812846468168,10.663859855951266,11.844340542489949
0.0928,0.9476,0.1951,-0.1958,0.135,0.0624,-4.1737,2.2575,-14.8662,11.684477526941453,5.535758910799885,10.629685870573846,11.856383959523303
0.0996,0.943,0.1979,-0.195,0.1376,0.0574,-4.9263,2.17,-13.8337,11.800561179737878,5.568002768937856,9.690830590849835,11.86561869697228
0.1024,0.9435,0.2,-0.1971,0.1354,0.0628,-5.7838,1.89,-13.7025,11.927367109675233,5.584452979883152,10.047950371035629,11.877627784126641
0.1001,0.9416,0.1967,-0.1971,0.1354,0.0628,-5.915,2.4413,-12.985,11.829599969339572,5.737469270489081,10.355710566927813,11.889723226852901
0.1004,0.9469,0.2042,-0.1972,0.1354,0.0634,-6.0988,3.115,-12.5387,12.092621513427986,5.835571152564781,10.424836584918381,11.9018310566489
0.1016,0.9437,0.2011,-0.1972,0.1354,0.0634,-6.3875,2.835,-12.2325,12.043019046982302,5.940912868926134,10.525779366486093,11.91393039245422
0.1052,0.9414,0.2054,-0.1974,0.1362,0.0616,-6.3875,2.5463,-11.6462,12.25190276707225,6.137057869187245,10.087457704791195,11.923092223149876
0.1014,0.9418,0.2002,-0.1974,0.135,0.0659,-6.1075,2.5113,-10.8062,12.057522302653796,6.043691504526222,10.85023287076966,11.9351784640529
0.1028,0.942,0.202,-0.1987,0.135,0.0659,-6.545,2.2662,-10.815,12.093705343749265,6.078662799996978,11.05565283935224,11.947370879839406
0.1061,0.9445,0.2002,-0.1965,0.1367,0.0653,-6.51,2.38,-10.4912,11.99363352753738,6.225884870308511,11.146589419479213,11.959333250045034
0.106,0.9523,0.1937,-0.1965,0.1367,0.0653,-7.1575,2.4675,-9.5637,11.587853030051747,6.225156863896946,11.398914842614515,11.971364987841206
0.1109,0.9509,0.1983,-0.1969,0.1334,0.0672,-7.6213,2.0913,-9.3013,11.747330197358243,6.460266349971961,11.779258098840382,11.980414627076648
0.1138,0.9528,0.197,-0.1969,0.1334,0.0672,-8.7325,2.0563,-8.6187,11.691101301278113,6.636729887585631,12.013866461884756,11.992523518621482
0.1208,0.9504,0.2035,-0.201,0.1335,0.0642,-9.3362,1.435,-8.7412,12.034166851403265,7.010069423935463,11.677411251725978,12.004497568064293
0.1221,0.9503,0.2021,-0.201,0.1331,0.0694,-9.8875,1.82,-9.0475,12.009607966228078,7.136203261217549,12.038155029907058,12.016543108595316
0.1291,0.9539,0.1992,-0.201,0.1331,0.0694,-9.5288,2.1175,-9.4325,11.822679612410584,7.469291786817047,12.398578849070486,12.028534853852042
0.131,0.9599,0.199,-0.2001,0.1334,0.07,-10.2725,3.1325,-9.8962,11.725111661320502,7.5820486268251335,12.827221400465072,12.03773667708714
0.1324,0.9658,0.2017,-0.2001,0.1334,0.07,-11.5062,4.1475,-10.36,11.789002832766009,7.629109962920889,12.938078545748423,12.049896532576046
0.1344,0.9672,0.207,-0.2009,0.1337,0.065,-12.6175,4.6375,-10.5262,12.053571827328854,7.712139362868989,11.579741487996442,12.06226590650169
0.1327,0.9642,0.2031,-0.2009,0.1337,0.065,-13.7112,5.8013,-10.2637,11.908130238250884,7.679404083303533,11.375836667326942,12.07413767414008
0.1367,0.9586,0.2008,-0.2034,0.1354,0.07,-16.31,6.9125,-10.045,11.836094381161306,7.888944204345328,12.489738686314704,12.086240195191905
0.1344,0.9557,0.2059,-0.205,0.132,0.0739,-16.8262,7.6038,-9.1175,12.136937893924815,7.83859961168157,13.472285794281076,12.098338823164669
0.1301,0.9481,0.2075,-0.205,0.132,0.0739,-19.145,8.3737,-8.505,12.33312029035745,7.667606778656188,13.446660660603918,12.110425064067693
0.1283,0.9504,0.2147,-0.2058,0.1311,0.0777,-19.7225,9.6075,-8.3737,12.707741439821916,7.527533084738472,14.137562512672098,12.11960459057726
0.1318,0.953,0.2189,-0.2058,0.1311,0.0777,-21.0088,9.8875,-9.1262,12.924385022100164,7.6500594071378325,14.10903088198691,12.131620756057188
0.1287,0.954,0.2206,-0.2068,0.1326,0.0789,-21.7175,10.01,-9.065,13.015280410058608,7.516477527614983,14.180950663781935,12.143835822485503
0.1316,0.9557,0.2198,-0.2066,0.1322,0.0819,-23.5725,11.1212,-8.2862,12.955022228178665,7.6235903441445,15.074345264025794,12.155943652281502
0.125,0.9556,0.2282,-0.2066,0.1322,0.0819,-25.0425,11.7512,-7.6125,13.41049292873076,7.303131409413846,14.75145827655518,12.16806245348213
0.1215,0.9555,0.2355,-0.207,0.1329,0.0845,-26.8537,11.4275,-7.595,13.828327371530097,7.07541415346691,15.00269811819266,12.18013312206891
0.1179,0.9557,0.2345,-0.207,0.1329,0.0845,-28.5862,11.2087,-7.9888,13.78785404643075,6.868158407002398,15.020943538069012,12.192225025632386
0.1197,0.9531,0.2392,-0.2101,0.1319,0.0865,-30.03,11.3662,-7.7438,14.077960320657953,6.9341199704650585,15.189692481008382,12.201527715006792
0.1196,0.9471,0.2493,-0.2134,0.1313,0.0936,-31.4475,11.2613,-7.245,14.724656859639477,6.958718637421305,16.324520147872278,12.213669874681784
0.1199,0.939,0.248,-0.2134,0.1313,0.0936,-33.81,11.235,-7.0437,14.792432734047283,7.0275951368908345,16.41184576546257,12.225771687901053
0.1222,0.9389,0.2569,-0.2108,0.1302,0.0963,-34.7638,10.8675,-6.825,15.287192733119095,7.139206866650819,17.027640175770976,12.237851912227347
0.1268,0.9434,0.263,-0.2108,0.1302,0.0963,-36.1025,9.9225,-6.8688,15.568918668335824,7.346845468001772,16.958799186121464,12.249980623083763
0.1297,0.9404,0.2632,-0.2138,0.132,0.099,-37.3275,10.2462,-7.1487,15.634039075061994,7.536707923360118,17.28001275059599,12.262123490591312
0.1324,0.9392,0.2775,-0.2126,0.1325,0.1026,-38.9813,10.43,-6.7725,16.438368498046106,7.678910296592717,17.73115340451267,12.274234505633816
0.138,0.9302,0.2785,-0.2126,0.1325,0.1026,-42.385,11.1037,-6.1338,16.661962565586176,8.041175531241487,17.736173782513987,12.283492955473438
0.1473,0.9119,0.2954,-0.2134,0.1319,0.1102,-43.7588,11.5587,-5.4862,17.91857328440509,8.661121352867143,18.86536436922019,12.295583089455524
0.1468,0.9069,0.2976,-0.2134,0.1319,0.1102,-45.22,11.8562,-5.9063,18.161581010483452,8.73428672161713,18.816028179652402,12.307705429818933
0.1473,0.9003,0.3093,-0.2142,0.1334,0.1158,-45.9113,12.8625,-6.685,18.942212499420314,8.78826287089682,19.467538004334617,12.319855375652045
0.145,0.9012,0.3132,-0.2142,0.1334,0.1246,-46.655,13.37,-6.7813,19.15927539670773,8.6601046425491,21.43703922910514,12.331967452443385
0.1418,0.8914,0.3132,-0.2171,0.1331,0.1246,-47.4863,14.14,-6.965,19.354936716319237,8.551372402580586,21.159608498887255,12.344059709923139
0.1343,0.8916,0.3324,-0.2162,0.1343,0.1289,-47.7137,14.735,-7.2975,20.422401987531348,8.103187400400014,21.219614592011816,12.356210717505087
0.1369,0.8986,0.3393,-0.2162,0.1343,0.1289,-49.3063,15.2075,-7.595,20.6803699501374,8.110360431485836,21.078189599206688,12.36546916734471
0.1391,0.8877,0.3554,-0.217,0.1357,0.1347,-50.4087,15.785,-6.2475,21.795841973504547,8.257233638957349,21.47516331667079,12.377595046870901
0.1461,0.8871,0.3574,-0.217,0.1357,0.1347,-51.7125,15.6887,-5.8888,21.940848649715072,8.637073406085776,21.551171590552936,12.389662530211178
0.1437,0.8716,0.3662,-0.2175,0.1382,0.1446,-53.1738,16.5462,-5.2238,22.773076469730242,8.642124532599338,22.962185119183776,12.401789471486204
0.1451,0.8596,0.383,-0.217,0.1378,0.1489,-53.6375,17.885,-4.69,23.991738052537073,8.752995141635173,23.2324861154971,12.413941894733265
0.1468,0.8521,0.3959,-0.217,0.1378,0.1489,-54.1362,18.7425,-4.5938,24.902671302890866,8.867567129526044,22.581271248459217,12.426084054408257
0.1382,0.8395,0.4094,-0.2201,0.1379,0.1566,-54.3112,19.7225,-3.8588,25.976365059429078,8.458130270519723,22.943310700695285,12.438227629748361
0.1311,0.8324,0.4101,-0.2201,0.1379,0.1566,-54.565,20.4487,-3.1063,26.223406034737526,8.07738458491519,22.62841937610009,12.450272462446828
0.1208,0.8189,0.4235,-0.2213,0.1398,0.1652,-53.4188,20.9125,-2.2488,27.324370620982886,7.513974543528021,23.08068772049304,12.459551085514311
0.1138,0.8067,0.4329,-0.2222,0.1421,0.168,-52.7537,19.6,-1.5312,28.20185000620509,7.118053235481629,22.52048540388112,12.47172049674273
0.1175,0.7898,0.4523,-0.2222,0.1421,0.168,-51.9487,19.0312,-0.4462,29.766991819606783,7.339567918432641,21.26047763528358,12.483806029813199
0.1245,0.7828,0.4625,-0.223,0.1454,0.1754,-50.12,17.7712,0.4462,30.559078232437475,7.766917120894938,21.846127099889948,12.495856879088397
0.1319,0.7815,0.4662,-0.223,0.1454,0.1754,-48.3875,16.7475,0.595,30.812439574590705,8.216042006425866,21.849696661478593,12.507956568809995
0.1368,0.7842,0.4746,-0.2258,0.1452,0.1768,-46.8475,17.1937,0.6737,31.1742500722354,8.47061821827285,21.679148688767828,12.520053073285089
0.1401,0.7762,0.4847,-0.2283,0.1435,0.1873,-46.095,17.57,1.015,31.964613840244418,8.689389876884364,23.224606721705317,12.529224813636535
0.1443,0.7635,0.4955,-0.2283,0.1435,0.1873,-45.64,17.7975,0.9975,32.95979888293058,8.988280443099054,22.54448843465035,12.541325565106968
0.1422,0.7501,0.4915,-0.2297,0.1474,0.1906,-43.995,17.3775,0.6125,33.22816415799003,9.008751374846598,22.367963681244802,12.55334243841945
0.1266,0.7508,0.5006,-0.2297,0.1474,0.1906,-43.3737,17.815,1.2425,33.682426844245995,8.05016257738573,21.478603612083095,12.565404613015554
0.1034,0.7565,0.4959,-0.2299,0.1474,0.1946,-42.2275,17.6312,0.3938,33.25636927450489,6.622284249097979,22.01808727287507,12.5775067801511
0.0877,0.7685,0.5038,-0.2299,0.1474,0.1946,-40.5913,15.6712,-0.7437,33.247589038965366,5.53536485576985,21.62036646633674,12.589722908328252
0.0815,0.7835,0.5095,-0.233,0.1494,0.2013,-40.67,12.8013,-0.2975,33.04087400066976,5.022000859065456,22.349961491386278,12.598822449758929
0.0942,0.7924,0.5131,-0.2341,0.1518,0.2074,-40.32,7.8925,-0.4288,32.927148121570426,5.651190023617032,23.487100188573045,12.61092567864331
0.1488,0.7946,0.5188,-0.2341,0.1518,0.2074,-41.7638,4.6375,-3.0888,33.135475689889034,8.631615839423459,24.70979923903819,12.6230434180951
0.1671,0.7932,0.5223,-0.2359,0.1506,0.2133,-44.625,3.36,-4.7512,33.358469101976226,9.843968063939473,26.04529018817693,12.635107008356316
0.1729,0.7886,0.533,-0.2359,0.1506,0.2133,-46.795,4.3313,-6.195,34.03860852541865,10.242667350911375,26.099761505514415,12.647192187510505
0.1738,0.781,0.5438,-0.2374,0.1547,0.2226,-48.6763,5.0138,-6.4488,34.83174270840293,10.3367347571399,26.538438944704183,12.659298247725113
0.1725,0.7665,0.5477,-0.2376,0.1575,0.2268,-50.4437,5.425,-7.6737,35.532896574014295,10.370719512504131,26.464645603928176,12.668442736523133
0.1715,0.7535,0.5502,-0.2376,0.1575,0.2268,-52.1675,6.0375,-7.7613,36.12467826837247,10.409192587299735,25.936509623685886,12.680465626412346
0.1812,0.7262,0.5636,-0.2379,0.1611,0.2336,-53.0425,7.1487,-8.8025,37.78194466867984,11.026072684793075,25.426477096125016,12.692606016505946
0.1782,0.7145,0.5682,-0.2379,0.1611,0.2336,-54.2325,7.3325,-9.5025,38.479640874057445,11.041808971324942,24.594749687102134,12.70466182060904
0.1715,0.7078,0.5693,-0.2377,0.1644,0.2442,-53.9263,8.3212,-9.0562,38.8041961328853,10.753503763347947,25.553584101885868,12.716759386832969
0.1679,0.7017,0.5904,-0.2382,0.166,0.245,-54.7313,8.855,-8.8812,40.052773513334785,10.439936315022111,23.96948178459247,12.728767058322216
0.1735,0.6925,0.5994,-0.2382,0.166,0.245,-55.5713,8.8638,-9.0475,40.86282434822967,10.676325702511217,23.073312322225007,12.738018429836274
0.1824,0.6783,0.6206,-0.2386,0.1697,0.2553,-55.4313,9.5025,-9.1087,42.42681957123082,11.12473337854141,22.77059263771642,12.75007989659982
0.1886,0.6415,0.6273,-0.2386,0.1697,0.2553,-56.0088,11.5675,-10.1412,44.323230893739755,11.708504064662124,20.602183347476647,12.762237982507333
0.1876,0.6301,0.6467,-0.2394,0.1754,0.2629,-54.8187,13.65,-11.1562,45.71812205391526,11.729398016863849,18.80999758295523,12.77440350065669
0.1857,0.6225,0.656,-0.2394,0.1754,0.2629,-54.8362,15.3825,-11.4187,46.486227162259645,11.64172832893555,17.456089808916634,12.786615027922224
0.1751,0.608,0.6626,-0.2366,0.1785,0.271,-53.9437,16.7737,-10.955,47.441947537600754,11.18312822506435,16.859423926986945,12.79884248142028
0.1654,0.6082,0.6814,-0.2345,0.1814,0.2741,-52.99,18.1037,-9.9225,48.233001526721814,10.455312460774335,15.363636561392417,12.810891561114085
0.1719,0.5826,0.7066,-0.2345,0.1814,0.2741,-45.2287,20.1338,-9.5375,50.44210026375168,10.597117198517482,11.627248060465245,12.822968600193875
0.1622,0.5641,0.7165,-0.2342,0.1852,0.2826,-48.4925,20.93,-10.955,51.75794206997317,10.220867401399916,9.780413450963266,12.832363307800632
0.1479,0.5614,0.7107,-0.2342,0.1852,0.2826,-46.9263,21.5775,-11.2613,51.69531087591609,9.546879464685551,9.585867302486387,12.844506175308181
0.1375,0.556,0.7308,-0.2327,0.1894,0.2828,-44.835,21.7787,-11.27,52.711648166962654,8.813453128607824,6.64509617643491,12.856633470499485
0.1254,0.552,0.7428,-0.2319,0.1918,0.2906,-43.3825,20.8862,-11.0775,53.36661038639449,8.016382950460535,6.072434110651992,12.868825532369714
0.1255,0.5458,0.7448,-0.2319,0.1918,0.2906,-41.545,20.2213,-10.2462,53.75550416169729,7.801452428148283,5.365556207947919,12.880992112267906
0.1216,0.5466,0.7455,-0.2304,0.1952,0.291,-39.27,20.16,-10.3075,53.75127596405078,7.5632692107126385,4.620418132906306,12.893333172891287
0.1215,0.5497,0.7586,-0.2304,0.1952,0.291,-37.8,20.405,-11.585,54.06312085783829,7.444712880049393,3.9883025208664855,12.905455513254696
0.1191,0.5448,0.7663,-0.2274,0.1998,0.2961,-36.68,20.2737,-12.5738,54.574096671773475,7.323507389744534,2.8261153804180847,12.917610767831983
0.1184,0.5469,0.7674,-0.2263,0.2021,0.3016,-35.5337,19.8537,-12.985,54.525299506098555,7.253920598303245,3.3119123313939203,12.929762483246487
0.1082,0.5209,0.7731,-0.2263,0.2021,0.3016,-34.3875,19.5387,-12.6087,55.982701248281494,6.918152581700271,0.4438624753715976,12.941942511963255
0.1033,0.5093,0.7764,-0.2243,0.2033,0.3062,-29.89,19.0312,-13.37,56.709369732217034,6.765083066875611,0.5841578407006516,12.95405494267087
0.0999,0.5071,0.7727,-0.2243,0.2238,0.3068,-27.6063,19.5212,-12.9062,56.72372625845718,6.494620415607564,5.610036237588992,12.963481502742674
0.0935,0.5089,0.774,-0.2249,0.2082,0.3068,-25.8213,19.3025,-13.7025,56.67734291256328,6.470212127625118,1.867718821285351,12.975660823626884
0.0846,0.5196,0.7836,-0.221,0.2087,0.3101,-23.6775,18.8125,-13.6237,56.46215190585518,6.334941041786771,0.8442754830481459,12.987832004436694
0.0797,0.5234,0.7807,-0.221,0.2087,0.3101,-22.225,17.7275,-13.2388,56.17580210394667,5.840050223746525,0.23849795083332734,13.0
0.0771,0.5284,0.781,-0.2191,0.2108,0.3053,-21.2012,16.1175,-13.1162,55.93211265834935,5.393535528980236,1.0185674240137248,13.012091549647197
0.0819,0.5292,0.7796,-0.2191,0.2143,0.3132,-20.6063,15.47,-13.7287,55.83630509977416,5.390008069438529,0.4716906788161323,13.024292813340661
0.0791,0.532,0.7873,-0.2165,0.2143,0.3132,-20.2038,15.3475,-14.2975,55.94578972869782,5.163264925238978,0.6718591990227998,13.036453376662124
0.0778,0.5218,0.7894,-0.2162,0.213,0.3143,-19.3113,15.3475,-15.2337,56.50154883423921,4.885641812546297,1.3146676010314224,13.048646500281185
0.0695,0.5176,0.7955,-0.2162,0.213,0.3143,-18.1212,14.805,-16.9487,56.92231095508974,4.353858553467573,2.1129080559006024,13.060813788011934
0.0595,0.5122,0.796,-0.2149,0.213,0.3176,-17.15,14.2012,-17.08,57.21950535706862,3.771162325613702,2.178076739287984,13.07292834221722
0.0544,0.5071,0.8024,-0.2132,0.2178,0.3214,-15.7762,12.4775,-17.4737,57.67332113201727,3.3837620263731716,3.600460428325741,13.082371182437823
0.0495,0.5042,0.8037,-0.2132,0.2178,0.3214,-12.425,10.0625,-17.535,57.877052800324435,3.0693742910445674,4.0196649017016375,13.094636151061376
0.0439,0.5125,0.8023,-0.211,0.2183,0.3171,-11.515,8.7412,-18.2962,57.47547572482778,2.717385716722506,3.9408637487093343,13.106746104355045
0.0495,0.5176,0.8086,-0.211,0.2183,0.3171,-9.9312,7.7962,-19.215,57.387994071832054,2.915334335904792,3.875760716439717,13.118656802784047
0.0528,0.5214,0.8125,-0.2094,0.2197,0.3187,-8.7325,7.4637,-18.9175,57.32172170458482,3.0956807545749356,3.88735133105213,13.130753661175419
0.0564,0.5244,0.808,-0.2094,0.2197,0.3187,-8.5225,6.3612,-18.2875,57.0606982651566,3.304941249228875,3.402687869938776,13.142758147418162
0.0516,0.5185,0.8029,-0.2094,0.2211,0.3202,-7.4288,5.5388,-18.6112,57.131388824324816,3.126829476434183,3.612251197060507,13.154834124749117
0.0482,0.5141,0.8025,-0.2084,0.2191,0.3186,-5.285,4.3225,-18.6637,57.29330789991026,2.9343124576466564,3.77962966516006,13.164138583704915
0.0389,0.5126,0.7922,-0.2084,0.2191,0.3186,-4.4713,3.8063,-18.3137,57.1658613618729,2.4635942011557392,3.379333286703719,13.176160057929016
0.0367,0.5205,0.786,-0.2083,0.22,0.3189,-3.4388,3.3075,-18.4713,56.87270941166809,2.2702408249434844,2.5466180466561377,13.188206306292596
0.0393,0.5367,0.7868,-0.2083,0.22,0.3189,-2.9838,1.8375,-18.0862,56.59891997193499,2.3455586685239704,1.6797213998939122,13.200312720423481
0.0414,0.5506,0.7812,-0.2074,0.2222,0.3196,-1.0412,0.4812,-17.9112,55.49647750811475,2.4542993145196266,0.819417334529659,13.212359322703339
0.0475,0.5573,0.7767,-0.2073,0.2189,0.3182,-1.015,0.0088,-18.1562,54.773937813785494,2.7725852220808465,0.771545711790451,13.221613171631345
0.0494,0.5561,0.7695,-0.2073,0.2189,0.3182,-1.295,-0.5688,-18.0338,54.4089559602218,2.9396641219895,1.984639903058968,13.233737635492423
0.0554,0.5527,0.7713,-0.2073,0.2202,0.3178,-1.4612,-0.735,-18.6637,54.39046659648328,3.2736027641645347,1.9312158606230898,13.245863868934892
0.0536,0.5487,0.764,-0.2073,0.2202,0.3178,-1.3212,-0.6913,-19.6,54.34662257813835,3.2631736834845704,1.9889085273431866,13.257962850823935
0.0551,0.5499,0.7603,-0.2055,0.2217,0.321,-2.1,-0.4638,-18.5762,54.26463847596937,3.343963576204242,2.3933458432319443,13.270019362759584
0.0576,0.5549,0.7613,-0.2058,0.22,0.3196,-2.5988,-0.7437,-17.6312,54.23850292227139,3.4671856390790534,2.970335578455785,13.282154798025289
0.0612,0.5564,0.7712,-0.2058,0.22,0.3196,-2.7825,-0.6038,-16.7388,54.23400346727122,3.6284992763743746,2.816818708970195,13.294271121811965
0.0702,0.5528,0.7694,-0.2052,0.2213,0.3186,-3.0275,-0.6212,-16.2663,54.25195098453748,4.06511193220555,2.3150672918438557,13.306364794956833
0.0722,0.543,0.7673,-0.2052,0.2213,0.3186,-2.9663,-0.875,-15.4875,54.35506553859593,4.27326806198552,1.5275500995308333,13.315845858135491
0.0769,0.5406,0.7687,-0.2049,0.2224,0.3193,-1.9775,-0.0875,-15.0762,54.572547810193946,4.505008212932054,1.0303651757568868,13.327815660582964
0.0795,0.5458,0.7697,-0.2049,0.222,0.3199,-2.1613,0.5775,-15.6887,54.60212361058897,4.710651723035983,1.120341449253996,13.339859785448873
0.0788,0.5524,0.7646,-0.2041,0.222,0.3199,-2.7475,1.225,-15.4612,54.57329887149501,4.751601658534892,1.342790778638096,13.351936116696105
0.0745,0.5556,0.7649,-0.2054,0.2208,0.3175,-2.8525,1.855,-14.9187,54.489460605382945,4.618463062574474,1.9158271100399806,13.364011032278226
0.0612,0.553,0.7639,-0.2054,0.2208,0.3175,-2.0913,1.7675,-14.5775,54.344791027237974,4.204993972311594,2.092430180319153,13.376039938744169
0.0618,0.5516,0.7621,-0.207,0.2214,0.3206,-2.9925,1.855,-13.3962,54.287158357498434,4.091463956638148,2.3799306885371205,13.385312899151202
0.069,0.5524,0.7558,-0.207,0.2214,0.3206,-2.8875,1.1287,-12.6525,54.2095753350124,4.155956843330858,2.4689174277359256,13.397398432221669
0.078,0.5514,0.7634,-0.2062,0.2191,0.3159,-2.4763,0.6212,-11.8387,54.20115684886128,4.535137345751052,2.4558280878928036,13.409479010464242
0.085,0.5528,0.7587,-0.2078,0.2193,0.3174,-3.29,0.4288,-11.13,54.09541156461346,4.996814802366213,2.7400630388273246,13.421510394344134
0.0897,0.5502,0.7623,-0.2078,0.2193,0.3174,-3.0013,0.5513,-11.165,54.11594574239108,5.323343555351641,2.717217305515183,13.433513464921765
0.0927,0.5392,0.765,-0.2087,0.221,0.3174,-3.0013,1.575,-11.83,54.28817854721951,5.541878965093559,2.0220318480171384,13.4455522810435
0.0914,0.5366,0.7696,-0.2087,0.221,0.3174,-3.2113,2.7388,-13.0812,54.57510420132703,5.550726289620769,0.7993261549998726,13.455211718026407
0.0919,0.5339,0.7735,-0.2074,0.2222,0.3225,-4.2875,3.15,-12.9675,55.074553055585646,5.565462661633768,0.33264702257704887,13.466977310781315
0.0899,0.5314,0.7768,-0.2066,0.219,0.3241,-3.3163,2.94,-13.2388,55.28859871049773,5.529158282657438,0.6142115747882606,13.478973656949659
0.0841,0.5269,0.7759,-0.2066,0.219,0.3241,-2.8525,3.43,-13.545,55.36723915942107,5.463875420450059,0.394198496540208,13.491046802950386
0.0721,0.528,0.7708,-0.2069,0.2204,0.3178,-2.835,3.1675,-14.5513,55.39714711037261,4.9921329897274624,0.3681678022262463,13.50311888720228
0.0627,0.5419,0.7701,-0.2069,0.2204,0.3178,-2.275,1.995,-15.435,55.2445964854562,4.247795069270204,0.22400601632651504,13.51248457367422
0.0676,0.547,0.7694,-0.2056,0.2211,0.3148,-1.4,0.7437,-15.9075,54.87685921346869,4.143779249252964,0.33201967990846604,13.524527282875017
0.0709,0.5507,0.766,-0.2056,0.2211,0.3148,-2.2575,-0.0875,-16.3625,54.701841432699055,4.255356697435856,0.883544969838825,13.53655654325724
0.0711,0.5496,0.7682,-0.2055,0.2194,0.3143,-2.1875,-0.2975,-16.8,54.608516156819384,4.292570892404601,1.2034413511266469,13.54865977214162
0.0737,0.5492,0.7707,-0.2048,0.2202,0.3171,-2.2488,-0.7962,-16.8437,54.58380984126019,4.413972401678179,1.423288525767978,13.560760523612055
0.0777,0.5437,0.7699,-0.2048,0.2202,0.3171,-2.9838,-1.0587,-16.8787,54.62741375415645,4.640567921681538,1.1464390137454117,13.572888172719637
0.0783,0.5388,0.7724,-0.2052,0.2214,0.3183,-3.6925,-0.8838,-16.3362,54.86614806693742,4.7216015481762375,0.5073700480113748,13.584962026552923
0.078,0.5369,0.7738,-0.2052,0.2214,0.3183,-3.7625,-0.6563,-17.465,55.06328232630992,4.731638249464015,0.09512719697234433,13.594366643815471
0.0798,0.5356,0.7774,-0.2067,0.2211,0.3102,-3.22,-0.735,-18.2962,55.1936506578618,4.813722023269432,1.2435703503933664,13.606422094002287
0.0782,0.533,0.7763,-0.2064,0.221,0.3183,-3.4038,-0.3763,-18.4538,55.333694381213974,4.7588417780647445,0.9077803291323601,13.618653794495682
0.075,0.5343,0.7796,-0.2064,0.221,0.3183,-2.5638,-0.455,-19.0225,55.35861971932921,4.572459867507756,0.8254236569410407,13.63065084849658
0.079,0.5331,0.7749,-0.2036,0.2202,0.3194,-2.0475,-0.7263,-18.5325,55.40311869275589,4.761659679839526,0.381789558532833,13.642732488487988
0.0788,0.5336,0.7677,-0.2036,0.2202,0.3194,-1.4175,-0.3588,-18.76,55.28884821555664,4.808443856760941,0.1295606040965978,13.654860845428127
0.0811,0.5363,0.7713,-0.206,0.2221,0.3166,-1.0675,-0.28,-18.5062,55.22683682535146,4.912295756994875,0.24804836275211156,13.666988494535708
0.0828,0.5393,0.7652,-0.205,0.2214,0.3166,-0.9363,-0.07,-17.8937,54.97117754093579,5.026932317819114,0.13166139152678832,13.679100925243326
0.0878,0.5419,0.7668,-0.205,0.2214,0.3166,-1.2512,0.49,-17.395,54.84171088102113,5.274428009195974,0.3137185819697983,13.688399013706116
0.1013,0.5359,0.7698,-0.2064,0.2208,0.3167,-1.2163,0.8225,-16.695,55.02843912925186,5.939266891649869,0.24404113487169787,13.700428981920894
0.1085,0.5267,0.7687,-0.2064,0.2208,0.3167,-0.8838,2.0388,-16.2225,55.38378013164708,6.439990665888797,0.44177005450387596,13.712467444126352
0.1028,0.5222,0.7669,-0.2041,0.2182,0.319,-0.9625,3.1675,-15.925,55.614009193783566,6.359362646768546,0.3391406251182124,13.724537758796854
0.0951,0.5261,0.7706,-0.2041,0.2182,0.3157,-0.1575,4.6638,-16.2575,55.659877798819494,5.972943030643091,0.676123892635503,13.736567373095355
0.0822,0.5301,0.7707,-0.2031,0.2211,0.3157,0.07,5.5125,-16.0912,55.52737557507611,5.3055399454657035,1.0290459916951769,13.745804941874558
0.0718,0.5389,0.7756,-0.2018,0.22,0.3166,0.875,5.4775,-15.82,55.27795534172361,4.658241727917346,0.193534830849038,13.757815090777756
0.0471,0.5463,0.766,-0.2018,0.22,0.3166,1.6887,5.2937,-16.765,54.64826288188178,3.310873787244614,1.1642626827459033,13.76983161017396
0.0391,0.5527,0.7581,-0.2041,0.2209,0.3149,1.8987,3.7362,-18.1125,54.03885360499715,2.558452198367352,1.875247192496972,13.781840343412043
0.0419,0.5602,0.7606,-0.2041,0.2209,0.3149,2.1088,2.6775,-20.1863,53.69854890757685,2.5422444630915795,2.4020074106378178,13.793787849133984
0.0468,0.571,0.7684,-0.2002,0.2216,0.3118,1.2862,1.5662,-22.6187,53.44724441187984,2.772777055820126,2.457345441167446,13.80303957456432
0.053,0.579,0.765,-0.201,0.2202,0.3213,0.0088,0.4462,-23.1963,53.03329408975895,3.124731163195776,3.7012348670305935,13.815070604527934
0.0523,0.5815,0.7704,-0.201,0.2202,0.3213,-0.5862,-0.5075,-23.52,52.97990719875316,3.1036524970119013,4.889208738588139,13.827190467477394
0.0489,0.565,0.7679,-0.1978,0.2222,0.3146,-2.1175,-1.505,-20.93,53.222773409553355,2.9566889143037747,3.1084609811128896,13.839305729515237
0.039,0.5546,0.7637,-0.1978,0.2222,0.3146,-2.5463,-3.5788,-21.9888,53.315272560717546,2.429995902307023,1.866801036330924,13.85135127004626
0.0411,0.5549,0.7591,-0.1988,0.2227,0.3151,-2.9488,-4.4975,-22.12,53.42536863569879,2.49503957765176,1.9311363728947442,13.863483873981737
0.045,0.5613,0.7614,-0.1988,0.2227,0.3151,-2.9838,-5.0487,-22.2687,53.4667694449314,2.6996463348783393,2.3786411768964335,13.87283681946766
0.0568,0.5666,0.764,-0.1991,0.2222,0.3134,-2.87,-5.2413,-22.6975,53.46223682402171,3.345338577929181,2.633289178935309,13.884966592072912
0.0647,0.5654,0.7648,-0.1986,0.2234,0.3156,-3.5963,-5.145,-22.4787,53.49240472549118,3.8355474084606853,2.6526325641563657,13.897033013664354
0.0669,0.5502,0.7596,-0.1986,0.2234,0.3156,-3.3688,-4.4275,-22.6275,53.733557798235154,4.055143750844336,1.6055681010023053,13.909128456390613
0.0675,0.5461,0.7646,-0.1982,0.2222,0.3172,-3.0188,-3.1238,-22.7237,53.91896257215229,4.103643027688032,1.2741112414829363,13.921248319340073
0.0668,0.5452,0.7685,-0.1982,0.2222,0.3172,-2.5988,-2.3712,-22.5837,53.972946901901324,4.060074530241981,0.8900660003136568,13.933376322363934
0.0696,0.545,0.7706,-0.1965,0.225,0.3199,-2.9663,-1.7413,-22.1462,54.142053964819425,4.200676092370654,0.4923093915119878,13.945424694225183
0.0666,0.5444,0.7714,-0.1984,0.2234,0.3162,-1.9075,-0.7875,-21.21,54.42345379972361,4.054480567164633,0.13091495673893247,13.957509165546815
0.0528,0.5405,0.766,-0.1984,0.2234,0.3162,-1.54,0.28,-20.3612,54.62006010082942,3.3325029982115066,0.04247714999485406,13.966864234530407
0.0463,0.5435,0.7666,-0.1954,0.2232,0.3151,-0.84,0.7,-19.3288,54.64873222661193,2.8983355117396066,0.04495960992517573,13.978921100382335
0.0369,0.5525,0.7596,-0.1954,0.2232,0.3151,-0.455,1.7413,-18.41,54.1801770040598,2.3640625687658274,0.6674374330074528,13.990970180076141
0.0354,0.5597,0.756,-0.1958,0.2254,0.311,0.2362,1.7325,-17.4562,53.66317935259221,2.1995008871479222,0.9004557563307901,14.002937505109665
0.0335,0.5693,0.7626,-0.1952,0.2222,0.3185,1.2862,0.91,-13.7812,53.33939699807114,2.1917451106502397,1.221926916366892,14.01495614800354
0.043,0.5727,0.7625,-0.1952,0.2222,0.3185,-0.28,0.4288,-12.6875,53.163691735900315,2.3914845533940157,2.407287349296336,14.02430343082901
0.0551,0.5764,0.7588,-0.1976,0.2233,0.3159,-0.525,0.1225,-11.9612,52.900940846823595,2.978698123686003,3.324808766432126,14.036368790671615
0.058,0.5716,0.7592,-0.1976,0.2233,0.3159,-1.7062,-0.0263,-11.4712,52.96161446102273,3.3352036611077485,3.5823246963193283,14.048377877825976
0.0604,0.568,0.7564,-0.1979,0.2234,0.313,-1.6712,-0.0263,-12.3287,53.029156810521826,3.5213697907292123,3.324254135260138,14.060510835677732
0.0615,0.5649,0.7605,-0.1979,0.2234,0.3127,-2.6163,-0.105,-12.5562,53.05071331370745,3.625840390146472,2.81379809737529,14.072639192617872
0.0632,0.5611,0.7594,-0.1976,0.2225,0.3127,-2.5463,-0.7,-12.635,53.10803778525036,3.732541706718741,2.484821310694666,14.08476365647895
0.0637,0.5612,0.7589,-0.1968,0.2222,0.3155,-2.1263,-1.015,-13.6062,53.25373741007241,3.7474015208981446,2.831506952895299,14.096876087186567
0.0672,0.5658,0.7603,-0.1968,0.2222,0.3155,-2.0825,-0.4725,-14.0437,53.28750282499055,3.8197906234871217,3.1843261462518906,14.106172052151686
0.0729,0.5612,0.7585,-0.2013,0.2232,0.313,-2.8,-0.6212,-13.8337,53.31077352699778,3.8725130162086128,2.6060710582637494,14.118284128943024
0.0705,0.5569,0.7549,-0.2013,0.2232,0.313,-3.43,-0.385,-14.7087,53.42766708460159,4.0821266035396,2.2893195810581166,14.130421333790121
0.072,0.5561,0.7559,-0.1984,0.2209,0.3131,-3.0538,0.1575,-14.7,53.49070373049372,4.231885366818745,2.42650897899107,14.142533764497736
0.0717,0.5547,0.7572,-0.198,0.2208,0.3146,-2.9225,0.5425,-14.945,53.546334117744955,4.306450386875583,2.501197926459751,14.154492949456861
0.0703,0.5541,0.7605,-0.198,0.2208,0.3146,-3.255,0.8312,-14.665,53.68398812049922,4.290219426693206,2.469306178560591,14.16654769181112
0.07,0.5538,0.7637,-0.1975,0.2232,0.3156,-3.01,0.7,-14.1487,53.77555317205419,4.2766607353973445,2.2440917508760814,14.175858875176205
0.0652,0.5538,0.7578,-0.1975,0.2232,0.3156,-3.1675,0.6737,-13.9125,53.79692836122372,4.231442176990009,2.185643465297058,14.187960334479195
0.0706,0.5558,0.7657,-0.1968,0.2225,0.321,-2.835,0.9975,-14.63,53.8277433278422,4.2483922822546765,2.207478034976089,14.200024278656688
0.0695,0.5555,0.7682,-0.1985,0.2226,0.3153,-2.275,0.7962,-14.105,53.91429936016868,4.233483040340923,2.069653641922177,14.211986294946039
0.0641,0.5529,0.7677,-0.1985,0.2226,0.3153,-1.4612,0.6737,-14.6125,54.09228313359464,4.06664197856964,1.844796159040987,14.224085984667639
0.0576,0.5489,0.7737,-0.2024,0.2221,0.3155,-1.1025,0.735,-14.9625,54.4312515450633,3.7406750413996885,1.5288977969187625,14.23612373904054
0.0576,0.5466,0.776,-0.2024,0.2221,0.3155,-1.365,-0.3063,-15.3475,54.66326331529276,3.57533429309122,0.6746547307085013,14.245486948098531
0.0471,0.5494,0.7768,-0.1986,0.2222,0.3135,-1.1638,-0.525,-14.9187,54.703307261630435,3.173815262524853,0.18902094106044712,14.257574958582946
0.0334,0.556,0.7681,-0.1986,0.2229,0.317,-0.7437,-1.4175,-15.8812,54.30591803929256,2.385168451252304,1.2246151199867514,14.269674294388267
0.0184,0.5694,0.7712,-0.1978,0.2229,0.317,-0.6825,-3.7888,-16.3537,53.80923044651804,1.4550635406984724,2.4450825652745145,14.281776107607536
0.0082,0.5788,0.7831,-0.1988,0.2219,0.315,-1.4088,-7.0875,-17.3687,53.6537766480417,0.6924528410071834,2.5576261072386233,14.2939072958779
0.0222,0.5739,0.7867,-0.1988,0.2219,0.315,-2.31,-10.01,-18.655,53.71720453320923,1.2023091654545444,1.9753623699506053,14.306093695087677
0.0358,0.5567,0.7843,-0.2007,0.222,0.3172,-3.9988,-12.985,-19.3025,54.23805961104117,1.9901360676860356,0.8694798106313928,14.318211788455745
0.0368,0.5389,0.7885,-0.2007,0.222,0.3206,-4.2438,-14.9012,-20.0725,55.099122947302256,2.1770906836329424,0.6409544963298448,14.330402788577139
0.0405,0.5228,0.7878,-0.2031,0.2229,0.3206,-3.5175,-16.6688,-21.4988,55.706572822551564,2.421301670910632,2.494069015921203,14.342514865368477
0.0392,0.5112,0.7938,-0.2042,0.2222,0.3178,-2.3275,-17.8062,-22.015,56.099809629557214,2.382181076211715,4.385751570045217,14.351980710147169
0.047,0.511,0.7948,-0.2042,0.2222,0.3178,1.7237,-20.2125,-23.7825,57.04676872257145,2.805462134283853,4.642448982024853,14.364036160333983
0.0553,0.5123,0.7913,-0.2045,0.2236,0.3146,3.1588,-22.1637,-23.7737,57.07543764583972,3.3073367265281273,5.237010736524535,14.376172303432243
0.0611,0.5175,0.788,-0.2045,0.2236,0.3146,5.425,-23.6688,-23.9487,56.746631392323664,3.6724757004117667,4.561429765787921,14.388264206995721
0.0696,0.528,0.7866,-0.2038,0.2232,0.3182,7.7175,-24.0187,-23.9312,56.182991424311844,4.1544618219756915,2.688730316871213,14.400389732605634
0.0783,0.5378,0.7815,-0.2079,0.2214,0.3178,9.1437,-23.59,-24.0012,55.52160215832927,4.668256665484989,0.8037681392849563,14.412529768782955
0.0948,0.53,0.7918,-0.2079,0.2214,0.3178,10.3162,-23.905,-24.7012,56.1544909930701,5.597224996884448,2.3863927640527396,14.424652109146363
0.0985,0.52,0.7909,-0.2074,0.2202,0.3174,11.76,-23.4587,-24.22,56.642153262918946,5.9111072742767785,3.275067621318397,14.43686080508167
0.106,0.5157,0.783,-0.2074,0.2202,0.3174,13.5975,-22.5837,-24.4475,56.6309606121407,6.404326050031141,3.2766505472305445,14.446227553302446
0.108,0.5184,0.7792,-0.2102,0.2186,0.3202,15.5662,-21.8925,-24.675,56.37812473734023,6.5677649740153035,1.685944819239852,14.45841395251222
0.1066,0.5262,0.7751,-0.2114,0.2182,0.3147,18.305,-20.545,-24.6662,55.85321091175699,6.497977001756905,1.3123893685360464,14.470546910363977
0.1069,0.5356,0.758,-0.2114,0.2182,0.3147,20.8337,-19.7313,-24.6575,54.79991095772811,6.564168034444394,1.0585383504405312,14.482729062578414
0.1121,0.5464,0.7449,-0.2114,0.2174,0.3103,22.225,-19.705,-24.4212,53.78010973405934,6.888385105421551,2.7868531921643016,14.49488290149059
0.1102,0.5662,0.7441,-0.2114,0.2174,0.3103,23.975,-19.4075,-24.395,52.769704205201265,6.736056523488755,5.027984905261248,14.507031785574867
0.1089,0.5824,0.7338,-0.2125,0.2142,0.3054,26.0137,-16.7562,-23.31,51.60246679401102,6.640459392944152,7.35295761766626,14.519194472393998
0.1045,0.5989,0.7301,-0.213,0.21,0.3056,26.355,-17.08,-23.3187,50.67013127003492,6.345573663927757,10.258099546169435,14.531349726971287
0.0939,0.6059,0.7227,-0.213,0.21,0.3056,26.5737,-17.675,-21.7787,50.045430638790705,5.758963943436979,11.356403304699457,14.543540019260123
0.0928,0.5952,0.7202,-0.2158,0.2071,0.3046,26.0925,-18.3925,-21.5163,50.415545725761525,5.6821066135437,10.931501945871169,14.555717570562942
0.0936,0.588,0.714,-0.2158,0.2071,0.3046,26.2062,-19.425,-21.0,50.52379265257897,5.766685854499892,10.763778006829385,14.567777975577652
0.1005,0.5897,0.7099,-0.2145,0.2055,0.3032,27.86,-19.2237,-20.9125,50.29184787730037,6.16010310585384,11.55827550666891,14.577295138216693
0.1063,0.5947,0.7064,-0.2167,0.2031,0.2975,27.8075,-19.7575,-20.5012,49.919064074633276,6.51447580564259,11.733903656067552,14.589439067473077
0.1195,0.6001,0.7036,-0.2167,0.2031,0.2975,29.4525,-20.2912,-20.615,49.55062557982168,7.255419847176451,12.791852647873123,14.601616618775894
0.1241,0.5955,0.7004,-0.2188,0.1998,0.291,30.66,-20.2912,-20.44,49.62561627486451,7.631673348622724,12.088317691199293,14.613824960794924
0.1276,0.5908,0.699,-0.2188,0.1998,0.293,30.9837,-20.2038,-21.1225,49.79036255657924,7.900529156650408,12.263430190268425,14.625943761995549
0.1355,0.5936,0.7007,-0.2222,0.1976,0.293,32.8037,-19.915,-21.1225,49.73194814757358,8.334622638852538,12.87681464789892,14.638060439698505
0.1377,0.5887,0.6955,-0.2224,0.1935,0.2849,36.1375,-19.1187,-21.2887,49.753486560019034,8.56319976952207,12.198111109604385,14.650232328340872
0.1412,0.5891,0.6928,-0.2224,0.1935,0.2849,38.3338,-18.9263,-21.7787,49.62796290638684,8.79664196928577,12.506713776362732,14.662462613169152
0.1398,0.5929,0.6868,-0.2235,0.1925,0.2819,40.6263,-18.76,-21.3762,49.20638206477909,8.763608738196409,12.800208443461283,14.674546730574509
0.1353,0.5985,0.6762,-0.2235,0.1891,0.277,42.4113,-19.1275,-21.7262,48.503760621428356,8.548213840980623,13.694803653937633,14.686701985151796
0.1351,0.6024,0.6723,-0.2246,0.1891,0.277,45.01,-19.3638,-21.5687,48.14624926934436,8.515925051858027,14.254045579870246,14.698852638817465
0.152,0.616,0.6572,-0.2236,0.185,0.2702,47.1362,-20.335,-21.2625,46.87885285031517,9.45362263336394,16.534188086665136,14.708284153717164
0.1481,0.6256,0.6453,-0.2236,0.185,0.2702,50.2687,-21.2625,-20.5888,45.90642661642194,9.369442176101295,18.11843672207876,14.720451441447914
0.1548,0.64,0.6329,-0.2254,0.1811,0.2647,52.675,-21.1925,-21.175,44.70217360602183,9.712322973235516,19.75977548356493,14.732642087653028
0.1576,0.6547,0.6248,-0.2288,0.1758,0.2604,53.2,-21.28,-20.6675,43.67962636876233,9.85775261252099,21.140263683279894,14.744795926565203
0.1642,0.6658,0.6155,-0.2288,0.1758,0.2604,54.8187,-21.3325,-19.95,42.76775303273887,10.208238324279995,22.76868686173109,14.757023733979537
0.176,0.6782,0.5892,-0.2298,0.1712,0.2486,55.6325,-21.0613,-19.1012,41.01322979874391,10.94652674959461,23.94732487259602,14.76914076559877
0.1779,0.6848,0.5731,-0.2298,0.1712,0.2486,56.91,-21.3937,-18.4713,39.94346629721858,11.211207212563973,25.534172020969773,14.781268414706354
0.1816,0.6971,0.5655,-0.2298,0.1681,0.24,59.2462,-20.5625,-19.8537,39.06378852166835,11.40542233092929,25.4218528934305,14.793450213004512
0.1797,0.7083,0.555,-0.23,0.1639,0.2359,60.515,-20.0987,-20.3787,38.09636142216949,11.30815570198473,26.18186732603918,14.805612899823643
0.1778,0.7156,0.5497,-0.23,0.1639,0.2359,61.4775,-20.1513,-22.0412,37.53895355028299,11.1640586474734,26.76408505964285,14.817787265879957
0.1679,0.7268,0.5197,-0.2322,0.1604,0.2239,62.0638,-20.335,-23.5987,35.59674902483257,10.690609449157927,26.282121788290983,14.827187636147167
0.1655,0.7349,0.5034,-0.2322,0.1604,0.2239,62.8512,-20.3,-24.7362,34.42862423327793,10.538891081812993,27.40896967760206,14.839342890724454
0.1669,0.7491,0.494,-0.2327,0.1561,0.2167,64.3913,-21.2537,-26.32,33.41823943473916,10.536667632820341,27.410134527200753,14.851508054957534
0.1663,0.7565,0.4831,-0.2317,0.1512,0.211,64.6363,-21.7,-27.4225,32.57478286201022,10.499074322685724,27.662965857215422,14.863678881851067
0.1645,0.7674,0.4712,-0.2317,0.1512,0.211,65.6338,-21.8312,-28.0963,31.565587387143612,10.361792944284863,28.529532924546896,14.875781048986614
0.1751,0.7898,0.4626,-0.2294,0.1504,0.199,65.2925,-22.4088,-28.9188,30.375774394718338,10.801039523248107,27.76508656734239,14.887958246373154
0.1854,0.8032,0.4489,-0.2294,0.1504,0.199,65.5375,-23.0125,-28.3412,29.217345467972475,11.354279036670476,29.11121122546546,14.900136151592251
0.1915,0.8084,0.429,-0.2298,0.1476,0.1888,65.975,-23.135,-27.86,27.972042328279304,11.787851097283696,28.476354933342776,14.9123197194718
0.1867,0.8111,0.4162,-0.2271,0.1447,0.1822,65.0388,-21.1575,-27.8162,27.175497037239126,11.587969206877789,28.104731097658842,14.924505764765298
0.1838,0.8172,0.4048,-0.2271,0.1447,0.1822,64.89,-20.5538,-28.8137,26.363530427183154,11.406921547918818,28.657006232608634,14.936630582542653
0.1667,0.8201,0.3797,-0.2294,0.1415,0.171,64.015,-19.5037,-30.1175,24.86622455824691,10.50611608141062,26.91327666290797,14.948805302515247
0.1599,0.8201,0.3679,-0.2294,0.1415,0.171,64.3388,-19.2413,-30.5637,24.17155240051708,10.110656847521994,27.175493723682706,14.95843040961916
0.1533,0.8233,0.3549,-0.2262,0.1403,0.1636,63.875,-19.3113,-29.9337,23.332042540730246,9.726937826333751,26.485774455845696,14.97041330696893
0.1529,0.8286,0.3395,-0.2265,0.1392,0.1502,64.9688,-20.3437,-29.3825,22.295571024354622,9.69210570946276,24.283312624220773,14.982501671369624
0.1593,0.8396,0.3289,-0.2265,0.1392,0.1502,65.8875,-20.125,-29.33,21.40496443107823,9.998932448240222,24.974715336694203,14.994793183714046
0.1642,0.8608,0.2986,-0.2259,0.1351,0.1426,67.025,-19.635,-29.3563,19.163137904764497,10.202999357255825,25.279822619207962,15.006838016412512
0.1673,0.8746,0.2883,-0.2259,0.1351,0.1426,66.7975,-19.1187,-29.6712,18.257141665675782,10.291186785439729,25.922156170305087,15.01903644877575
0.1693,0.891,0.2745,-0.2224,0.1356,0.1338,66.2988,-18.095,-29.4,17.13926735252859,10.292072764406681,25.04244737098193,15.031128706255505
0.1734,0.9065,0.2634,-0.2209,0.1333,0.1211,66.5613,-17.0625,-28.42,16.215521299776317,10.401086783633712,22.93062124163203,15.043332093446638
0.1735,0.9187,0.2508,-0.2209,0.1333,0.1211,63.1312,-14.7262,-25.9263,15.283527860332876,10.331044989518324,23.4016458819087,15.055522031819196
0.1774,0.9536,0.2196,-0.2217,0.1326,0.1155,60.6987,-13.5712,-24.5263,13.004248681801851,10.280106098443229,23.488482133717998,15.067670561987196
0.178,0.9632,0.2072,-0.2217,0.1326,0.1155,58.3187,-11.7862,-22.5487,12.15418399277347,10.2450100773561,23.981568473445744,15.079857315113252
0.1721,0.9659,0.1994,-0.2208,0.131,0.1074,55.9388,-10.6837,-21.5163,11.672477433023785,9.93773988732652,22.447362218281707,15.089234326906094
0.1703,0.9628,0.184,-0.221,0.1302,0.103,51.975,-9.4937,-19.6087,10.834626454403136,9.867848810449864,21.790338002605328,15.101343218450928
0.1648,0.9618,0.168,-0.221,0.1302,0.103,49.7175,-7.6563,-18.34,9.925390129568488,9.631900949057647,22.16800390162443,15.113480777214303
0.1577,0.9726,0.152,-0.2182,0.1297,0.0943,48.1338,-6.6413,-17.22,8.902585123102043,9.21969643555402,20.928913708686455,15.125576219940562
0.1549,0.9742,0.1412,-0.2182,0.1297,0.0943,46.7513,-6.0637,-16.73,8.25998875065761,9.012011192569975,21.091987242850248,15.137621760471585
0.1524,0.974,0.1286,-0.219,0.1294,0.0884,45.0537,-5.2937,-16.6163,7.536576011633557,8.867681872611183,20.090169376227923,15.149761088816351
0.1537,0.9816,0.1197,-0.2209,0.1287,0.0783,43.5488,-5.5563,-16.4587,6.964903085939794,8.843616743334433,17.834113012701227,15.161891215337882
0.1511,0.9945,0.1065,-0.2209,0.1287,0.0783,41.5975,-4.6638,-17.4913,6.131279890166335,8.643991328578707,17.930029161572158,15.173944542027026
0.1565,1.0164,0.1058,-0.2192,0.1282,0.0749,38.3162,-3.7625,-17.605,5.947171541102022,8.69409238803604,17.43432636726458,15.183527179177547
0.1598,1.0214,0.0997,-0.2192,0.1282,0.0749,35.0962,-3.8325,-16.8875,5.5846409520359,8.812860685259892,17.564526156608594,15.195461589997192
0.1655,1.0269,0.0965,-0.2172,0.1281,0.0703,26.1187,-4.5675,-13.3,5.375697675363556,8.905008299856002,16.840580256344143,15.207529427253746
0.175,1.0308,0.0997,-0.2172,0.1281,0.0694,24.0362,-4.7425,-11.7425,5.5191505465267525,9.362169031213575,16.533870260828113,15.219631240473015
0.1845,1.0302,0.0939,-0.2191,0.1281,0.0694,20.7287,-4.2525,-11.095,5.220717370900922,9.906476555914391,16.633446546746416,15.231781540222407
0.1895,1.0317,0.0979,-0.2205,0.1276,0.0633,17.1588,-3.2725,-10.6662,5.411079653478703,10.250400109122731,15.14038663145369,15.243862826297535
0.1789,1.0129,0.0908,-0.2205,0.1276,0.0633,13.5275,-2.6075,-11.235,5.139278827891758,10.055190189623616,14.949798343851022,15.2559695943447
0.1756,1.0003,0.0965,-0.2226,0.1274,0.057,10.4825,-2.1788,-11.4888,5.484130712088232,9.955787758634878,13.280845443040041,15.265315461505056
0.1687,0.9913,0.0958,-0.2226,0.1274,0.057,8.3475,-2.6688,-12.6175,5.516986877337271,9.775334520620607,12.823529717717241,15.277402056324359
0.1727,0.983,0.1009,-0.2219,0.1259,0.0618,7.07,-3.5875,-14.5075,5.828631262768077,9.835403581796315,13.738109715985933,15.289497499050619
0.1701,0.977,0.0994,-0.2211,0.1254,0.0592,5.4775,-4.025,-15.5925,5.811397668564126,9.829759586299824,13.367564219490404,15.301459869256247
0.1812,0.9667,0.108,-0.2211,0.1254,0.0592,5.18,-4.2525,-16.87,6.311084689198328,10.377455061018354,13.12382363031677,15.313540093582542
0.1851,0.9616,0.1006,-0.2226,0.1277,0.0585,3.8937,-4.2613,-17.815,6.0171287378499745,10.747269885752809,13.066568201207112,15.32560085251353
0.1897,0.9575,0.101,-0.2226,0.1277,0.0585,3.4563,-4.41,-18.34,6.020857518492892,11.074877509778652,13.08211421475046,15.334911681962337
0.1923,0.9531,0.1014,-0.2213,0.1283,0.0582,1.6275,-3.7275,-18.8738,6.0630404475639255,11.300697712385052,13.080452967849784,15.346935633600387
0.2008,0.9528,0.1052,-0.2208,0.1256,0.055,1.4175,-2.2662,-19.9937,6.253977407900442,11.75786071412505,12.396322728310098,15.358973741889566
0.1988,0.9521,0.1079,-0.2208,0.1256,0.055,1.0325,-1.4,-19.95,6.420726160121716,11.726167607117661,12.158428890836674,15.371052550550747
0.1929,0.9552,0.1127,-0.2186,0.1262,0.0564,-0.6038,-0.5163,-19.46,6.628736708408331,11.397923167986672,12.270654145902174,15.38317772224438
0.1896,0.952,0.1094,-0.2186,0.1262,0.0564,-2.5725,2.2575,-17.4037,6.621687696025926,11.236009238936958,12.357995235341825,15.39517052924994
0.1936,0.947,0.1121,-0.2194,0.1268,0.0552,-2.1875,2.8438,-16.345,6.664263947548326,11.409542786748554,12.09129320032104,15.404696893712217
0.1862,0.939,0.1141,-0.2194,0.1268,0.0566,-3.29,3.4125,-14.8575,6.764365309477133,11.265099917343191,12.14553152238428,15.41656406043899
0.1807,0.9313,0.1116,-0.2178,0.1265,0.0566,-3.9463,4.095,-13.9562,6.80290402047113,11.200284820111055,12.256456942135502,15.428595444318882
0.1835,0.9335,0.1095,-0.2174,0.1293,0.057,-3.465,4.34,-12.6612,6.753322895350902,11.120891578565649,12.439536117878996,15.440679915640516
0.1906,0.9506,0.1127,-0.2174,0.1293,0.057,-3.3688,4.7688,-11.8475,6.756554406710719,11.212459869323643,12.478365936891104,15.452691126292546
0.1915,0.9583,0.11,-0.2188,0.1282,0.0558,-3.9113,5.0313,-11.6812,6.641493204779553,11.223514533033514,12.266289432630698,15.461973288522813
0.1892,0.9603,0.1158,-0.2188,0.1282,0.0558,-4.5062,6.0462,-12.4337,6.793019866522202,11.135281261241621,12.013816983587429,15.47404678843982
0.188,0.9613,0.1163,-0.2202,0.1285,0.057,-5.2238,6.16,-12.5825,6.868552695495881,11.056057120815554,12.159178726624685,15.486134091091678
0.1856,0.96,0.1165,-0.2206,0.1262,0.0556,-6.5275,6.9825,-13.125,6.908792114739046,10.983288621125162,11.834219894493362,15.49816759846924
0.1814,0.9567,0.1245,-0.2206,0.1262,0.0556,-6.9125,7.5513,-13.4575,7.317880148079083,10.910187652524485,11.473810658030452,15.51020570675842
0.1865,0.9492,0.1273,-0.2198,0.1263,0.0566,-7.0262,7.3413,-13.09,7.578562349080635,10.953222974072265,11.640040896444583,15.522270712684747
0.1823,0.9462,0.1311,-0.2198,0.1263,0.0566,-7.42,7.4725,-13.0025,7.834389804860134,10.890257347624784,11.486936149875065,15.53157658730566
0.1854,0.9435,0.1291,-0.221,0.1297,0.058,-7.84,7.6038,-12.9062,7.798420015831439,10.947775126400616,11.760444519954985,15.543655749883118
0.1808,0.9434,0.1371,-0.2205,0.1275,0.0574,-7.8313,7.945,-13.2912,8.192217487350204,10.883361077884803,11.404273094861235,15.55563404632127
0.1823,0.9396,0.1366,-0.2205,0.1275,0.0574,-7.525,8.3212,-12.985,8.258159683548582,10.87700047214996,11.377106368269407,15.56773338212659
0.1777,0.9374,0.1421,-0.2218,0.1258,0.0573,-8.1988,8.5925,-12.8887,8.564343379563647,10.756996124744248,11.090358171235984,15.5797856470669
0.1764,0.9384,0.1446,-0.2218,0.1258,0.0573,-8.47,7.9363,-13.6588,8.731126128255454,10.74014492758108,10.963900395950438,15.591843928583941
0.1763,0.9357,0.1463,-0.2222,0.1258,0.0526,-8.5925,7.9275,-13.7112,8.86398323249924,10.73522982001176,9.694140825754035,15.601219878627951
0.1781,0.9372,0.152,-0.2222,0.1258,0.0526,-8.5925,7.4288,-13.8687,9.161930939241289,10.722319509959293,9.358796967101018,15.613469982767816
0.1745,0.9334,0.1525,-0.2213,0.1274,0.0609,-9.1087,7.4113,-14.9713,9.263302793254617,10.573967837783288,11.280905053638767,15.625207262220464
0.1707,0.9273,0.1579,-0.2204,0.1272,0.0602,-8.5925,7.2975,-15.2075,9.605698340317664,10.402312415770272,11.17289599541527,15.637266959402616
0.169,0.9231,0.161,-0.2204,0.1272,0.0602,-8.2512,7.2013,-15.7675,9.849769566358322,10.282663662967158,11.01630825771593,15.649356031635868
0.164,0.9208,0.1679,-0.2206,0.1273,0.0618,-8.0675,7.42,-15.5137,10.25809000685899,10.06232592786492,11.07571029923519,15.658595723912741
0.1607,0.9193,0.1646,-0.2206,0.1273,0.0618,-7.9713,6.6413,-15.0762,10.168188931639015,9.891138088158897,11.162487195825053,15.670674532573923
0.1552,0.9198,0.1613,-0.2207,0.1281,0.0561,-7.35,5.8013,-15.6012,9.985584351871317,9.594969258837553,9.888157971684855,15.68272927492818
0.1545,0.9226,0.1627,-0.2231,0.1259,0.063,-6.72,5.1275,-16.0475,9.998141138370215,9.434288186970033,11.152467242671053,15.694843829133466
0.1536,0.9254,0.1728,-0.2231,0.1259,0.063,-7.1663,4.8562,-16.0037,10.471538368969005,9.318100279187126,11.087898372638227,15.706827080399513
0.1508,0.9354,0.1675,-0.2242,0.1276,0.0622,-5.6438,3.29,-17.1937,10.232763414343477,9.084635790025512,10.998971905268247,15.718846077209667
0.1531,0.937,0.1688,-0.2242,0.1276,0.0622,-5.2238,2.7125,-17.8412,10.218047941374785,9.125340384374233,10.961476729061538,15.72815549099336
0.1563,0.9355,0.1742,-0.2194,0.1277,0.0645,-5.5825,1.855,-17.92,10.463675179500594,9.288668834049098,11.2710963998898,15.74022262041736
0.1531,0.9359,0.1698,-0.2194,0.1277,0.0645,-4.69,1.7675,-18.1825,10.343200672587978,9.170402853070895,11.492083160817753,15.752285856762295
0.1546,0.9366,0.1675,-0.2198,0.1288,0.0743,-4.9963,1.6712,-18.5937,10.200898270797365,9.21913503312105,12.685944019240658,15.7642942360841
0.1556,0.9378,0.1703,-0.2188,0.1297,0.063,-5.2675,1.6275,-17.185,10.266959856887995,9.259933467740508,12.181047192012118,15.776342961861626
0.1587,0.9342,0.1714,-0.2188,0.1297,0.063,-5.46,1.225,-16.7562,10.362292533529944,9.42964917336732,12.036978358180455,15.788414338280964
0.1576,0.9317,0.1704,-0.2199,0.1279,0.0649,-5.4338,1.1987,-15.5925,10.363811805147854,9.44097272633521,12.011921056214826,15.797732246055338
0.1584,0.93,0.1703,-0.2199,0.1279,0.0649,-5.7225,1.1638,-15.2163,10.373690595593096,9.48264876364916,11.99472313833924,15.80973248530274
0.1633,0.9287,0.172,-0.2183,0.1283,0.0647,-5.3025,1.1725,-14.49,10.45977132491048,9.622950643386503,11.978314885096738,15.821774486670982
0.166,0.9312,0.1749,-0.2174,0.128,0.0577,-5.5738,1.6275,-14.0612,10.591858359740051,9.69993299317899,11.179791416779905,15.833861081490284
0.169,0.9326,0.1757,-0.2174,0.128,0.0577,-5.6087,2.38,-14.175,10.649633108037866,9.820998664086481,10.41492615394938,15.84593493532357
0.167,0.9315,0.1775,-0.22,0.1281,0.065,-5.74,2.3625,-14.21,10.754333768444631,9.874636283042054,11.142923928516444,15.85794189898026
0.1655,0.9287,0.1826,-0.22,0.1281,0.065,-5.8013,2.8,-14.5162,11.033980049148125,9.893785842811653,11.33812536256866,15.86730970894987
0.1613,0.9309,0.173,-0.2183,0.1294,0.0681,-4.9612,2.8263,-14.875,10.682042521763952,9.773548725865497,12.231306879669361,15.879314195192613
0.1613,0.929,0.1749,-0.2183,0.1294,0.0681,-4.5588,2.8263,-14.98,10.669024865817514,9.723437506395834,12.493321508128465,15.89135690439341
0.157,0.9235,0.1846,-0.2174,0.1292,0.0674,-3.71,2.0738,-16.1087,10.991355210192106,9.541367596304028,12.252435538886107,15.903440313966207
0.1528,0.9213,0.1796,-0.2186,0.1253,0.065,-3.6925,1.715,-15.7412,11.011313230235661,9.344304817207512,11.987030847662178,15.915484792748396
0.1527,0.9314,0.1848,-0.2186,0.1253,0.065,-3.2813,0.9538,-15.1112,11.09065397502475,9.223525812010397,11.950003597120263,15.924778634215846
0.1562,0.9394,0.1888,-0.2189,0.1274,0.0659,-3.2987,0.5338,-15.295,11.195198712153237,9.244962025271745,11.807009621377977,15.936851426300297
0.1542,0.9402,0.1883,-0.2189,0.1274,0.0659,-3.9638,-0.0438,-14.3675,11.268285145736725,9.202735125348076,11.660010743767906,15.948942268114939
0.1557,0.9303,0.1902,-0.2178,0.129,0.0682,-4.3838,-0.6913,-13.5012,11.4489325097211,9.223609468569917,11.894885964803613,15.961044435250486
0.1511,0.9168,0.1828,-0.2156,0.1282,0.0664,-4.095,-1.68,-14.4375,11.347737832916382,9.206205889945341,11.869629426767467,15.973110502925648
0.1487,0.9044,0.1833,-0.2156,0.1282,0.0664,-2.9838,-3.2638,-14.8662,11.373330668873729,9.178555115742803,11.756725006747628,15.985237798116952
0.1549,0.9013,0.1803,-0.2205,0.1286,0.0647,0.7,-4.2875,-16.8262,11.326297177871776,9.471122200462997,11.223894046096325,15.997310236285124
0.1588,0.9105,0.1734,-0.2205,0.1286,0.0647,1.9075,-4.7863,-17.675,10.879894465495084,9.671281840449323,11.468702692598947,16.00660903258047
0.1637,0.9203,0.1711,-0.2195,0.1294,0.0665,3.7713,-5.5037,-19.1712,10.578736217777344,9.880987141864331,12.1449290437899,16.018638646878973
0.1685,0.9348,0.1651,-0.2166,0.1298,0.0684,3.3688,-5.1013,-20.1688,10.095865207467941,10.040639097011503,13.172734863901336,16.03083318616315
0.1735,0.9432,0.1704,-0.2166,0.1298,0.0684,3.0713,-4.27,-21.56,10.219231302515405,10.235540376225435,13.217005860012282,16.04275804124328
0.1726,0.9589,0.1604,-0.2161,0.1299,0.065,2.3712,-3.395,-21.6737,9.61573375062678,10.08577791502806,12.841779999095111,16.054830125495172
0.1665,0.9592,0.1579,-0.2161,0.1299,0.065,1.5925,-2.5288,-21.455,9.398777347185755,9.761196479559596,12.801569087722283,16.066820455086788
0.1605,0.9564,0.1563,-0.2135,0.1298,0.0672,0.56,-1.9425,-21.07,9.309192096269534,9.446819422401525,13.38180625828012,16.076115712219348
0.1583,0.9501,0.1535,-0.2135,0.1298,0.0672,-0.3325,-2.0913,-19.8275,9.21686332376416,9.35544804460356,13.573909985580142,16.088251147485053
0.1574,0.9461,0.1513,-0.2124,0.1298,0.0717,-1.5662,-1.82,-18.585,9.147829921517662,9.333695665050614,14.67233455135731,16.100352960704324
0.1575,0.9436,0.1488,-0.2143,0.1286,0.0633,-2.24,-1.2775,-18.025,9.090963570656736,9.357050510903077,13.268994407802632,16.112474593235174
0.1621,0.9428,0.152,-0.2143,0.1286,0.0633,-2.345,-0.7,-18.0163,9.107876033356376,9.581314518965955,12.83125109233256,16.124576052538163
0.1636,0.9414,0.1538,-0.214,0.1292,0.0617,-2.4063,0.0175,-17.115,9.14445838136189,9.697662703639011,12.437933380508987,16.136627609645917
0.1621,0.947,0.1573,-0.214,0.1292,0.0617,-3.2987,0.735,-16.205,9.254070145228837,9.617109227597506,12.3194935916171,16.145934192099386
0.1608,0.945,0.1573,-0.2129,0.1276,0.0598,-2.625,1.4262,-16.0825,9.264119375020831,9.554802669735253,12.077089730298985,16.15800450676989
0.1591,0.9434,0.1579,-0.2129,0.1294,0.0649,-2.5463,2.2662,-15.2862,9.291937777597187,9.487249905150126,12.491632839438502,16.17005641779392
0.1545,0.9381,0.1635,-0.2129,0.1294,0.0649,-2.3013,2.1788,-13.4225,9.454961003549515,9.42231071835589,12.503950485239425,16.18206550494828
0.1445,0.9249,0.1581,-0.2134,0.1302,0.0641,-3.0275,2.8612,-13.0113,9.518361140853132,9.141568767959104,12.348974655760053,16.194139358781566
0.1391,0.9239,0.1597,-0.2134,0.1302,0.0641,-2.1963,3.64,-12.4162,9.612288070699046,8.741549016320091,12.192352903777989,16.20619905596372
0.1394,0.9242,0.1638,-0.2142,0.1294,0.0598,-1.7762,3.36,-12.1538,9.82014985053682,8.561472958618692,11.16659886789036,16.21549466701256
0.138,0.9256,0.1633,-0.2142,0.1298,0.0646,-0.7613,2.415,-11.4537,9.9419771301982,8.416333216429202,11.702676788298284,16.227529590055237
0.138,0.9301,0.1621,-0.2132,0.1298,0.0646,-0.0438,2.0913,-10.5612,9.90164790681994,8.339960540749647,11.972115788713593,16.239662193990714
0.1389,0.9366,0.1584,-0.2154,0.1279,0.0633,0.56,2.0125,-10.395,9.67052398000635,8.323956869698566,11.98396590406179,16.251602267470812
0.1421,0.9417,0.1576,-0.2154,0.1279,0.0633,0.8487,1.9075,-10.3162,9.538284041826753,8.433137234828585,12.032450576512389,16.26361241637401
0.1407,0.9468,0.1488,-0.2161,0.1271,0.0626,0.5513,1.5925,-10.1325,9.075018878987708,8.369298830497028,12.10599923474029,16.27285069298577
0.1412,0.9514,0.1496,-0.2161,0.1271,0.0626,0.1225,0.6563,-9.4587,8.972667104519886,8.346194542245915,12.14005175775787,16.28472847720089
0.1481,0.9547,0.1502,-0.2168,0.132,0.0605,-0.3063,0.3588,-8.4525,8.950305827013189,8.654098675729525,11.878619408041434,16.296728008615737
0.1541,0.9593,0.1556,-0.2178,0.1293,0.0626,-0.8487,-0.0963,-8.0675,9.120329919852416,8.956745771845608,11.935233152246493,16.308843978486138
0.158,0.9601,0.1562,-0.2178,0.1293,0.0626,-2.1438,-0.945,-8.19,9.162243167759039,9.18488354891374,11.98208551276397,16.32086297529629
0.1647,0.9565,0.1526,-0.2195,0.1285,0.0622,-2.765,-0.49,-8.1988,9.154501590227916,9.579086781298837,12.001949732967518,16.330133104373097
0.1654,0.9492,0.1575,-0.2195,0.1285,0.0622,-3.3163,0.1138,-8.5925,9.258321943462425,9.725455644403267,11.902844323732822,16.34215387076464
0.1643,0.9432,0.1574,-0.2224,0.1275,0.0604,-3.57,0.5075,-8.6975,9.360017570056723,9.745322796821917,11.636946154264088,16.35414632385392
0.162,0.9375,0.1525,-0.2224,0.1275,0.0604,-4.1825,0.665,-8.68,9.287451515821138,9.690055854233828,11.539023294447981,16.366163197166404
0.1671,0.9359,0.1576,-0.2219,0.1263,0.0566,-3.5963,0.42,-9.1875,9.41718094423167,9.932253605960842,11.000075671241252,16.37540465902467
0.1693,0.9334,0.1639,-0.2219,0.1274,0.0637,-3.2375,0.9887,-10.045,9.611472436504766,10.08694932662448,11.031664960212229,16.387856495443152
0.1725,0.9315,0.1582,-0.2219,0.1274,0.0637,-3.3163,0.2888,-9.6862,9.622102079575637,10.29518406309181,11.476122947243445,16.399419648086887
0.1771,0.9325,0.1584,-0.2231,0.1257,0.062,-3.7362,-0.175,-9.1612,9.631598562526415,10.54953731033459,11.56446927542341,16.411477221771374
0.1783,0.9338,0.1607,-0.2231,0.1257,0.062,-2.0213,-0.0963,-9.9575,9.684335472618729,10.634486526277716,11.565137731197144,16.42356452442323
0.1829,0.9338,0.1599,-0.2242,0.1275,0.0642,-2.0563,0.1575,-9.2487,9.696811267626618,10.87361361609895,11.829099245365486,16.43545965053599
0.1876,0.9331,0.1551,-0.2255,0.1268,0.0622,-2.0825,0.5075,-9.2312,9.599906637089294,11.155327750017538,11.80517722719602,16.44476764865457
0.1921,0.9343,0.1582,-0.2255,0.1268,0.0622,-2.1263,0.8663,-9.905,9.603652885835048,11.396839571106836,11.788970050152452,16.456761517408967
0.1925,0.9337,0.1543,-0.2267,0.1254,0.0622,-2.38,1.3037,-10.8937,9.553034475130898,11.471444207538417,11.796587314087624,16.468829708581797
0.2034,0.9314,0.1537,-0.2267,0.1254,0.0622,-3.2113,2.4237,-11.3925,9.489625545031814,11.953737436721948,11.888637217074361,16.480784292629306
0.2013,0.929,0.1499,-0.2263,0.1261,0.0636,-3.8588,2.3538,-12.1538,9.314476545111239,12.027811510749073,12.21841054342975,16.49288115102068
0.2028,0.9303,0.1457,-0.2263,0.1261,0.0636,-3.2375,3.01,-13.2737,9.166337982371022,12.067792295916986,12.509321928803724,16.50221569286013
0.2098,0.9338,0.1446,-0.2259,0.1258,0.063,-3.5875,3.7625,-12.9937,8.99308630258839,12.259824493881176,12.618083615740785,16.514293085856195
0.2192,0.9343,0.1467,-0.2271,0.126,0.0617,-3.01,3.885,-12.985,8.975776186738551,12.598694368470065,12.333802396884517,16.526328008898872
0.2217,0.9339,0.1382,-0.2271,0.126,0.0617,-3.4388,4.9088,-13.02,8.73477862722235,12.85629757970125,12.546134854622778,16.53834559004391
0.224,0.9321,0.1444,-0.2294,0.1262,0.063,-3.8063,5.8187,-13.4488,8.772628141890344,12.968865853437919,12.587607905043804,16.55046155991431
0.2272,0.9315,0.1484,-0.2294,0.1262,0.063,-5.145,7.0262,-13.6237,8.971319958024973,13.027305304596538,12.488675357266388,16.562408711719975
0.2283,0.9287,0.1523,-0.2263,0.1252,0.0638,-4.8738,7.8225,-15.2075,9.206184960943702,13.389495813265732,12.735669358498924,16.57179811058256
0.2187,0.9253,0.1474,-0.2282,0.1248,0.0629,-5.9675,9.1962,-15.0587,9.087299969346489,13.246518377023582,12.507076528439535,16.583867363504226
0.2117,0.9205,0.1521,-0.2282,0.1248,0.0629,-6.8775,9.415,-16.1875,9.325766964395921,12.918284401988293,12.22737604795565,16.59581805447267
0.1993,0.9143,0.1524,-0.2259,0.1248,0.063,-6.1775,9.1175,-17.7537,9.43275739265371,12.290874777056448,12.18761617992954,16.60805966462186
0.1853,0.9161,0.1573,-0.2259,0.1248,0.063,-5.8013,8.68,-20.0112,9.667762963733555,11.414041188138198,11.881670731737904,16.619974256129918
0.1821,0.9285,0.1588,-0.227,0.1258,0.0601,-5.355,8.5575,-24.5263,9.695097117265822,10.981325388696705,11.019095425076069,16.629279069001996
0.1792,0.9407,0.1648,-0.227,0.1258,0.0601,-4.9875,8.1988,-25.7162,9.863701497991608,10.654610256840437,10.742297498276043,16.64134301317949
0.1731,0.9481,0.1746,-0.223,0.1245,0.0626,-5.0487,7.4113,-26.3725,10.265150173281148,10.214203439046349,11.195792975593069,16.653366964817536
0.1649,0.9493,0.172,-0.221,0.1268,0.0619,-5.005,6.5887,-26.0487,10.268393560898524,9.738158754685864,11.127138348370265,16.665398702613707
0.1526,0.9355,0.1742,-0.221,0.1268,0.0619,-5.3025,5.46,-25.9525,10.471032305315173,9.158135171902673,10.888409848851149,16.677475387777218
0.1249,0.9117,0.1688,-0.2186,0.1269,0.0634,-3.9375,4.34,-25.2787,10.481296391005884,7.790479274385481,11.115946498570395,16.68949084542459
0.1209,0.9135,0.1674,-0.2186,0.1269,0.0634,-2.94,2.87,-25.1387,10.461216159068767,7.447183648136665,11.179155752674212,16.698874581626722
0.1258,0.9244,0.1729,-0.2174,0.1302,0.0646,-1.6887,1.365,-25.0075,10.527383832103906,7.60512612450431,11.22431976496236,16.71087411304157
0.1257,0.9393,0.1687,-0.2152,0.1306,0.063,-1.61,0.0875,-24.4037,10.348875207370591,7.512257908717428,11.251848579571028,16.722939118967897
0.1303,0.9484,0.1726,-0.2152,0.1306,0.063,-1.575,-0.3763,-23.4325,10.330794439709457,7.680598801800006,11.234538220396292,16.735032792112765
0.1285,0.9521,0.1596,-0.2166,0.1293,0.0625,-1.8637,-1.0325,-21.7437,9.964864252602926,7.592891504554657,11.466387138235811,16.747109831192553
0.1239,0.954,0.1629,-0.2166,0.1293,0.0625,-2.24,-0.7525,-20.9125,9.881043025193406,7.331783553258383,11.43402922787495,16.759239957714083
0.1224,0.9511,0.1635,-0.2126,0.1296,0.0699,-3.2813,-0.7613,-19.67,9.833344426176001,7.243296440750293,12.851718781397594,16.771300716645072
0.1123,0.949,0.1582,-0.2126,0.1296,0.0699,-3.3775,-0.9887,-18.62,9.681557185329632,6.757229344119841,13.437220767173853,16.78071630531225
0.1064,0.945,0.1582,-0.2152,0.1288,0.0668,-4.095,-1.3475,-16.17,9.577261800410241,6.4591123723718775,12.889362289967586,16.792807501043168
0.1013,0.94,0.1626,-0.2146,0.1302,0.0641,-4.9,-1.82,-13.265,9.740391806476758,6.331596646861459,11.972427854686963,16.804882770541568
0.0875,0.9434,0.1642,-0.2146,0.1302,0.0641,-5.0838,-1.9512,-7.9888,9.834403871563696,5.385536487623207,11.602988063063604,16.8169509617144
0.0858,0.9415,0.1685,-0.2146,0.129,0.0653,-5.0313,-3.0275,-3.9988,10.053603950677072,5.150211067814206,11.648261053677066,16.82904852793833
0.0881,0.9337,0.1663,-0.2146,0.129,0.0653,-4.9175,-3.745,1.1812,10.08496269465094,5.297334048490482,11.706699491683977,16.841039565362497
0.088,0.9328,0.168,-0.2188,0.1288,0.0669,-4.34,-5.4513,6.6238,10.162816236466819,5.304132336405679,11.827876543854945,16.850295537788174
0.0854,0.9317,0.162,-0.2218,0.126,0.0653,-4.4538,-6.0288,12.4337,9.971513606268491,5.165426110890925,11.606154186191134,16.86230143969603
0.0808,0.9394,0.1637,-0.2218,0.126,0.0653,-4.3137,-6.895,17.815,9.91790373015904,4.853303548994195,11.525888605477785,16.874340609734045
0.0608,0.9475,0.1819,-0.231,0.1227,0.0667,-5.1887,-7.5425,24.3425,10.596842607390572,3.637821210526515,10.873314626331025,16.886847657091934
0.064,0.939,0.1823,-0.231,0.1227,0.0667,-5.0575,-8.925,31.1937,10.871437080504023,3.823722866050593,10.766171552960737,16.898419657642627
0.08,0.9196,0.1832,-0.2383,0.1214,0.0683,-4.2175,-10.9637,39.48,11.111053748247897,4.85712161768891,10.824101181974367,16.907794192021523
0.0937,0.8971,0.1667,-0.2517,0.1203,0.0647,-3.115,-12.6437,46.27,10.933604371484016,5.84665024964175,10.018388378863623,16.919921841129106
0.0892,0.8965,0.1608,-0.2517,0.1203,0.0647,-1.9425,-13.4312,52.9375,10.609202073208287,5.597175616119168,10.111786085215536,16.932047720655298
0.1088,0.9112,0.1687,-0.2626,0.1173,0.0693,-1.7762,-14.8662,59.3425,10.552174192559285,6.6814747818494835,10.734354289518418,16.944149179958288
0.1373,0.9204,0.1653,-0.2626,0.1173,0.0693,-2.1525,-16.87,66.3863,10.424354682478452,8.332179453080302,11.110942437697108,16.956215955466007
0.1764,0.9134,0.1734,-0.2826,0.1119,0.07,-1.7413,-18.3487,74.5413,10.581512486817903,10.716353127927837,10.672987390901733,16.96833546449919
0.227,0.9018,0.1765,-0.2826,0.1119,0.0684,-2.5463,-20.0637,81.06,10.639166544071132,13.843088349651639,10.561818586616022,16.980431615058006
0.2763,0.8844,0.166,-0.299,0.109,0.0684,-2.9663,-21.455,84.4725,10.637255807726495,17.036752723315914,10.641630143155059,16.99254227618423
0.3157,0.8695,0.1597,-0.3173,0.106,0.0723,-3.22,-20.6238,80.7625,10.55656949879171,19.624707422788465,11.298552571011802,17.0018732788609
0.3579,0.8611,0.1652,-0.3173,0.106,0.0723,-2.7388,-15.155,75.9063,10.573720804056048,22.176194978550782,11.554160307139254,17.014034196098642
0.3627,0.8584,0.1678,-0.3314,0.1052,0.067,-3.3338,-13.0637,72.3363,10.766432649420736,22.518902708765552,9.99126456043451,17.026119729169107
0.3477,0.8441,0.1612,-0.3314,0.1052,0.067,-3.0275,-11.8212,70.7438,10.778144816165616,22.034287180495358,9.915909774433418,17.038236406872063
0.4388,0.8308,0.1635,-0.3486,0.1042,0.0706,-2.6338,-10.5,66.8063,10.793480467338,27.328615625213107,10.784856552139622,17.05033291134716
0.4411,0.836,0.1596,-0.3637,0.1039,0.0718,-2.5813,-8.9512,62.0725,10.79479223299835,27.395540243177244,10.721228968898705,17.062445342054776
0.4814,0.828,0.1631,-0.3637,0.1039,0.0718,-2.905,-7.3763,59.8237,10.859092587931436,29.671201338014143,10.991947876660793,17.07439178602788
0.4834,0.8217,0.1554,-0.377,0.1028,0.0706,-1.61,-7.735,56.5687,10.781702782909399,30.024860136539992,10.61680809512844,17.083920627904106
0.5245,0.8051,0.1431,-0.377,0.1028,0.0706,-1.0762,-7.7088,52.9813,10.348745583689942,32.63771085838528,11.300029858893955,17.095817169681975
0.5161,0.7893,0.1523,-0.391,0.102,0.0719,-1.4262,-5.285,51.4412,10.667155046874036,32.70062457558683,10.910035382030824,17.107832273413067
0.51,0.7995,0.1405,-0.401,0.1034,0.0739,-2.4588,-4.0338,48.2475,10.540862005350279,32.14886040595808,11.10762532601134,17.119905065497516
0.4998,0.7781,0.1308,-0.401,0.1034,0.0739,-2.7738,-2.52,46.7513,10.45432187460516,32.34875455423339,11.297886610300836,17.132041562512057
0.492,0.7702,0.1385,-0.4122,0.1033,0.0742,-1.855,-1.575,46.0425,10.33680579241681,32.161158810968494,10.91517302202607,17.141263912891294
0.5054,0.7578,0.139,-0.4122,0.1033,0.0742,-2.4063,-2.0913,44.17,10.349052916369319,33.24560853169623,10.921553175922835,17.153323256157172
0.5003,0.7405,0.1444,-0.423,0.1048,0.0709,-2.0038,-2.5988,43.9863,10.625262802121304,33.54453030762308,10.00495835036348,17.165325972818522
0.5051,0.7402,0.1341,-0.423,0.1048,0.0693,-2.2662,-3.9288,43.2687,10.521107903069453,33.87373081389236,9.829141917411452,17.177369743768153
0.5175,0.7361,0.1239,-0.4352,0.1049,0.0693,-0.7875,-5.9063,41.755,9.888763646174693,34.71748597537227,9.880432217230009,17.18946624824325
0.5077,0.7222,0.1322,-0.4456,0.1059,0.073,1.0237,-7.2188,41.8688,10.270225140635882,34.66484092409073,9.966990574733098,17.201474981481333
0.5303,0.7195,0.1283,-0.4456,0.1059,0.073,1.0062,-8.1287,42.245,10.144682308562748,35.9416025796916,10.306127517272087,17.210667602893196
0.5643,0.7342,0.1459,-0.4587,0.1079,0.0732,0.6388,-9.2137,42.315,10.985843761780338,36.99211476145744,9.842459040841062,17.222658286401085
0.5755,0.7282,0.1311,-0.4587,0.1079,0.0732,-1.7937,-11.1825,41.1512,10.619571318929264,37.85997960181711,10.339775015155665,17.23481035573187
0.5946,0.725,0.1393,-0.4649,0.1106,0.0746,-1.9075,-11.9875,39.095,10.73130446958443,38.8298229895508,10.407177805806603,17.246885979146548
0.5934,0.7206,0.1293,-0.4765,0.1095,0.0716,-3.5613,-12.5562,37.3537,10.46938175228977,39.02223177270526,9.89319488045685,17.258960186896108
0.5816,0.7058,0.1181,-0.4765,0.1095,0.0716,-2.905,-11.8125,36.2513,10.290477553885104,39.10024733963536,10.10964214321509,17.271105885733885
0.5705,0.6952,0.1155,-0.4873,0.111,0.0713,-3.9288,-11.3837,35.3937,9.814073905621623,38.993409641955594,9.80485215812021,17.28044715198262
0.5898,0.6897,0.1198,-0.4873,0.111,0.0713,-2.6688,-12.1538,35.805,9.814472422478968,40.093233054896494,9.872659031663963,17.292585064662276
0.5984,0.6892,0.1261,-0.4974,0.11,0.067,-1.8288,-13.0288,35.4113,10.069034773428752,40.49170477958436,8.809754759478533,17.30470421977918
0.6148,0.6899,0.1206,-0.507,0.1138,0.0696,-1.7587,-14.1225,35.4025,9.995489875211156,41.26202859402131,9.265247634433443,17.31676427087761
0.6295,0.6833,0.1223,-0.507,0.1138,0.0696,-2.1088,-15.3562,35.77,10.05072034723761,42.184776751881316,9.41169434061744,17.328868915427105
0.6159,0.6627,0.1154,-0.5125,0.1159,0.0718,-4.6112,-15.8463,35.5075,9.937042623762183,42.47144232462077,9.835216580790517,17.34099408712074
0.6213,0.665,0.1205,-0.5125,0.1159,0.0718,-5.6175,-16.0912,36.1287,10.186002796598052,42.590405927219734,9.737533494147076,17.353123859725994
0.6252,0.6413,0.0955,-0.5242,0.1209,0.0732,-4.13,-17.0538,36.7675,9.170115185700793,43.931111543975945,10.721096802918133,17.362419116858554
0.6323,0.6245,0.1121,-0.5338,0.1213,0.0678,-4.6725,-17.5263,38.2725,9.840268342644597,44.883033364088895,9.107335617218443,17.374549597296365
0.6523,0.6298,0.1244,-0.5338,0.1213,0.0678,-0.7175,-18.6112,37.7737,10.723236151383867,45.44642200555765,8.743550480615324,17.386696357882972
0.6814,0.6251,0.1117,-0.5447,0.1241,0.0686,-1.7413,-18.0163,37.2487,10.436814129844272,46.98839502633491,9.460361550025983,17.398773043046486
0.6961,0.6185,0.1121,-0.5447,0.1241,0.0686,-2.695,-17.8675,36.155,10.43422105453174,47.89976955618594,9.690356418378812,17.41090210781918
0.7116,0.622,0.1044,-0.5528,0.1257,0.067,-1.75,-17.9463,35.1487,9.99782662831543,48.43798580025215,9.67361074538837,17.42297277640596
0.7138,0.6039,0.0973,-0.5528,0.1257,0.067,-2.7213,-17.4737,34.23,9.963463474823829,49.38544724926422,10.140532721148986,17.435097594183315
0.7174,0.5919,0.1006,-0.5607,0.129,0.0656,-2.4237,-16.1963,33.7313,9.898892316767508,50.060008692407905,9.653329478892216,17.4472740837373
0.7209,0.5763,0.0929,-0.5695,0.1324,0.0673,-2.3187,-15.61,32.76,9.702515989769529,50.98178632961472,10.30869452047865,17.45658031227449
0.7331,0.5511,0.0874,-0.5695,0.1324,0.0673,-1.5137,-14.0087,31.465,9.330696376083234,52.686290393089664,11.077451382310395,17.468650273028715
0.7433,0.5496,0.0883,-0.5795,0.1354,0.0639,-0.0438,-12.9237,29.96,9.183233622058971,53.1600776818265,10.219478717188029,17.48076022632238
0.7653,0.553,0.0827,-0.5795,0.1354,0.0639,1.1462,-12.9412,28.8312,8.645905516187314,53.83132100973416,10.769765250076608,17.492873010946276
0.7661,0.5358,0.0855,-0.5873,0.1361,0.0596,-0.0263,-11.62,27.3175,8.95135299525568,54.67205541496186,9.649438494760705,17.504942617784224
0.7649,0.5322,0.0869,-0.5928,0.1395,0.0634,0.3237,-10.7187,26.355,9.193144667647376,54.812971735046375,10.245229756300303,17.517016825533787
0.7783,0.5204,0.0745,-0.5928,0.1395,0.0634,0.1312,-10.9375,24.955,8.421612663792866,55.93382600043197,11.471001026699202,17.526263950052506
0.7881,0.5147,0.0789,-0.6014,0.1421,0.0628,0.9625,-10.7712,25.2175,8.651953327848437,56.53118512243847,11.141224912590841,17.538334972555564
0.7903,0.5119,0.073,-0.6014,0.1421,0.0628,-0.07,-9.765,24.15,8.264507581037256,56.796989990961954,11.612228241023942,17.550393254072603
0.7962,0.5118,0.0636,-0.6087,0.1468,0.0595,-1.0237,-10.0012,23.5025,7.528399193216065,57.059892724371245,11.445586967237988,17.56249754470582
0.81,0.5039,0.0704,-0.6174,0.149,0.0615,-0.77,-9.1612,22.6975,7.807249681220392,57.84387693735715,11.588860964798691,17.574588032604183
0.8265,0.4967,0.0717,-0.6174,0.149,0.0615,-0.42,-9.275,21.8312,8.089230980101695,58.709658147522156,11.926168269453962,17.58659428842832
0.8433,0.4781,0.0633,-0.6214,0.1492,0.0588,-1.015,-8.68,20.3525,7.747450852928176,60.19184695473534,12.522984461936607,17.59586937233302
0.8441,0.4798,0.0637,-0.6214,0.1492,0.0588,0.1225,-7.8575,17.395,7.611205351494765,60.17056532004383,12.518964028045355,17.60793614784074
0.8385,0.4733,0.0623,-0.6261,0.151,0.0561,-0.3675,-6.8338,15.0062,7.5326582565912386,60.33997799209001,11.799132345250348,17.619989474529884
0.8367,0.467,0.0619,-0.6261,0.151,0.0561,-0.4725,-5.6,13.6325,7.544893374398796,60.60947729855615,11.8538555000709,17.631967417051758
0.8393,0.4657,0.0655,-0.6294,0.1544,0.0618,-0.0613,-5.1712,11.4888,7.878573393640342,60.73199218711472,13.174744089358265,17.644026052485078
0.8484,0.4656,0.0673,-0.6346,0.1575,0.0578,0.6212,-5.285,9.3013,8.14431074387462,60.980781814532236,12.095788759378346,17.653232830548074
0.8738,0.4566,0.0519,-0.6346,0.1575,0.0578,1.2163,-5.1975,6.7987,6.823777557136749,62.2002839968975,14.340162026215339,17.665179628437457
0.8714,0.4506,0.0519,-0.6346,0.1582,0.0573,-0.315,-4.515,4.2263,6.645695094665022,62.48630520371984,14.66101383699156,17.677129611573346
0.8586,0.441,0.0516,-0.6346,0.1582,0.0573,-2.1963,-3.0363,1.75,6.654795125987659,62.64488306155749,14.757177292410464,17.689148608383498
0.8492,0.4366,0.0472,-0.639,0.1598,0.0614,-0.4112,-2.6425,-0.1575,6.318480753320092,62.654595848644426,16.257482680612416,17.701195564579635
0.848,0.443,0.0527,-0.6435,0.1591,0.0546,0.6475,-2.6688,-2.0475,6.676490012694702,62.28338349762069,13.65207498061868,17.710450121340198
0.8527,0.4427,0.0521,-0.6435,0.1591,0.0546,0.8663,-2.8263,-3.1763,6.704257240852576,62.391146106470764,13.258481639559212,17.72248575221543
0.8599,0.4353,0.0475,-0.6438,0.1601,0.0546,1.435,-2.45,-4.935,6.320715105423696,62.95009429049489,14.050340761076308,17.73441697778857
0.8453,0.4341,0.0492,-0.6438,0.1601,0.0546,1.2775,-2.2488,-6.4488,6.43684132239038,62.70253837473839,13.76724836215058,17.746495078617194
0.8413,0.4353,0.0425,-0.6442,0.1619,0.0538,0.1837,-1.54,-7.4375,5.799111078532065,62.5547259387745,14.071944680673596,17.758365076674192
0.8357,0.4368,0.0422,-0.6442,0.1619,0.0538,0.7788,-1.5925,-9.8962,5.581307970728237,62.34914632195434,14.026083504739745,17.76770457334154
0.8355,0.4337,0.0455,-0.6452,0.1634,0.0498,-0.0263,-2.0213,-11.0513,5.877428540295831,62.41402301853986,12.672116316973831,17.779760377444635
0.8389,0.4363,0.043,-0.644,0.163,0.0528,0.9538,-2.59,-13.5712,5.682364357984118,62.413191780739794,13.480331718801708,17.79181759721284
0.8346,0.4412,0.0398,-0.644,0.163,0.0528,0.4375,-2.1,-14.5687,5.282821779728331,62.24438041312026,13.73082671756251,17.803869508236872
0.8221,0.4311,0.0392,-0.6458,0.1631,0.0517,0.2713,-1.47,-15.6275,5.217700626643085,62.23553330752926,13.56121657946706,17.815937345493428
0.8198,0.4351,0.0297,-0.6458,0.1631,0.0517,1.4175,-1.4962,-16.6775,4.162543140629194,62.05094748429094,14.231147906162768,17.825259854179418
0.8194,0.4446,0.0267,-0.6443,0.1633,0.0504,2.5813,-1.7762,-16.905,3.552655682593276,61.61154146044888,14.10277660660466,17.837258677761707
0.8242,0.4542,0.0355,-0.6443,0.163,0.0519,2.2138,-1.7675,-16.7125,4.313593380518823,61.204661164473194,13.467190716677473,17.84931872886014
0.8324,0.4649,0.0331,-0.6445,0.163,0.0519,0.8487,-1.5312,-16.4675,4.125733187331307,60.87531339554548,13.359904943724096,17.861371347716727
0.843,0.4681,0.0326,-0.6432,0.1626,0.0506,0.2362,-0.4288,-15.8812,4.020075881067317,60.89122725541947,13.22132137793796,17.87344803288024
0.8256,0.4595,0.0304,-0.6432,0.1626,0.0506,-0.63,0.2888,-15.5575,3.8621740966229736,60.86334217345339,13.237596023723627,17.885435885057902
0.8089,0.4463,0.0312,-0.6452,0.1635,0.0512,-1.3475,1.33,-15.1812,3.9402748638802905,60.975842218183914,13.277221602205245,17.894758747660173
