AcclX,AcclY,AcclZ,MagX,MagY,MagZ,GyroX,GyroY,GyroZ,Roll,Pitch,Yaw,Time(s)
-0.1444,0.9578,0.1857,-0.2918,0.0523,-0.0767,-2.52,0.9538,-14.14,0,0,0,1.6203009208547643
-0.1387,0.9306,0.1806,-0.2894,0.0525,-0.078,-2.9663,1.1638,-14.105,0,0,0,1.632323810743978
-0.1449,0.9539,0.182,-0.2894,0.0525,-0.078,-3.0538,0.945,-14.2537,0,0,0,1.6445070247072493
-0.1434,0.9564,0.179,-0.2907,0.0525,-0.0778,-2.66,0.63,-13.7287,0,0,0,1.6566141466706918
-0.143,0.9571,0.1839,-0.2906,0.0509,-0.0738,-2.1875,0.6038,-14.07,0,0,0,1.66881647211299
-0.1469,0.9553,0.1798,-0.2906,0.0509,-0.0738,-2.905,1.015,-13.9912,0,0,0,1.6809703110251644
-0.1415,0.9562,0.1794,-0.29,0.0533,-0.0787,-2.9313,1.1638,-14.6737,0,0,0,1.693156356318662
-0.1474,0.9564,0.1804,-0.29,0.0533,-0.0787,-2.7213,1.0062,-14.3675,0,0,0,1.705380978486491
-0.1421,0.9557,0.1794,-0.2926,0.0523,-0.0887,-2.9925,0.6913,-14.1662,0,0,0,1.7174888082824902
-0.1419,0.9575,0.178,-0.2918,0.0526,-0.073,-3.1238,0.77,-14.105,0,0,0,1.7296047781528896
-0.1451,0.9561,0.1804,-0.2918,0.0526,-0.073,-2.8263,0.6825,-14.1662,0,0,0,1.739137513108174
-0.1442,0.9573,0.1838,-0.291,0.0511,-0.0782,-2.9663,1.4088,-14.4287,0,0,0,1.7512092434437894
-0.1465,0.9571,0.1813,-0.291,0.0511,-0.0782,-2.5988,1.2425,-14.4025,0,0,0,1.7633797164210427
-0.1457,0.9551,0.1822,-0.2911,0.0539,-0.0816,-3.2113,1.4787,-14.5425,0,0,0,1.775805363034931
-0.1443,0.9556,0.1795,-0.2894,0.053,-0.0803,-3.4213,1.2075,-14.7175,0,0,0,1.7876569574454606
-0.1459,0.9567,0.1823,-0.2894,0.053,-0.0803,-2.8,1.2163,-14.1138,0,0,0,1.799845480152906
-0.144,0.9577,0.1842,-0.2892,0.0522,-0.0778,-2.9225,1.0587,-14.4025,0,0,0,1.812019492292942
-0.1454,0.9552,0.1792,-0.2892,0.0522,-0.0778,-2.485,1.0937,-14.21,0,0,0,1.824197043595761
-0.1451,0.956,0.1816,-0.2917,0.0549,-0.0808,-2.7125,1.2512,-14.6737,0,0,0,1.8363452198474832
-0.1446,0.9557,0.1804,-0.2926,0.0513,-0.074,-2.6075,1.2687,-14.2537,0,0,0,1.8484739307039004
-0.1432,0.9563,0.1782,-0.2926,0.0513,-0.074,-3.4738,0.9625,-14.2887,0,0,0,1.8606843962205988
-0.1454,0.9564,0.1812,-0.2912,0.0532,-0.0782,-2.87,1.1462,-14.0963,0,0,0,1.8700939683110442
-0.1434,0.9568,0.1847,-0.2912,0.0532,-0.0782,-2.555,1.6013,-14.4725,0,0,0,1.8822711656975848
-0.1419,0.9554,0.1787,-0.2945,0.0553,-0.0766,-2.7213,0.9887,-14.2887,0,0,0,1.8944058931307328
-0.1457,0.9581,0.1818,-0.2945,0.0538,-0.077,-2.9925,0.9187,-14.175,0,0,0,1.9066567051031542
-0.1452,0.9565,0.1839,-0.2945,0.0538,-0.077,-2.4413,0.9013,-14.6475,0,0,0,1.9187340980992218
-0.149,0.9563,0.1817,-0.2899,0.0538,-0.0778,-2.4063,1.2862,-14.4025,0,0,0,1.9308914761741791
-0.1454,0.9572,0.1827,-0.2899,0.0538,-0.0778,-3.1412,0.875,-14.3937,0,0,0,1.9430357593468404
-0.1436,0.9564,0.1785,-0.2906,0.0522,-0.0787,-2.3712,0.9975,-14.8312,0,0,0,1.9551892443427368
-0.144,0.9575,0.18,-0.2909,0.0542,-0.073,-2.555,0.8838,-14.2887,0,0,0,1.9673788287990168
-0.1458,0.9559,0.1819,-0.2909,0.0542,-0.073,-2.7125,0.77,-14.2712,0,0,0,1.9795712445855234
-0.1448,0.9566,0.1784,-0.2912,0.0519,-0.0772,-2.4938,0.6913,-14.1925,0,0,0,1.9916192625304943
-0.1427,0.9572,0.1804,-0.2912,0.0519,-0.0772,-3.1238,0.6563,-14.3587,0,0,0,2.0011112971137774
-0.1439,0.9564,0.1812,-0.2903,0.0533,-0.0756,-3.1238,1.2337,-14.5075,0,0,0,2.013270090853848
-0.1466,0.9572,0.1784,-0.2907,0.0538,-0.0785,-3.0625,0.8575,-14.4462,0,0,0,2.025475247626372
-0.1428,0.9576,0.1835,-0.2907,0.0538,-0.0785,-2.6163,0.6212,-14.63,0,0,0,2.0376694329942695
-0.1464,0.9554,0.1801,-0.2925,0.053,-0.0786,-2.52,0.8225,-14.0787,0,0,0,2.049764521804251
-0.1454,0.9568,0.1793,-0.2925,0.053,-0.0786,-3.3513,1.1462,-13.9387,0,0,0,2.0619155293861993
-0.1469,0.9577,0.1816,-0.2915,0.0526,-0.0814,-2.9663,1.2775,-14.07,0,0,0,2.0741008668471403
-0.1437,0.9575,0.1826,-0.2906,0.0518,-0.0788,-3.1588,0.9887,-15.0937,0,0,0,2.086278418149959
-0.1446,0.9583,0.1845,-0.2906,0.0518,-0.0788,-2.9925,0.7875,-14.8662,0,0,0,2.098375276541332
-0.1432,0.9559,0.179,-0.2876,0.0533,-0.0786,-2.765,1.1812,-14.9362,0,0,0,2.110593174299874
-0.1453,0.9591,0.1826,-0.2876,0.0533,-0.0786,-3.0888,0.7525,-14.4287,0,0,0,2.1226939257703075
-0.1433,0.9562,0.1835,-0.289,0.0531,-0.077,-2.3975,0.9538,-14.5162,0,0,0,2.132167910623399
-0.1445,0.9553,0.1796,-0.2913,0.0527,-0.0782,-2.5288,1.2075,-14.56,0,0,0,2.1443649273215226
-0.1448,0.9568,0.181,-0.2913,0.0527,-0.0782,-2.6513,1.085,-14.455,0,0,0,2.1565039017500096
-0.1458,0.9553,0.1856,-0.2915,0.0531,-0.079,-2.6075,1.4437,-14.14,0,0,0,2.1686400448482708
-0.1455,0.9576,0.1785,-0.2915,0.0531,-0.079,-2.3275,1.1987,-14.3062,0,0,0,2.180818303983646
-0.1441,0.9546,0.182,-0.2914,0.0526,-0.0812,-2.6338,0.91,-14.5425,0,0,0,2.192994085705074
-0.1443,0.9549,0.1831,-0.2892,0.0538,-0.0782,-3.0275,1.1025,-14.665,0,0,0,2.205131998384726
-0.1441,0.9597,0.1818,-0.2892,0.0538,-0.0782,-2.3975,0.735,-14.665,0,0,0,2.2172946852038575
-0.1425,0.9541,0.1817,-0.2905,0.0536,-0.0789,-2.7825,0.9538,-14.84,0,0,0,2.229453832860206
-0.1438,0.9561,0.1781,-0.2905,0.0536,-0.0789,-2.275,0.875,-14.735,0,0,0,2.241623244088625
-0.1451,0.959,0.1785,-0.2918,0.0501,-0.079,-2.8175,0.5775,-14.0612,0,0,0,2.2509853913977818
-0.1431,0.9578,0.1806,-0.291,0.0528,-0.077,-2.5988,0.9363,-14.0787,0,0,0,2.263199042160984
-0.1429,0.9559,0.1774,-0.291,0.0528,-0.077,-2.2313,0.875,-14.2012,0,0,0,2.275337308756915
-0.1446,0.9565,0.1837,-0.2899,0.0517,-0.0778,-3.0888,0.8225,-14.3325,0,0,0,2.2875891824781713
-0.1472,0.9574,0.1843,-0.2899,0.0517,-0.0778,-2.555,1.0762,-14.3587,0,0,0,2.2996311838464116
-0.1463,0.9564,0.1798,-0.291,0.0535,-0.0779,-3.185,1.0237,-14.35,0,0,0,2.3118048420701696
-0.145,0.9555,0.1805,-0.2902,0.055,-0.0798,-3.2025,0.7613,-14.3762,0,0,0,2.323977792461371
-0.1452,0.9563,0.1817,-0.2902,0.055,-0.0798,-2.975,1.085,-14.595,0,0,0,2.336165961252538
-0.1474,0.9557,0.1829,-0.2906,0.0526,-0.0781,-2.94,1.3562,-14.0175,0,0,0,2.3483697023599492
-0.1416,0.9558,0.1834,-0.2906,0.0526,-0.0781,-2.8,1.015,-14.07,0,0,0,2.360470807746661
-0.1426,0.9558,0.1834,-0.2919,0.0534,-0.0793,-2.7213,1.4787,-14.4287,0,0,0,2.3726490668820364
-0.1497,0.9571,0.1789,-0.2906,0.0524,-0.0776,-2.5375,1.12,-14.3413,0,0,0,2.382049437149247
-0.1433,0.9567,0.1811,-0.2906,0.0524,-0.0776,-3.0188,0.84,-14.4812,0,0,0,2.3943122822751297
-0.1439,0.9584,0.1826,-0.2906,0.0542,-0.0786,-3.0888,1.5575,-14.5162,0,0,0,2.406390737020032
-0.146,0.9555,0.1781,-0.2906,0.0542,-0.0786,-2.7388,1.5137,-14.14,0,0,0,2.418541036769424
-0.1446,0.9568,0.1771,-0.2902,0.0539,-0.0748,-2.8438,1.05,-14.3325,0,0,0,2.4306909826025374
-0.1444,0.954,0.1802,-0.2906,0.0526,-0.0775,-3.115,1.3825,-14.175,0,0,0,2.4428780896448696
-0.1457,0.9576,0.1794,-0.2906,0.0526,-0.0775,-3.1675,1.365,-13.9912,0,0,0,2.4550503322035144
-0.1453,0.9565,0.1854,-0.2911,0.0539,-0.081,-3.3075,1.0762,-14.5162,0,0,0,2.4671801048087665
-0.1446,0.9557,0.1818,-0.2911,0.0539,-0.081,-3.0713,0.7875,-14.6475,0,0,0,2.479345622958124
-0.1459,0.9586,0.1786,-0.291,0.0505,-0.0822,-2.73,1.0237,-14.5338,0,0,0,2.4915493640655355
-0.1472,0.9575,0.1845,-0.292,0.0546,-0.0789,-2.5113,1.0237,-14.315,0,0,0,2.5036745357591697
-0.1407,0.9547,0.1781,-0.292,0.0546,-0.0789,-2.345,0.4375,-14.035,0,0,0,2.513067119868258
-0.1465,0.9573,0.1807,-0.2921,0.0534,-0.0788,-2.975,0.8925,-14.63,0,0,0,2.525255996491982
-0.1477,0.959,0.1848,-0.2921,0.0534,-0.0788,-3.3863,1.0937,-14.5425,0,0,0,2.5374339017110787
-0.1451,0.9572,0.1842,-0.2901,0.0537,-0.0814,-2.94,0.8838,-14.6562,0,0,0,2.549613930427846
-0.1429,0.956,0.1799,-0.2894,0.0527,-0.079,-3.0713,1.12,-14.35,0,0,0,2.5617603370981765
-0.1462,0.9564,0.1796,-0.2894,0.0527,-0.079,-2.59,1.225,-14.0087,0,0,0,2.5738844470429765
-0.1421,0.957,0.1844,-0.291,0.0529,-0.082,-2.5725,1.5312,-14.4025,0,0,0,2.58606306009463
-0.1424,0.9556,0.1808,-0.291,0.0529,-0.082,-2.8788,1.0762,-14.5075,0,0,0,2.5982402574811707
-0.1494,0.9575,0.1796,-0.2932,0.0531,-0.0794,-3.1412,1.0062,-14.3587,0,0,0,2.61043408893279
-0.1441,0.9592,0.1811,-0.2896,0.0529,-0.0777,-2.9225,0.875,-14.3413,0,0,0,2.622587220012408
-0.1459,0.9562,0.179,-0.2896,0.0529,-0.0777,-2.9313,1.155,-14.1138,0,0,0,2.6346582425154668
-0.143,0.9572,0.184,-0.2913,0.0533,-0.0781,-2.3363,0.9887,-14.0787,0,0,0,2.644240879665988
-0.1435,0.956,0.182,-0.2913,0.0533,-0.0776,-2.3888,1.0412,-14.4375,0,0,0,2.656345878131761
-0.1413,0.9548,0.1805,-0.2913,0.053,-0.0776,-2.2488,0.8925,-14.3587,0,0,0,2.6684406130254636
-0.1443,0.9587,0.1815,-0.293,0.0546,-0.0784,-2.8438,1.3212,-14.4812,0,0,0,2.6806146251655
-0.1468,0.957,0.1803,-0.293,0.0546,-0.0784,-2.9575,1.5137,-13.8687,0,0,0,2.6927836824776405
-0.1438,0.9578,0.1847,-0.291,0.0523,-0.0779,-2.9925,1.4525,-14.3325,0,0,0,2.704960525947903
-0.1451,0.9578,0.1791,-0.291,0.0542,-0.0796,-2.8612,1.2075,-14.5338,0,0,0,2.7171405546646694
-0.1438,0.9551,0.1778,-0.2917,0.0542,-0.0796,-2.9225,1.2775,-14.2625,0,0,0,2.729269265521087
-0.1449,0.9574,0.1842,-0.2894,0.0541,-0.0784,-2.625,1.19,-14.2537,0,0,0,2.7414503559866885
-0.1458,0.9572,0.1817,-0.2894,0.0541,-0.0784,-2.7037,1.155,-14.1837,0,0,0,2.7536275533732293
-0.1466,0.9587,0.1779,-0.2901,0.0534,-0.0789,-3.6575,0.8312,-14.4725,0,0,0,2.765738922332011
-0.1455,0.9589,0.1782,-0.2905,0.0523,-0.0762,-3.255,0.7437,-14.175,0,0,0,2.7751966270363013
-0.1454,0.9563,0.185,-0.2905,0.0523,-0.0762,-3.045,0.9975,-14.9362,0,0,0,2.787314012571814
-0.144,0.9587,0.1808,-0.2914,0.0529,-0.0779,-2.555,0.7437,-14.4025,0,0,0,2.7995145684327207
-0.1454,0.9569,0.1818,-0.2914,0.0529,-0.0779,-2.4413,0.7525,-14.49,1.944491444990176,-4.190931074741402,3.1483376332858977,3.288195087146575
-0.144,0.9539,0.1792,-0.2922,0.0531,-0.0797,-2.9313,0.7788,-14.21,3.7895896777188254,-5.932448726089166,5.5062688713502626,3.2929216390429112
-0.1473,0.9555,0.1737,-0.2919,0.0534,-0.0775,-3.01,0.8925,-14.4462,5.471365549920069,-7.230383063347326,6.462616192412641,3.297404696539796
-0.1452,0.9583,0.1854,-0.2919,0.0534,-0.0775,-3.0625,0.945,-14.2362,7.038131853265695,-7.746037345606773,6.889686818213775,3.302278477607894
-0.1439,0.9551,0.1823,-0.2891,0.0527,-0.0792,-3.1325,1.3737,-14.3762,8.243818785759737,-8.057047173818635,9.621668727263144,3.306870895234765
-0.1433,0.9566,0.1815,-0.2891,0.0527,-0.0792,-2.5025,1.1812,-14.5075,8.587537348109997,-8.214131955754745,10.762722819129023,3.311446324880279
-0.1436,0.9558,0.1832,-0.2912,0.0528,-0.0802,-2.415,1.0675,-14.8137,9.035670538577895,-8.315569903893063,11.197173957361626,3.3159021308237366
-0.1446,0.9589,0.1811,-0.2912,0.0517,-0.0811,-3.1412,0.56,-14.4462,9.573280081723206,-8.370092201806248,12.922103694228436,3.320361122013699
-0.1452,0.959,0.1816,-0.2912,0.0517,-0.0811,-3.0625,0.5862,-14.56,9.902037498412842,-8.41679264699005,14.076902100519048,3.3251711981517076
-0.1449,0.9553,0.1858,-0.2913,0.0526,-0.079,-2.6513,1.19,-14.735,9.913666080645259,-8.445241470123296,14.499737113219823,3.329752644373952
-0.141,0.9575,0.1811,-0.2913,0.0526,-0.079,-2.205,1.225,-14.2712,10.16351937514359,-8.353940645624542,14.894783141932784,3.33217130821967
-0.143,0.9545,0.1778,-0.2877,0.0529,-0.0793,-2.1875,1.2337,-14.8137,10.288480814341858,-8.36779727047481,15.270046159306698,3.3344282323262173
-0.1446,0.9557,0.1813,-0.2903,0.0524,-0.0795,-2.8875,0.805,-14.56,10.371873248064931,-8.412450425391395,15.496561086323037,3.3367258568047657
-0.1443,0.9572,0.1808,-0.2903,0.0524,-0.0795,-3.1588,1.1987,-14.4287,10.4795460456676,-8.418972373706719,15.706498887062281,3.3389350022137463
-0.1443,0.9565,0.1815,-0.291,0.0538,-0.0776,-3.15,1.4612,-14.875,10.566407040226542,-8.425827286673913,15.922350695124548,3.3411777696691627
-0.1417,0.9569,0.1831,-0.291,0.0538,-0.0776,-2.7037,1.015,-14.315,10.5770705144037,-8.358929323285416,15.933695310309002,3.3434269076175878
-0.1447,0.9564,0.1825,-0.2905,0.0501,-0.0705,-2.4063,0.8663,-14.1925,10.62312803949527,-8.396971953064854,15.835367407064087,3.3458105337517567
-0.1469,0.955,0.1801,-0.291,0.0514,-0.0791,-2.7913,1.2163,-14.49,10.629616386955218,-8.495025217186175,15.972431612238564,3.3480695813559733
-0.1433,0.9558,0.1835,-0.291,0.0514,-0.0791,-2.8525,0.6913,-14.5687,10.667729592287555,-8.433924606832752,16.11695883852623,3.3503286289601903
-0.1454,0.9571,0.1802,-0.2901,0.0524,-0.0786,-2.5725,1.085,-14.0963,10.66731345332111,-8.454978321887978,16.155300915424444,3.352575997327224
-0.1462,0.9564,0.1805,-0.2901,0.0524,-0.0786,-3.395,0.8575,-13.9825,10.675911729718061,-8.482916912625722,16.2031172516026,3.354811332540797
-0.1413,0.9569,0.1837,-0.2911,0.0535,-0.0782,-3.6663,1.1025,-14.3937,10.771710252435854,-8.374601624084056,16.232036509907935,3.3570544539124914
-0.1437,0.9549,0.1773,-0.2914,0.0532,-0.075,-3.2638,0.945,-14.0,10.676590641186829,-8.388221423054175,16.215547041400736,3.3592717393958718
-0.1435,0.954,0.179,-0.2914,0.0532,-0.075,-2.7388,1.295,-14.2275,10.673044672481529,-8.397139235144925,16.133725299622064,3.3616082946650305
-0.1414,0.9575,0.181,-0.2914,0.0514,-0.0783,-2.8525,1.0412,-14.6037,10.678084948307578,-8.323766573842342,16.147423885961036,3.3639515743434765
-0.147,0.9568,0.1787,-0.2914,0.0514,-0.0783,-2.8525,1.1725,-14.2712,10.662250619109873,-8.437620885788021,16.186776729241732,3.366251676235973
-0.1432,0.9549,0.1779,-0.2926,0.0523,-0.075,-2.8963,1.015,-14.5425,10.641573532566676,-8.41172474416689,16.176744115231266,3.3685415145563997
-0.1453,0.9594,0.1839,-0.2902,0.0518,-0.0778,-2.9313,1.2337,-15.0062,10.686007093647113,-8.440740421822888,16.224369860356408,3.370823920634982
-0.1438,0.9562,0.1803,-0.2902,0.0518,-0.0778,-3.0538,1.1287,-14.8225,10.683823997435194,-8.421329205126119,16.24547248529576,3.3731452575041754
-0.1425,0.956,0.1792,-0.2906,0.0537,-0.0782,-2.8263,1.2163,-14.3937,10.67435750655027,-8.380925056660875,16.290310497749736,3.375514373070935
-0.1419,0.9587,0.1818,-0.2906,0.0537,-0.0782,-2.8788,1.12,-14.5425,10.685628723375228,-8.326758351985351,16.314894403567695,3.3778969374562693
-0.1441,0.9557,0.1826,-0.2926,0.0546,-0.0842,-2.7738,0.7437,-14.4987,10.698825253283491,-8.375122084909421,16.54725920093998,3.380167664297669
-0.146,0.9567,0.1778,-0.2907,0.0524,-0.0787,-2.5638,0.7788,-14.2975,10.683571230089067,-8.444391216760566,16.544068021486993,3.3824019377624066
-0.1448,0.9573,0.1801,-0.2907,0.0524,-0.0787,-3.2813,0.7788,-14.5862,10.672530302053364,-8.449958044329332,16.544184768728318,3.3846333798969184
-0.1469,0.9573,0.177,-0.291,0.0535,-0.0783,-2.9838,1.155,-14.7525,10.624531828792685,-8.522372989302603,16.532672741784385,3.386849957547742
-0.1473,0.9585,0.1844,-0.291,0.0535,-0.0783,-2.6075,0.8575,-14.56,10.638225030539342,-8.552719852158791,16.530860270696383,3.3890591029567227
-0.141,0.9559,0.1851,-0.2906,0.053,-0.0745,-3.0625,1.3475,-13.9475,10.729993187422467,-8.458339642825383,16.35270479733409,3.3912728492773208
-0.1436,0.9561,0.1781,-0.2934,0.0529,-0.0783,-3.4038,0.98,-14.4637,10.654177296435602,-8.429571329446999,16.352493696955793,3.3935011061653277
-0.1451,0.9553,0.1854,-0.2934,0.0529,-0.0783,-2.5113,1.05,-14.35,10.69724687369716,-8.452851064690627,16.354465654580416,3.395696094923177
-0.1441,0.9598,0.1851,-0.2901,0.0552,-0.079,-2.625,0.91,-14.3675,10.70502737939148,-8.422131917416548,16.38283382404392,3.39792718314141
-0.1441,0.9523,0.1769,-0.2901,0.0552,-0.079,-2.1963,1.1112,-14.4287,10.64731061486287,-8.44115767961074,16.415261644544234,3.4001490695364085
-0.146,0.962,0.1827,-0.2904,0.0534,-0.0748,-3.2025,1.4088,-13.9825,10.684524576716399,-8.453668049483037,16.263984131707936,3.402361046275615
-0.1439,0.9686,0.1873,-0.2914,0.0534,-0.0784,-3.36,1.61,-14.455,10.79132191708637,-8.378639289909552,16.36076549338205,3.4045716073497085
-0.1425,0.9599,0.1773,-0.2914,0.0534,-0.0784,-2.4325,1.4875,-14.7,10.73041711483704,-8.339018202748225,16.39190074130573,3.4068009259865506
-0.1394,0.9645,0.1767,-0.2926,0.0538,-0.0777,-2.6775,1.1462,-14.77,10.725074821043746,-8.201120223029857,16.374933741285965,3.4091059827069428
-0.1545,0.96,0.1856,-0.2926,0.0538,-0.0777,-3.3075,0.91,-13.6763,10.810247962925382,-8.309052393992433,16.372667352007774,3.411335301343785
-0.1438,0.9525,0.1776,-0.2894,0.0527,-0.0775,-3.2725,1.085,-14.4375,10.716099080270183,-8.37275848665393,16.374562107616473,3.413549401580661
-0.1407,0.9593,0.1785,-0.2896,0.0537,-0.0782,-2.975,1.0675,-14.3675,10.674271287054736,-8.295651037175112,16.385777853325944,3.4157465138361798
-0.1462,0.9636,0.1873,-0.2896,0.0537,-0.0782,-3.3863,1.2775,-14.0875,10.810984234516086,-8.359508228810562,16.431903616473825,3.4179662767335084
-0.1453,0.9457,0.1769,-0.2898,0.0532,-0.079,-2.66,0.9887,-14.2012,10.810565671629416,-8.452515003147704,16.43225025931375,3.420184977882002
-0.143,0.9555,0.1782,-0.2898,0.0532,-0.079,-2.8788,1.0062,-14.4025,10.766669912820252,-8.413483079492623,16.435738445477753,3.422405094695609
-0.1438,0.9611,0.1863,-0.2903,0.0527,-0.0824,-2.5113,0.98,-15.2075,10.79331467883436,-8.377476860843851,16.444184760367605,3.424103538915041
-0.1531,0.9587,0.18,-0.2907,0.0522,-0.0775,-3.1937,1.0325,-14.5862,10.737913155948068,-8.658019236502794,16.43939832480508,3.4294207770798155
-0.1393,0.9559,0.1781,-0.2907,0.0522,-0.0775,-2.7213,0.7437,-14.7262,10.727616021590155,-8.381299139088396,16.41407923545433,3.441716182503299
-0.1412,0.9529,0.1827,-0.2918,0.0542,-0.0787,-2.9313,1.4612,-14.525,10.754356716555685,-8.33042536993236,16.460232511686094,3.4539291254339455
-0.148,0.9574,0.1833,-0.2918,0.0542,-0.0787,-2.2662,1.0237,-14.455,10.778203865891664,-8.477089928412452,16.46339376328261,3.4667164744842287
-0.1453,0.9589,0.1839,-0.2905,0.0525,-0.0777,-2.275,0.6388,-14.3587,10.800045542110611,-8.47128130809842,16.44833715149216,3.478955607219467
-0.1442,0.9575,0.1814,-0.2903,0.0543,-0.0786,-2.4237,0.9275,-14.5162,10.786115033451404,-8.444075661440879,16.457650466737025,3.4911476690896954
-0.1468,0.9571,0.1823,-0.2903,0.0543,-0.0786,-2.7825,0.9013,-14.595,10.78588993500896,-8.508608632455756,16.470443003443613,3.5033008001693133
-0.1435,0.9499,0.1801,-0.2909,0.0538,-0.0784,-3.7188,0.4288,-14.1662,10.760145015253991,-8.48252359713525,16.490832306604187,3.5154896767930373
-0.1379,0.9591,0.1841,-0.2909,0.0538,-0.0784,-3.64,0.5862,-14.4725,10.812389387974612,-8.264719185505415,16.505763199090037,3.527665458514465
-0.1441,0.9539,0.1757,-0.2922,0.0528,-0.0879,-2.8963,1.3387,-14.9362,10.74100442788241,-8.373664863090971,16.909203984697122,3.5369529294889057
-0.1516,0.9571,0.1831,-0.2906,0.0524,-0.079,-2.3625,1.19,-14.315,10.76156556974855,-8.58215282476322,16.86246424713676,3.5491014596569066
-0.1438,0.9595,0.1817,-0.2906,0.0524,-0.079,-2.6863,0.9975,-14.2362,10.760650815774758,-8.49610637865992,16.860653682617155,3.5612857353690126
-0.1458,0.9532,0.1795,-0.2906,0.0526,-0.0788,-3.22,1.0412,-13.7637,10.726266052685805,-8.506532843990405,16.846787199007746,3.5734894764764236
-0.1437,0.9561,0.1856,-0.2906,0.0526,-0.0788,-2.8438,0.9363,-14.4812,10.766191651851775,-8.450790525708124,16.83491736327009,3.5856475623839374
-0.1402,0.9518,0.1782,-0.2909,0.0532,-0.0762,-3.6312,0.6563,-14.735,10.68655350669352,-8.334012485830316,16.651329029616356,3.5978456408308963
-0.145,0.957,0.1756,-0.2901,0.0538,-0.0773,-3.6138,1.1812,-14.7262,10.545614007336837,-8.411914190121571,16.599510924819732,3.6099807221803224
-0.1449,0.9608,0.1842,-0.2901,0.0538,-0.0773,-3.4825,1.2337,-14.1925,10.68406311855553,-8.417229925102193,16.55821315773385,3.622177384962168
-0.1426,0.9546,0.1765,-0.2902,0.0499,-0.0791,-3.2288,0.7263,-14.5687,10.608557326083247,-8.386096041506933,16.557813391235538,3.6343492736045344
-0.1439,0.9529,0.1803,-0.2902,0.0499,-0.0791,-3.15,1.1375,-14.7613,10.643264730174067,-8.415981702315763,16.561395528540846,3.6465473520514933
-0.1465,0.9585,0.1778,-0.2897,0.0528,-0.0771,-2.9575,1.1725,-14.7613,10.612592411689567,-8.488344307095334,16.521606857174458,3.6586155432243257
-0.1456,0.9578,0.1808,-0.2913,0.0523,-0.0789,-2.7738,1.0325,-14.4112,10.620350511098605,-8.491892094893657,16.522791279170267,3.667946545900995
-0.1459,0.9576,0.1761,-0.2913,0.0523,-0.0789,-2.8612,0.8312,-15.0675,10.587081087643522,-8.510332229102039,16.521934115335274,3.6801474556781795
-0.1455,0.9586,0.1834,-0.2923,0.0532,-0.0805,-2.9225,1.3387,-14.77,10.637495390219083,-8.493009047177349,16.599512968252277,3.692335978385625
-0.1444,0.9553,0.1828,-0.2923,0.0532,-0.0805,-2.5025,1.6013,-14.3587,10.664352576756826,-8.470870849325363,16.683964051532307,3.7045439664883753
-0.1435,0.9562,0.1793,-0.2919,0.0539,-0.0826,-2.5375,1.365,-15.0237,10.659485968400357,-8.422698181529233,16.825732640969434,3.716679755670358
-0.1441,0.9571,0.1833,-0.2938,0.0512,-0.078,-3.1063,1.2425,-15.4263,10.715568745311263,-8.415321260564637,16.709969554144266,3.7288463355685506
-0.1432,0.957,0.1802,-0.2938,0.0512,-0.078,-3.0188,0.7,-15.2862,10.701940150595373,-8.383413836021484,16.6017603029035,3.741034858275996
-0.1456,0.9567,0.1795,-0.2911,0.0538,-0.0807,-2.8087,0.735,-14.8662,10.692288897535352,-8.454556453625612,16.664563393268413,3.753224442732276
-0.1442,0.9554,0.1795,-0.2911,0.0538,-0.0744,-3.0363,0.6913,-14.3675,10.678224442298484,-8.446714288881736,16.463450643872054,3.765376158146781
-0.1438,0.9573,0.1826,-0.2898,0.0546,-0.0744,-3.0188,0.9625,-15.0325,10.710027836322267,-8.414728330260498,16.448223201879266,3.7775650347705048
-0.144,0.9555,0.1817,-0.2912,0.0534,-0.0786,-2.625,0.7,-14.3413,10.712055345226336,-8.417859639579355,16.468991467003455,3.789668263654886
-0.1442,0.9588,0.1811,-0.2912,0.0534,-0.0786,-2.52,0.9887,-14.3937,10.710075344029688,-8.412551750023066,16.46908639535389,3.7990258100524255
-0.142,0.9578,0.1831,-0.2909,0.0535,-0.0811,-2.66,1.2862,-14.2537,10.71029336542825,-8.358432366083042,16.59237800884703,3.811171862806478
-0.1465,0.9564,0.1798,-0.2909,0.0525,-0.0798,-3.5263,1.3825,-14.84,10.68101525528944,-8.4739231230687,16.631713023888075,3.823384097904568
-0.1445,0.9588,0.1803,-0.293,0.0525,-0.0798,-3.08,1.1375,-14.8137,10.671859751963181,-8.446290221764265,16.63024818410321,3.835537228984186
-0.1303,0.956,0.1818,-0.2903,0.0517,-0.0781,-2.7475,1.1987,-14.7875,10.67937562002899,-7.987223913981554,16.59940167024833,3.8478843061842976
-0.146,0.9578,0.1784,-0.2903,0.0517,-0.0781,-2.3888,0.84,-14.4462,10.651837049681202,-8.245371467070008,16.577048542972335,3.859922768389755
-0.1466,0.9565,0.1787,-0.2906,0.0538,-0.0801,-2.5463,0.9538,-14.5687,10.644639363222021,-8.410764566231482,16.585783202712687,3.872042985255494
-0.1449,0.9575,0.1859,-0.2902,0.0532,-0.077,-3.1063,1.5312,-14.3062,10.750078557790264,-8.42805816242784,16.496559932888484,3.8842477881117397
-0.1474,0.9568,0.1793,-0.2902,0.0532,-0.077,-2.9925,0.4987,-15.2075,10.716239644631493,-8.54260054162706,16.426384413309684,3.8964147219262104
-0.1427,0.9551,0.1811,-0.2906,0.0538,-0.0786,-2.5025,0.49,-14.4025,10.719039646500665,-8.452509263900954,16.4770282052801,3.908648192000997
-0.1434,0.9579,0.1803,-0.2906,0.0538,-0.0786,-2.8087,0.875,-14.8837,10.711450304469071,-8.404411580017442,16.486449676171446,3.9178585092267744
-0.1475,0.9585,0.1815,-0.291,0.0534,-0.0792,-3.0013,0.8487,-14.77,10.71424525040734,-8.512121761778886,16.507080484273132,3.930085254892273
-0.1441,0.9568,0.1792,-0.2938,0.053,-0.0802,-2.765,0.7875,-15.155,10.704326858007924,-8.455189739519662,16.532176942867476,3.9422245832370386
-0.1424,0.9561,0.1802,-0.2938,0.053,-0.0802,-2.9488,0.945,-14.4812,10.697467868509865,-8.39209402881003,16.537872601646235,3.954486720530365
-0.1444,0.9584,0.1836,-0.2894,0.0527,-0.0782,-2.5813,1.1287,-14.945,10.70845674940518,-8.406967907536096,16.54011038725516,3.9665347384753358
-0.1445,0.9579,0.183,-0.2894,0.0527,-0.0782,-3.5,0.8225,-14.8487,10.757321279589322,-8.419133632003941,16.541902367675974,3.9787384795827467
-0.1428,0.9555,0.1821,-0.2898,0.0534,-0.0786,-3.2987,0.7875,-14.4462,10.770067240604925,-8.386685196364782,16.554616501358492,3.9909224013785747
-0.1447,0.9567,0.1801,-0.29,0.053,-0.0735,-2.5813,0.9187,-14.2887,10.761945476100738,-8.416237462390265,16.495342376891358,4.003113755416247
-0.1442,0.9567,0.1842,-0.29,0.053,-0.0735,-2.4938,0.7613,-14.4375,10.781556251216251,-8.417617883237936,16.346777473666315,4.015341916746858
-0.144,0.9561,0.1775,-0.2906,0.0536,-0.079,-2.6863,0.98,-14.7525,10.7752710432535,-8.42072569785686,16.349500395299437,4.027450808291692
-0.1474,0.9584,0.1814,-0.2906,0.0536,-0.079,-2.7913,0.945,-14.6825,10.768688596316075,-8.51363707454712,16.362199231399003,4.039650302403764
-0.1438,0.9587,0.1824,-0.291,0.0532,-0.0802,-2.9575,0.9538,-14.6825,10.769492805517418,-8.442902413021109,16.37865624617512,4.0488730066992815
-0.1434,0.9554,0.1814,-0.291,0.0522,-0.0821,-2.9838,0.56,-14.8662,10.764910620845628,-8.411566618495357,16.60726048808844,4.061113555099633
-0.1428,0.9543,0.1788,-0.291,0.0522,-0.0821,-3.1412,0.9975,-14.5162,10.715383657317025,-8.389285897625035,16.61097099569667,4.07339798911849
-0.1451,0.9582,0.1847,-0.2892,0.0507,-0.0783,-2.765,1.0762,-14.5075,10.733600414043948,-8.423256153789445,16.605396608209336,4.085419463342591
-0.1461,0.9566,0.1801,-0.2892,0.0507,-0.0783,-2.5288,1.155,-14.7962,10.7252252632975,-8.486511953190146,16.591994913398384,4.097609755631428
-0.144,0.9578,0.1825,-0.2912,0.0534,-0.0768,-2.6163,1.2337,-14.4287,10.727959804983293,-8.445756384723111,16.519741780017657,4.109876139920093
-0.1421,0.9565,0.1838,-0.2876,0.055,-0.08,-3.0538,0.9187,-14.4987,10.770006154967504,-8.373738799451056,16.55441366858159,4.121926635279012
-0.145,0.9554,0.1793,-0.2876,0.055,-0.08,-2.3538,0.8487,-14.77,10.736807390878905,-8.435076897082668,16.610407186515022,4.13414134779105
-0.1437,0.9597,0.1821,-0.2921,0.0522,-0.0781,-2.8087,0.875,-14.4725,10.737723312004004,-8.402625612553221,16.585605831329115,4.1463167755961985
-0.1429,0.9561,0.1814,-0.2921,0.0522,-0.0781,-2.8,1.05,-14.735,10.738361743872337,-8.375748110830775,16.573454229362884,4.15851450012688
-0.1438,0.9573,0.1823,-0.2932,0.0534,-0.0754,-2.9575,1.0237,-14.1925,10.748276519955894,-8.383168122412311,16.550701930693968,4.1707164716528995
-0.1466,0.9565,0.1828,-0.2923,0.0506,-0.08,-2.9838,0.9887,-13.9125,10.76562515124541,-8.43377563292659,16.550877854408338,4.179941653362365
-0.1455,0.9579,0.1838,-0.2923,0.0506,-0.08,-3.0538,1.8637,-14.0612,10.792698200317236,-8.451670873104977,16.60665935979211,4.192116373334957
-0.144,0.9563,0.1817,-0.2892,0.0534,-0.0781,-2.3538,1.33,-14.4112,10.784557888002304,-8.43431694900789,16.593819115176807,4.2043551521539175
-0.1436,0.9559,0.1799,-0.2892,0.0534,-0.0781,-2.59,1.0237,-14.385,10.776089061543413,-8.417466738276214,16.592167922982824,4.216475369019656
-0.1452,0.9556,0.1792,-0.2906,0.053,-0.079,-2.9488,0.9363,-14.8575,10.741540741176728,-8.461301353539783,16.593314330936053,4.228674509215449
-0.1478,0.9597,0.1827,-0.2916,0.0538,-0.0775,-2.6775,1.0237,-14.2975,10.742107469206085,-8.523496389141673,16.585010324818246,4.24091930461114
-0.1446,0.9561,0.1795,-0.2916,0.0538,-0.0775,-2.6863,1.2163,-14.1487,10.739514128919883,-8.496810035900172,16.53559042266588,4.25299209669559
-0.1441,0.9589,0.1797,-0.2901,0.0531,-0.0774,-2.5463,1.0062,-14.7,10.726529109348638,-8.445464267788482,16.532779485215503,4.265219550193645
-0.1474,0.9572,0.1821,-0.2901,0.0531,-0.0774,-3.0538,1.435,-14.2362,10.739153300791699,-8.511185647843098,16.48524175693142,4.277317470333853
-0.1449,0.9556,0.1838,-0.2911,0.0529,-0.0749,-2.8875,1.2075,-14.8575,10.766420007246026,-8.487180094814422,16.3788423994212,4.289530767180778
-0.1417,0.9565,0.1814,-0.2898,0.0533,-0.0769,-2.6688,1.3825,-14.6912,10.766230531136678,-8.375884553265264,16.357783022390393,4.301659831953473
-0.1435,0.9529,0.1807,-0.2898,0.0533,-0.0769,-2.7037,1.1725,-14.63,10.765082774072633,-8.39713874315907,16.349571179210116,4.310987295467359
-0.1429,0.9562,0.1827,-0.2909,0.0533,-0.0778,-2.5113,1.0325,-14.4637,10.771887713270338,-8.37459432275024,16.35233216538539,4.323231736946772
-0.1454,0.9543,0.1782,-0.2909,0.0533,-0.0778,-2.3625,1.4875,-14.4112,10.727032389966803,-8.44241308367874,16.363877186877897,4.335322224845135
-0.1446,0.9568,0.1743,-0.289,0.0542,-0.076,-2.94,1.2687,-14.6387,10.63942238241656,-8.450071331174007,16.31782613222451,4.347501899645624
-0.1459,0.9569,0.1814,-0.2929,0.0533,-0.0782,-2.9925,1.225,-14.1575,10.662971802752676,-8.477324247721395,16.328586488136814,4.3596812205298345
-0.1444,0.9589,0.1852,-0.2929,0.0533,-0.0782,-3.325,1.2337,-14.5775,10.769991461135586,-8.44297129182976,16.342429687493052,4.371887439051194
-0.1438,0.9546,0.1772,-0.2913,0.0522,-0.0765,-2.7562,1.1287,-14.4287,10.748111180090037,-8.434281141511047,16.312724801451658,4.384033137888967
-0.1459,0.9583,0.1768,-0.2913,0.0522,-0.0765,-3.4738,0.6913,-14.98,10.615944348332567,-8.4823619255893,16.261604432123594,4.396219183182465
-0.1448,0.959,0.1817,-0.2908,0.0518,-0.0797,-2.835,0.9538,-14.1837,10.632557514334358,-8.464732487906323,16.277407212920753,4.4083977962341185
-0.1453,0.9557,0.1812,-0.2885,0.0533,-0.0774,-2.1963,1.2075,-14.2712,10.6653595056322,-8.478058287371985,16.310461747590924,4.42060967741593
-0.1459,0.9561,0.179,-0.2885,0.0533,-0.0774,-2.7037,0.9187,-14.3937,10.662903873355955,-8.502524625861238,16.319466140871096,4.429869542920666
-0.1448,0.9523,0.1828,-0.2914,0.0541,-0.0778,-3.1325,1.1375,-14.2362,10.727927351487862,-8.498547895424393,16.332305650097005,4.4420814241024775
-0.1438,0.957,0.1784,-0.2914,0.0541,-0.0778,-2.8263,0.6212,-14.595,10.704172117919288,-8.448821029922225,16.34472789826466,4.454162356261328
-0.1469,0.9547,0.1817,-0.2919,0.0533,-0.0814,-2.6863,1.19,-14.5687,10.705874050439,-8.524116212162214,16.453609866596977,4.466370698280357
-0.1477,0.959,0.1822,-0.2911,0.0523,-0.077,-2.8,1.225,-14.6912,10.712123473483798,-8.567312535307781,16.411536595396957,4.478549665248289
-0.1436,0.9536,0.1767,-0.2911,0.0523,-0.077,-2.9925,1.0675,-14.4025,10.658857226623242,-8.499186667755353,16.396214279784207,4.490701026746515
-0.1424,0.9563,0.1774,-0.2917,0.0519,-0.0781,-2.8612,0.9975,-14.3325,10.634005466697591,-8.422856686598287,16.395906712863567,4.502896273863247
-0.1466,0.961,0.1828,-0.2917,0.0519,-0.0781,-2.7037,1.0762,-14.1925,10.639458603986133,-8.46331328089204,16.39525729240858,4.515082319156745
-0.1433,0.9554,0.1828,-0.2893,0.0532,-0.074,-2.1963,0.8487,-14.9275,10.700531393974702,-8.4147587904123,16.32389545361061,4.52733454679428
-0.1424,0.9521,0.1772,-0.2901,0.0517,-0.0778,-2.2662,0.875,-14.5162,10.65585744282485,-8.389759349740995,16.33002144711725,4.539413001539183
-0.1465,0.9568,0.1814,-0.2901,0.0517,-0.0778,-2.7738,1.015,-14.665,10.663850593782072,-8.47820309152907,16.331922977706565,4.551602232079184
-0.1446,0.9557,0.1817,-0.2906,0.0528,-0.0779,-3.3075,0.9887,-14.8225,10.703428590841298,-8.464802083834927,16.3320754065543,4.560873776821103
-0.1446,0.9572,0.1787,-0.2906,0.0528,-0.0779,-2.975,0.6475,-14.4375,10.672769389185952,-8.45611226717941,16.351271570590743,4.573084950170358
-0.1454,0.9564,0.181,-0.2927,0.0503,-0.076,-2.6775,1.155,-13.6763,10.673440234129178,-8.461624626211487,16.289462658845803,4.585260377975508
-0.1454,0.9552,0.1799,-0.2912,0.0522,-0.078,-2.7913,1.1025,-14.0875,10.672588590567809,-8.478417530360327,16.299658931251336,4.597399706320273
-0.1454,0.9537,0.1774,-0.2912,0.0522,-0.078,-2.905,0.945,-14.8925,10.646134048090772,-8.505102561807167,16.302881743379665,4.609861098478267
-0.1427,0.9546,0.1783,-0.2903,0.0523,-0.0782,-2.7913,1.5662,-14.9362,10.638534661030429,-8.419658530602648,16.361782061002234,4.621778875232833
-0.1452,0.9595,0.1787,-0.2903,0.0523,-0.0782,-3.08,1.6625,-14.595,10.612450147300978,-8.441572072862616,16.401580453735704,4.633964212693774
-0.1453,0.9561,0.1786,-0.2925,0.0532,-0.0766,-3.1588,0.9975,-14.8487,10.601989399811618,-8.47292725928323,16.399321068757686,4.646108141950157
-0.1449,0.9564,0.1794,-0.2905,0.0538,-0.0784,-2.8788,1.3387,-14.8312,10.605911159292937,-8.471035285725279,16.434020405059293,4.658288170666924
-0.1455,0.9558,0.1821,-0.2905,0.0538,-0.0784,-2.8963,0.875,-14.4112,10.640250635656052,-8.48704544237816,16.446547385593313,4.670480232537152
-0.1462,0.9578,0.1785,-0.2918,0.052,-0.0775,-3.1325,1.0937,-15.0587,10.613546777552314,-8.515542719080893,16.428250634655733,4.682705916453816
-0.1449,0.9575,0.1719,-0.2918,0.052,-0.0775,-2.8175,0.98,-14.875,10.554900085458906,-8.490413009624863,16.425965246226596,4.691958703632986
-0.1434,0.955,0.1795,-0.2911,0.0507,-0.0758,-1.8288,1.0062,-15.015,10.595853940324671,-8.43299923790096,16.418655009401302,4.704083167494065
-0.1476,0.9568,0.1829,-0.2911,0.049,-0.0778,-2.4675,0.875,-14.4812,10.632666839903106,-8.522894552370076,16.406117476615893,4.716291509513093
-0.1451,0.9568,0.1765,-0.2911,0.049,-0.0778,-2.8087,0.7088,-14.2012,10.609520491469175,-8.506376177415417,16.372361616455795,4.728447471922937
-0.1435,0.9561,0.1834,-0.2897,0.0518,-0.0739,-2.8438,1.3737,-14.6125,10.647852007269117,-8.442929353935183,16.199103668731045,4.740681295914001
-0.1434,0.9545,0.185,-0.2897,0.0518,-0.0739,-3.0888,0.6913,-14.8312,10.743924314456422,-8.412922451448017,16.098376271924256,4.7527785082216525
-0.1441,0.957,0.1846,-0.2901,0.0529,-0.0801,-2.9925,0.6913,-14.42,10.787156894949762,-8.41163364100424,16.276425592705213,4.764975878836054
-0.1434,0.9576,0.1756,-0.2916,0.0536,-0.0783,-2.3975,0.7875,-14.4287,10.704341698744551,-8.396073789721262,16.30093129216457,4.7771615702132735
-0.1484,0.956,0.1788,-0.2916,0.0536,-0.0783,-2.6425,1.4175,-14.2625,10.702229598684054,-8.515589075800454,16.34555315715037,4.789361418241624
-0.1462,0.9563,0.1843,-0.291,0.0536,-0.0801,-2.38,1.225,-14.3762,10.747576580477862,-8.525681887412173,16.439845833417344,4.801501454418946
-0.1451,0.9575,0.1823,-0.291,0.0536,-0.0801,-2.6775,0.8838,-14.63,10.748067493956109,-8.494870708743635,16.47683423572789,4.813629457442807
-0.1429,0.9562,0.1831,-0.2921,0.0526,-0.0743,-3.1675,0.9538,-14.4637,10.77899915104568,-8.424443339499723,16.450120564200287,4.822957274872971
-0.1435,0.9548,0.1814,-0.2925,0.0528,-0.0786,-3.3075,1.19,-14.9537,10.770475554734045,-8.409526446163795,16.45101650304826,4.835154999403652
-0.1461,0.9555,0.1798,-0.2925,0.0528,-0.0786,-3.1763,0.805,-14.84,10.731913342760066,-8.487138436270984,16.44983976409925,4.847345999525045
-0.1452,0.9575,0.1841,-0.2898,0.0552,-0.0805,-2.7125,0.6475,-14.4375,10.7392097210942,-8.47895679474989,16.594088822355573,4.859466570307061
-0.1442,0.9562,0.179,-0.2898,0.0552,-0.0805,-2.9488,0.7962,-14.385,10.708849574670523,-8.456917824491125,16.656294596614927,4.87166677225169
-0.1443,0.9539,0.1787,-0.2894,0.0533,-0.0757,-3.1063,0.6913,-14.4375,10.678619555590508,-8.457046194500595,16.52681444043943,4.883849278382405
-0.1454,0.9581,0.179,-0.2914,0.053,-0.0794,-3.3163,0.805,-14.2712,10.640585435140935,-8.468939614378122,16.54422707937033,4.896036385424737
-0.1448,0.9554,0.1797,-0.2914,0.053,-0.0794,-3.1588,1.1462,-14.245,10.644453816639784,-8.470144055228776,16.558117813264193,4.908188808671799
-0.1436,0.9572,0.1838,-0.291,0.0531,-0.0807,-3.5,1.1025,-14.49,10.747081866447651,-8.426170832008673,16.59554567750981,4.920387241035035
-0.1446,0.9579,0.1764,-0.291,0.0531,-0.0798,-2.6513,0.7437,-13.58,10.74378775726065,-8.427279153990877,16.618877514326947,4.932575055909925
-0.1441,0.957,0.1871,-0.2916,0.0553,-0.0798,-2.7213,0.91,-14.5687,10.761627626517917,-8.41644327520032,16.633852374645446,4.944679346543141
-0.1441,0.9554,0.1797,-0.2915,0.053,-0.078,-2.4763,1.0325,-14.9012,10.744500096433361,-8.425148680740065,16.62408627032161,4.954031584196506
-0.144,0.9552,0.179,-0.2915,0.053,-0.078,-2.52,1.2512,-14.9362,10.728261663486709,-8.427084126301578,16.57523945915599,4.966187900522629
-0.1425,0.9557,0.178,-0.2886,0.0518,-0.0818,-3.0013,1.015,-14.4987,10.683222400415078,-8.383551539326035,16.589889918535857,4.978354126504542
-0.1469,0.9601,0.1777,-0.2886,0.0533,-0.0809,-2.87,1.12,-14.6212,10.649242231057412,-8.474093764916343,16.64285200787349,4.990567069435189
-0.1476,0.958,0.1759,-0.29,0.0533,-0.0809,-2.8175,1.2337,-14.5513,10.616267243817731,-8.546768556510367,16.70584039562851,5.002824959733176
-0.1463,0.9567,0.1829,-0.2915,0.0516,-0.0773,-2.8788,1.0237,-14.4025,10.653126386173899,-8.54454732524517,16.691230325851155,5.0148938587385645
-0.1436,0.9546,0.1771,-0.2915,0.0516,-0.0773,-2.9663,1.3125,-14.385,10.619770208958988,-8.483528916318017,16.575057403395345,5.027048759399574
-0.1449,0.9564,0.1884,-0.29,0.0531,-0.0781,-2.4763,1.1987,-14.5425,10.701842263167748,-8.469095667011326,16.571754368454737,5.03923515860935
-0.1443,0.9573,0.1801,-0.29,0.0534,-0.0808,-2.7388,0.9625,-14.07,10.698477920640217,-8.4538539395782,16.582792602482836,5.0514420849632655
-0.1451,0.9551,0.1819,-0.29,0.0534,-0.0808,-3.2025,0.945,-14.4462,10.728107148608828,-8.470368239730176,16.600752418299177,5.063567964489457
-0.1457,0.9575,0.1803,-0.2902,0.0531,-0.0788,-3.1063,1.1462,-14.455,10.708411534505489,-8.487113920761928,16.60177745478811,5.072839509231375
-0.1411,0.9561,0.1849,-0.2902,0.0531,-0.0788,-2.8175,1.4175,-14.84,10.740301270497667,-8.348828323207886,16.614240698936406,5.085070501892214
-0.1435,0.9547,0.1804,-0.2912,0.0533,-0.0763,-3.01,1.19,-14.6737,10.730008960356013,-8.377140617237183,16.53190951031139,5.097236020041572
-0.1424,0.9551,0.1769,-0.2922,0.0526,-0.08,-2.4675,0.7788,-14.6387,10.6914581764266,-8.357599683377329,16.55774977104104,5.10946276570707
-0.1434,0.9571,0.1834,-0.2922,0.0526,-0.08,-3.0975,1.12,-14.5162,10.738818721263884,-8.364313862419026,16.5769735828704,5.121546529196147
-0.1448,0.9557,0.1811,-0.2916,0.0522,-0.0778,-2.905,0.9275,-14.525,10.737097661602705,-8.41592405447074,16.563099103941482,5.133741422396601
-0.1425,0.9564,0.1823,-0.2916,0.0522,-0.0778,-2.9925,1.0587,-14.8312,10.750670359016762,-8.365256037887933,16.549374149601316,5.1459313607691595
-0.1446,0.9561,0.1806,-0.2932,0.0536,-0.0826,-2.9663,0.8487,-14.6475,10.738077826417216,-8.411817253230652,16.62213496967701,5.158124484388223
-0.1405,0.9556,0.1851,-0.2887,0.0546,-0.0821,-2.8525,0.8925,-14.5862,10.77399043926666,-8.309329105961021,16.687220211609652,5.170277261551562
-0.1469,0.9558,0.1856,-0.2887,0.0546,-0.0821,-2.5288,1.0587,-14.6037,10.799265538837355,-8.450289072846,16.730230674460795,5.182445611031146
-0.1438,0.9556,0.1782,-0.2917,0.0519,-0.0777,-3.815,1.0412,-14.105,10.672826654676186,-8.437125911246351,16.708867759664344,5.194625993664191
-0.1451,0.9579,0.178,-0.2917,0.0519,-0.0777,-3.1763,0.7437,-14.4725,10.623232902204682,-8.453533221680779,16.625133861536714,5.203917003801415
-0.1451,0.9563,0.185,-0.2897,0.0517,-0.0752,-2.73,1.33,-13.9125,10.643981116478272,-8.459058840960532,16.46411681981727,5.2161083578390866
-0.1424,0.9559,0.1841,-0.2918,0.054,-0.0759,-2.905,1.4437,-14.56,10.694297151315839,-8.389170094137137,16.338755063513222,5.2282728142396095
-0.1434,0.9551,0.1768,-0.2918,0.054,-0.0759,-2.9838,0.9187,-14.595,10.643918965049503,-8.393805217852798,16.316633266493238,5.240825516797398
-0.1465,0.9582,0.1826,-0.2908,0.0538,-0.0789,-2.765,0.5775,-14.6037,10.657496437435938,-8.470679305625294,16.407840406951347,5.252618361105734
-0.1473,0.9545,0.1806,-0.2908,0.0538,-0.0789,-2.1,1.05,-14.7175,10.677903766025892,-8.553372439894021,16.41977169547014,5.264928277096627
-0.1434,0.9584,0.1807,-0.29,0.0546,-0.0773,-3.0013,1.2775,-14.3675,10.677775296268985,-8.46645954403532,16.41335426805469,5.276930993757979
-0.1485,0.9582,0.18,-0.2907,0.0542,-0.0781,-2.7213,1.2687,-14.3238,10.67561104982128,-8.553157685806255,16.42845976166228,5.289150661097913
-0.1432,0.955,0.1815,-0.2907,0.0542,-0.0781,-2.5463,1.1375,-14.5862,10.684447848619683,-8.463621348072124,16.437349772061946,5.301330335898401
-0.1427,0.9564,0.1848,-0.2931,0.0523,-0.0805,-3.22,0.8575,-14.7,10.774611775061242,-8.393491853079524,16.476169277997,5.313520274270959
-0.1465,0.9561,0.1779,-0.2931,0.0523,-0.0805,-2.4938,0.9713,-14.3762,10.740898662358115,-8.473620223149878,16.48071028092608,5.325593774187966
-0.1449,0.9561,0.1837,-0.2926,0.0515,-0.0818,-2.3363,0.8225,-14.6387,10.774078635712018,-8.469190815805606,16.554893905029687,5.334918052455348
-0.1434,0.9556,0.1851,-0.2912,0.0516,-0.079,-2.3538,0.6388,-14.3062,10.81845133944251,-8.430145864854756,16.563783113949604,5.347128871888324
-0.1437,0.9562,0.1827,-0.2912,0.0516,-0.079,-1.9337,1.1725,-14.735,10.817865201077552,-8.4118831665933,16.564923625253414,5.359311024102761
-0.1459,0.9559,0.1857,-0.2917,0.0522,-0.0786,-2.38,0.49,-14.7262,10.856549189990693,-8.471776786846647,16.547419256425908,5.37151299562878
-0.1434,0.9575,0.1831,-0.2917,0.0522,-0.0786,-3.2813,0.77,-14.875,10.844793396996872,-8.412077373869872,16.537119736355677,5.383658694466555
-0.1431,0.955,0.1805,-0.2917,0.0548,-0.0792,-3.2288,0.9538,-14.7525,10.793476300603443,-8.39203213299961,16.541012894210837,5.395819611704295
-0.147,0.956,0.1842,-0.2898,0.0527,-0.0781,-2.4588,1.0325,-14.3062,10.812471212164029,-8.47776269727792,16.540406623517043,5.408017336234975
-0.1447,0.9548,0.1773,-0.2898,0.0527,-0.0781,-1.96,0.9887,-14.595,10.69169047014071,-8.476267916524735,16.540307657226354,5.420240188821413
-0.1423,0.9547,0.1796,-0.2912,0.0529,-0.078,-2.2313,1.1375,-14.385,10.680367632137344,-8.409887052101391,16.523059670005097,5.432356158691813
-0.1437,0.9576,0.1764,-0.2912,0.0529,-0.078,-3.0888,1.0762,-14.4375,10.607704239520565,-8.402787940656008,16.51158373091972,5.444545035315536
-0.1434,0.9576,0.1807,-0.292,0.0522,-0.0689,-3.1325,1.0237,-14.3762,10.632793435886045,-8.38814307174114,16.453643845428857,5.456683655827745
-0.1446,0.9542,0.1805,-0.2902,0.0544,-0.078,-2.6425,1.1462,-14.6562,10.634298602308814,-8.431294018401605,16.46059888636568,5.4659997940207266
-0.1438,0.9556,0.1814,-0.2902,0.0544,-0.078,-3.2462,1.1112,-14.8487,10.67640611303137,-8.418988829850806,16.465918660791168,5.47814973985384
-0.143,0.955,0.1797,-0.2874,0.0534,-0.0786,-2.31,0.945,-14.6387,10.671249855925344,-8.393768370856241,16.477274903744476,5.490358435789147
-0.1465,0.9581,0.1831,-0.2874,0.0534,-0.0786,-2.7388,0.9625,-14.9187,10.68180881288941,-8.47994292806326,16.48464879091602,5.5025168756129395
-0.1439,0.9574,0.1847,-0.291,0.0553,-0.0719,-3.185,1.1812,-14.2537,10.76335632329747,-8.44394888378976,16.314843093528054,5.514638154227512
-0.1421,0.9563,0.1866,-0.2922,0.0538,-0.0774,-2.3975,0.98,-14.315,10.821468519955367,-8.378954689691314,16.31490536356841,5.52682419952101
-0.1435,0.9557,0.181,-0.2922,0.0538,-0.0774,-2.2138,1.2075,-14.4725,10.791376829681322,-8.385464272705978,16.30865527815308,5.5390141378935684
-0.1412,0.9556,0.1857,-0.2902,0.053,-0.0787,-2.4675,1.0937,-14.49,10.824869927806184,-8.3200963245079,16.33875281285171,5.5512334513172235
-0.145,0.9568,0.1804,-0.2902,0.053,-0.0787,-2.6863,0.4375,-14.2887,10.821365628701335,-8.385648795378858,16.428023493969327,5.5634032164619205
-0.1451,0.9564,0.1793,-0.2926,0.0529,-0.0737,-2.835,0.735,-14.3325,10.791394558643203,-8.428654704267151,16.252397823090025,5.575620406387906
-0.1477,0.9563,0.178,-0.2906,0.055,-0.0782,-2.8,1.155,-14.0787,10.761387145055897,-8.502633636011753,16.289248922935993,5.584817982627666
-0.1438,0.9571,0.1864,-0.2906,0.055,-0.0782,-2.5813,1.0412,-14.7175,10.780737216340743,-8.440713411496866,16.303183082811195,5.597065609353583
-0.1449,0.9549,0.1761,-0.2921,0.0522,-0.079,-2.9838,0.8925,-14.9012,10.699945661290606,-8.467868048446055,16.32010925048702,5.609187595800713
-0.1457,0.9571,0.181,-0.2921,0.0522,-0.079,-2.59,0.63,-14.3413,10.700546994992745,-8.485659878463684,16.37474635908518,5.621384258582559
-0.1469,0.9559,0.1782,-0.29,0.0519,-0.0755,-3.1588,1.05,-14.7262,10.653871740658234,-8.54333528955193,16.352760066315952,5.63351827818315
-0.1452,0.9573,0.1805,-0.289,0.0509,-0.078,-3.675,0.9013,-14.3325,10.665925697239487,-8.513745070476427,16.362670877136175,5.645708216555708
-0.1439,0.9564,0.1829,-0.289,0.0509,-0.078,-3.15,1.0412,-14.3413,10.718562078535037,-8.46520242728977,16.368944828927763,5.657900632342215
-0.1455,0.9557,0.1765,-0.2922,0.0523,-0.0783,-2.625,1.0762,-14.6475,10.70947737377427,-8.491468209246555,16.368899163234193,5.670112159607748
-0.1452,0.9557,0.1762,-0.2922,0.0523,-0.0783,-2.9575,1.26,-15.0587,10.649409360087265,-8.495331991255352,16.36829187913828,5.682318732045386
-0.1455,0.9578,0.1795,-0.2912,0.0546,-0.0781,-3.15,0.8838,-14.63,10.637992062490767,-8.493662514097325,16.37735850663017,5.694419129599541
-0.1436,0.9567,0.1746,-0.2914,0.0536,-0.0794,-3.0188,0.8312,-14.9012,10.56035248978929,-8.439034695664198,16.410837235051634,5.706613668883716
-0.1466,0.96,0.1776,-0.2914,0.0536,-0.0794,-3.01,1.4525,-14.63,10.53992066610022,-8.492125052907555,16.48336932392269,5.715890876286088
-0.1463,0.9553,0.1858,-0.2897,0.0528,-0.0784,-2.9138,1.3125,-14.5338,10.633743933348612,-8.520916494639023,16.51184138246301,5.728365363346378
-0.1431,0.956,0.1781,-0.2897,0.0528,-0.0784,-3.4563,1.0587,-13.965,10.598024851804375,-8.474482920142718,16.51369406503801,5.740259073794022
-0.1435,0.9569,0.1832,-0.2909,0.0522,-0.0755,-3.1412,0.9713,-14.2975,10.675843265478672,-8.43246852389567,16.503802551578175,5.75241008137597
-0.1438,0.9568,0.1754,-0.2902,0.0517,-0.0783,-2.7125,0.8312,-14.5338,10.661995204511658,-8.420669683415063,16.49612700008059,5.7645872787625105
-0.1433,0.9573,0.1785,-0.2902,0.0517,-0.0783,-2.975,1.0587,-14.945,10.63819911476281,-8.391624784944884,16.494435190305467,5.776790312037366
-0.1443,0.9573,0.1843,-0.2903,0.0529,-0.0782,-2.8963,1.2512,-15.4263,10.687390898885656,-8.410048927417813,16.499861958997194,5.788926455135626
-0.1452,0.9579,0.1811,-0.2903,0.0529,-0.0782,-2.5988,1.2862,-14.4725,10.68849278863282,-8.440119398804649,16.49903449885948,5.801118517005855
-0.1429,0.956,0.181,-0.29,0.0532,-0.0757,-2.3888,1.505,-14.315,10.69545451280021,-8.4023725529719,16.35468376399497,5.8132939448110035
-0.1437,0.9546,0.1783,-0.2908,0.0526,-0.0788,-2.3625,1.4612,-14.4812,10.668800209352518,-8.4096935186999,16.418027887283774,5.825481405769614
-0.1456,0.9572,0.1832,-0.2908,0.0526,-0.0788,-2.73,1.61,-14.5075,10.679384143020737,-8.453209949920367,16.48216633429522,5.837686916458416
-0.1414,0.9566,0.1803,-0.2913,0.0537,-0.077,-3.08,1.1462,-14.595,10.677764525682843,-8.355413046059686,16.450260199390957,5.8469248391539
-0.1461,0.9556,0.1789,-0.2913,0.0537,-0.077,-3.5175,0.9713,-14.7613,10.643626973130743,-8.46131862294662,16.446308986077245,5.8590924808009275
-0.1462,0.9558,0.1793,-0.2934,0.0517,-0.0812,-2.9225,1.2075,-14.6562,10.639719373384978,-8.508436045094209,16.513659071282657,5.871282773089764
-0.1424,0.9567,0.184,-0.2906,0.0515,-0.0788,-2.6163,1.085,-14.0963,10.650497519098609,-8.437645944211823,16.5187808396799,5.883448291239121
-0.1468,0.9574,0.1809,-0.2906,0.0515,-0.0788,-2.31,0.9713,-14.3675,10.663344965166612,-8.497662064763407,16.51938465509282,5.8956499088488625
-0.1434,0.9553,0.1826,-0.2902,0.0529,-0.077,-2.975,1.4875,-14.665,10.700986310085264,-8.43863536522066,16.4471246583869,5.907795253770359
-0.1444,0.9565,0.1846,-0.2902,0.0529,-0.077,-3.2375,0.9538,-14.42,10.782276503799897,-8.435318858057219,16.442490301977813,5.92002553859864
-0.141,0.9533,0.1788,-0.2905,0.0542,-0.0851,-3.0538,0.77,-14.2537,10.737412344378116,-8.36563955744193,16.674619715540743,5.932176546180589
-0.1443,0.9562,0.1781,-0.2905,0.0535,-0.0774,-2.73,0.9013,-15.0237,10.725527776484387,-8.409607156510603,16.647121403259735,5.944301363957945
-0.1439,0.9561,0.1793,-0.2905,0.0535,-0.0774,-2.7738,0.9975,-14.9975,10.715058605924714,-8.412621941682001,16.644955273389723,5.956512183390922
-0.144,0.9572,0.179,-0.2927,0.054,-0.082,-2.6513,1.3212,-14.5687,10.713764644789919,-8.412136082317923,16.746678910948308,5.968617181856695
-0.1438,0.9582,0.1776,-0.2927,0.054,-0.082,-2.45,1.5575,-14.6212,10.676463926863821,-8.402602662048983,16.853559810634387,5.97796729601239
-0.1426,0.957,0.1794,-0.2919,0.0529,-0.0762,-2.8,0.63,-14.6212,10.669309396425183,-8.365569911108185,16.639309908709873,5.990184132022097
-0.1424,0.9549,0.1807,-0.2916,0.0516,-0.078,-3.1238,0.8663,-14.2887,10.683943234664042,-8.352652855343589,16.60844400943852,6.002295500980879
-0.1463,0.9575,0.1784,-0.2916,0.0516,-0.078,-2.8963,1.0062,-14.595,10.659318997001545,-8.451197948290472,16.60423042467141,6.014479068860429
-0.146,0.9579,0.1849,-0.2898,0.0548,-0.0742,-2.4237,1.4175,-14.7525,10.71048188799307,-8.4844858233435,16.389240484940235,6.0266576819120825
-0.1444,0.9564,0.177,-0.2898,0.0548,-0.0742,-3.22,1.1462,-14.5162,10.629734666387346,-8.464510102446834,16.3131435569615,6.0388670856799465
-0.1457,0.9567,0.1793,-0.2901,0.053,-0.0774,-3.01,0.6825,-14.63,10.62591854751939,-8.490224679835515,16.32296206760247,6.050985532964293
-0.1462,0.9565,0.18,-0.2911,0.0538,-0.0782,-3.2113,0.8225,-14.8225,10.63716103230162,-8.519933413478656,16.344257456111045,6.063174763504295
-0.1468,0.9575,0.1783,-0.2911,0.0538,-0.0782,-3.0013,1.0587,-14.8662,10.614687661128452,-8.549499080863558,16.351475783635117,6.075379566360541
-0.1434,0.9557,0.1814,-0.2899,0.0534,-0.0818,-2.4063,1.1025,-14.3937,10.641702753660104,-8.472975912871775,16.434664684132205,6.087561010742421
-0.1446,0.9575,0.1823,-0.2899,0.0534,-0.0815,-2.6513,0.9887,-14.3587,10.643155183687668,-8.45719031063529,16.435720034932878,6.096857683540097
-0.1446,0.9577,0.1773,-0.2917,0.0549,-0.0815,-2.7125,1.33,-14.525,10.635711486499893,-8.450902516359704,16.586038391701678,6.109057531568448
-0.1474,0.9562,0.1841,-0.2902,0.0549,-0.0791,-2.5725,1.1462,-14.4025,10.657243023960245,-8.524579745795844,16.60674836379291,6.121171377941177
-0.1421,0.9557,0.1823,-0.2902,0.0549,-0.0791,-2.6688,1.26,-14.3413,10.658211489533748,-8.427279933726862,16.631900594115425,6.133348575327718
-0.146,0.9552,0.1789,-0.292,0.0547,-0.0767,-2.1875,1.8463,-14.2537,10.642075677228979,-8.476839734759205,16.420724389776257,6.145981262964396
-0.1452,0.9596,0.1823,-0.292,0.0539,-0.0805,-2.6425,0.8663,-13.8775,10.644259600891303,-8.47112378377503,16.46765051194811,6.157666516724137
-0.1424,0.957,0.1815,-0.2918,0.0539,-0.0805,-3.115,1.0412,-13.9475,10.673767171374706,-8.42469446933148,16.486390472807788,6.169865656919931
-0.1436,0.9557,0.1816,-0.2915,0.0534,-0.0785,-3.2462,1.0587,-14.35,10.705181963056567,-8.41212961690298,16.48763761720539,6.182064443199446
-0.144,0.9572,0.1806,-0.2915,0.0534,-0.0785,-2.9838,1.2425,-13.8775,10.700193449103386,-8.411340079032923,16.489370330502076,6.1943134855904765
-0.1442,0.9546,0.1789,-0.2887,0.0538,-0.0789,-2.7562,1.0762,-14.245,10.692819036473624,-8.425622039458952,16.50740844823115,6.206379553265639
-0.1445,0.9572,0.1762,-0.2892,0.0528,-0.0758,-2.73,0.9275,-14.5075,10.676082452582211,-8.435187713514438,16.482489693776184,6.218587895284668
-0.1455,0.9578,0.1801,-0.2892,0.0528,-0.0758,-2.7037,1.085,-14.3762,10.675007684087875,-8.461108185848696,16.45061662957788,6.227857670445196
-0.145,0.9553,0.1785,-0.2924,0.0539,-0.0781,-2.9138,1.1725,-14.2362,10.656658075926412,-8.471566837873441,16.439432008476963,6.240058934138658
-0.1449,0.9568,0.178,-0.2924,0.0539,-0.0781,-3.045,1.19,-14.2275,10.623972789636934,-8.470262058638015,16.42820591398488,6.252246749013548
-0.1457,0.9565,0.1845,-0.291,0.0536,-0.0766,-3.5088,1.4437,-14.2712,10.75867611823392,-8.485914135128084,16.363400016213685,6.264357764056051
-0.1469,0.955,0.1825,-0.2911,0.0535,-0.0772,-3.5263,1.4612,-14.875,10.786530138346683,-8.546881645309819,16.345346271202303,6.27655584250301
-0.1447,0.9554,0.1789,-0.2911,0.0535,-0.0772,-3.1412,1.225,-14.9012,10.728007201047221,-8.500651255310459,16.33261420918497,6.288751797452298
-0.1445,0.9567,0.1814,-0.2918,0.0528,-0.0793,-3.045,1.2163,-14.56,10.730333168443977,-8.47010395541366,16.38446698629111,6.300947752401588
-0.146,0.9566,0.1789,-0.2918,0.0528,-0.0793,-2.415,0.665,-14.91,10.70311453379404,-8.506181566335997,16.436368891706095,6.31308778857891
-0.145,0.9554,0.1828,-0.2902,0.0518,-0.0719,-2.6338,0.4288,-14.1487,10.706633967770951,-8.495392176291212,16.049015133301886,6.325302855007226
-0.1435,0.9559,0.1768,-0.289,0.0542,-0.0786,-2.52,0.2538,-14.2362,10.678315920414107,-8.454242624295365,16.299345276230017,6.337451031258948
-0.1429,0.9553,0.1764,-0.289,0.0542,-0.0786,-3.2025,1.0762,-13.5537,10.602431857000175,-8.451054552381388,16.326069588548496,6.349633183473384
-0.1453,0.9581,0.1765,-0.2907,0.0527,-0.0784,-2.7475,0.8663,-14.4375,10.589466976646317,-8.466301235421222,16.342057491322336,6.3589241936106085
-0.1441,0.9569,0.1813,-0.2907,0.0527,-0.0784,-3.0888,1.0587,-14.2187,10.63104001964017,-8.445660745273825,16.3527077196321,6.371056797546086
-0.1459,0.9562,0.1795,-0.2926,0.0532,-0.0772,-3.3163,1.3212,-14.1575,10.631402084509965,-8.478148258450286,16.313967188596397,6.383252398579097
-0.1474,0.9571,0.1776,-0.2902,0.0538,-0.076,-3.3425,0.9013,-14.4812,10.583158129687714,-8.543145163615979,16.297017179352235,6.395424287221464
-0.1435,0.956,0.1834,-0.2902,0.0538,-0.076,-3.5963,0.8225,-14.1487,10.716755721373309,-8.48218041711872,16.276175652498427,6.40769456458919
-0.1454,0.9575,0.1814,-0.2899,0.0528,-0.0783,-3.36,1.0325,-14.6125,10.721231466295805,-8.484139089554853,16.286694130088545,6.41975320002251
-0.1443,0.9566,0.1851,-0.2899,0.0528,-0.0783,-2.8963,0.9275,-14.4112,10.764906781980686,-8.455838796070738,16.303059436274886,6.4319452618927375
-0.1424,0.9562,0.1792,-0.2922,0.0537,-0.0774,-3.0538,1.05,-14.735,10.72258735381985,-8.3853189341184,16.300778110326632,6.444140862925749
-0.1435,0.9573,0.1817,-0.2915,0.0537,-0.076,-3.3163,0.7875,-14.8925,10.732308466823438,-8.38096882706214,16.261436130709484,6.456337525707594
-0.147,0.9582,0.1827,-0.2915,0.0537,-0.076,-2.59,0.9363,-14.805,10.736516890003669,-8.487367692907332,16.251873318494663,6.468515784842969
-0.1463,0.9561,0.1799,-0.2911,0.054,-0.0791,-2.8875,0.8575,-14.4375,10.721734051531268,-8.518367059719736,16.29689233714087,6.480605210992499
-0.1435,0.9568,0.1815,-0.2911,0.054,-0.0791,-2.3712,1.015,-14.3762,10.72609394361235,-8.455412771874135,16.305344098648575,6.489911439529688
-0.1419,0.9572,0.1825,-0.293,0.0523,-0.0738,-1.8025,0.945,-14.6212,10.757699812060212,-8.366062537317084,16.273461571324898,6.502913261844605
-0.1425,0.9552,0.1795,-0.2939,0.053,-0.0762,-2.5988,1.4612,-14.9362,10.750877487078542,-8.35141761542109,16.169494196448703,6.513735667717916
-0.1449,0.9559,0.1789,-0.2939,0.053,-0.0762,-2.4063,1.3037,-15.1637,10.720255956612911,-8.428092821706501,16.115649951038627,6.52823632547132
-0.1461,0.9553,0.1819,-0.2913,0.0546,-0.0783,-2.6163,1.365,-14.875,10.722895032011495,-8.494907051603418,16.224615021216263,6.538354791867146
-0.146,0.9575,0.1762,-0.2913,0.0546,-0.0783,-2.24,1.2512,-14.4375,10.635081991989539,-8.511100913448633,16.274908670061638,6.550428999616709
-0.1445,0.9568,0.1795,-0.291,0.0534,-0.0724,-2.3625,1.1987,-14.7175,10.632860110576265,-8.473942283156564,16.128237974306952,6.564002396721037
-0.1454,0.9576,0.1796,-0.2922,0.0531,-0.0781,-3.3338,1.2775,-14.0875,10.628714964880613,-8.479038032504853,16.182931618238303,6.575161023058707
-0.1418,0.9572,0.1759,-0.2922,0.0531,-0.0781,-3.08,0.7525,-14.5862,10.565058957390006,-8.381127010121256,16.214077323517706,6.5871166688550495
-0.145,0.957,0.1823,-0.2908,0.0518,-0.078,-2.8263,0.7175,-15.12,10.596122540350446,-8.433222193311522,16.257328171356736,6.599399333292515
-0.1459,0.9576,0.1793,-0.2908,0.0518,-0.078,-2.7913,0.8663,-14.56,10.597162784191296,-8.476119868426709,16.27234739937423,6.611665363664902
-0.1438,0.9583,0.1816,-0.2924,0.0533,-0.076,-2.6338,1.1725,-14.525,10.600810905156921,-8.431291880501577,16.2317104827793,6.620152629934168
-0.1477,0.9573,0.177,-0.2897,0.0528,-0.0786,-3.1238,0.9713,-14.9362,10.56118940179882,-8.546120380420655,16.237951955791054,6.632623223915397
-0.1445,0.9547,0.1807,-0.2897,0.0528,-0.0786,-2.6425,1.0675,-14.7875,10.56417670463966,-8.497231569215254,16.263796610736108,6.644637619813932
-0.1428,0.9554,0.1788,-0.289,0.0546,-0.0781,-2.5638,1.1375,-14.7788,10.567387358076312,-8.419426632545711,16.303906028672372,6.656804553628403
-0.1442,0.9575,0.182,-0.289,0.0546,-0.0781,-2.7475,1.2075,-14.5338,10.582749074851874,-8.417669363554014,16.356467355130533,6.669084740651921
-0.1448,0.9564,0.1774,-0.2862,0.054,-0.0772,-2.3625,1.1812,-14.8312,10.565572088570871,-8.445689544127086,16.385320709681952,6.681310070652307
-0.1438,0.9553,0.1808,-0.2889,0.0534,-0.0786,-3.4738,1.365,-14.5075,10.633439786980533,-8.429521052546068,16.459113141417912,6.69403796176784
-0.142,0.9567,0.183,-0.2889,0.0534,-0.0786,-3.3425,1.0937,-14.6562,10.712582589774843,-8.357494056682368,16.478901055020284,6.706271431842627
-0.1446,0.9562,0.1826,-0.292,0.0523,-0.0782,-3.1763,0.875,-14.6562,10.746105275718786,-8.406208869262583,16.471255820581387,6.718460662382628
-0.1437,0.9579,0.1824,-0.292,0.0523,-0.0782,-3.1063,0.9713,-15.0675,10.756840515063235,-8.392222801713995,16.469944983390505,6.730591142820437
-0.1459,0.9553,0.1795,-0.2913,0.0519,-0.0807,-2.94,0.91,-14.595,10.7317996857105,-8.46706467292326,16.498495183016903,6.739981249515577
-0.1451,0.9561,0.1849,-0.2907,0.0542,-0.079,-2.5288,0.8138,-14.63,10.756886292699882,-8.471149827280563,16.52609171075323,6.752195254195058
-0.1464,0.954,0.1804,-0.2907,0.0542,-0.079,-2.4675,1.0762,-14.5425,10.748945719845613,-8.523698475172512,16.536026977303955,6.764348385274676
-0.1435,0.9576,0.1837,-0.2901,0.0521,-0.0777,-3.0275,1.0675,-14.63,10.778497616729057,-8.44380618320955,16.527403303620954,6.776469309972971
-0.1449,0.9574,0.1811,-0.2901,0.0521,-0.0777,-2.4588,1.295,-14.4112,10.76716951034078,-8.45074209347836,16.49706272832918,6.788627395880486
-0.1458,0.9565,0.1777,-0.2907,0.0535,-0.0784,-3.2113,1.26,-14.63,10.681128322294118,-8.488978193588196,16.49823472992827,6.800805301099583
-0.1462,0.9573,0.185,-0.2911,0.0518,-0.0765,-3.605,0.945,-14.5775,10.805647417395496,-8.508969559284546,16.483270055718403,6.81298532981635
-0.144,0.9564,0.1812,-0.2911,0.0518,-0.0765,-3.0888,0.9975,-14.1575,10.782457029087992,-8.47218225084959,16.48068494666473,6.825143769640142
-0.1451,0.9562,0.1788,-0.2922,0.053,-0.0773,-2.6163,0.98,-14.4287,10.774118731985943,-8.477707358979336,16.47809335602259,6.837278143157011
-0.1474,0.9569,0.1785,-0.2922,0.053,-0.0773,-2.9138,0.8487,-14.525,10.732349178255532,-8.544532316037262,16.446358491729185,6.8494316281529075
-0.1423,0.9566,0.1846,-0.2894,0.0534,-0.0758,-3.6225,0.8663,-14.0963,10.825462594786616,-8.458312707778019,16.414219260116145,6.861628644851032
-0.1449,0.9562,0.1807,-0.2898,0.0539,-0.079,-3.0888,1.1812,-14.0963,10.788347049484003,-8.462321417241498,16.458507895612545,6.871387532308133
-0.1447,0.9573,0.1801,-0.2898,0.0539,-0.079,-2.66,0.8225,-14.0963,10.788087884336122,-8.457572994922522,16.490917504613765,6.8831906401885385
-0.1437,0.9548,0.1775,-0.2927,0.0529,-0.0779,-3.0363,0.8312,-14.5162,10.718121853797474,-8.437198994921378,16.46398879829923,6.895549750542112
-0.145,0.9564,0.1809,-0.2927,0.0529,-0.0779,-3.1763,1.0675,-14.7087,10.715627566967385,-8.4566648943109,16.453526035940175,6.9076894328031555
-0.146,0.9577,0.1795,-0.2915,0.0538,-0.0713,-2.9138,1.015,-14.5075,10.695519815482994,-8.489089542022477,16.423513358708178,6.919650033427393
-0.1436,0.957,0.1806,-0.2902,0.0522,-0.079,-2.8438,0.84,-14.245,10.694189729324151,-8.446357883298928,16.44960132244625,6.931861914609204
-0.1441,0.9577,0.1791,-0.2902,0.0522,-0.079,-3.1238,0.9625,-14.1925,10.662081502829297,-8.432924889202956,16.453966556450734,6.9435468144526675
-0.1455,0.9547,0.182,-0.2882,0.0538,-0.0777,-3.1763,1.19,-14.1575,10.706590061939089,-8.46478601974251,16.470462208693135,6.956956348320155
-0.1441,0.9541,0.1773,-0.2882,0.0538,-0.0777,-2.8087,1.225,-14.385,10.683628618412188,-8.456116580668946,16.479350384222972,6.981232527595737
-0.1454,0.9565,0.1804,-0.2916,0.0539,-0.079,-2.2925,0.84,-14.5425,10.682856125328026,-8.476306913193506,16.4941089378849,6.983824610417809
-0.1452,0.9583,0.1829,-0.2913,0.054,-0.0788,-2.975,1.365,-14.07,10.712085116753855,-8.47237755249708,16.520670838287963,6.9930037830110985
-0.1435,0.9559,0.1785,-0.2913,0.054,-0.0788,-2.8788,1.26,-14.42,10.688066302779351,-8.435396576136792,16.529258480074553,7.001377442155039
-0.1422,0.9552,0.1844,-0.2911,0.0541,-0.077,-3.9025,1.1287,-14.2712,10.820059068160452,-8.384021470395913,16.501391370747193,7.013339104528112
-0.1428,0.9565,0.1809,-0.2911,0.0541,-0.077,-2.9488,0.91,-13.9825,10.795455122015714,-8.371726397071418,16.484315173180946,7.025516301914652
-0.1457,0.9592,0.182,-0.2906,0.0542,-0.0772,-2.8525,1.1462,-13.86,10.787166357880896,-8.40150634407918,16.464950992813026,7.037720043022063
-0.1473,0.9581,0.1805,-0.2911,0.0522,-0.0782,-3.1763,1.0587,-14.0875,10.747069169794987,-8.470658857286793,16.46285507811312,7.050011201450208
-0.1427,0.9571,0.1814,-0.2911,0.0522,-0.0782,-3.0888,1.155,-14.595,10.742567814793043,-8.399651933403858,16.459438051082653,7.0622492724366115
-0.1444,0.9575,0.1796,-0.2913,0.0532,-0.0774,-3.22,0.9975,-14.7788,10.699967064903412,-8.417288406477493,16.45827325917139,7.074536537785695
-0.1456,0.9565,0.182,-0.2913,0.0532,-0.0774,-2.6688,0.6212,-14.4112,10.700466396633159,-8.458696560513943,16.420466223432108,7.086791950669734
-0.1426,0.9573,0.179,-0.2898,0.0527,-0.081,-2.1175,0.6737,-14.6825,10.661914464583838,-8.389499868862123,16.560026209981928,7.099038161730538
-0.1468,0.956,0.1776,-0.2897,0.0533,-0.0788,-2.7562,1.26,-14.98,10.650042970760554,-8.505861318355933,16.5732046996714,7.111298529442473
-0.1429,0.9564,0.1804,-0.2897,0.0533,-0.0788,-2.9488,0.6388,-14.6912,10.657134555832476,-8.423137243030522,16.590993561167778,7.123528814270754
-0.1437,0.9565,0.1806,-0.2918,0.053,-0.0759,-3.64,0.8312,-14.77,10.674538791766828,-8.409002071255744,16.51111798494659,7.132063505321309
-0.1434,0.9551,0.1821,-0.2918,0.053,-0.0964,-3.325,1.2512,-14.0087,10.722365859458916,-8.402645882000877,17.152555796563558,7.144318210372791
-0.1413,0.9567,0.1823,-0.2918,0.0538,-0.0829,-3.0625,1.155,-14.9975,10.741258901136264,-8.314564010229299,17.170696233348483,7.156543186456899
-0.1455,0.9578,0.1831,-0.2907,0.053,-0.0782,-3.2375,1.2075,-14.8575,10.770937320036195,-8.413047822968567,17.049717215817633,7.169357079228052
-0.1434,0.9586,0.1804,-0.2907,0.053,-0.0782,-2.5988,1.2512,-14.6125,10.764223926468038,-8.38701459362732,16.929939807387257,7.181084449024908
-0.1438,0.9576,0.1774,-0.2906,0.0549,-0.0786,-2.695,1.3037,-14.4725,10.755619649018056,-8.393025436889904,16.84501740122089,7.193306947695068
-0.1445,0.9586,0.1789,-0.2906,0.0537,-0.0745,-2.1613,1.3475,-14.4987,10.694123812402502,-8.410802444374792,16.57571597949388,7.205589612132534
-0.144,0.9548,0.1817,-0.2903,0.0537,-0.0745,-2.4325,1.2687,-14.21,10.709151214400148,-8.417657114014998,16.42078678129094,7.2178503337607465
-0.1422,0.9584,0.1796,-0.2901,0.0526,-0.0775,-2.66,0.525,-14.4025,10.708966461267163,-8.361011296229307,16.401904743260573,7.2304214399650055
-0.1455,0.9594,0.1835,-0.2901,0.0526,-0.0775,-2.4588,1.0062,-13.9825,10.72905190717897,-8.396458997682219,16.401714237656385,7.2425943903562064
-0.1458,0.9553,0.1757,-0.295,0.0529,-0.074,-2.9838,1.0762,-14.315,10.65415337986036,-8.45874404496529,16.328248180999427,7.251929286111936
-0.1441,0.9577,0.1817,-0.2918,0.053,-0.0819,-3.4475,1.1987,-14.3762,10.693144804535557,-8.435728491836715,16.457810619865402,7.2641744354239055
-0.1425,0.9562,0.1848,-0.2918,0.053,-0.0819,-2.9575,1.1987,-14.525,10.749097823191763,-8.37981216164099,16.569203459441113,7.276312702019836
-0.1443,0.9571,0.1821,-0.2917,0.0546,-0.0778,-2.6688,1.2512,-14.56,10.749256985960695,-8.402842304114854,16.535029902101446,7.288499101229612
-0.145,0.955,0.1765,-0.2917,0.0546,-0.0778,-3.5438,1.015,-14.7,10.618893923190742,-8.451060737994101,16.530888999817133,7.300594190039593
-0.1426,0.9557,0.186,-0.2909,0.053,-0.0778,-3.1412,0.7,-14.5687,10.746684922178407,-8.390190584617887,16.509308730547307,7.312780235333091
-0.1445,0.9576,0.1779,-0.2924,0.0523,-0.0753,-2.9925,0.4812,-14.4025,10.691425419929073,-8.413055253930166,16.280772296043725,7.324949646561509
-0.1441,0.9572,0.1777,-0.2924,0.0523,-0.0753,-3.0713,1.1287,-15.1112,10.640757154786971,-8.416994035591346,16.226038179994323,7.337131444859668
-0.1416,0.9565,0.1795,-0.2909,0.0518,-0.0774,-2.3975,1.0937,-14.5775,10.638234865271176,-8.34562184698639,16.231369657334742,7.34935535919494
-0.1463,0.9576,0.1807,-0.2909,0.0518,-0.0774,-2.6338,0.9275,-14.7962,10.6395453761766,-8.453633105390848,16.234928828328385,7.361445493177025
-0.1474,0.9586,0.1792,-0.2906,0.0522,-0.0789,-2.485,0.91,-14.4725,10.631888698391876,-8.522801961986746,16.2600366596061,7.37361171915894
-0.1426,0.9568,0.1796,-0.2898,0.0552,-0.0776,-3.1588,1.1462,-14.6125,10.631668271837908,-8.423726199657338,16.287575420653834,7.38301810600288
-0.1432,0.9551,0.1808,-0.2898,0.0552,-0.0776,-2.6338,0.8487,-14.49,10.634065002633921,-8.402286486328492,16.310975007611262,7.395211229621943
-0.1424,0.9579,0.1825,-0.2905,0.0522,-0.0774,-2.2488,1.1287,-14.98,10.67870991286798,-8.34641959830098,16.313819268044675,7.407479737408279
-0.1471,0.9568,0.1771,-0.2905,0.0522,-0.0774,-2.5638,0.9625,-14.5687,10.661535787052012,-8.474729903033774,16.313379810220948,7.419581904543826
-0.1465,0.9566,0.1822,-0.2932,0.0546,-0.0788,-2.4675,1.0325,-14.4812,10.681430578209467,-8.514432653564022,16.321144047956878,7.431646202637597
-0.1425,0.9562,0.1821,-0.2924,0.0515,-0.0776,-2.6163,0.84,-14.8137,10.685836669163384,-8.409522047540475,16.312168917518296,7.4438234000241374
-0.1451,0.9551,0.1804,-0.2924,0.0515,-0.0776,-2.9488,0.8925,-14.7437,10.688115631530696,-8.4541689167937,16.30598532340029,7.455949279550328
-0.144,0.9576,0.1814,-0.2905,0.0534,-0.0777,-2.7037,0.9975,-14.42,10.68965616223611,-8.43060177008671,16.306749575912423,7.468131431764765
-0.1439,0.9564,0.1797,-0.2905,0.0534,-0.0777,-2.625,0.91,-14.3675,10.687935386139523,-8.421818982708867,16.313725634606968,7.480320308388489
-0.1448,0.9576,0.1867,-0.2905,0.0543,-0.0782,-2.9138,1.3737,-14.3325,10.757229945415993,-8.430910117029702,16.38335395137532,7.492490073533186
-0.1456,0.958,0.1806,-0.2894,0.0531,-0.0848,-3.1763,0.9625,-14.6737,10.729632066343605,-8.46502991889426,16.419374593409454,7.504670810082509
-0.1442,0.9566,0.1814,-0.2894,0.0531,-0.0848,-3.0363,0.8663,-14.7,10.731775609903714,-8.443013612085826,16.563429533971334,7.514035788721892
-0.1424,0.9557,0.1801,-0.2922,0.0526,-0.0782,-2.8612,1.3037,-14.2537,10.721865836577889,-8.395113822729044,16.520576513348495,7.52643489161491
-0.1442,0.9573,0.1815,-0.2922,0.0526,-0.0782,-3.465,1.5837,-14.1487,10.727987281291444,-8.404148567666015,16.472857056279985,7.537666424705905
-0.1461,0.9568,0.179,-0.2942,0.0549,-0.076,-3.0975,1.3387,-14.4812,10.688097445021096,-8.468907485123072,16.335522662191853,7.549913343599266
-0.1457,0.9557,0.1821,-0.2918,0.0527,-0.0775,-2.7125,0.5163,-13.8775,10.692899340797979,-8.481771492248118,16.323714862859905,7.562185744464661
-0.1415,0.9565,0.18,-0.2918,0.0527,-0.0775,-3.1412,0.7175,-14.735,10.681471257186823,-8.366443232870424,16.314517530403084,7.574339583376836
-0.1469,0.9562,0.1777,-0.2908,0.0528,-0.0786,-2.4763,1.3737,-14.9275,10.6573998584993,-8.496852364552563,16.37041569390191,7.586610568577119
-0.1427,0.957,0.1815,-0.2908,0.0528,-0.0786,-2.8,1.54,-14.63,10.66728623922967,-8.411303620293822,16.431311417488594,7.599191230520891
-0.1452,0.9576,0.1807,-0.2899,0.0535,-0.079,-2.7125,1.1987,-14.0612,10.66819218681351,-8.433690196545612,16.47298253325108,7.611337283274944
-0.1448,0.9571,0.1793,-0.2913,0.0537,-0.077,-2.8525,1.4612,-14.77,10.658977185118776,-8.447274845681363,16.397768524035598,7.623507402335918
-0.144,0.9547,0.1809,-0.2913,0.0537,-0.077,-2.6688,1.12,-15.2425,10.659456841248375,-8.436105435084794,16.38121603073868,7.635618063462144
-0.144,0.9581,0.1818,-0.2905,0.0533,-0.0785,-2.4675,1.085,-14.8225,10.673247577743354,-8.415505639668874,16.396178140067004,7.645082492575722
-0.143,0.9568,0.1801,-0.2905,0.0533,-0.0785,-3.1063,1.0762,-14.7087,10.669216311058651,-8.382963986897106,16.407793053128024,7.657267122204106
-0.1435,0.9568,0.1851,-0.2921,0.0539,-0.0816,-3.4913,1.0762,-15.2337,10.796075000511367,-8.378908772167051,16.45938404226817,7.66964251270648
-0.1459,0.9558,0.1745,-0.2921,0.0532,-0.0774,-3.1063,1.4088,-14.8925,10.65776767956009,-8.472239692900246,16.38899150802761,7.681567367786611
-0.1455,0.9584,0.1822,-0.2921,0.0532,-0.0774,-2.975,1.2163,-14.0875,10.683087733608486,-8.476087527122594,16.368004112246044,7.693717667536004
-0.1452,0.954,0.1785,-0.2918,0.0538,-0.078,-2.2838,1.4262,-15.085,10.659712515000882,-8.495967554436902,16.37498815952876,7.7058955727551
-0.1443,0.955,0.1793,-0.2918,0.0538,-0.078,-2.275,1.2512,-14.35,10.652377081179061,-8.473671670607942,16.379217439985812,7.718008003462717
-0.1455,0.9569,0.1835,-0.2903,0.0538,-0.088,-2.7388,0.7875,-14.2275,10.666877364027433,-8.481861719977566,16.697964979168212,7.730404275025509
-0.144,0.9556,0.1782,-0.2928,0.0549,-0.0784,-2.7213,1.0325,-14.1837,10.66106659263472,-8.459617973700867,16.687199985820026,7.7423878802078345
-0.1437,0.9584,0.18,-0.2928,0.0549,-0.0784,-2.66,1.435,-14.5775,10.661019883158522,-8.420064015045229,16.61182304638292,7.754553044440914
-0.1442,0.9561,0.1832,-0.2918,0.0537,-0.0776,-2.9488,1.7062,-14.4375,10.70249283637879,-8.42278978449958,16.50250757239612,7.763948459880228
-0.1428,0.9551,0.1792,-0.2918,0.0537,-0.0776,-3.85,1.4525,-14.3587,10.66125078137774,-8.393935594714597,16.44498818601379,7.776076816820367
-0.1451,0.957,0.1803,-0.2878,0.0518,-0.0717,-2.6513,0.8663,-14.4725,10.661337984140305,-8.433401936901546,16.332104344666735,7.788265339527812
-0.1421,0.9566,0.1796,-0.2906,0.0528,-0.0786,-2.5813,0.7962,-14.6737,10.659252862295347,-8.365172078334842,16.36571143709823,7.80051084275606
-0.1469,0.9573,0.1783,-0.2906,0.0528,-0.0786,-3.0888,0.91,-14.7,10.62675395025348,-8.481042173875803,16.377885885182007,7.8126388457799205
-0.1448,0.9552,0.1829,-0.2919,0.0526,-0.0786,-2.6163,1.0412,-14.35,10.636048743853918,-8.475271811323763,16.38345095048875,7.8247477373247545
-0.1428,0.9572,0.185,-0.2919,0.0526,-0.0786,-2.6863,1.05,-14.4112,10.64324752160219,-8.40809229755039,16.390273564180827,7.837050221073803
-0.1454,0.9587,0.1789,-0.2907,0.0536,-0.0742,-2.8,0.9363,-14.6125,10.634387661621473,-8.445594858962192,16.358053468120332,7.849090098944374
-0.1461,0.9553,0.1766,-0.2934,0.0528,-0.0778,-2.5025,1.1287,-14.5338,10.61228351874214,-8.499545520475875,16.342674481125933,7.8613359560889
-0.1469,0.9572,0.1793,-0.2934,0.0528,-0.0778,-3.0975,1.4437,-14.8575,10.611449784048814,-8.544563167618248,16.313543223619522,7.873405562926846
-0.1468,0.957,0.1819,-0.2938,0.053,-0.0778,-3.3425,1.2862,-14.63,10.67242130751119,-8.557905054400013,16.299805063181818,7.88556152533669
-0.144,0.957,0.1843,-0.2938,0.053,-0.0778,-2.8438,1.47,-14.7262,10.707536097727747,-8.474124006120078,16.29020448268433,7.895320412793791
-0.142,0.9555,0.1783,-0.2925,0.055,-0.0821,-2.6775,0.6212,-14.7262,10.70542994022351,-8.385124455841119,16.509524189701636,7.907158204469468
-0.1441,0.958,0.1851,-0.2896,0.0536,-0.0782,-3.115,0.98,-14.525,10.777211977326736,-8.393131715870378,16.510248736007455,7.9193453115118
-0.1376,0.9525,0.1839,-0.2896,0.0536,-0.0782,-2.8,1.0587,-14.8925,10.795466165966143,-8.20773273171835,16.514641932512735,7.9314874711867915
-0.1383,0.9487,0.174,-0.293,0.0562,-0.0787,-3.0713,0.8925,-14.5425,10.678580366824326,-8.183461637840237,16.511883760892168,7.943692981875594
-0.1461,0.9584,0.1759,-0.293,0.0562,-0.0787,-2.6688,1.505,-14.5162,10.676683419927441,-8.355436129587753,16.502839165807934,7.955809305662272
-0.153,0.9656,0.1746,-0.2919,0.0527,-0.0776,-2.5113,1.4437,-15.0587,10.620754591631595,-8.66303391161832,16.421985653104084,7.96796031324422
-0.1568,0.9668,0.1802,-0.2933,0.0534,-0.0775,-2.8,1.2075,-14.6037,10.613153819580818,-8.869359609600828,16.38466150790437,7.980085131021577
-0.1401,0.9525,0.1845,-0.2933,0.0534,-0.0775,-3.5,1.1725,-14.4812,10.772427670322712,-8.548756814044456,16.365528693431585,7.992275069394134
-0.1358,0.9446,0.1823,-0.291,0.0542,-0.0787,-3.3163,0.9363,-14.4462,10.83211003522332,-8.300952494097222,16.3779787385931,8.004503938557303
-0.1383,0.9493,0.1843,-0.291,0.0542,-0.0787,-2.7913,1.1638,-14.63,10.84983980276038,-8.215592649063826,16.41340229405633,8.016713342325167
-0.1435,0.9568,0.1831,-0.2921,0.0534,-0.0756,-3.0013,1.3562,-14.77,10.845711294453693,-8.306946710189978,16.294331573420287,8.02609495502963
-0.1514,0.9624,0.1788,-0.2903,0.0518,-0.0782,-2.8175,1.3562,-14.4637,10.802501995220092,-8.543146106644699,16.335279098402925,8.038159607039677
-0.1472,0.9614,0.1838,-0.2903,0.0518,-0.0782,-2.8438,0.8312,-14.4987,10.80568385197025,-8.547743362351623,16.355578784572558,8.050497482416555
-0.1429,0.9582,0.1799,-0.291,0.0521,-0.0782,-2.9138,1.0937,-13.8425,10.77101734103938,-8.496181884806468,16.362452125996676,8.06252426538483
-0.1397,0.9514,0.184,-0.291,0.0521,-0.0782,-2.9925,1.2163,-14.245,10.814445277461198,-8.372710479823322,16.381836746649842,8.07471384984111
-0.1364,0.9517,0.1859,-0.29,0.0528,-0.0734,-2.6075,1.0412,-14.7087,10.826745826789447,-8.173684611560528,16.34843457282508,8.08681141606504
-0.1402,0.9586,0.1824,-0.29,0.0503,-0.0783,-2.9488,1.0587,-14.4375,10.814834570579004,-8.17486223120769,16.356163179698363,8.098984012539962
-0.1516,0.9636,0.1802,-0.29,0.0503,-0.0783,-2.8263,1.1462,-14.805,10.783431953871636,-8.521869065942388,16.36905540478316,8.111164749089285
-0.1475,0.9611,0.1792,-0.2908,0.0527,-0.08,-2.7562,1.19,-14.7875,10.764331931487463,-8.554139974046093,16.435323266254397,8.123350440466504
-0.1439,0.9513,0.1801,-0.2908,0.0527,-0.08,-2.7562,1.1462,-14.3587,10.76054359432079,-8.508226139597767,16.48272077469952,8.135467826002017
-0.1413,0.9518,0.1796,-0.2888,0.0534,-0.0786,-2.8087,0.9275,-14.805,10.750976927155325,-8.390840940295284,16.492994099026447,8.147570347053842
-0.1379,0.9572,0.1843,-0.2918,0.0522,-0.0785,-3.4563,1.19,-14.6825,10.816242122038316,-8.208380984470026,16.489971791661286,8.15704114666043
-0.1452,0.9576,0.1742,-0.2918,0.0522,-0.0785,-2.87,1.2337,-14.6125,10.72907406113924,-8.353029529484584,16.472829110012263,8.169303991786311
-0.1466,0.9584,0.1807,-0.2906,0.0542,-0.0758,-2.1788,0.84,-14.7525,10.71223985046984,-8.461078967704127,16.42181604960353,8.181415360745094
-0.1485,0.9603,0.1761,-0.2906,0.0542,-0.0758,-2.9138,1.2687,-14.5338,10.647702277302026,-8.555682706033759,16.33949310700388,8.19408520959099
-0.1465,0.9595,0.1829,-0.2935,0.0508,-0.0786,-3.4038,1.1812,-14.1662,10.709267373750553,-8.545484795671177,16.34232093520264,8.205254099500731
-0.1446,0.9528,0.1802,-0.2922,0.0528,-0.0788,-3.0363,1.1638,-14.9187,10.709377315534523,-8.508082863476567,16.36578894275373,8.217325475920068
-0.1423,0.9564,0.1829,-0.2922,0.0528,-0.0788,-3.2462,1.2337,-14.7,10.752538053835378,-8.402987988211763,16.395002928750557,8.229532402273984
-0.1468,0.9536,0.1803,-0.2882,0.0542,-0.0748,-2.94,0.8225,-14.9187,10.742564342233178,-8.518919582177402,16.342675410762105,8.241770473260386
-0.1475,0.9579,0.1751,-0.2882,0.0542,-0.0787,-2.975,0.6737,-14.84,10.65112804470423,-8.572688212063348,16.424870747639858,8.254043581958339
-0.1437,0.9612,0.1811,-0.2899,0.0533,-0.0787,-2.7913,0.91,-14.7,10.653293435864214,-8.4561902705441,16.438740208733037,8.266291916516813
-0.1437,0.9553,0.1813,-0.2913,0.053,-0.0776,-2.7037,1.1112,-14.315,10.657008774344952,-8.43418305802379,16.42855641416223,8.278627314479742
-0.1399,0.9553,0.1818,-0.2913,0.053,-0.0776,-2.8788,0.6038,-14.2712,10.678023075327475,-8.327611987573897,16.40586233581922,8.287906291463504
-0.1416,0.9522,0.1857,-0.2912,0.0524,-0.0742,-3.3863,1.085,-14.315,10.828158774139766,-8.317193503544987,16.350273827003193,8.300110386487194
-0.1466,0.9591,0.1822,-0.2912,0.0538,-0.0776,-2.66,1.2862,-14.665,10.828019413617257,-8.4363942162188,16.355302764629233,8.312287229957455
-0.1463,0.9607,0.1804,-0.2915,0.0538,-0.0776,-2.8525,1.0937,-14.35,10.797147436017934,-8.470888904326202,16.353914987073093,8.324502296385772
-0.1452,0.9548,0.1778,-0.2897,0.0542,-0.0784,-3.395,0.6913,-14.6387,10.692026354973429,-8.487852480899724,16.40504984362084,8.336663213623511
-0.1446,0.96,0.1762,-0.2897,0.0542,-0.0784,-3.255,1.1462,-14.8225,10.583463020283963,-8.453423796279168,16.42539866715201,8.348806435047338
-0.1498,0.9548,0.1828,-0.2906,0.0549,-0.0822,-2.9925,0.9363,-14.3937,10.64678212153533,-8.596779331041857,16.468111250455784,8.361067864508108
-0.1457,0.9553,0.1807,-0.2917,0.0535,-0.0764,-2.205,0.6913,-14.6912,10.666999712759683,-8.556867132479272,16.387779701900385,8.37318525004362
-0.1415,0.9584,0.1811,-0.2917,0.0535,-0.0764,-3.3163,1.1812,-14.6387,10.680245193671807,-8.396931635472107,16.34428210032705,8.385386513737084
-0.1462,0.957,0.1787,-0.2913,0.0522,-0.077,-3.6488,1.47,-14.6037,10.628961415082761,-8.471746868331087,16.296173646259277,8.397525134249292
-0.1411,0.9551,0.1801,-0.2913,0.0522,-0.077,-3.36,0.84,-14.8312,10.649401285486968,-8.351538884963478,16.2845806563255,8.406778983177299
-0.141,0.9561,0.1826,-0.291,0.0534,-0.081,-2.5813,1.2163,-14.5338,10.661563824995792,-8.296419261608564,16.413131592847055,8.41904784487991
-0.148,0.9592,0.1767,-0.2887,0.0512,-0.0761,-3.0275,1.47,-14.4462,10.60165716635294,-8.45645317210305,16.32028501050749,8.43118434189445
-0.1484,0.9629,0.1834,-0.2887,0.0512,-0.0761,-2.6163,0.9538,-14.7175,10.609605681517468,-8.539721134613643,16.31502023102693,8.443367201941443
-0.1416,0.9454,0.1753,-0.2905,0.0545,-0.0786,-2.2138,1.2075,-14.4725,10.577146056543151,-8.4604271405814,16.360634963949426,8.455490250137409
-0.1469,0.9601,0.1776,-0.2905,0.0545,-0.0786,-2.765,1.26,-13.965,10.568083918028604,-8.490113677844166,16.404672687520733,8.467661430947219
-0.1508,0.9689,0.183,-0.2926,0.0541,-0.0826,-3.15,1.2337,-14.56,10.609935193918934,-8.594921194674361,16.55697466269895,8.479894547105726
-0.1492,0.9576,0.1891,-0.2928,0.0529,-0.0775,-3.0888,0.8838,-14.4637,10.777674738329539,-8.64151610645984,16.5324763166867,8.492105366538702
-0.1399,0.9501,0.1806,-0.2928,0.0529,-0.0775,-2.6688,0.8925,-14.7875,10.777572630027445,-8.411754912249103,16.507110920438535,8.504005447479356
-0.1416,0.9547,0.18,-0.2956,0.0502,-0.0783,-3.2462,1.3562,-14.28,10.740577762764824,-8.360084458013434,16.41551300810059,8.51621449733094
-0.1473,0.9586,0.1769,-0.2956,0.0502,-0.0783,-3.0538,0.8575,-14.1662,10.660382933978454,-8.451906104418866,16.383352352835214,8.528446551740613
-0.1469,0.9568,0.174,-0.2909,0.0545,-0.0806,-2.3187,0.8663,-14.98,10.570070238780414,-8.533901043849168,16.437973793938014,8.537189699479072
-0.1457,0.9626,0.1783,-0.2907,0.0535,-0.0782,-2.1788,1.1025,-15.05,10.545231759508063,-8.492276397530397,16.440462640061583,8.549405827656221
-0.142,0.965,0.1908,-0.2907,0.0535,-0.0782,-3.5,0.84,-14.7613,10.83660359132409,-8.33801983423341,16.454971668710755,8.561636466400781
-0.1388,0.9506,0.1846,-0.292,0.0532,-0.0783,-3.1412,0.8838,-14.175,10.886193553368452,-8.266045213101412,16.456184381148514,8.574315163153635
-0.1417,0.9529,0.1817,-0.292,0.0532,-0.0783,-3.2375,1.3212,-14.42,10.853108761261892,-8.287181016873705,16.45298547631158,8.586677104837435
-0.146,0.9566,0.1803,-0.291,0.0547,-0.0738,-3.2987,1.4262,-15.0937,10.783386399112178,-8.435716179541208,16.229404928853707,8.598784580717155
-0.1501,0.9603,0.1795,-0.2893,0.053,-0.0826,-2.4938,1.0675,-14.2362,10.755203484664307,-8.561037466128466,16.30778838048094,8.610964255517644
-0.1534,0.9614,0.1773,-0.2893,0.053,-0.0826,-2.8087,1.0675,-13.8863,10.71601726804317,-8.657574712185786,16.37936317469948,8.623136851992566
-0.1377,0.9486,0.1848,-0.2917,0.0527,-0.0787,-1.9775,0.5075,-14.49,10.841123679797292,-8.386829599970826,16.433273107825798,8.63532785211396
-0.1371,0.9506,0.1809,-0.2917,0.0527,-0.0787,-2.6163,1.0937,-13.7637,10.838220039780229,-8.322602522915822,16.44076682499153,8.647503279919109
-0.1415,0.9558,0.1793,-0.291,0.0533,-0.0778,-2.7913,1.015,-14.2012,10.813765920536406,-8.30475985255948,16.439467629154297,8.659556252691976
-0.147,0.9603,0.1807,-0.2898,0.0542,-0.0779,-2.66,1.1725,-14.7262,10.813461440514818,-8.441956029193344,16.448230674613136,8.67011605268681
-0.1485,0.9622,0.1774,-0.2898,0.0542,-0.0779,-2.6075,0.9275,-14.3937,10.794502380633148,-8.530010183830218,16.449413819380414,8.681218052419956
-0.1427,0.9618,0.1839,-0.2906,0.0533,-0.0778,-3.2813,0.5425,-14.5338,10.805988031755323,-8.409516896535543,16.444675500399946,8.693413653452966
-0.1399,0.9595,0.1911,-0.2906,0.0533,-0.0778,-3.5,1.1462,-14.6037,11.014813268970332,-8.267971216353486,16.45080508419696,8.705550150467506
-0.1405,0.9447,0.1828,-0.2944,0.0522,-0.0796,-3.2288,1.2425,-14.8575,10.991879778611324,-8.290561723295815,16.46897137162174,8.717707174626184
-0.139,0.9461,0.1764,-0.291,0.0533,-0.0778,-3.15,1.0675,-14.945,10.850724830766566,-8.248096004370504,16.462483568393907,8.729856766543021
-0.1444,0.9584,0.1739,-0.291,0.0533,-0.0778,-2.8612,1.8025,-14.7875,10.756617734685983,-8.351356370424623,16.40885188095062,8.74203608742723
-0.1523,0.9553,0.1808,-0.2904,0.0534,-0.0785,-2.6863,0.8575,-13.895,10.755676552577004,-8.503131096633933,16.426715821637075,8.754217177892832
-0.1377,0.9579,0.1787,-0.2904,0.0534,-0.0785,-3.2113,1.0587,-14.735,10.688876924380219,-8.250526449725232,16.433814454238238,8.766337040842293
-0.1376,0.9585,0.1881,-0.2912,0.0536,-0.088,-2.9663,1.295,-14.0787,10.7854764080532,-8.166916442551774,16.85600039224436,8.778500435493982
-0.1441,0.9515,0.1835,-0.2902,0.0531,-0.0774,-2.9138,1.4962,-14.525,10.811670652518478,-8.313258814497068,16.69980726098017,8.790611804452762
-0.1428,0.9662,0.1792,-0.2902,0.0531,-0.0774,-2.065,1.2337,-14.5862,10.697854681686069,-8.289952002381783,16.62876540917732,8.800271241435668
-0.1477,0.9632,0.1805,-0.2914,0.0517,-0.0783,-2.45,1.4612,-14.7087,10.683174320406303,-8.442910957255055,16.56016359709144,8.812215561911106
-0.1493,0.9585,0.1795,-0.2914,0.0517,-0.0783,-2.73,1.19,-14.3587,10.678321912495777,-8.562618884279726,16.535925005786982,8.824748445157311
-0.1425,0.9514,0.1805,-0.2898,0.0536,-0.0808,-3.3163,0.735,-14.0875,10.70370869586655,-8.49296298553337,16.631905821276277,8.836697366544366
-0.1373,0.9515,0.1782,-0.2923,0.0524,-0.0784,-2.7913,0.9625,-14.4462,10.692706896161406,-8.290277116043168,16.62563872989693,8.848727688675423
-0.1457,0.9607,0.1842,-0.2923,0.0524,-0.0784,-2.9925,1.2775,-14.6475,10.732750859393821,-8.386646899052833,16.582615493679562,8.860849321206274
-0.1474,0.958,0.1787,-0.2903,0.0539,-0.08,-2.8175,1.6712,-14.525,10.710330732346092,-8.49433432340951,16.680566509871237,8.873030057755598
-0.1485,0.9577,0.1791,-0.2903,0.0539,-0.08,-2.5813,1.2687,-14.4112,10.701542213493013,-8.575521501961006,16.712734349984746,8.885211856053756
-0.1423,0.9572,0.1835,-0.29,0.0541,-0.0747,-3.15,1.3737,-14.9275,10.750962458827217,-8.418153734260397,16.4974983485492,8.897391530854245
-0.1453,0.9593,0.182,-0.2907,0.0515,-0.0784,-3.0538,1.0762,-14.245,10.74860106857393,-8.437529218112543,16.496060937271825,8.909684458863781
-0.1402,0.9551,0.1809,-0.2907,0.0515,-0.0784,-3.2813,1.1287,-14.4725,10.739581567333417,-8.324775639182013,16.49357156050655,8.918942554787124
-0.1412,0.9569,0.1798,-0.2915,0.0524,-0.0777,-3.1325,1.5837,-14.6737,10.708262893834474,-8.285512587398939,16.429703931702225,8.931185580601424
-0.1509,0.9582,0.1781,-0.2915,0.0524,-0.0777,-2.4588,1.2075,-14.7525,10.67805826823014,-8.570743333162703,16.408495958509718,8.94378818535445
-0.1474,0.9592,0.1835,-0.2917,0.0519,-0.0766,-2.695,1.3212,-14.49,10.682924431188736,-8.576802938422915,16.33892969445988,8.955472731281635
-0.1449,0.9559,0.1768,-0.2926,0.0532,-0.0786,-2.8875,1.505,-14.8837,10.645358843495494,-8.51966157383326,16.368141620413454,8.967672225393706
-0.1433,0.9565,0.186,-0.2926,0.0532,-0.0786,-3.08,1.3387,-15.1812,10.75119071956617,-8.423689332314174,16.400183130956876,8.979754573217669
-0.1441,0.9571,0.1843,-0.291,0.0544,-0.081,-3.2113,1.1812,-14.5338,10.80378205224299,-8.41670949287296,16.49952546950366,8.991914428706574
-0.145,0.9556,0.1795,-0.291,0.0544,-0.081,-2.5463,0.98,-14.4025,10.786647374919953,-8.4473828337177,16.504446339760825,9.004103659246576
-0.1432,0.9561,0.1795,-0.2912,0.0536,-0.0827,-3.0363,1.505,-14.2625,10.74480728062965,-8.415995057885352,16.759142201608803,9.016271300893603
-0.1424,0.9575,0.1807,-0.2912,0.0538,-0.0782,-2.765,1.1638,-14.2275,10.739425290034792,-8.373734698104242,16.716212696899895,9.028401073498856
-0.1455,0.9571,0.1802,-0.2912,0.0538,-0.0782,-2.6163,1.0325,-13.9912,10.736074473952419,-8.413474080275135,16.706081620987323,9.040573669973778
-0.1449,0.9557,0.1795,-0.2918,0.053,-0.0786,-3.3513,1.2425,-14.4725,10.69580576503063,-8.443733907145663,16.660989638400526,9.049959175757301
-0.1444,0.9574,0.1804,-0.2918,0.053,-0.0786,-3.2462,1.3387,-14.2537,10.68664122625439,-8.43824985112805,16.615858567256588,9.06217176477167
-0.1444,0.9578,0.1806,-0.2914,0.0537,-0.0774,-2.5638,1.3475,-14.4287,10.685882794741786,-8.432954018329557,16.536107065533056,9.074318171442
-0.1415,0.9586,0.1799,-0.2902,0.0562,-0.0778,-2.5113,0.8487,-14.5513,10.678440606603841,-8.34229191404679,16.53211632406099,9.086463162447219
-0.146,0.9557,0.1798,-0.2902,0.0562,-0.0778,-2.3363,1.0762,-14.8662,10.67262411010901,-8.454903779901159,16.530209705615178,9.09819725665336
-0.1447,0.9555,0.1857,-0.2891,0.0525,-0.0784,-2.8875,1.0412,-14.9275,10.732552706896971,-8.455268804289549,16.53468806655139,9.110429311063035
-0.1449,0.9566,0.179,-0.2891,0.0525,-0.0784,-3.3775,0.9187,-14.8837,10.67671421160813,-8.46293864284184,16.537136913430395,9.122620665100705
-0.1443,0.9554,0.1811,-0.2938,0.0529,-0.078,-3.0713,0.945,-14.665,10.693152186774519,-8.451066360125525,16.526084697104732,9.134880324980085
-0.1447,0.9552,0.1848,-0.2918,0.0527,-0.0792,-2.7125,1.0762,-14.0262,10.70549282612642,-8.453924234500496,16.533579202619702,9.147091852245618
-0.1447,0.9568,0.1776,-0.2918,0.0527,-0.0792,-2.4675,0.9275,-14.2887,10.674562613667092,-8.455499699189177,16.535453302393922,9.159316120497168
-0.1449,0.9579,0.1807,-0.2913,0.0513,-0.0758,-2.9225,0.91,-14.5425,10.676273925583354,-8.45520428595241,16.493565997358576,9.171467128079117
-0.1441,0.9582,0.1834,-0.2913,0.0513,-0.0758,-3.0363,1.0937,-14.1225,10.719616827112985,-8.435147459648087,16.446368961886133,9.180367768561405
-0.1414,0.9572,0.1825,-0.2916,0.0536,-0.0767,-3.0363,1.2163,-14.7788,10.74000712327215,-8.335413172579699,16.39910194632293,9.192604423882695
-0.1451,0.9556,0.1778,-0.2895,0.0541,-0.0789,-2.7562,1.3037,-14.4287,10.722778271522166,-8.409405020290103,16.46429317247459,9.20483223129703
-0.1429,0.9562,0.1792,-0.2895,0.0541,-0.0789,-2.9225,0.9363,-14.1662,10.700415815075504,-8.388478779579225,16.475417743705012,9.217055083883468
-0.1463,0.9568,0.1763,-0.2907,0.0534,-0.0787,-2.7562,1.4875,-14.2887,10.67800298901845,-8.459676619162504,16.497706254621495,9.229314389846568
-0.1456,0.9581,0.185,-0.2907,0.0534,-0.0787,-2.6688,1.12,-14.42,10.679710803864081,-8.472448927110415,16.5101550845274,9.241496542061004
-0.144,0.955,0.1772,-0.2899,0.053,-0.0785,-2.6075,1.12,-14.4637,10.671034546654656,-8.4532217066513,16.514498526297736,9.253708069326537
-0.1443,0.9568,0.1764,-0.2908,0.0546,-0.0786,-2.1875,0.805,-14.8925,10.598626746160322,-8.443452300271534,16.519967716826816,9.265952864722227
-0.144,0.9548,0.181,-0.2908,0.0546,-0.0786,-3.0538,0.7437,-14.6037,10.636768179170756,-8.435732270956644,16.53347886404266,9.278143157011064
-0.1452,0.9575,0.1785,-0.2912,0.0534,-0.0825,-3.4125,1.4,-14.5775,10.603866666664446,-8.458026517419468,16.728610133330232,9.290384413243972
-0.1463,0.958,0.1773,-0.2912,0.0534,-0.0808,-2.8612,0.9713,-14.3587,10.58416113602901,-8.495510660697295,16.73169635724294,9.30249047345858
-0.1415,0.9557,0.1833,-0.2886,0.0535,-0.0808,-2.4763,0.3675,-14.665,10.626925672954165,-8.37667504369959,16.867367113134804,9.311021271430073
-0.1437,0.9579,0.1838,-0.2904,0.0526,-0.079,-2.9313,0.7613,-14.5075,10.676763208391774,-8.378821991831584,16.825980758578524,9.323334018751193
-0.1435,0.9559,0.181,-0.2904,0.0526,-0.079,-2.695,1.3737,-14.6825,10.678211950828311,-8.385161986807205,16.770941613446873,9.335530681533038
-0.1432,0.956,0.1787,-0.2912,0.0506,-0.0822,-3.0625,1.1638,-14.5513,10.652356686052642,-8.380538681069222,16.817404275349787,9.34777937000779
-0.1452,0.9586,0.1821,-0.2912,0.0532,-0.079,-2.7562,1.225,-14.3238,10.661284793795552,-8.41787656383552,16.777063138771588,9.36001425574769
-0.1451,0.9576,0.1816,-0.2914,0.0532,-0.079,-3.1588,1.4262,-14.3325,10.686782492332963,-8.440197553738084,16.72098807641215,9.372381860091942
-0.1437,0.9573,0.1768,-0.2901,0.0514,-0.0788,-2.45,1.0675,-13.9387,10.64779232701737,-8.427341236509553,16.708326654007106,9.384541715580847
-0.1422,0.9565,0.1792,-0.2901,0.0514,-0.0788,-2.2488,1.225,-14.4987,10.637134236289295,-8.370889071310286,16.68059313075225,9.39676562991612
-0.1411,0.9547,0.1793,-0.2903,0.053,-0.0805,-2.66,1.1375,-13.79,10.637133364800661,-8.348007277085355,16.708520828177058,9.409029182874558
-0.146,0.9575,0.1753,-0.2918,0.0551,-0.0798,-2.975,1.05,-13.9562,10.574604075182782,-8.40372013243411,16.708744640294817,9.421284241842319
-0.1452,0.9592,0.181,-0.2918,0.0551,-0.0798,-2.6513,1.295,-14.14,10.575777183942199,-8.425655532054877,16.719410481448477,9.429787080427829
-0.1435,0.9562,0.1801,-0.2915,0.0526,-0.0782,-3.01,1.3737,-14.4112,10.599247476591827,-8.408573142932845,16.63642552897832,9.442017011339832
-0.1453,0.9573,0.1787,-0.2915,0.0526,-0.0782,-3.08,1.1462,-14.7087,10.591731976619885,-8.450778236872354,16.60568647881066,9.45429932186102
-0.1438,0.9568,0.182,-0.2902,0.0503,-0.0782,-3.6225,1.1462,-14.4637,10.679067001560202,-8.425463508852314,16.583566478373523,9.466556858242729
-0.1416,0.9572,0.1814,-0.2905,0.0525,-0.076,-2.8525,1.5837,-14.3587,10.687367608720528,-8.354203304479686,16.397794783168386,9.47883633743369
-0.1465,0.9574,0.1799,-0.2905,0.0525,-0.076,-3.3075,1.7413,-14.4112,10.66959174941393,-8.447879272894028,16.259192869563467,9.4911427142618
-0.142,0.9574,0.1784,-0.2907,0.052,-0.0792,-3.0975,1.085,-14.6825,10.634922539415607,-8.365947700805597,16.289566960134042,9.503326636057627
-0.1439,0.9578,0.1803,-0.2907,0.052,-0.0792,-2.2925,0.9713,-14.7525,10.641910154183726,-8.384151988088412,16.295778785639754,9.515595497760241
-0.1442,0.9547,0.1799,-0.2922,0.054,-0.0783,-2.66,1.4525,-14.9187,10.641967463452465,-8.418380029630047,16.340697443865174,9.527965225602163
-0.1427,0.957,0.1805,-0.2906,0.0531,-0.0822,-3.08,1.2337,-14.4637,10.653502515755157,-8.378342863801686,16.507346362674813,9.540088273798128
-0.1448,0.9574,0.1782,-0.2906,0.0531,-0.0822,-3.22,0.8838,-14.4987,10.614194526619269,-8.41749502706981,16.571556174660135,9.552338377937993
-0.1427,0.9551,0.1826,-0.2923,0.0516,-0.0787,-2.5288,1.05,-14.49,10.638780249747274,-8.383485656529318,16.5652970642328,9.560846525267676
-0.1434,0.9557,0.1829,-0.2923,0.0516,-0.0787,-2.8263,1.1725,-13.8337,10.666358469473828,-8.383484347468507,16.549392414743643,9.573215899193318
-0.1448,0.9559,0.1806,-0.2913,0.0534,-0.0809,-2.7037,0.9538,-14.6912,10.667662438338166,-8.428157949444275,16.562924636761274,9.58537256943572
-0.1418,0.9551,0.1803,-0.2893,0.0534,-0.079,-2.905,1.2163,-14.4812,10.67208250813889,-8.365330877761753,16.588586526054648,9.597562153892
-0.1442,0.9556,0.179,-0.2893,0.0534,-0.079,-2.9225,1.295,-14.2187,10.659150567121937,-8.394770565762602,16.612766355659634,9.609866407222441
-0.1437,0.9587,0.1825,-0.2898,0.0534,-0.0792,-2.5813,1.0675,-14.7,10.66801831363005,-8.384808116843379,16.62065971695276,9.622117219194863
-0.1416,0.956,0.1805,-0.2898,0.0534,-0.0792,-2.2662,1.085,-14.6562,10.674820760807734,-8.329488802179167,16.628496047116858,9.634394928804433
-0.1436,0.9572,0.1787,-0.2917,0.0531,-0.0778,-3.045,1.1638,-14.7175,10.64712816683251,-8.36203735437755,16.585733414943864,9.646644679028018
-0.1458,0.9572,0.1834,-0.291,0.0526,-0.0766,-3.3075,1.1987,-14.2887,10.725321913987653,-8.425802445882411,16.51657479066165,9.658861161121449
-0.1438,0.9564,0.1779,-0.291,0.0526,-0.0766,-1.9075,0.5688,-14.35,10.644410449118043,-8.417961837516067,16.406213880290345,9.671100647772965
-0.1451,0.957,0.1796,-0.292,0.0513,-0.0786,-2.7738,1.1812,-14.4025,10.642865480057498,-8.445125077741004,16.409635660388492,9.683368093810465
-0.1449,0.9576,0.1817,-0.292,0.0513,-0.0786,-3.3163,0.9363,-14.5775,10.682818700548,-8.450648164381342,16.411273197947562,9.691861022740182
-0.1435,0.9545,0.1806,-0.2922,0.0524,-0.0791,-3.0713,0.9887,-14.5075,10.691939246354858,-8.426885966158986,16.411475611471367,9.704155012498553
-0.1449,0.9579,0.1782,-0.2909,0.0535,-0.0814,-2.24,1.05,-15.3212,10.646371667404571,-8.447460833980784,16.446143720244145,9.71641325671282
-0.1413,0.9574,0.1821,-0.2909,0.0535,-0.0814,-2.3975,1.05,-14.8662,10.67205390087344,-8.333823584584586,16.48048378978096,9.728679641001484
-0.1462,0.9571,0.1746,-0.2914,0.0539,-0.079,-2.8175,1.435,-14.7087,10.627159892194635,-8.449305543498,16.50426709599827,9.740902493587923
-0.1437,0.9565,0.1804,-0.2914,0.0539,-0.079,-3.0538,1.3912,-14.84,10.642251671602084,-8.420098912556849,16.532370331800074,9.753145165485943
-0.1419,0.9568,0.1845,-0.2922,0.0517,-0.0826,-2.9838,0.7962,-14.5513,10.708516129161314,-8.351561135984486,16.63569083282739,9.76540305578393
-0.1468,0.957,0.1767,-0.2946,0.0539,-0.0763,-3.1412,0.6563,-14.5687,10.628404060572592,-8.467821201837959,16.45932075143211,9.77769952295625
-0.1458,0.9565,0.18,-0.2946,0.0539,-0.0763,-2.7037,1.1375,-14.8225,10.629575364244584,-8.4971754817951,16.39482819907995,9.789930869533364
-0.1433,0.9573,0.1804,-0.2922,0.053,-0.0782,-2.8438,0.9363,-14.49,10.636110260259086,-8.433583141845343,16.39480158175591,9.802177788426725
-0.145,0.9562,0.1826,-0.2922,0.053,-0.0782,-3.5525,1.12,-14.5862,10.718624547406,-8.453417737581715,16.396867638259423,9.81441975249219
-0.1403,0.9573,0.1812,-0.2885,0.0546,-0.0803,-3.6925,0.98,-14.56,10.718447942565687,-8.321035311371269,16.40308971123878,9.82295550529158
-0.1441,0.9559,0.1801,-0.2923,0.0536,-0.0782,-2.5025,0.9887,-14.5075,10.711778736623652,-8.373612607038057,16.40309178569249,9.835193222361704
-0.1434,0.9557,0.1818,-0.2923,0.0536,-0.0782,-3.1238,1.4612,-14.9625,10.730338248717818,-8.380483862503485,16.407673529425853,9.847450404827136
-0.1446,0.9542,0.1816,-0.291,0.0526,-0.0793,-2.5288,1.015,-15.0062,10.735640954926215,-8.43247853345479,16.41368091747925,9.859711834287905
-0.1455,0.9583,0.1783,-0.291,0.0526,-0.0793,-2.17,0.7175,-14.8575,10.671084071012658,-8.465348189830433,16.459210975861264,9.871969370669614
-0.1446,0.9562,0.1795,-0.2924,0.0549,-0.0779,-2.66,0.7088,-14.7613,10.671008191435943,-8.458964200146124,16.44055311991363,9.884220536558313
-0.1454,0.9558,0.1801,-0.2914,0.0525,-0.0801,-3.0363,0.9713,-14.7962,10.671017206283217,-8.483335191609678,16.446510223066138,9.896484089516752
-0.1443,0.9564,0.1807,-0.2914,0.0525,-0.0801,-3.0888,0.8575,-14.0525,10.679451360668429,-8.465735590039534,16.48375872252639,9.90873171624267
-0.1462,0.9556,0.1804,-0.2878,0.0532,-0.0782,-3.4388,0.8225,-13.9475,10.68432246381017,-8.491068283080745,16.505510529151266,9.92099491528483
-0.1442,0.956,0.1791,-0.2878,0.0532,-0.0782,-2.3712,0.7,-14.28,10.667799738439363,-8.465948092761364,16.532196552154968,9.933250682085148
-0.1455,0.9573,0.1842,-0.2907,0.0546,-0.0732,-2.3888,0.8487,-14.1925,10.71579732517147,-8.475197348844201,16.422969022262816,9.94547671991809
-0.1436,0.9573,0.182,-0.2915,0.0539,-0.0785,-2.1788,1.0237,-15.0412,10.731660735491177,-8.419554624147947,16.426093427576657,9.953987698578
-0.1449,0.9557,0.1794,-0.2915,0.0539,-0.0785,-3.1675,1.0762,-14.0087,10.69806090440695,-8.438040957848864,16.43212765862295,9.966236387052753
-0.1448,0.9566,0.1828,-0.2903,0.0509,-0.0778,-3.3775,0.7437,-14.2362,10.748263589085699,-8.445873221095757,16.42321199901291,9.978543825629696
-0.1443,0.9562,0.1793,-0.2903,0.0509,-0.0778,-3.0975,0.6563,-14.1312,10.709462553963572,-8.442441293064995,16.40799777345937,9.990743673658047
-0.1444,0.955,0.1804,-0.2907,0.0534,-0.0763,-3.045,1.19,-14.5338,10.706053634822407,-8.446753355127358,16.3646966328663,10.002999440458364
-0.1437,0.9587,0.1831,-0.2906,0.0531,-0.0782,-3.08,1.2425,-14.595,10.737459165894133,-8.40973353584674,16.391737439436614,10.015258392505187
-0.1471,0.9573,0.1777,-0.2906,0.0531,-0.0782,-2.6425,1.0587,-14.56,10.733233698507682,-8.502504868866014,16.396202203932624,10.027555567510062
-0.1454,0.9568,0.182,-0.2897,0.0532,-0.0794,-2.6863,0.8312,-14.2537,10.734107642052075,-8.49756175593341,16.4458669398729,10.039816996970831
-0.142,0.9553,0.1821,-0.2897,0.0532,-0.0794,-2.3187,0.8138,-14.385,10.748975204041656,-8.409080478950708,16.49299795419544,10.052075949017652
-0.1452,0.9576,0.1809,-0.2927,0.0522,-0.0818,-2.415,1.2512,-14.525,10.738814026557279,-8.441886748626658,16.59538465052004,10.064317913083118
-0.1449,0.9567,0.1844,-0.2928,0.0521,-0.0783,-2.8788,1.155,-14.07,10.76927433367211,-8.448018190354446,16.566072793105324,10.072822875166297
-0.1441,0.9564,0.1769,-0.2928,0.0521,-0.0783,-3.0538,1.295,-14.6037,10.687621846757983,-8.437281349134711,16.511797442920333,10.08523931995695
-0.1424,0.9597,0.1846,-0.2933,0.0502,-0.0792,-2.625,1.7237,-14.49,10.694759361334867,-8.364655048654207,16.493094270651874,10.09736944647848
-0.1453,0.9572,0.1803,-0.2933,0.0502,-0.0792,-2.8875,1.2337,-14.84,10.68971542099731,-8.432922271793757,16.483254814806116,10.109691395622834
-0.143,0.9559,0.18,-0.2918,0.054,-0.0782,-2.3363,1.2687,-15.1287,10.68343825683926,-8.389967281639288,16.473775783333785,10.121968397399849
-0.1449,0.9573,0.1778,-0.2928,0.055,-0.0793,-2.065,1.2425,-14.8312,10.622977480081179,-8.432334923089623,16.49690546705676,10.134267695902393
-0.1431,0.9573,0.1812,-0.2928,0.055,-0.0793,-2.8612,0.7263,-14.3675,10.638811460289215,-8.397015961892116,16.52149393852803,10.148525921005179
-0.1445,0.9556,0.1796,-0.2921,0.0546,-0.0795,-2.975,1.2687,-14.3587,10.640112870506194,-8.422617559538553,16.55322986664162,10.158602271363891
-0.1465,0.9581,0.1807,-0.2921,0.0546,-0.0795,-2.975,1.3737,-14.945,10.649780799376156,-8.494754355201094,16.586275852256545,10.170897676787375
-0.1438,0.9563,0.1825,-0.2894,0.0542,-0.0744,-3.0013,1.0237,-14.9187,10.68895577266799,-8.440682007759236,16.56435864451911,10.183094693485499
-0.1438,0.9565,0.1773,-0.2913,0.051,-0.0786,-2.835,0.875,-14.56,10.661278028150578,-8.424322951271707,16.55154273932129,10.195339842797468
-0.1502,0.9579,0.1789,-0.2913,0.051,-0.0786,-3.2987,0.8663,-14.5775,10.629207045648526,-8.598463724563283,16.540632732867454,10.203913464638632
-0.1435,0.9577,0.1799,-0.2914,0.0547,-0.0786,-2.7388,1.05,-14.5338,10.629891605614269,-8.486869542740187,16.54094759431066,10.21613030064834
-0.1437,0.9575,0.1831,-0.2914,0.0547,-0.0786,-2.2575,1.3125,-14.5775,10.686311793362668,-8.434618975972446,16.548348676904773,10.228388190946326
-0.143,0.9559,0.1795,-0.2909,0.0536,-0.0725,-3.2813,0.9187,-14.4637,10.666769148198574,-8.400305555297809,16.475292455128386,10.24063829508619
-0.144,0.9581,0.1812,-0.2913,0.0538,-0.0784,-2.7475,0.6212,-14.5425,10.670139617581109,-8.400503422141187,16.482615731465938,10.252898662798126
-0.1442,0.9572,0.1795,-0.2913,0.0538,-0.0784,-3.57,0.9187,-14.455,10.646801760907458,-8.411114512778234,16.483168390938946,10.265156553096112
-0.1448,0.9573,0.1781,-0.2915,0.0538,-0.0797,-3.3338,1.1375,-14.4637,10.603500022104136,-8.434084979876195,16.511049853586734,10.277435678370797
-0.1452,0.9573,0.1824,-0.2915,0.0538,-0.0797,-2.8,0.8487,-14.5075,10.62583285642857,-8.45421678423766,16.53857283007317,10.289672687608364
-0.1415,0.9559,0.1796,-0.2896,0.051,-0.0758,-2.7388,1.0325,-14.6912,10.62691576443484,-8.358690963096247,16.51854026479181,10.30196809303185
-0.146,0.9576,0.1784,-0.2918,0.0534,-0.0774,-2.7037,1.2687,-14.6125,10.623959799660785,-8.445365068286527,16.464068559740898,10.314312692818012
-0.1407,0.9551,0.1784,-0.2918,0.0534,-0.0774,-2.5375,1.12,-14.5162,10.619113595454603,-8.342492952770524,16.441868385002643,10.32653979239979
-0.1435,0.955,0.1814,-0.2903,0.0537,-0.0769,-2.9313,0.7,-14.6037,10.647963867067661,-8.371152643676288,16.407948765384567,10.334915928957678
-0.1447,0.9604,0.1809,-0.2903,0.0537,-0.0769,-2.6863,1.0062,-14.385,10.648421126826303,-8.394888837166082,16.40592973320013,10.347172049674274
-0.1437,0.9578,0.1844,-0.2906,0.0554,-0.0727,-3.3863,0.9275,-14.7087,10.75305583242278,-8.387254769997025,16.35769148631848,10.359433833051321
-0.1448,0.9569,0.1772,-0.289,0.0523,-0.0776,-2.8263,1.1812,-14.3587,10.716101916894111,-8.421947741152797,16.366774282572266,10.371731361972476
-0.1441,0.9595,0.1823,-0.289,0.0523,-0.0776,-3.22,1.1375,-14.2887,10.730993758207022,-8.40933911173334,16.377239673607157,10.384689298668885
-0.145,0.9579,0.1835,-0.2895,0.0531,-0.0804,-2.9838,0.8487,-14.2887,10.758626187482525,-8.42977523091176,16.44873130798528,10.396840660167113
-0.1423,0.9567,0.1797,-0.2895,0.0531,-0.077,-3.1588,0.6913,-14.3587,10.718617995278722,-8.378092853522695,16.41897608136422,10.408975387600261
-0.1441,0.9567,0.1798,-0.2932,0.0534,-0.077,-2.905,1.015,-14.49,10.704004377952318,-8.398958796152867,16.412154599538187,10.421111530698521
-0.1452,0.958,0.1828,-0.2919,0.0538,-0.0774,-2.7475,0.9538,-14.6125,10.711805426752507,-8.435067705953019,16.40842846034178,10.433302530819915
-0.1465,0.957,0.1771,-0.2919,0.0538,-0.0774,-2.905,1.1725,-15.085,10.667340857688904,-8.511554963993092,16.38622195226389,10.445566083778354
-0.143,0.9574,0.1754,-0.2909,0.0531,-0.0808,-3.2288,1.0937,-14.9187,10.564007867271226,-8.421870286827296,16.433376210592005,10.457590035416402
-0.1441,0.9578,0.1811,-0.2909,0.0536,-0.0763,-2.5813,1.015,-14.7175,10.574681300192507,-8.414904310055846,16.42637935817844,10.467055526278815
-0.1418,0.9542,0.1817,-0.2901,0.0536,-0.0763,-2.87,1.225,-14.9012,10.610259675441398,-8.35137852518408,16.38234046696003,10.479187776298016
-0.1451,0.9568,0.1815,-0.2928,0.0523,-0.0789,-2.9925,1.0762,-14.5338,10.642762423306873,-8.413456954452734,16.389949703117548,10.491367451098503
-0.1446,0.9562,0.1771,-0.2928,0.0523,-0.0789,-2.7125,1.1987,-14.1925,10.635554245879838,-8.431285647032043,16.39977533492182,10.503543940652488
-0.1418,0.9569,0.1825,-0.2934,0.0532,-0.0801,-2.9925,0.4638,-14.7525,10.675856633939258,-8.34871870500434,16.499168739018064,10.515711582299515
-0.1421,0.9575,0.1821,-0.2937,0.0504,-0.0742,-2.7562,0.63,-14.3238,10.683800018527542,-8.324676797447779,16.248154777067626,10.527834984411758
-0.1428,0.9556,0.181,-0.2937,0.0504,-0.0742,-2.5463,1.4437,-14.5425,10.688104383590005,-8.33889572523572,16.029233037672437,10.540059606579588
-0.1439,0.9578,0.1846,-0.2909,0.053,-0.0778,-2.7125,1.2425,-14.63,10.698736864415878,-8.36690768755596,16.108327620765184,10.552196457510405
-0.1434,0.9589,0.1817,-0.2909,0.053,-0.0778,-2.4588,1.1462,-14.0612,10.703956115332058,-8.364030539937133,16.147483062291204,10.564378255808563
-0.1445,0.9551,0.1831,-0.2887,0.0541,-0.076,-2.5813,1.1375,-14.5862,10.715031573653153,-8.409308858756397,16.158989857236463,10.576553683613712
-0.1458,0.9552,0.1779,-0.2895,0.0529,-0.0762,-2.7213,1.2512,-14.6825,10.705790515970072,-8.476470638600016,16.159261132637017,10.585900612522904
-0.145,0.9568,0.1807,-0.2895,0.0529,-0.0762,-2.9225,1.0325,-14.4025,10.703527123584358,-8.47339249813863,16.160061928872164,10.598146823583708
-0.1419,0.9575,0.1791,-0.2918,0.0526,-0.0788,-3.0713,0.63,-14.5425,10.671924575795927,-8.37949649985364,16.25038662705221,10.61026597870061
-0.1466,0.9561,0.1817,-0.2918,0.0526,-0.0788,-2.6425,0.595,-14.9537,10.673610821115853,-8.48972516894843,16.327852855203343,10.622449900496438
-0.1437,0.9576,0.181,-0.2933,0.0521,-0.0778,-2.8525,0.5163,-14.9975,10.678385694977836,-8.428935843000009,16.30199974719167,10.634523400413446
-0.1433,0.9565,0.1847,-0.2906,0.0526,-0.081,-2.6163,1.2337,-14.77,10.68933778249107,-8.3951230844409,16.43830378429146,10.646756516571953
-0.1429,0.9562,0.1824,-0.2906,0.0526,-0.081,-2.6163,1.12,-14.7087,10.694155880789518,-8.371279355073318,16.50072160725496,10.658953887186355
-0.143,0.9564,0.1809,-0.2913,0.053,-0.0787,-2.8963,1.0762,-14.42,10.697311827996934,-8.364861777536117,16.503446746420234,10.671088260703225
-0.1435,0.9561,0.1829,-0.2913,0.053,-0.0787,-3.2025,1.1287,-14.28,10.743774438611686,-8.3739811856392,16.50918179002871,10.683246700527016
-0.143,0.9565,0.1782,-0.2902,0.0541,-0.0801,-2.2138,0.8225,-14.3762,10.684878241944782,-8.36804725854321,16.558101129566452,10.6953743496346
-0.145,0.9577,0.1801,-0.2903,0.0533,-0.0804,-2.0388,0.9363,-14.1662,10.671624596007993,-8.4056046212223,16.575121703992302,10.707540929532792
-0.1462,0.958,0.1825,-0.2903,0.0533,-0.0804,-3.15,1.1987,-14.28,10.709030174762422,-8.457745814877045,16.632653772596225,10.71697669142783
-0.1423,0.9564,0.1809,-0.2915,0.0521,-0.0782,-3.0975,0.875,-14.4462,10.709560547802582,-8.390096187370808,16.609894871922688,10.72916415238644
-0.1451,0.956,0.1798,-0.2915,0.0521,-0.0782,-2.0388,1.1025,-14.7175,10.687268720724036,-8.441284615255697,16.589297275972235,10.741551929958554
-0.1428,0.9573,0.1765,-0.2924,0.0524,-0.0791,-2.275,1.4262,-14.525,10.620086324425815,-8.39320675478761,16.561933392872813,10.753434315085292
-0.1432,0.9564,0.1816,-0.29,0.0527,-0.0762,-2.3975,1.3912,-14.5687,10.647519667799367,-8.380371537646992,16.445384694418998,10.765627084788077
-0.1416,0.9565,0.1775,-0.29,0.0527,-0.0762,-2.695,0.875,-14.4025,10.643212766958113,-8.333894471707266,16.412106863614184,10.777782339365364
-0.1459,0.9586,0.1806,-0.2906,0.0538,-0.0787,-3.0275,0.9363,-14.2362,10.650235938944975,-8.406271028230366,16.42110166124091,10.789914589384566
-0.1414,0.9566,0.1816,-0.2906,0.0538,-0.0787,-3.0975,0.9363,-14.945,10.680221095708335,-8.321857969509985,16.43011988419444,10.80208470844554
-0.1441,0.9547,0.1751,-0.2914,0.0534,-0.0768,-2.8788,0.9887,-13.7987,10.629038582528796,-8.348947957698282,16.42970921352489,10.814259074501855
-0.1438,0.9575,0.1773,-0.2919,0.054,-0.0762,-2.6513,0.7613,-14.6125,10.627580906542072,-8.37581242095817,16.360116102769823,10.826449012874413
-0.1394,0.9581,0.185,-0.2919,0.054,-0.0762,-2.275,0.9713,-14.6125,10.711610250762773,-8.247270648613222,16.355535941231356,10.838505170893784
-0.1431,0.9568,0.1781,-0.2898,0.0523,-0.0778,-2.6338,0.9713,-14.4812,10.707034170487846,-8.304907446633992,16.356629109428955,10.847966768677136
-0.1413,0.9565,0.1819,-0.2898,0.0523,-0.0778,-3.1238,1.4262,-14.4112,10.726139604497215,-8.282461159346825,16.382683599654563,10.860160600128754
-0.1436,0.9556,0.1814,-0.2931,0.0523,-0.0837,-3.57,1.3737,-14.77,10.736769785840336,-8.346886724385088,16.63922657307063,10.872342398426913
-0.1452,0.9575,0.1771,-0.2896,0.0526,-0.0791,-3.3688,1.0762,-14.7525,10.630040196553155,-8.421169493559466,16.640635101069368,10.884515348818114
-0.1444,0.9566,0.1802,-0.2896,0.0526,-0.0791,-3.675,1.4612,-14.2887,10.649196656679301,-8.428444720603004,16.653614941113112,10.896676619972133
-0.1445,0.9552,0.1797,-0.2915,0.0539,-0.0786,-3.4213,1.54,-14.21,10.6514506026845,-8.439815318001594,16.607278217501985,10.908801437749489
-0.1443,0.9577,0.1779,-0.2915,0.0539,-0.0786,-2.2488,0.8575,-14.6562,10.613949780032573,-8.432705664469415,16.595351948832793,10.92098040471742
-0.1461,0.9567,0.1832,-0.291,0.0536,-0.0839,-3.4213,0.9538,-14.805,10.711700323571938,-8.48753831718394,16.62728801809356,10.933136367127265
-0.1407,0.9564,0.1781,-0.2925,0.0526,-0.0777,-2.4675,0.5775,-14.9888,10.685172755060531,-8.333820710165007,16.520955368354365,10.945273218058084
-0.145,0.9565,0.1794,-0.2925,0.0526,-0.0777,-2.1438,0.6913,-14.7437,10.663922535006188,-8.41137963744415,16.464136852670542,10.957441921453945
-0.1441,0.9567,0.1821,-0.292,0.0541,-0.0794,-2.5025,1.4088,-14.455,10.679454342491514,-8.413967893580454,16.521770330815993,10.969558599156901
-0.1446,0.9573,0.1814,-0.292,0.0541,-0.0794,-3.0188,0.9275,-14.595,10.69270390163138,-8.42830657058097,16.52953896139957,10.979044263247175
-0.1454,0.9575,0.1789,-0.2878,0.0533,-0.0786,-2.9138,0.9187,-14.9275,10.670665216956158,-8.464362222773193,16.54059082652735,10.99124092602902
-0.1434,0.9569,0.1781,-0.29,0.0542,-0.0788,-2.555,0.7088,-14.4987,10.658365724605867,-8.423042001251414,16.56030457717753,11.003367513387769
-0.1419,0.9573,0.1825,-0.29,0.0542,-0.0788,-2.5025,0.9013,-14.4112,10.676931579133203,-8.357548200915469,16.56871790976939,11.015508257397647
-0.1457,0.9573,0.182,-0.289,0.0514,-0.0788,-2.5988,1.2163,-14.7087,10.682132183760608,-8.437180973663718,16.582110237456526,11.0276787303749
-0.1432,0.9571,0.1837,-0.289,0.0514,-0.0788,-2.5375,0.7788,-14.6737,10.702356632108428,-8.395238703798759,16.59446381321638,11.039835400617301
-0.1402,0.9564,0.1807,-0.2915,0.0549,-0.0797,-3.01,0.8225,-14.5513,10.701544222839653,-8.294197570851505,16.61658942276867,11.05198039162252
-0.1449,0.9576,0.1781,-0.2932,0.0533,-0.0778,-2.5375,1.0237,-15.1025,10.683203549332994,-8.396857355978598,16.605104745822164,11.064161128171841
-0.142,0.9564,0.1831,-0.2932,0.0533,-0.0778,-3.0538,0.7437,-14.7262,10.726775583569898,-8.341990962216725,16.544847865338,11.076354251790905
-0.1426,0.9562,0.1795,-0.2907,0.0545,-0.0782,-2.6163,0.7962,-15.19,10.722636620550936,-8.339848335275802,16.538510796887,11.088524724768158
-0.1454,0.9568,0.1818,-0.2907,0.0545,-0.0782,-2.73,1.2425,-14.665,10.724917353813359,-8.420790357061376,16.53546204239718,11.097911292300516
-0.1427,0.9565,0.1809,-0.2911,0.0537,-0.078,-2.8,1.0412,-14.49,10.723069447504992,-8.38073944600224,16.530786214135457,11.110043896235995
-0.1453,0.9561,0.1779,-0.2899,0.0532,-0.0785,-2.555,0.84,-14.0087,10.705421165351545,-8.419334299917889,16.534219852325318,11.12223206502716
-0.143,0.9558,0.1796,-0.2899,0.0532,-0.0785,-2.2488,0.9013,-14.1225,10.686906860726042,-8.398731546382555,16.537122571312985,11.13442200339972
-0.1444,0.9581,0.1807,-0.2922,0.0516,-0.0782,-2.6163,0.7962,-14.6212,10.686634317674603,-8.412257323885466,16.50831432613096,11.146562039577042
-0.146,0.956,0.1798,-0.2922,0.0516,-0.0782,-2.765,0.8312,-14.98,10.68335135015283,-8.485623369634332,16.48754360833163,11.159570232384969
-0.1425,0.9578,0.1819,-0.2919,0.054,-0.0745,-2.485,0.7437,-14.3413,10.69385739000965,-8.408799901713298,16.34920984007649,11.170585168713659
-0.1445,0.9575,0.1809,-0.2905,0.0524,-0.0776,-2.24,0.5862,-14.2187,10.695311469668285,-8.419598289407977,16.35366447274682,11.182648405058597
-0.146,0.9572,0.1828,-0.2905,0.0524,-0.0776,-2.3975,0.6563,-14.84,10.719673864688039,-8.47721902154548,16.360171574581024,11.195106611970086
-0.1436,0.9582,0.1829,-0.2901,0.0531,-0.0782,-3.325,1.0587,-14.3238,10.754312217573396,-8.431150065627442,16.37070404769067,11.207102250305873
-0.1442,0.9572,0.1776,-0.2901,0.0531,-0.0782,-2.7913,0.945,-14.3762,10.726465526258712,-8.42847900099637,16.375704509225873,11.219527896919761
-0.147,0.9584,0.1816,-0.2898,0.0537,-0.0707,-1.8637,1.1725,-14.175,10.727743855322714,-8.484710423600824,16.19445199020076,11.228931098517197
-0.1425,0.9567,0.1818,-0.2906,0.0528,-0.0782,-2.6688,1.33,-14.805,10.727960313186523,-8.394781751473344,16.26788771191224,11.241117497726973
-0.1466,0.957,0.1789,-0.2906,0.0528,-0.0782,-3.0188,0.9538,-14.2975,10.691298922019394,-8.468696214426343,16.27475168461154,11.253226389271807
-0.1455,0.9572,0.1812,-0.2918,0.0522,-0.0824,-2.8963,0.735,-13.9825,10.696628614408684,-8.476922256781428,16.451686728558506,11.265431546044331
-0.1407,0.9568,0.183,-0.2918,0.0522,-0.0824,-2.485,1.505,-14.455,10.71634438233015,-8.3517991249692,16.691225854400106,11.27758043012861
-0.1453,0.9572,0.1812,-0.2913,0.0542,-0.0686,-2.87,1.4612,-14.6475,10.716865533550234,-8.421479739972682,16.073042295086104,11.289738162119846
-0.1464,0.9558,0.1778,-0.2898,0.0535,-0.0782,-3.1412,1.3825,-14.9275,10.658862751648504,-8.504710394917295,16.197939838965812,11.301944026724927
-0.145,0.957,0.1767,-0.2898,0.0535,-0.0782,-2.7388,1.3212,-14.245,10.64475846992869,-8.491979816033261,16.27448642750263,11.314045839944194
-0.144,0.956,0.1787,-0.2901,0.0547,-0.083,-4.41,1.3387,-14.7788,10.608532163443984,-8.453027751723377,16.562494610507922,11.326231177405136
-0.1436,0.9577,0.1796,-0.2901,0.0547,-0.083,-2.6863,1.505,-14.4725,10.608839591532696,-8.419039452748349,16.844827699381177,11.33841156003818
-0.1417,0.9556,0.1787,-0.291,0.0542,-0.0803,-2.7213,1.2775,-14.595,10.60790389624975,-8.353535010393697,16.845917232541495,11.35057460077359
-0.1447,0.9555,0.1789,-0.2928,0.0534,-0.0784,-2.87,0.8312,-14.7175,10.607371153315412,-8.415178672479428,16.784795755295495,11.359957275226888
-0.1462,0.958,0.1801,-0.2928,0.0534,-0.0784,-3.1063,0.91,-14.77,10.619592716824926,-8.478948689343305,16.756684582293964,11.372131641283202
-0.1437,0.9565,0.1784,-0.2915,0.0526,-0.0786,-2.6863,1.3737,-14.5162,10.618295415170467,-8.440050089299321,16.679473776583908,11.384386346334685
-0.1455,0.9574,0.1798,-0.2915,0.0526,-0.0786,-2.45,1.1287,-14.8575,10.621439753119766,-8.471578256441125,16.656159705539512,11.3964824968935
-0.1409,0.9569,0.1787,-0.2902,0.0531,-0.0792,-2.6688,0.875,-15.0237,10.621144426278988,-8.329924612703742,16.657295875755516,11.408665003024215
-0.1443,0.9559,0.1806,-0.2914,0.0533,-0.079,-3.15,0.8225,-14.7613,10.646643628575267,-8.389513103055934,16.647584957566494,11.420760799666752
-0.1464,0.9571,0.1813,-0.2914,0.0533,-0.079,-2.7475,0.7788,-14.4987,10.652917210193953,-8.467592875362065,16.638202965450418,11.432958170281156
-0.1439,0.9565,0.1793,-0.2916,0.0519,-0.0815,-2.0825,0.7,-14.2712,10.639785761565042,-8.44336019445412,16.71417559970454,11.445150232151382
-0.1429,0.9582,0.1806,-0.2916,0.0519,-0.0815,-2.345,1.0325,-14.7962,10.64797177991801,-8.38393240105761,16.725058855936886,11.457280004756635
-0.1464,0.9584,0.1782,-0.2915,0.0512,-0.0818,-2.7037,1.2512,-15.0237,10.643363426209927,-8.478317470662184,16.783524248283285,11.46942782709208
-0.1435,0.9575,0.1807,-0.2901,0.0521,-0.0771,-2.94,1.2512,-13.9387,10.65290101479783,-8.448390961529482,16.68070437712617,11.481536364720634
-0.1436,0.9564,0.1762,-0.2901,0.0521,-0.0771,-2.8788,0.9887,-14.735,10.614727230190685,-8.42162150212054,16.68005523163791,11.4910075182435
-0.1462,0.9572,0.1812,-0.2914,0.0531,-0.0743,-3.71,1.2075,-14.56,10.6682765149935,-8.479446386209885,16.514095706592478,11.503196040950945
-0.1432,0.9578,0.1817,-0.2914,0.053,-0.077,-3.0713,0.7875,-14.3587,10.689598398498305,-8.423142772007397,16.466476545917413,11.515296084588822
-0.1448,0.9557,0.176,-0.2902,0.053,-0.077,-2.9225,1.0675,-14.5775,10.63688532070492,-8.449894028077594,16.451254695372167,11.527466557566076
-0.1469,0.9567,0.1805,-0.2926,0.0537,-0.0788,-3.1937,0.595,-14.3937,10.653368761224826,-8.51094517065062,16.46513134657882,11.53965932726886
-0.1436,0.9564,0.1807,-0.2926,0.0537,-0.0788,-2.8438,0.8138,-14.385,10.660422548252074,-8.455918987751067,16.470546254973907,11.551808565269418
-0.1448,0.9584,0.1809,-0.2918,0.0538,-0.0798,-2.3538,0.9887,-14.4375,10.667140613098352,-8.450514436105774,16.470929287307598,11.56399567231175
-0.1443,0.9572,0.1829,-0.2899,0.0524,-0.0775,-2.3712,0.84,-14.8575,10.701026573411236,-8.434616143172386,16.460808734665505,11.576249315614398
-0.1444,0.9546,0.1797,-0.2899,0.0524,-0.0775,-2.6338,1.1025,-14.8137,10.69992990143614,-8.446396712467921,16.45199745541824,11.588309012796552
-0.1423,0.9578,0.1813,-0.2902,0.0523,-0.0785,-2.555,0.6563,-14.2712,10.70173229296106,-8.38562312900597,16.47409871396624,11.600479131857526
-0.1437,0.9575,0.1807,-0.2902,0.0523,-0.0785,-3.0013,1.2775,-14.8312,10.698050671107161,-8.387673239121401,16.48807636095423,11.612594747811647
-0.1444,0.9557,0.181,-0.2917,0.0537,-0.0768,-2.8875,0.9013,-14.7175,10.70286870533496,-8.41850098419497,16.464286399056288,11.622226933241127
-0.1451,0.957,0.178,-0.2906,0.0537,-0.0803,-2.4675,1.4175,-14.4637,10.675784327442713,-8.447590734680537,16.580380157181228,11.633536327913342
-0.1435,0.9561,0.1853,-0.2906,0.0537,-0.0803,-2.1788,1.155,-14.7437,10.771108772862991,-8.41146268284187,16.62671812731398,11.645756703085832
-0.147,0.9567,0.1781,-0.2886,0.0526,-0.079,-2.94,1.0587,-14.455,10.722027119973479,-8.497978340319438,16.63153135033267,11.65799194274201
-0.1442,0.957,0.1848,-0.2886,0.0526,-0.079,-2.7388,1.1987,-14.2187,10.736833933713626,-8.4639754731598,16.65201374513705,11.670106496947296
-0.1451,0.9564,0.1768,-0.2922,0.0538,-0.0746,-2.4763,1.3037,-14.56,10.695595317687706,-8.474824242429793,16.436428377537872,11.682663092584145
-0.1457,0.9557,0.1804,-0.2925,0.053,-0.0753,-2.66,1.0412,-14.175,10.695583497255086,-8.49278762578661,16.4087924619731,11.694574144929424
-0.1428,0.9579,0.1821,-0.2925,0.053,-0.0753,-2.9225,1.1812,-14.5162,10.709659500233037,-8.41231485370719,16.323266033353285,11.706862472027343
-0.145,0.9559,0.1793,-0.2897,0.0502,-0.0779,-2.9225,1.3737,-14.6125,10.69187846927275,-8.447589097145727,16.343040171882294,11.71906090439058
-0.1448,0.9553,0.1804,-0.2897,0.0502,-0.0779,-3.0363,0.9363,-14.6125,10.692421635223543,-8.460112142279932,16.346113737687265,11.731296144046757
-0.1412,0.9568,0.1846,-0.2901,0.0544,-0.0853,-2.9838,1.05,-14.7437,10.747876058055283,-8.341497308643795,16.429792410973096,11.739802875711328
-0.146,0.9555,0.1781,-0.2912,0.0523,-0.0762,-2.4325,1.2075,-14.9975,10.712525993970187,-8.46162602703598,16.363508375630364,11.752112083869664
-0.1427,0.9567,0.18,-0.2912,0.0523,-0.0762,-2.4588,1.26,-14.2362,10.70288888563147,-8.410422063343457,16.301122477196024,11.765269275430743
-0.1427,0.9581,0.1842,-0.2906,0.0529,-0.0779,-2.6513,1.1112,-13.9912,10.704781867936253,-8.38164856417318,16.317082925314896,11.777374981729073
-0.1435,0.9567,0.1795,-0.2906,0.0529,-0.0779,-1.8288,1.3125,-14.7437,10.669215179818588,-8.384198454665068,16.341250917745317,11.789543685124935
-0.1424,0.955,0.1797,-0.2914,0.0529,-0.0734,-2.66,0.8225,-14.8837,10.66919071416809,-8.356748649933758,16.23116354927434,11.801707079776623
-0.1454,0.9554,0.1787,-0.2913,0.0515,-0.0757,-2.8438,1.3037,-14.8312,10.65766808754687,-8.442678235323438,16.163559872920946,11.813878968418988
-0.1422,0.9551,0.184,-0.2913,0.0515,-0.0757,-3.5088,1.2862,-14.665,10.770821999311925,-8.375743912283488,16.122972169323038,11.826006617526572
-0.1435,0.9572,0.185,-0.2895,0.0536,-0.0794,-3.08,0.945,-14.4637,10.820343621196084,-8.374594827251874,16.152295860401278,11.838224869201392
-0.1463,0.9571,0.179,-0.2895,0.0536,-0.0794,-3.5088,0.9538,-14.2275,10.716220320608176,-8.445442458292893,16.173522021569042,11.850376938532175
-0.1444,0.9574,0.1801,-0.2908,0.0538,-0.0838,-2.9838,0.98,-14.2975,10.700977000044496,-8.439233793091201,16.18672653423779,11.862541748848976
-0.1435,0.9564,0.1804,-0.2926,0.0539,-0.0775,-2.3975,0.7175,-14.6562,10.696978121494142,-8.411591828123328,16.20540758479326,11.872102089273966
-0.144,0.9559,0.1825,-0.2926,0.0539,-0.0775,-2.2838,1.0587,-14.9713,10.727663006496035,-8.414810699136217,16.210876934092497,11.884078970047003
-0.1456,0.9578,0.1793,-0.2914,0.0527,-0.0781,-2.765,1.2163,-14.5687,10.716019676612703,-8.457607756550154,16.246195468276248,11.896269970168397
-0.1425,0.9584,0.1857,-0.2914,0.0527,-0.0781,-3.2375,1.1812,-14.9362,10.807255477891227,-8.367940839300285,16.278529153377953,11.908441504894485
-0.1447,0.958,0.1853,-0.2912,0.0535,-0.0805,-2.7388,1.19,-14.3762,10.817242249473944,-8.399065331493206,16.38257637756615,11.920599236885721
-0.1455,0.9566,0.177,-0.2906,0.0523,-0.0779,-2.6775,1.1025,-14.035,10.812120528630164,-8.435722767620517,16.382629462252865,11.932726532077025
-0.143,0.9557,0.1817,-0.2906,0.0523,-0.0779,-2.8612,1.3912,-14.525,10.80424771812435,-8.398848704984852,16.392868574766307,11.944908330375183
-0.1446,0.9563,0.1827,-0.2928,0.0538,-0.0787,-2.4763,1.2075,-14.6562,10.806080933064894,-8.424991515849966,16.41041504809676,11.957083758180334
-0.1455,0.955,0.1799,-0.2928,0.0538,-0.0787,-2.5375,1.1987,-14.5425,10.790820143583732,-8.470714686118928,16.421069884994886,11.969274758301726
