AcclX,AcclY,AcclZ,MagX,MagY,MagZ,GyroX,GyroY,GyroZ,Roll,Pitch,Yaw,Time(s)
-0.1459,0.958,0.1795,-0.2896,0.0534,-0.0746,-2.7388,1.2075,-14.7,0,0,0,1.6223918582268015
-0.1383,0.9335,0.1806,-0.2914,0.0534,-0.0746,-2.8087,1.2075,-14.7,0,0,0,1.6344706668879823
-0.1426,0.9573,0.1776,-0.2919,0.0522,-0.0796,-2.9225,0.9975,-14.6125,0,0,0,1.6439379273317862
-0.1451,0.9558,0.1796,-0.2919,0.0522,-0.0796,-2.8438,0.7088,-14.14,0,0,0,1.656305885592316
-0.1446,0.9564,0.1832,-0.2907,0.0533,-0.0793,-2.9838,0.9538,-14.1925,0,0,0,1.6682555148119271
-0.1405,0.9553,0.1819,-0.2907,0.0533,-0.0793,-2.9225,1.3475,-14.735,0,0,0,1.680418909463615
-0.1442,0.9551,0.1776,-0.2897,0.0538,-0.0786,-2.7562,0.8838,-14.56,0,0,0,1.6925929216036513
-0.1422,0.9561,0.1797,-0.2897,0.0538,-0.0786,-2.765,1.19,-13.8425,0,0,0,1.7049265499851884
-0.1439,0.9576,0.1789,-0.2929,0.0554,-0.0742,-1.9775,1.1112,-14.5687,0,0,0,1.7168991837628873
-0.1443,0.9554,0.1779,-0.2901,0.0538,-0.0784,-2.8875,1.05,-14.5425,0,0,0,1.7290894760517241
-0.1423,0.9586,0.1826,-0.2901,0.0538,-0.0784,-3.01,1.0237,-13.685,0,0,0,1.7412652577731516
-0.1455,0.9556,0.1795,-0.2914,0.0522,-0.078,-3.22,1.0937,-14.5513,0,0,0,1.7534442247410835
-0.1424,0.9557,0.179,-0.2914,0.0522,-0.078,-3.3075,0.8138,-14.455,0,0,0,1.762842117594346
-0.1437,0.9577,0.1832,-0.2906,0.0526,-0.0713,-2.695,1.0325,-14.7788,0,0,0,1.774972951948433
-0.143,0.9573,0.1792,-0.2922,0.0526,-0.0786,-3.0713,1.365,-14.91,0,0,0,1.7871621824884347
-0.1421,0.9555,0.1804,-0.2922,0.0526,-0.0786,-2.5113,0.63,-14.1487,0,0,0,1.799485193381624
-0.1427,0.9578,0.183,-0.2897,0.053,-0.0794,-3.0188,1.365,-14.805,0,0,0,1.8116960128146005
-0.1441,0.9574,0.1803,-0.2897,0.053,-0.0794,-2.7562,1.0412,-14.56,0,0,0,1.823622637476124
-0.1458,0.9571,0.1789,-0.2913,0.0535,-0.0814,-2.5988,0.805,-14.8575,0,0,0,1.8358125758486823
-0.1408,0.9568,0.1846,-0.2917,0.0549,-0.0789,-3.0188,1.2337,-14.6737,0,0,0,1.8479543816073956
-0.1417,0.957,0.1816,-0.2917,0.0549,-0.0789,-2.9663,1.0587,-14.805,0,0,0,1.8601393651520584
-0.143,0.9556,0.1801,-0.2924,0.0505,-0.0778,-2.9488,0.7263,-14.6125,0,0,0,1.8722641829294144
-0.1435,0.9565,0.1801,-0.2924,0.0505,-0.0778,-2.5463,1.2163,-14.525,0,0,0,1.8844389029020072
-0.1434,0.9557,0.1809,-0.2915,0.0543,-0.0783,-2.8438,1.0762,-14.805,0,0,0,1.8938498906575658
-0.1437,0.9571,0.1827,-0.2914,0.0531,-0.0792,-2.8438,1.4437,-14.0875,0,0,0,1.9061244150206316
-0.1452,0.9575,0.1801,-0.2914,0.0531,-0.0792,-3.0713,1.3475,-14.1662,0,0,0,1.9182616198677274
-0.1449,0.9576,0.1797,-0.2918,0.0547,-0.0778,-2.94,1.4525,-14.9187,0,0,0,1.9303659105009436
-0.1421,0.9562,0.1849,-0.2918,0.0547,-0.0778,-3.0538,1.2862,-14.91,0,0,0,1.9424928517759694
-0.1446,0.9567,0.1782,-0.2937,0.0522,-0.0788,-3.2638,0.9713,-14.7175,0,0,0,1.954663324753223
-0.1439,0.9575,0.1819,-0.2906,0.0535,-0.0775,-3.0538,0.6475,-14.7788,0,0,0,1.9668532631257813
-0.1421,0.9565,0.1798,-0.2906,0.0535,-0.0775,-2.8612,0.875,-14.8225,0,0,0,1.9789780809031376
-0.1434,0.9567,0.1829,-0.2926,0.0523,-0.0783,-3.3075,1.015,-14.3325,0,0,0,1.9911545704571216
-0.1462,0.9557,0.1801,-0.2926,0.0523,-0.0783,-2.94,1.5312,-14.4637,0,0,0,2.003328582597158
-0.1429,0.9581,0.1867,-0.2881,0.0523,-0.0784,-3.15,1.0587,-14.0087,0,0,0,2.015480651927941
-0.1441,0.9564,0.1773,-0.2918,0.0518,-0.0793,-2.6863,1.0937,-14.595,0,0,0,2.02498578141352
-0.1434,0.9564,0.1825,-0.2918,0.0518,-0.0793,-3.1675,0.9538,-15.0762,0,0,0,2.0370497255910136
-0.1412,0.957,0.1833,-0.2899,0.0534,-0.0776,-2.3712,0.945,-14.5513,0,0,0,2.049280010419295
-0.145,0.9595,0.1798,-0.2899,0.0534,-0.0776,-2.1963,0.8838,-14.4287,0,0,0,2.0615463947079604
-0.1436,0.955,0.1849,-0.2911,0.053,-0.0799,-2.2925,1.0325,-14.7613,0,0,0,2.0735636219367217
-0.1424,0.9554,0.1835,-0.2906,0.0522,-0.0777,-2.835,0.6388,-14.035,0,0,0,2.085689501462913
-0.1465,0.9587,0.1821,-0.2906,0.0522,-0.0777,-2.275,1.0587,-14.4987,0,0,0,2.0978521882820442
-0.1444,0.957,0.1825,-0.2914,0.0535,-0.0786,-2.2313,1.2687,-14.3762,0,0,0,2.1100262004220807
-0.1433,0.9568,0.1814,-0.2914,0.0535,-0.0786,-3.0975,0.945,-14.2362,0,0,0,2.122237019855057
-0.1449,0.9562,0.1799,-0.2898,0.0537,-0.0774,-2.8263,0.5862,-14.4287,0,0,0,2.1344007684230233
-0.1437,0.9575,0.1807,-0.2906,0.0536,-0.0777,-2.6338,0.8838,-14.3762,0,0,0,2.146454802944725
-0.1437,0.9576,0.1793,-0.2906,0.0536,-0.0777,-2.6863,1.0937,-14.5425,0,0,0,2.155920647723416
-0.1438,0.957,0.1832,-0.2906,0.0542,-0.0723,-2.6075,0.7962,-14.5425,0,0,0,2.1683310759373384
-0.1407,0.9537,0.1789,-0.2906,0.0542,-0.0723,-3.15,0.8312,-14.63,0,0,0,2.1802601780128095
-0.1452,0.9564,0.1815,-0.2913,0.0532,-0.0786,-2.4763,1.3212,-14.4812,0,0,0,2.1924055229343056
-0.1459,0.9579,0.1797,-0.2906,0.0534,-0.0787,-3.0275,1.2425,-14.1487,0,0,0,2.204560423595315
-0.1454,0.9562,0.1787,-0.2906,0.0534,-0.0787,-2.7738,1.0062,-14.42,0,0,0,2.2167351435679077
-0.143,0.9559,0.1795,-0.2902,0.0542,-0.0802,-2.5113,0.9013,-14.5687,0,0,0,2.2289328680985885
-0.1459,0.9561,0.1792,-0.2902,0.0542,-0.0802,-2.7125,0.9538,-14.1225,0,0,0,2.241041051810866
-0.1447,0.9576,0.1798,-0.2909,0.0538,-0.0785,-2.9138,1.1987,-14.7525,0,0,0,2.2532228501090237
-0.1469,0.9576,0.1818,-0.2917,0.0519,-0.0796,-3.4038,1.5837,-14.4025,0,0,0,2.265408541486243
-0.1463,0.9569,0.1846,-0.2917,0.0519,-0.0796,-2.8,0.98,-14.7437,0,0,0,2.277518494779912
-0.1436,0.9536,0.1816,-0.2906,0.0536,-0.074,-2.3187,1.0412,-14.84,0,0,0,2.2869298364517485
-0.144,0.9567,0.1834,-0.2906,0.0536,-0.0794,-1.8463,0.9538,-14.3762,0,0,0,2.29911305041502
-0.1451,0.9565,0.1783,-0.2923,0.0515,-0.0794,-3.0188,1.0762,-15.0325,0,0,0,2.3114119950012864
-0.1441,0.9575,0.1825,-0.2898,0.0522,-0.0788,-3.1325,0.9975,-14.5775,0,0,0,2.323478770509006
-0.1441,0.9566,0.1799,-0.2898,0.0522,-0.0788,-2.905,1.1812,-14.4462,0,0,0,2.3356382720816327
-0.142,0.9586,0.1857,-0.291,0.0538,-0.0798,-2.4063,0.7788,-14.5687,0,0,0,2.3478076833100516
-0.1446,0.9553,0.1781,-0.291,0.0534,-0.0796,-2.9488,0.6212,-14.2975,0,0,0,2.359949842985043
-0.1424,0.9564,0.1835,-0.2895,0.0534,-0.0796,-2.7213,0.91,-15.1112,0,0,0,2.3721270403715837
-0.1427,0.9557,0.1807,-0.2926,0.0529,-0.0782,-3.0625,1.5137,-14.7788,0,0,0,2.3842854801953757
-0.146,0.9551,0.1779,-0.2926,0.0529,-0.0782,-1.9512,1.19,-14.5425,0,0,0,2.396407820558784
-0.1426,0.9574,0.1813,-0.29,0.0532,-0.0772,-2.0213,0.7,-14.5425,0,0,0,2.4062696976528626
-0.1429,0.9589,0.1788,-0.2905,0.0546,-0.079,-3.5788,0.7525,-14.315,0,0,0,2.418024319003145
-0.1438,0.9556,0.1832,-0.2905,0.0546,-0.079,-3.1412,0.5862,-14.7262,0,0,0,2.4302075329664166
-0.144,0.9576,0.1809,-0.2903,0.0521,-0.0797,-2.835,1.12,-14.4812,0,0,0,2.442400302669201
-0.1449,0.9564,0.1771,-0.2903,0.0521,-0.0797,-2.8612,1.1112,-14.3325,0,0,0,2.4544550450234595
-0.1446,0.9573,0.1828,-0.29,0.053,-0.0794,-2.8263,1.0062,-14.63,0,0,0,2.466637551154174
-0.1418,0.9576,0.1803,-0.2908,0.0534,-0.0784,-2.5988,0.8925,-14.595,0,0,0,2.4788264277778977
-0.1423,0.9551,0.1762,-0.2908,0.0534,-0.0784,-3.1588,0.8838,-15.155,0,0,0,2.4910128269876735
-0.143,0.9565,0.1815,-0.2915,0.0518,-0.079,-3.0275,0.7788,-14.6037,0,0,0,2.503123842030177
-0.1451,0.958,0.1811,-0.2915,0.0518,-0.079,-3.0013,0.7613,-14.49,0,0,0,2.515305286412057
-0.1452,0.9562,0.1806,-0.2914,0.0532,-0.0774,-3.4913,1.1025,-14.5075,0,0,0,2.5274838994637108
-0.1443,0.9589,0.1824,-0.2911,0.0537,-0.0755,-2.8788,1.0325,-15.0325,0,0,0,2.5368984263820518
-0.1418,0.9554,0.1828,-0.2911,0.0537,-0.0755,-2.52,1.0675,-14.35,0,0,0,2.549030676401252
-0.1425,0.9561,0.177,-0.2918,0.0528,-0.0783,-2.7913,0.8838,-14.8837,0,0,0,2.5613193574154485
-0.144,0.9564,0.1821,-0.2918,0.0528,-0.0783,-3.0975,0.8312,-14.8925,0,0,0,2.5733776389324894
-0.1427,0.9577,0.1856,-0.291,0.0526,-0.0802,-3.2462,0.7788,-14.3413,0,0,0,2.5855350170074467
-0.1456,0.9557,0.179,-0.2926,0.0542,-0.0766,-2.905,1.0937,-14.245,0,0,0,2.597709383063761
-0.1423,0.9567,0.1841,-0.2926,0.0542,-0.0766,-3.045,1.0412,-14.56,0,0,0,2.609818274608595
-0.1465,0.9562,0.1767,-0.2918,0.0534,-0.0782,-2.7125,1.3737,-14.2625,0,0,0,2.6220223696322846
-0.1451,0.9593,0.1789,-0.2918,0.0534,-0.0782,-3.1238,1.085,-14.2625,0,0,0,2.6342261107396956
-0.1409,0.9563,0.1828,-0.2906,0.0541,-0.0782,-2.87,0.98,-14.1312,0,0,0,2.6464486094098554
-0.143,0.9557,0.1753,-0.2898,0.0545,-0.0765,-2.1963,1.0412,-14.875,0,0,0,2.658425136266615
-0.1448,0.9572,0.1821,-0.2898,0.0545,-0.0765,-2.6075,1.3387,-14.2625,0,0,0,2.667913277770837
-0.1415,0.9562,0.1823,-0.2902,0.0537,-0.0794,-2.7037,0.8925,-14.4287,0,0,0,2.680093660403882
-0.1441,0.9564,0.1784,-0.2902,0.0537,-0.0794,-2.3975,1.4612,-14.6825,0,0,0,2.6922662568788054
-0.147,0.9563,0.1798,-0.295,0.052,-0.0782,-3.1763,1.7237,-14.1925,0,0,0,2.7043716092608565
-0.1444,0.9579,0.1831,-0.2918,0.0525,-0.0789,-3.43,1.3737,-14.14,0,0,0,2.716560131968302
-0.1425,0.96,0.1828,-0.2918,0.0525,-0.0789,-3.0013,1.225,-14.3413,0,0,0,2.7287065386386327
-0.1424,0.9547,0.1774,-0.2904,0.0527,-0.0774,-2.4938,1.435,-14.7262,0,0,0,2.740893291764687
-0.1424,0.957,0.184,-0.2904,0.0527,-0.0774,-2.7562,1.5137,-14.5687,0,0,0,2.7530736743977315
-0.1434,0.9571,0.1819,-0.2907,0.0534,-0.0753,-2.835,1.26,-14.5775,0,0,0,2.7652048626680967
-0.1449,0.9583,0.1813,-0.291,0.0538,-0.0788,-2.7388,1.2163,-14.4725,0,0,0,2.77738772271509
-0.1417,0.9558,0.1719,-0.291,0.0538,-0.0788,-2.3625,1.2163,-14.315,0,0,0,2.789500507338985
-0.1424,0.9567,0.1817,-0.2923,0.0515,-0.0781,-3.2025,1.0675,-13.7812,0,0,0,2.798974492192076
-0.1427,0.957,0.1837,-0.2923,0.0515,-0.0781,-2.7213,1.015,-14.0875,0.7492268518064541,-2.5015273840383223,0.2870051785861512,4.313311463666778
-0.1429,0.9549,0.185,-0.2915,0.0542,-0.0782,-3.0275,1.085,-14.455,3.5635145552369503,-5.09824558746372,1.5964547496650663,4.318292835283471
-0.1428,0.9593,0.1785,-0.2916,0.0528,-0.0778,-2.8612,0.8663,-14.4637,4.793224472161849,-6.538051131717992,3.301407932197944,4.322918874956779
-0.1437,0.9567,0.179,-0.2916,0.0528,-0.0778,-2.9225,0.8312,-14.2275,6.046068857863759,-7.212857956354252,5.157090850709248,4.327474131374431
-0.1429,0.9564,0.1799,-0.2909,0.0533,-0.0786,-3.2462,0.9625,-14.105,7.771764945599073,-7.565030544539164,5.538147418979445,4.331937369559732
-0.146,0.9582,0.1789,-0.2909,0.0533,-0.0786,-3.1588,0.98,-14.525,8.720670690012104,-8.007689933091891,5.7233614841383265,4.336773989418612
-0.1438,0.957,0.1793,-0.291,0.0536,-0.085,-3.1675,0.5862,-14.7262,9.367813758596396,-8.21098054063106,9.202129358049081,4.3413518964780735
-0.1429,0.9551,0.1793,-0.2927,0.0519,-0.0783,-2.3275,0.6038,-14.5862,9.674176294981894,-8.28527086332223,11.22077457701351,4.345866806440003
-0.144,0.9562,0.1818,-0.2927,0.0519,-0.0783,-3.1412,1.1638,-14.63,10.034850561579127,-8.34950999847588,11.956322093145198,4.350367913667079
-0.1441,0.9566,0.1803,-0.2918,0.053,-0.0778,-3.0275,1.05,-14.2975,10.210904603637843,-8.377156503474437,12.17664195341995,4.354767446922291
-0.1437,0.9576,0.1773,-0.2918,0.053,-0.0778,-2.7037,1.0762,-15.1025,10.225795577728237,-8.386932223517583,12.480255688467514,4.357310335381683
-0.1428,0.9575,0.1837,-0.2918,0.0529,-0.0762,-2.9225,1.12,-15.0937,10.362781562556128,-8.354969985269603,12.874257061201149,4.359856055171301
-0.1442,0.957,0.1837,-0.2914,0.0545,-0.0792,-3.6312,1.1112,-14.3762,10.612348710930862,-8.381061270692934,13.263685661652282,4.362400713212084
-0.1441,0.9577,0.1758,-0.2914,0.0545,-0.0792,-3.0713,1.4962,-14.35,10.549617740835854,-8.396249877068167,14.379684062556422,4.36493050676918
-0.1453,0.9568,0.184,-0.289,0.0552,-0.0786,-3.1063,1.1987,-14.4287,10.65530364076917,-8.433513826646877,14.772311070333549,4.367473395228572
-0.1429,0.9584,0.1835,-0.289,0.0552,-0.0786,-3.08,0.6212,-14.8837,10.710774925717056,-8.377246004527597,15.302677692558818,4.369987970385702
-0.1428,0.954,0.1854,-0.2914,0.0526,-0.0812,-2.59,0.735,-14.3413,10.726312748197794,-8.369852590468925,15.654956801406444,4.372627477989062
-0.1454,0.9568,0.1786,-0.2901,0.0534,-0.0782,-2.4063,0.5513,-14.3413,10.696617124606732,-8.421155909312462,15.916257116199846,4.375210358987899
-0.1421,0.9557,0.1762,-0.2901,0.0534,-0.0782,-2.905,0.7875,-14.6912,10.645292425711693,-8.369240222883432,16.014790299247217,4.377728119391533
-0.1446,0.9567,0.1816,-0.2938,0.0526,-0.0788,-2.5988,0.805,-14.8662,10.650036378804078,-8.411398995240122,16.079632077022183,4.3802377397207675
-0.1422,0.9579,0.1819,-0.2938,0.0526,-0.0788,-2.4237,0.6038,-14.4812,10.66869009952289,-8.360081740170962,16.174811406783956,4.3828471644404745
-0.1413,0.9557,0.1835,-0.2924,0.0535,-0.074,-2.6075,0.7525,-14.4637,10.676340766992233,-8.316093617249077,16.07670875766963,4.38539748514171
-0.1446,0.9554,0.1782,-0.291,0.0539,-0.0794,-2.6513,0.84,-14.6125,10.675892117144771,-8.387642066220337,16.15859230066751,4.386829076487325
-0.1441,0.9587,0.1837,-0.291,0.0539,-0.0794,-2.87,1.2775,-14.5775,10.707095727694535,-8.392350872038573,16.280748799712292,4.388076277451959
-0.1449,0.9575,0.1833,-0.2918,0.0519,-0.079,-3.1763,1.26,-14.9012,10.752166774457507,-8.426582684679575,16.336843831847194,4.389300473858506
-0.1444,0.9558,0.1798,-0.2918,0.0519,-0.079,-2.73,0.7263,-14.63,10.744638663467114,-8.435760279139988,16.37740796434787,4.3905140527767035
-0.1445,0.9556,0.1818,-0.2898,0.0531,-0.079,-2.695,1.3037,-14.6562,10.74586866375662,-8.442607379831943,16.44815709117848,4.391731524773963
-0.1423,0.9561,0.181,-0.2908,0.051,-0.0786,-3.3513,0.9887,-14.6825,10.735117265014651,-8.380450938330785,16.448532527036864,4.39295147418517
-0.1459,0.957,0.1787,-0.2908,0.051,-0.0786,-3.0713,1.1462,-14.5338,10.688031285837505,-8.44709040149656,16.45219428396474,4.394176378424273
-0.1418,0.9554,0.1804,-0.2912,0.0526,-0.0803,-2.8,1.1025,-14.5338,10.68866043923383,-8.377335297298956,16.486441777512006,4.39539632783548
-0.1416,0.9552,0.1827,-0.2912,0.0526,-0.0803,-3.0713,1.05,-14.1662,10.730188052915159,-8.345953320167537,16.503618055469772,4.39665874720008
-0.1416,0.9548,0.1799,-0.2904,0.0531,-0.0698,-3.1675,0.8663,-14.4637,10.709717547426179,-8.321818846878354,16.327724938597544,4.39789851592287
-0.144,0.9564,0.182,-0.2904,0.0522,-0.0786,-3.7713,1.0325,-14.2275,10.74394092498726,-8.355119736205028,16.335405788007428,4.399116341836408
-0.1454,0.954,0.1784,-0.2904,0.0522,-0.0786,-2.8175,0.6825,-14.6387,10.721849067551972,-8.436907976118452,16.38199509948342,4.400341246075511
-0.1447,0.9549,0.179,-0.292,0.0537,-0.0769,-1.855,1.3212,-14.595,10.675554371365749,-8.453569230441705,16.33379083141167,4.402009253495012
-0.1452,0.9582,0.179,-0.292,0.0537,-0.0769,-2.2575,1.0937,-14.1925,10.649144358205572,-8.46010056567723,16.32027578296296,4.403316974143231
-0.1437,0.9574,0.1807,-0.2926,0.0525,-0.0889,-2.9225,1.2512,-14.455,10.657594267900796,-8.429047122095039,16.709560142989876,4.404565590772978
-0.1451,0.9566,0.1809,-0.2898,0.0486,-0.0781,-2.5025,1.1638,-14.665,10.664042291508451,-8.453126223388084,16.664493036700694,4.40578058535629
-0.1442,0.957,0.1799,-0.2898,0.0486,-0.0781,-2.2488,1.155,-14.525,10.659016384388174,-8.439349470865773,16.626569748138884,4.406993102525653
-0.1407,0.9567,0.1804,-0.2904,0.0514,-0.0795,-2.765,1.26,-14.4112,10.661077837143477,-8.346650660343503,16.63751241451761,4.408213405853139
-0.147,0.9563,0.1789,-0.2904,0.0514,-0.0795,-2.7037,1.5487,-14.2887,10.657607506919934,-8.441578218697718,16.649525670871988,4.409470870389843
-0.1438,0.956,0.1779,-0.288,0.0518,-0.0812,-2.8438,1.365,-14.2275,10.638530292341462,-8.430821698534471,16.77240426493616,4.410757002145087
-0.1416,0.9557,0.1817,-0.2895,0.0525,-0.0782,-2.7913,1.7413,-14.3062,10.654422029486216,-8.372158861219079,16.67101882286321,4.412001725695773
-0.1443,0.9573,0.1789,-0.2895,0.0525,-0.0782,-3.0888,1.4437,-13.6675,10.633256129357473,-8.372665437221455,16.622063037569966,4.413241494418564
-0.143,0.9579,0.1798,-0.2904,0.0514,-0.0784,-3.0975,1.2337,-14.49,10.632509176061927,-8.361025374609262,16.594478186258346,4.414460735997214
-0.1432,0.9556,0.1825,-0.2904,0.0514,-0.0784,-3.1063,1.05,-14.805,10.68902027564251,-8.367648133864153,16.589765983071068,4.415687409817709
-0.1438,0.9557,0.178,-0.2912,0.0526,-0.0829,-3.01,0.9713,-14.3238,10.652147803962212,-8.386280008270033,16.60650021143351,4.416967524996222
-0.1437,0.9566,0.1802,-0.291,0.0529,-0.0778,-2.8438,1.12,-14.735,10.654769284324244,-8.392113376276257,16.58203728693674,4.418316299932721
-0.1423,0.9573,0.181,-0.291,0.0529,-0.0778,-2.8875,1.54,-15.05,10.664832953745984,-8.344234826329124,16.513591127111972,4.419866453231557
-0.144,0.9557,0.179,-0.2898,0.0557,-0.0782,-2.6075,1.0762,-14.5862,10.662677209297906,-8.382742962299092,16.518528742690805,4.421196824521585
-0.1466,0.956,0.1817,-0.2898,0.0557,-0.0766,-2.9488,1.3037,-14.1312,10.68555903555086,-8.441960559789452,16.471260163325603,4.422433407997871
-0.1443,0.9574,0.1765,-0.2921,0.053,-0.0766,-3.3163,1.0237,-14.4637,10.589287252814291,-8.437144613975681,16.46129300335109,4.423659373985809
-0.1408,0.9564,0.182,-0.2916,0.0525,-0.0781,-2.7475,0.9538,-14.4812,10.60615397896103,-8.343303079184107,16.459053749953895,4.424886047806304
-0.1419,0.9565,0.1771,-0.2916,0.0525,-0.0781,-2.52,0.9975,-14.77,10.593015649774905,-8.320205490811448,16.45902217483432,4.426099272808224
-0.1449,0.9572,0.1797,-0.2901,0.0516,-0.077,-2.4938,0.6388,-13.86,10.598290229209612,-8.344060869906448,16.403737770818008,4.427307896898526
-0.1438,0.9589,0.1828,-0.2901,0.0531,-0.0783,-2.835,0.735,-14.3238,10.629082746076843,-8.358423206722506,16.432170989439324,4.428529261974846
-0.1424,0.9571,0.1838,-0.2928,0.0531,-0.0783,-2.8263,1.1375,-14.665,10.665768429339451,-8.335552035068035,16.42927313583559,4.429771862027863
-0.143,0.9555,0.1798,-0.2909,0.0543,-0.0783,-3.3425,0.9187,-14.3325,10.662148399293157,-8.348211809891676,16.435249398708265,4.430986502694896
-0.1425,0.9563,0.1771,-0.2909,0.0543,-0.0783,-2.4938,1.2425,-14.665,10.639501124230257,-8.341929953386819,16.44588500668707,4.432209283436329
-0.1434,0.9552,0.1794,-0.2904,0.053,-0.0861,-3.08,1.1987,-14.4637,10.638757162305387,-8.364800926226152,16.686985186636054,4.433499308270634
-0.1432,0.955,0.1787,-0.2907,0.0554,-0.076,-3.2113,0.7962,-14.5075,10.624290872287506,-8.373814644321293,16.59419937829748,4.434727043839963
-0.1422,0.9563,0.1773,-0.2907,0.0554,-0.076,-3.2725,1.0325,-14.6737,10.57781763399456,-8.345735127393509,16.577974172762925,4.435952655911623
-0.1441,0.957,0.183,-0.2918,0.0511,-0.0788,-2.7562,1.2075,-14.4987,10.602158905517003,-8.376347248472458,16.563065877162558,4.437174374904222
-0.1433,0.9537,0.1814,-0.2918,0.0511,-0.0788,-2.905,0.8575,-14.3762,10.636430229014762,-8.38490233154428,16.553524271596142,4.438382998994524
-0.1433,0.9553,0.1831,-0.2909,0.0522,-0.0783,-2.6425,0.945,-14.63,10.637438918427888,-8.382847792419893,16.549990503397865,4.439589853503436
-0.1436,0.9565,0.1824,-0.2908,0.0535,-0.0795,-2.975,1.12,-14.4112,10.676680734642613,-8.385543918890045,16.569449305769282,4.440811218579755
-0.1431,0.9558,0.1828,-0.2908,0.0535,-0.0795,-2.6863,1.4787,-13.9912,10.682341113119133,-8.380543042398227,16.62219392903587,4.442029398409572
-0.1443,0.9558,0.1812,-0.2902,0.052,-0.0786,-2.625,1.0762,-14.105,10.683480490640507,-8.398041021878182,16.61713511764867,4.443244039076604
-0.1419,0.9548,0.1828,-0.2902,0.052,-0.0786,-2.6513,1.1025,-14.1487,10.684106349967156,-8.367302771806848,16.61220772023004,4.444465404152925
-0.1449,0.9541,0.1824,-0.2926,0.0539,-0.0778,-2.6863,1.1375,-15.3125,10.689324556251565,-8.44016775705959,16.57944835480703,4.445684291815297
-0.1445,0.9568,0.1805,-0.2916,0.0514,-0.0814,-2.3888,0.9975,-15.0237,10.688082355395727,-8.440910835937219,16.579583173905437,4.446902825561391
-0.1437,0.9576,0.1814,-0.2916,0.0514,-0.0814,-3.1763,0.9013,-14.4725,10.701391884170366,-8.416849379840452,16.61276586602564,4.448128083716773
-0.143,0.9565,0.1801,-0.2919,0.0521,-0.0778,-2.6688,0.7962,-14.3062,10.70059037126027,-8.393789453600812,16.56288624654348,4.449349802709371
-0.1447,0.9569,0.1839,-0.2919,0.0521,-0.0778,-2.8087,1.2687,-14.3325,10.725341952429748,-8.415091881682311,16.51578871018376,4.450557365050838
-0.142,0.9562,0.184,-0.2913,0.0543,-0.0741,-2.3975,1.4437,-14.21,10.758684848173202,-8.373076491120445,16.286644254121263,4.451774129215542
-0.1454,0.9572,0.1789,-0.2915,0.052,-0.0777,-2.0213,1.0675,-13.9825,10.692360948522056,-8.402290450421498,16.28792332452346,4.452995140375584
-0.1441,0.9583,0.1783,-0.2915,0.052,-0.0777,-2.2575,0.7525,-14.315,10.649592071391137,-8.40507699733719,16.29023720538325,4.454216151535626
-0.143,0.9537,0.1779,-0.29,0.0539,-0.0798,-2.6338,0.9887,-14.665,10.648487634451984,-8.395009571587659,16.294536503989875,4.455448134100294
-0.1443,0.9526,0.1737,-0.29,0.0539,-0.0798,-3.0013,1.1812,-14.315,10.56624384031357,-8.427115039900356,16.368977010518844,4.456675869669623
-0.1434,0.9593,0.1798,-0.2912,0.054,-0.0791,-2.1438,0.9713,-14.6562,10.582800850768464,-8.39280157266626,16.37541504835699,4.457892633834326
-0.1436,0.9617,0.1805,-0.2942,0.052,-0.0776,-2.975,1.015,-14.2887,10.594473376484554,-8.375837755566241,16.371527841755604,4.459101965757185
-0.1434,0.9532,0.1814,-0.2942,0.052,-0.0776,-3.0275,1.2687,-14.8312,10.644182267776545,-8.392544423356165,16.328999471210036,4.46031412901027
-0.1429,0.958,0.1776,-0.2913,0.0522,-0.079,-3.115,1.085,-14.7788,10.599065800669356,-8.366814058618447,16.346151816527318,4.4615372636679815
-0.1479,0.9576,0.1787,-0.2913,0.0522,-0.079,-2.9313,1.1462,-14.8925,10.59275023108592,-8.513935577243247,16.37282697327106,4.462753673916406
-0.1449,0.9572,0.1865,-0.2926,0.055,-0.0835,-2.3975,0.9538,-14.2887,10.679194408494581,-8.489780705154544,16.415691500693963,4.463984594732239
-0.1421,0.9574,0.1764,-0.2898,0.053,-0.0739,-2.4413,0.805,-14.6037,10.638279550312227,-8.399784338055662,16.303351311021554,4.465204544143447
-0.1452,0.9551,0.1781,-0.2898,0.053,-0.0739,-3.3338,1.225,-14.455,10.60754521205782,-8.444190533388968,16.198027733451877,4.466429802298828
-0.1433,0.9575,0.1834,-0.2914,0.053,-0.0786,-3.1325,0.7962,-14.2625,10.684514647967868,-8.413216115517843,16.25343457871912,4.467639842054243
-0.1444,0.9546,0.1811,-0.2914,0.053,-0.0786,-2.5988,0.9625,-14.0525,10.687175013157127,-8.42453066658485,16.2622471380755,4.468867223707295
-0.1469,0.9586,0.1831,-0.2903,0.0526,-0.0749,-3.0188,0.6388,-14.1138,10.721446333720737,-8.466943326413658,16.17006552650419,4.4700907122812845
-0.1439,0.9554,0.1809,-0.2916,0.0519,-0.0747,-3.1937,0.9887,-14.1662,10.721546308290588,-8.450458555426653,16.16680075820938,4.471304999032039
-0.144,0.957,0.1787,-0.2916,0.0519,-0.0747,-2.9488,1.085,-13.9737,10.688055128603235,-8.441675081854417,16.13406107727319,4.472516808368846
-0.1463,0.9579,0.1812,-0.2935,0.0532,-0.0789,-3.1412,0.9975,-14.4287,10.695879071323716,-8.48211296827797,16.13417893215955,4.473732156868436
-0.1399,0.9559,0.1801,-0.2935,0.0532,-0.0789,-2.485,1.0675,-14.1925,10.692259610453963,-8.378451946851149,16.155230748882325,4.474936533963399
-0.141,0.9569,0.1815,-0.2904,0.0548,-0.0712,-2.7913,1.225,-14.7613,10.698270156818275,-8.304506935149918,15.994829427262664,4.476138787560693
-0.1465,0.9554,0.1785,-0.2919,0.0526,-0.079,-3.1063,0.84,-14.3762,10.66191443112128,-8.416160715414692,16.067695507502126,4.477354843892839
-0.1443,0.9572,0.1793,-0.2919,0.0526,-0.079,-2.9663,0.8575,-14.2975,10.649244871518158,-8.42096295311788,16.124829982798587,4.478573731555211
-0.1455,0.9578,0.1789,-0.2918,0.0526,-0.0789,-2.7825,1.015,-14.4812,10.640985358186917,-8.45353106619799,16.13173007900735,4.47982199426868
-0.1435,0.9554,0.184,-0.2918,0.0526,-0.0789,-3.3513,1.5312,-14.6125,10.748454236603507,-8.422504009154045,16.280270805197212,4.481046190675227
-0.1417,0.9547,0.1822,-0.291,0.0533,-0.0774,-3.2025,1.47,-14.7262,10.768536525229054,-8.356580640387918,16.299240094042496,4.48226897141666
-0.1402,0.9556,0.1788,-0.2921,0.0518,-0.0777,-2.5113,0.6737,-14.4112,10.748119843264426,-8.29196491920526,16.292029994335493,4.483485735581363
-0.1443,0.9569,0.1807,-0.2921,0.0518,-0.0777,-2.7213,0.6737,-14.6737,10.744370853017903,-8.36089444000832,16.289830663649653,4.484696837085613
-0.1461,0.958,0.1773,-0.2903,0.0542,-0.079,-2.73,1.015,-14.5338,10.724566804316115,-8.439105865090799,16.296024740408164,4.485923156989829
-0.1471,0.9592,0.1794,-0.2903,0.0542,-0.079,-3.115,0.6913,-14.4812,10.682856616303793,-8.4992744263067,16.380698415329043,4.487143814233593
-0.144,0.9565,0.1832,-0.2909,0.0538,-0.0836,-3.0975,0.875,-14.3325,10.732464580459647,-8.463681160566024,16.498319061250957,4.488350314826226
-0.1425,0.9576,0.1828,-0.2912,0.0542,-0.079,-3.465,1.3825,-14.2887,10.76617197261442,-8.406599168761337,16.53692826467603,4.489564247660702
-0.1418,0.9581,0.1834,-0.2912,0.0542,-0.079,-2.555,1.2775,-14.6912,10.772111361999414,-8.337554239158965,16.559670233367402,4.490806139881163
-0.1422,0.9545,0.1807,-0.2942,0.0534,-0.0786,-2.8875,1.1987,-14.9012,10.762019366843685,-8.332110126584999,16.52909995078383,4.492023611878421
-0.1429,0.9545,0.1772,-0.2942,0.0534,-0.0786,-2.8963,1.365,-14.4812,10.713174098416834,-8.350850013451174,16.481301795549175,4.493241437791959
-0.1427,0.9559,0.1814,-0.2911,0.0532,-0.071,-2.6513,1.12,-14.3587,10.713303459688678,-8.347965735024584,16.338759855350197,4.494462095035723
-0.1429,0.9573,0.1837,-0.2896,0.0538,-0.079,-3.08,1.1812,-13.9038,10.758416075246409,-8.346417994214475,16.397898143233448,4.495724514400323
-0.1426,0.9589,0.1793,-0.2896,0.0538,-0.079,-2.8875,0.91,-14.1138,10.726014371450605,-8.337060344798335,16.42077588960341,4.496939155067356
-0.1421,0.9553,0.1828,-0.2918,0.0542,-0.0775,-2.555,0.3325,-14.4287,10.735032324190767,-8.326161363867623,16.389653561350663,4.498172553297137
-0.144,0.9582,0.1829,-0.2918,0.0542,-0.0775,-2.345,0.9187,-15.3125,10.7516317211894,-8.370414754236876,16.38601810498864,4.499386840047892
-0.1456,0.9593,0.1829,-0.2905,0.0534,-0.0806,-2.8438,0.91,-14.7788,10.758665847138213,-8.428245986416742,16.430163968758542,4.50059440238936
-0.1448,0.9573,0.1792,-0.2915,0.0537,-0.077,-3.3775,1.3912,-14.28,10.692827596559402,-8.439105813779825,16.372638916248142,4.501820722293576
-0.143,0.9586,0.1791,-0.2915,0.0537,-0.077,-3.535,1.0675,-14.2362,10.641104260795872,-8.403657948916312,16.362840242768236,4.503043503035009
-0.1458,0.9584,0.1813,-0.2905,0.052,-0.079,-3.22,1.4525,-14.0963,10.666933982605984,-8.433451274509093,16.438947903504086,4.5042549584555385
-0.1461,0.9576,0.1811,-0.2905,0.052,-0.079,-3.0625,0.98,-14.07,10.679341314178403,-8.46038295871999,16.441761062346234,4.505474553950467
-0.1417,0.9547,0.181,-0.293,0.0536,-0.0746,-2.8788,1.2425,-14.8662,10.689844162773017,-8.370855222752173,16.3030336704677,4.506696980775622
-0.1446,0.9561,0.1787,-0.2914,0.0549,-0.0787,-3.6663,1.5312,-14.3937,10.637798436075276,-8.406910475446361,16.393281014821973,4.507912329275212
-0.1444,0.9597,0.182,-0.2914,0.0549,-0.0787,-2.8875,1.3825,-14.21,10.657248145805992,-8.407677710002476,16.44592914100107,4.509115290705061
-0.141,0.9535,0.1828,-0.2915,0.0529,-0.0778,-2.3712,0.6125,-13.9562,10.699542833295403,-8.374563278197895,16.427606341494926,4.510331347037208
-0.1412,0.9572,0.1799,-0.2915,0.0529,-0.0778,-2.2838,1.12,-14.6737,10.684798215544241,-8.31130591501583,16.41944920467391,4.511562975685598
-0.1402,0.9585,0.1754,-0.2911,0.0521,-0.0849,-3.0275,1.3387,-14.07,10.598088832247067,-8.275229550774766,16.713937576017525,4.512779385934023
-0.1449,0.9594,0.1806,-0.2923,0.0508,-0.0776,-2.4763,1.05,-14.2887,10.607237323444275,-8.339896839992846,16.68939981191424,4.514039681800953
-0.1456,0.9547,0.1777,-0.2923,0.0508,-0.0776,-3.185,0.9187,-14.4462,10.58508988823171,-8.422363123674046,16.654633234241285,4.515338200625937
-0.1405,0.9476,0.185,-0.2924,0.0515,-0.0806,-2.3013,0.8663,-14.0,10.703788804772753,-8.386031136783915,16.6732646701942,4.516569829274327
-0.1447,0.9631,0.1812,-0.2924,0.0515,-0.0806,-2.765,1.1375,-14.4812,10.698671041427156,-8.391989597158416,16.68499664463851,4.517788363020421
-0.1432,0.965,0.1825,-0.2905,0.0533,-0.0773,-2.5463,1.2775,-14.2887,10.699640980391317,-8.354796852571333,16.608396802587787,4.519009374180463
-0.1479,0.9377,0.1787,-0.2912,0.0522,-0.0793,-2.2838,0.9013,-14.4637,10.723629321800514,-8.5566310905675,16.611117371576945,4.520222245266105
-0.1408,0.9612,0.1789,-0.2912,0.0522,-0.0793,-3.2813,0.6825,-14.5338,10.653671205321311,-8.387757564321824,16.609507946960218,4.521428038026181
-0.1523,0.9615,0.1854,-0.2922,0.0522,-0.0822,-3.4825,1.3737,-13.86,10.772167644815308,-8.463731979405386,16.747793988661815,4.522651526600171
-0.1419,0.9541,0.1771,-0.2922,0.0522,-0.0822,-2.065,0.7263,-13.9912,10.677739668362642,-8.427673238133394,16.814624669866944,4.523868290764874
-0.138,0.9554,0.1813,-0.2923,0.053,-0.0771,-2.4588,0.7088,-14.3587,10.68838644838402,-8.283196203757525,16.677547066582854,4.5251023968272115
-0.1382,0.9539,0.1817,-0.2917,0.0526,-0.0782,-2.8788,0.9975,-14.175,10.706471644843926,-8.220772908752355,16.67745555515667,4.5263400420523325
-0.148,0.9554,0.1736,-0.2917,0.0526,-0.0782,-2.4675,0.7,-14.2275,10.6443163431504,-8.382235995855462,16.605555414166833,4.52756600804027
-0.1459,0.9607,0.1831,-0.2912,0.0527,-0.08,-2.8875,0.9538,-14.9187,10.672654043785823,-8.439526804768851,16.612568269669246,4.528777109544521
-0.1389,0.9598,0.1852,-0.2912,0.0527,-0.08,-2.6513,1.0587,-14.5862,10.673659339477341,-8.270051242586142,16.622789084255057,4.529987149299936
-0.1473,0.9427,0.1684,-0.2894,0.052,-0.0758,-3.2813,1.33,-14.6737,10.462025104702699,-8.509131527829735,16.471476823879218,4.53120993004137
-0.1465,0.965,0.1778,-0.2903,0.053,-0.0788,-2.87,1.0937,-14.1487,10.457938134388062,-8.503350847430486,16.480256565017708,4.532443328271151
-0.1452,0.9538,0.1799,-0.2903,0.053,-0.0788,-3.0188,1.575,-14.0087,10.51844752080807,-8.504582139445022,16.52511670108192,4.533650182780062
-0.1404,0.9535,0.176,-0.2922,0.0522,-0.0766,-2.905,1.155,-14.3325,10.50608455629584,-8.39772685181142,16.461913267193523,4.534870486107548
-0.1437,0.9609,0.1834,-0.2922,0.0522,-0.0785,-2.87,0.63,-14.21,10.560661711478282,-8.38315343139739,16.457053706631893,4.536095036430372
-0.1459,0.9589,0.1835,-0.2893,0.0518,-0.0785,-2.87,0.9538,-14.525,10.610355151641663,-8.437162029244343,16.462605608160484,4.537303306604397
-0.1437,0.9575,0.186,-0.291,0.0522,-0.079,-2.555,1.1375,-14.3238,10.642681232482012,-8.414634666484897,16.48190313144137,4.538518301187708
-0.1432,0.9543,0.1793,-0.291,0.0522,-0.079,-2.2575,1.4962,-14.4637,10.642221373057154,-8.40335359430311,16.5129151873901,4.550642765048786
-0.1427,0.9596,0.1792,-0.2945,0.0546,-0.0799,-2.8875,1.2862,-14.2275,10.62974800362766,-8.371900481868781,16.532931635288012,4.562873403793346
-0.1476,0.9554,0.1762,-0.2945,0.0527,-0.0806,-2.94,0.9887,-14.3238,10.588902002359916,-8.47853053689469,16.534022586950144,4.575127047095993
-0.1476,0.9639,0.1834,-0.2925,0.0527,-0.0806,-2.73,1.225,-14.4112,10.602959738729153,-8.511293331354617,16.585133973381172,4.5836610303139915
-0.1554,0.9568,0.1815,-0.2906,0.0523,-0.0786,-2.0825,1.05,-14.1662,10.652813167251166,-8.69821070588495,16.5831285336381,4.596696474675344
-0.1432,0.9558,0.1819,-0.2906,0.0523,-0.0786,-2.0913,0.77,-14.4812,10.69654493867603,-8.55128099747708,16.575981452689508,4.609041782294065
-0.1463,0.9573,0.184,-0.2931,0.0525,-0.0785,-3.5613,1.015,-14.4112,10.784142998965088,-8.544360849987209,16.573159778166996,4.62116270699236
-0.1396,0.9542,0.177,-0.2923,0.0526,-0.0778,-2.5638,1.1725,-14.2187,10.762927844091637,-8.415550142813384,16.530329347988438,4.633335303467283
-0.1452,0.9562,0.1746,-0.2923,0.0526,-0.0778,-2.9488,0.7613,-14.49,10.666811508785477,-8.452116106056598,16.480040787342325,4.645525241839842
-0.1446,0.9615,0.181,-0.2908,0.0522,-0.0787,-3.5875,1.0062,-14.5425,10.664007515069947,-8.431001385015435,16.480533153622055,4.657747386593723
-0.1424,0.9554,0.1811,-0.2908,0.0522,-0.0787,-3.185,0.7962,-14.28,10.688242000914245,-8.392733595847478,16.491088712496175,4.669913258659358
-0.1433,0.9509,0.1801,-0.2922,0.0538,-0.0823,-2.7913,0.8225,-14.6737,10.692839913015188,-8.407689075970776,16.5884697719424,4.682059311413411
-0.1437,0.9596,0.1856,-0.2912,0.0514,-0.0764,-2.66,0.9187,-14.35,10.696037059266192,-8.38982517583987,16.554307436533247,4.694184483107046
-0.1457,0.9563,0.1817,-0.2912,0.0514,-0.0764,-2.4325,0.6913,-14.28,10.707015712855625,-8.436981856802626,16.44701382944975,4.706392117293517
-0.1421,0.9545,0.176,-0.2934,0.0522,-0.0784,-2.2662,0.7613,-14.6125,10.6353869927465,-8.384382458725664,16.422443955240084,4.715467238500995
-0.1428,0.959,0.1811,-0.2934,0.0522,-0.0784,-2.66,0.8225,-14.2537,10.636124687791868,-8.361995296605029,16.411587399093904,4.727672041357241
-0.1426,0.9559,0.1828,-0.2904,0.0518,-0.0771,-3.255,0.8663,-13.9475,10.707960135704484,-8.356135959293512,16.39643456471018,4.739819863692685
-0.1468,0.957,0.1793,-0.2912,0.0538,-0.0758,-3.115,0.9713,-14.3325,10.67728390748538,-8.443884616332271,16.387266179954022,4.752053333767471
-0.1434,0.9581,0.1803,-0.2912,0.0538,-0.0758,-2.9138,0.525,-14.595,10.673133354795189,-8.406991299105835,16.275170088150986,4.7642369016470205
-0.1423,0.957,0.1752,-0.291,0.0531,-0.0795,-2.6863,0.6038,-14.6475,10.66190313225514,-8.36435489646175,16.38150396686967,4.776388263145248
-0.1446,0.9576,0.178,-0.291,0.0531,-0.0795,-2.8438,1.0237,-14.525,10.64024172684156,-8.40152889215939,16.38903776196117,4.788608284401459
-0.1437,0.9564,0.1792,-0.2912,0.0537,-0.0776,-2.7213,1.1462,-14.315,10.638323440951572,-8.401229905112636,16.383984878244917,4.800843877973914
-0.1414,0.9542,0.1832,-0.2922,0.0526,-0.0758,-2.3888,1.2425,-14.6912,10.685523115292785,-8.339673210170586,16.30484655667862,4.813032754597638
-0.1423,0.9556,0.1821,-0.2922,0.0526,-0.0758,-2.7475,1.2425,-14.035,10.694950486326762,-8.334884506681725,16.239336089467376,4.825248528858511
-0.1433,0.9556,0.1781,-0.2904,0.0521,-0.0786,-3.7275,1.1462,-14.3413,10.623509836923377,-8.355675683303568,16.27604640115772,4.837368037891693
-0.143,0.9575,0.1778,-0.2904,0.0521,-0.0786,-2.9313,1.2512,-14.4375,10.600510796818183,-8.354702161544438,16.324927053078472,4.8465974665964975
-0.1428,0.9559,0.179,-0.2916,0.0551,-0.0788,-2.765,1.4175,-14.3238,10.601116963096663,-8.354171976364926,16.399479273030448,4.858633805304285
-0.1437,0.9557,0.1805,-0.291,0.0537,-0.0741,-3.2813,1.1987,-14.7262,10.637658098484664,-8.380205331530096,16.28996319345178,4.87098831474624
-0.1423,0.9562,0.1822,-0.291,0.0537,-0.0741,-3.3688,1.2075,-14.4287,10.700735000307414,-8.352721624067321,16.197635788463472,4.883110655109649
-0.1453,0.9586,0.1802,-0.2921,0.0551,-0.0795,-2.7825,1.1287,-14.7175,10.694256345063117,-8.414493716874501,16.253736927399462,4.895254230449754
-0.1431,0.9578,0.1809,-0.2921,0.0551,-0.0795,-2.7037,0.945,-14.3325,10.694321946554002,-8.389286732723505,16.275176477595906,4.907466111631565
-0.1435,0.9575,0.181,-0.2919,0.0518,-0.0795,-3.15,0.49,-14.105,10.697738852169936,-8.38557033562633,16.38918077706035,4.919678700645933
-0.1445,0.9551,0.1789,-0.2909,0.0518,-0.0797,-3.115,0.8838,-14.4025,10.669506938976717,-8.416595661464699,16.419913689111144,4.932072140878499
-0.1455,0.9568,0.1783,-0.2909,0.0518,-0.0797,-2.9225,1.2337,-14.6825,10.645008807578689,-8.460065464347219,16.47056455957307,4.944021416181831
-0.1456,0.9564,0.1835,-0.2896,0.0542,-0.0779,-2.45,1.33,-14.5775,10.680606438402087,-8.480788502903776,16.486399757596903,4.95638760486097
-0.1455,0.9576,0.1794,-0.2896,0.0542,-0.0779,-2.7037,1.4437,-14.84,10.676885806995426,-8.487950437114016,16.49074110888905,4.968472430098881
-0.1446,0.9561,0.1756,-0.2918,0.054,-0.0782,-3.395,0.9013,-14.3762,10.561469536113709,-8.476599465843789,16.483325433720793,4.977944645370581
-0.1465,0.9537,0.1807,-0.291,0.0538,-0.0783,-2.8612,1.0062,-14.0875,10.590960932875143,-8.508458650191525,16.48350982837954,4.989970720506299
-0.1446,0.9556,0.1807,-0.291,0.0538,-0.0783,-2.8175,1.2775,-14.5075,10.607982862106741,-8.484823695131992,16.48723068009498,5.002171630283484
-0.1443,0.9572,0.1834,-0.2904,0.0524,-0.0789,-2.6163,0.9713,-14.6387,10.61513999229769,-8.45370998650666,16.490586447169466,5.014295386312005
-0.1454,0.9566,0.1787,-0.2904,0.0524,-0.0789,-2.3275,1.1638,-14.3762,10.60694561511122,-8.472139396862307,16.50437135634295,5.026452410470684
-0.1423,0.9565,0.1789,-0.2917,0.0526,-0.0788,-2.8263,0.8138,-14.035,10.604975766820274,-8.430440143950866,16.504692073512704,5.038668538647835
-0.1413,0.9553,0.1842,-0.291,0.053,-0.0791,-2.9663,1.12,-14.0,10.67966933805628,-8.387971527438442,16.520332925810358,5.050822377560009
-0.145,0.9567,0.1778,-0.291,0.053,-0.0791,-2.8963,0.9187,-14.5338,10.649455836096292,-8.428757063252847,16.526056029213876,5.063017624676742
-0.1458,0.9569,0.1784,-0.2909,0.0543,-0.0791,-2.2313,0.945,-14.3937,10.623388078503872,-8.466902845608777,16.531770136476506,5.075188805486552
-0.1433,0.9569,0.1825,-0.2909,0.0543,-0.0791,-2.8525,0.7788,-14.6387,10.653087272939125,-8.418121451626588,16.556953894445734,5.087374496863771
-0.1422,0.9551,0.1795,-0.2914,0.0542,-0.0742,-2.6513,0.9538,-14.525,10.653050225393825,-8.374714973082849,16.523444512576454,5.096582690591879
-0.1466,0.9573,0.1781,-0.2894,0.0518,-0.0782,-3.0538,1.2775,-14.8487,10.620098842950554,-8.476439072315506,16.517180311392515,5.108802357931813
-0.1436,0.9556,0.1774,-0.2894,0.0518,-0.0782,-2.6338,1.3562,-14.9713,10.618728848933355,-8.435613246225772,16.510278248758727,5.1209576125091
-0.143,0.9552,0.1784,-0.2916,0.0525,-0.0784,-2.4325,1.4437,-14.7962,10.611721106610936,-8.401588314059689,16.48749193931785,5.1331620614490685
-0.1422,0.9574,0.1795,-0.2916,0.0525,-0.0784,-2.5638,1.4787,-15.1025,10.61227650573189,-8.344860585830936,16.472455148495538,5.145187428752229
-0.1427,0.9564,0.187,-0.2921,0.0539,-0.0734,-2.4675,1.1112,-14.4462,10.680974550073596,-8.338646922047246,16.385227888129123,5.157263052166906
-0.141,0.9572,0.1867,-0.291,0.053,-0.0789,-2.6775,0.9187,-14.0437,10.691426717780038,-8.307544481175446,16.40286087094501,5.16949687615797
-0.1412,0.9551,0.1825,-0.291,0.053,-0.0789,-2.8875,1.1375,-14.455,10.715878063373218,-8.287445209585108,16.427101445584192,5.181935971590433
-0.1432,0.9565,0.1844,-0.2927,0.0533,-0.0798,-2.9313,0.8487,-14.56,10.759255860908176,-8.323220433852683,16.4610360221297,5.193893386968166
-0.144,0.9563,0.1801,-0.2927,0.0533,-0.0798,-2.7738,1.0587,-14.7437,10.748733396462203,-8.372279820964062,16.47247523191006,5.206090757582568
-0.1437,0.9557,0.1848,-0.2921,0.0546,-0.076,-2.9838,1.26,-14.6125,10.797902424853437,-8.384698960407048,16.392170359320932,5.218299099601597
-0.1424,0.957,0.1776,-0.2916,0.0534,-0.0777,-2.7037,1.2687,-14.8312,10.782695340290713,-8.351582169455357,16.378050881139696,5.227179212939745
-0.1422,0.9571,0.18,-0.2916,0.0534,-0.0777,-2.4675,1.3212,-14.49,10.762645490380603,-8.331468433532512,16.369731155720174,5.239399588112236
-0.142,0.9569,0.1795,-0.2907,0.0531,-0.0774,-2.1263,0.9187,-14.5075,10.715279216361965,-8.316185983096563,16.36657328231166,5.251651107917214
-0.1461,0.9562,0.1788,-0.2907,0.0531,-0.0774,-2.7388,0.8838,-14.3325,10.704891260626907,-8.406858247139573,16.362151165246598,5.263837153210711
-0.1434,0.9565,0.1849,-0.2903,0.0538,-0.0773,-2.8963,1.155,-15.1287,10.751938266006308,-8.387069742409333,16.365879382904232,5.276069207620384
-0.1413,0.9564,0.184,-0.2917,0.0526,-0.0794,-2.9838,0.8312,-14.8225,10.786696202048775,-8.315990109336038,16.406336170285098,5.288287459295204
-0.1447,0.9546,0.1789,-0.2917,0.0526,-0.0794,-2.6513,0.9538,-14.5687,10.78600058438789,-8.391310104991677,16.415060966614707,5.300523760700217
-0.1431,0.9578,0.1825,-0.2903,0.054,-0.079,-3.045,1.0325,-14.21,10.786532939482768,-8.376401965525138,16.424015836809293,5.31271688431928
-0.1427,0.9564,0.1845,-0.2903,0.054,-0.079,-3.22,1.1725,-14.4637,10.83472046060586,-8.35783485476966,16.46436164480524,5.324939029073161
-0.1426,0.9561,0.1768,-0.2916,0.0532,-0.0782,-2.905,0.6475,-14.3937,10.761343471498066,-8.3517953558381,16.449029995166875,5.33716365124099
-0.1465,0.9572,0.1826,-0.2934,0.0533,-0.0788,-3.2375,1.2512,-14.1575,10.77578458107994,-8.417714670160144,16.45189330979788,5.349441714766838
-0.1445,0.9545,0.1806,-0.2934,0.0533,-0.0788,-2.7562,0.9975,-14.6562,10.76973564449479,-8.43915931431182,16.451893191201393,5.358188755584357
-0.1435,0.9543,0.1782,-0.2937,0.0505,-0.0778,-2.7738,0.8138,-15.0587,10.7481102123274,-8.421213817395088,16.40830036488492,5.370431427482378
-0.1436,0.9578,0.1835,-0.2937,0.0505,-0.0778,-3.2025,0.8925,-14.8575,10.782910536752732,-8.396857695787386,16.388830943650838,5.382730018152366
-0.1446,0.9564,0.1835,-0.2897,0.0518,-0.0718,-2.6425,0.9887,-14.945,10.783279482783058,-8.424384030584035,16.38029922678736,5.394879256152923
-0.1444,0.9579,0.1782,-0.291,0.0542,-0.0793,-3.43,1.1638,-14.1837,10.675749829406461,-8.426347453425558,16.42107259572777,5.407068486692925
-0.1426,0.9564,0.1811,-0.291,0.0542,-0.0793,-2.765,1.3125,-14.1312,10.680658774233889,-8.396831587417541,16.48549559838261,5.419298771521206
-0.1424,0.9557,0.1813,-0.292,0.0532,-0.0779,-3.0975,1.225,-14.2537,10.699576260352286,-8.371283393065617,16.46322051515885,5.431521624107645
-0.1426,0.9553,0.1811,-0.292,0.0532,-0.0779,-3.0713,1.05,-13.9212,10.709947680772805,-8.365509338972418,16.45826921396827,5.4437586333452135
-0.1448,0.9578,0.1814,-0.2921,0.0536,-0.0829,-2.2225,0.9975,-14.0087,10.71424457013982,-8.387142005519806,16.45855491349227,5.456000597410678
-0.1422,0.9583,0.1842,-0.2932,0.0549,-0.0782,-2.7825,0.735,-13.9562,10.734043985306512,-8.365034252394945,16.450241730316826,5.468400408136253
-0.1444,0.9581,0.1813,-0.2932,0.0549,-0.0782,-2.94,1.1025,-14.3937,10.72980093721686,-8.389824587408263,16.445156811448197,5.480440639923102
-0.1444,0.9567,0.1809,-0.291,0.0518,-0.0774,-2.5725,1.155,-14.7875,10.728249845981034,-8.414260655166913,16.42380277919763,5.489909316032018
-0.1416,0.9564,0.1782,-0.291,0.0518,-0.0774,-2.7825,0.5163,-14.07,10.707552841182478,-8.375480021464629,16.373315229804046,5.501742860712356
-0.1464,0.9592,0.1771,-0.2909,0.0527,-0.0808,-2.5375,1.1462,-14.49,10.683160106076249,-8.44828426194412,16.440403855174658,5.513886082136183
-0.1449,0.9583,0.1829,-0.2902,0.0546,-0.0783,-2.4237,1.0325,-14.9362,10.705502826450658,-8.448156792965626,16.445045059688912,5.52609053107615
-0.144,0.9567,0.1759,-0.2902,0.0546,-0.0783,-2.7562,0.6913,-14.7788,10.677266278940193,-8.433639690050905,16.463511877684297,5.5383027661742394
-0.143,0.9579,0.1824,-0.2906,0.0532,-0.0754,-2.8963,0.8925,-14.9888,10.697950348644774,-8.381866937219701,16.419374431210585,5.550508984695599
-0.1427,0.9589,0.1798,-0.2906,0.0532,-0.0754,-3.1763,0.8663,-14.6475,10.670984877416323,-8.351843255861569,16.368108938932295,5.5627321911983145
-0.1443,0.957,0.1778,-0.2921,0.053,-0.0836,-3.43,1.0237,-14.2537,10.606851148103493,-8.381942321899842,16.393122015369915,5.574899125012785
-0.1445,0.9556,0.1807,-0.2904,0.0518,-0.0778,-3.1675,1.05,-14.5513,10.641452350887878,-8.414623732205019,16.393035473758847,5.587137903831746
-0.1422,0.9562,0.1814,-0.2904,0.0518,-0.0778,-3.0975,1.0412,-14.6037,10.672634601879961,-8.365015881606304,16.39311287601322,5.599298467153208
-0.1424,0.955,0.1823,-0.2902,0.0543,-0.0766,-3.2113,0.9975,-14.9975,10.721156167701997,-8.346456308851074,16.39306682363898,5.611455491311887
-0.1431,0.9567,0.1767,-0.2902,0.0543,-0.0793,-3.0713,1.0412,-14.4375,10.644714775409787,-8.355703164885385,16.406046326448845,5.620550077914669
-0.1448,0.9567,0.1856,-0.2919,0.0528,-0.0793,-2.625,0.9187,-14.7525,10.651988461334659,-8.40568588373099,16.42302547331684,5.6327386006221145
-0.1452,0.9572,0.1807,-0.2916,0.0538,-0.0778,-2.0213,1.2163,-14.9012,10.666804384512705,-8.445792604205302,16.41493232264723,5.644927477245838
-0.1429,0.9569,0.1792,-0.2916,0.0538,-0.0778,-2.94,1.0412,-14.4375,10.653261448206512,-8.404066315961503,16.412885801844663,5.657141128009041
-0.1441,0.9573,0.1815,-0.2895,0.0529,-0.079,-2.0738,0.945,-14.5862,10.683273418613686,-8.40820056634171,16.42636758898618,5.669319033228138
-0.141,0.9548,0.1846,-0.2895,0.0539,-0.0771,-2.5988,1.1287,-14.9187,10.695250389738186,-8.319890818599262,16.42309409749659,5.6815259595820535
-0.1429,0.9569,0.1789,-0.2914,0.0539,-0.0771,-2.8,1.0762,-14.8225,10.68125624139145,-8.336612408668815,16.41060202890411,5.693743149508039
-0.1466,0.9562,0.1807,-0.2898,0.0527,-0.0798,-3.1588,0.8225,-14.2712,10.688072253109175,-8.424196006097107,16.468922849393294,5.705952199359624
-0.145,0.9563,0.1803,-0.2898,0.0527,-0.0798,-2.6075,0.9187,-14.0262,10.687655227067506,-8.437796595408832,16.492945648593224,5.718161249211209
-0.1441,0.9577,0.1809,-0.2902,0.0542,-0.0766,-2.1263,0.6475,-14.4987,10.690710335317139,-8.425223833669566,16.429476490581948,5.730326767360567
-0.1429,0.956,0.1813,-0.2899,0.0535,-0.0787,-2.4938,0.98,-14.2537,10.69704099027853,-8.398907879845124,16.432782810262214,5.7394075512284966
-0.1409,0.9563,0.1827,-0.2899,0.0535,-0.0787,-2.765,0.9713,-14.1837,10.709568907492761,-8.342370281652572,16.437884985573366,5.751632881228883
-0.1454,0.9568,0.1822,-0.2918,0.0526,-0.0784,-3.0275,1.155,-14.525,10.729398469076186,-8.411164149951832,16.440233225282896,5.763793090634066
-0.1428,0.9578,0.1814,-0.2918,0.0526,-0.0784,-2.765,1.015,-14.28,10.728867765964054,-8.381526422664184,16.440350860278524,5.775971349769442
-0.1423,0.9558,0.1808,-0.2919,0.0527,-0.0766,-2.9575,1.2075,-14.6562,10.724769162405098,-8.352074150058469,16.38514783409994,5.788195264104714
-0.1445,0.9571,0.1782,-0.2918,0.0539,-0.0794,-2.4938,0.9975,-14.4812,10.701119002553519,-8.392917348350984,16.385237676006916,5.8003890955563335
-0.1437,0.9597,0.1834,-0.2918,0.0539,-0.0794,-2.9575,1.4088,-13.7462,10.728999267713741,-8.390798779690641,16.46832408819958,5.812607701147432
-0.1453,0.9564,0.1835,-0.2927,0.0553,-0.0786,-2.52,1.4612,-14.1138,10.743908794919477,-8.420610015875999,16.48588760098309,5.824749506906145
-0.1452,0.9578,0.1832,-0.2927,0.0553,-0.0786,-2.52,0.98,-14.5338,10.753431747392492,-8.443204442223717,16.486449697323852,5.836943692274043
-0.1435,0.956,0.1814,-0.293,0.0558,-0.0782,-2.9138,1.0237,-14.5075,10.751464378535491,-8.418371236465559,16.48509666549973,5.849196981660413
-0.1439,0.9542,0.1795,-0.2926,0.0534,-0.0789,-2.5725,0.9013,-14.4812,10.744667549734661,-8.4237520308124,16.486884683808146,5.86140355409805
-0.1416,0.9572,0.185,-0.2926,0.0534,-0.0789,-2.6688,0.9625,-14.49,10.748764343750853,-8.351245519902887,16.488715059469833,5.870483984049701
-0.1427,0.9572,0.1776,-0.2921,0.0519,-0.0792,-3.3863,0.8925,-14.63,10.64780325342436,-8.345197494639685,16.492467195111477,5.882620127147963
-0.1435,0.9564,0.1761,-0.2921,0.0519,-0.0792,-3.43,0.8575,-14.3762,10.553445803175777,-8.365616734523236,16.4956893137596,5.894828469166991
-0.1433,0.9557,0.184,-0.2916,0.0523,-0.0768,-2.8525,0.8575,-14.7788,10.612082620404664,-8.371080655608784,16.457909964404855,5.907051321753429
-0.1428,0.9564,0.1841,-0.2914,0.0538,-0.0776,-2.9838,1.0412,-14.3413,10.683512199711632,-8.358945885740322,16.454592874366202,5.919243737539936
-0.1462,0.9596,0.1785,-0.2914,0.0538,-0.0776,-2.9488,1.0062,-15.1375,10.649668493501691,-8.454296317565571,16.453499057801583,5.93141385660091
-0.1419,0.9545,0.1835,-0.2914,0.0532,-0.0788,-2.415,1.0412,-14.6562,10.693491591531378,-8.38022064756174,16.458611659824566,5.943610165466478
-0.1411,0.9576,0.181,-0.2914,0.0532,-0.0788,-3.08,0.8663,-14.6037,10.696497414887633,-8.311236717071683,16.46933482810695,5.955819215318063
-0.1459,0.9553,0.1762,-0.2902,0.0535,-0.0798,-2.9575,0.6388,-14.5687,10.638235554103407,-8.421013885166387,16.548302550064196,5.968024018174309
-0.1419,0.9574,0.1831,-0.2906,0.0516,-0.0751,-2.9575,0.6388,-14.7,10.68291367127981,-8.350438974595649,16.379129539206396,5.980241915932851
-0.1442,0.9587,0.1791,-0.2906,0.0516,-0.0751,-2.7562,0.9363,-14.805,10.67297530053205,-8.382510770520891,16.35030728443687,5.9923631945474245
-0.1445,0.9569,0.1767,-0.2914,0.0541,-0.0782,-3.0013,1.1725,-14.455,10.617891824262289,-8.410917055697166,16.363189758991755,6.001489279698974
-0.1428,0.9594,0.1798,-0.2914,0.0541,-0.0782,-2.9925,1.0237,-14.8225,10.617048812558117,-8.363681491510757,16.365604082702685,6.013674971076193
-0.143,0.9578,0.1846,-0.2927,0.053,-0.0812,-3.0275,1.1375,-14.98,10.697492742543277,-8.350365345293975,16.43483944696605,6.025954450267154
-0.1469,0.9558,0.1792,-0.2909,0.0535,-0.0754,-3.2113,1.0325,-14.665,10.669160576835868,-8.470687277363375,16.41895294922967,6.03806298789571
-0.1406,0.9557,0.181,-0.2909,0.0535,-0.0754,-2.8788,1.1812,-15.1988,10.679514621098452,-8.321716788441421,16.351063467257617,6.05026495942173
-0.143,0.9564,0.1822,-0.292,0.055,-0.079,-2.6863,1.0587,-14.8225,10.683515491802343,-8.34000598708952,16.366244849377804,6.062477548436098
-0.1483,0.9596,0.1792,-0.292,0.055,-0.079,-3.1937,1.4175,-13.9912,10.646170866300482,-8.414459865631322,16.43124613184804,6.07469544619464
-0.1429,0.9578,0.1828,-0.2937,0.0523,-0.0762,-2.3625,1.4525,-14.7,10.68141433335681,-8.375142861473176,16.28425699320446,6.0868425606975265
-0.1442,0.9542,0.1789,-0.2914,0.0498,-0.0768,-3.3775,1.4088,-14.63,10.655042807245643,-8.41132447708402,16.230032073776425,6.0990778003537045
-0.1448,0.9572,0.1804,-0.2914,0.0498,-0.0768,-3.6225,1.3125,-14.6562,10.663975013344572,-8.433398915537017,16.200032311116345,6.1112910972006285
-0.1403,0.9566,0.1778,-0.2906,0.0522,-0.0784,-3.2375,1.2075,-14.4637,10.613958089535428,-8.331625625924435,16.247675892276742,6.123451306605812
-0.144,0.9561,0.1781,-0.2906,0.0522,-0.0784,-2.52,0.91,-14.42,10.606962045075393,-8.370828046732496,16.266150665223947,6.132566066436456
-0.1421,0.9578,0.1831,-0.2908,0.0543,-0.0772,-2.5113,1.0675,-14.8137,10.632756437801936,-8.327984160584982,16.271187742555085,6.144709995692839
-0.1421,0.9573,0.1857,-0.2906,0.0522,-0.0795,-2.8438,0.945,-14.4025,10.689480485698809,-8.312160006465216,16.293779614029642,6.156907720223519
-0.1435,0.9557,0.1765,-0.2906,0.0522,-0.0795,-3.1412,0.91,-14.7087,10.614784758452526,-8.356802522515004,16.323349546441577,6.1691535773680455
-0.1452,0.9573,0.1798,-0.2893,0.0523,-0.0782,-2.7562,0.77,-15.2687,10.617002956367058,-8.431970189996738,16.360656319745658,6.181587364056334
-0.1443,0.9608,0.1806,-0.2893,0.0523,-0.0782,-3.5613,0.9625,-14.0787,10.630648356475252,-8.421435231297359,16.36617544372756,6.193760314447536
-0.1422,0.9565,0.1815,-0.2914,0.0502,-0.0759,-2.87,0.9538,-14.4637,10.651367627435361,-8.371681599720667,16.349391781098145,6.2058677903272566
-0.1423,0.9567,0.1799,-0.2911,0.0518,-0.0784,-3.3075,1.2425,-13.965,10.650690365043662,-8.358734491886572,16.36990018673541,6.218042510299849
-0.1425,0.9582,0.1824,-0.2911,0.0518,-0.0784,-3.115,1.1638,-14.035,10.691167942425308,-8.345870285020643,16.38413223675281,6.230234218253798
-0.1421,0.9568,0.1828,-0.2897,0.0515,-0.078,-2.7475,0.8138,-14.3937,10.702562463573773,-8.326270796202525,16.39725566464575,6.2423147964963706
-0.1463,0.9563,0.1825,-0.2897,0.0515,-0.078,-2.45,0.8575,-14.0087,10.719338999785851,-8.383298208696067,16.406038334408343,6.251787365684349
-0.1432,0.9572,0.1768,-0.2897,0.0555,-0.0793,-2.7825,0.9275,-14.4987,10.689023908704415,-8.376775130929245,16.428905500172114,6.263962085656941
-0.1439,0.9556,0.181,-0.2917,0.0546,-0.0783,-2.7562,0.735,-14.8487,10.692590637182564,-8.398179109441585,16.44085422656602,6.2761339742993085
-0.1444,0.9565,0.1778,-0.2917,0.0546,-0.0783,-2.6688,0.6212,-14.7788,10.689165742325748,-8.42157919961896,16.44617567795317,6.288314710848631
-0.1424,0.9562,0.1786,-0.2903,0.0539,-0.0786,-2.5638,0.7263,-14.6037,10.680747025125019,-8.376316953503466,16.473822625401144,6.300462887100354
-0.1435,0.9568,0.1818,-0.2903,0.0539,-0.0786,-3.5175,1.225,-14.105,10.716893780552782,-8.378015180865196,16.497190531025726,6.312558329826613
-0.1452,0.957,0.175,-0.2934,0.0533,-0.0747,-3.0188,1.54,-14.28,10.620966347046721,-8.420441969196848,16.209351201496748,6.3248002938920775
-0.1454,0.9584,0.1801,-0.2898,0.0542,-0.0782,-3.1763,1.4612,-14.4287,10.628505097899719,-8.446534445566376,16.316584778019795,6.336952717139139
-0.1432,0.9564,0.1809,-0.2898,0.0542,-0.0782,-2.8438,1.0937,-14.6912,10.642020066391957,-8.407290076224642,16.337696439468147,6.3490796584141656
-0.141,0.9543,0.1825,-0.2913,0.0539,-0.079,-2.9313,1.26,-14.4375,10.682831320515298,-8.341585754563738,16.3977681428994,6.361260394963488
-0.1458,0.9586,0.1779,-0.2913,0.0539,-0.079,-3.1325,1.5225,-14.1225,10.627514774816708,-8.393443019472977,16.462635796054656,6.373435822768638
-0.1429,0.9565,0.1825,-0.2894,0.054,-0.0791,-2.2662,1.0062,-14.175,10.675708867354105,-8.378185170853552,16.465171265716066,6.382849287938145
-0.1435,0.9592,0.1828,-0.2909,0.053,-0.0782,-2.3888,1.0062,-14.1138,10.69913680031867,-8.372583747943155,16.465282043859126,6.395165574422046
-0.1419,0.9555,0.1765,-0.2909,0.053,-0.0782,-2.3013,0.9013,-14.665,10.639139484243985,-8.340500429131922,16.462653056214815,6.4071456404415885
-0.145,0.9566,0.1834,-0.2914,0.0506,-0.0788,-2.4763,1.2075,-14.5862,10.670373353298784,-8.40151730279546,16.46982900830291,6.419366723446635
-0.1401,0.959,0.1797,-0.2914,0.0506,-0.0788,-2.3975,1.295,-14.8225,10.658940543303284,-8.277667634476986,16.470497825594048,6.431486940312374
-0.1463,0.9576,0.1845,-0.2945,0.0546,-0.0802,-2.4675,0.7962,-14.175,10.696505367908983,-8.364238574849981,16.508717809904883,6.443662014201245
-0.144,0.9552,0.1824,-0.291,0.0531,-0.0787,-2.6425,0.4987,-14.3325,10.69704458893046,-8.387918962707126,16.528031428104068,6.45577267532747
-0.1438,0.957,0.1773,-0.291,0.0531,-0.0787,-2.59,0.98,-14.4725,10.686158349594736,-8.395350154946355,16.527994590894828,6.467944563969837
-0.1447,0.955,0.1824,-0.2909,0.0554,-0.0794,-3.185,1.1375,-14.1575,10.730503660144512,-8.41856797814931,16.556099426870176,6.480134856258673
-0.1433,0.9573,0.181,-0.2909,0.0554,-0.0794,-3.6225,0.9975,-14.0262,10.718760727999157,-8.404809283990781,16.556166178330923,6.492281616845283
-0.1423,0.9568,0.1796,-0.2937,0.0536,-0.0779,-2.7913,0.9975,-14.5687,10.707738318990224,-8.362559365694482,16.556064388393807,6.50439192405523
-0.1428,0.9547,0.1772,-0.291,0.0529,-0.0784,-2.835,1.0587,-14.3238,10.677254884786297,-8.364005210210559,16.551057577742146,6.513885728219904
-0.145,0.9566,0.1802,-0.291,0.0529,-0.0784,-3.4563,1.015,-14.0262,10.67316336051367,-8.393153954438539,16.54998824154712,6.526020809569331
-0.1453,0.9562,0.1806,-0.2938,0.0527,-0.0764,-2.52,1.3125,-14.385,10.675697200419533,-8.43492772465585,16.41550657748507,6.538267020630134
-0.1428,0.9579,0.1827,-0.2938,0.0527,-0.0764,-2.485,0.8838,-14.8837,10.692813891865011,-8.377688483350624,16.373348891663856,6.550377681756359
-0.1438,0.9557,0.1763,-0.2936,0.0523,-0.0822,-2.5463,1.1375,-14.3937,10.67073171578714,-8.394314248860574,16.448164833939266,6.562475247980289
-0.1437,0.9539,0.1788,-0.2913,0.052,-0.0796,-2.6775,1.1725,-15.0237,10.669135774818258,-8.41050765831627,16.479440889530586,6.57465633844589
-0.1415,0.956,0.1811,-0.2913,0.052,-0.0796,-2.7913,1.5225,-14.4987,10.676387667070294,-8.348314294697767,16.54534177209372,6.586846276818449
-0.142,0.957,0.1827,-0.2918,0.0536,-0.0798,-2.8875,1.4,-13.4575,10.701927837860868,-8.338954912322968,16.598787062261263,6.599026659451494
-0.1454,0.96,0.1805,-0.2918,0.0536,-0.0798,-3.0625,1.3825,-14.35,10.686245619497873,-8.391028372264556,16.6301477360712,6.611180498363669
-0.1435,0.956,0.1795,-0.2893,0.0534,-0.0784,-3.1325,1.26,-14.5862,10.66921824833103,-8.391554334777107,16.621364401743897,6.62333292161073
-0.141,0.956,0.1801,-0.293,0.0529,-0.0794,-2.9838,0.98,-14.8137,10.66912806410095,-8.314078867734679,16.620351903179284,6.635411022439354
-0.1459,0.9567,0.1847,-0.293,0.0529,-0.0794,-2.555,1.295,-14.3325,10.690910849726668,-8.395428937419096,16.614679127714886,6.6449168597574895
-0.1454,0.9579,0.1789,-0.2918,0.0538,-0.0777,-2.94,0.8225,-14.6825,10.665531491620982,-8.441515352809839,16.573112608518173,6.657099011971926
-0.1437,0.9557,0.1798,-0.2918,0.0538,-0.0777,-2.8,0.8312,-14.6125,10.664104440944312,-8.424023368650234,16.540617650833983,6.669237986400414
-0.1437,0.9567,0.1832,-0.2906,0.0542,-0.0775,-2.87,0.8925,-14.4375,10.696226550063514,-8.40997317490255,16.527939617925878,6.681401381052101
-0.1442,0.9583,0.1812,-0.2907,0.0574,-0.0789,-3.0013,1.0237,-13.9038,10.699135262915915,-8.410082117678542,16.532774954910924,6.693532215406188
-0.1423,0.9546,0.1785,-0.2907,0.0574,-0.0789,-2.7213,1.3212,-14.3062,10.691705801407164,-8.38100272241501,16.573265886411292,6.705738787843826
-0.1437,0.9562,0.1801,-0.2928,0.0529,-0.0817,-3.0013,1.0762,-14.1487,10.685162022974396,-8.387592742697626,16.602915484124964,6.7178229052491805
-0.1437,0.9585,0.1792,-0.2928,0.0529,-0.0817,-2.9488,0.7788,-14.7175,10.663043595040163,-8.385356132987974,16.66835469158092,6.7300528361611835
-0.143,0.9587,0.1803,-0.2924,0.0537,-0.0775,-2.1175,0.6913,-14.2625,10.65888856949183,-8.368130533876334,16.576194341298663,6.742169159947862
-0.1448,0.9567,0.1805,-0.2911,0.0509,-0.0782,-2.9225,0.4725,-14.105,10.664387923559968,-8.396360172205757,16.51556060383267,6.754388473371517
-0.1437,0.9572,0.183,-0.2911,0.0509,-0.0782,-3.185,0.9625,-14.1837,10.719977697911567,-8.393511920542041,16.51224606987817,6.763768316494587
-0.1445,0.9543,0.1781,-0.2913,0.0546,-0.0826,-2.94,0.9538,-14.2362,10.686338660813876,-8.420169503342617,16.542808681909683,6.775923217155596
-0.1446,0.9578,0.1806,-0.2913,0.0546,-0.0818,-2.8175,1.3125,-14.4462,10.685148036052297,-8.428317698931515,16.681395964381856,6.788147131490869
-0.1459,0.9564,0.1804,-0.2906,0.0532,-0.0818,-2.6513,1.4175,-14.6475,10.685134731888594,-8.47669091052827,16.812597531521025,6.800291414663531
-0.1444,0.9564,0.1771,-0.2912,0.0529,-0.0782,-2.52,1.2075,-14.9362,10.663202187648183,-8.458575136122155,16.74451907418876,6.812534794394108
-0.1436,0.9586,0.1843,-0.2912,0.0529,-0.0782,-2.4675,0.6913,-14.7875,10.696669635664058,-8.410872179776096,16.680491755088244,6.824553083371704
-0.1421,0.9548,0.1773,-0.2905,0.0521,-0.0779,-2.8612,1.3562,-14.49,10.665465676459702,-8.371773647804218,16.60296297814601,6.836795755269725
-0.1443,0.9582,0.179,-0.2905,0.0534,-0.0765,-2.6338,1.225,-14.5425,10.66435040903025,-8.394671017223594,16.52420942017341,6.84891880346569
-0.1455,0.959,0.1829,-0.2914,0.0534,-0.0765,-2.835,0.8575,-14.3675,10.685437867562902,-8.428681368938033,16.479686686002584,6.861106264424301
-0.1438,0.9565,0.179,-0.2906,0.053,-0.0782,-3.185,0.7175,-14.8312,10.65547684997255,-8.416446042392266,16.47732570043744,6.8732335596156044
-0.1463,0.9555,0.1773,-0.2906,0.053,-0.0782,-3.15,1.085,-14.0963,10.607505568343173,-8.46054038516933,16.47578431752888,6.885418897076546
-0.1434,0.9565,0.184,-0.2926,0.0522,-0.077,-3.99,1.2337,-14.4025,10.768764397068392,-8.424068844653906,16.416827269511078,6.8948090037716865
-0.143,0.958,0.1794,-0.291,0.0555,-0.0796,-2.9838,0.77,-14.455,10.72794371389171,-8.389817353225359,16.48045025415256,6.906992217734958
-0.1454,0.955,0.1765,-0.291,0.0555,-0.0796,-2.7388,1.1462,-14.8575,10.706397257340987,-8.457989631649589,16.514438886907357,6.919143933149463
-0.1415,0.9565,0.1851,-0.2915,0.0518,-0.0771,-2.8875,1.1025,-14.5338,10.754049317019875,-8.36738634882338,16.488172530314596,6.931308035633707
-0.1418,0.957,0.1785,-0.2915,0.0518,-0.0771,-2.3888,0.9713,-14.4462,10.715311888745221,-8.332131404183595,16.48066989074699,6.943458335383099
-0.1459,0.9567,0.1787,-0.2922,0.0508,-0.0762,-2.695,0.9975,-14.8487,10.709154997910526,-8.43735695397688,16.48048673637143,6.955627392695239
-0.1435,0.9568,0.1847,-0.2913,0.0546,-0.0829,-3.0188,1.0675,-14.7525,10.767883746768323,-8.405922614081554,16.537450540607928,6.967819100649189
-0.1438,0.9561,0.1814,-0.2913,0.0546,-0.0829,-3.0013,0.8225,-14.525,10.761373543569697,-8.405761893321406,16.65427602793586,6.979937547933536
-0.1419,0.9562,0.1809,-0.2898,0.0536,-0.0787,-3.1412,1.2775,-14.3062,10.745368434066737,-8.362621595265674,16.648965290975294,6.992061303962058
-0.146,0.9572,0.1779,-0.2898,0.0536,-0.0787,-3.045,0.8225,-13.8687,10.68366990635476,-8.391452149550615,16.64268257459394,7.004285572213608
-0.1444,0.9567,0.1809,-0.29,0.0535,-0.0762,-2.4675,1.0937,-14.3238,10.687300168480922,-8.409212189275898,16.60107537140411,7.016458168688532
-0.1441,0.958,0.181,-0.2926,0.0542,-0.0826,-2.7213,0.9187,-15.1637,10.68811221774948,-8.408241934710414,16.643458170916578,7.025835180481376
-0.1433,0.9555,0.182,-0.2926,0.0542,-0.0826,-2.3538,1.1987,-14.665,10.709933767886602,-8.394484864181267,16.735930216336726,7.037977694072646
-0.1438,0.9577,0.1799,-0.292,0.0538,-0.0778,-2.6688,1.015,-14.3762,10.708432596808485,-8.394522071243312,16.729158341344547,7.05025044885432
-0.1437,0.9571,0.1789,-0.292,0.0538,-0.0778,-3.0188,1.505,-14.4725,10.675667226041353,-8.394912497324535,16.599170627447673,7.062362879561937
-0.1457,0.9568,0.1813,-0.2908,0.0522,-0.0795,-3.4388,0.9887,-14.84,10.69946463447521,-8.45684297137564,16.599901568888217,7.074444519553344
-0.1422,0.9559,0.1761,-0.2909,0.0522,-0.076,-3.0888,0.7088,-14.2712,10.619449366566341,-8.406077898871807,16.469866242836304,7.0866238404375546
-0.1407,0.9557,0.1842,-0.2909,0.0522,-0.076,-2.5463,1.3212,-14.3413,10.646026502359575,-8.332910188534614,16.37416597480902,7.098810593563608
-0.1446,0.9598,0.1828,-0.2923,0.0537,-0.0778,-2.8263,1.8112,-14.5075,10.666858490508051,-8.372187861344123,16.363732684778167,7.110989914447819
-0.1456,0.9573,0.1852,-0.2923,0.0537,-0.0778,-3.2813,0.9538,-14.49,10.776423833221065,-8.427030004056109,16.36411605964596,7.123174190159925
-0.1417,0.9561,0.1825,-0.2925,0.0537,-0.0782,-2.8612,0.7263,-14.5687,10.781742591262123,-8.358307818519723,16.374711683512512,7.135355988458083
-0.1441,0.9565,0.1829,-0.292,0.0542,-0.0806,-2.4325,1.2862,-14.5075,10.789443689761132,-8.385313653711643,16.488113775838027,7.147418870886741
-0.1452,0.9576,0.1789,-0.292,0.0542,-0.0806,-2.7037,0.6125,-15.0325,10.778362013986133,-8.438694075953734,16.588292952357456,7.156884715665432
-0.1444,0.9557,0.1767,-0.2932,0.0512,-0.0796,-2.2925,1.0325,-15.47,10.698968043533847,-8.44656860167587,16.585968988832487,7.169122786651836
-0.1448,0.9557,0.1838,-0.2932,0.0512,-0.0796,-2.5813,1.435,-14.8137,10.710550346110534,-8.455212243619036,16.581327362157367,7.18120690405719
-0.1435,0.9562,0.178,-0.2913,0.053,-0.0792,-3.115,1.3737,-14.6562,10.657826321979034,-8.424037173289527,16.587175027140315,7.193376315285609
-0.1423,0.9558,0.1776,-0.2909,0.0553,-0.0748,-2.9138,0.98,-14.945,10.630134486947401,-8.369737976209398,16.57551349646543,7.2055167053792095
-0.1456,0.9564,0.179,-0.2909,0.0553,-0.0748,-2.5375,1.085,-14.8662,10.627238093777821,-8.446771349422125,16.521433096968885,7.21770204284015
-0.1454,0.9567,0.1805,-0.291,0.0524,-0.0799,-2.66,0.8838,-14.2012,10.627957760695104,-8.463427282032452,16.54431441137757,7.229894104710378
-0.1441,0.9564,0.181,-0.291,0.0524,-0.0799,-1.9862,1.1638,-14.1925,10.66321942650706,-8.448649768071292,16.573672708390195,7.242041927045822
-0.1437,0.9577,0.1798,-0.2911,0.0527,-0.0779,-2.3275,0.7788,-14.8312,10.655902751308668,-8.416439835281942,16.540003562229725,7.254170283985961
-0.1437,0.9584,0.1795,-0.293,0.0532,-0.0785,-3.01,1.0762,-14.91,10.643179107195719,-8.398190467050547,16.52994395564449,7.266357744944572
-0.1464,0.9573,0.1793,-0.293,0.0532,-0.0785,-2.8438,0.7962,-14.455,10.637474581656958,-8.464831290325527,16.50880627108852,7.278494949791668
-0.143,0.9565,0.1846,-0.291,0.0538,-0.0792,-2.8,0.9887,-14.7,10.675379154813536,-8.406788432228915,16.510307026961218,7.287955485826184
-0.146,0.9584,0.1818,-0.291,0.0538,-0.0792,-2.6863,0.7,-14.5338,10.677841582225389,-8.455982199125035,16.54574542745331,7.300064377371018
-0.1424,0.9574,0.1806,-0.2903,0.0543,-0.0854,-2.52,1.155,-14.3413,10.678368959225569,-8.398929238964554,16.71717219260625,7.312254315743576
-0.1433,0.9578,0.1818,-0.2904,0.0534,-0.0791,-2.9663,1.5137,-14.525,10.695080628709329,-8.381777419129465,16.70075297208633,7.324425142637108
-0.1415,0.9564,0.1798,-0.2904,0.0534,-0.0791,-3.0713,0.91,-14.5338,10.680805559936998,-8.331014788064035,16.697126252836178,7.33648944073088
-0.145,0.9567,0.1819,-0.2941,0.0524,-0.0787,-2.9138,1.2775,-15.0237,10.698589782109963,-8.410576628716605,16.627930566389267,7.348696367084796
-0.1446,0.9579,0.1808,-0.2941,0.0524,-0.0787,-2.4325,0.6212,-14.7262,10.696826895328286,-8.424482752869011,16.557800376726643,7.3608877211224675
-0.1437,0.9567,0.1834,-0.2926,0.0546,-0.0796,-2.7388,1.1375,-14.6825,10.709841040955284,-8.40785562250202,16.57355194843872,7.373061025429947
-0.1443,0.9574,0.1821,-0.2916,0.052,-0.0774,-2.1525,0.9013,-14.9275,10.72947892975043,-8.415975967263526,16.54702619150365,7.385237514983931
-0.1433,0.9559,0.1818,-0.2916,0.052,-0.0774,-3.1238,1.26,-14.6125,10.742015503528698,-8.397335856755438,16.48934075921404,7.3973644562589564
-0.1409,0.9559,0.1821,-0.2902,0.0534,-0.0787,-3.0975,1.1287,-14.6037,10.755570364470536,-8.320374738755797,16.503700475540843,7.406778629261019
-0.1416,0.9576,0.1803,-0.2902,0.0534,-0.0787,-2.765,1.1812,-14.77,10.745817851915259,-8.292875740367288,16.5181984444884,7.418971752880083
-0.1458,0.9581,0.1839,-0.2906,0.0546,-0.0776,-2.4675,1.3912,-14.8312,10.764028140843088,-8.404586961359284,16.49576305876999,7.431139748443388
-0.1437,0.9548,0.1833,-0.2913,0.0541,-0.0787,-3.1937,1.3737,-14.6912,10.800511643529033,-8.40614623165037,16.519976965030992,7.443344197383356
-0.1432,0.9575,0.184,-0.2913,0.0541,-0.0787,-3.675,1.4088,-14.1575,10.839663984830619,-8.389196062930347,16.539065589614935,7.455424067793372
-0.1441,0.9553,0.1789,-0.2902,0.051,-0.0792,-3.22,0.4987,-14.3587,10.754926617222827,-8.40745676991567,16.565509822325602,7.467603388677581
-0.1462,0.9579,0.1784,-0.2902,0.051,-0.0792,-2.3625,0.6563,-14.4025,10.709494524307937,-8.46115341606351,16.5773806637301,7.479777400817618
-0.1441,0.957,0.1778,-0.2908,0.0533,-0.0764,-2.5288,1.05,-14.8575,10.68994804993644,-8.439249551107757,16.55518031748618,7.4918749670415465
-0.1432,0.9563,0.1851,-0.2914,0.0524,-0.0794,-2.5463,0.9275,-14.9275,10.714215149704394,-8.396848251849894,16.562625145459293,7.504079415981515
-0.1457,0.9572,0.1803,-0.2914,0.0524,-0.0794,-2.6075,0.7962,-14.8925,10.712423950602243,-8.457954813789721,16.57458518201492,7.516241748884368
-0.1434,0.9543,0.1834,-0.293,0.0526,-0.0786,-2.31,1.2163,-14.3762,10.754338212334956,-8.4313859424527,16.550323219493595,7.528420361936021
-0.1454,0.9564,0.1815,-0.293,0.0526,-0.0786,-2.8,0.9013,-14.735,10.753164013894612,-8.464391171773837,16.539217349235127,7.537854354249668
-0.1456,0.9559,0.1796,-0.2907,0.0542,-0.0778,-3.2025,0.9975,-14.8137,10.713121257808895,-8.49089416163598,16.539177632806364,7.549984480771198
-0.1404,0.9563,0.182,-0.2926,0.0534,-0.078,-3.045,1.505,-14.4112,10.730868728996848,-8.368969491482417,16.47918538999772,7.562145398008938
