AcclX,AcclY,AcclZ,MagX,MagY,MagZ,GyroX,GyroY,GyroZ,Roll,Pitch,Yaw,Time(s)
-0.1465,0.9536,0.1828,-0.2895,0.0539,-0.0764,-2.7388,0.8925,-14.8312,0,0,0,1.6204545205195349
-0.1376,0.9383,0.1809,-0.2916,0.053,-0.0782,-2.7388,0.8925,-14.8312,0,0,0,1.6325687208085429
-0.1433,0.9581,0.1792,-0.2916,0.053,-0.0782,-2.66,0.8487,-14.4987,0,0,0,1.6447399016183528
-0.1468,0.952,0.1794,-0.2914,0.0534,-0.077,-2.7037,1.2687,-14.56,0,0,0,1.6569029423537627
-0.14,0.9624,0.1789,-0.2914,0.0534,-0.077,-3.22,1.1725,-14.2625,0,0,0,1.6690691683356769
-0.1444,0.9579,0.1843,-0.2903,0.054,-0.0819,-2.975,1.1375,-14.6125,0,0,0,1.6812099123455553
-0.1433,0.95,0.184,-0.2903,0.054,-0.0777,-3.6663,1.1725,-14.3325,0,0,0,1.6933895871460438
-0.1424,0.9568,0.1771,-0.2903,0.0515,-0.0777,-2.625,1.015,-14.5075,0,0,0,1.7055703236953672
-0.1434,0.9568,0.1784,-0.2918,0.0518,-0.0783,-2.5463,1.1638,-14.6737,0,0,0,1.7177843283748482
-0.1458,0.9597,0.1787,-0.2918,0.0518,-0.0783,-2.3275,0.3938,-14.9187,0,0,0,1.727168418493258
-0.1429,0.9568,0.1783,-0.291,0.0539,-0.0758,-2.66,0.7613,-14.56,0,0,0,1.7392900510241098
-0.1408,0.9539,0.1868,-0.2902,0.0526,-0.08,-2.6688,1.3387,-14.35,0,0,0,1.7515005165408082
-0.1419,0.9586,0.1865,-0.2902,0.0526,-0.08,-2.9225,1.575,-13.9387,0,0,0,1.7636943479924276
-0.1435,0.9546,0.1809,-0.2904,0.0529,-0.0794,-2.8963,1.1375,-14.2712,0,0,0,1.7758202275186186
-0.1444,0.9604,0.1794,-0.2904,0.0529,-0.0794,-2.5113,1.2775,-14.3937,0,0,0,1.7879096536681476
-0.1458,0.958,0.1807,-0.2894,0.053,-0.0777,-3.0888,0.9625,-14.7962,0,0,0,1.8001084399476628
-0.1479,0.9542,0.1828,-0.291,0.053,-0.077,-2.0825,1.0412,-14.8837,0,0,0,1.8122626327761158
-0.1419,0.9543,0.1821,-0.291,0.053,-0.077,-2.6425,1.1987,-14.7962,0,0,0,1.8244373527487083
-0.1448,0.9553,0.1851,-0.2917,0.0527,-0.0786,-2.4413,0.8487,-14.8925,0,0,0,1.8365632322748995
-0.1405,0.9558,0.1828,-0.2917,0.0527,-0.0786,-2.2225,1.19,-14.1925,0,0,0,1.8487690968799801
-0.1414,0.9562,0.1758,-0.2917,0.0522,-0.0802,-2.5725,1.5925,-14.07,0,0,0,1.8581666358169644
-0.1459,0.9573,0.1792,-0.2917,0.0531,-0.0804,-3.325,1.365,-14.4987,0,0,0,1.8703678995104276
-0.1427,0.9583,0.1805,-0.2917,0.0531,-0.0804,-3.1588,1.1287,-14.9975,0,0,0,1.8825065200226365
-0.1442,0.9575,0.1801,-0.29,0.0522,-0.0802,-2.9838,0.7263,-14.6912,0,0,0,1.8947067219672649
-0.1451,0.9574,0.1815,-0.29,0.0522,-0.0802,-3.955,0.8838,-14.49,0,0,0,1.9067922550377328
-0.1428,0.9582,0.1793,-0.2923,0.0531,-0.0808,-3.0538,1.3825,-14.9012,0,0,0,1.9189729915870561
-0.1403,0.9538,0.1851,-0.2912,0.053,-0.0768,-2.73,0.8312,-14.6037,0,0,0,1.9311512507224315
-0.1432,0.9532,0.1758,-0.2912,0.053,-0.0768,-2.1525,1.0062,-14.6125,0,0,0,1.9432941182299797
-0.1454,0.9565,0.1825,-0.293,0.0519,-0.079,-2.3975,1.19,-14.1225,0,0,0,1.9554691921188507
-0.1418,0.9589,0.1789,-0.293,0.0519,-0.079,-2.94,1.1375,-14.175,0,0,0,1.9676534678309567
-0.1435,0.9592,0.1803,-0.2909,0.0533,-0.0778,-3.045,1.6362,-14.3062,0,0,0,1.9798296034686627
-0.141,0.9566,0.1854,-0.2916,0.0526,-0.0807,-3.1412,0.8925,-14.84,0,0,0,1.9893449965263117
-0.1401,0.9567,0.1812,-0.2916,0.0526,-0.0807,-2.625,0.7962,-14.63,0,0,0,2.0014096485363613
-0.1424,0.957,0.1783,-0.2902,0.0538,-0.0795,-3.29,1.3737,-14.3587,0,0,0,2.0135511003787965
-0.1449,0.9567,0.1765,-0.2902,0.0538,-0.0795,-2.9488,1.6975,-14.9012,0,0,0,2.02573183692812
-0.144,0.9586,0.1826,-0.2929,0.0536,-0.077,-3.045,1.2862,-14.7087,0,0,0,2.0378623173659283
-0.1477,0.9557,0.1792,-0.2915,0.053,-0.0787,-2.6688,1.1812,-14.1487,0,0,0,2.0500313746780687
-0.1421,0.9547,0.1809,-0.2915,0.053,-0.0787,-2.6338,1.4612,-14.2537,0,0,0,2.06221458864134
-0.1449,0.9554,0.1792,-0.2938,0.0522,-0.0794,-2.9575,0.9187,-14.4987,0,0,0,2.0743645344744537
-0.144,0.9556,0.1781,-0.2938,0.0522,-0.0794,-2.4938,1.2775,-14.4987,0,0,0,2.086546332772612
-0.1441,0.959,0.1801,-0.2917,0.0512,-0.0729,-2.9313,1.3475,-14.7788,0,0,0,2.098642483331428
-0.1448,0.9571,0.1807,-0.2886,0.0525,-0.0786,-3.3075,1.0587,-14.3675,0,0,0,2.110765885443671
-0.1462,0.9575,0.1781,-0.2886,0.0525,-0.0786,-3.2638,1.2337,-14.2275,0,0,0,2.1202681835990242
-0.1425,0.9571,0.1831,-0.2914,0.0528,-0.0778,-2.6775,0.77,-14.4987,0,0,0,2.132409281525181
-0.1442,0.9562,0.1809,-0.2914,0.0528,-0.0778,-3.2462,0.8663,-14.5513,0,0,0,2.144598512065183
-0.1418,0.9567,0.1752,-0.2926,0.0526,-0.0806,-2.695,1.26,-14.6387,0,0,0,2.156705280112347
-0.1446,0.9561,0.1787,-0.291,0.0507,-0.0794,-2.975,1.3387,-14.42,0,0,0,2.1688923871546795
-0.1448,0.9583,0.1782,-0.291,0.0507,-0.0794,-2.625,0.7875,-14.4287,0,0,0,2.181042332987793
-0.1405,0.9565,0.1818,-0.2914,0.0525,-0.0795,-2.9138,0.8312,-14.1312,0,0,0,2.19323050177896
-0.1424,0.957,0.1809,-0.2914,0.0525,-0.0795,-2.87,1.3125,-14.5075,0,0,0,2.205358504802821
-0.1424,0.9559,0.1789,-0.291,0.0527,-0.0777,-3.1063,1.2337,-14.7613,0,0,0,2.217528623863796
-0.143,0.9567,0.1815,-0.2901,0.0533,-0.0805,-2.9925,0.8225,-14.6125,0,0,0,2.2297305953898157
-0.143,0.9565,0.1787,-0.2901,0.0533,-0.0805,-2.6863,0.9538,-14.4637,0,0,0,2.241841256516041
-0.1416,0.9582,0.1866,-0.2919,0.0542,-0.0791,-3.4475,0.9538,-14.1487,0,0,0,2.251332937183046
-0.1443,0.9562,0.1766,-0.2919,0.0542,-0.0791,-3.0188,1.19,-14.35,0,0,0,2.2634478453046105
-0.1455,0.955,0.177,-0.2919,0.0515,-0.0761,-2.625,0.56,-15.0675,0,0,0,2.275677068384057
-0.1418,0.9583,0.1814,-0.2911,0.0529,-0.079,-3.0275,1.155,-15.0937,0,0,0,2.2877866677614476
-0.1424,0.9578,0.1789,-0.2911,0.0529,-0.079,-2.6863,1.1112,-14.5162,0,0,0,2.300165951342882
-0.1444,0.9579,0.1834,-0.2928,0.0514,-0.0796,-3.1937,0.8925,-14.7613,0,0,0,2.3120692175300395
-0.1457,0.9555,0.1812,-0.2928,0.0514,-0.0796,-3.325,1.0675,-14.9012,0,0,0,2.3242559706560937
-0.1446,0.957,0.1774,-0.2921,0.0538,-0.0782,-3.2288,0.8925,-14.8312,0,0,0,2.3364363532891383
-0.143,0.9557,0.1816,-0.2902,0.0522,-0.0782,-2.6338,1.3475,-14.4025,0,0,0,2.3485827599594695
-0.1454,0.9571,0.1831,-0.2902,0.0522,-0.0782,-3.0975,1.015,-14.5162,0,0,0,2.360759603429732
-0.144,0.9557,0.1843,-0.2918,0.0539,-0.0784,-2.9488,0.9275,-14.7525,0,0,0,2.370145463129533
-0.1449,0.9565,0.177,-0.2918,0.0539,-0.0784,-2.6513,0.8663,-14.8662,0,0,0,2.382324430097465
-0.1455,0.9567,0.1828,-0.2931,0.0523,-0.0806,-2.9838,1.1112,-14.3675,0,0,0,2.394473668098022
-0.1441,0.9562,0.1791,-0.2904,0.0532,-0.0782,-2.8263,1.1987,-14.49,0,0,0,2.4066614829729107
-0.1426,0.9541,0.1788,-0.2904,0.0532,-0.0782,-2.695,0.9013,-13.8775,0,0,0,2.418853898759417
-0.1405,0.9565,0.1868,-0.2926,0.0528,-0.0777,-2.8525,0.8312,-14.6387,0,0,0,2.4309426170763895
-0.1463,0.9584,0.176,-0.2926,0.0528,-0.0777,-2.8438,1.0675,-14.4725,0,0,0,2.443127246704774
-0.145,0.957,0.1811,-0.294,0.0519,-0.0686,-2.2225,1.19,-14.7,0,0,0,2.455311168500602
-0.1415,0.9559,0.1767,-0.2909,0.0523,-0.0792,-2.625,1.1112,-14.5775,0,0,0,2.4674388176081843
-0.141,0.9556,0.1857,-0.2909,0.0523,-0.0792,-2.4063,1.1987,-14.6562,0,0,0,2.4796206159063425
-0.1433,0.9559,0.1807,-0.2917,0.0521,-0.0793,-2.4675,1.0412,-14.175,0,0,0,2.491769146074343
-0.1435,0.9559,0.1742,-0.2917,0.0521,-0.0793,-2.485,0.56,-14.6212,0,0,0,2.501210570629833
-0.1419,0.9568,0.1813,-0.2886,0.0554,-0.0815,-2.3187,1.225,-14.175,0,0,0,2.5134139578209655
-0.1452,0.9593,0.1807,-0.2918,0.0538,-0.0792,-2.7213,0.6388,-14.315,0,0,0,2.525518248454182
-0.1405,0.9548,0.1835,-0.2918,0.0538,-0.0792,-2.6863,0.8487,-14.0963,0,0,0,2.537703585915123
-0.1427,0.9538,0.1819,-0.291,0.0543,-0.0801,-2.6513,0.8663,-14.1487,0,0,0,2.549858132659854
-0.1418,0.9599,0.1781,-0.291,0.0543,-0.0801,-2.9225,1.6362,-14.63,0,0,0,2.5620232968929337
-0.1441,0.9572,0.1767,-0.2938,0.0545,-0.079,-2.7213,1.0325,-14.4112,0,0,0,2.5742029716934223
-0.1436,0.9562,0.1722,-0.2906,0.053,-0.0784,-3.1325,1.0062,-14.7087,0,0,0,2.5863256659731086
-0.1443,0.9613,0.1809,-0.2906,0.053,-0.0784,-3.045,0.9887,-14.1312,0,0,0,2.598484813629457
-0.1424,0.9564,0.1789,-0.2906,0.0515,-0.0786,-2.905,0.9363,-14.2712,0,0,0,2.6106552866067108
-0.1432,0.9557,0.1801,-0.2906,0.0515,-0.0786,-2.4675,1.2075,-14.5862,0,0,0,2.622717815119091
-0.1423,0.9526,0.1807,-0.2912,0.053,-0.0862,-2.8263,0.9275,-14.1487,0,0,0,2.632230376846514
-0.1419,0.9564,0.1816,-0.2909,0.0542,-0.0794,-2.8438,0.8225,-14.56,0,0,0,2.6443920019168106
-0.1467,0.9573,0.1819,-0.2909,0.0542,-0.0794,-2.415,1.0412,-14.7788,0,0,0,2.6565886646986563
-0.1429,0.9569,0.1799,-0.2899,0.0538,-0.0831,-2.1788,0.6913,-15.015,0,0,0,2.6687269312945867
-0.1419,0.9536,0.1835,-0.2899,0.0538,-0.0831,-2.1963,0.7613,-14.5775,0,0,0,2.6808354689231426
-0.1424,0.9558,0.1837,-0.291,0.0531,-0.0786,-2.8175,1.0762,-14.6912,0,0,0,2.6930236377143095
-0.1452,0.9569,0.1842,-0.2922,0.0522,-0.0783,-3.1675,0.9887,-14.9975,0,0,0,2.70522950231939
-0.1443,0.957,0.1814,-0.2922,0.0522,-0.0783,-3.2375,1.1025,-14.4812,0,0,0,2.7173844029803997
-0.1433,0.9566,0.181,-0.2926,0.0536,-0.0812,-2.87,1.5662,-14.2187,0,0,0,2.729515591250765
-0.1444,0.9569,0.1768,-0.2926,0.0536,-0.0817,-2.2838,0.9887,-14.2975,0,0,0,2.7416970356326447
-0.1432,0.9572,0.1806,-0.291,0.0534,-0.0817,-2.24,0.8312,-14.7788,0,0,0,2.7538098202565395
-0.1424,0.9557,0.1825,-0.2902,0.0528,-0.0797,-2.8788,1.19,-14.1487,0,0,0,2.7632834511933524
-0.1432,0.9593,0.1823,-0.2902,0.0528,-0.0797,-3.0625,1.2425,-14.0963,0,0,0,2.775388803575404
-0.1418,0.9573,0.182,-0.2911,0.0554,-0.0819,-2.9488,1.2337,-14.5687,0,0,0,2.7875921907665364
-0.1444,0.9549,0.1771,-0.2911,0.0527,-0.0779,-2.52,0.9625,-14.6475,0,0,0,2.799902814589986
-0.1434,0.9563,0.1799,-0.2922,0.0527,-0.0779,-3.0188,1.05,-14.385,2.8980656014124975,-3.5672358556237413,0.6531609437983187,4.224409464145981
-0.1434,0.954,0.1778,-0.2902,0.0527,-0.0786,-3.0975,1.1462,-14.35,5.283633210727724,-5.56909458296891,2.5789686091947543,4.229096731335429
-0.1438,0.9574,0.1751,-0.2902,0.0527,-0.0786,-2.5638,0.8925,-15.0412,5.665824948632635,-7.221568078417918,4.026557791435204,4.233590406320662
-0.1437,0.9572,0.1791,-0.2929,0.054,-0.0798,-1.9162,0.945,-14.8137,7.745275922199258,-7.853692781454361,4.7788736557610845,4.238697064299863
-0.1434,0.9573,0.1811,-0.2901,0.0534,-0.0802,-2.6863,1.0062,-14.8487,7.862570406091551,-8.137423823556002,4.804694446022986,4.243280987936056
-0.1435,0.9587,0.1808,-0.2901,0.0534,-0.0802,-3.2288,0.8925,-15.05,8.900898918745414,-8.271909868888104,6.057427862874641,4.247820672037465
-0.143,0.9566,0.1806,-0.2929,0.0514,-0.0779,-3.3775,1.015,-14.98,9.657769434800374,-8.320327867416376,6.124977677973783,4.252460514445624
-0.1419,0.9556,0.1806,-0.2929,0.0514,-0.0779,-2.8612,1.085,-14.7525,9.843328430726672,-8.310407407561923,6.8471215049740755,4.257291471644051
-0.1415,0.9554,0.1811,-0.2909,0.0524,-0.0771,-3.0188,0.8925,-14.7175,10.085417260418678,-8.294277891939725,7.824123521779794,4.261728873941038
-0.145,0.959,0.1814,-0.294,0.0542,-0.0794,-2.835,1.0237,-14.63,10.18527729387696,-8.371738730887563,7.956111162699823,4.265506930211603
-0.1462,0.9561,0.1787,-0.294,0.0542,-0.0794,-3.0538,0.875,-14.4812,10.301739174300923,-8.452105910217044,8.96514586209952,4.267367822002763
-0.1429,0.9547,0.1808,-0.2923,0.0547,-0.0776,-3.395,1.12,-14.9012,10.482523229368137,-8.404329630732603,9.705234202019211,4.269239685198549
-0.1421,0.9561,0.1826,-0.2923,0.0547,-0.0776,-3.6575,1.2337,-14.3413,10.648466056160832,-8.36382487198437,10.926366110279695,4.271104823985048
-0.1421,0.9561,0.1823,-0.2888,0.0549,-0.0787,-3.4563,0.8487,-14.3062,10.714110334028911,-8.340868219173556,11.725055733045297,4.2729480199622945
-0.1462,0.9552,0.1756,-0.2918,0.0543,-0.076,-2.87,1.0325,-14.9625,10.659514295860808,-8.465875939734376,11.826466245489828,4.274802895176723
-0.1459,0.9584,0.1801,-0.2918,0.0543,-0.076,-3.3863,0.9187,-14.7087,10.652380158570539,-8.488184529545087,12.17425352247478,4.276645737237691
-0.1429,0.9569,0.1816,-0.2907,0.0511,-0.0798,-3.5788,1.2075,-14.5775,10.697474374913828,-8.419911386049565,12.9288724334305,4.278511229940468
-0.1432,0.9562,0.1809,-0.2907,0.0511,-0.0798,-3.0713,0.8575,-14.5513,10.702103704589188,-8.396628532734303,13.424984211353408,4.280355487666549
-0.1433,0.9543,0.179,-0.2922,0.0528,-0.0806,-2.9838,0.8838,-14.6475,10.682254446393337,-8.396109457777666,13.79964318074142,4.282523224870971
-0.1409,0.9557,0.1844,-0.2916,0.0525,-0.0794,-2.9225,1.0762,-14.2625,10.73406763005042,-8.335318984978892,13.981199010762225,4.284449237257333
-0.1408,0.9555,0.1803,-0.2916,0.0525,-0.0794,-2.73,1.0587,-14.6737,10.730299640837865,-8.286601674301725,14.108051995466532,4.286357907746059
-0.1454,0.9615,0.181,-0.2897,0.0521,-0.0787,-2.5725,0.9187,-14.385,10.725608153109727,-8.35739110475611,14.312297245299275,4.288414161322827
-0.1441,0.9605,0.1867,-0.2897,0.0521,-0.0787,-3.2288,0.9363,-14.5075,10.82668685806405,-8.366805566563645,14.468258308229698,4.290313276072039
-0.1424,0.9575,0.1819,-0.2916,0.0528,-0.0824,-2.9313,0.8312,-14.525,10.811076156574622,-8.34138664366527,14.87549166902892,4.292179830523652
-0.1444,0.9536,0.1748,-0.2923,0.053,-0.0747,-2.8612,0.9538,-14.7437,10.735785157803289,-8.409582663668875,14.91967414298695,4.294054878965942
-0.1426,0.9536,0.1845,-0.2923,0.053,-0.0747,-2.695,0.8838,-14.8312,10.745964694851622,-8.378473347369264,15.017498965414227,4.295916832505936
-0.1459,0.9587,0.1821,-0.292,0.0527,-0.0778,-2.52,1.1112,-14.0525,10.746959619999648,-8.414692552981093,15.140602885343467,4.297260652614539
-0.1476,0.9601,0.1823,-0.292,0.0527,-0.0778,-2.7738,1.2862,-14.1138,10.747433047992955,-8.470313019892993,15.400843028782415,4.2985244876442525
-0.1435,0.9548,0.1786,-0.291,0.0526,-0.0741,-2.835,0.8138,-14.5075,10.72311294348878,-8.439395151202795,15.450317330050638,4.29976071720426
-0.1429,0.9534,0.183,-0.2907,0.0545,-0.079,-3.3513,0.9713,-14.35,10.78203069210438,-8.412201337115107,15.49421431765379,4.300978897034076
-0.1428,0.9575,0.1806,-0.2907,0.0545,-0.079,-3.0713,0.945,-14.735,10.751967803473605,-8.373275157505043,15.563340405660936,4.302207340435961
-0.1438,0.9555,0.1778,-0.2926,0.0535,-0.0788,-3.5875,1.1462,-14.7613,10.649648642134832,-8.395961166938552,15.673870032729587,4.30343507600529
-0.1436,0.9567,0.1782,-0.2926,0.0535,-0.0788,-2.625,1.2163,-14.2187,10.647706697729983,-8.39526964025804,15.812110301792746,4.304717668597752
-0.1423,0.9587,0.1833,-0.2906,0.0526,-0.0749,-2.7738,0.84,-14.6825,10.667815524317662,-8.344030435693213,15.82442619007447,4.305986458455361
-0.1456,0.9592,0.187,-0.291,0.0515,-0.0782,-3.0888,1.0325,-14.63,10.779635503983426,-8.40857933931536,15.839512232768108,4.307217025354917
-0.1418,0.9562,0.1792,-0.291,0.0515,-0.0782,-3.115,1.3037,-14.42,10.726876850350202,-8.35804812103648,15.969794328580823,4.308426711194054
-0.1406,0.9531,0.1824,-0.2909,0.0506,-0.079,-3.2813,1.2512,-14.6475,10.76853260730572,-8.301018435298905,16.085507103411892,4.309637104865748
-0.1449,0.956,0.1785,-0.2909,0.0506,-0.079,-2.6775,1.47,-14.2012,10.762505174831386,-8.36303462927004,16.226599179905655,4.310855284695563
-0.1478,0.9586,0.1806,-0.2901,0.0546,-0.0794,-2.7213,1.1725,-14.0963,10.755919759343234,-8.441715654191686,16.30179195547981,4.312130445046181
-0.1436,0.9598,0.1833,-0.2905,0.0529,-0.079,-2.7037,0.98,-14.1575,10.759022038826238,-8.414090511517307,16.311146419139572,4.313358888448067
-0.1412,0.9517,0.1826,-0.2905,0.0529,-0.079,-3.0713,0.5075,-14.0437,10.789550147849463,-8.378711406163532,16.423286808933675,4.314588039682509
-0.1429,0.9574,0.1831,-0.2902,0.052,-0.0789,-3.0975,0.7788,-13.8075,10.801188511280893,-8.373312875664558,16.459576930223122,4.31581754483323
-0.1453,0.9567,0.1823,-0.2902,0.052,-0.0789,-2.4237,1.1812,-13.9912,10.798874684559328,-8.4022011768625,16.482295780975633,4.3171234959000575
-0.1437,0.9578,0.1764,-0.2906,0.0538,-0.0729,-2.4675,1.5662,-14.6475,10.74403741817501,-8.39780314244492,16.137306152829307,4.318359017627508
-0.1463,0.9582,0.1803,-0.2922,0.0502,-0.0786,-2.7125,1.7062,-14.63,10.73851171580263,-8.4651657095749,16.242373491909504,4.319652581624596
-0.1441,0.9568,0.1771,-0.2922,0.0502,-0.0786,-2.765,1.3387,-14.525,10.71154400406351,-8.445770849765214,16.274439375228987,4.320889872933439
-0.1412,0.9512,0.1806,-0.2899,0.0518,-0.079,-2.415,1.5225,-14.7875,10.71883689767569,-8.366652463776646,16.397353222148304,4.322101682270246
-0.1423,0.957,0.1831,-0.2899,0.0518,-0.079,-3.0275,1.8112,-14.665,10.749953664393884,-8.337535060319993,16.508349913599865,4.323325878676792
-0.1402,0.9592,0.183,-0.291,0.0538,-0.0767,-2.8263,0.6475,-14.1138,10.7578310644385,-8.28411732663935,16.433734396075085,4.324549013334504
-0.1453,0.9549,0.1789,-0.2902,0.0526,-0.0798,-3.3863,0.6563,-13.7287,10.695466964628153,-8.30139819005937,16.52049963009397,4.325774271489886
-0.1412,0.958,0.1831,-0.2902,0.0526,-0.0798,-2.4325,0.8575,-14.5425,10.717356351630897,-8.271150744132884,16.556105753428003,4.326992451319701
-0.144,0.9554,0.1769,-0.2914,0.052,-0.0784,-2.5375,1.3125,-14.5162,10.695258849462183,-8.345165149086794,16.52512662777724,4.328220540805309
-0.1447,0.9585,0.183,-0.2914,0.052,-0.0784,-2.7475,1.0237,-14.7525,10.705821656998157,-8.39224642876127,16.524196587568,4.329433765807228
-0.1427,0.9542,0.178,-0.2911,0.0524,-0.079,-2.9663,0.9975,-15.2075,10.672006568330783,-8.374613514189514,16.52463670724319,4.330650883888209
-0.1429,0.9559,0.1796,-0.2927,0.0509,-0.08,-3.1412,1.2075,-14.595,10.66172740666996,-8.366616592969045,16.542036799579467,4.331869417634303
-0.1449,0.9561,0.1828,-0.2927,0.0509,-0.08,-3.08,1.1025,-14.28,10.710890552072911,-8.405513418532847,16.551536581965212,4.33307945738972
-0.1402,0.953,0.178,-0.2914,0.0543,-0.0784,-2.485,0.6563,-14.6562,10.692784168274114,-8.316581807655576,16.536077258867607,4.334288081480022
-0.1407,0.9557,0.1785,-0.2914,0.0543,-0.0784,-3.15,0.6125,-14.9012,10.654769326719865,-8.270945346508459,16.523619468080387,4.335510862221455
-0.1445,0.9587,0.1773,-0.2903,0.0523,-0.0834,-3.6312,1.1112,-14.4112,10.56689584634326,-8.340211703808347,16.603074924736255,4.336733642962888
-0.1426,0.9583,0.1827,-0.2906,0.0521,-0.0789,-2.5725,0.7613,-14.4987,10.582270247972389,-8.329132751690869,16.601429776464844,4.337940497471799
-0.1438,0.9556,0.1767,-0.2906,0.0521,-0.0789,-1.9075,1.2337,-14.385,10.537256321149247,-8.366583401301435,16.592901695779567,4.339158323385337
-0.1425,0.9573,0.1863,-0.2907,0.0527,-0.0782,-2.9313,0.9625,-14.7437,10.643031486235211,-8.338494127429328,16.58919902318406,4.340395614694179
-0.1451,0.9595,0.1762,-0.2907,0.0527,-0.0782,-3.3163,1.2775,-15.0762,10.547719160195038,-8.410041007465066,16.555671167409997,4.341604238784482
-0.1429,0.9561,0.1831,-0.2918,0.0514,-0.0782,-3.0188,1.2425,-15.0325,10.627575029861381,-8.375733584113327,16.52518491487352,4.342819233367793
-0.143,0.9537,0.1828,-0.2894,0.0531,-0.0794,-3.15,1.2075,-14.9625,10.702376186333156,-8.376600418581779,16.567753850642873,4.344163761308953
-0.1458,0.9574,0.1794,-0.2894,0.0531,-0.0794,-2.7125,0.6913,-14.5687,10.696745524008575,-8.442102648176341,16.611965003645757,4.345411670106143
-0.1471,0.9589,0.184,-0.292,0.0536,-0.0786,-2.5725,0.4725,-14.525,10.707954408677264,-8.500844627913265,16.578778741648495,4.3466149854522715
-0.142,0.9562,0.1812,-0.292,0.0536,-0.0786,-2.765,1.33,-14.8662,10.710348236818383,-8.391120537568153,16.559204190882998,4.347816531217009
-0.1413,0.9575,0.1779,-0.2894,0.052,-0.0806,-2.8087,1.155,-14.8312,10.684340769383516,-8.31744421311345,16.605997920704358,4.349014891735242
-0.145,0.9595,0.1799,-0.2937,0.0531,-0.0789,-2.695,0.9975,-14.56,10.681251777235223,-8.380088417280113,16.604177552979635,4.350211128755804
-0.1419,0.9572,0.1826,-0.2937,0.0531,-0.0789,-3.43,1.5225,-14.28,10.73357913708242,-8.343178114841523,16.5547412346417,4.351408427525202
-0.1441,0.9564,0.1827,-0.2924,0.0511,-0.077,-2.555,1.6712,-14.63,10.740299492239906,-8.380456442225775,16.38939983984472,4.352601125382982
-0.1438,0.9567,0.1796,-0.2924,0.0511,-0.077,-2.6075,1.2163,-14.3413,10.736381932604163,-8.389879711910691,16.34255239575545,4.353797362403545
-0.1465,0.9532,0.1806,-0.2916,0.0536,-0.0778,-2.6863,1.1462,-14.0612,10.736070075469533,-8.44792305277677,16.34689840875833,4.354990060261325
-0.1407,0.957,0.182,-0.2918,0.053,-0.0792,-3.2638,1.0237,-14.6825,10.748193584707803,-8.331102316487993,16.350790230715816,4.3562050548446365
-0.1459,0.9558,0.1774,-0.2918,0.053,-0.0792,-2.7213,1.1638,-14.5513,10.731666869803155,-8.428298802161065,16.38070554230859,4.357412263269826
-0.1432,0.9603,0.1832,-0.2918,0.0523,-0.0786,-3.1325,0.8575,-14.0,10.754302152209666,-8.40338118240563,16.394290019070215,4.358633628346146
-0.1449,0.959,0.1787,-0.2918,0.0523,-0.0786,-3.2025,1.4787,-14.2975,10.683129386619958,-8.42133854650037,16.41334997217773,4.359864195245701
-0.1444,0.9564,0.1835,-0.2921,0.0532,-0.0807,-2.8087,0.7962,-14.9713,10.708143734487015,-8.428710056403096,16.493566667322803,4.361078481996456
-0.1451,0.9568,0.1829,-0.2902,0.053,-0.0793,-3.2813,0.9887,-14.5513,10.752409168179675,-8.449374908278378,16.497833128212033,4.362286752170481
-0.1424,0.9551,0.1792,-0.2902,0.053,-0.0793,-3.22,1.1375,-14.665,10.706463061756182,-8.392429609618738,16.519716398494747,4.363489359684052
-0.1457,0.9578,0.1824,-0.2914,0.0529,-0.0773,-2.835,1.1812,-14.245,10.71853171293363,-8.432438216653047,16.485615170585977,4.364695152444129
-0.1477,0.9528,0.1793,-0.2914,0.0529,-0.0773,-2.66,1.1287,-14.3675,10.71763692577178,-8.528782689681835,16.462785908842896,4.365898467790257
-0.1477,0.9496,0.1859,-0.2906,0.0528,-0.0774,-2.5113,0.8312,-13.9912,10.76000068503409,-8.567404434984995,16.450962461941966,4.367102490968942
-0.1476,0.9496,0.1867,-0.2902,0.0523,-0.08,-1.5575,0.8138,-13.7025,10.949119696860334,-8.573135212635794,16.517699352680108,4.368303328901122
-0.1428,0.9512,0.1774,-0.2902,0.0523,-0.08,-1.6362,1.05,-13.16,10.75588607970384,-8.51507697108988,16.528524347849768,4.369541328042521
-0.138,0.9563,0.1851,-0.2906,0.0535,-0.0746,-1.505,0.9013,-13.1162,10.861760696680603,-8.359122405766293,16.466246598951983,4.370772956690912
-0.1405,0.9639,0.1753,-0.2906,0.0535,-0.0763,-1.7762,0.805,-13.2388,10.604046000176467,-8.301998679939528,16.40485105818557,4.371998214846292
-0.1458,0.9601,0.1691,-0.2934,0.0538,-0.0763,-2.2575,1.295,-13.2212,10.432206724917837,-8.362634958215237,16.29806445346873,4.373225950415622
-0.1429,0.964,0.1742,-0.2926,0.0527,-0.0786,-1.995,1.435,-13.5187,10.357706754562916,-8.35558176032451,16.322898526093343,4.374481291454656
-0.136,0.9667,0.1707,-0.2926,0.0527,-0.0786,-2.8175,0.8575,-14.3675,10.30718551107413,-8.159190180647165,16.326453007002154,4.375707965275151
-0.1396,0.9659,0.1748,-0.2908,0.0503,-0.0877,-3.1063,1.2687,-14.9187,10.291617588780936,-8.122790912935645,16.678031417494886,4.376928976435193
-0.1356,0.9686,0.1812,-0.2908,0.0534,-0.0763,-3.3863,1.0237,-15.9425,10.421218502164907,-7.922386473062825,16.669705379999684,4.378138308358052
-0.1387,0.9618,0.178,-0.2915,0.0534,-0.0763,-3.6312,1.2425,-15.8463,10.452923742109487,-8.024437149049094,16.557337422757513,4.37934162370418
-0.1654,0.9516,0.184,-0.2907,0.0525,-0.0782,-4.34,0.9187,-15.855,10.761507625722368,-9.167343957598964,16.55312018804995,4.380558741785161
-0.1712,0.9338,0.1929,-0.2907,0.0525,-0.0782,-4.0163,1.015,-15.4088,11.287849437508154,-9.812912724835389,16.553467676244956,4.38177409028475
-0.1689,0.9251,0.1905,-0.293,0.0526,-0.0754,-2.1088,0.2362,-13.6412,11.40935718709766,-9.81391705209419,16.306222982382486,4.382984837872723
-0.1724,0.9201,0.1932,-0.2918,0.0533,-0.0784,-1.5312,-0.1575,-10.8762,11.64604719330778,-10.237853669099072,16.4815848604481,4.384220359600174
-0.191,0.9277,0.1979,-0.2918,0.0533,-0.0784,0.6475,0.5513,-9.6687,11.949778389334096,-11.154095085588864,16.54191938771347,4.385416596620737
-0.21,0.9208,0.1834,-0.2935,0.0539,-0.0806,1.33,0.0613,-8.7587,11.402203641613609,-12.360794442597069,16.72410877191886,4.386600800487838
-0.2126,0.9272,0.1973,-0.2935,0.0539,-0.0806,2.0563,-0.2362,-7.0437,11.9057560661105,-12.603814099989318,16.88610253910242,4.387794206178175
-0.1666,0.9233,0.1746,-0.2939,0.0574,-0.083,3.57,-2.5375,-5.46,10.874373873393097,-10.331555042828656,17.189445638518844,4.389010970342878
-0.1136,0.9305,0.1505,-0.2939,0.0574,-0.083,7.1487,-4.3575,-1.0937,9.343792399725249,-7.127369664739502,17.07484749727291,4.390244722488938
-0.0964,0.9496,0.167,-0.2935,0.0585,-0.0814,8.0675,-0.945,-0.2713,9.920417789285402,-5.808219388247278,16.989296054135878,4.391489799955902
-0.0987,0.9551,0.1776,-0.2947,0.0608,-0.0834,9.135,0.3938,1.1725,10.485795775215593,-5.801694121620158,17.133530640178087,4.392701255376431
-0.0942,0.9549,0.1621,-0.2947,0.0608,-0.0834,9.4762,1.8025,1.0237,9.699339003362466,-5.570729937153372,17.18042754312156,4.393884751410976
-0.0908,0.9835,0.1751,-0.295,0.0636,-0.0834,9.3537,2.6163,0.07,10.06458871913427,-5.219204597250735,17.29717170652819,4.395070724859469
-0.0825,1.0088,0.1624,-0.295,0.0636,-0.0834,8.435,1.3825,-0.875,9.221310869095484,-4.659894744495722,17.27991502215699,4.396260945303301
-0.0741,1.0041,0.1557,-0.2952,0.0655,-0.0883,7.1312,0.9625,-2.8087,8.85209349883744,-4.212272540387725,17.314688563229517,4.397451165747134
-0.0595,0.9977,0.1542,-0.2986,0.0647,-0.0918,5.6613,1.4612,-6.5975,8.792976593439786,-3.4772655757449753,17.67804021081152,4.398624398209608
-0.0543,1.0189,0.1481,-0.2986,0.0647,-0.0918,2.4763,1.8812,-9.8612,8.355588917854194,-3.114730588935634,18.01997661965008,4.39980647857904
-0.0737,1.0402,0.1388,-0.2956,0.0662,-0.0896,-0.9713,1.7062,-13.7462,7.882845805958218,-3.198197414879698,18.049869686890975,4.401072437106423
-0.0942,1.0064,0.1319,-0.2956,0.0662,-0.0896,-4.375,0.9363,-17.0012,7.619139977420768,-4.819346999181591,18.048686705320677,4.4023532601174935
-0.1076,0.9967,0.1379,-0.2962,0.067,-0.0931,-8.2075,1.3737,-20.6588,7.837908338734358,-5.943599838038844,18.213107417748326,4.403574625193814
-0.1031,1.0136,0.1413,-0.2955,0.0662,-0.0855,-11.27,1.33,-22.96,7.925917534219663,-5.771214293990091,18.01499819210641,4.404810146921265
-0.1165,1.0258,0.143,-0.2955,0.0662,-0.0855,-13.5712,1.435,-24.3337,7.935229404843517,-6.362467799735967,17.826612915313152,4.406117159736928
-0.1008,0.9834,0.1393,-0.2959,0.0644,-0.0856,-16.205,1.0762,-27.9125,8.053655811303543,-5.832180618128776,17.798316351403354,4.407361883287614
-0.1118,0.9523,0.1518,-0.2959,0.0644,-0.0856,-19.7488,1.05,-29.3125,9.001533163799095,-6.566282376963742,17.78759663938087,4.408617224326648
-0.0841,0.9292,0.1687,-0.2944,0.0646,-0.0849,-16.38,0.7088,-28.455,10.202738343987981,-5.182333820527891,17.772220503603624,4.409864425291282
-0.0812,0.8949,0.1543,-0.2974,0.0657,-0.0821,-14.2975,2.3975,-25.97,9.816023525247816,-5.115082973746092,17.33572548631807,4.41108826778155
-0.1477,0.8602,0.2289,-0.2974,0.0657,-0.0821,-7.9975,4.4625,-21.245,14.100639259082266,-8.920574161128549,17.670274928582657,4.412298661453244
-0.1494,0.8893,0.2275,-0.2965,0.0621,-0.0823,-2.4325,1.7762,-15.3737,14.144298099598936,-9.125616045084225,17.659623871097583,4.413511178622608
-0.1577,0.9329,0.2411,-0.2965,0.0621,-0.0823,0.3588,2.835,-11.795,14.404063899079578,-9.235504147272273,17.663247733141308,4.414702460815275
-0.1735,0.9146,0.2233,-0.2974,0.0592,-0.0797,-0.3763,6.7288,-10.7362,13.929526276842525,-10.133080996731737,17.08517357859205,4.415909669240464
-0.179,0.9412,0.19,-0.2982,0.0598,-0.0844,0.2362,8.575,-10.2375,12.061301705343425,-10.463112254544528,17.407568520552207,4.417111215005201
-0.1485,0.9511,0.1561,-0.2982,0.0598,-0.0844,0.805,8.4263,-7.9538,9.936479827728219,-9.013616307701938,17.163804264005847,4.418298958035085
-0.1424,0.9651,0.1435,-0.2971,0.0572,-0.0857,2.485,7.2188,-5.075,8.69859943362902,-8.377626139651188,17.22662396935186,4.419478560990569
-0.1355,0.9753,0.1514,-0.2971,0.0572,-0.0857,3.325,6.3612,-3.6925,8.80587290805643,-7.868295537445955,17.280537555566145,4.4206673657692885
-0.134,0.9536,0.1444,-0.2978,0.0574,-0.0826,3.7713,7.1663,-4.6375,8.636985544636174,-7.905675605638576,16.771502174152936,4.421894039589783
-0.1331,0.9468,0.1604,-0.3017,0.0577,-0.09,6.2562,6.7025,-4.235,9.516530415851722,-7.892536045574579,17.730498533733623,4.423094169689407
-0.1171,0.9622,0.1795,-0.3017,0.0577,-0.09,5.7488,6.1775,-4.4187,10.455314670019781,-6.926899789453111,17.980383802835416,4.424276250058839
-0.1311,0.9719,0.1943,-0.2994,0.058,-0.0911,4.9525,5.9412,-5.46,11.20652365536013,-7.468740574552727,18.366699221627858,4.425448420772479
-0.1367,0.9618,0.1823,-0.2994,0.058,-0.0911,4.1475,5.39,-6.5275,10.793374791768427,-7.890316526171229,18.369644128159972,4.426624130648903
-0.1391,0.9715,0.1875,-0.3009,0.056,-0.0905,4.1912,3.5788,-6.93,10.907158325580147,-7.988001502153814,18.21964660450411,4.427794531781151
-0.1212,0.9803,0.1771,-0.3009,0.056,-0.0905,3.6837,0.5338,-8.3825,10.331499462214135,-7.104726684338073,18.172599576348833,4.4289702416575745
-0.1181,0.9759,0.1705,-0.3018,0.0564,-0.0951,3.9025,-0.7875,-9.5812,9.965976853943994,-6.858735670410944,18.552786103882585,4.430180635329268
-0.1075,0.9615,0.1665,-0.3015,0.0587,-0.0944,2.0738,-0.525,-10.78,9.84907936990688,-6.434682914731467,18.64662492134911,4.4313846585079535
-0.1254,0.911,0.1607,-0.3015,0.0587,-0.0944,2.8175,-0.2713,-10.325,9.980056259567538,-7.422305505130089,18.690992225838713,4.437097221155558
-0.1551,0.91,0.1778,-0.3,0.0586,-0.0933,8.6012,-0.5775,-6.6413,10.96762465004768,-9.237164067388965,18.74237761401642,4.445600767573625
-0.2264,0.9129,0.223,-0.3,0.0586,-0.0933,11.9175,-0.3763,-1.5137,13.549867356921395,-13.217301594599894,19.021787389455977,4.457845209053037
-0.2065,0.8588,0.1876,-0.3006,0.0612,-0.0973,12.67,-2.03,0.0613,12.397609498579836,-13.219622125866124,19.55050445314166,4.470088942699893
-0.1042,0.9034,0.1245,-0.2993,0.0614,-0.1013,18.06,-4.3575,-1.4525,8.056331611503643,-7.0264449542818435,19.726225593750073,4.482343647751375
-0.0653,1.0408,0.1225,-0.2993,0.0614,-0.1013,19.1012,-0.21,-1.225,6.771781126563794,-3.8234045236855234,19.68695576116425,4.495139136876059
-0.0431,1.0327,0.0822,-0.2993,0.0654,-0.1046,18.4975,5.32,5.4513,4.651281882523686,-2.454051310226966,19.907883058725872,4.507288020960338
-0.0214,0.979,0.0368,-0.2993,0.0654,-0.1046,15.7062,11.725,2.0388,2.2818159017062216,-1.323439002753599,19.619254212576653,4.51943018063533
0.0057,0.9388,0.0411,-0.3011,0.0677,-0.1083,16.5287,17.92,0.4375,2.4956173257612773,0.2367444206173749,20.249379842492708,4.531528100775537
-0.0123,0.9894,0.0605,-0.3006,0.0682,-0.1146,19.4075,19.6437,1.5575,3.4556418766987256,-0.6524323506500116,21.41286881724049,4.54083574497784
-0.0239,0.9659,0.0636,-0.3006,0.0682,-0.1146,21.2275,19.7663,3.5613,3.754694154840473,-1.3725109974552872,21.47554398082376,4.552862881862393
-0.0401,0.9825,0.0794,-0.3012,0.0691,-0.1218,24.0187,20.02,2.24,4.588985386453887,-2.272915384835521,22.650336981943564,4.564971773407227
-0.0476,0.9667,0.0867,-0.3012,0.0691,-0.1218,24.4387,20.3525,-3.1675,5.105865275370294,-2.761100969180918,22.7669788438256,4.577207013063404
-0.0279,0.9777,0.0943,-0.3015,0.069,-0.1313,25.27,19.81,-6.86,5.4952370770944485,-1.772711110493932,24.300299418292017,4.58933183084076
0.0394,0.966,0.0505,-0.3025,0.0664,-0.1399,28.9975,16.2225,-6.6238,3.0692212864513913,1.82060071157513,25.44872518770336,4.601529201455163
0.0661,1.0233,0.0109,-0.3025,0.0664,-0.1399,32.4975,15.75,-7.385,0.6783151637403864,3.4373739386930775,25.292232488108905,4.613603055288447
-0.0371,1.0646,0.0705,-0.2989,0.0636,-0.1514,31.7887,21.1138,-10.6662,3.700932036704635,-0.6268233432620167,27.223820564795687,4.625830862702781
-0.0927,1.0998,0.0724,-0.2989,0.0636,-0.1514,29.8987,24.7975,-17.2112,3.764405064357167,-3.8921531999035572,27.182592696856577,4.638024340238123
-0.0712,1.1193,0.0453,-0.3001,0.0607,-0.1558,24.57,23.8787,-20.7375,2.368871934085332,-3.6683333564313494,27.547255707440986,4.650204015038611
-0.0543,1.145,0.0371,-0.303,0.059,-0.1696,19.0575,24.1763,-16.3013,1.8784322109497849,-2.9747529940382877,29.248813571533535,4.662433945950614
-0.0084,1.1993,-0.0011,-0.303,0.059,-0.1696,12.8537,24.5263,-16.3887,0.06448576740292797,-1.0885775879554922,29.19887631937798,4.674689712750931
0.0052,1.2451,-0.0139,-0.3154,0.0569,-0.1753,6.9388,26.3288,-18.06,-0.5730849828616653,-0.005912777074272635,29.00254989637719,4.683831016302446
0.0074,1.272,-0.0171,-0.3154,0.0569,-0.1753,0.5075,30.0737,-19.5125,-0.7227352703286258,0.2839031526557309,28.98451309305313,4.696016707679665
-0.0224,1.3257,0.0242,-0.3346,0.0565,-0.1818,-7.875,33.8888,-24.1063,0.7619110990744343,-0.8586485904546093,28.599517558808788,4.708308927856645
-0.0534,1.3852,0.0605,-0.3581,0.0626,-0.1721,-15.015,34.1338,-25.2175,2.3707962853385087,-2.0984536565647725,25.964602359745687,4.720536735270978
0.0239,1.4433,0.022,-0.3581,0.0626,-0.1721,-21.6212,31.7712,-24.4562,0.9482485309243817,0.6906167689562699,25.858754667499234,4.7327719749271555
-0.0024,1.4411,0.0536,-0.3861,0.072,-0.1602,-28.6737,33.6087,-26.9675,2.0863416961434935,-0.040480113243956506,22.942141327760513,4.745032342639091
0.0096,1.4175,0.0342,-0.4093,0.0867,-0.1406,-38.1063,37.415,-35.4725,1.4014209015890573,0.36915000036275775,19.338550895430224,4.757282800695234
-0.0015,1.387,0.008,-0.4093,0.0867,-0.1406,-45.325,38.4825,-52.5525,0.3549876679506824,-0.05116005114487782,19.024949212095226,4.769536797914159
-0.1026,1.2803,0.0873,-0.4309,0.1004,-0.1146,-46.1738,37.7737,-56.7,3.821167617534352,-4.468580272927812,15.593813822857367,4.7818350346678695
-0.098,1.2578,0.0906,-0.4309,0.1004,-0.1146,-39.0513,31.6312,-66.395,4.11194290910428,-4.444129387456201,15.550417021171128,4.794110266863492
-0.0526,1.1889,0.0493,-0.4379,0.1157,-0.0908,-32.5763,28.0963,-77.4463,2.430688811928055,-2.560609914315425,12.302914995531378,4.806363910166139
-0.0155,1.1368,0.0531,-0.4391,0.1296,-0.0855,-23.9137,28.4988,-89.9938,2.6634038884597087,-0.8033315887536528,11.742237042248183,4.87667327192414
-0.0719,1.1385,0.0662,-0.4391,0.1296,-0.0855,-13.8337,29.89,-105.8838,3.27330163930699,-3.5774642788005035,11.761475736372258,4.881394161160025
-0.1365,1.2058,0.137,-0.4298,0.1416,-0.0794,-6.4837,29.5925,-119.2538,5.8188540549648575,-6.390968517167753,12.107420798636184,4.886081074433195
-0.1331,1.2457,0.1573,-0.4298,0.1416,-0.0794,0.1138,25.4888,-125.0988,6.830294272943998,-6.0541065428839875,12.331065949883572,4.890755246720347
-0.1127,1.2548,0.1485,-0.4203,0.1544,-0.0776,5.5213,19.3463,-126.14,6.75814309617935,-5.105310964788401,12.438204166724233,4.895346248682104
-0.0727,1.2403,0.1548,-0.4063,0.1659,-0.0745,2.5025,19.3725,-134.1287,7.05629371611806,-3.34340139469408,12.814883761549641,4.9000469646901275
-0.0473,1.2396,0.1514,-0.4063,0.1659,-0.0745,-2.6425,21.9975,-138.4775,7.056048842576187,-2.1784310455079186,12.861525261597254,4.90482554227937
-0.0809,1.2294,0.1643,-0.3947,0.1752,-0.0733,-6.5538,25.445,-136.4125,7.498774996106068,-3.719255888633036,13.312932358507707,4.906632638796232
-0.0956,1.175,0.1459,-0.3789,0.1866,-0.0739,-11.1212,27.4925,-133.8837,7.122582649204946,-4.608743516564811,13.793568147704882,4.916544418085547
-0.124,1.1326,0.1196,-0.3789,0.1866,-0.0739,-16.1525,31.2462,-133.4113,6.103417904866529,-6.200441076735721,13.248860236805832,4.9288430087555355
-0.1845,1.1107,0.1328,-0.3628,0.196,-0.0705,-22.435,33.7313,-134.1025,6.783779959442016,-9.339793142352939,13.49989950564256,4.9411667274812805
-0.2066,1.1017,0.1366,-0.3628,0.196,-0.0705,-26.6525,32.8475,-131.3112,7.056674815011101,-10.5321940832392,13.538771173564001,4.954083255973134
-0.2085,1.0455,0.123,-0.3487,0.2054,-0.0648,-32.9437,30.8,-126.385,6.720918405137098,-11.197125181728833,13.097093068082767,4.966365566494321
-0.2272,0.9923,0.0922,-0.333,0.2142,-0.0647,-43.4,33.1012,-131.0575,5.342250043581986,-12.828950857216345,12.810127648785233,4.978722553350225
-0.283,0.8519,0.0673,-0.333,0.2142,-0.0647,-47.4775,35.4725,-136.4913,4.534984955238831,-18.278794549250946,12.057340714439029,4.991065029638719
-0.3145,0.8256,0.073,-0.3158,0.2209,-0.0604,-41.9912,33.8537,-138.0487,5.040143987157061,-20.759541010840643,12.097682539903444,5.00342449390857
-0.3592,0.7873,0.0639,-0.298,0.2248,-0.0577,-34.895,30.5988,-133.56,4.652182959930374,-24.422997290479124,11.8174174412953,5.015656194401965
-0.4006,0.7265,0.0973,-0.298,0.2248,-0.0577,-29.47,26.7225,-128.065,7.521262826221791,-28.621282381403013,13.362525085187851,5.028066622615888
-0.5328,0.6357,0.1189,-0.2788,0.2298,-0.0616,-23.2663,20.86,-129.5525,10.451955872627579,-39.39031293732514,16.15645449385818,5.04036839853238
-0.4915,0.6479,0.0779,-0.2788,0.2298,-0.0616,-22.12,14.2712,-133.4637,7.031650767392965,-37.00623040485312,14.143534109318226,5.053036123880608
-0.5114,0.6734,0.1294,-0.2594,0.2379,-0.0637,-27.8512,16.5375,-144.6375,10.73057442310036,-36.71724627354452,17.313303041806126,5.065010527239697
-0.5247,0.7384,0.1524,-0.2411,0.2438,-0.0621,-24.535,16.3887,-141.8813,11.620978774279877,-34.84949687938532,18.523282725827798,5.077377069835114
-0.5758,0.7155,0.1678,-0.2411,0.2438,-0.0621,-22.505,14.9012,-133.0087,13.122929617970469,-38.051663816847736,19.459990300481987,5.089714945211991
-0.5639,0.6954,0.1437,-0.2226,0.247,-0.0619,-22.4787,11.48,-126.4988,11.744950688947714,-38.45033980915577,19.256207235522947,5.1020574215004855
-0.5644,0.6933,0.138,-0.2076,0.2536,-0.0588,-23.5375,13.3262,-124.355,11.279743773827974,-38.60299808220434,19.071985521818227,5.114385033305291
-0.6104,0.6866,0.2043,-0.2076,0.2536,-0.0588,-26.8275,17.4387,-122.85,16.360440496919036,-40.417595442198206,22.670881235191175,5.129377634685494
-0.5863,0.677,0.1854,-0.1938,0.257,-0.0582,-31.0713,18.0163,-119.9888,15.350774114371495,-39.87613704153553,22.612892733662456,5.14176081134599
-0.584,0.6521,0.1823,-0.1938,0.257,-0.0582,-33.7837,18.9088,-115.2988,15.610439704038198,-40.76894599382963,22.77506210284035,5.154152128080886
-0.6461,0.6403,0.2293,-0.1792,0.2632,-0.0572,-38.2025,22.8463,-105.1838,19.591173149773468,-43.50075600981797,26.236667762877683,5.166386659904506
-0.6481,0.6214,0.1515,-0.1678,0.2672,-0.0558,-45.605,24.15,-99.3825,13.835629276504287,-45.35648327173493,22.019201521012924,5.178674633086147
-0.6678,0.5977,0.1671,-0.1678,0.2672,-0.0558,-47.6087,28.7787,-94.0363,15.58067746321621,-47.07581631598537,23.262825116111017,5.1909682689282395
-0.6952,0.5705,0.1643,-0.158,0.2702,-0.0631,-50.015,31.0888,-91.0438,16.055995394247297,-49.47234820896461,25.211515260671842,5.203255534277323
-0.7226,0.5079,0.1646,-0.1486,0.2734,-0.0526,-50.5575,30.205,-87.9725,17.917594470730027,-53.48648836360654,25.276382976981196,5.215543507458963
-0.7562,0.4315,0.1484,-0.1486,0.2734,-0.0526,-46.5763,28.1487,-85.0588,18.955320929378246,-58.817759286957006,26.035710613479143,5.227818031822029
-0.7874,0.3977,0.159,-0.1362,0.2743,-0.0507,-43.3737,28.4725,-81.585,21.723506388034608,-61.41774727179304,28.580183730696167,5.24007309078979
-0.7649,0.3705,0.1337,-0.1362,0.2743,-0.0507,-41.0812,28.56,-82.4688,19.890366168302464,-62.734636854496735,27.046448656152137,5.252407780920161
-0.7366,0.353,0.1018,-0.1262,0.28,-0.0448,-36.33,32.9437,-91.2275,16.19644327486715,-63.482236444139694,22.9984140721103,5.264645497990287
-0.7442,0.3223,0.0811,-0.115,0.2866,-0.0515,-27.8862,34.755,-92.4175,14.203025046794584,-65.90453016312186,22.52916093756707,5.276830835451228
-0.7461,0.3154,0.0609,-0.115,0.2866,-0.0515,-19.6087,36.5488,-88.6813,11.110921726879251,-66.6956560776231,19.65771577661339,5.2891188086328675
-0.7962,0.2846,0.0893,-0.1085,0.2941,-0.053,-7.6388,40.3375,-84.07,16.36777938561068,-69.42375800956388,25.706053485319813,5.298634201690517
-0.8528,0.2854,0.0716,-0.1006,0.2984,-0.0562,1.54,38.0363,-82.1625,14.524019323506234,-70.94171132049256,23.479643302552574,5.3109929581278115
-0.9021,0.2866,0.0727,-0.1006,0.2984,-0.0562,4.34,38.885,-84.2975,14.270001512361889,-71.8399463516329,23.56681337400989,5.322939402100918
-0.9555,0.2957,0.0905,-0.0906,0.3038,-0.0608,2.6513,40.25,-90.5275,16.580646468909595,-72.06338681683437,27.01224584670085,5.334467517033106
-0.9224,0.2798,0.0565,-0.0906,0.3038,-0.0608,0.2013,37.6775,-95.9438,12.758868382228872,-72.7958038682888,21.911358055140244,5.346547033526844
-0.9103,0.2652,0.0437,-0.08,0.312,-0.0651,1.2337,36.8462,-97.195,10.054417388513007,-73.5412471602187,20.522146040790503,5.358822619638744
-0.9077,0.243,0.0284,-0.0703,0.3199,-0.073,1.89,36.1987,-96.5563,7.278210030638584,-74.89905769728436,19.124226808638422,5.371087588262296
-0.9079,0.2302,-0.0009,-0.0703,0.3199,-0.073,8.5225,34.7812,-91.8925,0.3925659842973413,-75.76124286534026,12.546779945395977,5.3833422933137784
-1.01,0.2647,0.0192,-0.0643,0.3285,-0.0758,10.3425,36.8812,-87.64,3.8801496499628017,-75.28379767204915,16.74102004906286,5.395651147555837
-1.0877,0.3008,0.067,-0.0643,0.3285,-0.0758,12.5913,35.5075,-78.4875,12.022631837551144,-74.1980486615241,24.880960747265338,5.408278880364619
-1.0731,0.3368,0.0664,-0.0568,0.3339,-0.083,10.9987,31.9113,-68.8625,11.212212793313613,-72.2950718763765,24.935496938645418,5.420587026774121
-1.0788,0.3475,0.0897,-0.053,0.337,-0.083,7.5425,26.6875,-62.7375,14.182251249232209,-71.61287110622133,28.100160300014128,5.432615933240065
-1.0457,0.322,0.0102,-0.053,0.337,-0.083,1.1725,20.5187,-61.0488,4.381562192754752,-72.85075512267238,16.223974558122507,5.444739689268586
-0.9744,0.2585,-0.0138,-0.046,0.3418,-0.0848,-5.0225,18.3663,-61.1188,-0.8536957354302158,-75.07509765548456,11.162745433735145,5.457029432031618
-1.0006,0.2563,0.0057,-0.046,0.3418,-0.0848,-7.4025,19.5037,-61.9588,0.9044578785517151,-75.61815085294458,14.968521969172604,5.466999253590569
-1.0141,0.2584,0.0267,-0.0416,0.3458,-0.0871,-9.7825,19.1625,-62.0638,5.285512258858852,-75.6315755899813,19.780417174211756,5.4787591836850265
-0.9994,0.2221,0.0107,-0.0346,0.3502,-0.088,-10.1412,16.59,-61.0662,3.055648892540862,-77.41882484232077,17.071385689155605,5.491041494206214
-0.966,0.1647,0.0034,-0.0346,0.3502,-0.088,-11.4275,12.32,-57.6712,1.3740926680761316,-80.25778186838843,15.400011311418575,5.503355657192446
-1.021,0.1585,0.0092,-0.0331,0.355,-0.0899,-5.5125,8.155,-57.5312,2.818289849141835,-81.14109624250526,17.232225532629382,5.515508788272064
-1.0716,0.1656,0.0026,-0.0331,0.355,-0.0899,-1.4262,2.695,-51.3275,1.7642301064060366,-81.21231523588206,15.876921256084092,5.527668643760969
-1.0959,0.1676,0.0004,-0.029,0.3571,-0.0901,-3.7975,-1.75,-44.0825,0.892885256719793,-81.30194868628087,14.709789757811052,5.5398504420591275
-1.0718,0.1578,-0.0169,-0.0214,0.3606,-0.0897,-4.655,-5.425,-37.8263,-3.7853123748701005,-81.56642486585989,8.79330041227231,5.552132752580316
-0.9562,0.154,-0.0172,-0.0214,0.3606,-0.0897,-4.305,-6.3875,-35.2537,-5.4000438913437785,-80.82904697749282,7.762452701324201,5.564420725761956
-0.9492,0.1448,-0.0026,-0.019,0.361,-0.092,-4.375,-6.44,-35.9975,-2.6299967561790476,-81.3038100295054,12.656964655133999,5.576642870515837
-0.9551,0.1457,0.0143,-0.0144,0.3634,-0.0862,-5.775,-6.0462,-38.115,3.611325362884325,-81.28611459653021,18.251505700930714,5.5888441342093005
-0.9725,0.12,0.0087,-0.0144,0.3634,-0.0862,-7.9888,-4.5938,-40.9938,4.062295318706445,-82.88876531310878,17.642433971697145,5.601082559111982
-0.9926,0.1014,0.0107,-0.0097,0.3677,-0.0887,-2.3625,-4.2788,-41.9562,4.494512833834914,-84.09245425474259,19.314297782741047,5.613303996033307
-0.9717,0.1254,-0.0068,-0.0097,0.3677,-0.0887,1.3475,-2.975,-41.0638,-1.5819846308854673,-82.68706797956462,12.275801856532953,5.625555515838284
-1.0022,0.153,0.0351,-0.0077,0.3697,-0.0884,0.14,0.8575,-39.4625,9.089261019122253,-81.15734041692089,14.148618730418566,5.63761698260183
-1.0422,0.1684,0.0475,-0.003,0.3711,-0.0883,-1.68,-0.4288,-37.2137,12.36153092346069,-80.49769894672147,23.165064512810797,5.649858238834738
-1.0228,0.1632,0.0055,-0.003,0.3711,-0.0883,-1.5662,-2.8963,-35.28,6.947809344829292,-80.91007346486347,17.04676430779881,5.66207826009095
-0.9945,0.1331,-0.0234,-0.0019,0.3722,-0.0886,-3.0888,-2.975,-34.3875,1.7483677230438308,-82.19939530810369,6.1765271939159305,5.674401978816696
-0.9857,0.1158,-0.0201,-0.0019,0.3722,-0.0886,-6.37,-0.5425,-35.8838,-7.392890075313618,-83.15727967161826,4.589174642539388,5.686844613411941
-1.022,0.1185,-0.0082,-0.0006,0.3748,-0.087,-9.1437,0.9275,-38.01,-4.416473039914823,-83.36205886025155,4.93167171203436,5.698838128250058
-1.0243,0.1152,-0.0065,0.0026,0.3785,-0.0889,-11.655,0.4638,-39.1212,-3.347999959404659,-83.56499111627599,6.738909776885222,5.711058857338826
-1.1224,0.1406,0.0173,0.0026,0.3785,-0.0889,-10.29,-1.4875,-38.6662,5.815942182143962,-82.83576407067585,16.489742410236552,5.723270738520638
-1.1283,0.1242,0.027,0.0046,0.3793,-0.0909,-7.3938,-9.1,-22.365,11.142975793914355,-83.49700682567153,25.067863203435518,5.732734813717937
-1.0633,0.0867,-0.0023,0.0046,0.3793,-0.0909,-9.2487,-13.3437,-17.0187,0.14574824022866856,-84.91626646626655,12.858042627659412,5.744984917857802
-1.0337,0.0617,0.0087,0.0059,0.3782,-0.0887,-11.8562,-15.3212,-18.9962,7.254326188809249,-86.2931708795481,20.79337875537539,5.757341550797427
-0.9353,0.0254,0.0063,0.009,0.3764,-0.0831,-15.8112,-15.7675,-23.415,13.458794683484761,-88.20193031626451,26.089708108315364,5.769562987718752
-0.8825,0.0082,-0.0065,0.009,0.3764,-0.0831,-16.9137,-16.73,-27.72,-35.00660435029509,-89.24647065317652,23.184164552041068,5.78192917639789
-0.8645,-0.0174,-0.0115,0.0123,0.3798,-0.0818,-16.3187,-15.7937,-30.485,-138.9376279460126,-88.65318180818275,128.15917866241415,5.794595486081004
-0.8836,-0.042,0.0,0.0142,0.3815,-0.0793,-15.1462,-15.1637,-32.3138,156.37684012844238,-87.34850127772998,165.92927965907796,5.8092479739177865
-1.0028,-0.0083,0.0511,0.0142,0.3815,-0.0793,-12.5387,-15.3475,-33.7225,104.47210642831789,-87.05913342427357,95.08484154163091,5.8216484924759175
-1.0691,0.0248,0.0847,0.017,0.3822,-0.075,-13.7637,-20.0287,-27.23,76.22096860103305,-85.40275585647389,85.46225533398814,5.8339470831459055
-1.0646,0.0228,0.1016,0.017,0.3822,-0.075,-12.5825,-24.8325,-14.5162,77.2484322045168,-84.94209534256525,88.58395006483515,5.846123218783611
-0.9747,-0.0081,0.0817,0.0178,0.3809,-0.0705,-16.8962,-28.5775,-1.9775,94.45462207614436,-85.16605352643168,105.72677287893488,5.8584207477047645
-0.8738,-0.087,0.0875,0.0174,0.3776,-0.066,-18.0775,-28.805,3.8413,132.37840889679268,-82.13562925929,143.430166774764,5.86798816645532
-0.8718,-0.095,0.1015,0.0174,0.3776,-0.066,-21.6387,-25.9787,4.235,133.06904878932667,-81.00291011892965,142.94063408288557,5.88030905385084
-0.8811,-0.1018,0.13,0.0189,0.3749,-0.063,-23.3013,-21.4988,2.765,128.2948054861492,-79.47889928233808,137.70090611507632,5.892430332465413
-0.9129,-0.0614,0.1166,0.0155,0.3704,-0.0582,-23.8875,-18.6287,5.5913,118.24384714719494,-81.6720057827349,127.22364175712353,5.904571076475292
-0.9589,-0.0338,0.1591,0.0155,0.3704,-0.0582,-21.805,-15.96,13.9562,102.79993979045136,-80.4184151137632,111.92592089423535,5.916902935275438
-0.9564,0.0002,0.1696,0.0146,0.3632,-0.0568,-19.3987,-16.2225,25.5237,90.65721890023237,-79.95598104459344,99.78449526443693,5.929240456736036
-0.942,-0.0061,0.1626,0.0146,0.3632,-0.0568,-19.5912,-17.0362,46.9962,92.06536908483837,-80.19588272169489,101.1822503848558,5.941418715871412
-0.9339,-0.0275,0.1692,0.0072,0.356,-0.0562,-19.1362,-16.2488,55.2212,98.82183120206084,-79.60750578134726,107.73942849171507,5.953630950969501
-0.9231,-0.044,0.1722,0.0006,0.3454,-0.0504,-17.2375,-14.9275,58.9225,103.97987732597821,-79.10858381046233,112.01609432117463,5.966273194345693
-0.907,-0.0744,0.1456,0.0006,0.3454,-0.0504,-14.5687,-12.3725,60.6287,116.0539128847594,-79.77194823225067,124.05202533693546,5.978209728663007
-0.9464,-0.0502,0.1516,-0.0055,0.3361,-0.0474,-9.4762,-9.5637,61.8275,109.30889647967129,-80.41364355838523,116.59629689923447,5.99046018671915
-0.9982,0.0041,0.1701,-0.0055,0.3361,-0.0474,-3.4038,-8.505,64.4788,100.38370386897537,-80.32765171264084,98.31916356914002,6.002562353854697
-1.0261,0.0642,0.1953,-0.0154,0.3268,-0.0426,3.605,-10.8062,70.315,75.74509782492639,-78.69016598025881,80.4324658971561,6.014721147594767
-1.0294,0.1073,0.2074,-0.025,0.3151,-0.0461,9.5812,-15.1112,79.1613,63.6353289872605,-77.234817596069,71.04895000020342,6.026895513651082
-0.8406,0.1398,0.1585,-0.025,0.3151,-0.0461,17.5525,-20.4312,89.9588,49.2969976098124,-75.90006845863829,57.41864671001615,6.039141724711886
-0.7562,0.1111,0.1176,-0.04,0.3036,-0.0412,23.38,-20.8775,98.1925,46.72675447620205,-77.90630199386554,53.85331514007519,6.051361392051819
-0.7786,0.1279,0.1225,-0.04,0.2932,-0.048,30.975,-12.53,94.4388,43.850141815010716,-77.19211470697974,52.48699264705481,6.063547791261595
-0.8137,0.1508,0.1423,-0.0527,0.2932,-0.048,36.715,-8.6887,91.6213,43.35153620253134,-75.71858674711399,51.605591169756536,6.07571791032257
-0.8661,0.2173,0.129,-0.0648,0.2814,-0.0512,44.4238,-8.6363,89.7488,30.958748061201717,-73.75310868748463,40.8983305361118,6.087906433030016
-0.8708,0.2809,0.1412,-0.0648,0.2814,-0.0512,53.0163,-8.4437,90.8163,26.762689100386726,-70.18267218477494,36.474447192833594,6.0973198981995225
-0.8826,0.3467,0.1623,-0.0799,0.2735,-0.0583,59.9813,-10.3162,95.3925,25.111971098914495,-66.58526749000717,35.602684759123235,6.109498157334897
-0.8483,0.3956,0.1651,-0.096,0.2678,-0.0574,63.7788,-14.0963,102.1475,22.689239550372825,-63.2203360456477,32.78294359004247,6.121763479874728
-0.7696,0.4377,0.1296,-0.096,0.2678,-0.0574,65.3188,-18.5412,107.7738,16.58350203140236,-59.3577584450062,27.404214085018893,6.134062070544717
-0.677,0.4746,0.1411,-0.1114,0.2586,-0.0662,70.1138,-18.69,109.62,16.557725434418877,-53.86432517333335,28.627901301260174,6.146370216954218
-0.6364,0.5338,0.1116,-0.1114,0.2586,-0.0662,70.6213,-17.64,106.2688,11.872521555771073,-49.44307811716381,25.023980867020374,6.158577497224412
-0.6065,0.5541,0.106,-0.1267,0.2525,-0.0679,54.88,-7.1138,99.5488,10.847720890835662,-47.09272864416912,23.951288249890958,6.170809197717807
-0.5897,0.5844,0.115,-0.1424,0.2445,-0.0747,44.4238,0.595,97.7113,11.126667119787118,-44.73560855032981,24.223045088860523,6.182877388890639
-0.5588,0.7445,0.1593,-0.1424,0.2445,-0.0747,33.9762,5.705,100.6075,12.052140655686127,-36.35048067931265,26.260283288528694,6.1950287503888655
-0.6246,0.7692,0.197,-0.1588,0.2392,-0.079,32.34,6.2475,111.4488,14.300984460551588,-38.17485191252501,27.688967302564304,6.2071496750871615
-0.5778,0.7499,0.1701,-0.1588,0.2392,-0.079,30.3975,0.9713,125.8163,12.82483074856369,-36.93064607880762,27.659401957763755,6.219372527673599
-0.496,0.7634,0.103,-0.181,0.2323,-0.0793,23.3625,-3.4825,137.4537,7.8744424292913875,-32.804413133395016,23.049786610069336,6.231578038362401
-0.5165,0.7536,0.0869,-0.2001,0.2238,-0.0821,19.11,2.7213,143.185,6.634882314891872,-34.24042334814405,21.50126798124758,6.243753112251272
-0.5262,0.7823,0.1333,-0.2001,0.2238,-0.0821,4.83,9.905,140.91,9.311914829866645,-33.55181260188862,22.727251478829782,6.255887485768142
-0.5387,0.8208,0.1257,-0.2273,0.2182,-0.0808,-7.6912,11.6462,136.465,8.806898611541111,-32.9772185171859,20.722533208824302,6.267998146894367
-0.5524,0.8206,0.1523,-0.2273,0.2182,-0.0808,-18.5237,14.6212,138.1887,10.413073887909995,-33.495696952863995,21.625400578210023,6.28027337908999
-0.5248,0.8089,0.1459,-0.2481,0.2071,-0.0811,-28.9013,15.8287,144.4712,10.23133942329028,-32.56330059898149,20.613271207858347,6.292651247006311
-0.5561,0.8051,0.1587,-0.2785,0.2012,-0.0716,-36.3913,12.2587,157.2025,11.124619276972512,-34.11567057266664,18.326300326653886,6.30482667481146
-0.4331,0.7527,0.1362,-0.2785,0.2012,-0.0716,-36.225,7.6213,160.9738,10.281710858749637,-29.54473857188976,17.75658599146961,6.314326495552866
-0.3637,0.7213,0.0626,-0.2991,0.1977,-0.0693,-36.5838,7.8313,158.9613,5.112454676730146,-26.68876312077087,14.229665517177365,6.326562443041599
-0.3963,0.7363,0.103,-0.2991,0.1946,-0.0628,-37.8963,15.505,154.1925,7.884709128688944,-28.051347524178162,14.268374123348039,6.338856078883691
-0.4223,0.7388,0.1371,-0.3241,0.1946,-0.0628,-38.045,16.4762,148.1112,10.440656834137796,-29.328425471015844,14.675130894186436,6.351137681572323
-0.3725,0.7882,0.1232,-0.3506,0.1927,-0.0551,-40.5563,15.3825,144.585,8.92377508968908,-25.05611201931893,12.215234744914788,6.363428840000467
-0.3651,0.7956,0.1477,-0.3506,0.1927,-0.0551,-42.98,16.6163,143.5087,10.47846070949342,-24.289290127681753,12.76192959375572,6.375667618819428
-0.3403,0.7999,0.1663,-0.3759,0.1905,-0.0446,-42.8312,15.0237,144.1737,11.71380510895345,-22.62334718100622,11.331947858457545,6.387930817861589
-0.2725,0.8167,0.1707,-0.4012,0.1919,-0.0445,-35.805,8.785,148.05,11.802858776321811,-18.115030542509967,10.802631249300124,6.400166057517766
-0.182,0.806,0.162,-0.4012,0.1919,-0.0445,-13.1687,-1.8375,152.1187,11.40263520906273,-12.516538757176402,10.736249287867299,6.41245119936918
-0.1226,0.8355,0.1507,-0.4238,0.1948,-0.0433,-6.8775,-2.2925,145.8975,10.449715135197678,-8.243956136532976,10.036486708630758,6.424641137741738
-0.103,0.8547,0.1505,-0.4238,0.1948,-0.0433,-3.9638,0.315,136.99,10.18631307049256,-6.778173344994667,9.93863484955288,6.436839924021254
-0.0906,0.8642,0.1568,-0.4462,0.2009,-0.0364,-0.42,3.4125,130.0162,10.253601453001778,-5.895527730713624,9.128797838038231,6.449008273500837
-0.0055,0.9079,0.182,-0.4641,0.2084,-0.0402,2.2488,4.9,122.9725,11.151869287430493,-0.3806867396200113,9.664043576594343,6.461089913492245
0.0394,0.9692,0.1656,-0.4641,0.2084,-0.0402,5.845,6.6325,114.9925,9.849472762198799,2.2740551932901356,9.364207833558154,6.473124482618641
0.0722,1.0337,0.2066,-0.4814,0.2132,-0.0389,12.495,10.0275,109.6638,11.212446970693229,3.9049344491934734,9.686710688670669,6.485273012786641
0.1108,1.0806,0.2119,-0.4814,0.2132,-0.0389,17.2462,11.445,105.945,11.100263848578184,5.730458650128889,9.784895684079,6.4974739225638265
0.136,1.11,0.2041,-0.4984,0.2199,-0.04,19.4075,10.57,100.9488,10.448378921583274,6.861279607104045,9.579400654828016,6.50689198864495
0.1887,1.1436,0.1947,-0.5122,0.2282,-0.0392,22.47,11.9263,97.3438,9.692177963067389,9.21784245831611,9.312377385236402,6.519013267259524
0.2338,1.1869,0.1689,-0.5122,0.2282,-0.0392,17.6225,16.2663,92.8288,8.173922162486726,11.018349540032265,8.79310697428859,6.5310920759207045
0.1901,1.2057,0.2181,-0.5254,0.234,-0.0388,15.0062,28.56,82.915,10.141909405490253,8.841657536184329,9.328890992910907,6.543494010143949
0.2001,1.2294,0.21,-0.5254,0.234,-0.0388,12.0575,27.125,81.0425,9.721986463186772,9.111919843578388,9.135176955065758,6.555312690340599
0.2454,1.2298,0.1793,-0.5344,0.2439,-0.0406,9.4237,27.545,78.575,8.404239897596186,11.147692670150343,8.954355485547387,6.567376634518092
0.2843,1.2436,0.1749,-0.5464,0.2488,-0.035,8.2687,31.8325,71.6275,8.039038208377589,12.737119794044942,8.246238579137692,6.5793828903422265
0.2588,1.2685,0.1796,-0.5464,0.2488,-0.035,5.39,37.0563,65.135,8.056464863609504,11.436899166965535,8.116492793707536,6.58867602397712
0.3402,1.2528,0.1656,-0.5581,0.2532,-0.0317,0.9187,40.5563,61.1712,7.645298425205224,15.01949346818807,7.758775097147538,6.600766511875484
0.3579,1.1674,0.1274,-0.5581,0.2532,-0.0317,-1.7587,43.8462,55.6237,6.979364598111761,16.922141086743647,7.294346596412598,6.612874695587761
0.3253,1.0936,0.152,-0.5642,0.2581,-0.022,4.3488,49.1925,49.6125,7.796096714815258,16.424200471410558,6.963295733559693,6.624855823356139
0.3942,1.0995,0.1704,-0.569,0.2642,-0.0262,14.2275,50.715,39.97,8.752881708219778,19.45259764442691,8.351164433825039,6.636992320370678
0.4964,1.0807,0.0275,-0.569,0.2642,-0.0262,18.9088,57.9075,28.2537,1.781117324950666,24.542316917628565,4.6858489811483395,6.649107936324799
0.5426,1.1581,0.0703,-0.5714,0.2646,-0.022,21.525,77.0,18.9612,3.4065081282689316,25.04833606919707,5.333863887757481,6.661182851906919
0.5819,1.1894,0.0603,-0.5714,0.2646,-0.022,21.4813,92.435,12.7662,2.922354240500948,26.00443029446084,5.082788290344962,6.670952710768646
0.6012,1.2062,0.0605,-0.5781,0.2679,-0.0159,22.61,100.8088,11.6988,2.8733482848155063,26.446628553551882,4.212427808925993,6.682716180025886
0.6326,1.1062,0.0386,-0.5781,0.2679,-0.0124,32.2175,108.955,18.8213,2.022876329585444,29.650147968027618,3.3761946193039143,6.694927707291419
0.7413,1.0853,-0.0259,-0.5867,0.2681,-0.0124,37.9487,115.99,25.7425,-1.2855670493184848,34.21112379062883,1.0518612352412555,6.707127201403491
0.6353,0.9994,-0.0453,-0.5915,0.2693,-0.0072,43.9162,155.3475,18.235,-2.5677432818623003,32.47132210706613,0.795345109390069,6.719396770938661
0.5463,1.0138,-0.0094,-0.5915,0.2693,-0.0072,46.585,175.91,7.2625,-0.5717774387069224,28.507195921940212,0.6772730742758923,6.731474163934728
0.4515,1.0333,-0.0099,-0.5986,0.2689,-0.0021,51.0913,189.7962,1.4437,-0.5493488266211014,23.90683919822939,0.05800631786990496,6.743647468242208
0.3725,1.0421,0.0207,-0.6002,0.2678,0.0058,55.195,202.0375,-1.4262,1.109282498154618,19.98675657389002,0.05794144286664893,6.755778302596295
0.5442,0.9812,-0.0874,-0.6002,0.2678,0.0058,56.4725,211.4875,-9.94,-4.9870429497424755,27.019472552204963,4.239166391324981,6.767968594885131
0.7189,0.9759,-0.196,-0.5986,0.2647,0.0129,59.2638,225.2687,-18.2175,-11.254971799721488,34.25568189892913,10.918806929492154,6.780142253108889
0.5297,0.9731,-0.156,-0.5986,0.2647,0.0129,57.7325,238.1225,-27.3525,-9.142712818224314,28.66497688929643,7.70618810061436,6.792553743071647
0.39,1.0413,-0.1388,-0.5998,0.2582,0.0259,58.2925,239.1463,-35.5775,-7.61750978343121,20.72917354042426,7.184979846215476,6.804516467193554
0.159,1.1788,-0.0924,-0.6007,0.2506,0.0275,60.06,233.3013,-38.1937,-4.531173620490908,8.170226708865869,4.787927834593229,6.814094149516179
-0.0462,1.2428,-0.0346,-0.6007,0.2506,0.0275,63.6388,227.4125,-34.3175,-1.638365887032292,-1.6529515222316349,3.2427841661201957,6.826349916316496
-0.3138,1.2402,-0.0587,-0.6008,0.2439,0.0357,53.48,210.9888,-42.0612,-2.6910917584559497,-13.757965573195806,4.201007359571797,6.838588695135456
-0.3881,1.2279,-0.0095,-0.6008,0.2439,0.0357,45.4475,203.9625,-48.6063,-0.4890635772917761,-17.434433998935923,3.332666451825575,6.850905335535637
-0.0201,1.1165,-0.1344,-0.5978,0.2384,0.0416,32.1825,195.2388,-54.7225,-6.686085765904758,-1.413974909685034,6.598023390099954,6.863160394503398
0.1214,1.1566,-0.2381,-0.5966,0.2335,0.049,23.905,189.6387,-57.5138,-11.452972982182507,5.707452649824356,9.43681494234792,6.875388555834009
-0.0848,1.1183,-0.1296,-0.5966,0.2335,0.049,6.8775,182.175,-47.18,-7.070722409952768,-4.017689958212151,7.052013201496093,6.887550180904306
-0.2374,1.1352,-0.1228,-0.5931,0.2262,0.0574,2.9838,161.455,-39.1912,-6.3092317351089005,-11.454127241649193,7.415266629953009,6.900005556485569
-0.3747,1.0853,-0.1021,-0.5931,0.2262,0.0574,14.7437,141.47,-33.635,-5.42514653392673,-18.611475544400808,7.064201116146682,6.91212329593736
-0.3669,1.011,-0.0972,-0.5946,0.2211,0.0702,11.1562,128.8612,-28.2625,-5.487181765507619,-19.781804136325118,8.191605714853731,6.924397820300426
-0.2248,0.9582,-0.0038,-0.5935,0.2199,0.0722,-0.91,122.395,-31.1325,-2.1503234290895628,-13.558919317986087,6.649853037526465,6.936675529909996
-0.0362,0.9976,-0.0664,-0.5935,0.2199,0.0722,-8.6187,108.92,-29.7325,-3.570270236870902,-2.7457206446544014,8.191049529883736,6.948923510552191
0.0818,0.9731,-0.0925,-0.5929,0.2173,0.0773,-11.6025,104.3525,-9.1437,-5.243276526699997,3.414776438352233,9.637686453437148,6.961135391734002
0.2816,0.9114,-0.0997,-0.5971,0.2157,0.0837,-22.085,99.4613,4.7688,-6.193980143133744,16.370362750081256,11.77936848152757,6.973226587464922
0.2011,0.9184,-0.1611,-0.5971,0.2157,0.0837,-30.8262,97.79,13.65,-9.820557827076497,12.319250918027347,12.449190114441878,6.98541475625609
-0.0706,0.8929,-0.0673,-0.6014,0.2193,0.0993,-32.935,95.7863,24.5788,-4.486470747781775,-4.079117337819964,10.636542320208349,6.997604694628649
-0.22,0.886,-0.0776,-0.6014,0.2193,0.0993,-30.9662,85.3475,31.5525,-4.987757656679924,-13.681341266944557,10.546191007390929,7.009836749038321
-0.2445,0.8408,-0.0684,-0.6109,0.2213,0.1148,-21.5075,75.6963,40.74,-4.667795653985015,-16.118725717939242,11.573524299259951,7.022076235689838
-0.2582,0.8192,-0.0464,-0.6174,0.2241,0.1151,-18.3312,69.7375,43.2513,-3.3272649935038787,-17.444505574263136,11.044621574552895,7.0342803307135275
-0.255,0.7984,-0.0443,-0.6174,0.2241,0.1151,-15.4962,64.4613,38.045,-3.186786781879866,-17.682782057780663,11.014266099412927,7.046492919727895
-0.1035,0.803,-0.0431,-0.6248,0.226,0.119,-14.805,56.665,33.5913,-3.0810272025206755,-7.548560173425975,11.422089865108449,7.0587083400724895
-0.0923,0.7649,-0.0271,-0.6248,0.226,0.119,-5.3638,42.49,39.1738,-2.3119857511503183,-6.888796196057968,11.109411829532565,7.070855454575377
-0.068,0.7567,-0.024,-0.6326,0.2301,0.1167,2.0825,33.565,41.0025,-1.9031085215261532,-5.164023327386077,10.799573357042556,7.080240252526343
-0.0456,0.763,-0.0786,-0.6404,0.2344,0.1225,7.35,29.1987,42.4813,-5.519709129524629,-3.4330414262772773,12.542690037366716,7.092370379047874
-0.0467,0.7293,-0.0495,-0.6404,0.2344,0.1225,13.2825,23.4675,43.995,-3.9795930954008956,-3.6516950291590455,11.958115531762264,7.104659767894627
-0.0624,0.7549,-0.1075,-0.6488,0.2368,0.1227,23.4587,12.0312,43.1987,-7.952406185512721,-4.66059072411944,13.024526075738034,7.116658945393196
-0.1268,0.789,-0.0881,-0.6488,0.2368,0.1227,32.9,6.475,43.6975,-6.414539191417384,-8.998819814420502,12.473933321871773,7.12877597701243
-0.1576,0.8291,-0.0572,-0.655,0.2407,0.1279,40.9412,0.1225,42.1312,-4.001960939212341,-10.707145611931367,12.18435400132241,7.140867880575907
-0.1385,0.893,-0.1163,-0.667,0.242,0.1115,48.02,-10.465,35.3675,-7.35400094443468,-8.782642664689172,11.607198102024796,7.153082239171666
-0.1852,1.0505,-0.1323,-0.667,0.242,0.1115,48.5625,-16.6338,29.7588,-7.181411639436375,-9.895887840655876,11.450619129380625,7.16529164293953
-0.2359,1.136,-0.1275,-0.6733,0.2445,0.1033,46.3925,-22.0675,26.32,-6.419384116096932,-11.616971571546243,10.467484447416336,7.177524759098038
-0.2296,1.1716,-0.1813,-0.6733,0.2445,0.1033,40.7487,-33.775,24.1238,-8.742954900432851,-10.977503268629391,11.186257355956439,7.189766369247224
-0.2353,1.2096,-0.1894,-0.6793,0.2483,0.097,32.4275,-52.7013,17.7362,-8.894823567035289,-10.88182063253289,10.707509166716614,7.201931533480304
-0.2745,1.2556,-0.2099,-0.6797,0.2499,0.0869,23.17,-62.8075,11.7075,-9.468227288796392,-12.119467845138663,10.097540132674775,7.2141197022714705
-0.4629,1.3095,-0.1585,-0.6797,0.2499,0.0869,11.4012,-75.565,4.69,-7.072019804293537,-18.964290857994484,9.186813354396978,7.223801789896186
-0.4258,1.2704,-0.166,-0.6832,0.2513,0.0792,3.8325,-92.0675,-6.2038,-7.394703602057234,-18.452714804446163,8.732203831056195,7.235806983971486
-0.3464,1.2554,-0.2422,-0.6832,0.2513,0.0792,-3.3775,-110.3463,-21.7087,-8.884909243381282,-15.52266214151399,9.867057339175608,7.248117253878657
-0.3453,1.2599,-0.2422,-0.6826,0.2497,0.0667,-15.155,-124.0225,-30.3537,-10.733848931114412,-15.089628798813822,8.904043060534814,7.2604703476555
-0.3284,1.1531,-0.2111,-0.6813,0.25,0.0539,-24.9988,-141.715,-28.7175,-10.389748678177787,-15.614924149256234,7.764496796042638,7.275622919193482
-0.2536,1.0671,-0.2485,-0.6813,0.25,0.0539,-23.9137,-164.2812,-25.0425,-12.986953879332225,-13.240514582338067,8.667049379889143,7.287993708784238
-0.1875,1.032,-0.2772,-0.6759,0.2492,0.0395,-20.58,-182.2275,-39.8563,-14.92686904635262,-10.073016897565934,8.291215664961037,7.3003365389890105
-0.1617,1.0453,-0.247,-0.6714,0.2471,0.025,-25.34,-197.155,-46.0775,-13.363764059744675,-8.606604134951374,6.632050797255357,7.312735995798306
-0.0623,1.0364,-0.2852,-0.6714,0.2471,0.025,-25.6812,-206.675,-43.5925,-15.301882041388989,-3.4879285093566037,7.467725759032181,7.3251209420401935
-0.0127,0.9912,-0.2519,-0.6621,0.2463,0.0046,-32.0163,-213.85,-35.245,-14.29341785358487,-0.8343119009484067,5.601853593078186,7.33753455550062
-0.0279,0.9338,-0.2473,-0.6538,0.2462,0.0001,-36.1637,-223.7025,-27.685,-14.817587439465528,-1.599847894414079,5.460770330345872,7.349936135807586
0.0362,0.7684,-0.3024,-0.6538,0.2462,0.0001,-35.8488,-234.8412,-19.0137,-21.287030427604314,1.8648695588851054,7.977590880796833,7.362269410272845
0.2081,0.7868,-0.2965,-0.646,0.2482,-0.0193,-31.395,-240.9138,-13.5887,-20.670023114568565,2.4987689497302457,6.956672192436822,7.37461790313807
0.1931,0.8058,-0.2876,-0.646,0.2482,-0.0193,-31.1238,-244.0637,-8.6012,-19.676981595314743,11.027094860617,6.451460463501159,7.387043549751958
0.2379,0.7794,-0.2804,-0.6343,0.2528,-0.0357,-29.1112,-242.3663,-5.2588,-19.782899000100475,15.492274583928804,5.496324514966349,7.399324798524311
0.3535,0.7702,-0.2808,-0.6286,0.2547,-0.0474,-26.11,-235.9613,-6.1163,-20.020739838590288,22.407477116970714,5.128200453307625,7.41162940577103
0.3625,0.7152,-0.3269,-0.6286,0.2547,-0.0474,-29.2075,-226.6338,-6.8075,-24.39911873655162,24.450005633650562,7.66638570551457,7.423980729966481
0.5485,0.6788,-0.3926,-0.617,0.2537,-0.0603,-31.43,-216.1775,-3.6575,-29.854434597724612,34.01418778183124,11.646634366590563,7.436351519557237
0.6572,0.733,-0.3303,-0.6076,0.2588,-0.0653,-25.5412,-200.8562,-3.7362,-24.4912313078556,38.782392665985064,8.760527399010346,7.448664266878356
0.3991,0.9026,-0.1723,-0.6076,0.2588,-0.0653,-14.4462,-186.4625,-2.1613,-11.876305809979593,24.702626133542694,1.925265475713241,7.460924280674012
0.3576,0.9409,-0.1476,-0.6042,0.2608,-0.0759,-7.4812,-180.2937,6.7638,-9.422741241258594,20.77223245402723,4.185294226609854,7.473169429985981
0.4035,0.9523,-0.2284,-0.6042,0.2608,-0.0759,-0.2888,-161.56,11.025,-12.276141500388258,22.3298029256347,1.64883760602954,7.485448555260665
0.5001,0.9379,-0.2197,-0.597,0.2648,-0.0762,-13.7375,-135.4062,-4.5763,-13.108595844400408,26.92927623629184,1.9584312268102289,7.497797755958446
0.3812,1.2041,-0.1186,-0.5886,0.2653,-0.0881,-20.3437,-117.46,-16.9487,-6.025513170485932,19.68107149370274,7.284408379350302,7.510109441530731
0.2242,1.2703,0.0164,-0.5886,0.2653,-0.0881,-27.9125,-105.525,-12.0487,0.4821158400884905,13.735005016314835,9.70689740016013,7.522480585037765
0.2201,1.2844,0.0239,-0.5834,0.2657,-0.0861,-39.0075,-105.1663,-6.1338,1.050403244744643,10.193833485234155,9.737528855760806,7.5347876696984315
0.31,1.2975,-0.0551,-0.5797,0.2638,-0.0892,-53.445,-104.3175,-5.4688,-2.3644558182932043,13.07338483965741,8.836074786891357,7.547107849261395
0.268,1.2912,0.0005,-0.5797,0.2638,-0.0892,-70.2538,-92.1113,-8.61,-0.0125992958746381,11.949082116859316,9.845355285608669,7.559337072340842
0.2524,1.2812,0.0142,-0.5753,0.261,-0.0818,-88.5238,-80.7625,-18.0862,0.6275496036588963,11.29198108971771,9.358731918663416,7.571566295420288
0.2587,1.2487,0.0184,-0.5753,0.261,-0.0818,-117.635,-73.5438,-18.1037,0.8423428872216835,11.628087164848841,9.517902479927125,7.583898508136713
0.261,1.1669,0.0118,-0.5702,0.2603,-0.0748,-124.8188,-75.7138,-9.4062,0.5815052329642324,12.420264591682885,8.81523406392593,7.5962261199415195
0.2864,0.9745,-0.0881,-0.5673,0.2578,-0.0651,-130.0425,-75.1625,-8.365,-5.12103929116532,15.69456869995626,5.102401871839701,7.608531081104516
