AcclX,AcclY,AcclZ,MagX,MagY,MagZ,GyroX,GyroY,GyroZ,Roll,Pitch,Yaw,Time(s)
-0.2639,0.9619,0.0404,-0.639,0.0299,-0.0952,-2.7738,1.155,-14.7,0,0,0,1.6209436328161082
-0.2613,0.9343,0.0421,-0.6372,0.0308,-0.0985,-2.1788,1.0062,-14.5162,0,0,0,1.6329651070402087
-0.2641,0.9347,0.0393,-0.6372,0.0308,-0.0985,-2.7738,0.3588,-14.49,0,0,0,1.6451539836639324
-0.2652,0.9615,0.0407,-0.6367,0.0298,-0.0989,-2.7738,0.63,-14.6037,0,0,0,1.657340382873708
-0.2641,0.9595,0.0368,-0.6367,0.0298,-0.0989,-2.2925,0.63,-14.6037,0,0,0,1.669447858753429
-0.2647,0.9607,0.0398,-0.637,0.0308,-0.0994,-2.6338,0.7788,-15.2075,0,0,0,1.6816158543167345
-0.2641,0.9615,0.0352,-0.637,0.0308,-0.0994,-2.8175,0.7088,-14.91,0,0,0,1.6911974297184207
-0.2639,0.96,0.0376,-0.6373,0.0296,-0.0978,-3.0625,1.0412,-14.8312,0,0,0,1.7032146569471818
-0.2643,0.9609,0.0351,-0.6373,0.0306,-0.0962,-2.9313,0.63,-14.21,0,0,0,1.7154127353941406
-0.2639,0.9595,0.0381,-0.6373,0.0306,-0.0962,-2.5725,0.9538,-14.3587,0,0,0,1.7275166721110786
-0.2668,0.9611,0.0391,-0.6341,0.0309,-0.0994,-2.4325,1.015,-14.4375,0,0,0,1.739668741441862
-0.2655,0.9588,0.04,-0.6341,0.0309,-0.0994,-2.8438,1.12,-14.0963,0,0,0,1.7518339056749412
-0.2623,0.9617,0.0298,-0.6378,0.0295,-0.0977,-3.0275,0.91,-14.2012,0,0,0,1.764035877200961
-0.2654,0.9606,0.0392,-0.6362,0.0306,-0.1014,-2.4938,1.4175,-14.4287,0,0,0,1.7761543244853084
-0.2633,0.9609,0.0362,-0.6362,0.0306,-0.1014,-2.5725,1.0587,-14.5862,0,0,0,1.788331521871849
-0.2647,0.9612,0.034,-0.6357,0.0317,-0.0996,-2.5725,1.05,-14.6387,0,0,0,1.8005257072397467
-0.2648,0.9614,0.0403,-0.6357,0.0317,-0.0996,-3.4213,1.3037,-14.5862,0,0,0,1.8126898097239912
-0.2649,0.9626,0.0374,-0.6353,0.0314,-0.1015,-2.8,0.875,-14.7962,0,0,0,1.82210893755395
-0.2658,0.9607,0.0364,-0.636,0.0307,-0.1008,-2.7388,1.1725,-14.5513,0,0,0,1.834282595777708
-0.2649,0.9609,0.0389,-0.636,0.0307,-0.1008,-2.59,1.2075,-14.8662,0,0,0,1.8464194467085255
-0.2643,0.9603,0.0327,-0.6374,0.0306,-0.0999,-2.6688,0.8312,-14.4812,0,0,0,1.8585945205973964
-0.2653,0.9635,0.0362,-0.6374,0.0306,-0.0999,-3.1937,1.3912,-14.945,0,0,0,1.8707518986723537
-0.2638,0.9601,0.0401,-0.6382,0.0298,-0.0995,-3.4475,1.1375,-14.3762,0,0,0,1.8828951200961803
-0.2639,0.9613,0.0355,-0.6382,0.0302,-0.098,-3.5,0.4725,-14.0,0,0,0,1.895050374673468
-0.2678,0.9631,0.039,-0.6382,0.0302,-0.098,-2.31,1.12,-14.56,0,0,0,1.9072325268879045
-0.2641,0.961,0.0337,-0.6389,0.0294,-0.1002,-2.835,1.3562,-14.6912,0,0,0,1.9194362679953154
-0.2639,0.9592,0.0379,-0.6389,0.0294,-0.1002,-3.01,1.2163,-14.3762,0,0,0,1.9315179079867224
-0.263,0.9605,0.0395,-0.6378,0.0334,-0.1002,-2.7562,1.0937,-14.6475,0,0,0,1.9436292769455044
-0.2652,0.9614,0.0371,-0.6351,0.0334,-0.0945,-2.6775,0.7525,-14.5513,0,0,0,1.9531032617985953
-0.2663,0.959,0.0344,-0.6351,0.0334,-0.0945,-2.9488,0.8663,-14.4462,0,0,0,1.9652839983479187
-0.261,0.9595,0.0331,-0.6382,0.0278,-0.0992,-2.73,1.1025,-14.3762,0,0,0,1.9774934021157822
-0.2657,0.9617,0.037,-0.6382,0.0278,-0.0992,-2.3275,0.8312,-14.6825,0,0,0,1.9895778734374154
-0.2641,0.9589,0.038,-0.6373,0.0302,-0.0934,-3.1063,0.9887,-14.5862,0,0,0,2.001763210898356
-0.266,0.9614,0.0324,-0.6386,0.0302,-0.097,-2.6163,0.455,-14.56,0,0,0,2.01393156037794
-0.2654,0.9622,0.035,-0.6386,0.0302,-0.097,-2.6863,0.9975,-14.1138,0,0,0,2.026101679438915
-0.2628,0.9584,0.0364,-0.6384,0.0304,-0.0997,-2.7475,0.9975,-14.595,0,0,0,2.038236760788341
-0.2649,0.961,0.0375,-0.6384,0.0304,-0.0997,-2.905,0.9975,-14.455,0,0,0,2.05039590844469
-0.2632,0.961,0.0379,-0.6369,0.0311,-0.1008,-2.4938,0.91,-14.6825,0,0,0,2.062596818221875
-0.2619,0.9592,0.0354,-0.6368,0.0294,-0.0991,-2.9575,1.155,-14.4812,0,0,0,2.0747000471062567
-0.2665,0.962,0.0399,-0.6368,0.0294,-0.0991,-3.4738,1.2775,-14.0963,0,0,0,2.0841177592711024
-0.2631,0.9589,0.0436,-0.6372,0.0305,-0.0994,-2.6863,0.9538,-14.4025,0,0,0,2.096455634647979
-0.265,0.9624,0.0331,-0.6372,0.0305,-0.0994,-3.2638,0.9275,-13.8425,0,0,0,2.1084824176162535
-0.2664,0.9623,0.0341,-0.6377,0.0306,-0.1063,-2.66,1.225,-14.4725,0,0,0,2.120655368007455
-0.2654,0.9632,0.0361,-0.6366,0.0302,-0.0998,-2.6425,1.2425,-14.4375,0,0,0,2.1329051182310415
-0.2647,0.9606,0.0357,-0.6366,0.0302,-0.0998,-3.0363,1.3475,-15.2425,0,0,0,2.144952428343456
-0.2664,0.9612,0.0388,-0.6366,0.0304,-0.1004,-3.1675,1.015,-14.4112,0,0,0,2.1571048515905176
-0.2641,0.9583,0.0367,-0.6366,0.0304,-0.1004,-3.15,1.19,-14.1662,0,0,0,2.1693110701118763
-0.2623,0.9617,0.0345,-0.6367,0.0345,-0.0998,-2.8525,1.0675,-13.8337,0,0,0,2.181472341265895
-0.2623,0.9626,0.037,-0.6349,0.0302,-0.1002,-3.0625,1.2163,-14.1925,0,0,0,2.19357486231772
-0.2631,0.962,0.0372,-0.6349,0.0302,-0.1002,-3.2813,0.9975,-13.7987,0,0,0,2.2030155790406534
-0.263,0.9584,0.0394,-0.6364,0.0318,-0.0991,-3.0713,1.1987,-13.93,0,0,0,2.2151881755155762
-0.2635,0.9631,0.0369,-0.6364,0.0318,-0.0991,-2.4237,0.875,-14.9187,0,0,0,2.2275267587250096
-0.2643,0.9603,0.0293,-0.6371,0.0313,-0.098,-2.7213,1.0412,-14.385,0,0,0,2.2394806349399596
-0.266,0.9607,0.0393,-0.634,0.031,-0.1006,-2.6513,0.9363,-14.4462,0,0,0,2.2516312886056298
-0.2635,0.9597,0.037,-0.634,0.031,-0.1006,-2.7475,0.8138,-14.105,0,0,0,2.2638099016572837
-0.2675,0.9615,0.0357,-0.6365,0.0302,-0.1005,-3.2113,1.2163,-14.5775,0,0,0,2.2760012556949554
-0.2639,0.9612,0.04,-0.6365,0.0302,-0.1005,-3.4913,1.1025,-14.5513,0,0,0,2.2881802226628873
-0.265,0.9603,0.0376,-0.6377,0.03,-0.1006,-2.9313,1.0587,-14.175,0,0,0,2.300309287435583
-0.2661,0.9606,0.0334,-0.639,0.03,-0.0985,-2.7913,0.6038,-14.6125,0,0,0,2.312490023984906
-0.2635,0.959,0.0329,-0.639,0.03,-0.0985,-3.29,0.8925,-14.7437,0,0,0,2.3246502333900896
-0.266,0.9608,0.0389,-0.6351,0.0317,-0.1001,-3.185,1.0325,-14.8662,0,0,0,2.334146514968712
-0.2631,0.9625,0.0397,-0.6351,0.0317,-0.1001,-2.695,0.7263,-14.2275,0,0,0,2.346422808913169
-0.2644,0.9597,0.0372,-0.6374,0.0304,-0.1008,-2.4237,1.4088,-14.7788,0,0,0,2.3583717303002234
-0.2665,0.96,0.0345,-0.6374,0.0314,-0.0993,-2.1613,1.1638,-14.6737,0,0,0,2.3705623765053385
-0.2668,0.962,0.0361,-0.6374,0.0314,-0.0993,-2.7388,1.4437,-14.7087,0,0,0,2.3827477139662796
-0.2636,0.9588,0.0411,-0.637,0.0314,-0.099,-2.345,1.3125,-14.525,0,0,0,2.394815551222834
-0.2614,0.9582,0.0389,-0.637,0.0314,-0.099,-2.45,1.155,-14.0787,0,0,0,2.4070217697441927
-0.2633,0.9618,0.0367,-0.6359,0.0279,-0.0976,-2.6338,0.9625,-13.9038,0,0,0,2.4192042758749075
-0.2638,0.9609,0.0362,-0.6369,0.0307,-0.0991,-2.3538,1.155,-13.7725,0,0,0,2.4314303137078497
-0.2654,0.9653,0.0343,-0.6369,0.0307,-0.0991,-3.0188,1.1987,-14.3762,0,0,0,2.4435710577177283
-0.2627,0.9579,0.0409,-0.6362,0.0308,-0.099,-3.5963,1.1112,-14.2625,0,0,0,2.45560668859296
-0.2618,0.9578,0.0405,-0.6362,0.0308,-0.099,-3.0713,1.3912,-14.385,0,0,0,2.465085628273947
-0.2656,0.9615,0.0334,-0.6375,0.0315,-0.1044,-2.6775,0.8225,-14.665,0,0,0,2.4772723814000006
-0.2661,0.9614,0.0359,-0.6365,0.0321,-0.0984,-2.3275,1.2512,-14.8575,0,0,0,2.4894509944516545
-0.2656,0.9593,0.0362,-0.6365,0.0321,-0.0984,-2.52,0.63,-14.1487,0,0,0,2.501534404024453
-0.2647,0.9593,0.0345,-0.6372,0.0301,-0.0986,-2.2662,0.91,-14.0525,0,0,0,2.5136999221738106
-0.26,0.962,0.037,-0.6372,0.0301,-0.0986,-2.4938,0.9538,-14.525,0,0,0,2.5259298530858136
-0.2645,0.9639,0.0331,-0.6378,0.031,-0.0985,-3.3075,0.9975,-14.2187,0,0,0,2.5380645805189617
-0.2654,0.9617,0.0375,-0.6353,0.0305,-0.1002,-3.1412,1.0237,-14.63,0,0,0,2.550311499412322
-0.2614,0.9628,0.0402,-0.6353,0.0305,-0.1002,-3.2113,0.9538,-14.2975,0,0,0,2.56504680365822
-0.2652,0.9604,0.0367,-0.6382,0.031,-0.0978,-3.2025,1.26,-14.6212,0,0,0,2.5745526409763557
-0.2671,0.9611,0.039,-0.6382,0.031,-0.0978,-2.6513,1.0937,-14.0787,0,0,0,2.586657993358407
-0.2658,0.9616,0.0331,-0.6365,0.0306,-0.1031,-2.6688,0.6038,-14.7,0,0,0,2.596335126155227
-0.2633,0.9595,0.0367,-0.6373,0.0306,-0.0995,-3.0538,0.9975,-14.245,0,0,0,2.60825361074235
-0.2668,0.9628,0.0375,-0.6373,0.0306,-0.0995,-3.7625,1.365,-14.735,0,0,0,2.620444610863743
-0.2635,0.963,0.0395,-0.6375,0.0314,-0.0977,-3.6312,0.9187,-14.4987,0,0,0,2.632637380566528
-0.2621,0.9601,0.0397,-0.6375,0.0314,-0.0977,-2.8263,0.8312,-14.0963,0,0,0,2.644916505841211
-0.2627,0.9628,0.0395,-0.6376,0.0305,-0.0998,-3.4125,1.0062,-14.665,0,0,0,2.656882769125901
-0.2644,0.959,0.0389,-0.6383,0.0302,-0.1006,-3.08,1.155,-14.4112,0,0,0,2.669083678903086
-0.2652,0.9721,0.0253,-0.6383,0.0302,-0.1006,-3.1588,0.9187,-14.7,0,0,0,2.681264061536131
-0.2687,0.9715,0.0343,-0.6369,0.0301,-0.1014,-2.94,1.1375,-14.91,0,0,0,2.693428517936654
-0.2677,0.9524,0.0403,-0.6369,0.0311,-0.0977,-3.0013,1.085,-14.6212,0,0,0,2.705626950299891
-0.2671,0.9579,0.0429,-0.6381,0.0311,-0.0977,-2.9488,0.6737,-14.595,0,0,0,2.7149809575346473
-0.2592,0.9587,0.037,-0.6374,0.0305,-0.0991,-3.0188,1.2075,-14.735,0,0,0,2.727165587163032
-0.2669,0.9618,0.0276,-0.6374,0.0305,-0.0991,-2.7475,1.2337,-14.4375,0,0,0,2.7393555255355904
-0.2616,0.9582,0.0354,-0.6368,0.0308,-0.1046,-2.4763,1.015,-14.0175,0,0,0,2.751595012187107
-0.2633,0.9695,0.03,-0.6375,0.0318,-0.1037,-2.5288,0.84,-14.7087,0,0,0,2.763609054169364
-0.2636,0.9645,0.0374,-0.6375,0.0318,-0.1037,-3.4125,0.5688,-14.455,0,0,0,2.7757954533791396
-0.2618,0.9535,0.0435,-0.6361,0.0295,-0.101,-3.08,1.1812,-14.5775,0,0,0,2.787970173351732
-0.2616,0.9636,0.0366,-0.6361,0.0295,-0.101,-2.3275,0.8575,-15.12,0,0,0,2.800148786403386
-0.263,0.9635,0.0326,-0.6381,0.0295,-0.0989,-2.59,0.8925,-14.3325,0.19603090741518825,-6.481238716781497,0.6404284087393155,3.7870099984887773
-0.2681,0.959,0.0337,-0.6382,0.032,-0.0986,-2.6425,1.295,-14.9012,0.29892450915858876,-11.652975654492153,2.7241619004898636,3.7917220398177047
-0.2682,0.9623,0.0361,-0.6382,0.032,-0.0986,-2.1788,0.7263,-15.0412,0.934629737662033,-13.965213712542397,3.966327473466928,3.7964439908024237
-0.2616,0.9597,0.0418,-0.6377,0.0298,-0.099,-2.7125,-0.0613,-14.5862,0.9500028919042177,-14.596957044617449,6.596644616220693,3.801349270419288
-0.2644,0.9581,0.0384,-0.6377,0.0298,-0.099,-2.8087,1.1987,-14.4637,1.0790953581333877,-14.977779992846806,7.074958668597722,3.805878337032348
-0.2639,0.963,0.0335,-0.6368,0.0315,-0.0986,-3.2987,1.4612,-14.4812,1.4201923218330963,-15.136881532599146,7.745889648703628,3.8103348508083625
-0.2619,0.9635,0.0293,-0.6366,0.031,-0.1041,-2.1,1.26,-14.2187,1.5411238588827505,-15.161185795953307,8.161875128786768,3.8148522381842396
-0.2614,0.9633,0.0338,-0.6366,0.031,-0.1041,-2.94,1.0412,-14.14,1.6310114037589272,-15.165431974328001,8.25980833165193,3.819682133633832
-0.2658,0.958,0.0397,-0.637,0.0307,-0.0998,-3.115,0.63,-15.0237,1.8476846922470658,-15.358865188163268,8.506797386620926,3.824225356898023
-0.2632,0.9575,0.0387,-0.637,0.0307,-0.0998,-2.4938,1.0675,-14.63,1.9283022304002215,-15.358448350972917,8.572140937883972,3.828413956051384
-0.264,0.96,0.0346,-0.638,0.0332,-0.0998,-2.3712,1.5575,-14.21,1.9621098447588958,-15.361610740909718,8.805706213305278,3.830952597515437
-0.2636,0.9632,0.0365,-0.6381,0.0303,-0.1051,-2.765,1.1987,-14.6475,1.9743400221591412,-15.32742830463584,8.9695519973672,3.833502918216672
-0.2635,0.9626,0.0298,-0.6381,0.0303,-0.1051,-3.1937,0.5425,-14.1662,1.9080840336262477,-15.318178311611957,9.17593016357476,3.8360344813551595
-0.2639,0.9638,0.0409,-0.6377,0.0326,-0.0999,-3.0538,0.7088,-14.07,2.0437439468505305,-15.312261228391163,9.187479702972595,3.8385685219075945
-0.2635,0.9574,0.0397,-0.6377,0.0326,-0.0999,-2.9663,1.3562,-14.2187,2.1127742324013514,-15.336621007312509,9.19990064170803,3.841107163371647
-0.265,0.9587,0.0385,-0.6376,0.0316,-0.0967,-2.4413,1.1812,-14.4462,2.1514882000962725,-15.384088537639517,9.155009972680872,3.8437031392727796
-0.2663,0.9626,0.0323,-0.6362,0.0298,-0.1014,-2.4588,1.4262,-13.9387,2.1064820734006586,-15.402423929633805,9.222514234736428,3.8462509825600675
-0.2624,0.964,0.0389,-0.6362,0.0298,-0.1014,-2.1788,1.4962,-14.5338,2.1767055336589975,-15.311697839427962,9.276791796445774,3.8487828996148328
-0.2681,0.9589,0.0374,-0.637,0.0308,-0.099,-2.555,0.9975,-14.6475,2.184017607361314,-15.464331151028267,9.273533586935512,3.851302429599859
-0.2658,0.9604,0.0386,-0.637,0.0308,-0.099,-2.4588,0.7175,-13.8687,2.207054891480361,-15.46298037428906,9.250886806879212,3.853843548477859
-0.2625,0.957,0.0412,-0.6377,0.0322,-0.1023,-3.1675,0.8312,-14.4025,2.2889643293110216,-15.40136772251621,9.274868257610189,3.856433153885983
-0.2635,0.9607,0.0363,-0.6378,0.0298,-0.1,-3.115,0.7613,-13.9737,2.252440505718428,-15.381024538819108,9.266866397121493,3.8589679022709746
-0.2677,0.9629,0.0413,-0.6378,0.0298,-0.1,-1.9337,0.49,-13.6763,2.3409121076265826,-15.391809431216647,9.261146664438453,3.86037471947711
-0.2643,0.9628,0.0371,-0.6363,0.0309,-0.1003,-2.5113,0.595,-13.895,2.319367519619032,-15.379688445823396,9.265817377853542,3.8616718226369806
-0.263,0.9592,0.0332,-0.6363,0.0309,-0.1003,-2.625,0.7613,-14.6125,2.2951140998885666,-15.351682886051165,9.26596228182554,3.8629303489225197
-0.2655,0.9615,0.0423,-0.6364,0.0313,-0.1008,-2.87,1.1987,-14.3587,2.3272323653282254,-15.38226923571519,9.279879591431005,3.864146759170944
-0.2635,0.9624,0.0339,-0.6378,0.0313,-0.0996,-3.5,0.9275,-14.385,2.18976267788598,-15.347255705589514,9.276114144015391,3.865366354665873
-0.2644,0.9599,0.0367,-0.6378,0.0313,-0.0996,-3.0625,0.7788,-14.2362,2.189701526319273,-15.363680029931002,9.263215379156447,3.866588781491028
-0.2627,0.9613,0.0371,-0.6378,0.0293,-0.1005,-3.1937,0.77,-14.3675,2.1964374559263145,-15.32436493423624,9.264916108889645,3.867802360409226
-0.2647,0.9597,0.0315,-0.6378,0.0293,-0.1005,-3.3075,0.9713,-14.6825,2.077136395702986,-15.369915910621856,9.264910091973215,3.8690212480715984
-0.2641,0.9601,0.0376,-0.6378,0.0314,-0.0979,-3.3075,0.8925,-14.63,2.139544182059426,-15.369475287674268,9.249399672664996,3.870243674896754
-0.2621,0.961,0.0403,-0.6382,0.0304,-0.1012,-3.3775,1.0237,-14.4462,2.2450316175954885,-15.311220823021303,9.254081050225416,3.871512110838084
-0.2622,0.962,0.0342,-0.6382,0.0304,-0.1012,-2.8788,1.19,-14.0875,2.2137182909536084,-15.286658043647522,9.266128292397417,3.8727359533283523
-0.2653,0.9622,0.0365,-0.6356,0.031,-0.1005,-3.1325,0.7525,-14.6912,2.201298036578839,-15.348131320158226,9.273360216860945,3.8739569644883947
-0.2642,0.9604,0.0362,-0.6356,0.031,-0.1005,-3.115,1.0675,-14.5862,2.1888315534686695,-15.359442544225448,9.276220725575321,3.8752130133599856
-0.2604,0.9617,0.0386,-0.637,0.0298,-0.0955,-2.9488,0.9187,-14.8225,2.2104941689149173,-15.237973698387409,9.25540961990892,3.8764357941014187
-0.266,0.9608,0.0389,-0.6366,0.0301,-0.099,-2.7475,1.1812,-14.5862,2.215139738179954,-15.349951357586175,9.239925760711966,3.877653973931235
-0.2643,0.9629,0.0364,-0.6366,0.0301,-0.099,-2.52,0.6737,-14.4112,2.2073831404711037,-15.344706434840731,9.220696442086354,3.878868968514546
-0.2615,0.9604,0.0404,-0.6366,0.03,-0.0986,-2.625,0.8487,-14.0,2.2218757172570576,-15.308289324078775,9.210669443796306,3.8800712221118396
-0.264,0.9609,0.0379,-0.6366,0.03,-0.0986,-2.94,0.8225,-14.1575,2.228942009894494,-15.323736681262345,9.199699109383799,3.8812840931974812
-0.2671,0.9635,0.0379,-0.6373,0.0302,-0.1006,-2.6513,1.1462,-14.4287,2.2300957781498734,-15.396167008102372,9.21470477316238,3.882500857362184
-0.2639,0.9569,0.0371,-0.6353,0.0287,-0.1001,-3.2987,0.5862,-14.8312,2.2264387453228554,-15.402216607925336,9.232351546420198,3.883781326456976
-0.2617,0.9639,0.0378,-0.6353,0.0287,-0.1001,-3.0625,0.7788,-14.6562,2.231548131385586,-15.287036461917424,9.23854983399894,3.8850249882588272
-0.262,0.9622,0.04,-0.639,0.033,-0.1014,-2.7213,1.2425,-14.4725,2.234290489881064,-15.255410485980013,9.260953534717483,3.8862435220049214
-0.264,0.9631,0.0285,-0.639,0.033,-0.1014,-2.94,1.4,-14.0612,2.1308052035681273,-15.276831879531326,9.275792283389055,3.8875561974810364
-0.2638,0.9603,0.0376,-0.6362,0.0311,-0.0958,-2.9575,0.8663,-14.3587,2.1534439401789216,-15.308262869440995,9.23889208040551,3.8887803938875827
-0.262,0.9617,0.038,-0.6377,0.0314,-0.0999,-2.7562,0.805,-14.6387,2.15901140761855,-15.267338421386066,9.236413769732225,3.89001060687086
-0.2646,0.959,0.0372,-0.6377,0.0314,-0.0999,-3.22,1.1112,-14.4637,2.180290471103983,-15.335459565079157,9.235092726338406,3.8912291406169537
-0.2625,0.9606,0.039,-0.6416,0.0314,-0.0995,-3.0538,1.015,-14.28,2.2178841620036964,-15.30959764845225,9.230638473033824,3.8924600614327876
-0.263,0.9617,0.0304,-0.6416,0.0314,-0.0995,-2.0038,0.9625,-14.2975,2.05033817848164,-15.30053835817331,9.229970340608466,3.89369735274163
-0.2647,0.9619,0.0391,-0.6372,0.0285,-0.0958,-3.0975,1.1812,-14.0525,2.128873400786452,-15.323621952361382,9.166396627912615,3.8949173021528374
-0.2649,0.9616,0.0376,-0.6378,0.0311,-0.1011,-3.675,1.3125,-13.895,2.1832713649288555,-15.33909474176312,9.208909312013128,3.8961280497408093
-0.2628,0.9639,0.0365,-0.6378,0.0311,-0.1011,-2.45,1.0937,-14.4375,2.180309851853332,-15.293839610645602,9.221680303430167,3.8973430443241206
-0.2629,0.9625,0.0387,-0.6366,0.0302,-0.101,-2.9925,0.77,-14.2625,2.2077750201149433,-15.28249499076681,9.241116391657181,3.8985973236143203
-0.2653,0.9623,0.0351,-0.6366,0.0302,-0.101,-3.255,1.4962,-14.9888,2.1654877994674484,-15.35293190405763,9.273222761696537,3.899851248988242
-0.2622,0.9606,0.0384,-0.6368,0.0305,-0.1002,-3.2025,0.8138,-14.1138,2.206716445050393,-15.319654391006331,9.271906963268705,3.9010655357389967
-0.2622,0.9617,0.0363,-0.6389,0.0307,-0.099,-2.9313,1.2337,-14.5687,2.198324726684252,-15.28045623378416,9.23990546827465,3.9022939791408824
-0.2666,0.9626,0.0379,-0.6389,0.0307,-0.099,-3.0538,0.875,-14.7087,2.212983375340553,-15.379886468766651,9.23073162789375,3.9035004797335153
-0.2633,0.9564,0.038,-0.6361,0.0312,-0.097,-3.2288,0.98,-14.5513,2.2344696017145926,-15.380353447426156,9.227884196584323,3.9047052107447566
-0.2631,0.9612,0.0376,-0.6361,0.0312,-0.097,-3.1588,0.77,-14.1575,2.2362464770142974,-15.350286857320752,9.187557521026372,3.9059807250116525
-0.2633,0.9623,0.0346,-0.6373,0.0309,-0.1018,-2.7825,0.98,-14.6737,2.2231393871772003,-15.320571999312381,9.189938075861813,3.9072187241530516
-0.2646,0.9618,0.0386,-0.6364,0.0307,-0.0998,-2.485,0.9363,-14.7788,2.236554852598105,-15.347525992414791,9.191406908569936,3.9084418588107632
-0.2646,0.9604,0.0348,-0.6364,0.0307,-0.0998,-2.5988,0.8312,-14.6737,2.221388700434306,-15.371549054941251,9.19575676206561,3.9097488716264257
-0.2592,0.959,0.0374,-0.6377,0.0306,-0.1044,-2.1,0.7088,-14.3238,2.22588374585344,-15.2627542065734,9.282972593659863,3.910995364758503
-0.2638,0.9636,0.0346,-0.6377,0.0306,-0.1044,-2.0738,0.8925,-14.6125,2.1604722645348113,-15.282075897383118,9.306497134812854,3.9122100054255364
-0.2666,0.9595,0.0314,-0.6375,0.0291,-0.0985,-2.205,1.0937,-14.3238,2.065413495880685,-15.382530243969807,9.282481561556322,3.9134203990972303
-0.2646,0.9611,0.0433,-0.6374,0.0304,-0.0997,-2.6338,0.8312,-14.4725,2.0984851442573134,-15.380355382737804,9.275960899569345,3.914639640675881
-0.2636,0.9627,0.0368,-0.6374,0.0304,-0.0997,-2.9488,1.2687,-14.4987,2.1163928636528864,-15.343314565472324,9.25999321079923,3.9158454334359574
-0.2643,0.9606,0.0384,-0.6378,0.0317,-0.1015,-3.0275,0.8663,-14.1487,2.1587705850280994,-15.353561948914109,9.270141160831152,3.91706007410299
-0.2654,0.9585,0.0376,-0.6378,0.0317,-0.122,-2.6513,0.9887,-14.3325,2.1630442749899927,-15.401150911070106,9.30912597883863,3.918287101839763
-0.2649,0.9617,0.0337,-0.6378,0.0318,-0.1037,-2.7037,1.0762,-14.7788,2.1628638756582745,-15.395757972929974,9.332957616241911,3.9195074051672485
-0.2633,0.9613,0.037,-0.6371,0.0312,-0.1003,-2.8788,1.0587,-14.4287,2.16905798462368,-15.355306564091,9.32736074629806,3.9207117822622117
-0.2666,0.9607,0.0361,-0.6371,0.0312,-0.1003,-2.3712,1.1287,-14.1925,2.1648070547408835,-15.409188354841039,9.319425534422924,3.9219278385943577
-0.2612,0.96,0.0361,-0.6373,0.0309,-0.0955,-2.66,1.1987,-14.0612,2.1643474982764634,-15.345941410736929,9.226846433471888,3.923145310591617
-0.2626,0.9615,0.0362,-0.6373,0.0309,-0.0996,-2.5288,1.5312,-14.7,2.1631324985918745,-15.30368844098221,9.215783823818002,3.924356058179589
-0.2645,0.9619,0.0353,-0.6377,0.0336,-0.0996,-2.7913,1.3912,-14.4725,2.158125160648572,-15.332429443904028,9.208102481568991,3.9255646822698917
-0.2628,0.9617,0.0363,-0.6365,0.0313,-0.0999,-2.555,1.0062,-14.2625,2.1585771693023847,-15.308814832410272,9.209079853488891,3.9268037431601255
-0.2621,0.9614,0.0351,-0.6365,0.0313,-0.0999,-2.9138,0.7,-14.4987,2.14677309722563,-15.276080102909972,9.213499761830315,3.928037141389907
-0.2619,0.9606,0.039,-0.6374,0.0326,-0.1002,-2.835,0.9975,-14.2012,2.1676087876933194,-15.261925018659158,9.214702082047667,3.9292471811453225
-0.2635,0.9576,0.035,-0.6374,0.0318,-0.1005,-2.275,0.9887,-14.4637,2.14532733674246,-15.31468969279794,9.215937870394164,3.9304696079704775
-0.2636,0.9645,0.0408,-0.6367,0.0318,-0.1005,-2.9138,0.5688,-14.1138,2.193628476912064,-15.300350560494984,9.239556474959256,3.931690973046798
-0.2628,0.9604,0.0368,-0.6371,0.03,-0.1004,-3.0363,0.7613,-14.3937,2.193809015829143,-15.297027749042181,9.245473890566117,3.9329059676301092
-0.2642,0.9606,0.0376,-0.6371,0.03,-0.1004,-2.7913,1.2337,-14.2887,2.1977000087837286,-15.325699603707848,9.252522733424989,3.9341273327064297
-0.263,0.959,0.0369,-0.6372,0.0298,-0.0991,-2.6425,1.3475,-14.2275,2.1980294362809834,-15.325493015628,9.226381607065456,3.9353430351222976
-0.2653,0.9681,0.0345,-0.6364,0.0312,-0.0956,-2.6338,1.1287,-14.6037,2.187927504372806,-15.320693751724903,9.173534645544274,3.9365498896312086
-0.2697,0.9655,0.0359,-0.6364,0.0312,-0.0956,-2.765,1.1638,-14.49,2.184489108863515,-15.451147340916515,9.122008919478345,3.9377553284750064
-0.2668,0.975,0.0376,-0.6378,0.0302,-0.1018,-2.555,1.4612,-14.21,2.1875718821209063,-15.390874082846377,9.210664877272771,3.9389724465559874
-0.2569,0.9542,0.0346,-0.6378,0.0302,-0.1018,-3.0275,1.2687,-14.6387,2.1603741211990903,-15.221343271360531,9.248773832816573,3.9401828402276813
-0.274,0.9785,0.035,-0.6364,0.0327,-0.1009,-2.835,0.9887,-15.1287,2.1472936829091585,-15.471080003652874,9.250465826597171,3.9413847399086968
-0.2663,0.9515,0.035,-0.6381,0.0298,-0.0966,-2.5725,0.4375,-14.5513,2.142612995200214,-15.546596554317734,9.138109384140185,3.9426015040733993
-0.261,0.955,0.0479,-0.6381,0.0298,-0.0966,-2.625,0.0,-14.735,2.1950572492679385,-15.397749912605196,9.045146535017807,3.943818268238102
-0.263,0.9675,0.0452,-0.6384,0.0301,-0.0994,-3.0275,1.1112,-14.105,2.31272295143759,-15.328081466082171,9.062649192128898,3.945024060998178
-0.2741,0.967,0.026,-0.6384,0.0301,-0.0994,-3.2288,1.995,-14.6737,2.046340262449184,-15.583532191191226,9.108608570731667,3.94622666851175
-0.2601,0.9492,0.0358,-0.6377,0.0304,-0.1014,-2.3975,1.4088,-14.63,2.0728937746165257,-15.446226764811982,9.183766856227566,3.9474466179229575
-0.2605,0.9685,0.0381,-0.6382,0.0301,-0.0986,-2.695,0.9713,-14.8575,2.074240704576901,-15.221484498909266,9.183470108676486,3.9486570115946513
-0.2567,0.9607,0.0386,-0.6382,0.0301,-0.0986,-3.43,1.1375,-15.2075,2.169669812085839,-15.052942807064733,9.16990054115893,3.9498666974337886
-0.2689,0.958,0.0409,-0.6378,0.0313,-0.0993,-3.885,1.2337,-14.525,2.3186545677215156,-15.348142163209568,9.174300349267131,3.9547103956182332
-0.2624,0.9676,0.0354,-0.6378,0.0313,-0.0993,-2.065,0.8225,-14.0787,2.231677686344417,-15.287791368442655,9.171892842370132,3.9669463431069674
-0.2582,0.9599,0.0329,-0.6366,0.0315,-0.0974,-2.7037,0.8487,-14.14,2.2313671973438614,-15.202765771749357,9.152543511423017,3.9792123734793545
-0.2742,0.9684,0.0368,-0.6382,0.0295,-0.0945,-2.7913,1.0937,-14.2012,2.226873135665975,-15.427797737148458,9.107115082082485,3.9914667246145585
-0.2637,0.9477,0.0412,-0.6382,0.0295,-0.0945,-2.38,0.7788,-14.0612,2.2908717374030267,-15.46205374388539,9.050370684637794,4.003799645163539
-0.2602,0.9597,0.0329,-0.637,0.0293,-0.0997,-2.5988,1.1112,-13.9038,2.260093803978154,-15.390926091020509,9.068755602372264,4.013256642035274
-0.2644,0.961,0.0393,-0.637,0.0293,-0.0997,-2.6338,1.5487,-14.6737,2.265349279939652,-15.38055096025015,9.125254763211178,4.025429592426475
-0.27,0.9647,0.0331,-0.6383,0.0334,-0.0958,-2.87,0.63,-14.4812,2.222284479494419,-15.496451460762753,9.053798404655037,4.03760997505952
-0.2625,0.9558,0.0457,-0.6362,0.0302,-0.1016,-2.1613,1.0412,-14.4812,2.4031856329650823,-15.423060938158978,9.07890199217693,4.049809469171592
-0.2628,0.9638,0.0307,-0.6362,0.0302,-0.1016,-2.66,0.91,-14.3062,2.3795683918690527,-15.34889237233403,9.09515499191163,4.062062050725405
-0.2711,0.9647,0.0381,-0.637,0.032,-0.0993,-2.66,1.1025,-14.3675,2.3747574120956703,-15.495379074323637,9.106801873712458,4.07407857012161
-0.2607,0.9566,0.0406,-0.637,0.032,-0.0993,-3.115,0.77,-14.4725,2.390973083588575,-15.371938967858874,9.119821924753582,4.086238071694236
-0.2594,0.963,0.04,-0.6372,0.03,-0.1011,-2.7388,0.7788,-14.49,2.39053736046272,-15.226119168602146,9.15422189507237,4.098505517731737
-0.2644,0.964,0.0337,-0.637,0.0302,-0.1,-2.8087,1.2862,-13.9562,2.3532650505691683,-15.253370297997234,9.172862169587624,4.110602730039388
-0.265,0.9577,0.0351,-0.637,0.0302,-0.1,-2.4675,1.19,-14.14,2.3048694680739388,-15.325318414383343,9.185211129958823,4.122712683333057
-0.2613,0.9555,0.0375,-0.6366,0.0302,-0.0994,-3.01,0.665,-14.4987,2.2913794902562272,-15.305444185557246,9.1870987783722,4.132146675646703
-0.2643,0.9644,0.0394,-0.6366,0.0302,-0.0994,-3.08,0.91,-14.4112,2.304561487529914,-15.309202402011977,9.187742765328638,4.1443189182053475
-0.2652,0.9597,0.0404,-0.6369,0.031,-0.1002,-3.3163,1.3562,-15.0412,2.3448634771708474,-15.383233551710736,9.211944166715774,4.156987705302409
-0.2626,0.9589,0.0373,-0.6373,0.0304,-0.0993,-2.6775,1.4787,-14.805,2.3419988481506633,-15.339967855059262,9.199203618692643,4.168611023713453
-0.2688,0.9612,0.035,-0.6373,0.0304,-0.0993,-2.3187,1.015,-14.3062,2.270819116523354,-15.453867385613982,9.198282997390965,4.180775480113976
-0.2628,0.9662,0.031,-0.6362,0.0316,-0.0994,-2.2575,1.4088,-14.4287,2.1374193115182902,-15.342253415194397,9.19118261703889,4.19294984617029
-0.2652,0.9597,0.0375,-0.6362,0.0316,-0.0994,-3.01,0.8663,-14.455,2.1609957052048867,-15.38571096403245,9.192322941779366,4.205135537547509
-0.2655,0.9618,0.0345,-0.6366,0.031,-0.0994,-2.835,0.3325,-14.525,2.1485199531183827,-15.403422660282681,9.190852069920963,4.217259647492309
-0.26,0.9597,0.0373,-0.6361,0.0292,-0.0986,-2.8263,0.8575,-14.35,2.1570257287490504,-15.293331242037826,9.184063256171433,4.2294495858648675
-0.263,0.9633,0.0327,-0.6361,0.0292,-0.0986,-2.835,1.1462,-14.8925,2.1321333282345316,-15.275823387364937,9.173412811508868,4.241622536256068
-0.2597,0.9575,0.0365,-0.6357,0.0308,-0.0998,-3.1937,1.0675,-14.3238,2.1489088873071975,-15.228896721493768,9.178925241036769,4.253790531819374
-0.2649,0.9616,0.0357,-0.6357,0.0308,-0.0998,-2.6075,1.4525,-14.8837,2.14693486500156,-15.320552770214054,9.198784074893434,4.263199396077263
-0.3919,0.9202,0.1115,-0.6361,0.0327,-0.1058,-1.0675,1.0412,-12.8187,5.101676114370071,-18.638996486380872,9.280770211242778,4.275340140087142
-0.3248,0.8926,0.1419,-0.6357,0.0306,-0.0993,-2.3712,-4.8213,-11.48,6.080083611137533,-19.404657223315294,9.619958567385225,4.2875665318363625
-0.3465,0.9066,0.04,-0.6357,0.0306,-0.0993,2.5725,-6.4575,-9.3537,3.092638178343845,-20.613152873810044,9.48224191813782,4.299712230674136
-0.3615,0.9232,0.1014,-0.6342,0.0321,-0.1016,0.8663,-5.3987,-4.2613,5.572979058187348,-21.20424614566745,9.845860452584876,4.31180484207017
-0.3507,0.9928,0.0865,-0.6342,0.0321,-0.1016,2.45,-13.4837,-3.3075,5.075921391505979,-19.54845402290091,9.74638197480432,4.324025571158939
-0.3628,0.9577,0.0909,-0.6356,0.0314,-0.1004,-0.5862,-19.2675,-1.9862,5.3109337669709324,-20.574535772752405,9.697629904682739,4.33615534376419
-0.3908,0.9867,0.0938,-0.631,0.0299,-0.1068,-2.555,-27.3262,-1.8812,5.326302485312414,-21.444547248531375,10.384043235247905,4.348364039699497
-0.3062,1.0298,-0.007,-0.631,0.0299,-0.1068,1.4875,-41.965,-2.975,0.7118351358926863,-16.979400506351798,9.86771763923933,4.360604588099848
-0.174,0.9664,-0.0618,-0.6249,0.0333,-0.1107,5.2762,-52.8763,-3.5963,-3.1722080061688014,-10.80402944025481,9.878526711403568,4.372782847235224
-0.0944,0.9334,-0.1116,-0.6249,0.0333,-0.1107,11.1912,-54.5825,-6.5012,-6.57329061515777,-6.360860856884217,9.606495055874335,4.385066573421525
-0.0859,0.9018,-0.117,-0.6187,0.034,-0.1141,18.8825,-43.0937,-2.1875,-7.356028575993212,-5.474022133577018,9.935617134668421,4.39734322128226
-0.0048,0.9404,-0.0173,-0.6203,0.037,-0.1184,25.8213,-34.58,4.0163,-1.267377063582661,-0.5708230991962403,10.718646485310096,4.409597926333743
-0.1476,1.0782,0.1354,-0.6203,0.037,-0.1184,30.1,-24.5875,5.3638,6.908471336354827,-7.376068968622013,11.164448708236392,4.421752473078474
-0.0782,1.0375,0.0742,-0.6244,0.039,-0.1234,25.6812,-15.505,-0.5775,4.186613689608851,-4.518986681164597,11.375382400393828,4.433881537851169
-0.0821,0.967,-0.0099,-0.6258,0.0396,-0.1287,16.8262,2.6688,-9.6512,-0.3540530645700953,-4.785124392247826,11.493610503077756,4.443389852583253
-0.1376,1.0859,0.0362,-0.6258,0.0396,-0.1287,14.8312,15.9162,-9.8875,1.7872059313811635,-6.700932985210218,11.724914580524258,4.455544045411706
-0.2189,1.1286,0.0436,-0.6328,0.0427,-0.1322,16.6425,21.735,4.7512,2.1914500632840634,-10.7480437043328,12.002508766902439,4.467793795635292
-0.2029,1.0793,-0.062,-0.6328,0.0427,-0.1322,25.515,23.1963,22.085,-3.1001920156007228,-10.632997703960452,11.61451069892498,4.479841105747707
-0.2664,1.0829,-0.032,-0.6434,0.0504,-0.1361,28.5687,26.2237,31.4913,-1.736230966148303,-13.745826723733499,11.901632328467366,4.492059711338806
-0.3041,1.0192,0.0118,-0.6575,0.0547,-0.1356,23.5637,34.7462,38.9287,0.5753195562530048,-16.558979361822754,11.920671216457004,4.504238324390459
-0.292,0.9628,-0.0007,-0.6575,0.0547,-0.1356,25.0862,26.2763,54.7837,-0.020225504317390185,-16.867100700639885,11.869329658351853,4.516480996288481
-0.3142,1.0369,0.0054,-0.676,0.0627,-0.1362,16.5287,20.7375,67.2088,0.28263564918557543,-16.857686196019014,11.615687960340335,4.528647576186673
-0.3175,0.9606,-0.0246,-0.676,0.0627,-0.1362,9.0125,13.055,71.4875,-1.3293656877212907,-18.26771909255524,11.488666712932659,4.540785134950047
-0.2935,0.9837,-0.0534,-0.6908,0.0724,-0.1335,7.0963,7.315,65.905,-2.9426067301780017,-16.610933057938837,10.80694568637047,4.552891195164655
-0.2517,1.0084,-0.0418,-0.6998,0.0783,-0.1327,-0.1312,6.6763,57.8375,-2.532964999503381,-14.039300608436564,10.528390386228375,4.565070869965143
-0.2094,1.0051,-0.0265,-0.6998,0.0783,-0.1327,-6.7288,2.4063,50.9513,-1.7137517377996379,-11.799247321796177,10.536058705420144,4.5744907056276585
-0.0703,1.023,-0.0909,-0.7057,0.0842,-0.1284,-11.3137,-3.9288,49.7438,-4.7277452816162855,-4.03830676240474,9.77580478065517,4.586723467869888
-0.0371,0.9801,-0.0723,-0.7057,0.0842,-0.1284,-16.3887,-5.1712,53.2788,-4.253596762345857,-2.189574910968822,9.758810902585822,4.5990153341305895
-0.5571,1.2959,0.2134,-0.7123,0.0879,-0.1238,-18.6112,-5.0225,50.6625,8.546553333866461,-22.667072313859364,11.093968209932992,4.611243141544922
-0.4547,0.8675,0.0941,-0.7153,0.0924,-0.1168,-20.1338,-7.5687,56.6912,6.318630118080528,-27.455581698646515,10.689772207707518,4.623503155340579
-0.4049,0.6324,0.0128,-0.7153,0.0924,-0.1168,-22.8812,-26.8362,81.9788,1.4031276369815682,-32.57093159111369,10.341829009461241,4.635716806103782
-0.3499,0.6111,-0.0195,-0.7178,0.0944,-0.1151,-8.365,-49.8925,81.0163,-1.3427435698166164,-29.81093440097474,9.486076525216362,4.648228454373291
-0.3231,0.6332,-0.1003,-0.7178,0.0944,-0.1151,-22.3475,-38.7275,74.97,-8.630019605740532,-26.781476984927455,8.178517135058298,4.660330621508837
-0.3766,0.7077,-0.0355,-0.7137,0.0942,-0.1046,-27.895,-28.6212,69.2475,-3.091539170975986,-27.975257246470235,8.376990976842714,4.672678760457784
-0.154,0.9017,-0.0314,-0.7118,0.0899,-0.0926,-25.4363,-31.7712,67.9525,-2.0406378954814373,-9.907749431133569,7.143140461014261,4.685009203592817
0.3892,1.521,-0.238,-0.7118,0.0899,-0.0926,-32.1825,-41.58,62.6763,-8.668473947983529,13.875736689359618,6.667922977670924,4.697250813742003
0.6631,1.8371,-0.0502,-0.695,0.0815,-0.0751,-52.7275,-30.38,34.9475,-1.7044670675837221,19.719793277200203,6.644544109703127,4.709539140839921
0.7171,1.4121,-0.1199,-0.6654,0.0677,-0.0639,-69.0988,-24.0012,-15.8725,-4.806565425548588,24.66783737910132,5.927493541400765,4.721882324960972
0.3492,0.6151,-0.0881,-0.6654,0.0677,-0.0639,-35.665,-26.425,-49.385,-8.052493106864047,29.208149906345465,5.655241379317847,4.734418039537403
0.0797,0.4229,-0.1113,-0.6341,0.0538,-0.0659,20.1863,-69.0463,-32.7687,-14.464748938124885,11.2648251186831,4.691741654660917,4.746439867677783
0.2612,0.3294,-0.4673,-0.6341,0.0538,-0.0659,47.0662,-74.2175,-15.365,-54.02508878585136,19.757768857133012,0.5654500677209122,4.758746952338449
0.18,0.4673,-0.4013,-0.6106,0.0502,-0.0777,9.5288,-67.0863,-12.5562,-41.66527130630553,17.99142913126851,2.6302143379565632,4.770985023324853
0.2388,0.8828,0.2744,-0.5894,0.0461,-0.0654,-1.0325,-62.4663,-11.7687,-4.804800595532109,15.725106502554002,7.602760141811562,4.783305202887815
0.481,1.3918,0.2004,-0.5894,0.0461,-0.0654,-25.1562,-49.0788,-13.545,7.639277355047719,15.873132275028903,7.444373638870116,4.795609810134534
0.504,1.1998,0.0394,-0.5726,0.0424,-0.0616,-53.2262,-35.945,-22.0062,1.9926119159374138,22.041512565765355,7.0172630164116585,4.807727903502603
0.3531,0.9251,0.01,-0.5642,0.0416,-0.0575,-39.8563,-23.275,-25.2087,0.6553163046502021,20.981435156136154,6.47322688992339,4.820031095084209
0.2867,0.756,-0.0073,-0.5642,0.0416,-0.0575,-31.325,-18.4188,-22.6012,-0.5124371966647034,20.788865042321603,6.361475845888335,4.832344904154163
0.2704,0.7211,-0.0516,-0.5611,0.0382,-0.0593,-0.6125,-17.99,-18.69,-2.934229071767954,20.553338027185877,6.307205397732502,4.844624383345125
0.3076,0.7488,-0.073,-0.5611,0.0382,-0.0593,1.2337,-5.9325,-22.575,-5.034546433655257,22.068590400507638,6.281620511278607,4.856761588192221
0.2686,0.8433,-0.0097,-0.5607,0.037,-0.059,5.3113,11.375,-34.3875,-1.1444355754291897,17.868142624276334,6.382353268296078,4.868990103439111
0.2372,0.9292,0.0088,-0.5607,0.0345,-0.0532,8.3212,23.8262,-41.1075,0.40229512944743395,14.444091480640825,5.742526048830273,4.881046969291039
0.1996,1.0745,0.0331,-0.5607,0.0345,-0.0532,10.4212,30.7475,-37.2137,1.6679963580509034,10.67793433848593,5.682323028336183,4.89323018325431
0.0556,1.1024,0.0454,-0.5684,0.0334,-0.0492,13.0113,31.1413,-27.5538,2.316972572728454,3.4057893751512798,5.119595421807666,4.905338013050309
-0.0113,1.1137,0.0413,-0.5684,0.0334,-0.0492,10.92,23.695,-19.95,2.1369736390781875,-0.03894485546259292,5.067281321635249,4.9175948415994615
-0.0158,1.034,0.0171,-0.5793,0.0332,-0.0482,9.9225,15.1812,-13.4575,1.0347588934722685,-0.13950221782084526,4.82319172492811,4.929770977237167
-0.0181,1.0036,-0.0118,-0.5908,0.0318,-0.0483,13.5887,10.5612,-8.8462,-0.5748329198788656,-0.8776780276862622,4.651490489729924,4.941993475907327
-0.2455,0.9648,0.0086,-0.5908,0.0318,-0.0483,9.9663,7.315,-6.2737,0.43129041567475523,-12.66552542031504,4.767344735706336,4.951306782770082
-0.1942,1.0186,0.0507,-0.596,0.0323,-0.0512,14.8312,-6.0025,-2.9225,2.7190239024286686,-10.942540629432395,5.057729916606227,4.963429830966047
-0.0669,1.0152,0.0125,-0.596,0.0323,-0.0512,6.6062,-11.5937,-11.3662,0.9007663282246188,-5.991976491675988,4.949643688271403,4.975651267887372
-0.0257,1.1473,0.0662,-0.5968,0.0317,-0.0487,5.9325,-13.16,-4.2438,3.0530897582362018,-1.736245498369004,4.835589418273682,4.987815370371616
-0.0536,1.2358,0.0612,-0.5988,0.0338,-0.0554,3.0363,-20.93,18.6112,2.867463951014983,-2.458067800641003,5.404957237301096,4.9999302784931805
-0.0179,1.0887,-0.0514,-0.5988,0.0338,-0.0554,2.2138,-32.69,36.12,-1.7615087632691697,-0.9708191323896818,5.132450135825118,5.012155962409845
0.0331,0.959,-0.0863,-0.6003,0.0399,-0.0603,2.6775,-29.75,44.9837,-4.612290970849693,1.9194949984253293,5.383865629747447,5.024338114624281
-0.1573,0.917,0.1859,-0.6003,0.0399,-0.0603,-9.8,-13.6062,40.9062,9.475187206778294,-9.336663867208127,6.345261622534169,5.036564152457223
0.0136,0.7956,0.1037,-0.6026,0.0424,-0.0628,-22.82,-14.0,25.2262,7.5232033975870465,0.7122501292708788,6.417293710416446,5.0489377733782055
0.223,0.737,-0.1462,-0.6025,0.0446,-0.0618,-21.665,-15.4875,10.4562,-10.28126945939582,15.89914858274632,5.34785115077214,5.0610725008113535
0.2596,1.0021,0.0007,-0.6025,0.0446,-0.0618,-23.3187,-4.06,9.2487,-0.43745746278212716,14.581232660716234,6.032554436744077,5.073161926960882
0.3747,0.8655,-0.0334,-0.6019,0.0459,-0.0562,-26.3725,-1.8987,12.0312,-2.1381219496524126,23.06266578342009,5.87687866087192,5.085408491937964
0.3054,0.838,-0.0068,-0.6019,0.0459,-0.0563,-2.0388,5.4775,-4.7075,-1.4706052428412768,20.330552941054872,5.821952038187718,5.097519506980468
0.226,0.8182,0.0644,-0.5998,0.0455,-0.0563,0.7875,8.855,-2.3625,3.170595382059046,15.799114299178935,5.985262078515236,5.106711066643498
0.2145,0.782,0.0497,-0.6026,0.0461,-0.0604,6.8863,1.7325,-6.3875,3.5925380154932527,15.369025178440834,6.133012403945298,5.118720861630415
0.3742,0.8708,-0.1552,-0.6026,0.0461,-0.0604,8.435,5.3463,-16.4937,-8.976970445283788,20.99176449381985,5.620818152850254,5.130824444431075
0.3614,0.85,-0.1286,-0.6089,0.0453,-0.0583,2.975,19.985,-32.1212,-8.65923179150556,22.70883182571774,5.387855270607161,5.143004473147841
0.2317,0.8775,-0.0586,-0.6089,0.0453,-0.0583,6.0637,28.4638,-45.045,-4.316022395811075,15.004643735056336,5.463775596659261,5.155128229176363
0.1282,0.8132,-0.0044,-0.6114,0.0415,-0.047,10.605,28.6825,-46.375,-0.5900017061927353,9.137722514776,4.511050586475062,5.167419033688229
0.0445,0.824,0.0709,-0.6162,0.0338,-0.0491,15.9512,22.8288,-48.2475,4.637584432830506,3.2497986576443805,4.812246595059729,5.1795601316143856
-0.0818,0.9762,0.0764,-0.6162,0.0338,-0.0491,16.1262,19.0487,-56.105,4.483197494134947,-4.59089593982964,4.784429792509982,5.1917893546938325
-0.1138,1.1113,0.1467,-0.6149,0.0267,-0.0429,14.0262,22.225,-64.925,7.348703615325569,-5.773866453118907,4.310135338511716,5.204004421122149
-0.0972,1.1939,0.1157,-0.6149,0.0267,-0.0429,9.345,19.39,-68.6175,5.674199928762927,-4.653164345805607,4.217488030355597,5.213376124170819
-0.0906,1.1905,0.0702,-0.6138,0.0206,-0.0447,3.3688,12.3725,-62.16,3.699836175688119,-4.350673138339477,4.268899786851869,5.225549074562021
-0.1385,1.2498,0.0537,-0.6106,0.0214,-0.0396,2.0038,2.4063,-20.2912,2.6775267745000026,-6.062234901024936,3.9938932273570065,5.237682032413777
-0.0272,1.0803,0.1066,-0.6106,0.0214,-0.0396,6.72,-18.9525,3.255,5.351686959143433,-1.6945537840163443,3.892652768737809,5.249755178414505
0.2227,0.7787,-0.2304,-0.6128,0.0254,-0.049,15.855,-22.3388,0.245,-15.365915171926016,14.187971176367167,3.9167188925430056,5.2618863666848705
0.3554,0.5738,-0.291,-0.6128,0.0254,-0.049,22.8812,-6.51,-20.7725,-26.458070153737363,27.1154510965267,3.6206060028944718,5.274146734396805
0.1916,0.9972,-0.2806,-0.6112,0.0241,-0.0454,-2.59,13.9562,-37.5025,-25.37141602456693,11.146651821037045,3.580873342251567,5.286350121587938
-0.1064,1.445,0.0898,-0.6162,0.0179,-0.0359,-33.3375,23.8,-26.9675,2.6416759263951217,-3.1352544438038263,3.4397912123640424,5.298647650509091
0.2086,1.2554,0.0531,-0.6162,0.0179,-0.0359,-27.475,-5.7225,-19.6,2.4305349168208745,7.632961731129348,3.4600675667631675,5.310808213830553
0.3315,1.0095,-0.2406,-0.6115,0.0234,-0.0456,34.3875,-24.8762,-12.0225,-12.989787620957348,13.794687521223793,3.8752531979157894,5.323117068072611
0.0893,0.9835,0.0644,-0.6176,0.0345,-0.0628,31.2725,-20.4575,10.0712,3.2678856438225643,5.526479238068293,5.954768586687992,5.335285063635917
-0.2003,0.7425,0.0035,-0.6176,0.0345,-0.0628,20.9037,-38.5262,20.4662,0.391910250824652,-14.508604912657134,5.93983941725413,5.347534106026947
0.3431,0.7689,-0.1803,-0.6251,0.045,-0.0774,45.7887,-47.2588,19.075,-12.922331577628503,22.353595645730287,6.746016131892816,5.359785271915647
0.2712,0.9623,-0.1671,-0.6251,0.045,-0.0774,15.0237,2.8875,-57.75,-10.014994411385342,15.669725972584017,6.691336998015234,5.371820902790878
0.1617,1.1813,-0.092,-0.6222,0.0443,-0.0762,-2.7562,20.4925,-68.11,-9.731763783500979,7.913416818250906,6.7793964551089845,5.381344789839206
0.1082,1.1717,0.0664,-0.6234,0.0434,-0.0846,1.1025,19.3113,-61.7487,0.543134134327328,5.3214076043654,7.951932828050024,5.393476332025849
0.237,1.1107,-0.0261,-0.6234,0.0434,-0.0846,28.7087,3.22,-60.0775,-1.2878379427509223,11.900315246839115,7.933496275125604,5.4056535294123895
0.2748,1.0539,-0.1896,-0.6252,0.0462,-0.0981,35.4637,9.2487,-59.2288,-9.971091040390565,14.339541352281197,8.455921050140274,5.41775286521771
0.1883,1.1805,-0.0261,-0.6252,0.0462,-0.0981,23.6863,29.7062,-70.2538,-1.5843747983541252,9.152202211316245,9.023738746692683,5.429972886473922
0.1778,1.2489,-0.1674,-0.6278,0.0518,-0.1157,20.125,31.8325,-88.2875,-7.380401308299512,8.046409174439445,9.953899329323697,5.442225114111457
0.0708,1.2452,-0.1262,-0.6291,0.0606,-0.1251,13.1162,38.4388,-88.2963,-5.881852360352539,3.301210275864118,10.719463088003613,5.454428501302589
0.025,1.2213,-0.1544,-0.6291,0.0606,-0.1251,10.6312,35.7088,-84.1663,-7.112932681819082,1.1932914318667482,10.525355825065144,5.467075699506676
-0.0371,1.2324,-0.1488,-0.6258,0.0747,-0.1398,16.94,28.3237,-87.9725,-6.895630671187897,-1.6733369525426165,11.636314060684185,5.478908182438179
-0.0273,1.2026,-0.133,-0.6258,0.0747,-0.1398,9.6337,30.7388,-101.4913,-6.35475162735469,-1.2968429728211648,11.762185495044935,5.4911887233779755
-0.0469,1.2645,-0.1562,-0.6154,0.0906,-0.1518,10.5962,24.9375,-104.86,-6.993850797882154,-2.099312121029611,12.667144187139504,5.5035542042245575
-0.0447,1.2573,-0.1305,-0.6047,0.1077,-0.1578,6.6937,22.7325,-104.1425,-6.028471372877331,-2.026081216300212,13.438384780997787,5.515769270652873
-0.0898,1.2288,-0.1516,-0.6047,0.1077,-0.1578,5.9412,19.7313,-105.9625,-6.92899565682005,-4.1256418833478286,13.19727644097877,5.528053350755452
-0.0686,1.2346,-0.1475,-0.5908,0.1286,-0.1578,7.4025,16.5637,-110.8188,-6.823393287191506,-3.167784547469612,13.300324320370914,5.540350171844049
-0.075,1.2403,-0.1209,-0.5693,0.1478,-0.1618,6.2388,16.7912,-116.9963,-5.693739137502877,-3.4414875131949008,14.184019241856596,5.5526965412116045
-0.0783,1.2387,-0.1154,-0.5693,0.1478,-0.1618,4.0687,16.835,-124.74,-5.3702163387211845,-3.5999567253954234,14.290466876386581,5.564940628774739
-0.1093,1.253,-0.101,-0.5569,0.1658,-0.1594,1.6712,16.9137,-133.7612,-4.75020794982161,-4.957990914877776,14.318354341253258,5.577172329268134
-0.1132,1.2348,-0.1107,-0.5569,0.1658,-0.1594,-3.2813,17.2637,-147.5075,-4.886825844991015,-5.2152081249895135,14.162217777851549,5.589506311565949
-0.118,1.2232,-0.115,-0.533,0.1818,-0.1537,-10.3687,16.205,-150.325,-5.3150555634800885,-5.4841637541466,13.924024020794075,5.601911784951976
-0.1734,1.2082,-0.087,-0.5076,0.1987,-0.149,-14.2625,18.3137,-151.8562,-4.213898745603108,-8.127352059595188,14.156983748544844,5.614310180012437
-0.2117,1.1552,-0.0592,-0.5076,0.1987,-0.149,-15.1375,16.485,-153.4138,-3.0289367909053246,-10.3554496649158,14.47094193703788,5.62664062314747
-0.21,1.1313,-0.0818,-0.4834,0.2118,-0.1386,-16.6338,15.6187,-151.2787,-4.061522534905024,-10.488220243500693,13.481361914339544,5.639106616217081
-0.2388,1.0844,-0.0562,-0.4586,0.2245,-0.1368,-22.2337,19.4075,-148.4525,-3.020073227732516,-12.388886944747654,14.06979807894011,5.651435997603279
-0.3263,1.0992,-0.0897,-0.4586,0.2245,-0.1368,-24.1937,18.865,-148.3125,-4.5921245172168845,-16.451681231556364,13.17626278740326,5.663840055324193
-0.3734,1.0034,-0.07,-0.4369,0.235,-0.1327,-36.2075,18.305,-141.4175,-4.008080370132592,-20.336171539099404,13.205546800235368,5.6762172154079575
-0.544,0.9978,-0.0405,-0.4369,0.235,-0.1327,-32.1388,10.8325,-135.1788,-2.379640399779013,-28.51213339199585,13.804365400112832,5.691290863615885
-0.4348,0.9569,-0.0969,-0.4114,0.2418,-0.125,-36.3563,10.3075,-129.36,-5.6841265917548,-24.362239849001003,11.983620221825117,5.703754025355271
-0.4567,0.9148,-0.0485,-0.3887,0.2454,-0.1225,-41.335,14.1225,-132.8687,-3.101659169782713,-26.480089236419662,13.269886917838814,5.716142156843662
-0.4928,0.9479,-0.0618,-0.3887,0.2454,-0.1225,-41.0025,13.5275,-135.0037,-3.7142254713289184,-27.411916558281675,12.991093056845507,5.728477554806591
-0.5157,0.9124,-0.0209,-0.3638,0.2496,-0.1104,-43.155,13.7987,-129.0275,-1.3701691193176473,-29.45157547115109,13.331291880199672,5.740875595950773
-0.585,0.8802,-0.0017,-0.3428,0.2512,-0.1146,-40.1888,10.01,-122.5963,-0.14338595232563378,-33.57103204926819,14.870839781360477,5.753292394657705
-0.5891,0.7901,-0.0332,-0.3428,0.2512,-0.1146,-41.7375,3.9725,-115.2375,-2.349633228313005,-36.653735082157354,13.962704882986928,5.7656086811416065
-0.6095,0.7797,-0.0255,-0.3226,0.2515,-0.111,-42.2013,4.5237,-115.325,-1.884948829561037,-37.98716158463693,14.01183548358126,5.778206331066736
-0.6449,0.8011,0.0006,-0.305,0.252,-0.1066,-41.0288,4.5325,-113.61,-0.006109429771045417,-38.826296354119805,14.867893387618901,5.790195244993235
-0.6274,0.7828,-0.0126,-0.305,0.252,-0.1066,-39.0163,3.2638,-109.1825,-0.8976071204389711,-38.70914582061262,14.607002759480991,5.802533120370112
-0.6485,0.763,-0.0247,-0.2879,0.2515,-0.1022,-36.47,2.8963,-108.4475,-1.8266313671184884,-40.33045763368059,14.040035891443589,5.814879489737667
-0.6539,0.7696,-0.0439,-0.2879,0.2515,-0.1022,-36.2163,2.5725,-111.8075,-3.2230950205252333,-40.30761409800593,13.28246950221476,5.827221966026161
-0.6652,0.7557,-0.0409,-0.2708,0.2526,-0.0982,-38.885,3.6488,-116.9,-3.1013060345660985,-41.30443533100543,12.884950843679958,5.839501799133401
-0.7058,0.7428,0.0117,-0.2517,0.2551,-0.0939,-39.9875,4.6988,-120.7413,0.7978267579942173,-43.51271640989634,14.81337287481773,5.851858432073026
-0.6853,0.6534,-0.0493,-0.2517,0.2551,-0.0939,-37.4762,-2.8875,-119.8313,-4.171957836596587,-46.25797991737193,12.255310432691276,5.86421931200799
-0.7591,0.6126,0.0091,-0.2354,0.2578,-0.0933,-31.7625,-3.7713,-120.0938,0.6839503937672634,-51.048115203149095,15.034346441188509,5.876564973542989
-0.7889,0.5813,0.0036,-0.2198,0.2606,-0.0875,-26.7225,-7.595,-117.0925,0.36798347317336355,-53.59031304332855,14.732468666526911,5.888835250910716
-0.7233,0.5237,0.0314,-0.2198,0.2606,-0.0875,-23.7213,-6.4837,-117.1188,3.2921121043648034,-54.04066345724469,16.787026171529988,5.901210995329367
-0.6911,0.4972,-0.0502,-0.204,0.2649,-0.0846,-21.07,-6.685,-124.1888,-5.297689743986581,-54.12887019909665,10.438636578764653,5.913572583096888
-0.7029,0.4589,-0.0564,-0.204,0.2649,-0.0846,-18.55,-7.6737,-132.0725,-6.905224206094672,-56.64270309588163,8.816528234248924,5.925969562492236
-0.7929,0.4994,0.0314,-0.1857,0.2683,-0.0846,-14.4375,-2.5463,-136.5262,2.7730252251299063,-57.73575791428081,15.581283548024851,5.938311684864452
-0.7947,0.5009,0.0612,-0.1677,0.2769,-0.083,-15.1462,-5.11,-134.89,6.65399415338602,-57.58618109671589,19.637321580982555,5.950794311999142
-0.7752,0.4613,0.0781,-0.1677,0.2769,-0.083,-16.205,-5.425,-129.8762,9.40551188503216,-58.87622257314188,22.148237913235917,5.962949920492709
-0.8027,0.4831,0.0862,-0.1523,0.2839,-0.0845,-14.2975,-7.8925,-125.0725,10.06039250977127,-58.563304144342695,23.410719947176208,5.977988884905365
-0.8043,0.4366,0.0903,-0.1407,0.2909,-0.0808,-9.0913,-10.1587,-115.5963,11.465525233856438,-60.975824324111585,24.400791884590713,5.990261993603317
-0.6689,0.3575,0.0354,-0.1407,0.2909,-0.0808,-10.6837,-13.8337,-107.5463,6.3020123370614805,-61.75266899003389,19.45614491014686,6.002751345147295
-0.6634,0.3498,0.0725,-0.1288,0.2977,-0.0774,-15.7937,-9.8087,-109.1475,11.325664060094892,-61.69854933066693,23.744237616719506,6.0150736482079274
-0.7132,0.3782,0.0539,-0.1162,0.3042,-0.0786,-26.1712,-1.7587,-117.0925,8.242391275250872,-61.82331916338266,21.914892858188708,6.027656433649369
-0.7508,0.4058,0.0902,-0.1162,0.3042,-0.0786,-36.9687,9.7212,-108.115,12.410168089059665,-61.03585696884322,25.005596830909106,6.039657734645608
-0.7559,0.3573,0.077,-0.1055,0.3089,-0.0752,-36.5838,7.0963,-95.8563,12.168670756851588,-64.15675016611804,24.606762069878705,6.051882710729716
-0.746,0.3286,0.0627,-0.1055,0.3089,-0.0752,-37.2837,8.365,-88.5938,10.841114649410233,-65.82488715246015,23.382888287813074,6.064102024153371
-0.7846,0.3095,0.0823,-0.0967,0.315,-0.074,-39.5325,12.0575,-87.1413,14.784024696101811,-67.76942292824522,26.590743870729774,6.076399199158246
-0.7965,0.3118,0.0285,-0.0885,0.3182,-0.071,-45.5088,12.7225,-83.37,5.4408601770008564,-68.52958654167742,17.96904316780844,6.088569672135499
-0.8242,0.2694,0.0564,-0.0885,0.3182,-0.071,-50.4087,18.4888,-75.8975,11.693270512532804,-71.48587757268724,23.210093987301526,6.10086366189387
-0.8533,0.2381,0.0262,-0.0826,0.3171,-0.0686,-53.5675,21.9975,-70.9625,6.383821564531799,-74.27103399022745,18.13755610914994,6.113153050740623
-0.9167,0.2386,0.0082,-0.0826,0.3171,-0.0686,-53.5325,21.4463,-68.215,2.053509611163005,-75.38209364767755,13.933676450144077,6.125430406433916
-0.9891,0.2,0.0344,-0.077,0.3247,-0.0702,-52.3862,23.065,-56.6825,9.607342679441983,-78.33677660144096,21.058703836389476,6.1376939593923545
-1.0106,0.1649,-0.0068,-0.0744,0.3245,-0.0649,-47.4513,16.0475,-54.6437,-2.099756242234448,-80.6681614091918,9.511179677790825,6.150063687234276
-0.9956,0.1551,0.0059,-0.0744,0.3245,-0.0649,-45.6225,13.7637,-52.4125,2.0810697613618663,-81.12719692341643,12.920957570305509,6.162283000657931
-0.9825,0.1447,-0.0016,-0.0682,0.327,-0.0626,-40.6525,8.925,-49.3675,-0.5638200992079718,-81.60791565673966,10.336097257625989,6.174575574751189
-1.0306,0.1238,0.0299,-0.0662,0.3283,-0.0613,-30.9487,3.92,-43.7238,13.094430615119181,-82.9119360732137,20.357467877137083,6.184158919734266
-0.99,0.0686,-0.0138,-0.0662,0.3283,-0.0613,-23.5112,-1.2775,-39.9,-10.252198267748732,-85.84547871263325,5.72666990480016,6.196575364524919
-0.972,0.0639,0.0034,-0.062,0.3292,-0.0588,-20.1863,-2.1963,-41.4313,2.3262910519103714,-86.21998658218429,11.285762366186468,6.208682486488362
-0.9701,0.075,-0.002,-0.062,0.3292,-0.0588,-19.6,-1.7237,-46.0513,-1.3121978404132244,-85.59679949649687,9.257044481438108,6.223733837970758
-0.9665,0.103,0.0088,-0.0582,0.3329,-0.0592,-15.5312,-3.78,-49.8225,4.435294758131535,-83.94066237546647,13.818671255874575,6.2360787916732
-0.9428,0.1125,0.0362,-0.0538,0.3364,-0.0562,-3.3075,-10.1062,-43.8462,9.48681229072216,-82.88992608426211,25.899740796668432,6.245553838275126
-0.8556,0.1188,0.0437,-0.0538,0.3364,-0.0562,-1.3825,-10.7537,-40.9325,15.57994206849614,-81.63044129139813,29.02834792357563,6.2578336713823655
-0.8469,0.129,0.0491,-0.0533,0.336,-0.0582,-2.1613,-7.84,-40.2412,17.426371798652646,-80.77537489526513,30.136422223060535,6.270074219782717
-0.843,0.1494,0.0627,-0.0501,0.3398,-0.0554,-4.06,-4.7688,-39.8913,20.5014403398864,-79.18111316624797,31.43291377245671,6.282321846508634
-0.8367,0.1776,0.0655,-0.0501,0.3398,-0.0554,-6.8075,-2.5725,-37.6162,20.29466458059767,-77.32920474608581,29.696602553586377,6.2945425755974025
-0.8354,0.1958,0.0772,-0.0458,0.343,-0.0542,-10.2375,-1.12,-33.2938,21.374950058339863,-75.9302675522829,30.11880778832419,6.306779230918693
-0.845,0.1809,0.0928,-0.0458,0.343,-0.0542,-14.6387,0.9538,-27.9562,26.71039849943704,-76.43608746047732,30.19963525977942,6.319004560919079
-0.8449,0.1439,0.0915,-0.0443,0.3426,-0.0484,-20.0462,3.9288,-23.3187,32.13765231678396,-78.38846202406376,37.608968767646545,6.331252541561274
-0.8394,0.1343,0.0717,-0.0455,0.3392,-0.0518,-24.5088,6.5188,-20.3612,28.274018948171577,-79.54862197529474,36.594711860346344,6.343484949887225
-0.8373,0.0965,0.0637,-0.0455,0.3392,-0.0518,-33.53,16.0212,-16.975,33.266982003078,-81.54644186386885,41.36900485175708,6.355770445654917
-0.965,0.1326,0.0838,-0.045,0.3398,-0.0522,-31.4125,16.0037,-8.1462,32.32471852950503,-80.88816934242654,40.6542205008365,6.367902695674117
-0.9689,0.1028,0.0902,-0.045,0.3398,-0.0522,-23.7125,11.4712,6.0637,40.858566103030405,-81.9135072994196,48.70931631794183,6.380084140055997
-0.964,0.0567,0.0703,-0.0478,0.3392,-0.0522,-12.39,5.565,17.745,50.152898427302745,-84.56310516060364,57.43128220399796,6.392261337442537
-0.9562,0.0182,0.0364,-0.0522,0.3327,-0.0511,-8.1025,4.62,23.1087,61.35961450495405,-87.4833636801047,68.72925827430575,6.404353948838571
-0.936,-0.0221,0.0354,-0.0522,0.3327,-0.0511,-9.0125,8.295,21.42,113.68393504109775,-87.44813024022466,122.97484441263387,6.416523006150712
-0.9375,0.016,0.0252,-0.0542,0.33,-0.0494,-7.2975,9.87,16.1525,67.61390835692902,-88.1526176828772,71.61185377585112,6.428629066365319
-0.9655,0.0516,0.0287,-0.0542,0.33,-0.0494,0.4112,11.1212,15.8375,38.449295791030515,-86.55476529975107,40.37979365501886,6.437982719683798
-0.977,0.0795,0.036,-0.0577,0.3246,-0.0581,11.4537,10.2725,21.455,25.29189461741096,-84.94159249994634,34.72304342682937,6.45025370488408
-0.9759,0.0876,0.017,-0.0626,0.3238,-0.0559,22.7675,7.8575,28.8838,11.523118654917084,-84.77933904453359,22.309041179113613,6.462245804057084
-1.0423,0.1071,0.0206,-0.0626,0.3238,-0.0559,32.2262,5.8713,33.6525,10.905202032897254,-84.04208368774849,20.71343745227909,6.474318242225256
-0.9455,0.1025,-0.0229,-0.0707,0.3219,-0.0598,40.565,4.3313,35.315,-12.063053732218815,-83.66914574949284,3.1795775638480404,6.486534016486129
-0.9467,0.1116,-0.0286,-0.0707,0.3219,-0.0598,61.5125,6.4225,30.0212,-14.33854757221796,-83.07525780840504,2.700960917254359,6.4984755056313395
-1.0086,0.1609,-0.0076,-0.0752,0.32,-0.0675,70.9275,7.1575,24.4913,-2.86020851360063,-80.98113759174352,7.366238459156612,6.510700481715447
-0.9633,0.1665,-0.0608,-0.0796,0.3191,-0.0738,82.4075,5.6438,19.425,-19.86068542785129,-79.61518348255994,4.345008074961542,6.5228790947671005
-1.0463,0.2447,-0.0678,-0.0796,0.3191,-0.0738,93.3538,7.1838,15.9425,-15.531734307717988,-76.46563914078054,2.6650405213213544,6.535134507651139
-1.0633,0.2631,-0.075,-0.0828,0.3219,-0.0833,104.7988,6.4313,15.5662,-15.907380833734234,-75.60074539362952,1.5626298193458863,6.547341787921333
-1.0415,0.2562,-0.1166,-0.0828,0.3219,-0.0833,120.61,5.4163,16.3362,-24.40202091288897,-74.89948102969029,8.1782925407386,6.556378332254479
-1.0466,0.2433,-0.1468,-0.0894,0.3228,-0.0919,138.215,4.165,15.365,-31.05829940978546,-74.81308089900976,13.138325025532206,6.568565085380533
-1.025,0.2328,-0.1708,-0.0934,0.3313,-0.1101,154.63,3.6663,11.7163,-36.23374441344168,-74.28853283260707,16.142998755120892,6.64325274541705
-0.9753,0.2347,-0.2904,-0.0934,0.3313,-0.1101,173.2062,4.6463,4.13,-50.971230164779165,-69.33081880504105,28.1976125163735,6.647787828606841
-1.0311,0.2984,-0.3127,-0.0931,0.3418,-0.1277,185.4562,6.0462,-10.36,-46.3649816274736,-67.74666543970805,25.656366522696192,6.652607460484363
-1.0716,0.36,-0.3323,-0.0931,0.3418,-0.1277,203.735,11.5937,-33.845,-42.72635472368434,-65.53971184361822,22.085623344616593,6.6572572125483145
-1.0671,0.3834,-0.3544,-0.094,0.3574,-0.1486,216.3262,10.745,-33.8888,-42.748984907853554,-64.00427165498978,20.150967570036347,6.6618949314588045
-1.1631,0.3783,-0.4053,-0.0929,0.3743,-0.1624,236.3375,7.3675,-32.865,-46.95582411727633,-64.4889965367383,22.891838295302275,6.666454080955518
-1.1128,0.3681,-0.4967,-0.0929,0.3743,-0.1624,251.6062,3.4913,-34.8862,-53.432712497897676,-61.104061144453915,27.952145537188795,6.668877345712853
-1.0805,0.3637,-0.5266,-0.0922,0.3942,-0.177,259.5513,3.1763,-41.9212,-55.361474085123234,-59.420835249466286,30.39981024307801,6.670947402024472
-1.0785,0.3822,-0.5524,-0.0916,0.4219,-0.199,265.44,2.38,-49.3763,-55.321180462308504,-58.12012171178277,30.67100041732517,6.678766828276637
-1.0676,0.3902,-0.5677,-0.0916,0.4219,-0.199,279.2825,1.47,-50.7675,-55.49727802248305,-57.192842576289976,30.84145368504992,6.6910558632071115
-1.0233,0.3856,-0.6209,-0.0908,0.4494,-0.215,286.1863,-0.2187,-52.57,-58.14913432136301,-54.531922400786385,32.68315030942361,6.704108295549822
-1.0473,0.4516,-0.6274,-0.0908,0.4494,-0.215,286.5713,3.045,-69.1338,-54.26723138991502,-53.585421514704215,31.227366714971723,6.71635769185713
-1.0608,0.4616,-0.6128,-0.087,0.4814,-0.228,285.7488,5.3463,-74.2175,-53.0149532349967,-54.115695835103104,30.00170514237716,6.728654159029449
-1.1079,0.6165,-0.5201,-0.0862,0.5134,-0.239,281.1988,4.0687,-71.365,-40.197245873251944,-53.94722062924577,19.99195676266111,6.7409148806576615
-1.0055,0.6521,-0.5029,-0.0862,0.5134,-0.239,276.5438,-1.0325,-64.5488,-37.64856293913457,-50.74570327591744,16.300750037986475,6.753257710862434
-1.039,0.68,-0.4132,-0.0831,0.5462,-0.2474,267.3388,-6.4138,-56.9012,-31.308313597268263,-52.51321216531037,8.86653284284431,6.764849530724711
-0.9239,0.6797,-0.4071,-0.0854,0.5741,-0.2475,250.6262,-9.2575,-49.3325,-30.92063886904783,-49.470437934412075,8.92510575657406,6.777127948166838
-0.8495,0.7597,-0.2941,-0.0854,0.5741,-0.2475,224.3762,-7.8838,-46.2262,-21.205523902593033,-46.297271084076286,1.4692443838293716,6.78941344393453
-0.8359,0.8089,-0.2496,-0.0813,0.5953,-0.249,193.3488,-3.9638,-43.8638,-17.169098068142645,-44.69093720844531,6.0579861947321225,6.801729730418432
-0.7541,0.8367,-0.1977,-0.0813,0.5953,-0.249,127.7763,4.2613,-22.3738,-13.323795897795584,-41.606196069176974,10.896837916461639,6.814044247320942
-0.7186,0.8473,-0.1595,-0.084,0.6096,-0.2513,88.305,11.34,-11.62,-10.689828419289247,-40.41399074119113,15.26466255404166,6.827086770007861
-0.7424,0.8012,-0.1435,-0.0829,0.6121,-0.2522,48.4575,19.1275,1.8725,-10.164635679839735,-42.24916356061543,15.734810374413472,6.839554178742586
-0.8147,0.7517,-0.1349,-0.0829,0.6121,-0.2522,11.6375,23.94,16.275,-10.173385917486575,-46.701274102904684,14.879165430982718,6.851526104687728
-0.7946,0.6975,-0.156,-0.0834,0.6066,-0.2513,-21.735,26.2763,28.4638,-12.485576077938495,-47.99819725506211,11.988336142746055,6.863793550725228
-0.7779,0.6667,-0.1942,-0.087,0.5955,-0.2553,-52.0363,27.8162,38.57,-16.165480197018777,-48.241010263931244,8.445419423165243,6.8760287903814055
-0.7507,0.6276,-0.2155,-0.087,0.5955,-0.2553,-80.7888,30.7213,47.075,-18.915793188374327,-48.520896506940474,5.180252668550801,6.888326319302559
-0.8267,0.5758,-0.2586,-0.0946,0.5782,-0.2585,-108.08,32.5062,53.5763,-24.135990950110912,-52.57702971994902,0.05280271891551746,6.900705956800271
-0.8971,0.5366,-0.2977,-0.0946,0.5782,-0.2585,-133.9712,34.7638,70.8663,-28.984116687329184,-55.590779961681406,5.2604864873876185,6.913006317051651
-0.9404,0.476,-0.3001,-0.0971,0.5542,-0.2626,-165.76,30.4325,80.9375,-32.210096608194235,-59.06830912969037,7.243628560568982,6.925269516093812
-0.958,0.432,-0.3098,-0.1008,0.527,-0.2566,-171.7975,24.1588,88.3663,-35.62523175852791,-60.955270166488766,9.971238488217724,6.937644906596185
-0.863,0.3373,-0.3463,-0.1008,0.527,-0.2566,-177.975,21.5163,93.9838,-45.69682687815959,-60.74603889088401,20.025595858281815,6.9499721644847146
-0.8066,0.3198,-0.3733,-0.1066,0.4994,-0.2465,-184.5812,22.4175,93.8875,-49.393551456591354,-58.6606741535294,23.775810478148216,6.96231428685693
-0.8042,0.274,-0.3864,-0.1141,0.4704,-0.251,-189.525,27.3,90.7025,-54.63114037665678,-59.49314634962016,26.85170732675464,6.974639067331511
-0.7984,0.2339,-0.3721,-0.1141,0.4704,-0.251,-181.9825,29.82,89.915,-57.82892202194673,-61.1517879071742,29.787089548024657,6.989637685288444
-0.9744,0.2102,-0.3464,-0.1206,0.4463,-0.2401,-168.91,29.3825,92.61,-58.74457312919988,-67.36237220019547,29.752427651361522,7.002042804758192
-1.0218,0.223,-0.3293,-0.1206,0.4463,-0.2401,-151.1737,29.1637,106.1375,-55.91344507573334,-68.72177214764831,27.037099385737754,7.01445429472095
-1.0289,0.241,-0.2669,-0.1315,0.4226,-0.2348,-142.8787,28.105,105.77,-47.975854779347806,-70.71847171297928,18.518331274902447,7.026768811623461
-0.9765,0.2982,-0.2757,-0.1399,0.3994,-0.2267,-137.13,26.6437,101.36,-42.79339588819737,-67.44633929912871,12.864848846092558,7.039199059148967
-0.9518,0.4564,-0.2528,-0.1399,0.3994,-0.2267,-132.9738,27.755,103.7575,-29.087284525048915,-61.32250175847227,0.09963088309686155,7.051736543306789
-0.8609,0.4994,-0.306,-0.1549,0.3768,-0.2196,-127.8813,26.3638,114.5025,-31.478171574843575,-55.81450761343999,1.1803586292806243,7.06398947877688
-0.82,0.4851,-0.3027,-0.1696,0.3559,-0.2112,-124.32,27.09,126.105,-31.959997390164506,-55.11651849867414,1.2105500610050435,7.076388935586176
-0.6823,0.4977,-0.2422,-0.1696,0.3559,-0.2112,-122.4913,27.3,133.49,-25.999101423553935,-50.9780709370521,4.362573450509293,7.089034010292593
-0.768,0.7576,-0.1318,-0.185,0.335,-0.2026,-128.1613,30.7912,142.9225,-9.996550833608868,-45.00168118793244,19.58360468797118,7.101333662711417
-0.7097,0.7452,-0.1644,-0.2072,0.3149,-0.1906,-140.5688,37.1963,153.5625,-12.423254009307286,-42.93516611160632,16.980723294155343,7.113527140246758
-0.5754,0.7297,-0.2245,-0.2072,0.3149,-0.1906,-147.4375,47.0575,168.1138,-17.068975545006875,-37.03705346502672,13.331026163976219,7.125914209986314
-0.6537,0.728,-0.1062,-0.2322,0.2908,-0.1794,-148.3475,59.325,180.1187,-8.359513027352657,-41.59866225095073,19.43563535856998,7.138430459167441
-0.6201,0.7284,-0.1494,-0.2322,0.2908,-0.1794,-145.285,64.4088,187.355,-11.568507880218121,-39.83542227908363,17.031650887268327,7.151371761798773
-0.604,0.738,-0.1224,-0.2614,0.2726,-0.1734,-146.755,73.2113,188.3525,-9.431825943684768,-38.92188778577717,17.94680075895529,7.165766244668694
-0.6059,0.8963,-0.0988,-0.2922,0.2534,-0.1518,-151.5412,82.915,182.4462,-6.3113379669526415,-33.92388737425261,17.431116301409542,7.178242855226654
-0.5358,0.9404,-0.1317,-0.2922,0.2534,-0.1518,-167.8162,91.0963,186.1212,-7.962241047468977,-29.45628027649197,16.538687769270485,7.190558079961721
-0.4357,0.9018,-0.1626,-0.3247,0.2383,-0.1339,-178.3687,98.8313,190.7325,-10.20817289743152,-25.449653753058602,12.526515951359913,7.202955059357069
-0.3567,0.8849,-0.2038,-0.3572,0.2251,-0.114,-184.8525,105.0,188.8338,-12.954474428591547,-21.46523796964505,8.209203509981334,7.215400171366262
-0.5729,1.0309,-0.0236,-0.3572,0.2251,-0.114,-182.945,107.3188,186.4625,-1.3756615458780501,-29.018027952612805,14.375096254234377,7.227862271356813
-0.5899,1.0428,0.0394,-0.3915,0.2158,-0.0925,-175.735,100.3975,191.4062,2.143433252241668,-29.476596013157767,12.746729555489445,7.240196961487185
-0.4605,0.9812,-0.0394,-0.4268,0.2095,-0.0675,-172.5587,87.1588,198.4325,-2.2734678591346813,-25.14444330751935,7.129078118724589,7.252609159282499
-0.3492,0.934,-0.0863,-0.4268,0.2095,-0.0675,-170.8087,86.94,185.36,-5.261269447381355,-20.44342315349526,5.779470990269473,7.265029143235934
-0.3143,1.0136,0.0414,-0.4559,0.2051,-0.0473,-166.9412,85.05,174.8338,2.2929230128630578,-17.231311149882217,6.397839100206767,7.27734684538495
-0.2274,0.9914,-0.0068,-0.4559,0.2051,-0.0473,-161.3237,81.1738,172.4187,-0.3761580947166887,-12.941387612164124,5.360409450372051,7.289695692166453
-0.098,1.0111,0.0037,-0.4858,0.2059,-0.019,-158.2263,82.6088,169.5925,0.20592342601650138,-5.576220697257545,2.284837569657719,7.302056572101417
-0.2028,1.0615,0.1449,-0.5145,0.212,-0.0032,-153.895,81.9,160.4662,7.723393302409,-10.689594348816554,3.333964545732607,7.313818625693544
-0.2519,1.0566,0.2013,-0.5145,0.212,-0.0032,-148.6975,77.945,153.0988,10.765702030061309,-13.165916970124425,4.450959399431938,7.326138451340229
-0.1574,0.9938,0.1771,-0.5358,0.2174,0.0209,-147.0787,72.205,146.265,10.108866608918625,-8.889259189383823,1.8240488178374135,7.339190883682938
-0.0913,0.9719,0.1493,-0.5538,0.2241,0.0396,-144.2175,69.0025,118.895,8.742966960929763,-5.331587471491726,0.478043666732882,7.351306499637059
-0.029,0.9544,0.1476,-0.5538,0.2241,0.0396,-141.0937,70.1138,107.1525,8.79092199816236,-1.749660180140213,0.49908560646300426,7.363537138381619
-0.0017,0.9954,0.1624,-0.5707,0.2306,0.0601,-138.6437,68.6963,100.0038,9.262723477482954,-0.11100103914690311,2.1994148876902617,7.375821926316755
-0.047,0.9875,0.2012,-0.5707,0.2306,0.0601,-134.8725,64.6538,97.1688,11.499282132605165,-2.6472572411138517,1.281252542573996,7.388045132819471
-0.067,0.9656,0.2079,-0.585,0.2393,0.0785,-131.8013,54.8538,95.375,12.145659995262562,-3.8693545606723996,2.4917812049777766,7.400458038447342
-0.0922,0.9363,0.1829,-0.5977,0.2478,0.0955,-128.8087,43.8638,92.4963,11.061756073229555,-5.504848117436979,4.222520482609968,7.4124696030156505
-0.0356,0.8508,0.1731,-0.5977,0.2478,0.0955,-124.6438,34.3263,89.005,11.496613883935268,-2.378451826623344,4.158357726244281,7.424697410429984
-0.0326,0.8251,0.1285,-0.6114,0.2577,0.112,-120.3125,20.965,82.3988,8.874355894778928,-2.237149757692702,6.405340822252806,7.436896196709499
-0.1107,0.7973,0.1402,-0.6114,0.2577,0.1325,-112.8925,8.1812,77.9363,9.963248148554195,-7.72667226199082,7.457516714075348,7.4490376485519345
-0.1816,0.7494,0.1894,-0.618,0.2698,0.1244,-103.075,-5.1887,72.205,14.142029717045151,-13.157985956500513,5.051936098618223,7.461271826459277
-0.1656,0.6482,0.0878,-0.631,0.2773,0.125,-70.7963,-53.5937,65.9575,7.8069167307700456,-14.193760218830661,7.188262677088738,7.473506358282898
-0.1793,0.6273,0.0921,-0.631,0.2773,0.125,-49.0525,-72.1963,57.855,8.340953279366179,-15.768670728827342,6.926789506476983,7.485696650571734
-0.2005,0.6105,0.1215,-0.6402,0.2842,0.1238,-29.19,-89.6438,39.9,11.149735707483748,-17.815608596001336,5.381893600116209,7.497890482023354
-0.2439,0.6606,0.1526,-0.6452,0.287,0.1111,-7.9187,-110.7575,14.7175,12.708459007610392,-19.718300771019198,3.5336717631398455,7.510131030423706
-0.2019,0.6926,0.1035,-0.6452,0.287,0.1111,11.48,-132.3525,-10.8325,8.776452639621136,-17.049217526015347,5.466026387626565,7.522427851512302
-0.1593,0.7726,0.0453,-0.6442,0.2836,0.0968,30.1875,-152.0137,-29.7675,3.5155466768904162,-11.94644785140009,6.616425559603075,7.534715824693943
-0.1125,0.7785,0.0187,-0.6442,0.2836,0.0968,47.1012,-170.975,-42.5075,1.4181253926511694,-8.345034005058308,7.547868747928707,7.546946463438502
-0.0549,0.8175,-0.0378,-0.6446,0.2826,0.0764,61.0488,-191.6337,-55.6237,-2.5846005734905635,-3.942641462688918,7.689979474234276,7.559296018052562
-0.0807,0.8832,-0.0367,-0.635,0.2787,0.0508,80.3688,-209.16,-85.3825,-2.38190793190643,-5.198774836128015,5.425941301364686,7.571638848257335
0.18,1.0035,-0.2038,-0.635,0.2787,0.0508,87.2113,-240.4325,-94.2463,-11.379946751213232,9.784037696226644,10.267610214550725,7.583890721978591
0.2303,0.998,-0.2061,-0.6226,0.2752,0.0225,87.9288,-246.925,-99.68,-11.665148366332827,12.70063454555836,8.065495611730128,7.59622187294618
0.3196,1.0148,-0.2862,-0.6226,0.2752,-0.0004,87.885,-256.4975,-100.0563,-15.705233951423722,16.815246686343595,8.14891192220749,7.608534974183577
0.3825,1.0363,-0.3055,-0.6118,0.2699,-0.0004,94.7275,-264.9325,-94.8063,-16.418136743339325,19.463291427703926,8.801562711175603,7.620898685448768
0.3193,1.109,-0.2686,-0.5965,0.2686,-0.0268,98.7,-277.2613,-84.0963,-13.642244001077918,15.686599466668603,4.248919830599814,7.633246470481437
0.3332,1.1166,-0.2645,-0.5965,0.2686,-0.0268,101.85,-284.2788,-67.8825,-13.329567638334073,16.18259771922219,4.114251022019864,7.645637079383776
