AcclX,AcclY,AcclZ,MagX,MagY,MagZ,GyroX,GyroY,GyroZ,Roll,Pitch,Yaw,Time(s)
-0.2885,0.936,0.0523,-0.5245,0.1001,-0.0896,-2.625,0.875,-15.4263,0,0,0,1.6209609747137437
-0.2862,0.947,0.0012,-0.5223,0.1006,-0.09,-2.7125,0.8138,-15.05,0,0,0,1.6334446635972688
-0.2921,0.9553,0.0301,-0.5223,0.1006,-0.09,-2.5463,1.8375,-14.1225,0,0,0,1.6452937805938503
-0.2719,0.9634,0.0229,-0.5236,0.1017,-0.0901,-2.5463,1.8375,-13.1425,0,0,0,1.6574755788920084
-0.268,0.9662,0.02,-0.5236,0.1017,-0.0901,-2.7825,0.4812,-13.1425,0,0,0,1.6695876556833469
-0.2638,0.9518,0.0373,-0.5236,0.1018,-0.0885,-3.605,0.91,-13.2475,0,0,0,1.6817687461489486
-0.2632,0.9754,0.0335,-0.5236,0.1018,-0.0885,-2.38,1.155,-15.1988,0,0,0,1.6939540836098894
-0.2603,0.9671,0.0242,-0.523,0.1005,-0.0925,-2.66,1.7413,-14.875,0,0,0,1.7061167704290208
-0.2788,0.9573,0.0257,-0.5242,0.0994,-0.0903,-2.66,1.085,-15.4525,0,0,0,1.7183236967829365
-0.275,0.9613,0.0262,-0.5242,0.0994,-0.0903,-2.555,1.505,-16.1175,0,0,0,1.7304354196579965
-0.2897,0.9498,0.0324,-0.5243,0.0998,-0.0893,-3.0888,1.1725,-14.8137,0,0,0,1.7398874617018347
-0.2852,0.9336,0.0378,-0.5243,0.0998,-0.0893,-2.7037,0.8838,-13.825,0,0,0,1.7520441319442355
-0.2679,0.957,0.0304,-0.5229,0.103,-0.097,-1.3212,0.3325,-13.3175,0,0,0,1.7642046952656973
-0.2725,0.9578,0.0261,-0.5235,0.1017,-0.0898,-1.925,0.9713,-11.8475,0,0,0,1.7763882631452468
-0.3277,0.9814,0.0731,-0.5235,0.1017,-0.0898,-2.2838,0.7613,-12.5387,0,0,0,1.7884883067831239
-0.3003,0.9571,0.0248,-0.5227,0.1002,-0.0869,-4.6725,-1.0412,-13.1337,0,0,0,1.8007182376951274
-0.3247,0.9416,0.0253,-0.5227,0.1002,-0.0869,-4.3488,-3.4475,-14.5775,0,0,0,1.8129495842722436
-0.2929,0.9195,0.0006,-0.5244,0.0984,-0.0842,-3.0713,-5.5913,-15.5137,0,0,0,1.8251865935098124
-0.294,0.9523,0.0141,-0.5234,0.099,-0.09,-0.945,-6.7463,-13.545,0,0,0,1.8373453872498828
-0.2179,0.96,0.0045,-0.5234,0.099,-0.09,-1.6625,-5.3463,-13.2388,0,0,0,1.849586643482791
-0.2147,0.9994,0.0233,-0.5228,0.0982,-0.0883,-2.3888,-2.03,-12.565,0,0,0,1.8618799254086051
-0.2209,0.9675,0.0267,-0.5258,0.0989,-0.0872,-4.0075,-0.3675,-11.3925,0,0,0,1.8740610158742068
-0.2145,0.969,0.0106,-0.5258,0.0989,-0.0872,-3.7362,0.63,-12.4775,0,0,0,1.8861748622469365
-0.2599,0.9526,0.0329,-0.526,0.0981,-0.0887,-2.7562,1.68,-13.8687,0,0,0,1.8983619692892688
-0.2721,0.9579,0.0403,-0.526,0.0981,-0.0887,-3.465,2.1088,-16.8175,0,0,0,1.9077655248029837
-0.2795,0.9511,0.022,-0.5234,0.0982,-0.087,-2.0825,1.0325,-18.2875,0,0,0,1.9199402447755765
-0.2955,0.9456,0.0234,-0.5229,0.0974,-0.0879,-1.7237,1.085,-16.66,0,0,0,1.932064354720376
-0.2905,0.9519,0.0236,-0.5229,0.0974,-0.0879,-2.24,0.0788,-14.175,0,0,0,1.9442429677720299
-0.2642,0.9654,0.0318,-0.523,0.0993,-0.0902,-2.5813,0.56,-12.705,0,0,0,1.9564272434841359
-0.2701,0.9615,0.0253,-0.523,0.0993,-0.0902,-2.7475,1.365,-13.37,0,0,0,1.9685761275684146
-0.2641,0.9612,0.0329,-0.5215,0.099,-0.0954,-3.1238,1.0762,-13.9125,0,0,0,1.9807706668525906
-0.2618,0.9711,0.0281,-0.5212,0.0981,-0.089,-2.765,0.98,-14.9187,0,0,0,1.9928820358113726
-0.2618,0.9623,0.0359,-0.5212,0.0981,-0.089,-2.3888,1.19,-15.4,0,0,0,2.0050818838397224
-0.2761,0.9601,0.0239,-0.5233,0.0994,-0.0898,-1.8725,1.1462,-15.9512,0,0,0,2.0172350149193408
-0.2779,0.9534,0.0277,-0.5233,0.0994,-0.0898,-2.4588,0.56,-15.61,0,0,0,2.029433801198856
-0.2758,0.9518,0.0269,-0.5233,0.0987,-0.0813,-3.0538,0.3938,-14.3587,0,0,0,2.0388394802102403
-0.273,0.9588,0.0245,-0.5228,0.0978,-0.0914,-2.4675,0.315,-13.685,0,0,0,2.0509865947131276
-0.2758,0.9617,0.0252,-0.5228,0.0978,-0.0914,-2.6513,1.6712,-13.6412,0,0,0,2.063159191188051
-0.2627,0.967,0.0267,-0.5238,0.0998,-0.088,-2.6075,1.1812,-14.2887,0,0,0,2.075404694416298
-0.268,0.9623,0.0266,-0.5238,0.0998,-0.088,-3.3075,1.0587,-14.84,0,0,0,2.087410950240433
-0.2707,0.961,0.0278,-0.5236,0.0982,-0.0846,-3.2987,0.8487,-14.8662,0,0,0,2.0995920407060344
-0.2715,0.9618,0.0279,-0.522,0.099,-0.089,-3.1325,1.0237,-14.9713,0,0,0,2.1117929504832196
-0.2723,0.9565,0.0252,-0.522,0.099,-0.089,-2.7913,1.47,-15.0675,0,0,0,2.123960946046525
-0.2742,0.9593,0.0293,-0.523,0.097,-0.0885,-2.7562,1.2512,-14.9275,0,0,0,2.1361353121028395
-0.2762,0.9596,0.0279,-0.523,0.097,-0.0885,-2.45,1.1812,-14.9362,0,0,0,2.148260483796474
-0.2697,0.96,0.0262,-0.523,0.1001,-0.0837,-2.7825,1.0937,-14.28,0,0,0,2.1604348498527886
-0.2712,0.9624,0.026,-0.5248,0.099,-0.0897,-2.7388,1.1025,-14.0787,0,0,0,2.1698568090129733
-0.2677,0.9626,0.0291,-0.5248,0.099,-0.0897,-2.7738,0.8925,-14.525,0,0,0,2.1820315289855663
-0.2689,0.9622,0.0295,-0.5226,0.0982,-0.0906,-2.9138,1.0062,-14.91,0,0,0,2.1941577624280355
-0.2759,0.9572,0.026,-0.5226,0.0982,-0.0906,-3.1588,1.015,-14.7613,0,0,0,2.2063558408749944
-0.2715,0.9589,0.0226,-0.5236,0.0994,-0.0878,-2.4675,0.6038,-14.6125,0,0,0,2.2184937535546467
-0.2752,0.9593,0.027,-0.5223,0.0987,-0.0899,-2.45,0.6913,-14.5775,0,0,0,2.2306642265319
-0.2725,0.9614,0.0231,-0.5223,0.0987,-0.0899,-2.5988,0.945,-13.3087,0,0,0,2.2427957687185436
-0.2668,0.9622,0.0303,-0.5223,0.0972,-0.0885,-2.5463,1.0587,-14.2187,0,0,0,2.2549782748492584
-0.2685,0.9631,0.0304,-0.5223,0.0972,-0.0885,-2.9138,1.4,-14.14,0,0,0,2.267159719231138
-0.2696,0.962,0.0303,-0.5218,0.0983,-0.0906,-2.835,1.0587,-14.9713,0,0,0,2.279313912059591
-0.2713,0.9586,0.0229,-0.523,0.1004,-0.0894,-2.3712,1.4262,-14.875,0,0,0,2.291433421092773
-0.2718,0.9589,0.0285,-0.523,0.1004,-0.0894,-3.045,1.3912,-14.5162,0,0,0,2.300880862224994
-0.2751,0.959,0.0284,-0.523,0.0964,-0.0899,-2.4413,1.1375,-14.91,0,0,0,2.3130364707185596
-0.2729,0.9601,0.025,-0.523,0.0964,-0.0899,-2.3187,0.98,-14.4987,0,0,0,2.3252377344120227
-0.2694,0.9605,0.0265,-0.5235,0.0997,-0.0855,-2.52,1.3212,-14.0787,0,0,0,2.337388034161415
-0.2692,0.9618,0.0282,-0.5227,0.0993,-0.0886,-3.2813,1.435,-13.9125,0,0,0,2.3494795838086135
-0.2696,0.9607,0.0289,-0.5227,0.0993,-0.0886,-3.0363,1.0237,-14.1138,0,0,0,2.3616518263672583
-0.2707,0.9597,0.0273,-0.5219,0.0982,-0.0901,-2.555,0.8487,-14.3238,0,0,0,2.3738276080886855
-0.2722,0.9609,0.0268,-0.5219,0.0982,-0.0901,-1.9775,1.0412,-14.4462,0,0,0,2.386022855205418
-0.2713,0.9598,0.0306,-0.5215,0.0981,-0.0908,-3.325,1.1112,-13.8687,0,0,0,2.398140594657209
-0.2714,0.9603,0.029,-0.5215,0.0992,-0.0902,-3.2288,0.56,-14.2362,0,0,0,2.410310359801906
-0.2702,0.9589,0.026,-0.5215,0.0992,-0.0902,-2.5113,1.2512,-14.2625,0,0,0,2.419783990738719
-0.2724,0.9607,0.0298,-0.5222,0.1006,-0.0898,-2.555,1.0412,-13.9475,0,0,0,2.431907392850962
-0.2715,0.9609,0.026,-0.5222,0.1006,-0.0898,-2.9313,1.015,-13.825,0,0,0,2.4440937920607375
-0.2721,0.9594,0.0289,-0.5232,0.0986,-0.0929,-2.8,1.0237,-14.2537,0,0,0,2.4562515240519733
-0.2712,0.9604,0.024,-0.5247,0.097,-0.089,-2.9663,1.2425,-14.2362,0,0,0,2.468376695745608
-0.2695,0.9612,0.0293,-0.5247,0.097,-0.089,-3.1937,1.2862,-14.3413,0,0,0,2.4805641567042183
-0.2709,0.9603,0.0263,-0.521,0.0982,-0.0889,-2.45,1.1462,-14.3062,0,0,0,2.4927388766768113
-0.269,0.9604,0.0256,-0.521,0.0982,-0.0889,-2.3888,1.3475,-14.4725,0,0,0,2.5048753736913505
-0.27,0.9605,0.031,-0.5221,0.0988,-0.0887,-3.1675,1.1725,-14.6125,0,0,0,2.5170546945755605
-0.2726,0.9626,0.0248,-0.524,0.0986,-0.089,-3.3425,1.2862,-13.7987,0,0,0,2.529205702157509
-0.2711,0.9598,0.0305,-0.524,0.0986,-0.089,-2.3363,1.1462,-14.3587,0,0,0,2.5413892700370586
-0.2697,0.9606,0.0279,-0.5224,0.0993,-0.0905,-2.7738,0.8663,-14.1662,0,0,0,2.5508108752809653
-0.2722,0.9612,0.0284,-0.5224,0.0993,-0.0905,-3.1063,0.9887,-14.0437,0,0,0,2.5629353391420433
-0.2723,0.9601,0.0292,-0.5238,0.0992,-0.0917,-2.975,1.2862,-14.84,0,0,0,2.5751040425379053
-0.2699,0.9596,0.0284,-0.524,0.0982,-0.0904,-2.7738,0.9187,-14.805,0,0,0,2.5872950426592984
-0.2749,0.9607,0.0217,-0.524,0.0982,-0.0904,-2.8612,1.2337,-14.0525,0,0,0,2.599430831841281
-0.2717,0.9601,0.0306,-0.5207,0.0991,-0.0859,-2.9575,1.26,-14.2887,0,0,0,2.6115736993488294
-0.2696,0.9606,0.0276,-0.5207,0.0991,-0.0859,-3.1588,1.2862,-14.4375,0,0,0,2.6237324930889
-0.2692,0.9611,0.0267,-0.5236,0.0998,-0.0888,-3.1675,0.9975,-14.1487,0,0,0,2.635924908875406
-0.2699,0.9615,0.0257,-0.522,0.0988,-0.0893,-2.7037,0.7437,-14.91,0,0,0,2.6484425737216455
-0.2692,0.9591,0.0282,-0.522,0.0988,-0.0893,-3.115,0.7962,-14.1925,0,0,0,2.6602085203928327
-0.273,0.9599,0.0256,-0.523,0.0978,-0.089,-2.6425,0.9975,-14.9713,0,0,0,2.6723209511004495
-0.2719,0.9595,0.0286,-0.523,0.0978,-0.089,-2.8438,1.2775,-14.4462,0,0,0,2.6818221875069677
-0.2751,0.959,0.024,-0.5242,0.0988,-0.0877,-2.9138,1.1725,-14.0437,0,0,0,2.694208549413968
-0.2689,0.9604,0.0292,-0.5253,0.0962,-0.089,-2.7475,0.84,-14.105,0,0,0,2.7061864919358407
-0.2724,0.9607,0.0243,-0.5253,0.0962,-0.089,-3.08,1.1462,-13.9212,0,0,0,2.7183130792945884
-0.2732,0.9612,0.0245,-0.524,0.0992,-0.0921,-2.9488,1.1287,-14.4987,0,0,0,2.730447452811458
-0.2713,0.9617,0.0296,-0.524,0.0992,-0.0921,-3.115,1.0675,-14.3762,0,0,0,2.74262641977939
-0.2697,0.957,0.0235,-0.5219,0.1004,-0.0873,-2.6513,0.8225,-14.3062,0,0,0,2.7547972466729216
-0.272,0.9595,0.0276,-0.5238,0.0974,-0.0894,-2.065,1.3125,-14.3762,0,0,0,2.766936575017687
-0.2722,0.962,0.0223,-0.5238,0.0974,-0.0894,-2.6688,1.2862,-14.6737,0,0,0,2.779115895901897
-0.2689,0.9588,0.03,-0.5242,0.099,-0.0886,-2.975,0.9887,-14.56,0,0,0,2.791303356860508
-0.2685,0.9581,0.0298,-0.5242,0.099,-0.0875,-2.9838,0.77,-15.0412,0,0,0,2.8034108327402287
-0.27,0.957,0.0249,-0.5224,0.101,-0.0875,-2.1,1.1375,-14.5425,0.4961642800623636,-8.05121658377916,3.0146543952742015,3.823214218090997
-0.272,0.9593,0.0279,-0.5228,0.0989,-0.0891,-2.0738,0.5425,-14.84,0.8989747327280375,-12.506759372081497,3.860124284932279,3.8283169829911374
-0.2709,0.9601,0.0254,-0.5228,0.0989,-0.0891,-2.17,0.9013,-14.7788,1.0840511146104832,-14.32969152949146,4.926953083854049,3.8332565924869946
-0.2738,0.9631,0.0259,-0.5238,0.0993,-0.0926,-2.7388,1.0587,-14.7175,1.1400205232010383,-15.17336608327513,6.360357384699888,3.837831314299952
-0.271,0.962,0.0294,-0.5238,0.0977,-0.0889,-3.0888,0.7175,-14.455,1.3407171981006454,-15.443692350184017,6.474412379301699,3.8431379349763777
-0.2699,0.9598,0.0286,-0.5213,0.0977,-0.0889,-3.185,1.0675,-14.945,1.4759702712195926,-15.595068104087433,7.4159232051501505,3.8477289369381356
-0.2716,0.9576,0.0285,-0.5238,0.0991,-0.0887,-3.9288,1.26,-14.7175,1.606539417595039,-15.723134187124307,8.288507305506874,3.8522640201279263
-0.2742,0.9612,0.0275,-0.5238,0.0991,-0.0887,-3.3338,0.8575,-14.3325,1.6201990465933163,-15.810752018327252,8.51121669385703,3.856758402945716
-0.2696,0.9605,0.0246,-0.5226,0.0969,-0.0899,-3.0625,1.155,-14.4025,1.571719486753559,-15.745692358016457,8.958746836286107,3.861263757168132
-0.2686,0.9602,0.0248,-0.5211,0.0984,-0.0854,-2.8087,1.4525,-14.1662,1.555735577622879,-15.696543737812624,9.175569728868547,3.8648280480066197
-0.2667,0.9607,0.0292,-0.5211,0.0984,-0.0854,-2.8963,1.5137,-14.105,1.5981759926546235,-15.62537822707459,9.324552773996091,3.8670286994249214
-0.274,0.9615,0.0315,-0.5229,0.0994,-0.0896,-2.835,1.2862,-14.385,1.651297731415236,-15.753591234615351,9.55782341561712,3.869244923159467
-0.2699,0.9575,0.0312,-0.5229,0.0994,-0.0896,-2.9225,1.1812,-14.7613,1.703850682572664,-15.742729640222164,9.68495269870356,3.8714540685684478
-0.2677,0.9607,0.0309,-0.5214,0.1001,-0.0842,-2.345,1.0937,-14.14,1.7318816736406601,-15.672332956303558,9.598951066224311,3.8736862185355156
-0.2704,0.9594,0.0245,-0.5231,0.0989,-0.0838,-2.3975,0.8663,-13.7812,1.6867555891069166,-15.6862618185584,9.545447030620934,3.8759102284281837
-0.2704,0.9611,0.0287,-0.5231,0.0989,-0.0838,-2.9225,1.0237,-14.0525,1.6925434792060305,-15.693665677066573,9.482635236446763,3.878140254897582
-0.2692,0.96,0.0276,-0.5222,0.099,-0.0896,-2.7388,1.435,-13.5625,1.6869337841709804,-15.691480198213359,9.666743051256786,3.880500522557385
-0.27,0.9585,0.0249,-0.5222,0.099,-0.0896,-2.5375,1.54,-14.1225,1.6754095787796182,-15.705136642728656,9.766709949748911,3.8827620475755498
-0.2667,0.9618,0.0336,-0.5251,0.0972,-0.0878,-2.9313,1.1987,-14.0087,1.756559733957456,-15.632057491234772,9.756446996472588,3.884983226137991
-0.2708,0.9586,0.0269,-0.523,0.0989,-0.0948,-2.7125,1.05,-14.3937,1.7413585995235892,-15.696731787616159,9.939218610066531,3.8872026351190416
-0.2742,0.9621,0.0254,-0.523,0.0989,-0.0948,-3.0275,0.8225,-14.1487,1.6726490368049536,-15.777887722934448,9.998199580008068,3.889439385997727
-0.2701,0.9593,0.0307,-0.5257,0.101,-0.0903,-3.3863,1.1287,-14.8662,1.74327425523182,-15.742939690743732,9.984975021730516,3.891656671481108
-0.2715,0.9597,0.0235,-0.5257,0.101,-0.0903,-2.52,0.735,-14.42,1.7183322875963571,-15.766374850519147,9.97963162803127,3.893890237113289
-0.2697,0.9606,0.0282,-0.5218,0.0996,-0.0867,-2.765,0.8312,-14.7087,1.7130934340737711,-15.717024372464422,9.933208118790933,3.8957026423743253
-0.2739,0.9603,0.0289,-0.5235,0.0982,-0.0934,-2.7213,1.1462,-14.7962,1.7142580453096827,-15.82751683877484,10.051565776661771,3.896968954817986
-0.2686,0.9596,0.029,-0.5235,0.0982,-0.0934,-2.5813,1.4962,-14.3238,1.7145497087506891,-15.738374028581154,10.164724747215804,3.8982034147966025
-0.2724,0.9587,0.028,-0.5231,0.0973,-0.0906,-2.3275,1.2163,-14.21,1.7056594283320148,-15.787038812289675,10.111723261963133,3.899420886793862
-0.2708,0.9617,0.0324,-0.5231,0.0973,-0.0906,-2.5638,1.1025,-14.5425,1.7132787954808204,-15.751712283127835,10.09541094576496,3.900635527460895
-0.2679,0.96,0.0278,-0.523,0.0998,-0.0875,-2.5638,1.1287,-14.7962,1.7114225838261092,-15.658184658860398,9.966366863917782,3.901859016034885
-0.2715,0.9581,0.0267,-0.5217,0.0995,-0.0907,-3.6225,1.0587,-14.2537,1.6531863514744922,-15.725952745343076,9.983311050437507,3.903083212441431
-0.2718,0.9617,0.0166,-0.5217,0.0995,-0.0907,-3.29,1.505,-14.6387,1.3817381142974612,-15.754425489817486,9.952207324362051,3.9043031618526385
-0.2706,0.9608,0.0292,-0.5216,0.0994,-0.0898,-3.605,1.3825,-14.315,1.5617836172041044,-15.740040124992635,9.955861020254702,3.9055291278405764
-0.2677,0.9592,0.0316,-0.5216,0.0994,-0.0898,-3.255,1.1812,-14.4462,1.6905614567175156,-15.664856938144263,9.96589292772297,3.9067844688796107
-0.2692,0.9587,0.0232,-0.5242,0.1006,-0.0853,-3.4125,1.155,-14.3325,1.5540579649968154,-15.671847996741484,9.776173699692075,3.90802246802101
-0.2718,0.9603,0.0321,-0.5215,0.0982,-0.0915,-2.835,1.0325,-14.5338,1.6228774359546791,-15.734579186045911,9.879906720479045,3.909251265339174
-0.2691,0.9603,0.0287,-0.5215,0.0982,-0.0915,-2.8087,0.9975,-14.7875,1.6383010028498275,-15.685543170566113,9.94148447723923,3.910481124406173
-0.2717,0.9604,0.0265,-0.5233,0.0971,-0.0901,-3.0188,1.0675,-14.8837,1.6212239431969937,-15.746618513702222,9.940707172585912,3.9117810588962696
-0.2747,0.9625,0.0225,-0.5233,0.0971,-0.0901,-2.6775,1.0062,-14.875,1.6006980178844152,-15.849851386016182,9.930047252440591,3.9130123336283815
-0.2702,0.9605,0.0318,-0.5241,0.0999,-0.0966,-2.765,1.1025,-14.3413,1.642768323523961,-15.782953714731155,10.14434944565524,3.9142499788535026
-0.2716,0.9583,0.0292,-0.5218,0.0986,-0.0913,-3.7275,1.1287,-13.9912,1.6971276210722435,-15.794131949874934,10.136620542573855,3.915479130087945
-0.2694,0.9568,0.0295,-0.5218,0.0986,-0.0913,-3.2288,1.4262,-14.0787,1.7237336696972807,-15.76619400957338,10.130161264766976,3.9166934168386995
-0.2668,0.9601,0.0284,-0.5225,0.1,-0.0895,-2.3275,0.8312,-14.3238,1.7174546298228845,-15.656333891643461,10.100655794046894,3.9179130123336283
-0.2718,0.9636,0.0293,-0.5225,0.1,-0.0895,-3.2288,1.2075,-14.4987,1.7268022827144087,-15.700762195280834,10.036136830840768,3.9191595054657062
-0.2692,0.9575,0.0321,-0.5225,0.099,-0.0906,-2.73,1.4262,-14.9187,1.7491887762303289,-15.697310612168456,10.047397528753764,3.9204799670999426
-0.2761,0.9624,0.0273,-0.5238,0.0993,-0.09,-2.6075,0.7962,-14.0087,1.7481438590016507,-15.800268767725928,10.035138349733165,3.921714073162281
-0.2729,0.9557,0.0303,-0.5238,0.0993,-0.09,-3.57,1.54,-14.2012,1.781536001611576,-15.85350887626158,10.00068968043812,3.9229513644711234
-0.2694,0.9615,0.0281,-0.5218,0.1,-0.0892,-2.7037,0.8225,-13.9038,1.771346502814977,-15.793433958537614,9.985924018523145,3.9242891680029954
-0.27,0.9629,0.0309,-0.5218,0.1,-0.0892,-2.4325,0.2888,-13.8863,1.780864758298647,-15.754904019318644,9.964549540773714,3.9256298028650938
-0.269,0.9575,0.0254,-0.523,0.101,-0.0864,-2.7213,0.7088,-14.7437,1.75239406321243,-15.717180509574444,9.95393851230388,3.926978223885314
-0.2697,0.96,0.0257,-0.524,0.0979,-0.0893,-2.73,0.63,-15.0937,1.7270433473818378,-15.698437574757895,9.947660126031503,3.9282707261335674
-0.2718,0.9603,0.0266,-0.524,0.0979,-0.0893,-3.2638,1.0762,-14.9187,1.6709892629725145,-15.756712291412093,9.917832246490624,3.9295296063353846
-0.272,0.9636,0.0287,-0.5235,0.0996,-0.089,-3.2725,1.33,-14.3937,1.6850795577151618,-15.75656276891519,9.886149535299882,3.930788486537202
-0.2662,0.9537,0.031,-0.5235,0.0996,-0.089,-3.605,1.155,-14.3325,1.7736742317895886,-15.679746241734648,9.878855504706364,3.9320133907763046
-0.274,0.9605,0.0296,-0.5222,0.099,-0.0928,-2.4413,0.8487,-14.5075,1.7725117696314785,-15.797792051729655,9.93490083726313,3.933225907945668
-0.2694,0.96,0.0249,-0.5233,0.098,-0.0901,-2.8875,0.8838,-14.5162,1.708314903705385,-15.73350158751882,9.931998884608623,3.9344759402405285
-0.2706,0.962,0.0249,-0.5233,0.098,-0.0901,-2.3275,0.91,-14.49,1.6601340330841314,-15.71965153193524,9.929321880777943,3.9357592406655466
-0.2653,0.9594,0.0306,-0.523,0.0994,-0.0893,-2.7738,0.91,-14.2887,1.6849332991973067,-15.600515630970763,9.923073795596432,3.9369841449046494
-0.2729,0.9595,0.0222,-0.523,0.0994,-0.0893,-2.7738,1.1375,-14.665,1.6314471983493883,-15.7471795689838,9.887433161089914,3.9382430251064666
-0.2608,0.9786,0.0214,-0.5238,0.0988,-0.09,-3.1063,0.6913,-14.8487,1.5039938950517358,-15.27127940375197,9.887088283532371,3.9394764233362483
-0.2718,0.9717,0.0144,-0.523,0.0988,-0.0891,-4.2962,1.0237,-15.3212,1.091860954156854,-15.5001012192235,9.838869436552493,3.94071796164043
-0.2693,0.9446,0.0273,-0.523,0.0988,-0.0891,-4.0775,0.9275,-15.6538,1.4280574228186755,-15.777593511011661,9.841239524263033,3.9419779035910825
-0.2741,0.9504,0.0368,-0.522,0.0974,-0.0888,-2.7037,0.8312,-16.0562,1.5028541543004241,-15.992448898603627,9.854541411051109,3.943278545913736
-0.273,0.9588,0.0282,-0.522,0.0974,-0.0888,-2.2313,1.5312,-15.2425,1.5517408068864995,-15.925257616398117,9.850014507148522,3.944503804069117
-0.283,0.9551,0.0177,-0.5233,0.0987,-0.0856,-1.6887,1.61,-14.07,1.3182170063967706,-16.135434669939343,9.622694807106434,3.9457187986524285
-0.2833,0.9504,0.029,-0.5215,0.099,-0.0907,-2.9925,0.6913,-13.09,1.4395042542267085,-16.267230254027368,9.626176973876563,3.946950781217097
-0.265,0.9582,0.0291,-0.5215,0.099,-0.0907,-2.38,1.295,-12.3287,1.493406294856301,-15.828308699702138,9.788506936491851,3.948161528805069
-0.2686,0.9604,0.0285,-0.5232,0.0999,-0.0894,-2.5025,1.1987,-12.2587,1.5115713214746398,-15.712214934067823,9.819819651944306,3.9493719224767627
-0.264,0.9658,0.0201,-0.5232,0.0999,-0.0894,-1.5575,1.015,-13.5012,1.3486651883907932,-15.710332381808568,9.810198741313377,3.9505929336368046
-0.2654,0.9667,0.0306,-0.5242,0.0991,-0.0921,-1.8025,1.4962,-14.3587,1.5545549106936327,-15.541000229144624,9.968819294504856,3.9518135908805685
-0.2649,0.973,0.0216,-0.5227,0.0978,-0.089,-1.9775,0.9975,-14.91,1.4461460571788471,-15.356605102854154,9.920599370449915,3.9530381412033933
-0.2591,0.8978,0.031,-0.5227,0.0978,-0.089,-3.1937,1.645,-14.3062,1.6443215431999667,-15.68412160712063,9.915157921505687,3.9542810951726883
-0.2521,0.9448,0.0318,-0.5236,0.0996,-0.0908,-1.33,2.2925,-13.8512,1.802826177595347,-15.487311516705692,10.000265969596715,3.9555021063327302
-0.2475,0.952,0.0293,-0.5236,0.0996,-0.0908,0.4987,2.835,-12.0487,1.77260837990737,-14.942628367605428,10.0124303555943,3.956707899092806
-0.255,0.968,0.012,-0.5253,0.0985,-0.0929,1.4962,4.7688,-11.2437,0.9187442499385142,-14.814093583700402,10.01690185172113,3.957912984020326
-0.2546,0.9816,0.0065,-0.5268,0.1009,-0.0917,2.4938,6.545,-11.305,0.4679195794809586,-14.626030699866147,9.82603370045375,3.959119838529237
-0.2522,1.0107,0.009,-0.5268,0.1009,-0.0917,4.1213,8.4,-10.4125,0.5047142307322361,-14.161104587201256,9.814254683566674,3.9603245695404787
-0.2574,1.0041,0.0059,-0.5262,0.1011,-0.0929,3.1063,10.3775,-7.56,0.36172356664927213,-14.346614204465668,9.908429963807869,3.961525761388937
-0.2448,1.0216,-0.0076,-0.5262,0.1011,-0.0929,0.5775,10.7975,-3.7625,-0.23756999374431195,-13.556207176635713,9.777595794365125,3.962764468362893
-0.237,1.0555,-0.0247,-0.5297,0.103,-0.0829,-0.49,12.7225,0.56,-0.985780889406234,-12.711904720839458,8.577995752512535,3.9639872491043264
-0.2891,1.0764,-0.0056,-0.5334,0.103,-0.0918,-1.8987,15.9337,7.0175,-0.7025326737796833,-14.925634497528025,9.497863955747079,3.965198350608577
-0.344,0.9672,0.0005,-0.5334,0.103,-0.0918,-5.145,15.61,11.48,-0.17685471910742503,-19.399607513191242,9.692358556154824,3.9664037894523747
-0.3844,0.9406,-0.0011,-0.5377,0.1015,-0.0903,-8.7675,15.54,13.335,-0.08232939062257542,-22.12696237252788,9.556537845937612,3.967650282584452
-0.358,0.9364,0.0207,-0.5377,0.1015,-0.0903,-11.7687,13.9125,14.28,1.133750894820946,-20.959963018893085,9.74735601564272,3.9688751868235554
-0.3314,0.9981,0.0536,-0.545,0.105,-0.0916,-12.4425,8.61,15.5837,2.895019629942033,-18.430096304123335,10.00206981484996,3.970082749165023
-0.2972,1.0194,0.069,-0.5509,0.1025,-0.082,-15.7325,4.8562,18.9,3.8031217543837257,-16.284795968677095,9.24839784293248,3.9713062377390127
-0.1823,0.9468,0.0037,-0.5509,0.1025,-0.082,-23.5725,7.3063,20.5888,0.38679311328074356,-11.051983232969718,8.48213032812205,3.972524417568829
-0.1532,0.9674,-0.0139,-0.5554,0.1026,-0.0749,-29.0325,12.9412,18.4363,-0.7790864366933106,-9.060239341598459,7.487740097081728,3.973787190849707
-0.1443,0.9811,-0.0131,-0.5554,0.1026,-0.0749,-34.58,24.22,23.1525,-0.7654158513889733,-8.384758745873159,7.422691840470562,3.9750450093026894
-0.1251,0.9627,-0.065,-0.5634,0.1001,-0.0679,-33.3987,27.8512,30.0475,-3.7652604415431625,-7.409687077950569,6.133302408525038,3.9762985807603326
-0.187,1.1796,0.0525,-0.5715,0.1024,-0.0598,-32.5237,26.9937,36.3475,2.344198077864995,-8.96801491428454,6.317926671976538,3.9775263163296617
-0.2811,1.2056,0.0647,-0.5715,0.1024,-0.0598,-34.1075,20.4662,38.2638,3.049516293323349,-13.028060574868357,6.419131951106863,3.9787575910617736
-0.2539,1.143,0.0623,-0.5809,0.1034,-0.0526,-35.4287,12.3112,40.7225,3.1177793810843584,-12.51550622748996,5.701417186265174,3.9799913432078333
-0.1986,1.0543,0.0711,-0.5882,0.1027,-0.0442,-34.7025,5.0662,43.1725,3.8357143228935606,-10.676706432088098,5.039236575767823,3.9811974898841878
-0.0917,1.0424,0.0681,-0.5882,0.1027,-0.0442,-34.2388,2.345,45.4475,3.7408212375459673,-5.111152854664927,4.941630914028082,3.9824089453047167
-0.2527,1.03,0.1468,-0.5959,0.1062,-0.0378,-32.9962,3.1675,52.6837,7.972207546753262,-13.524811734071108,4.961989482806055,3.9836296025484805
-0.2861,0.989,0.1498,-0.5959,0.1062,-0.0378,-29.3213,-0.5163,62.7725,8.589791134712689,-15.930040928408218,5.022162997701516,3.984851321541079
-0.3067,0.9539,0.1721,-0.6062,0.1082,-0.035,-25.1737,-5.7838,68.8013,10.157674380878635,-17.53854091346817,5.038898393328445,3.986082950189469
-0.2019,0.8393,0.0684,-0.612,0.111,-0.0286,-19.5125,-17.4825,73.6488,4.966059490268956,-13.528888413214966,3.543425521689839,3.9873326285680513
-0.1063,0.8822,0.0838,-0.612,0.111,-0.0286,-12.9675,-17.255,72.2925,5.385755156250594,-6.917257985254524,3.5910007013300906,3.988597525346599
-0.0312,0.8283,0.0853,-0.6218,0.1153,-0.0278,-24.0275,-11.0687,68.2063,5.857684272129711,-2.2035251794623765,3.6084354076338756,3.995241949554897
-0.0637,0.704,0.0549,-0.6218,0.1153,-0.0278,-23.4587,-11.7862,61.9938,4.523051227860739,-5.116065643530695,3.355487109852202,4.007557174289965
-0.0474,0.7526,0.1099,-0.6276,0.1179,-0.0224,-11.2613,-17.0888,52.1587,7.91628979887418,-3.5893549097648454,3.5313740174976345,4.019813648922838
0.0117,0.8698,0.2185,-0.6309,0.1175,-0.0214,-10.3687,-18.3225,34.9212,13.396047345411095,0.6596826059728745,4.438304161393473,4.032122857081175
0.0034,0.7438,0.1892,-0.6309,0.1175,-0.0214,-15.2425,-19.5212,21.9888,14.207449329229263,0.26494522122588665,4.504921409338322,4.0446656499831715
0.0816,0.7263,0.1044,-0.6326,0.1162,-0.025,-10.1412,-28.0613,16.4325,8.885429721178184,6.149034159677857,3.8538379246952124,4.056971672895004
0.1892,0.7153,0.0497,-0.6326,0.1162,-0.0046,3.15,-34.195,7.5862,4.702235048503968,14.390703942953607,1.3168599395494776,4.066201809432365
0.2137,0.792,0.0542,-0.6342,0.1125,-0.0182,11.5062,-25.3225,-17.3775,3.9670188536983106,14.928040481426388,2.490181690253426,4.078317425386486
0.3054,0.9228,0.0407,-0.6313,0.1118,-0.0259,7.7438,-6.3175,-21.5163,2.6524841613738515,17.921992345880458,3.04314519296973,4.090496746270696
0.1424,1.306,0.1377,-0.6313,0.1118,-0.0259,3.7013,3.78,-21.8663,5.557703566710212,7.440928938120548,3.375044657685265,4.102522467490136
0.0991,1.1635,0.1191,-0.6309,0.1106,-0.0223,3.8763,6.5275,-17.3775,5.806257796391277,5.375423560458827,3.13176423851759,4.114528369397992
0.1535,1.045,0.0434,-0.6309,0.1106,-0.0223,1.5225,-4.4275,-15.8025,3.047535188706427,7.449699951635103,2.627846166843484,4.1267664403843956
0.0797,1.024,0.0404,-0.6274,0.1117,-0.0302,2.9138,-5.0225,-14.98,2.3803499816604616,5.656209940794375,3.121549149955343,4.138867899687386
0.0293,0.8344,-0.0001,-0.6278,0.1142,-0.0278,-2.5288,4.6287,-18.305,2.223707881392338,2.63869191491384,2.6672428001104507,4.151051821483214
-0.0162,0.8377,-0.0692,-0.6278,0.1142,-0.0278,9.31,3.2638,-28.6475,-4.184243076014507,-0.8723829148201095,1.944505653876272,4.160371498838978
0.0632,0.9525,-0.0187,-0.6262,0.1138,-0.0325,18.4625,3.115,-33.7575,-1.263399042621219,3.575830599081775,2.5553679990577622,4.172485345211708
0.069,0.9465,0.0492,-0.6262,0.1138,-0.0325,17.9813,10.99,-37.205,2.77918331553348,4.140093516615597,3.4723225976683074,4.184651571193622
0.0478,1.0468,0.0526,-0.6246,0.1146,-0.0366,22.8025,8.1112,-45.85,2.8729106280224768,2.6570293882960683,3.8588474259868413,4.1967827594639875
0.0298,1.1278,0.0867,-0.6235,0.115,-0.042,25.9875,7.2975,-47.32,4.344507202880645,1.5420942287380008,4.564751469296456,4.208921733892474
0.0245,1.2764,0.1171,-0.6235,0.115,-0.042,25.6462,7.9538,-47.0662,5.211098137336219,1.107969736904486,4.784518873294163,4.221000188637377
0.1236,1.2273,0.0372,-0.6162,0.1155,-0.0469,24.08,5.3463,-48.5625,1.8616738322944082,5.619521550576891,4.785831640498328,4.233144471810038
0.1626,1.2651,0.0251,-0.6162,0.1155,-0.0469,10.3337,10.6487,-49.3237,1.1886577559499718,7.276256258840272,4.719486282011801,4.245339011094214
0.142,1.3049,0.049,-0.6087,0.117,-0.0484,3.6837,13.9125,-49.2975,2.018419841535528,6.235260813164577,5.060786856870055,4.257427021578629
0.1194,1.3328,0.072,-0.599,0.1178,-0.0525,-4.5325,15.1112,-46.585,2.7261592176221905,5.144767573591784,5.681058962977141,4.266755192925072
0.112,1.4082,0.1091,-0.599,0.1178,-0.0525,-11.7862,18.2612,-45.6575,4.262862772290928,4.552291853775178,5.948559414806491,4.2789575183673705
0.1216,1.3371,0.1454,-0.59,0.1252,-0.0515,-20.755,24.6662,-45.9463,6.104673998904551,5.147722861365086,6.384150255640684,4.291195235437495
0.1225,1.475,0.1768,-0.59,0.1252,-0.0515,-30.4937,32.2612,-45.395,6.809835233845064,4.727162609366092,6.5103134397922755,4.303408886200699
0.1301,1.3735,0.1308,-0.5794,0.135,-0.0431,-41.6237,39.6813,-46.5587,5.474164624208001,5.367406955509572,5.656455640293657,4.315662883419624
0.1217,1.3632,0.1028,-0.5662,0.1455,-0.0431,-49.6825,44.8263,-53.2438,4.33671608049645,5.094077984824423,5.5866301571501165,4.327835125978269
0.0241,1.2227,0.0457,-0.5662,0.1455,-0.0431,-55.0112,50.5662,-61.8013,2.1816258880921,1.2088256894719873,4.9348854356721725,4.340102218099491
-0.0003,1.1936,0.0739,-0.5542,0.1562,-0.0328,-55.0375,54.9938,-69.7638,3.517389192969295,0.006986340704848683,4.383775131851976,4.3523597544812
-0.0442,1.2005,0.0895,-0.5542,0.1562,-0.0278,-44.4762,52.3775,-93.0038,4.2462384721741016,-2.0765275735832223,4.028698478751787,4.364647373746561
-0.0754,1.1833,0.1083,-0.5385,0.1642,-0.0278,-40.25,53.1825,-103.8888,5.203917408721737,-3.61382249965475,4.445452693136483,4.376934285179367
-0.0412,1.1389,0.1027,-0.5201,0.1721,-0.033,-33.6787,50.6712,-115.5088,5.15429197141672,-2.078471722325562,5.234880931279592,4.389251633412104
-0.0618,1.1808,0.1155,-0.5201,0.1721,-0.033,-26.3812,48.5713,-127.7238,5.569172054586272,-2.9739345166550244,5.362228623131011,4.401595525365711
-0.0706,1.1819,0.1576,-0.5071,0.1778,-0.0386,-21.3237,49.3937,-140.3237,7.492559066269608,-3.3852973248756895,6.791823165598276,4.413965253207632
-0.0116,1.2459,0.1509,-0.4827,0.1823,-0.0404,-17.5788,47.1538,-154.21,6.942585293033798,-0.5497207430094835,7.28760934277078,4.42625570380322
-0.0612,1.2808,0.1761,-0.4827,0.1823,-0.0404,-19.4075,49.0612,-168.3762,7.778882943872689,-2.6963441653865603,7.527998112834272,4.438593225263818
-0.0781,1.2382,0.1573,-0.4623,0.1833,-0.0418,-24.2725,53.48,-176.5487,7.2637960060896285,-3.5750842357101016,7.777797170546442,4.450932870222086
-0.0529,1.2385,0.1047,-0.4418,0.182,-0.0429,-31.745,51.4675,-191.1788,4.912828568949816,-2.4434719086076564,7.378886962891054,4.463262251608285
-0.0845,1.2076,0.1097,-0.4388,0.182,-0.0429,-36.7238,56.7875,-196.9975,5.182671229304841,-3.9779391439314833,7.490096413229518,4.475558364864325
-0.1663,1.1961,0.1452,-0.4122,0.1807,-0.0391,-43.0325,58.7913,-204.4263,6.879559531740917,-7.838205541360972,7.971930346913585,4.487924553543463
-0.1689,1.1461,0.1113,-0.4122,0.1807,-0.0391,-51.1175,59.6925,-211.3562,5.573627875302827,-8.342054576256508,7.421734569097817,4.500223144213452
-0.2343,1.1034,0.1155,-0.383,0.1812,-0.036,-58.6688,60.8913,-216.3787,5.968710431666717,-11.907480587774915,7.570574119891745,4.512634280259931
-0.2646,1.0318,0.1108,-0.3525,0.1819,-0.0207,-67.6113,63.035,-219.0213,6.126796504954249,-14.292821717701658,5.947200722247138,4.524904911543936
-0.3305,0.8758,0.1017,-0.3525,0.1819,-0.0207,-74.69,64.9513,-221.0513,6.616859976832401,-20.518534929719934,6.038098929985728,4.539975728421637
-0.3981,0.792,0.115,-0.3186,0.1895,-0.0077,-72.135,65.7125,-217.0,8.2384039601017,-26.41836832701368,5.415280567991163,4.552414116021542
-0.483,0.7036,0.088,-0.2892,0.1987,-0.0006,-64.925,63.385,-208.9062,7.146543830229973,-34.221297063037134,4.147661604701505,4.564761547137932
-0.5466,0.6288,0.102,-0.2892,0.1987,-0.0006,-59.4475,63.8838,-201.0838,9.178168475184389,-40.597547392812665,5.315119866463285,4.577097652933418
-0.6631,0.5328,0.1373,-0.2562,0.208,0.0078,-58.975,65.3538,-199.7713,14.35856293156816,-50.26395578726223,7.849157394620753,4.5893353700035435
-0.7218,0.5387,0.1365,-0.2562,0.208,0.0078,-63.385,68.5125,-199.9637,14.221047448034403,-52.395353408282475,7.80535111074874,4.601618034441009
-0.7687,0.4756,0.1523,-0.2271,0.221,0.0157,-66.5263,69.8775,-196.2275,17.702021023758224,-56.96499794619057,9.752951480200366,4.613901052794754
-0.843,0.4465,0.1582,-0.2022,0.235,0.0168,-60.7337,64.3475,-188.4312,19.479241221834943,-60.6464974028512,11.875582987522247,4.626189025976394
-0.7809,0.3307,0.086,-0.2022,0.235,0.0168,-54.4337,56.9538,-178.0887,14.669919244591236,-66.332647353831,8.381182984967158,4.638421080386067
-0.8186,0.2744,0.104,-0.1747,0.2436,0.016,-37.6075,51.8437,-168.9187,20.588096518932588,-70.25330298282506,14.2486349044511,4.6506878185910105
-0.8959,0.2777,0.1077,-0.1747,0.255,0.0239,-33.5737,49.7262,-165.375,21.178650991985748,-71.60108674404444,13.617496831624536,4.663015784312095
-0.8567,0.2568,0.0985,-0.1525,0.255,0.0239,-36.5925,49.4025,-160.4487,20.990693496119224,-72.19676934842623,13.772828055069997,4.675269427614743
-0.8841,0.2384,0.1083,-0.1321,0.2668,0.0178,-31.605,48.6675,-158.9175,24.316614998792932,-73.49323658669326,18.639352368961216,4.6874607816524145
-0.9418,0.2638,0.0922,-0.1321,0.2668,0.0178,-29.2162,46.3225,-155.8638,19.447808224949252,-73.47361424063037,14.145693175792575,4.69974556958755
-0.9533,0.258,0.0963,-0.1108,0.2792,0.0185,-25.585,43.6625,-146.475,20.425832472366732,-73.88412380028379,15.533972581256815,4.7119999207227545
-0.896,0.2129,0.0988,-0.0967,0.2915,0.0136,-26.3463,40.2238,-134.6187,24.713917189662226,-75.30936583898664,20.97610104327558,4.724326470778726
-0.9039,0.1959,0.0547,-0.0967,0.2915,0.0136,-27.055,36.2863,-128.3363,15.959000795762611,-77.3013080932557,12.56680790277009,4.733785237231851
-0.9574,0.2165,0.1032,-0.0799,0.301,0.0124,-26.2237,37.0387,-116.3925,25.09905494744704,-75.94938578193809,22.062948729179055,4.74599145575321
-0.8996,0.1692,0.0649,-0.0799,0.301,0.0124,-24.2812,31.3687,-109.3663,21.16666721855207,-78.58301237927033,18.155758369860592,4.758297124748764
-0.8963,0.1695,0.062,-0.0709,0.3091,0.0039,-19.9762,27.9738,-105.8488,20.150095825231162,-78.61454945319537,18.848253272026117,4.77059429975364
-0.8691,0.1468,0.0605,-0.0574,0.3194,0.009,-21.3587,28.5338,-104.8075,22.284048064192888,-79.63548433229222,20.387060567663557,4.782873425028322
-0.8804,0.1507,0.0553,-0.0574,0.3194,0.009,-22.3038,29.365,-103.8713,20.25385530462972,-79.66626411580839,18.307282005033883,4.795111849931004
-0.8312,0.1477,0.0612,-0.0438,0.3251,0.0066,-24.605,29.3475,-100.1875,22.40890896792667,-79.11872298498345,21.068008543065595,4.807422827670733
-0.8183,0.1218,0.0164,-0.0345,0.3346,0.0063,-27.16,26.6875,-95.4975,8.245254453497095,-81.43048720440707,7.098994400933676,4.819666561317589
-0.8519,0.1321,0.0178,-0.0345,0.3346,0.0063,-25.48,27.7637,-88.025,7.698090865908275,-81.11150986721142,6.588188672819905,4.831891537401696
-0.8405,0.0429,0.0129,-0.0288,0.3407,0.0042,-21.91,27.2038,-79.835,16.291019429341347,-86.86240653351364,15.638962639600045,4.8440832453556455
-0.8269,0.021,-0.0237,-0.0288,0.3407,0.0042,-17.2987,19.67,-67.9525,-44.33248038564143,-87.78995581021904,45.80734686064125,4.856379004695408
-0.8275,-0.0054,-0.0093,-0.0234,0.3468,0.0087,-20.0287,21.6737,-63.6825,-116.0279703580237,-89.2268037339187,118.08983408983597,4.868710155662997
-0.8079,-0.0209,-0.0216,-0.0173,0.3486,0.0023,-24.5175,23.135,-60.9263,-133.26975752096018,-87.89744912824133,133.64609109092322,4.8810427222957
-0.9004,-0.0056,0.0116,-0.0173,0.3486,0.0023,-24.6837,23.5112,-53.3925,104.98125782715513,-89.14901963331516,104.90230944510634,4.893262035719355
-0.9558,-0.0066,0.0239,-0.0126,0.354,-0.0008,-23.3887,20.3875,-41.1512,105.41658460999979,-88.53617537785759,105.48166159501872,4.905609466835744
-0.9829,-0.0442,0.0175,-0.0126,0.3519,0.0042,-21.0438,16.4587,-29.0325,155.67520408086614,-87.309956391638,154.54485253962477,4.917886468612759
-0.9696,-0.0886,-0.0029,-0.0094,0.3519,0.0042,-20.58,13.09,-19.6175,-160.53924277801974,-85.1319868453836,153.93663572098401,4.930219743078017
-0.8496,-0.1829,-0.0684,-0.0086,0.3534,-0.0006,-21.6387,11.7512,-16.0562,-159.54755283961714,-79.32488414304946,158.38983641015753,4.942557618454894
-0.9067,-0.1605,-0.0403,-0.0086,0.3534,-0.0006,-15.5225,10.92,-20.86,-165.44837708963072,-79.61708461790369,164.88488878676728,4.95779548381594
-1.0142,-0.1207,0.0071,-0.0079,0.3554,-0.0069,-10.815,7.49,-15.1287,139.51517514545628,-81.83961802263697,133.8359920388576,4.970080979583632
-1.0596,-0.0819,0.0342,-0.0074,0.353,-0.001,-8.2337,4.2263,-5.2325,154.64951334950243,-84.84796749049417,152.20363435241023,4.979452682632302
-0.9592,-0.1376,-0.0134,-0.0074,0.353,-0.001,-4.375,0.5688,0.2013,-55.88946932470453,-82.00583945761983,118.60834853288145,4.991615369451433
-0.9076,-0.1668,-0.0529,-0.0074,0.3501,0.0004,-3.7975,0.0088,-0.6825,-113.9545942429798,-79.29841660911127,5.51560993017419,5.003843884698324
-0.8797,-0.1565,-0.0436,-0.0074,0.3501,0.0004,-2.5638,2.8612,-4.6375,-115.6721755724899,-79.51253832298454,110.78275911706389,5.015905351461869
-0.8712,-0.1466,-0.0556,-0.0066,0.3486,0.0024,1.435,4.2613,-5.67,-150.57739813388017,-79.76541124485851,148.6669221174551,5.028034416234565
-0.9194,-0.1058,-0.0235,-0.0116,0.3476,-0.004,10.3075,5.2413,-1.7325,-166.26170350701292,-83.00191201081887,163.43701361880352,5.040320619834813
-0.9899,-0.0539,0.0234,-0.0116,0.3476,-0.004,17.64,4.0862,5.9938,141.3343707851853,-86.42717993038382,84.30380220401076,5.052384917928585
-0.9675,-0.0498,-0.0001,-0.0113,0.3428,-0.001,21.2887,0.9713,12.4425,-166.97821146607805,-87.03017017413012,25.305512104935687,5.064608832263858
-0.949,-0.054,-0.0106,-0.0113,0.3428,-0.001,19.425,1.7413,18.34,-168.81103750010246,-86.6918792020537,74.41368960350061,5.07685539724094
-0.9485,-0.0442,-0.0134,-0.0149,0.3395,-0.0018,18.5937,2.975,21.4025,-163.39019392667268,-87.19772752219497,135.92957398080537,5.0890916986459525
-0.9187,-0.0457,-0.0403,-0.0194,0.3344,-0.0091,22.7763,2.4938,27.685,-139.53309424253507,-86.22905083672335,136.50364434195401,5.101294378004528
-0.8958,-0.0569,-0.0497,-0.0194,0.3344,-0.0091,29.7238,1.7062,34.3087,-138.884093813884,-85.20074887598575,136.7613012111584,5.113533156823489
-0.9141,-0.0503,-0.0645,-0.023,0.3303,-0.0078,33.6787,0.2713,37.9225,-128.24205661703124,-84.89272991875356,133.6782452192736,5.125715662954203
-1.0032,-0.003,-0.0289,-0.0292,0.3258,-0.0157,36.3387,0.7437,38.9113,-96.73558273362042,-88.27646322949212,131.37074756457488,5.135100106988891
-1.0631,0.0438,-0.0148,-0.0292,0.3258,-0.0157,37.8,-1.2163,41.1512,-20.555771891520763,-87.52362347432539,55.696503590040216,5.147337470142738
-1.1559,0.0806,-0.0253,-0.0364,0.318,-0.0178,36.925,-5.075,46.9087,-17.50406452402157,-85.84778396876429,20.290918559063023,5.1599945780026175
-1.2154,0.0592,-0.0247,-0.0364,0.318,-0.0178,39.7513,-10.255,58.5988,-22.52870359137392,-86.96338287859852,19.432553175785053,5.171842633250364
-1.1955,0.0263,-0.0412,-0.0485,0.3098,-0.023,53.48,-18.3137,74.9175,-56.83612499854904,-87.65095531318686,51.257971480768695,5.184124589855274
-1.137,-0.0439,-0.0916,-0.0582,0.3026,-0.0253,86.9225,-29.0412,96.2675,-114.957185402087,-84.91978888349499,107.92542347750249,5.196516260506447
-1.0609,-0.0439,-0.1528,-0.0582,0.3026,-0.0253,98.5513,-31.2287,94.08,-106.11694943001868,-81.50905844875493,99.77849495705668,5.20874442183706
-1.1081,0.0277,-0.1412,-0.07,0.2905,-0.0313,110.8013,-35.5337,92.5838,-79.13881552690373,-82.5911055459961,71.97914318278133,5.221134322906842
-1.0687,0.0435,-0.2181,-0.07,0.2905,-0.0313,126.8925,-42.4725,98.4025,-78.72358934007964,-78.28306197354398,70.31498977376738,5.233419110841978
-0.8734,0.0808,-0.307,-0.087,0.2816,-0.0414,140.3237,-44.2663,106.82,-75.2787030161485,-70.09336630334903,62.934919686440566,5.248696260909912
-0.8549,0.2242,-0.2884,-0.1034,0.2745,-0.0546,146.7812,-40.6437,109.655,-52.2926489891058,-66.88923119521311,38.50841567297717,5.261036613700736
-0.9595,0.3827,-0.0675,-0.1034,0.2745,-0.0546,165.7162,-42.105,108.815,-10.252624847374003,-67.9429410292258,0.2639929108644769,5.2734445645007115
-0.8906,0.5663,-0.2352,-0.1182,0.2715,-0.0685,220.9812,-74.6025,132.6675,-22.49968182208215,-55.53649565609044,7.7770616519690385,5.285818185421693
-0.8677,0.6086,-0.175,-0.1346,0.2661,-0.0871,221.2875,-76.2738,140.91,-16.071048372792582,-53.88814224821912,1.7836462030333773,5.298198176835685
-0.5884,0.6364,-0.2695,-0.1346,0.2661,-0.0871,211.0238,-73.9988,133.8575,-22.919423763881802,-40.501324889111686,4.6669788998106805,5.310529681719553
-0.4288,0.6825,-0.3057,-0.1479,0.2662,-0.1057,195.65,-64.855,122.6663,-24.122117842497087,-29.907234207426296,2.6439627744548435,5.322917105375387
-0.3364,0.6869,-0.3585,-0.1613,0.2654,-0.1096,172.41,-52.6837,114.2663,-27.540972452048624,-23.51868215905607,5.536865404270956,5.3353048829475
-0.2801,0.7003,-0.1956,-0.1613,0.2654,-0.1096,156.9837,-40.6963,107.8525,-15.679845642563341,-21.08806955620405,7.378165469456365,5.347688413524274
-0.4636,0.8132,-0.1241,-0.1749,0.2657,-0.1322,159.8013,-39.6025,102.3313,-8.7196500784806,-29.333067281059794,17.047463314737193,5.360008947003515
-0.3993,0.8438,-0.2591,-0.1749,0.2657,-0.1322,169.6537,-49.525,91.77,-17.02160346080655,-24.387559750488574,9.944131851092719,5.372366995608253
-0.4418,0.8323,-0.2621,-0.1864,0.2698,-0.1414,143.92,-31.6575,75.4688,-17.476655794837967,-26.825989543553014,10.11051435481236,5.384713364975808
-0.6583,0.8688,-0.1607,-0.1951,0.2734,-0.1575,129.8325,-26.1887,57.9513,-10.531873245621917,-36.55267681645506,17.20137771372213,5.3969995685760574
-0.7327,0.8952,-0.154,-0.1951,0.2734,-0.1575,122.5875,-27.3262,49.63,-9.767081879899552,-38.8541523510969,17.84128668323861,5.409425569106224
-0.7756,0.8836,-0.0737,-0.1976,0.2786,-0.165,109.2613,-24.6837,48.5713,-4.81222974691461,-41.14049645283181,22.35241302555997,5.4216636400926275
-0.803,0.913,-0.062,-0.203,0.2842,-0.1762,99.1463,-30.2313,46.06,-3.8939029115726727,-41.26477135575697,24.19232495638207,5.433950197609154
-0.8044,1.0329,-0.0099,-0.203,0.2842,-0.1762,82.9325,-35.1925,42.2537,-0.587797656170639,-37.968530166921546,27.23455777686221,5.4462484343628645
-0.7482,1.0421,-0.0228,-0.2045,0.2863,-0.1778,39.4975,-40.4337,50.9863,-1.2379248470759086,-35.70593172582638,27.09111489072235,5.458544193702626
-0.7034,1.0356,-0.0445,-0.2045,0.2863,-0.1778,17.7187,-43.82,66.5875,-2.403150617635302,-34.179622073814635,26.34628343621615,5.4707716472006815
-0.6497,0.9529,-0.0468,-0.2119,0.2838,-0.1758,-0.3938,-44.2663,85.5575,-2.6842513794131007,-34.25382411927961,25.479417357148968,5.483067406540444
-0.6552,0.8626,-0.0305,-0.2213,0.2759,-0.1727,-15.6625,-45.0625,98.1488,-2.0719076119806794,-37.175590655106,25.167931349139234,5.495447044038157
-0.7427,0.8267,-0.0129,-0.2213,0.2759,-0.1727,-30.4237,-42.9712,107.5375,-0.934847948360471,-41.893795007613406,25.630261061668325,5.507823850205644
-0.6913,0.8066,-0.0131,-0.2359,0.2652,-0.1654,-41.6937,-42.6825,114.695,-0.9305690684627821,-40.60469245289814,24.526763978738916,5.520106160726831
-0.6375,0.8164,-0.0564,-0.2472,0.2555,-0.1598,-48.685,-44.3275,118.7813,-3.8877632942630873,-37.93911624817448,21.650290538765272,5.535391804785444
-0.495,0.7054,-0.1466,-0.2472,0.2555,-0.1598,-55.195,-40.8013,123.9,-11.593876102213668,-34.51588973094914,16.153728913787454,5.547794092924966
-0.5287,0.667,-0.1698,-0.2646,0.2456,-0.151,-53.4538,-34.8862,138.495,-14.230712204210736,-37.510091866899074,12.887764106777844,5.560181162664523
-0.5286,0.5895,-0.1533,-0.2816,0.239,-0.1396,-45.2725,-34.7112,148.1375,-14.569019538560076,-40.93119578928405,11.005931118801469,5.572516206711173
-0.6095,0.563,-0.1289,-0.2816,0.239,-0.1396,-28.6825,-37.2487,152.53,-12.957507531106573,-46.507318028606974,12.087628441009807,5.584879210143807
-0.5618,0.4188,-0.1413,-0.3032,0.2344,-0.1432,-1.1987,-38.2112,152.1887,-16.274955770698902,-51.774415657182445,8.76391254673948,5.597239736162494
-0.3967,0.5072,-0.2658,-0.3032,0.2344,-0.1432,21.2362,-42.9888,146.265,-27.198648748199986,-34.81927229410745,2.6869396903855134,5.609576195874257
-0.4106,0.5525,-0.2289,-0.32,0.2305,-0.1442,31.3512,-37.2575,133.1662,-22.63847997120731,-34.47492587898162,6.089768445231602,5.621860629893114
-0.4873,0.6548,-0.1881,-0.3342,0.2338,-0.1504,43.89,-35.98,118.615,-16.166627762655825,-35.56672207981274,10.498621636387625,5.634180809456077
-0.4535,0.7258,-0.27,-0.3342,0.2338,-0.1504,83.9213,-51.2663,108.92,-20.356935979997505,-30.39630425458163,7.999049209791444,5.646534257149198
-0.4191,0.7781,-0.2987,-0.3474,0.2368,-0.155,105.525,-62.5363,100.4938,-20.995085963229542,-26.727334207779762,7.841358449928922,5.659037765344306
-0.3767,0.8363,-0.3736,-0.3517,0.2464,-0.1766,124.4075,-73.5875,86.2838,-24.047696263402504,-22.399003315634815,7.890432573921258,5.67116930753095
-0.3529,0.9278,-0.3832,-0.3517,0.2464,-0.1766,131.2062,-81.2525,71.925,-22.45352067356692,-19.40453498368464,9.129141085003829,5.683516384731061
-0.4625,1.1464,-0.3351,-0.3542,0.257,-0.1882,133.7,-88.7425,60.6813,-16.338838875000636,-21.14457601374497,13.85108403423336,5.695861692349782
-0.3422,1.1954,-0.3787,-0.3542,0.257,-0.1882,141.5137,-102.8038,53.83,-17.56954334836518,-15.350247154811692,13.59035071738917,5.708385373772751
-0.2189,1.2476,-0.436,-0.3518,0.2686,-0.1982,147.945,-117.2763,46.7775,-19.25186426870239,-9.50176112011104,13.857345607165815,5.72068184094507
-0.1082,1.3494,-0.4918,-0.3465,0.2778,-0.2156,125.09,-121.5113,27.5275,-20.018682570165883,-4.431895040584127,16.145537599172822,5.732989987354572
-0.0063,1.3887,-0.4942,-0.3465,0.2778,-0.2156,107.2313,-120.365,19.3725,-19.593115335422233,-0.3685056692814147,17.530746503037157,5.745380242340633
-0.0602,1.4523,-0.4473,-0.3363,0.2848,-0.227,95.5588,-120.925,16.94,-17.14348568415166,-2.2081503561618696,20.82547923212571,5.760549447943694
-0.1269,1.4348,-0.4339,-0.3274,0.2909,-0.2349,89.1363,-127.5838,25.06,-16.82934398849057,-4.7724970839501335,21.580553830232287,5.772960583990173
-0.0864,1.4018,-0.4026,-0.3274,0.2909,-0.2349,86.03,-141.4613,33.5825,-16.03316367203495,-3.4190021353848175,22.725209392886157,5.785231569190456
0.0346,1.4153,-0.4768,-0.3136,0.3026,-0.2394,81.7075,-152.1275,33.8187,-18.587839117825553,1.228942760351941,23.117435645901686,5.797519542372096
0.0119,1.4315,-0.4261,-0.3136,0.3026,-0.2445,60.1912,-145.705,30.4325,-16.607688512543,0.47368608000245643,25.454400252347487,5.809819548707197
-0.0132,1.4063,-0.3847,-0.3027,0.3038,-0.2445,22.2075,-136.8412,32.2262,-15.349938758376636,-0.4974837534268752,26.959025499937976,5.822164502409639
-0.0152,1.3147,-0.4265,-0.2932,0.3034,-0.2418,11.2613,-135.3537,36.47,-17.79696058036446,-0.6274753528650097,24.66777819987252,5.834442212019209
-0.0017,1.208,-0.4413,-0.2932,0.3034,-0.2418,-1.2425,-131.3375,39.1388,-19.10426756963009,-0.08602280247001753,22.741268258936973,5.846792828382104
-0.019,1.1458,-0.4463,-0.2865,0.3012,-0.2398,-6.2388,-128.6862,35.7175,-20.812157366043877,-0.8693214940277649,21.348978795730876,5.8591275185124765
-0.0692,1.1411,-0.4295,-0.2745,0.2979,-0.2369,-10.045,-127.155,33.2938,-20.64794922794173,-3.1986149118854055,21.621447231112825,5.871509633424137
-0.0567,1.0673,-0.4401,-0.2745,0.2979,-0.2369,-12.8362,-127.6538,33.8187,-22.25205525776716,-2.819724432959007,19.862730215288536,5.883830166903378
-0.0761,1.0399,-0.4495,-0.2626,0.2971,-0.233,-9.6075,-128.975,31.815,-23.236149393176795,-3.8208768946411484,18.53497441356135,5.896189277256951
-0.1039,0.9845,-0.4498,-0.251,0.2946,-0.231,-3.8063,-129.6925,26.8013,-23.95738438256011,-5.44286376064545,17.133072843281447,5.9084906992571655
-0.1401,0.9173,-0.4563,-0.251,0.2946,-0.231,13.0987,-133.875,21.7087,-26.29837433225474,-7.721961617725524,14.24293287059514,5.920836006875886
-0.1581,0.8757,-0.4885,-0.2391,0.2946,-0.2282,24.08,-135.1175,15.3475,-29.05131428562958,-8.91848910501408,10.782021129593142,5.933127519220308
-0.2377,0.9025,-0.4769,-0.2391,0.2946,-0.2282,32.6113,-136.7625,7.6475,-27.88601136742597,-12.919455421980345,11.461753534743643,5.945414784569392
-0.2198,0.9099,-0.5104,-0.2271,0.295,-0.2265,41.6063,-140.8488,-1.1375,-29.258788902718894,-11.97373850265124,10.13177745322664,5.957727531890511
-0.2446,0.9464,-0.5073,-0.2066,0.3029,-0.2282,50.4525,-145.0838,-10.15,-28.212423985676732,-12.634942899854677,11.511242550261503,5.970165919490418
-0.3788,1.0109,-0.4637,-0.2066,0.3029,-0.2282,57.19,-150.885,-15.7937,-24.699683951042626,-16.935985291699513,14.423709413627689,5.982526091592826
-0.3071,1.0131,-0.4906,-0.19,0.307,-0.2266,64.5488,-160.58,-20.265,-25.822159588378064,-15.475950924008815,13.96958735528124,5.994870337462711
-0.2176,1.0025,-0.5428,-0.1702,0.3142,-0.227,63.315,-169.225,-30.8612,-28.394149169161135,-11.060589218466207,11.820635348845059,6.007306601564947
-0.1612,0.9614,-0.5469,-0.1702,0.3142,-0.227,54.8013,-166.9062,-28.805,-29.612500542888643,-8.461749338266149,10.615250093569609,6.019706412290522
-0.3127,0.8963,-0.4828,-0.1473,0.3209,-0.2186,52.6575,-166.9763,-22.0237,-28.33268407189381,-16.1704226800624,9.012262162042202,6.032048888579016
-0.3988,0.8664,-0.4424,-0.1473,0.3209,-0.2186,61.0575,-178.1412,-13.6062,-27.06954718127632,-16.774110907940944,9.790604741169357,6.044384640458223
-0.4555,0.8807,-0.3775,-0.1287,0.3252,-0.2124,70.98,-194.6875,-3.8675,-23.25359310901648,-24.611251032511035,13.435696977210382,6.059558446972901
-0.4548,0.8123,-0.4452,-0.1087,0.3298,-0.2056,76.0725,-207.3925,5.2588,-28.657287411412977,-26.072433961882968,4.679716627220316,6.0718439427405935
-0.3949,0.8269,-0.4191,-0.1087,0.3298,-0.2056,70.0613,-207.2612,2.6513,-26.901548229634,-23.247862300134425,7.743307297822419,6.084129438508286
-0.3573,0.9005,-0.4078,-0.0871,0.3331,-0.1863,48.1862,-202.6237,-30.6075,-24.41285204578219,-20.05848299477693,8.689995707317369,6.096527479652469
-0.3581,1.0174,-0.3891,-0.0633,0.3363,-0.1806,40.9238,-202.3175,-29.1025,-21.007371727302377,-18.310463335136912,15.194466657603563,6.108918088554808
-0.275,0.95,-0.2929,-0.0633,0.3363,-0.1806,33.11,-204.19,-16.2838,-17.24083513782717,-16.21470813565836,24.508638565393017,6.121303034796695
-0.2274,0.9384,-0.3087,-0.0455,0.3396,-0.1622,32.1825,-211.1112,-11.2175,-18.18228681194555,-13.95473655797463,20.54610352253636,6.133689750619974
-0.2068,0.9193,-0.2966,-0.0283,0.3389,-0.148,22.3563,-208.8537,-8.9075,-17.893194551423313,-12.41859209477316,19.365853560511574,6.14597843163417
-0.2346,0.9053,-0.2255,-0.0283,0.3389,-0.148,11.7337,-202.7725,-3.78,-14.241846692629633,-13.956518574571502,27.89140506860266,6.158315953094768
-0.2391,0.879,-0.19,-0.0165,0.3351,-0.1243,9.2312,-201.8975,3.1325,-12.356471950053393,-14.836081575233909,25.394024033811288,6.170533143020753
-0.2072,0.8425,-0.1748,-0.0165,0.3351,-0.1243,-0.77,-192.8412,10.6662,-11.945818749510016,-13.590939448634167,28.48619856812956,6.182861462658117
-0.196,0.8762,-0.1664,-0.0042,0.3325,-0.105,-4.4187,-187.8013,10.1675,-11.176062654839036,-12.443095451617307,27.67383845720249,6.195157575914157
-0.1964,0.8815,-0.1211,0.0048,0.329,-0.0827,-8.5487,-180.4075,11.0075,-8.304877061710187,-12.447082278912205,28.648394759490635,6.207447672593467
-0.213,0.8846,-0.074,0.0048,0.329,-0.0827,-11.4975,-176.3737,11.515,-5.137780726654442,-13.452745798873758,36.777703567024204,6.219824832677232
-0.2031,0.8761,-0.0506,0.0092,0.3238,-0.0614,-14.9713,-171.0187,10.5262,-3.442521604172843,-13.047802742343816,33.38915662091692,6.232115991105377
-0.1778,0.8238,-0.0831,0.0138,0.3193,-0.0469,-15.6538,-166.1887,8.1462,-5.595268357054318,-12.160595392186618,15.202793629969085,6.244358663003398
-0.149,0.8479,-0.0485,0.0138,0.3193,-0.0469,-12.8013,-159.32,5.0313,-3.4809948757559734,-10.063948333397207,34.152415429517006,6.256638142194359
-0.1253,0.9138,0.0067,0.0161,0.3154,-0.0264,-10.29,-152.6087,2.1613,-0.028779485303445443,-7.942941697098124,46.818089346297086,6.268888600250502
-0.1102,0.9542,0.0368,0.0161,0.3154,-0.0264,-4.445,-136.1763,-2.5463,1.4224403090556366,-6.696815955975406,62.43175426332359,6.281124547739236
-0.1518,1.0287,0.115,0.0194,0.313,-0.0151,-7.0175,-127.26,-6.6588,5.464004791389633,-8.133001866304463,62.69511345632704,6.293379606706997
-0.1498,1.0649,0.1291,0.0232,0.3123,0.0071,-11.27,-120.7588,-9.0125,6.762589623511945,-7.983229173910109,56.79974855776575,6.305567421581886
-0.1371,1.029,0.1679,0.0232,0.3123,0.0071,-17.6662,-111.8075,-11.5412,9.111295836600558,-7.6577093696635,68.0781082307943,6.317860349591422
-0.1016,0.9898,0.1668,0.023,0.3133,0.0218,-22.645,-102.6025,-17.1588,9.543963807278441,-6.182596052737624,74.23637800533919,6.330147261024227
-0.0617,0.9279,0.1466,0.023,0.3133,0.0218,-24.1238,-93.9488,-19.775,9.003142478113743,-4.090927084380822,94.89054692822576,6.342388163340857
-0.0384,0.8635,0.1407,0.026,0.3114,0.0366,-22.2687,-85.5488,-21.28,9.242368590633225,-2.692807874053425,130.83544160175498,6.354553327573936
-0.0346,0.8245,0.1141,0.0277,0.3126,0.0434,-16.8087,-76.3088,-22.2162,7.968585287641152,-2.4124881224863506,175.47516345914102,6.366735479788373
-0.04,0.8354,0.1139,0.0277,0.3126,0.0434,-7.9012,-67.48,-23.6688,7.79641366788016,-2.6890228223621073,176.50809217776785,6.376085593944068
-0.0814,0.8722,0.1547,0.0288,0.3139,0.0492,-2.905,-58.485,-23.555,8.326233800061777,-5.01871351466122,82.13000371197472,6.388291812465427
-0.1294,0.899,0.1701,0.0288,0.3139,0.0492,-0.0088,-41.7112,-20.7375,10.049132888499566,-7.682035511603338,33.269707400993354,6.40048918307983
-0.1736,0.9089,0.1622,0.0303,0.3133,0.0581,0.8138,-37.0387,-17.2725,10.102660145311031,-10.02770853556434,3.2667913073103048,6.412524813955061
-0.1709,0.9274,0.1904,0.0306,0.3144,0.0602,0.4288,-34.4925,-17.3862,11.22968240178366,-10.190593248185946,8.707207442011862,6.424659895304487
-0.1892,0.9764,0.1738,0.0306,0.3144,0.0602,-2.4325,-31.2112,-17.465,11.067415430151705,-10.677963317890661,7.429114107302019,6.436885225304873
-0.1645,0.9219,0.1781,0.0299,0.3139,0.0662,-6.1425,-27.3262,-12.705,10.963486787031863,-10.350610674505957,11.744130816484388,6.449058529612352
-0.1765,0.9434,0.1873,0.0299,0.3139,0.0662,-5.4513,-25.7512,-10.255,11.16031426669074,-10.387221175432979,7.757720229198323,6.46119750404084
-0.1778,0.9201,0.195,0.0293,0.3138,0.0622,-7.56,-20.4487,-9.4675,11.830706147835635,-10.641755921994505,7.124663322971996,6.473331169725153
-0.1878,0.9204,0.2371,0.0284,0.3125,0.069,-7.3938,-16.1875,-10.815,13.99437275095453,-11.03173180091997,17.458160073547404,6.482626072941438
-0.1638,0.9398,0.2721,0.0284,0.3125,0.069,-7.4463,-11.1475,-13.8687,15.779106226658442,-10.617599195206058,38.10020855870154,6.494809640820987
-0.1102,0.9252,0.261,0.0291,0.3138,0.0726,-9.5725,-3.5875,-16.7125,15.75699236047682,-7.506908675697879,58.464788365781466,6.506900836551908
-0.0625,0.9399,0.2363,0.0291,0.3138,0.0726,-11.4275,4.2088,-21.1312,14.279584038397584,-4.1319425627333395,124.88402183544449,6.519018929919977
-0.0561,0.9395,0.2682,0.0286,0.3162,0.0697,-13.6675,16.1437,-22.925,15.795545503341458,-3.3673431887391203,117.3712491007884,6.531214177036709
-0.0669,0.9426,0.294,0.031,0.3159,0.0677,-14.665,39.1475,-22.0062,17.205976572495246,-3.822628794407144,107.57816712244117,6.543447647111495
-0.0604,0.9778,0.355,0.031,0.3159,0.0677,-18.6287,51.8,-22.3825,19.79256841204765,-3.373572159615801,105.71379850636647,6.555599716442278
-0.0311,1.012,0.3693,0.0336,0.321,0.0638,-25.375,64.155,-23.4937,20.03733836329413,-1.8100201050535265,115.6710405452674,6.56772736554986
0.0573,0.9999,0.2963,0.0336,0.321,0.0638,-32.6725,78.6538,-22.4875,16.619758273810394,2.6489521242113754,149.28667187382325,6.579886159289931
0.0839,0.9897,0.2774,0.0342,0.3214,0.0559,-37.6512,97.0725,-20.0112,15.68418233010488,4.398062638288806,151.42564088740434,6.589125497650527
0.0751,0.9824,0.2835,0.035,0.3214,0.0426,-44.765,115.6138,-16.8612,16.087464537062953,4.2459467261742185,140.56571164257025,6.601309065530077
-0.0503,0.9585,0.3102,0.035,0.3214,0.0426,-51.7825,133.1225,-13.5887,17.896392517998752,3.6478549411911287,108.30442782671297,6.6135074978933135
-0.0576,0.9044,0.2901,0.0342,0.3228,0.0279,-58.275,147.3675,-7.9713,17.78640582872599,-2.3796081668661553,101.81936294957812,6.626005697344248
-0.0218,0.8868,0.2466,0.0342,0.3228,0.0279,-62.02,156.625,-3.7888,15.577282297537154,-1.4522688664020054,114.01251849315254,6.637852336926882
0.02,0.9004,0.2211,0.031,0.3226,0.0114,-64.8288,165.9438,1.1462,13.824596788173075,1.0639280320469104,119.82343656571376,6.650005821922778
0.0509,0.9048,0.1895,0.023,0.3185,-0.0016,-66.9813,176.9337,7.8138,11.859488157226957,3.058001540737872,120.93997873288482,6.662019156072478
0.1635,0.827,0.0194,0.023,0.3185,-0.0016,-67.2263,189.1925,16.24,1.5040474348482211,10.916052869290695,173.58018171537765,6.674165562742809
0.1111,0.8134,-0.0145,0.0135,0.3118,-0.0192,-69.4313,216.9475,31.5613,-0.9840409085965153,7.844683378113146,166.25169962125463,6.686455659422119
0.0151,0.814,0.0043,0.0135,0.3118,-0.0192,-64.3388,227.4125,40.705,0.2821566872388674,1.185578800797734,132.90899165232943,6.698655507450469
-0.0528,0.8325,0.0178,0.0011,0.3058,-0.0394,-56.98,230.825,49.2625,1.2078538349840673,-3.552707316726979,68.66629266426682,6.710784572223164
-0.1014,0.8624,-0.0051,-0.0172,0.297,-0.0624,-49.8138,231.8575,55.0112,-0.3067487737622452,-6.660501862597119,49.5757092527808,6.723167394967382
-0.1281,0.8673,-0.0357,-0.0172,0.297,-0.0624,-44.52,234.0975,56.0088,-2.309321112936938,-8.370222586807662,39.58982175938575,6.735549509879043
-0.1323,0.898,-0.0545,-0.0327,0.2882,-0.0851,-40.2675,237.23,50.8987,-3.4429502592519845,-8.365841455066382,41.98743803403749,6.747861549367605
-0.1408,0.9393,-0.0654,-0.0558,0.2812,-0.1041,-35.9538,239.9162,45.8325,-3.9671504580988364,-8.502506890422433,40.78745970071753,6.760203671739821
-0.137,0.9521,-0.1073,-0.0558,0.2812,-0.1041,-32.2262,239.3038,45.3162,-6.349589210175453,-8.143513395678372,36.74319174829659,6.772483150930783
-0.1241,0.9534,-0.1136,-0.077,0.2754,-0.1213,-28.315,236.3112,44.9225,-6.778231808403342,-7.377838343723175,37.799135093897064,6.7848291663820595
-0.0841,0.9477,-0.1378,-0.077,0.2754,-0.1213,-17.3425,231.9275,33.53,-8.178142796594459,-5.067828416043156,38.228030275317614,6.7971086455730205
-0.0584,1.008,-0.1515,-0.1022,0.2694,-0.143,-14.9975,230.125,23.1525,-8.519879186341177,-3.326574539394024,40.53856218245257,6.8094589080196375
-0.0224,1.1009,-0.1622,-0.1243,0.2667,-0.1548,-17.9988,230.79,16.87,-8.389767137844986,-1.2224794213719414,41.3041972243452,6.821781211080269
0.1211,1.1165,-0.216,-0.1243,0.2667,-0.1548,-21.77,231.4113,8.7762,-10.822385024071643,5.764777847281926,47.499757293285036,6.83399344617836
0.1988,1.1527,-0.2525,-0.1455,0.2672,-0.1677,-24.5525,234.4475,-2.5813,-12.288746501770634,9.244081031173836,48.55366598878817,6.846282481108834
0.2488,1.1635,-0.3076,-0.1678,0.2662,-0.1833,-31.535,241.7537,-14.3238,-14.724567691711876,10.346949026738471,46.74699184262072,6.858615047741536
0.301,1.1673,-0.3631,-0.1678,0.2662,-0.1833,-44.5638,251.5012,-20.3525,-17.219363428465332,13.38870452433691,47.10707183576149,6.870913638411525
0.4063,1.2216,-0.3747,-0.1912,0.2646,-0.187,-55.65,266.8838,-16.31,-17.055380125629622,16.52464227007229,48.68019165597411,6.883259299946523
0.4141,1.21,-0.4114,-0.1912,0.2646,-0.187,-64.0063,267.505,-5.7225,-18.75042982048934,17.790318005606945,46.85850488595913,6.895542318300268
0.4883,1.1805,-0.4428,-0.2214,0.2582,-0.1906,-61.5387,263.1563,2.765,-20.530628362322307,20.9750209011369,42.761143658043146,6.907742520244897
0.4755,1.1976,-0.4454,-0.2482,0.2541,-0.1939,-55.3175,259.4025,7.5425,-20.403114451403436,20.43781053990549,36.50809104592599,6.919951570096481
0.4033,1.2203,-0.4512,-0.2482,0.2541,-0.1939,-59.255,259.1575,14.4025,-20.293562462007333,17.33375514134143,32.6131463687936,6.932264671333879
0.3548,1.1794,-0.4133,-0.2777,0.2495,-0.1953,-63.7612,260.2075,19.32,-19.327903920380415,15.893322470250137,28.81112101146253,6.94452787037604
0.3229,1.1628,-0.4128,-0.3082,0.2456,-0.1892,-64.89,256.97,20.5625,-19.541692781431884,14.699953320673457,23.291465907533365,6.956828938459976
0.295,1.1703,-0.3857,-0.3082,0.2456,-0.1892,-58.8263,251.93,20.1688,-18.26358723859702,13.499176807461849,23.932801046710924,6.9691409779485385
0.3828,1.1647,-0.3994,-0.3336,0.2426,-0.1854,-51.275,246.7762,16.765,-18.91454113548999,17.1496507363044,22.577863332007833,6.981350381716402
0.4138,1.2098,-0.4199,-0.3336,0.2426,-0.1854,-47.8362,252.2187,-12.1275,-19.13607847226238,17.587467751877195,22.723487436018555,6.993692858004897
0.4247,1.2481,-0.4057,-0.3579,0.2412,-0.1755,-55.9475,262.5263,-27.1425,-18.02773966763754,17.908572426698168,20.048057479935927,7.006027548135268
0.4085,1.2736,-0.365,-0.3782,0.2364,-0.1712,-63.3413,266.9363,-35.5337,-16.02470648550331,17.169732691797687,19.51961041276709,7.018360468684249
0.466,1.3066,-0.3624,-0.3782,0.2364,-0.1712,-68.9763,266.5425,-39.4712,-15.509703091811998,18.900020574177304,20.739179196056572,7.0310653552416955
0.5086,1.2862,-0.3839,-0.3953,0.2351,-0.1625,-70.9188,266.9013,-42.7088,-16.603104442569446,20.690905641545395,17.944191148658195,7.042980654582314
0.4621,1.3146,-0.3409,-0.4098,0.2306,-0.1482,-73.5963,268.275,-46.3662,-14.566319626135009,18.847436485967997,15.72583788845649,7.0553135751312945
0.3964,1.3058,-0.3404,-0.4098,0.2306,-0.1482,-80.1063,270.5675,-48.9475,-14.61030344224146,16.43819991166404,14.929138739463736,7.067656405336067
0.4605,1.1808,-0.3825,-0.4226,0.2266,-0.1342,-86.8175,283.5438,-61.0488,-17.90967004810979,20.274669104113173,10.689736005257815,7.0799220817921755
0.4803,1.1636,-0.4085,-0.4226,0.2266,-0.1342,-98.1488,285.9763,-68.5563,-19.329562306441264,21.261375989141243,9.753887980842915,7.092284377392254
0.3963,1.1696,-0.4062,-0.4314,0.2203,-0.117,-102.3925,286.5538,-73.2813,-19.1537847224928,17.806607018226067,6.511030211987695,7.104660475727183
0.3319,1.1436,-0.4006,-0.4381,0.2128,-0.0982,-103.6175,286.58,-75.3988,-19.303735850723765,15.357461798911311,3.5503149793142827,7.117054623792305
0.2421,1.0414,-0.4214,-0.4381,0.2128,-0.0982,-103.1713,286.58,-76.58,-22.00375242873488,12.211189378399155,1.700595276637015,7.1293857747598945
0.2521,1.0049,-0.4425,-0.4418,0.2068,-0.083,-104.79,286.58,-75.9588,-23.74884795262523,12.919480471702721,1.1004487613515124,7.1417756758296775
0.2343,1.0133,-0.4371,-0.4433,0.1978,-0.0646,-104.3,286.58,-75.8625,-23.337617421572446,12.001415864010559,2.783162739529781,7.1541800874668695
0.2663,0.986,-0.487,-0.4433,0.1978,-0.0646,-110.7225,286.58,-73.1938,-26.258434411237488,13.585853143232573,4.431760484768984,7.166571758118043
0.2562,0.9833,-0.5255,-0.4421,0.1933,-0.044,-117.9413,286.58,-68.8888,-28.10514596259321,12.952973375995796,7.665179507678001,7.17896909142967
0.1937,1.0422,-0.4882,-0.4421,0.1933,-0.0208,-123.7338,286.58,-59.8237,-25.124508842609124,9.625527635003142,8.850286029399312,7.194199878465151
0.1469,1.0522,-0.4904,-0.4431,0.186,-0.0208,-127.1725,286.58,-42.3063,-24.98994567746853,7.29301724106193,8.146460326873475,7.206582701209368
0.0444,1.0429,-0.4727,-0.4433,0.1778,-0.0026,-125.8688,286.58,-22.0062,-24.387551177544488,2.7540194068595105,9.235935687083241,7.21897897277216
-0.0057,1.0149,-0.5004,-0.4433,0.1778,-0.0026,-119.385,285.74,-1.8812,-26.22998714801339,-0.04743314106243669,9.746236482003333,7.231283580018879
-0.0254,0.9566,-0.5176,-0.4492,0.1738,0.0162,-111.1513,280.6825,16.94,-28.39710305921516,-1.2967389125919913,12.086395746051448,7.243642336456173
-0.1015,0.9393,-0.5022,-0.4599,0.1695,0.0342,-96.7838,272.4838,34.0812,-28.13413441452451,-5.358146592836885,13.16474692043664,7.25591863040063
-0.0466,0.822,-0.5462,-0.4599,0.1695,0.0342,-94.4038,273.8138,31.1675,-33.544189192983765,-2.7614887582178955,14.72442972311425,7.268202710503209
-0.1024,0.8253,-0.5062,-0.4619,0.169,0.0544,-100.0563,275.7738,21.035,-31.543513143617204,-5.945313516743615,15.943030928366351,7.280707988279709
-0.2016,0.8679,-0.4806,-0.4655,0.1661,0.0689,-102.935,274.155,16.205,-29.000851966105106,-11.306125533584233,16.389551349536045,7.292849440122144
-0.2175,0.8824,-0.4793,-0.4655,0.1661,0.0689,-96.7575,268.1,21.0525,-28.514982743213864,-12.195549869134732,16.277247695051905,7.305121487071262
-0.2148,0.8866,-0.4724,-0.4714,0.1646,0.0913,-87.9375,257.18,30.3887,-28.055062927368613,-12.071865254761695,18.126236443493568,7.317409460252902
-0.1647,1.021,-0.431,-0.4714,0.1646,0.0913,-75.5913,244.2738,39.0075,-22.956173226438317,-8.520701422511223,17.04250532882324,7.329692124690368
-0.1621,0.957,-0.5621,-0.4714,0.1648,0.1073,-68.7663,230.1338,43.9075,-30.316871730193885,-8.313112627740875,20.154639285471198,7.341940813165119
-0.2987,0.9376,-0.3547,-0.4778,0.1647,0.1202,-55.7638,212.2575,59.8587,-20.89909016684971,-16.481129257068567,19.2202553018905,7.354224539351421
-0.4047,0.9024,-0.3049,-0.4778,0.1647,0.1202,-33.0925,192.675,57.3563,-18.739730374621633,-22.928384224908463,18.932668583829248,7.3664912775563645
-0.3571,0.853,-0.3712,-0.4831,0.1658,0.1285,-24.1763,181.0375,50.3213,-23.305623047805568,-21.02994071889063,20.681863562719144,7.378808271872822
-0.3133,0.738,-0.3637,-0.4831,0.1658,0.1362,-19.7488,176.82,38.9637,-26.07353130764934,-20.850010451442593,22.02583913422808,7.39116667439384
-0.2084,0.734,-0.3646,-0.4856,0.1658,0.1362,-4.7688,164.6138,20.9913,-26.30726032842775,-14.452356570625915,21.685543764473632,7.403250437882916
-0.1859,0.9734,-0.3522,-0.4839,0.1642,0.1385,9.6775,152.8887,4.83,-20.374617738747993,-10.402007949213488,20.60248314378607,7.415393659306742
-0.2402,1.005,-0.2913,-0.4839,0.1642,0.1385,14.7788,145.95,-0.2013,-16.39336981253807,-12.751885781769053,19.738813259944532,7.427619697139685
-0.2641,1.0075,-0.2781,-0.4787,0.1622,0.139,18.0338,134.5137,1.1287,-15.475572727465075,-14.089452971002233,19.751388663911307,7.437520505024373
-0.2829,1.0422,-0.3082,-0.4784,0.1588,0.1364,28.4725,118.5013,0.035,-16.442900973708014,-14.55593636157225,19.68186976496532,7.449047204291448
-0.2727,1.059,-0.3293,-0.4784,0.1588,0.1364,35.1487,104.6238,-0.9363,-17.251846185396964,-13.869248405341105,19.859636163499403,7.4612912918545815
-0.3104,1.06,-0.3006,-0.4749,0.1574,0.1334,31.395,88.1038,-8.4787,-15.873094606197839,-15.423850486324866,19.33545777909623,7.47347521365041
-0.2651,1.0517,-0.3465,-0.4749,0.1574,0.1334,32.1388,76.825,-14.42,-18.169225308816525,-14.482905412472416,19.860406519576735,7.485733457864675
-0.2761,1.0602,-0.3494,-0.4763,0.155,0.1345,32.515,68.2063,-17.9463,-18.238211744543577,-14.000884317430978,19.87345244822188,7.497904638674485
-0.3239,1.0727,-0.3333,-0.4724,0.1524,0.128,31.3775,57.9337,-23.3625,-17.288559745454226,-15.893123286220499,19.10881357369869,7.51015474281435
-0.3486,1.1053,-0.3211,-0.4724,0.1524,0.128,26.88,49.7088,-30.4325,-16.234821115603484,-16.796535155951414,18.86876251817699,7.522381488479849
-0.4136,1.1278,-0.3253,-0.4676,0.1504,0.1259,21.9975,39.9263,-33.7313,-16.095228915313985,-19.287648413794145,18.81349930772544,7.534613542889521
-0.383,1.1165,-0.3494,-0.4676,0.1504,0.1259,18.76,29.8638,-36.33,-17.319773887169585,-18.17609374704617,19.067149530455602,7.546865416610777
-0.347,1.0764,-0.3737,-0.4626,0.1479,0.1233,14.0787,21.4463,-36.3563,-19.04246913997747,-16.98948042003372,19.277443157405557,7.559035181755474
-0.3068,1.0352,-0.3972,-0.4598,0.1459,0.1217,10.57,12.5387,-36.3825,-20.85395077127762,-15.530463672028048,19.504265204538118,7.571288117225566
-0.3039,1.037,-0.4261,-0.4598,0.1459,0.1217,9.1087,3.4913,-41.0112,-22.22085246483066,-15.179254054137353,19.71368034724266,7.583434523895897
-0.3449,1.0249,-0.4168,-0.4551,0.1469,0.1209,1.5837,-8.7412,-41.475,-22.147762710234684,-17.240113195389156,19.91190274303913,7.595548370268626
-0.4208,1.0149,-0.3894,-0.4551,0.1469,0.1209,0.665,-19.2325,-39.7075,-21.26225750603037,-21.017625147439418,19.858616796488363,7.607730168566785
-0.4716,0.9815,-0.3883,-0.4519,0.1469,0.1184,4.8738,-32.165,-36.715,-21.546635388349497,-23.948600986049794,20.01250239131966,7.6171390328246735
-0.4241,0.9235,-0.4106,-0.4497,0.1442,0.1178,7.7613,-43.47,-37.2663,-23.75718108984926,-22.811936236190316,20.384285303673657,7.629367194155286
-0.2986,0.8713,-0.4707,-0.4497,0.1442,0.1178,7.0088,-49.8838,-43.5575,-27.94341516759012,-16.973360315339242,20.885181421077238,7.641630747113725
-0.288,0.8476,-0.4912,-0.4442,0.1442,0.115,7.1487,-56.1925,-47.8013,-29.893079208482277,-16.39923981288681,21.1024157473971,7.6537845860259
-0.3035,0.8402,-0.48,-0.4442,0.1442,0.1083,9.3362,-63.7612,-46.2525,-29.750917006830257,-17.383879991479915,20.40908871110465,7.666030797086703
