AcclX,AcclY,AcclZ,MagX,MagY,MagZ,GyroX,GyroY,GyroZ,Roll,Pitch,Yaw,Time Elapsed(s)
-0.1964,1.0197,-0.0281,0.2027,0.2135,0.095,-0.525,-1.0237,-6.125,0,0,0,0.0
-0.1978,1.0183,-0.0312,0.201,0.2122,0.0961,-0.525,-1.0237,-6.125,0,0,0,0.0
-0.1992,1.0198,-0.0296,0.201,0.2122,0.0961,-0.3675,-0.5775,-5.8888,0,0,0,0.014999999999417923
-0.1992,1.0198,-0.0296,0.2004,0.2142,0.0904,-0.1925,-0.9013,-6.16,0,0,0,0.014999999999417923
-0.1992,1.0199,-0.0287,0.2004,0.2142,0.0904,-0.3762,-1.1025,-6.3088,0,0,0,0.030999999995401595
-0.2012,1.0194,-0.0326,0.2004,0.2142,0.0904,-0.3762,-1.1025,-6.3088,0,0,0,0.030999999995401595
-0.2025,1.0232,-0.0318,0.2012,0.215,0.1006,0.035,-1.1725,-6.335,0,0,0,0.046000000002095476
-0.1997,1.0225,-0.0328,0.2012,0.215,0.1006,0.2275,-1.75,-6.86,0,0,0,0.06199999999807915
-0.1997,1.0244,-0.0363,0.2026,0.2133,0.0896,0.2275,-1.75,-7.1663,0,0,0,0.06199999999807915
-0.1995,1.0244,-0.0363,0.2026,0.2133,0.0896,0.1925,-1.7938,-7.1663,0,0,0,0.06199999999807915
-0.1976,1.0261,-0.0392,0.2015,0.2146,0.0894,-0.3938,-1.9688,-7.3763,0,0,0,0.07800000000133878
-0.1938,1.0273,-0.038,0.2015,0.2146,0.0894,-0.5863,-1.8813,-8.0675,0,0,0,0.09299999999348074
-0.191,1.0286,-0.0363,0.2015,0.2146,0.0894,-0.5863,-1.8813,-8.0675,0,0,0,0.09299999999348074
-0.1906,1.025,-0.0398,0.2037,0.2162,0.1009,-0.6913,-1.2775,-7.8663,0,0,0,0.10899999999674037
-0.1906,1.025,-0.0398,0.2037,0.2162,0.1009,-0.6737,-0.5775,-7.6038,0,0,0,0.10899999999674037
-0.1903,1.0277,-0.0377,0.2028,0.2151,0.0922,-1.05,-0.6037,-7.6475,0,0,0,0.12400000000343425
-0.188,1.0238,-0.0407,0.2028,0.2151,0.0922,-1.05,-0.6037,-7.6475,0,0,0,0.12400000000343425
-0.1916,1.0265,-0.041,0.2028,0.2151,0.0922,-1.715,0.2275,-7.7263,0,0,0,0.13999999999941792
-0.1921,1.0273,-0.0441,0.204,0.2155,0.0929,-1.3563,0.4812,-7.3587,0,0,0,0.13999999999941792
-0.1921,1.0331,-0.0439,0.204,0.2155,0.0929,-1.0412,0.805,-8.2163,0,0,0,0.15600000000267755
-0.1964,1.0331,-0.0439,0.2037,0.2162,0.0943,-1.0412,0.805,-8.2163,0,0,0,0.15600000000267755
-0.1989,1.0271,-0.042,0.2037,0.2162,0.0943,-2.31,0.8313,-7.6912,0,0,0,0.17099999999481952
-0.2083,1.0208,-0.0449,0.2037,0.2162,0.0943,-2.4762,0.4025,-7.9187,0,0,0,0.17099999999481952
-0.21,1.0159,-0.0418,0.2055,0.2148,0.0978,-2.2575,0.595,-7.8488,0,0,0,0.18699999999807915
-0.2058,1.0014,-0.035,0.2055,0.2148,0.0978,-2.2575,0.595,-7.8488,0,0,0,0.18699999999807915
-0.2058,1.0014,-0.035,0.2056,0.2171,0.0951,-1.2687,-0.6475,-7.2187,0,0,0,0.20199999999749707
-0.1918,0.9836,-0.0303,0.2056,0.2171,0.0951,-0.2187,-1.33,-6.8688,0,0,0,0.20199999999749707
-0.1827,0.9745,-0.0224,0.2056,0.2171,0.0951,2.0213,-1.4262,-4.97,0,0,0,0.2180000000007567
-0.1706,0.976,-0.0116,0.2046,0.2132,0.0942,0.8575,-1.4262,-4.97,0,0,0,0.2180000000007567
-0.1592,0.978,-0.0074,0.2046,0.2132,0.0942,0.5688,-0.5337,-2.8963,0,0,0,0.23400000000401633
-0.1592,0.9936,-0.0056,0.2048,0.2166,0.0946,-0.0875,0.0787,-1.5838,0,0,0,0.23400000000401633
-0.1576,0.9934,-0.0056,0.2048,0.2166,0.0946,-0.0875,0.0787,-1.5838,0,0,0,0.2489999999961583
-0.1561,1.0033,0.0003,0.2029,0.2174,0.0958,-1.2075,1.2862,-1.4612,0,0,0,0.2489999999961583
-0.1615,1.0161,-0.0038,0.2029,0.2174,0.0958,-1.2775,2.4938,-1.9688,0,0,0,0.2649999999994179
-0.172,1.0167,-0.0043,0.2029,0.2174,0.0958,-1.2513,3.0275,-3.8937,0,0,0,0.2649999999994179
-0.181,1.0189,-0.0049,0.203,0.2146,0.0922,-1.2513,3.0275,-3.8937,0,0,0,0.27999999999883585
-0.181,1.0189,-0.0049,0.203,0.2146,0.0922,-1.1988,3.4738,-6.09,0,0,0,0.27999999999883585
-0.1886,1.02,-0.004,0.205,0.2155,0.0966,-1.295,3.5612,-8.1725,0,0,0,0.2960000000020955
-0.1975,1.0206,-0.0114,0.205,0.2155,0.0966,-0.2537,3.4562,-9.9838,0,0,0,0.2960000000020955
-0.2118,1.0241,-0.0143,0.205,0.2155,0.0966,-0.2537,3.4562,-9.9838,0,0,0,0.3120000000053551
-0.2263,1.027,-0.0224,0.2063,0.2192,0.0828,-0.5163,2.7738,-11.6812,0,0,0,0.3120000000053551
-0.2263,1.027,-0.0246,0.2063,0.2192,0.0828,0.3762,1.61,-12.6875,0,0,0,0.32699999999749707
-0.2319,1.0264,-0.0246,0.2054,0.2172,0.0917,0.9975,0.7875,-13.86,0,0,0,0.32699999999749707
-0.2397,1.0284,-0.0295,0.2054,0.2172,0.0917,0.9975,0.7875,-13.86,0,0,0,0.3430000000007567
-0.2494,1.0315,-0.0278,0.2054,0.2172,0.0917,1.1025,-0.5863,-14.175,0,0,0,0.3430000000007567
-0.2558,1.037,-0.0316,0.2088,0.219,0.0879,1.225,-2.6775,-14.4462,0,0,0,0.3580000000001746
-0.2564,1.0402,-0.0315,0.2088,0.219,0.0879,0.525,-4.2875,-14.7788,0,0,0,0.3580000000001746
-0.2564,1.0402,-0.0315,0.209,0.2198,0.0909,0.525,-4.2875,-14.7788,0,0,0,0.3739999999961583
-0.2588,1.0369,-0.031,0.209,0.2198,0.0909,-0.2275,-5.6788,-14.3238,0,0,0,0.6549999999988358
-0.2595,1.0363,-0.0335,0.209,0.2198,0.0909,-1.225,-6.7987,-13.65,0,0,0,0.6549999999988358
-0.2594,1.0363,-0.0358,0.2108,0.22,0.0893,-1.225,-6.7987,-12.4163,0,0,0,0.6549999999988358
-0.2619,1.037,-0.0401,0.2108,0.22,0.0893,-2.6513,-7.595,-12.4163,0,0,0,0.6699999999982538
-0.2619,1.037,-0.0412,0.2101,0.2203,0.0938,-4.515,-8.1375,-11.0337,0,0,0,0.6699999999982538
-0.2634,1.038,-0.0412,0.2101,0.2203,0.0938,-5.0662,-9.0825,-10.6225,0,0,0,0.6699999999982538
-0.2607,1.0363,-0.0412,0.2101,0.2224,0.1008,-5.0662,-9.0825,-10.6225,0,0,0,0.7019999999974971
-0.253,1.0337,-0.0415,0.2103,0.2224,0.1008,-5.985,-10.255,-10.3863,0,0,0,0.7019999999974971
-0.244,1.0358,-0.0451,0.2103,0.2224,0.1008,-8.05,-11.0425,-10.7013,0,0,0,0.7019999999974971
-0.2259,1.0309,-0.0419,0.2104,0.2223,0.096,-9.415,-11.515,-10.0887,0,0,0,0.716999999996915
-0.2259,1.0309,-0.0419,0.2104,0.2223,0.096,-9.415,-11.515,-10.0887,0,0,0,0.716999999996915
-0.2086,1.0233,-0.0354,0.2108,0.2241,0.0947,-9.52,-11.3488,-9.8612,0,0,0,0.716999999996915
-0.1922,1.0169,-0.0349,0.2108,0.2241,0.0947,-10.7975,-9.59,-10.0013,0,0,0,0.716999999996915
-0.191,1.0122,-0.0345,0.2108,0.2241,0.0947,-11.2963,-8.4438,-9.52,0,0,0,0.716999999996915
-0.1842,1.0045,-0.0289,0.212,0.223,0.1119,-11.2963,-8.4438,-9.52,0,0,0,0.716999999996915
-0.1842,1.0045,-0.0289,0.212,0.223,0.1119,-11.97,-6.7375,-9.1263,0,0,0,0.716999999996915
-0.1849,0.9983,-0.0269,0.2123,0.224,0.1021,-11.7338,-4.9262,-9.1175,0,0,0,0.716999999996915
-0.1876,0.9751,-0.0308,0.2123,0.224,0.1021,-10.4475,-3.92,-8.4263,0,0,0,0.716999999996915
-0.1869,0.9566,-0.0401,0.2123,0.224,0.1021,-10.4475,-3.92,-8.4263,0,0,0,0.716999999996915
-0.1747,0.9433,-0.0436,0.212,0.2247,0.1015,-8.4788,-3.3075,-6.7987,0,0,0,0.7330000000001746
-0.148,0.9562,-0.0454,0.212,0.2247,0.1015,-4.9788,-2.4413,-4.9963,0,0,0,0.7330000000001746
-0.148,0.9562,-0.0454,0.2122,0.2238,0.1046,-0.4988,-1.925,-2.4237,0,0,0,0.7330000000001746
-0.1394,0.9847,-0.0512,0.2122,0.2238,0.1046,-2.24,-1.925,-2.4237,0,0,0,0.7330000000001746
-0.1455,1.0019,-0.0448,0.2122,0.2238,0.1046,-1.1287,-1.5313,1.2775,0,0,0,0.7330000000001746
-0.1526,1.0245,-0.0425,0.2118,0.224,0.1145,0.2013,0.7437,3.3688,0,0,0,0.7330000000001746
-0.1545,1.0313,-0.0306,0.2118,0.224,0.1145,0.2013,0.7437,3.3688,0,0,0,0.7479999999995925
-0.1545,1.0313,-0.0306,0.211,0.225,0.1035,-0.3762,0.875,2.6163,0,0,0,0.7479999999995925
-0.141,1.028,-0.0247,0.211,0.225,0.1035,-2.3537,1.9688,1.5925,0,0,0,0.7479999999995925
-0.1491,1.0296,-0.017,0.211,0.2221,0.1068,-4.2263,3.4825,1.0938,0,0,0,0.7479999999995925
-0.1695,1.0217,-0.0074,0.2091,0.2221,0.1068,-4.2263,3.4825,1.0938,0,0,0,0.7479999999995925
-0.1837,1.0162,0.0027,0.2091,0.2221,0.1068,-6.3263,4.025,1.75,0,0,0,0.7479999999995925
-0.1843,1.0135,0.0138,0.2101,0.2215,0.1082,-7.4375,4.76,1.7763,0,0,0,0.7479999999995925
-0.1843,1.0135,0.0138,0.2101,0.2215,0.1082,-8.5487,4.8562,0.735,0,0,0,0.7640000000028522
-0.1796,1.0088,0.0187,0.2095,0.2235,0.1005,-8.5487,4.8562,0.735,0,0,0,0.7640000000028522
-0.1801,1.0028,0.0365,0.2095,0.2235,0.1005,-9.5813,5.3025,-1.0588,0,0,0,0.7640000000028522
-0.1886,0.9999,0.0398,0.2095,0.2235,0.1005,-9.6512,6.5275,-3.78,0,0,0,0.7640000000028522
-0.1985,1.0075,0.0412,0.2084,0.2221,0.1012,-9.3888,7.7263,-6.2737,0,0,0,0.7640000000028522
-0.1985,1.0075,0.0412,0.2084,0.2221,0.1012,-9.3888,7.7263,-6.2737,0,0,0,0.7640000000028522
-0.2179,1.0049,0.0358,0.2074,0.224,0.1052,-8.8638,7.84,-9.6775,0,0,0,0.7640000000028522
-0.2275,1.0067,0.0375,0.2074,0.224,0.1052,-8.0413,7.735,-12.8363,0,0,0,0.7640000000028522
-0.2366,1.0044,0.0318,0.2074,0.224,0.1052,-6.0988,7.28,-15.3125,0,0,0,0.7640000000028522
-0.2463,1.0044,0.0284,0.2108,0.2276,0.1152,-6.0988,7.28,-15.3125,0,0,0,0.7640000000028522
-0.2528,1.0043,0.029,0.2108,0.2276,0.1152,-5.1625,6.4837,-16.87,0,0,0,0.7799999999988358
-0.2528,1.0043,0.029,0.2136,0.2245,0.1044,-4.4363,5.0225,-16.9312,0,0,0,0.7799999999988358
-0.2537,1.0001,0.0282,0.2136,0.2245,0.1044,-4.4363,2.7825,-16.5462,0,0,0,0.7799999999988358
-0.2585,1.0047,0.021,0.2136,0.2245,0.1044,-2.9225,3.5788,-16.5462,0,0,0,0.7799999999988358
-0.261,1.0169,0.0188,0.2135,0.2262,0.0942,-1.19,2.7738,-15.1725,0,0,0,0.7799999999988358
-0.2586,1.0223,0.0185,0.2135,0.2262,0.0942,-0.5863,1.8375,-13.65,0,0,0,0.7799999999988358
-0.2586,1.0223,0.0185,0.2158,0.2292,0.1076,-0.5863,1.8375,-13.65,0,0,0,0.7799999999988358
-0.2537,1.0253,0.0144,0.2158,0.2292,0.1076,-0.4112,1.5313,-13.37,0,0,0,0.7949999999982538
-0.2521,1.0305,0.0108,0.2158,0.2287,0.1029,-0.875,0.8138,-13.0988,0,0,0,0.7949999999982538
-0.2497,1.028,0.0104,0.2164,0.2287,0.1029,-0.6388,0.6212,-12.9587,0,0,0,0.7949999999982538
-0.2527,1.0232,0.0099,0.2164,0.2287,0.1029,-0.6388,0.6212,-12.9587,0.3928760303026584,-11.754831986276434,0.0,0.7949999999982538
-0.2553,1.0274,0.0163,0.2166,0.229,0.1031,-0.6825,1.1375,-13.0375,0.7566788712358942,-13.621628448057333,0.05346250000675354,0.842000000004191
-0.2553,1.0274,0.0163,0.2166,0.229,0.1031,-0.5075,1.575,-12.9937,0.8662209530075939,-13.9028376341962,0.05346250000675354,0.842000000004191
-0.2581,1.0316,0.0134,0.2186,0.2318,0.1053,-1.3475,2.3187,-12.8538,0.7889909128982012,-14.02342170804651,0.05346250000675354,0.842000000004191
-0.2616,1.0313,0.0154,0.2186,0.2318,0.1053,-1.3475,2.3187,-12.8538,0.8310948612476948,-14.199596883565437,0.05346250000675354,0.842000000004191
-0.2673,1.0285,0.0209,0.2186,0.2318,0.1053,-1.26,2.73,-12.6788,1.0456966756740984,-14.507241726689372,0.09714249999578896,0.8580000000001746
-0.2702,1.0217,0.0192,0.2194,0.2305,0.1,-1.085,2.8788,-12.11,1.06624531552887,-14.757637210468145,0.09714249999578896,0.8580000000001746
-0.2702,1.0217,0.0192,0.2194,0.2305,0.1,-1.645,3.6137,-11.41,1.072325990664969,-14.800236070735558,0.09714249999578896,0.8580000000001746
-0.2756,1.0161,0.0185,0.219,0.2323,0.1002,-1.645,3.6137,-11.41,1.0551200651477004,-15.098501214508858,0.09714249999578896,0.8580000000001746
-0.2781,1.0145,0.0209,0.219,0.2323,0.1002,-2.4325,3.8675,-10.5875,1.103902115800003,-15.271995367519873,0.15515499999353777,0.8729999999995925
-0.2813,1.0159,0.018,0.219,0.2323,0.1002,-2.8087,3.955,-10.2812,1.0853962541317486,-15.422569679744175,0.15515499999353777,0.8729999999995925
-0.284,1.0117,0.0167,0.2209,0.2346,0.1037,-2.87,3.885,-10.2987,1.0619307036347032,-15.612538423025661,0.2173150000062014,0.8890000000028522
-0.2883,1.0091,0.014,0.2209,0.2346,0.1037,-2.87,3.885,-10.2987,1.0170725650870183,-15.85822914541131,0.2173150000062014,0.8890000000028522
-0.2883,1.0091,0.014,0.2209,0.2341,0.1015,-3.2812,3.4037,-9.9925,0.9786073900939017,-15.919494892019067,0.2683705000042202,0.9040000000022701
-0.2871,1.0074,0.0112,0.2209,0.2341,0.1015,-3.01,2.8525,-10.115,0.958702907073774,-15.909745356053305,0.2683705000042202,0.9040000000022701
-0.2877,1.0127,0.0074,0.2209,0.2341,0.1015,-3.01,2.8525,-10.115,0.9272389144214843,-15.872702202227437,0.31401050001351827,0.9200000000055297
-0.2797,1.0063,0.0109,0.2214,0.2345,0.0896,-3.1588,2.0038,-10.115,0.9027130950381406,-15.624133291153735,0.31401050001351827,0.9200000000055297
-0.2733,0.9988,0.0151,0.2214,0.2345,0.0896,-3.8588,1.5838,-10.8325,0.8866068476743013,-15.374397387458522,0.33935129999563357,0.9359999999942374
-0.2733,0.9988,0.0151,0.223,0.2342,0.0992,-3.3075,1.1375,-11.5325,0.8827038057063887,-15.315718157762307,0.33935129999563357,0.9359999999942374
-0.2653,0.9925,0.011,0.223,0.2342,0.0992,-3.3075,1.1375,-11.5325,0.8354652642280551,-15.033157387174425,0.35641380000324785,0.9510000000009313
-0.2595,0.9894,0.0096,0.223,0.2342,0.0992,-2.4588,1.3913,-10.9025,0.7292185366490836,-14.770886459105014,0.35641380000324785,0.9510000000009313
-0.2589,0.9817,0.0096,0.2233,0.2355,0.0992,-1.4438,1.8375,-9.3975,0.6245593237065526,-14.77251634573624,0.38581379999586785,0.966999999996915
-0.2561,0.9726,0.0126,0.2233,0.2355,0.0992,-1.19,2.24,-7.28,0.7013942590188943,-14.770069883992944,0.38581379999586785,0.966999999996915
-0.2557,0.9767,0.007,0.2246,0.2341,0.1035,-1.19,2.24,-7.28,0.5115252541924202,-14.758849162013957,0.419413799994564,0.9819999999963329
-0.2557,0.9767,0.007,0.2246,0.2341,0.1035,-0.2625,2.7562,-6.335,0.4371170524380935,-14.71309657497053,0.419413799994564,0.9819999999963329
-0.2579,0.9807,0.0072,0.2243,0.2355,0.0992,-0.3063,2.5988,-5.1275,0.4250161302273371,-14.727212247748104,0.46099460000303516,0.9979999999995925
-0.2507,0.9847,0.0032,0.2243,0.2355,0.0992,-1.1988,2.8087,-3.99,0.26931886422811474,-14.384117672200242,0.46099460000303516,0.9979999999995925
-0.2447,0.9924,0.0009,0.2243,0.2355,0.0992,-1.1988,2.8087,-3.99,0.12761466071498923,-13.971962347365121,0.5059337999917545,1.0139999999955762
-0.2423,0.9962,0.0021,0.2238,0.2358,0.098,-1.4612,2.4588,-3.745,0.1233979270748554,-13.734969503868534,0.5428158000082134,1.02900000000227
-0.2423,0.9962,0.0021,0.2238,0.2358,0.098,-0.6125,2.1437,-4.2525,0.12153670964479917,-13.685829058754999,0.5428158000082134,1.02900000000227
-0.2386,0.9976,0.0046,0.2245,0.2367,0.1034,-1.47,1.89,-4.795,0.20936443192524795,-13.51589955171509,0.5428158000082134,1.02900000000227
-0.2333,0.9917,0.0085,0.2245,0.2367,0.1034,-1.47,1.89,-4.795,0.38280446815562985,-13.314793363481074,0.5730558000006225,1.0449999999982538
-0.2332,0.9867,0.0133,0.2245,0.2367,0.1034,-1.645,2.4062,-5.5563,0.6117826036333694,-13.302791132111714,0.5730558000006225,1.0449999999982538
-0.2329,0.9833,0.0107,0.2256,0.2351,0.098,-2.4762,2.625,-6.5012,0.6161389334477075,-13.31310666219483,0.6124307999990946,1.0599999999976717
-0.2329,0.9797,0.0176,0.2256,0.2351,0.098,-2.4762,2.7037,-7.0963,0.7703319938586497,-13.32668070367823,0.6556900000079076,1.0760000000009313
-0.2274,0.9797,0.0176,0.2258,0.2349,0.0983,-3.2287,2.7037,-7.0963,0.8054256057383296,-13.26480975348429,0.6556900000079076,1.0760000000009313
-0.2258,0.9747,0.0215,0.2258,0.2349,0.0983,-3.85,3.1762,-7.9012,1.0059412331128486,-13.190461247630205,0.7065091999951509,1.091999999996915
-0.2249,0.9801,0.0211,0.2258,0.2349,0.0983,-3.8238,3.9725,-8.5837,1.1035226935856517,-13.044694495025107,0.7065091999951509,1.091999999996915
-0.2288,0.9883,0.027,0.2245,0.2364,0.0915,-3.8238,3.9725,-8.5837,1.301551354782933,-13.036825121554259,0.7065091999951509,1.091999999996915
-0.2302,0.9928,0.0268,0.2245,0.2364,0.0915,-4.1825,4.41,-8.33,1.4303335105520691,-13.043083210747518,0.7726592000246709,1.1070000000036089
-0.2302,0.9928,0.0268,0.225,0.2357,0.1072,-4.7688,3.9725,-8.3387,1.5032926420189523,-13.046353216371088,0.8362192000087161,1.1229999999995925
-0.2337,0.9935,0.0317,0.225,0.2357,0.1072,-4.9525,4.1125,-9.3888,1.7149783419274824,-13.168737516506528,0.8362192000087161,1.1229999999995925
-0.2391,0.9941,0.0375,0.225,0.2357,0.1072,-4.9525,4.1125,-9.3888,2.005721029946433,-13.398607658512985,0.8979067000063223,1.1379999999990105
-0.248,0.9948,0.0376,0.2266,0.2383,0.0997,-5.1537,3.7275,-10.885,2.1130141654810912,-13.856924834215487,0.8979067000063223,1.1379999999990105
-0.2597,0.9914,0.0315,0.2266,0.2383,0.0997,-4.9175,3.4475,-12.495,1.9228795362048472,-14.538023579923856,0.9530667000175599,1.15400000000227
-0.2597,0.9881,0.0367,0.2272,0.2392,0.0967,-3.8238,3.5263,-13.5887,2.010531985392199,-14.691355250344266,0.9530667000175599,1.15400000000227
-0.268,0.9881,0.0367,0.2272,0.2392,0.0967,-3.8238,3.5263,-13.5887,2.060563835461438,-15.09916809191698,1.0094875000033972,1.1699999999982538
-0.2769,0.9868,0.042,0.2267,0.2401,0.099,-2.6163,2.2575,-14.8925,2.1784260546730203,-15.594656786397627,1.0094875000033972,1.1699999999982538
-0.2779,0.9892,0.0437,0.2267,0.2401,0.099,-2.1,1.1638,-14.8138,2.351467194375773,-15.667491751494694,1.029272100003194,1.1869999999980791
-0.282,0.9906,0.0454,0.2267,0.2401,0.099,-0.9538,0.4988,-14.665,2.536647034290947,-15.849482475253328,1.029272100003194,1.1869999999980791
-0.2828,0.9945,0.0409,0.2312,0.2403,0.1037,-0.9538,0.4988,-14.665,2.413276816124676,-15.85970318354242,1.0372529000048198,1.2030000000013388
-0.2828,0.9945,0.0409,0.2312,0.2403,0.1037,-0.4638,-0.4288,-14.8663,2.3711736467370153,-15.860944896508334,1.0372529000048198,1.2030000000013388
-0.2879,0.9997,0.0413,0.2308,0.2403,0.0991,0.3588,-1.015,-14.14,2.3669203531810505,-16.027898336046317,1.0220279000054107,1.2180000000007567
-0.2881,1.0037,0.0422,0.2308,0.2403,0.0991,0.6212,-1.5662,-13.6763,2.39889320799483,-16.005627891851958,1.0220279000054107,1.2180000000007567
-0.2937,1.0068,0.0404,0.2308,0.2403,0.0991,0.6212,-1.5662,-13.6763,2.3194060433103707,-16.216763112363974,0.9969687000003055,1.2340000000040163
-0.3005,1.0045,0.0354,0.2317,0.2394,0.0974,1.47,-1.9338,-13.5975,2.072673098197442,-16.585439063152997,0.9969687000003055,1.2340000000040163
-0.3005,1.0071,0.0359,0.2317,0.2394,0.0974,2.3363,-2.8525,-13.2212,2.046409216334511,-16.601416629624023,0.9513287000117621,1.25
-0.3085,1.0071,0.0359,0.2332,0.2446,0.0993,2.3363,-3.6225,-13.02,2.0423107148655366,-16.957515051228423,0.9513287000117621,1.25
-0.3101,1.006,0.0335,0.2332,0.2446,0.0993,2.7912,-3.6225,-13.02,1.9269345376211142,-17.097980158075142,0.8969912000138707,1.264999999999418
-0.3091,1.0065,0.0336,0.2332,0.2446,0.0993,3.8238,-4.4975,-12.9937,1.9138876052737475,-17.06828509791943,0.8969912000138707,1.264999999999418
-0.3138,1.0109,0.031,0.2336,0.245,0.0933,4.7688,-5.3637,-12.67,1.7742736154468028,-17.210549913560815,0.811172000035413,1.2809999999954016
-0.3143,1.0127,0.0257,0.2336,0.245,0.0933,4.7688,-5.3637,-12.67,1.4899818762103503,-17.232735304439494,0.811172000035413,1.2809999999954016
-0.3143,1.0127,0.0257,0.2339,0.2418,0.1011,5.4862,-6.0462,-12.1713,1.4575167688994528,-17.23621930408423,0.7204789999949405,1.2960000000020955
-0.3157,1.0167,0.0237,0.2339,0.2418,0.1011,5.6613,-6.7112,-11.375,1.3479137310383154,-17.243963177832242,0.7204789999949405,1.2960000000020955
-0.3121,1.0214,0.0246,0.2339,0.2418,0.1011,5.5388,-7.2187,-10.4913,1.3763734481206527,-17.049509809046558,0.6049797999714102,1.312000000005355
-0.3079,1.024,0.0244,0.2342,0.2425,0.0999,5.5388,-7.2187,-10.4913,1.3661768761162918,-16.808745266080205,0.6049797999714102,1.312000000005355
-0.3106,1.0237,0.0206,0.2342,0.2425,0.0999,5.8275,-7.9625,-10.0975,1.1743655060313238,-16.857090116792754,0.4775798000033902,1.3280000000013388
-0.3106,1.0214,0.0149,0.2343,0.2445,0.1027,5.635,-7.9538,-9.59,0.8706442314917804,-16.89503938626314,0.4775798000033902,1.3280000000013388
-0.3137,1.0214,0.0149,0.2343,0.2445,0.1027,5.4687,-7.9363,-8.9862,0.8394175508710574,-17.003055694146617,0.3585353000080097,1.3430000000007567
-0.3128,1.0171,0.0127,0.235,0.245,0.0909,5.4687,-7.9363,-8.9862,0.7283859856507501,-17.058469642292806,0.3585353000080097,1.3430000000007567
-0.3119,1.017,0.0145,0.235,0.245,0.0909,5.8012,-8.0588,-8.2425,0.807886388109833,-17.05389872589421,0.2295945000403765,1.3589999999967404
-0.3121,1.0169,0.0123,0.235,0.245,0.0909,5.8888,-7.9187,-7.0,0.7045269482335449,-17.055884200791322,0.2295945000403765,1.3589999999967404
-0.311,1.0142,0.0038,0.2352,0.2443,0.1022,5.6087,-7.7875,-5.8888,0.2652761856421048,-17.05102049949536,0.1127819999882479,1.3740000000034343
-0.311,1.0142,0.0038,0.2352,0.2443,0.1022,5.6087,-7.7875,-5.8888,0.21990169852875288,-17.049088986136372,0.1127819999882479,1.3740000000034343
-0.3074,1.0199,0.0043,0.2353,0.2456,0.1021,5.5213,-8.0937,-5.1275,0.23930526057751608,-16.857033927902336,-0.016717200038134566,1.3900000000066939
-0.3021,1.0213,0.007,0.2353,0.2456,0.1021,4.7425,-8.1725,-3.7975,0.37529690204226174,-16.56009259057013,-0.016717200038134566,1.3900000000066939
-0.2994,1.0188,0.0018,0.2353,0.2456,0.1021,4.4187,-7.8225,-3.8063,0.1335082698648297,-16.41658432326415,-0.14187719994980066,1.4059999999954016
-0.2968,1.0158,-0.001,0.2346,0.2442,0.094,4.4187,-7.8225,-3.8063,-0.034037059240307525,-16.315545946965795,-0.14187719994980066,1.4059999999954016
-0.2968,1.0116,-0.007,0.2346,0.2442,0.094,4.2525,-6.93,-3.3863,-0.3529268550952291,-16.344049270333606,-0.24582719999618924,1.4210000000020955
-0.2959,1.0116,-0.007,0.2346,0.2437,0.0977,4.2525,-7.07,-3.5087,-0.3912348484663673,-16.312330453173868,-0.24582719999618924,1.4210000000020955
-0.2926,1.0108,-0.0051,0.2346,0.2437,0.0977,4.2525,-7.07,-3.2375,-0.30135520841474295,-16.17667913894205,-0.3589471999677938,1.4369999999980791
-0.2899,1.0086,-0.0084,0.2346,0.2437,0.0977,4.4012,-6.7987,-3.2375,-0.4564199482321518,-16.062900682800766,-0.3589471999677938,1.4369999999980791
-0.2857,1.0042,-0.0076,0.2337,0.2448,0.0986,3.92,-6.4575,-2.9225,-0.4364715057858012,-15.914077115231125,-0.45580969996403503,1.451999999997497
-0.283,1.0054,-0.0088,0.2337,0.2448,0.0986,3.6137,-5.705,-2.1175,-0.49302320764984114,-15.751091019549976,-0.45580969996403503,1.451999999997497
-0.283,1.0054,-0.0088,0.2334,0.2434,0.0984,3.6137,-5.705,-2.1175,-0.5003813767821953,-15.72517651803947,-0.5470896999826312,1.4680000000007567
-0.2781,1.0027,-0.0083,0.2334,0.2434,0.0984,3.8763,-5.1625,-1.575,-0.47754961004668445,-15.533736584369478,-0.6296896999618969,1.4839999999967404
-0.2755,1.0013,-0.0156,0.2334,0.2434,0.0984,3.36,-4.7512,-1.0938,-0.8367365945838444,-15.402794790596685,-0.6296896999618969,1.4839999999967404
-0.2714,1.0077,-0.0077,0.2318,0.2443,0.0982,3.5963,-4.165,-0.875,-0.48982317689341315,-15.116930175345354,-0.6921646999897769,1.4990000000034343
-0.2661,1.0033,-0.0144,0.2318,0.2443,0.0982,3.5963,-4.165,-0.875,-0.7789323987720451,-14.88786567915616,-0.6921646999897769,1.4990000000034343
-0.2661,1.0033,-0.0155,0.2323,0.2426,0.1019,3.4213,-3.8063,-0.8662,-0.8709254594814436,-14.857246456802258,-0.7530654999744896,1.514999999999418
-0.2614,1.0025,-0.0155,0.2323,0.2426,0.1019,3.1063,-2.8263,-0.49,-0.8837272293904498,-14.64357845867403,-0.7530654999744896,1.514999999999418
-0.2602,1.0044,-0.0129,0.2326,0.2408,0.0962,2.9137,-1.6363,-0.21,-0.7570080287088551,-14.537374082092454,-0.7776099999735371,1.5299999999988358
-0.2538,1.0062,-0.0158,0.2326,0.2408,0.0962,2.9137,-1.6363,-0.21,-0.8792058562461824,-14.201727436479318,-0.7776099999735371,1.5299999999988358
-0.2488,1.0047,-0.0094,0.2326,0.2408,0.0962,2.3888,-0.1138,0.07,-0.5891605611665954,-13.94275086001634,-0.7794307999730801,1.5459999999948195
-0.2467,1.0044,-0.0097,0.2302,0.2406,0.1023,1.6363,1.015,0.1663,-0.5595965022259463,-13.815899712057199,-0.7794307999730801,1.5459999999948195
-0.2467,1.0044,-0.0097,0.2302,0.2406,0.1023,0.56,1.785,0.0263,-0.5546728648921698,-13.801135866178413,-0.7508707999672616,1.5619999999980791
-0.2481,1.004,-0.0104,0.2307,0.239,0.0948,0.56,1.785,0.0263,-0.5851023918160041,-13.870349863919389,-0.7508707999672616,1.5619999999980791
-0.2502,1.0022,-0.012,0.2307,0.239,0.0948,0.6037,2.7387,0.4988,-0.6644259667671094,-14.00003969496193,-0.7097902999489291,1.577000000004773
-0.2531,1.0028,-0.0139,0.2307,0.239,0.0948,0.2275,3.0888,-0.0437,-0.763967012371332,-14.144328466494766,-0.7097902999489291,1.577000000004773
-0.2558,1.0017,-0.0108,0.2302,0.241,0.0961,0.2275,3.8238,-1.6013,-0.6517361851730635,-14.29797062170345,-0.6486094999642867,1.5930000000007567
-0.2558,1.0017,-0.0108,0.2302,0.241,0.0961,0.0613,3.8238,-1.6013,-0.625950295032051,-14.320546537402114,-0.6486094999642867,1.5930000000007567
-0.2548,1.0003,-0.01,0.2294,0.2391,0.0951,-0.8313,4.515,-2.2487,-0.589178641569405,-14.294956537748217,-0.5808844999669148,1.6080000000001746
-0.2576,1.0008,-0.011,0.2294,0.2391,0.0951,-0.5075,5.075,-2.5113,-0.6183491084124185,-14.40994933862875,-0.5808844999669148,1.6080000000001746
-0.2626,1.003,-0.0092,0.2294,0.2391,0.0951,-0.5075,5.075,-2.5113,-0.5515706953497223,-14.62669259629957,-0.4996844999872977,1.6239999999961583
-0.2654,1.0016,-0.0098,0.2282,0.2402,0.0919,-1.3125,4.4363,-2.6425,-0.557317425675075,-14.803214820716605,-0.4996844999872977,1.6239999999961583
-0.2682,1.0023,-0.0148,0.2282,0.2402,0.0919,-1.3212,3.8937,-3.3425,-0.7410309968705476,-14.944246616229252,-0.4373852999746057,1.639999999999418
-0.2682,1.0023,-0.0148,0.2299,0.239,0.0927,-1.0325,3.6312,-3.6488,-0.8114435250059113,-14.971653343349363,-0.4373852999746057,1.639999999999418
-0.2749,1.0054,-0.0101,0.2299,0.239,0.0927,-1.0325,3.6312,-3.6488,-0.6531693473532741,-15.224283389341617,-0.3829172999502989,1.6550000000061118
-0.2761,1.0056,-0.0113,0.2299,0.239,0.0927,-1.0325,3.4125,-4.0075,-0.646889189271805,-15.32298329665932,-0.3829172999502989,1.6550000000061118
-0.2744,1.0074,-0.0093,0.2291,0.239,0.0868,-0.105,2.8263,-4.69,-0.5586598214179997,-15.259556178420752,-0.33769649996165024,1.6710000000020955
-0.2772,1.0048,-0.0059,0.2291,0.239,0.0868,-0.245,2.24,-5.075,-0.3944982717867854,-15.37369277983598,-0.33769649996165024,1.6710000000020955
-0.2772,1.0048,-0.0059,0.2268,0.2405,0.0918,-0.245,2.24,-5.075,-0.35160115787318075,-15.407948716402457,-0.2951364999611287,1.6900000000023283
-0.279,1.0054,-0.0098,0.2268,0.2405,0.0918,0.0613,1.9863,-5.495,-0.5084153925244017,-15.474108184134792,-0.27924609995789135,1.6980000000039581
-0.2822,1.0086,-0.0065,0.2268,0.2405,0.0918,-0.245,1.3825,-5.6175,-0.4056093981825247,-15.57474117103655,-0.26818609996569714,1.705999999998312
-0.283,1.0092,-0.0065,0.2294,0.2397,0.0966,-0.6737,1.085,-5.3025,-0.3797890941075538,-15.635421637797432,-0.2595060999639288,1.7139999999999418
-0.2794,1.0083,-0.0055,0.2294,0.2397,0.0966,-0.6737,1.085,-5.3025,-0.3323225212184619,-15.535377827123073,-0.2519110999663287,1.72099999999773
-0.2794,1.0067,-0.0087,0.2301,0.2411,0.0971,-0.84,0.7175,-5.5738,-0.44476358783952047,-15.519563700769014,-0.2519110999663287,1.72099999999773
-0.279,1.0067,-0.0087,0.2301,0.2411,0.0971,-0.1663,0.42,-5.0838,-0.4822439214353076,-15.498754949981114,-0.24519109996495966,1.7370000000009895
-0.2752,1.0039,-0.0103,0.231,0.2398,0.0882,-0.385,0.3413,-4.7688,-0.5591939561868368,-15.375788841799023,-0.24519109996495966,1.7370000000009895
-0.2717,1.0054,-0.0099,0.231,0.2398,0.0882,-0.385,0.3413,-4.7688,-0.5628155250668578,-15.191562446543623,-0.23973029996384715,1.7530000000042492
-0.2676,1.008,-0.0051,0.231,0.2398,0.0882,-0.3938,0.1575,-4.4887,-0.364091255283839,-14.950233957355266,-0.23973029996384715,1.7530000000042492
-0.2622,1.0026,-0.005,0.2311,0.2394,0.0945,-0.5775,0.2887,-4.6988,-0.30815760220276023,-14.735049461448485,-0.23539979996611576,1.7679999999963911
-0.2622,1.0026,-0.005,0.2311,0.2394,0.0945,-0.5775,0.2887,-2.4588,-0.2921507966551235,-14.668948208722703,-0.23539979996611576,1.7679999999963911
-0.2609,1.0011,-0.0086,0.2302,0.2382,0.0922,-0.6737,0.7175,-3.5963,-0.43332332690526504,-14.619569532722412,-0.22391979996377698,1.7839999999996508
-0.2586,1.0017,-0.0054,0.2302,0.2382,0.0922,-0.7788,1.6363,-3.1588,-0.34666192553124114,-14.502775570229778,-0.22391979996377698,1.7839999999996508
-0.2613,1.0025,-0.0056,0.2302,0.2382,0.0922,-0.525,2.1525,-3.4125,-0.3275550180091021,-14.587562948496966,-0.1916322999650299,1.7989999999990687
-0.2629,1.0041,-0.006,0.2307,0.2395,0.0973,-0.525,2.1525,-3.4125,-0.3381908399235727,-14.655051020215614,-0.1916322999650299,1.7989999999990687
-0.2629,1.0063,-0.0088,0.2307,0.2395,0.0973,-0.8487,2.24,-2.975,-0.4505109339360069,-14.643557925173845,-0.1557922999577283,1.8150000000023283
-0.2624,1.0063,-0.0088,0.2294,0.2405,0.0928,-1.1113,2.6513,-3.5875,-0.48396833215184587,-14.62038095314439,-0.1557922999577283,1.8150000000023283
-0.2627,1.0022,-0.0082,0.2294,0.2405,0.0928,-0.4638,2.6862,-4.3313,-0.472992139195554,-14.671137985373942,-0.11281309996851697,1.830999999998312
-0.266,1.0016,-0.0118,0.2294,0.2405,0.0928,-0.4638,2.6862,-4.3313,-0.6189969525788189,-14.822733774364991,-0.11281309996851697,1.830999999998312
-0.2658,1.0036,-0.0113,0.2291,0.2391,0.089,-0.0175,3.0187,-4.5237,-0.6386561834434793,-14.830440124283456,-0.06753259997027408,1.84599999999773
-0.2671,1.0055,-0.0125,0.2291,0.2391,0.089,-0.3588,3.255,-4.9788,-0.6924246735935206,-14.862236689697868,-0.06753259997027408,1.84599999999773
-0.2671,1.0055,-0.0125,0.2302,0.2388,0.0906,-0.035,3.0538,-5.5738,-0.7073336783604219,-14.870709744018756,-0.018671799960319826,1.8620000000009895
-0.2689,1.0045,-0.0156,0.2302,0.2388,0.0906,-0.035,3.0538,-5.5738,-0.8445537432783896,-14.944467613054623,-0.018671799960319826,1.8620000000009895
-0.2681,1.0039,-0.0104,0.2302,0.2388,0.0906,0.665,3.4125,-6.0025,-0.6465315004188731,-14.948637781775364,0.032515700037693836,1.8770000000004075
-0.2675,1.0081,-0.0127,0.229,0.239,0.0906,0.385,2.8875,-6.1163,-0.7048897316124159,-14.898624253980385,0.032515700037693836,1.8770000000004075
-0.2719,1.0056,-0.0162,0.229,0.239,0.0906,0.6125,3.0363,-6.4313,-0.8763937504006064,-15.01204498346214,0.08109650004759106,1.893000000003667
-0.2719,1.0056,-0.017,0.2315,0.2374,0.0839,0.6125,3.0363,-6.4313,-0.9488468154902456,-15.069362813453747,0.08109650004759106,1.893000000003667
-0.2748,1.0046,-0.017,0.2315,0.2374,0.0839,-0.0437,2.1263,-6.3963,-0.9643545448466906,-15.183506537286366,0.11511730003905114,1.9089999999996508
-0.2762,1.0034,-0.0135,0.229,0.2415,0.0891,-0.2362,1.2075,-6.2125,-0.8212806584258888,-15.295349999960765,0.11511730003905114,1.9089999999996508
-0.2778,1.004,-0.0168,0.229,0.2415,0.0891,-0.2362,1.2075,-5.705,-0.9228323995011117,-15.401797647481121,0.13322980003834828,1.9239999999990687
-0.2795,1.0055,-0.0108,0.229,0.2415,0.0891,-0.2187,1.1287,-5.705,-0.6951765729846836,-15.484782946370673,0.13322980003834828,1.9239999999990687
-0.2804,1.0053,-0.015,0.2297,0.2403,0.0858,-0.4288,0.7875,-6.3437,-0.8110149864415879,-15.535544941271842,0.14582980004091523,1.9400000000023283
-0.2804,1.0053,-0.015,0.2297,0.2403,0.0858,-0.3675,0.0525,-6.4313,-0.8430110130674666,-15.55912259128307,0.14582980004091523,1.9400000000023283
-0.2831,1.0064,-0.0166,0.2306,0.2395,0.091,-0.3675,0.0525,-6.4313,-0.9174502761470007,-15.633255586616375,0.14661730004088466,1.9550000000017462
-0.2818,1.0058,-0.0136,0.2306,0.2395,0.091,-0.4462,-0.6562,-6.615,-0.8140590791399865,-15.640736056350548,0.14661730004088466,1.9550000000017462
-0.2856,1.0038,-0.0141,0.2306,0.2395,0.091,-0.9538,-1.1725,-6.9125,-0.8077418321286609,-15.720076900428461,0.12785730003706275,1.9710000000050059
-0.2845,1.0038,-0.0124,0.2305,0.2397,0.0809,-1.4438,-1.68,-6.9212,-0.7457927849216057,-15.75365855567221,0.1009773000560338,1.9869999999937136
-0.2845,1.0038,-0.0124,0.2305,0.2397,0.0809,-1.4438,-1.68,-6.9212,-0.7222206890781379,-15.776262144904702,0.1009773000560338,1.9869999999937136
-0.2818,1.0014,-0.0147,0.2314,0.2403,0.0884,-0.7175,-2.3363,-6.5975,-0.80559670697484,-15.748997980628912,0.06593280004039488,2.0020000000004075
-0.28,0.9997,-0.014,0.2314,0.2403,0.0884,-0.2625,-2.3975,-5.9675,-0.8031869412188679,-15.687781513324325,0.06593280004039488,2.0020000000004075
-0.2777,1.006,-0.0119,0.2314,0.2403,0.0884,-0.3413,-3.08,-5.3725,-0.7113533431515968,-15.515493717923786,0.01665280003035522,2.018000000003667
-0.2775,1.006,-0.0118,0.2322,0.2408,0.0899,-0.3413,-3.08,-5.3725,-0.6825686766710122,-15.451630527067103,0.01665280003035522,2.018000000003667
-0.279,1.0096,-0.0117,0.2322,0.2408,0.0899,-0.4375,-3.045,-4.9262,-0.6690777543341184,-15.448325848821192,-0.029022199967872357,2.033000000003085
-0.279,1.0096,-0.0117,0.2318,0.2399,0.0901,-0.5163,-3.2462,-5.355,-0.665396941204218,-15.447430188875163,-0.029022199967872357,2.033000000003085
-0.2768,1.0092,-0.0098,0.2318,0.2399,0.0901,-0.8838,-3.5875,-5.7838,-0.5905632698885583,-15.379114528154389,-0.08642219995346379,2.0489999999990687
-0.2735,1.0087,-0.0113,0.2318,0.2399,0.0901,-0.8838,-3.5875,-5.7838,-0.625750068766339,-15.24946489011914,-0.08642219995346379,2.0489999999990687
-0.2711,1.0033,-0.0095,0.2322,0.2422,0.0963,-1.1812,-3.3863,-5.6962,-0.5713018147412067,-15.167794038281862,-0.1406029999398633,2.0649999999950523
-0.2727,1.0088,-0.0074,0.2322,0.2422,0.0963,-1.4875,-2.5988,-5.6875,-0.4787183158456165,-15.141582027064578,-0.1406029999398633,2.0649999999950523
-0.2727,1.0088,-0.0074,0.2312,0.241,0.0891,-1.4875,-2.4938,-6.0462,-0.44289387647783707,-15.132794886171688,-0.1780099999565565,2.0800000000017462
-0.2689,1.008,-0.0088,0.2312,0.241,0.0891,-1.4787,-2.4938,-6.0462,-0.47809406655431685,-15.019467493160747,-0.1780099999565565,2.0800000000017462
-0.2697,1.0072,-0.0062,0.2312,0.241,0.0904,-1.7237,-2.2925,-6.335,-0.4060950761171752,-15.00435621504544,-0.21468999994734905,2.09599999999773
-0.273,1.0018,-0.0068,0.2326,0.2421,0.0904,-1.3913,-1.7763,-6.37,-0.39531803112232433,-15.12592432703625,-0.21468999994734905,2.09599999999773
-0.2797,1.0032,-0.0083,0.2326,0.2421,0.0904,-1.3913,-1.7763,-6.37,-0.44466433972538866,-15.356247226877993,-0.24133449994631512,2.110999999997148
-0.2804,1.0027,-0.008,0.2318,0.2406,0.0865,-1.435,-1.4,-6.4575,-0.45239775670366067,-15.486115393076727,-0.24133449994631512,2.110999999997148
-0.2804,1.0027,-0.008,0.2318,0.2406,0.0865,-0.7525,-1.5575,-6.2475,-0.455698959740704,-15.559560002773853,-0.266254499951392,2.1270000000004075
-0.2788,1.0008,-0.0086,0.2322,0.2423,0.0953,0.0962,-1.05,-6.6588,-0.48354736102273366,-15.562347867806483,-0.266254499951392,2.1270000000004075
-0.2785,1.0055,-0.0067,0.2322,0.2423,0.0953,0.0962,-1.05,-6.6588,-0.40619312728142676,-15.527604365734069,-0.28305449994717485,2.142999999996391
-0.279,1.0041,-0.0074,0.2322,0.2423,0.0953,0.5425,-0.8138,-6.9125,-0.4187701403304919,-15.52777630249284,-0.28305449994717485,2.142999999996391
-0.2757,1.006,-0.008,0.2322,0.2437,0.0912,0.1575,-0.8487,-6.5188,-0.4469093118263135,-15.432621724287793,-0.29578499995285595,2.158000000003085
-0.2757,1.006,-0.008,0.2322,0.2437,0.0912,0.1575,-0.945,-6.1512,-0.45356259386493086,-15.372975939335408,-0.29578499995285595,2.158000000003085
-0.2821,1.0091,-0.0108,0.2307,0.2428,0.0912,0.1575,-0.945,-6.1512,-0.5754479550975758,-15.509266094752158,-0.3109049999490605,2.1739999999990687
-0.2829,1.0127,-0.0063,0.2307,0.2428,0.0912,0.1575,-0.9013,-5.9062,-0.40821662222060484,-15.5682392691587,-0.3109049999490605,2.1739999999990687
-0.2829,1.013,-0.0059,0.2307,0.2428,0.0912,-0.2975,-0.6737,-6.1512,-0.35344511823550956,-15.587687335675966,-0.32101049994866837,2.1889999999984866
-0.2808,1.0088,-0.007,0.2333,0.2427,0.0989,-1.0237,-0.4988,-5.6087,-0.3830910644521695,-15.566177153976284,-0.32101049994866837,2.1889999999984866
-0.2964,1.0045,-0.008,0.2333,0.2427,0.0989,-1.0237,-0.4988,-5.6087,-0.43228477375591234,-16.127312490952548,-0.3289912999502943,2.2050000000017462
-0.2811,1.0045,-0.008,0.2335,0.2404,0.0894,-0.7962,-0.2537,-6.0637,-0.4489708095993921,-15.844136875349092,-0.3289912999502943,2.2050000000017462
-0.2811,1.0031,-0.0045,0.2335,0.2404,0.0894,-0.8662,-0.3063,-6.1512,-0.31690717196027113,-15.738506363280472,-0.3338920999490641,2.22099999999773
-0.2811,1.0033,-0.0076,0.2335,0.2404,0.0894,-1.4,-0.56,-6.195,-0.39018026500659836,-15.690638285880887,-0.3338920999490641,2.22099999999773
-0.2804,1.005,-0.0043,0.233,0.243,0.083,-1.4,-0.56,-6.195,-0.29942713257536635,-15.635077706257766,-0.3422920999528127,2.236000000004424
-0.2799,1.0048,-0.0064,0.233,0.243,0.083,-1.9425,-0.4988,-5.8012,-0.3341716985613464,-15.592241674540023,-0.3422920999528127,2.236000000004424
-0.2799,1.0048,-0.0064,0.2328,0.2426,0.087,-1.7763,-0.1575,-5.46,-0.35153457609161115,-15.574616746378453,-0.3448120999521801,2.2520000000004075
-0.2757,1.0025,-0.005,0.2328,0.2426,0.087,-1.7763,-0.1575,-5.3812,-0.3144140617838609,-15.442134610310612,-0.3448120999521801,2.2520000000004075
-0.2781,0.9991,-0.0092,0.2328,0.2426,0.087,-2.065,0.42,-5.3812,-0.4213622815008322,-15.516990353049064,-0.3385120999524246,2.2669999999998254
-0.2755,1.0019,-0.0041,0.2328,0.2421,0.0935,-1.75,0.7613,-5.46,-0.3149599079865221,-15.423138624357344,-0.3385120999524246,2.2669999999998254
-0.275,0.9995,-0.0024,0.2328,0.2421,0.0935,-1.7938,0.4812,-5.5037,-0.2154433190523913,-15.39717757346827,-0.33081289995085605,2.283000000003085
-0.275,0.9995,0.0009,0.2361,0.2424,0.0861,-1.7938,0.4812,-5.5037,-0.065628143214068,-15.388259087423481,-0.33081289995085605,2.283000000003085
-0.2762,1.0025,0.0009,0.2361,0.2424,0.0861,-1.6538,0.2887,-5.7838,0.003024651924563539,-15.397673134685968,-0.3261936999520156,2.2989999999990687
-0.2763,1.0005,0.0001,0.2318,0.2418,0.0948,-1.7237,0.7175,-5.7663,0.00457600312623351,-15.42280580956523,-0.3261936999520156,2.2989999999990687
-0.2771,1.0011,-0.0027,0.2318,0.2418,0.0948,-1.9425,1.4,-5.9675,-0.07980921152713309,-15.45171334568761,-0.30519369994264417,2.3140000000057626
-0.2747,1.008,-0.0044,0.2318,0.2418,0.0948,-1.9425,1.4,-5.9675,-0.17012699547885057,-15.329101451059683,-0.30519369994264417,2.3140000000057626
-0.274,1.006,0.0002,0.2339,0.2433,0.0914,-2.7125,1.4612,-6.2038,-0.12214031526663803,-15.278172282129736,-0.2818144999591445,2.3299999999944703
-0.274,1.006,0.0002,0.2339,0.2433,0.0914,-1.9863,1.47,-6.5363,-0.05263548323559052,-15.258470538204486,-0.2597644999493045,2.345000000001164
-0.2742,0.9995,-0.0001,0.2338,0.2426,0.0842,-1.9338,1.9775,-6.825,-0.027669567303973845,-15.288805321246564,-0.2597644999493045,2.345000000001164
-0.2769,0.9955,0.0015,0.2338,0.2426,0.0842,-1.9338,1.9775,-6.825,0.03301212975799512,-15.382669084233566,-0.2281244999572468,2.360999999997148
-0.2837,0.9981,0.0011,0.2338,0.2426,0.0842,-2.6862,1.68,-6.8863,0.041398973397643556,-15.548572782808153,-0.2281244999572468,2.360999999997148
-0.2825,0.9972,-0.0011,0.2327,0.243,0.0978,-2.3975,1.6712,-6.1075,-0.000730169027874199,-15.700293327750362,-0.2013852999517993,2.3770000000004075
-0.2825,0.9972,0.002,0.2327,0.243,0.0978,-1.75,1.8375,-5.985,0.06510697985428716,-15.768832767475368,-0.2013852999517993,2.3770000000004075
-0.2854,1.0009,0.002,0.2354,0.2446,0.0902,-1.75,1.8375,-5.985,0.09322040153543695,-15.854716975366884,-0.17382279995286887,2.3919999999998254
-0.2868,1.0029,0.0023,0.2354,0.2446,0.0902,-0.9187,1.5575,-6.6675,0.11929098660703388,-15.89901902529822,-0.17382279995286887,2.3919999999998254
-0.2861,1.002,-0.0001,0.2354,0.2446,0.0902,-0.5775,1.5225,-6.65,0.030056328592982094,-15.91476868593509,-0.14946279995898373,2.407999999995809
-0.2823,1.0017,0.0017,0.2332,0.2438,0.0902,-0.5775,1.5225,-6.335,0.07801188605541916,-15.823796337397242,-0.14946279995898373,2.407999999995809
-0.2808,1.0002,0.0013,0.2332,0.2438,0.0902,-0.455,1.085,-6.335,0.07544896341002419,-15.750307826481066,-0.13318779995172086,2.423000000002503
-0.2808,1.0002,0.0013,0.2346,0.2419,0.0898,-0.2887,1.0325,-6.8688,0.07472845741047876,-15.726322757839492,-0.13318779995172086,2.423000000002503
-0.2846,1.0004,-0.0024,0.2346,0.2419,0.0898,0.105,1.1025,-6.5538,-0.08665504678587166,-15.79719721976087,-0.11554779995614886,2.4389999999984866
-0.2854,1.0021,0.0033,0.2346,0.2419,0.0898,0.105,1.1025,-6.5538,0.12276032699407928,-15.843129620955857,-0.11554779995614886,2.4389999999984866
-0.2863,1.0015,-0.002,0.2344,0.2438,0.0901,-0.4462,0.9712,-6.5712,-0.04900281953633288,-15.893455447456626,-0.10000859995298311,2.4550000000017462
-0.2862,1.0017,-0.0016,0.2344,0.2438,0.0901,-0.2362,0.6037,-6.2825,-0.08043352762229079,-15.920935959460408,-0.10000859995298311,2.4550000000017462
-0.2862,1.0017,-0.0016,0.2355,0.2442,0.0863,-0.4025,-0.105,-6.9037,-0.08849688803828121,-15.929117285760727,-0.10158359995292199,2.470000000001164
-0.2881,1.0054,-0.0047,0.2355,0.2442,0.0863,-0.4025,-0.105,-6.9037,-0.2189655872218452,-15.949372792237073,-0.10158359995292199,2.470000000001164
-0.2876,1.0065,-0.003,0.2355,0.2442,0.0954,0.0175,0.2187,-6.6762,-0.1825607085638226,-15.948300240258243,-0.09808439995380036,2.485999999997148
-0.2857,1.0073,-0.0001,0.2347,0.2442,0.0954,0.0525,0.1312,-6.8425,-0.048572855011760195,-15.907389383912179,-0.09808439995380036,2.485999999997148
-0.2855,1.0076,-0.004,0.2347,0.2442,0.0954,-0.5163,-0.385,-6.3525,-0.17714331469983988,-15.86242386065484,-0.10385939995637751,2.5010000000038417
-0.2858,1.0047,-0.0041,0.2366,0.2445,0.0916,-0.5163,-0.385,-6.3525,-0.21787432380507024,-15.87091445427201,-0.10385939995637751,2.5010000000038417
-0.2858,1.0047,-0.0041,0.2366,0.2445,0.0916,-0.735,-0.1488,-6.51,-0.2290360919523463,-15.874721917263892,-0.10624019995577988,2.5169999999998254
-0.2854,1.0036,-0.0016,0.2363,0.2438,0.087,-0.8138,0.2275,-6.125,-0.13360612568270266,-15.874582438290227,-0.10624019995577988,2.5169999999998254
-0.2849,1.0039,0.0002,0.2363,0.2438,0.087,-1.0325,0.3675,-5.7488,-0.036299495349554636,-15.855244391156084,-0.10036019995458197,2.533000000003085
-0.2857,1.0047,0.0015,0.2363,0.2438,0.087,-1.0325,0.3675,-5.7488,0.04545391833517615,-15.866819108701385,-0.10036019995458197,2.533000000003085
-0.287,1.0033,-0.0024,0.2354,0.2437,0.0858,-0.9625,0.5688,-5.8012,-0.07836008689276,-15.926367025742517,-0.09182819995491305,2.548000000002503
-0.287,1.0033,-0.0024,0.2354,0.2437,0.0858,-0.3237,0.245,-6.02,-0.12139706932958096,-15.947915481632581,-0.09182819995491305,2.548000000002503
-0.2874,1.0065,-0.0008,0.234,0.2427,0.0853,-0.3237,0.3762,-5.81,-0.06577888433674944,-15.940814998574973,-0.08580899995642399,2.5639999999984866
-0.2865,1.0025,-0.0022,0.234,0.2427,0.0853,-0.4988,0.3762,-5.81,-0.10895582971231554,-15.945930307845398,-0.08580899995642399,2.5639999999984866
-0.2891,1.0039,-0.0017,0.234,0.2427,0.0853,-1.015,0.3675,-6.0462,-0.10092751402030661,-16.0146511473143,-0.08029649995396398,2.5790000000051805
-0.2865,1.0016,-0.0023,0.2358,0.2439,0.0889,-0.6825,0.3762,-5.705,-0.12252891319344013,-15.981947691901073,-0.08029649995396398,2.5790000000051805
-0.2865,1.0005,-0.0013,0.2358,0.2439,0.0889,-0.6825,0.3762,-5.705,-0.08863327883596134,-15.98035140857053,-0.07427729995547493,2.595000000001164
-0.2883,1.0005,-0.0013,0.2368,0.2451,0.0878,-0.6037,0.0,-5.7488,-0.07853760189736333,-16.039165508091376,-0.07427729995547493,2.595000000001164
-0.2877,1.0005,-0.0015,0.2368,0.2451,0.0878,-0.8487,0.8575,-5.705,-0.08361623904976297,-16.04151876430623,-0.060557299958918925,2.610999999997148
-0.2859,0.9981,0.0009,0.2368,0.2451,0.0878,-0.35,0.8138,-5.3288,0.0153168422958003,-16.00271987741973,-0.060557299958918925,2.610999999997148
-0.2849,1.0003,-0.0001,0.2395,0.2454,0.09,-0.35,0.8138,-5.3288,-7.351946220907827e-05,-15.931835121268573,-0.04835029995939262,2.6259999999965657
-0.2844,1.0026,-0.0015,0.2395,0.2454,0.09,0.2975,1.5313,-4.8475,-0.06611898760933356,-15.863379668515522,-0.04835029995939262,2.6259999999965657
-0.2844,1.0026,-0.0015,0.2362,0.2449,0.0843,0.1225,1.5488,-4.7775,-0.08104738157460961,-15.844002316130155,-0.023569499954344108,2.6419999999998254
-0.2836,1.0053,-0.0044,0.2362,0.2449,0.0843,-0.3325,1.0237,-4.41,-0.20538247733655976,-15.776422903269257,-0.023569499954344108,2.6419999999998254
-0.2848,1.0062,-0.0085,0.2362,0.2449,0.0843,-0.3325,1.0237,-4.41,-0.40949199333273406,-15.796628593696587,-0.008213999954939979,2.6569999999992433
-0.2818,1.0058,-0.0051,0.2354,0.2445,0.0862,-0.4462,1.3737,-4.2875,-0.32333451027277144,-15.686618415775968,-0.008213999954939979,2.6569999999992433
-0.2827,1.0049,-0.0079,0.2354,0.2445,0.0862,-0.9275,1.3125,-4.1038,-0.4100033115878943,-15.70608147420117,0.01278600003978859,2.672999999995227
-0.2827,1.0049,-0.0045,0.2357,0.2432,0.0879,-0.7,1.5838,-4.83,-0.3020754270899537,-15.710551129923527,0.01278600003978859,2.672999999995227
-0.2832,1.0015,-0.0045,0.2357,0.2432,0.0879,-0.7,1.5838,-4.83,-0.27067978641360346,-15.76740613054599,0.03812680004495119,2.6889999999984866
-0.2853,1.0005,-0.0037,0.2373,0.2438,0.0886,-0.35,2.2138,-5.1363,-0.22768393112991417,-15.870420869624727,0.03812680004495119,2.6889999999984866
-0.2867,0.9978,0.0002,0.2373,0.2438,0.0886,-0.3938,1.7938,-5.0838,-0.05354113477537862,-15.982718635383495,0.06503380004390706,2.7039999999979045
-0.2884,1.0014,-0.0006,0.2373,0.2438,0.0886,1.8463,1.9863,-4.9612,-0.037575632613891775,-16.04199254559882,0.09681460005038167,2.720000000001164
-0.2877,1.0028,-0.0045,0.2361,0.2448,0.091,0.28,1.9863,-4.9612,-0.20666349602335407,-16.0177638956946,0.09681460005038167,2.720000000001164
-0.2877,1.0028,-0.0045,0.2361,0.2448,0.091,0.3588,1.5488,-4.865,-0.24572375452453785,-16.010654199517507,0.12004660004948015,2.735000000000582
-0.2894,1.004,-0.0053,0.2366,0.2454,0.0854,0.07,1.0938,-4.8562,-0.28875797050458646,-16.05993522951199,0.12004660004948015,2.735000000000582
-0.289,1.0052,-0.0043,0.2366,0.2454,0.0854,0.07,1.0938,-4.8562,-0.2556375025191789,-16.045662855345395,0.1375474000450871,2.7509999999965657
-0.2914,1.0053,-0.0043,0.2366,0.2454,0.0854,0.1838,1.225,-5.6,-0.24755428516270556,-16.1223657036641,0.1375474000450871,2.7509999999965657
-0.2896,1.0017,-0.0032,0.2363,0.2468,0.0882,0.1138,0.98,-5.6788,-0.1984491184302834,-16.124005193774494,0.15322740004828153,2.7669999999998254
-0.2896,1.0017,-0.0055,0.2363,0.2468,0.0882,-0.035,0.7,-5.9062,-0.2858190580329483,-16.12448306807928,0.15322740004828153,2.7669999999998254
-0.2918,0.999,-0.0055,0.2367,0.2422,0.0838,-0.035,0.7,-5.9062,-0.3081016731048874,-16.219269870954236,0.1644274000454701,2.782999999995809
-0.2965,0.9983,-0.0048,0.2367,0.2422,0.0838,0.2187,0.8138,-5.6438,-0.28308767676834873,-16.424878214676223,0.16686880004892807,2.786000000000058
-0.2944,1.0018,-0.0036,0.2367,0.2422,0.0838,0.1488,1.6013,-5.2413,-0.22418292350293986,-16.391737707290673,0.16686880004892807,2.786000000000058
-0.294,1.0011,-0.0017,0.2353,0.2436,0.0726,0.0962,0.35,-5.11,-0.12773840722312538,-16.373998825832647,0.17246880004752235,2.801999999996042
-0.2935,1.0014,-0.0048,0.2353,0.2436,0.0726,0.0962,0.35,-5.11,-0.23939025543046089,-16.34692550111326,0.17246880004752235,2.801999999996042
-0.2935,1.0014,-0.0048,0.2366,0.2439,0.0851,0.1838,0.2362,-4.7775,-0.26635174599984407,-16.338386157552165,0.17601180004910344,2.8170000000027358
-0.2935,1.0029,-0.0081,0.2366,0.2439,0.0851,0.2362,0.3675,-4.655,-0.4171567268969765,-16.318798208625743,0.17601180004910344,2.8170000000027358
-0.2956,1.0032,-0.0054,0.2366,0.2439,0.0851,0.5863,0.1663,-4.5325,-0.3317532839641539,-16.392216272745582,0.17867260004964552,2.8330000000059954
-0.2931,1.0025,-0.0081,0.238,0.245,0.0834,0.5863,0.1663,-4.5325,-0.4347681521875967,-16.321415586904763,0.17867260004964552,2.8330000000059954
-0.2932,1.0021,-0.0099,0.238,0.245,0.0834,0.4462,-0.1488,-4.6112,-0.5369704292316019,-16.311505561976237,0.17629180005024314,2.849000000001979
-0.2932,1.0021,-0.0099,0.2379,0.2444,0.0859,0.7613,-0.6475,-4.5325,-0.5600104255222544,-16.308875720997943,0.17629180005024314,2.849000000001979
-0.2927,1.0008,-0.0092,0.2379,0.2444,0.0859,1.0938,-0.4462,-4.6813,-0.533136311405622,-16.303664624692395,0.16870640005032106,2.8660000000018044
-0.2905,1.0033,-0.0063,0.2379,0.2444,0.0894,1.0938,-0.4462,-4.6813,-0.3933324095659768,-16.18962235921805,0.16870640005032106,2.8660000000018044
-0.2888,1.0042,-0.0081,0.2369,0.2434,0.0894,0.7437,-1.2862,-4.9525,-0.4478551818285677,-16.086385294248156,0.14812720004612853,2.882000000005064
-0.2841,1.0049,-0.0086,0.2369,0.2434,0.0894,-0.1138,-1.5313,-4.6988,-0.47959809681763743,-15.866882873749166,0.14812720004612853,2.882000000005064
-0.2867,1.0049,-0.0086,0.237,0.2441,0.0859,-0.1138,-1.5313,-4.5763,-0.4876178991577873,-15.908351429574928,0.12515770005816154,2.896999999997206
-0.2867,1.0049,-0.0086,0.237,0.2441,0.0859,-0.1488,-1.05,-4.5763,-0.48963797978062185,-15.919177095003425,0.12515770005816154,2.896999999997206
-0.2862,1.0054,-0.0091,0.2388,0.2447,0.0858,-0.4812,-0.9975,-5.0575,-0.5105175180596982,-15.898055165137936,0.10919770005491006,2.9130000000004657
-0.2836,1.0023,-0.0074,0.2388,0.2447,0.0858,-1.0938,-0.665,-4.6725,-0.4523927677764606,-15.825093235239672,0.10919770005491006,2.9130000000004657
-0.2846,1.0,-0.0054,0.2388,0.2447,0.0858,-1.0938,-0.665,-4.6725,-0.3574114447079119,-15.869787747556103,0.09855770005758091,2.9289999999964493
-0.2824,1.0014,-0.0062,0.237,0.2444,0.093,-0.4025,-1.12,-5.4862,-0.35546270607232777,-15.789988225068779,0.09855770005758091,2.9289999999964493
-0.2824,1.0014,-0.0062,0.237,0.2444,0.093,-0.4025,-1.0237,-4.7688,-0.35493162301751635,-15.759860845655693,0.08320220005072838,2.944000000003143
-0.2829,1.0051,-0.0052,0.236,0.2451,0.091,-0.5688,-0.2537,-4.8562,-0.31312556715569545,-15.731102636876466,0.08320220005072838,2.944000000003143
-0.2797,1.003,-0.0031,0.236,0.2451,0.091,-0.5688,-0.2537,-4.8562,-0.2159197715150714,-15.623827785567645,0.07914300005174732,2.959999999999127
-0.2839,1.0017,-0.0059,0.236,0.2451,0.091,-1.12,0.2887,-4.3837,-0.29629093695643177,-15.773819710688263,0.07914300005174732,2.959999999999127
-0.2883,0.9997,-0.0036,0.2382,0.2454,0.0862,-0.945,0.1312,-4.8562,-0.23509746292242897,-15.998616799820057,0.08111100005167095,2.974999999998545
-0.2883,1.0006,-0.0081,0.2382,0.2454,0.0862,-0.0175,0.2362,-4.7337,-0.407396631006267,-16.052477941882422,0.08489020005244087,2.9910000000018044
-0.2918,1.0006,-0.0081,0.2375,0.2456,0.0842,-0.0175,0.2362,-4.7337,-0.4498938119678913,-16.201684959673287,0.08489020005244087,2.9910000000018044
-0.2955,0.9995,-0.0057,0.2375,0.2456,0.0842,0.735,0.525,-5.4687,-0.3523649651490607,-16.378644119167067,0.0932902000503323,3.006999999997788
-0.2945,1.0011,-0.0093,0.2375,0.2456,0.0842,1.12,0.385,-5.9763,-0.4976024912879245,-16.386487136925954,0.0932902000503323,3.006999999997788
-0.2921,1.0025,-0.0101,0.2358,0.2427,0.0802,0.5688,-0.0787,-5.6613,-0.5600672336303814,-16.295795490583576,0.0921097000498055,3.022000000004482
-0.2924,1.004,-0.0112,0.2358,0.2427,0.0802,0.5688,-0.0787,-5.6613,-0.6220927423264939,-16.258067853156817,0.0921097000498055,3.022000000004482
-0.2924,1.004,-0.0112,0.2375,0.2449,0.0838,0.4812,-0.5337,-5.7575,-0.6353877543192048,-16.244612452881874,0.08357050005583219,3.0379999999931897
-0.289,1.0064,-0.0066,0.2375,0.2449,0.0838,0.9538,-0.3325,-5.9675,-0.4274059192762461,-16.113102086174997,0.08357050005583219,3.0379999999931897
-0.2864,1.0086,-0.005,0.2375,0.2449,0.0838,0.9538,-0.3325,-5.5738,-0.3125618260893106,-15.94424774963723,0.07858300005360648,3.0529999999998836
-0.2876,1.0086,-0.0116,0.238,0.2454,0.0798,1.015,-0.595,-5.5738,-0.5908432682337956,-15.92492305683906,0.07858300005360648,3.0529999999998836
-0.2908,1.009,-0.0088,0.238,0.2454,0.0798,0.385,-0.35,-5.3375,-0.520144522927454,-16.02726923285065,0.07298300005246561,3.069000000003143
-0.2908,1.009,-0.0081,0.2361,0.2454,0.0883,-0.3938,-0.245,-5.4075,-0.47631313014234866,-16.060296495433317,0.07298300005246561,3.069000000003143
-0.2904,1.0059,-0.0081,0.2361,0.2454,0.0883,-0.3938,-0.245,-5.4075,-0.46542820728904427,-16.088601729213124,0.0690630000534496,3.084999999999127
-0.2939,1.0083,-0.0117,0.235,0.2472,0.0798,-0.665,-0.1138,-5.4075,-0.6062883271364592,-16.19575534294834,0.0690630000534496,3.084999999999127
-0.289,1.0041,-0.0101,0.235,0.2472,0.0798,-0.4988,-0.3237,-5.9062,-0.5846964868233312,-16.111948847388682,0.06420750005363803,3.099999999998545
-0.2894,1.0008,-0.0081,0.235,0.2472,0.0798,-0.5863,-0.6037,-6.2387,-0.49842406278678425,-16.12044155934362,0.06420750005363803,3.099999999998545
-0.2897,1.0007,-0.0104,0.2371,0.2443,0.0811,-0.5863,-0.6037,-6.2387,-0.5676048487124573,-16.133545838229896,0.05454830005606268,3.1159999999945285
-0.2897,1.0007,-0.0104,0.2371,0.2443,0.0811,-0.7262,-0.5075,-5.6875,-0.5871187301738703,-16.14063844512522,0.05454830005606268,3.1159999999945285
-0.2929,0.9969,-0.01,0.2371,0.2434,0.0793,-0.035,-0.315,-5.9675,-0.577791533477311,-16.2774970607342,0.04982330005395411,3.1310000000012224
-0.2927,0.9968,-0.0063,0.2371,0.2434,0.0793,0.0613,-0.6037,-5.915,-0.41429871086713993,-16.329298535562224,0.04982330005395411,3.1310000000012224
-0.2892,0.9986,-0.0091,0.2371,0.2434,0.0793,0.0613,-0.6037,-5.915,-0.4960241435489738,-16.22235352815051,0.04016410005198627,3.147000000004482
-0.2868,0.9989,-0.0065,0.2378,0.2438,0.0814,-0.2887,-0.4025,-4.76,-0.4053918627752007,-16.07497038024704,0.04016410005198627,3.147000000004482
-0.2868,0.9989,-0.0065,0.2378,0.2438,0.0814,-0.4462,-0.2013,-4.13,-0.38180906238711537,-16.032307780698964,0.03694330005279476,3.1630000000004657
-0.2901,1.0038,-0.0093,0.2378,0.2451,0.0826,-0.1575,-0.4025,-4.2962,-0.49275110737072314,-16.097708326991558,0.03694330005279476,3.1630000000004657
-0.2896,1.0045,-0.0026,0.2378,0.2451,0.0826,-0.1575,-0.4025,-4.2962,-0.23629762692279138,-16.086093742651713,0.030905800053029044,3.1779999999998836
-0.2908,1.0041,-0.0002,0.2378,0.2451,0.0826,0.07,-0.3938,-4.3488,-0.06570799112550141,-16.1355192257318,0.030905800053029044,3.1779999999998836
-0.2863,1.0059,-0.0038,0.2365,0.2457,0.0817,-0.7437,-0.2713,-3.92,-0.17115432689286986,-15.9426557910735,0.026565000054118673,3.1939999999958673
-0.2882,1.0049,-0.007,0.2365,0.2457,0.0817,-0.7437,-0.9538,-4.13,-0.33061597894161127,-15.988310400211628,0.026565000054118673,3.1939999999958673
-0.2882,1.0049,-0.007,0.2373,0.2462,0.0822,-0.8575,-0.9538,-4.13,-0.3778001435044082,-15.998985151546156,0.01225800004773405,3.209000000002561
-0.2896,1.0036,-0.0052,0.2373,0.2462,0.0822,-0.875,-0.8138,-5.0838,-0.32218316506442296,-16.0667231037885,0.01225800004773405,3.209000000002561
-0.2896,1.0005,-0.0064,0.2373,0.2462,0.0822,-0.9887,-1.1113,-5.25,-0.352129396327087,-16.11887363380458,-0.005522799947802604,3.224999999998545
-0.2917,0.9964,-0.0073,0.2383,0.2449,0.0756,-0.9887,-1.1113,-5.25,-0.3978264948215279,-16.254365550268645,-0.005522799947802604,3.224999999998545
-0.294,0.9939,-0.0095,0.2383,0.2449,0.0756,-0.5163,-0.8838,-5.5213,-0.5055007005977381,-16.400327664264363,-0.019663599950683466,3.2410000000018044
-0.294,0.9939,-0.0095,0.2362,0.2441,0.0796,0.0525,-1.5225,-5.6875,-0.5374182209751748,-16.44927143530859,-0.019663599950683466,3.2410000000018044
-0.2932,0.9943,-0.0079,0.2362,0.2441,0.0796,-0.035,-2.52,-5.7838,-0.4755833132124017,-16.43690546316727,-0.05746359994921663,3.2560000000012224
-0.2946,1.0009,-0.0073,0.2362,0.2441,0.0845,-0.035,-2.52,-5.7838,-0.4321708381437235,-16.414437061457942,-0.05746359994921663,3.2560000000012224
-0.2899,1.0046,-0.0084,0.2363,0.2438,0.0845,0.21,-2.7037,-5.5563,-0.46811673219950406,-16.207810526739255,-0.10072279993835768,3.271999999997206
-0.2891,1.0066,-0.0052,0.2363,0.2438,0.0845,0.2887,-3.3163,-5.5563,-0.3354572498419471,-16.088545679388506,-0.10072279993835768,3.271999999997206
-0.2871,1.0055,-0.0078,0.2361,0.2451,0.0752,0.035,-3.0187,-5.6962,-0.4179135917036056,-15.991743548147396,-0.1460032999585645,3.2870000000039
-0.2871,1.0055,-0.0078,0.2361,0.2451,0.0752,0.035,-3.0187,-5.6962,-0.43799126693917045,-15.956032138957108,-0.1460032999585645,3.2870000000039
-0.2852,1.0058,-0.0126,0.2348,0.247,0.0877,0.0613,-3.1588,-5.53,-0.6500457065254711,-15.873671838065594,-0.19654409994587774,3.3029999999998836
-0.2871,1.0067,-0.0096,0.2348,0.247,0.0877,0.6825,-2.9488,-5.915,-0.5681702448000923,-15.899547643974122,-0.2437248999340344,3.3189999999958673
-0.2893,1.0026,-0.0065,0.2348,0.247,0.0877,0.3675,-2.9225,-5.7488,-0.4157638992801739,-16.021569904686995,-0.2437248999340344,3.3189999999958673
-0.2911,1.0023,-0.0089,0.2397,0.2458,0.0786,0.3675,-2.9225,-5.7488,-0.48780335665324476,-16.129368936933666,-0.2875623999535973,3.334000000002561
-0.2911,1.0023,-0.0089,0.2397,0.2458,0.0786,-0.2625,-2.94,-5.7312,-0.5032504785750997,-16.170085079383814,-0.2875623999535973,3.334000000002561
-0.2921,1.0005,-0.006,0.2377,0.2454,0.0822,-0.3063,-3.185,-5.3987,-0.3859965474286092,-16.240190105953634,-0.3385223999408053,3.349999999998545
-0.2882,0.9987,-0.0074,0.2377,0.2454,0.0822,0.14,-3.1412,-5.2762,-0.41538343113753035,-16.142333796828094,-0.3385223999408053,3.349999999998545
-0.2854,0.9995,-0.0048,0.2377,0.2454,0.0822,0.14,-3.1412,-5.2762,-0.3084488076307003,-16.001999399745998,-0.38564039996183214,3.3650000000052387
-0.2883,1.0017,-0.0084,0.2364,0.2452,0.0861,0.8138,-2.1437,-4.83,-0.44524989921868047,-16.04079507910192,-0.38564039996183214,3.3650000000052387
-0.2863,1.0051,-0.0088,0.2364,0.2452,0.0861,0.595,-2.3187,-4.3575,-0.4895503691789738,-15.93392623257595,-0.4227395999356487,3.3809999999939464
-0.2863,1.0051,-0.0088,0.2366,0.2454,0.083,0.595,-2.3187,-4.0075,-0.4990429195259824,-15.906846271240498,-0.4227395999356487,3.3809999999939464
-0.2855,1.005,-0.006,0.2366,0.2454,0.083,0.49,-1.3038,-4.0075,-0.37647221703884204,-15.869488102144588,-0.4436003999398986,3.396999999997206
-0.2855,1.0055,-0.0049,0.2366,0.2454,0.083,0.3938,-0.9363,-4.3488,-0.30099111085863706,-15.855630026515604,-0.4436003999398986,3.396999999997206
-0.2888,1.0049,-0.0089,0.2368,0.2459,0.0891,0.0,-0.945,-3.6662,-0.4567331966529232,-15.996074341743507,-0.4577753999462243,3.4120000000039
-0.2915,1.0053,-0.0113,0.2368,0.2459,0.0891,0.0,-0.945,-3.6662,-0.5980109803316461,-16.132716931375004,-0.4577753999462243,3.4120000000039
-0.2915,1.0053,-0.0113,0.2379,0.245,0.0769,0.1575,-1.05,-3.7713,-0.6331276639934308,-16.161365658595173,-0.47457539994200715,3.4279999999998836
-0.2911,1.0046,-0.0071,0.2379,0.245,0.0769,-0.0875,-0.8575,-3.6312,-0.46220368932412936,-16.159863170777417,-0.47457539994200715,3.4279999999998836
-0.2885,1.0025,-0.0051,0.2379,0.245,0.0769,-0.1312,-1.1988,-3.9288,-0.3348015078884241,-16.078100275295437,-0.49255739994130937,3.4429999999993015
-0.2921,1.0039,-0.0107,0.2379,0.245,0.0794,-0.1312,-1.1988,-3.9288,-0.540657044597021,-16.190088303742566,-0.49255739994130937,3.4429999999993015
-0.2893,1.0051,-0.0106,0.2379,0.245,0.0794,0.0175,-0.7788,-3.7713,-0.5886849671791917,-16.085449646765586,-0.5050181999381814,3.458999999995285
-0.2893,1.0041,-0.0124,0.2374,0.2446,0.0842,-0.1225,-0.5163,-3.6312,-0.6774383327031662,-16.07443597649124,-0.5050181999381814,3.458999999995285
-0.293,1.0041,-0.0124,0.2374,0.2446,0.0842,-0.4812,-0.8925,-3.675,-0.6991499650631647,-16.225721800454565,-0.5192981999410906,3.474999999998545
-0.2977,1.0057,-0.0086,0.2366,0.2438,0.075,-0.4812,-0.8925,-3.675,-0.5482042393434364,-16.433245650618623,-0.5192981999410906,3.474999999998545
-0.2923,1.006,-0.012,0.2366,0.2438,0.075,-0.14,-1.05,-3.78,-0.6490274947530006,-16.25078933147136,-0.5350481999404795,3.4899999999979627
-0.2927,1.0064,-0.0116,0.2366,0.2438,0.075,0.14,-1.1725,-3.8675,-0.6576809857942671,-16.22323595791972,-0.5350481999404795,3.4899999999979627
-0.2907,1.0038,-0.0134,0.2365,0.2442,0.0809,-0.1312,-1.96,-3.885,-0.7376256615761287,-16.165905558902544,-0.5664081999468683,3.5060000000012224
-0.2907,1.0038,-0.0134,0.2365,0.2442,0.0809,-0.1312,-1.96,-3.885,-0.7579127540358219,-16.15322711003303,-0.5664081999468683,3.5060000000012224
-0.2899,1.0046,-0.0118,0.236,0.2453,0.0823,0.3325,-2.1437,-3.9725,-0.6922509872065631,-16.108623514512818,-0.5985636999456205,3.5210000000006403
-0.2898,1.0058,-0.0119,0.236,0.2453,0.0823,0.1925,-1.645,-3.745,-0.6812319489985852,-16.07997440456317,-0.5985636999456205,3.5210000000006403
-0.2863,1.0045,-0.0098,0.236,0.2453,0.0823,0.1925,-1.645,-4.2525,-0.5876371378838253,-15.949210976327743,-0.6248836999390137,3.536999999996624
-0.2866,1.0028,-0.0109,0.236,0.2455,0.0791,0.315,-1.4175,-4.2525,-0.6147503044758884,-15.949073049764541,-0.6248836999390137,3.536999999996624
-0.2866,1.0028,-0.0111,0.236,0.2455,0.0791,-0.5863,-1.8637,-4.1737,-0.628606721322664,-15.94901436244568,-0.6547028999450887,3.5529999999998836
-0.2861,1.0028,-0.0111,0.2359,0.2434,0.0828,-0.6388,-1.8813,-3.7625,-0.6325576323957719,-15.928274411894396,-0.6547028999450887,3.5529999999998836
-0.286,1.0028,-0.0095,0.2359,0.2434,0.0828,-0.6388,-1.8813,-3.7625,-0.5689264992977456,-15.919857311550565,-0.6829223999439936,3.5679999999993015
-0.2843,1.0023,-0.0096,0.2359,0.2434,0.0828,-0.7175,-1.7062,-3.7187,-0.5547723750721743,-15.853235045675362,-0.6829223999439936,3.5679999999993015
-0.2826,0.9995,-0.013,0.2371,0.2442,0.0683,0.0437,-1.4525,-4.3575,-0.6989115401532544,-15.802998304972032,-0.7061623999487282,3.584000000002561
-0.2841,0.9988,-0.0129,0.2371,0.2442,0.0683,-0.2275,-1.7062,-4.6988,-0.7292842284562806,-15.856813342267168,-0.7061623999487282,3.584000000002561
-0.2841,0.9988,-0.0129,0.2351,0.2444,0.0874,-0.2275,-1.7062,-4.6988,-0.7371847978616016,-15.87132626170822,-0.7317553999477351,3.599000000001979
-0.2817,1.0004,-0.0087,0.2351,0.2444,0.0874,-0.3063,-1.5488,-4.7162,-0.5617109228031961,-15.765364680856239,-0.7317553999477351,3.599000000001979
-0.2799,0.9981,-0.0063,0.2351,0.2444,0.0874,-0.4025,-1.6538,-5.11,-0.4161688209721936,-15.695402731800558,-0.7582161999410929,3.6149999999979627
-0.2821,0.9995,-0.0084,0.2362,0.2439,0.0897,0.42,-0.9538,-5.0487,-0.4669665369982682,-15.741269545092443,-0.7582161999410929,3.6149999999979627
-0.284,1.0003,-0.012,0.2362,0.2439,0.0897,0.42,-0.9538,-5.0487,-0.6382562702994984,-15.816882979893126,-0.7734769999442019,3.6310000000012224
-0.284,1.0003,-0.0078,0.235,0.2453,0.0816,0.1575,-0.9275,-4.7075,-0.49204081075924677,-15.840736221440206,-0.7734769999442019,3.6310000000012224
-0.2858,1.0025,-0.0078,0.235,0.2453,0.0816,0.385,-0.6737,-4.6638,-0.45616246535244426,-15.892755833094496,-0.7835824999438098,3.6460000000006403
-0.2868,1.0039,-0.0099,0.2356,0.2453,0.0814,0.1838,-1.33,-5.0575,-0.5394300941877513,-15.928105913021406,-0.7835824999438098,3.6460000000006403
-0.2866,1.0036,-0.0093,0.2356,0.2453,0.0814,0.1838,-1.33,-5.0575,-0.5329228996906115,-15.934488978206957,-0.804862499938468,3.661999999996624
-0.2899,1.0033,-0.0113,0.2356,0.2453,0.0814,0.245,-1.3388,-5.18,-0.6192567559149275,-16.059401438131975,-0.8249444999474298,3.677000000003318
-0.2893,1.0056,-0.0133,0.2359,0.2438,0.0812,0.0787,-1.4262,-5.145,-0.7243797030157255,-16.051918752495723,-0.8249444999474298,3.677000000003318
-0.2893,1.0056,-0.0133,0.2359,0.2438,0.0812,0.6037,-1.5313,-5.5912,-0.7506097378250681,-16.049785490642844,-0.8494452999412796,3.6929999999993015
-0.2901,1.0039,-0.0129,0.2358,0.2425,0.0796,0.6037,-1.5313,-5.5912,-0.7392848195954831,-16.092873747784896,-0.8494452999412796,3.6929999999993015
-0.2891,1.0013,-0.013,0.2358,0.2425,0.0796,-0.0875,-1.4088,-5.8975,-0.7426939653588036,-16.09923298414459,-0.8719860999458717,3.709000000002561
-0.2869,1.0027,-0.0131,0.2358,0.2425,0.0796,-0.0962,-1.68,-5.6262,-0.747047864337972,-16.01390533360032,-0.8719860999458717,3.709000000002561
-0.2873,1.0041,-0.0129,0.2373,0.2441,0.0844,-0.0962,-1.68,-5.8625,-0.7388215792298672,-15.98482722802674,-0.8971860999326702,3.723999999994703
-0.2873,1.0041,-0.0121,0.2373,0.2441,0.0844,-0.2975,-1.7675,-5.8625,-0.7032398474814809,-15.97349006031049,-0.8971860999326702,3.723999999994703
-0.2904,1.0058,-0.0121,0.2369,0.2446,0.0823,-0.3413,-1.9162,-5.46,-0.6929984872590865,-16.059492427786108,-0.9278452999389163,3.7399999999979627
-0.2889,1.004,-0.0098,0.2369,0.2446,0.0823,0.0088,-1.6013,-4.7162,-0.5920214775547987,-16.054317924812974,-0.9278452999389163,3.7399999999979627
-0.289,1.0058,-0.0094,0.2369,0.2446,0.0823,0.0088,-1.6013,-4.7162,-0.5493200754280941,-16.036928446972347,-0.9550673999502877,3.757000000005064
-0.2862,1.0026,-0.0123,0.2367,0.2449,0.0878,0.0,-1.4088,-4.27,-0.6651640121700284,-15.95635649291903,-0.9550673999502877,3.757000000005064
-0.2882,1.0074,-0.0104,0.2367,0.2449,0.0878,-0.3413,-1.3212,-3.78,-0.6112299621572881,-15.96243996714574,-0.9762065999449813,3.7730000000010477
-0.2882,1.0074,-0.0104,0.2385,0.243,0.0819,-0.4288,-1.645,-4.27,-0.5968997965255549,-15.963711839830415,-0.9762065999449813,3.7730000000010477
-0.2824,1.0063,-0.0098,0.2385,0.243,0.0819,-0.4288,-1.645,-4.27,-0.5686528793253584,-15.7448758804652,-1.0025265999383743,3.7889999999970314
-0.2832,1.003,-0.0097,0.2385,0.243,0.0819,-0.5337,-1.6538,-4.235,-0.5582055567197642,-15.761302946605985,-1.0025265999383743,3.7889999999970314
-0.282,1.0028,-0.0134,0.2354,0.2438,0.0887,-0.105,-1.1988,-4.1038,-0.7132989903648785,-15.718329494368712,-1.0205085999376766,3.8039999999964493
-0.2838,1.0022,-0.016,0.2354,0.2438,0.0887,0.3762,-1.0675,-4.235,-0.8693770167310599,-15.7872576941028,-1.0205085999376766,3.8039999999964493
-0.2838,1.0022,-0.016,0.2358,0.2427,0.0827,0.3762,-1.0675,-4.235,-0.9044659725328006,-15.803779797513805,-1.0375885999411563,3.819999999999709
-0.2787,0.9989,-0.0141,0.2358,0.2427,0.0827,0.2013,-0.9712,-4.4538,-0.8311159231710945,-15.642579402178535,-1.0375885999411563,3.819999999999709
-0.2806,1.0021,-0.0126,0.2358,0.2427,0.0811,-0.5075,-0.6562,-4.2787,-0.7514446024524365,-15.64191819276942,-1.0474315999407744,3.834999999999127
-0.2796,1.0062,-0.0104,0.2352,0.2425,0.0811,-0.6562,-0.77,-4.2525,-0.6388100432916531,-15.555882747978583,-1.0474315999407744,3.834999999999127
-0.28,1.0076,-0.0132,0.2352,0.2425,0.0811,-0.6562,-0.77,-4.2525,-0.7178408574063374,-15.535249423537705,-1.0597515999376819,3.8509999999951106
-0.282,1.005,-0.0094,0.2361,0.2446,0.0776,-1.0938,-0.315,-3.7013,-0.5969837753274564,-15.643969671285873,-1.0597515999376819,3.8509999999951106
-0.282,1.005,-0.0094,0.2361,0.2446,0.0776,-1.2775,0.1312,-3.8238,-0.5577501051653937,-15.666907562455483,-1.0576523999372542,3.86699999999837
-0.2868,1.0012,-0.0115,0.2339,0.2423,0.0815,-1.2775,-2.1088,-4.515,-0.6221774546628615,-15.902294850409373,-1.0576523999372542,3.86699999999837
-0.2889,1.001,-0.0137,0.2339,0.2423,0.0815,-0.4025,-0.2887,-4.515,-0.7399856659635814,-16.047203846021,-1.0619828999370862,3.881999999997788
-0.2877,1.0002,-0.0127,0.2339,0.2423,0.0815,0.3063,-0.9538,-5.2238,-0.7303300459936908,-16.046553730937397,-1.0619828999370862,3.881999999997788
-0.2904,0.9989,-0.0151,0.2358,0.2442,0.0898,0.7262,-0.735,-5.5388,-0.8377660229331235,-16.151995080538008,-1.073742899939482,3.8980000000010477
-0.2904,0.9989,-0.0151,0.2358,0.2442,0.0898,0.7262,-0.735,-5.5388,-0.8601575353774961,-16.18875884693509,-1.073742899939482,3.8980000000010477
-0.2904,1.0012,-0.013,0.2341,0.242,0.0845,0.7788,-1.0675,-5.4513,-0.767875733435266,-16.17873675756999,-1.0897553999388607,3.9130000000004657
-0.288,1.0035,-0.0165,0.2341,0.242,0.0845,1.1025,-1.505,-5.0487,-0.9083472193397327,-16.061081048315625,-1.0897553999388607,3.9130000000004657
-0.2871,1.0078,-0.0171,0.2341,0.242,0.0845,1.0325,-1.1812,-4.6988,-0.9595953422530069,-15.942645566529555,-1.1086545999341166,3.9289999999964493
-0.2811,1.0086,-0.0121,0.2358,0.2438,0.0806,1.0325,-1.1812,-4.6988,-0.740673384729033,-15.672142581064268,-1.1086545999341166,3.9289999999964493
-0.2818,1.01,-0.016,0.2358,0.2438,0.0806,0.7525,-1.085,-4.2787,-0.8729834144911711,-15.60820664899661,-1.1260145999376534,3.944999999999709
-0.2818,1.01,-0.016,0.2373,0.2443,0.0818,0.5425,-1.1287,-4.585,-0.900082417965268,-15.59311575538256,-1.1260145999376534,3.944999999999709
-0.2803,1.0067,-0.0163,0.2373,0.2443,0.0818,-0.9013,-1.54,-4.375,-0.9189377139926354,-15.566029868655901,-1.149114599936757,3.959999999999127
-0.2822,1.0038,-0.0134,0.2373,0.2443,0.0818,-0.9013,-1.54,-4.375,-0.8134231033112825,-15.667544143080136,-1.149114599936757,3.959999999999127
-0.2796,1.0009,-0.0137,0.2377,0.2466,0.0763,-0.4638,-1.7675,-4.06,-0.7922974900023769,-15.620343138917026,-1.1773945999425184,3.9760000000023865
-0.2854,1.0009,-0.0148,0.2377,0.2466,0.0763,-0.805,-1.26,-4.1038,-0.8303617380310285,-15.845370895454517,-1.1773945999425184,3.9760000000023865
-0.2854,1.0009,-0.0148,0.2346,0.2446,0.0759,-1.26,-1.8725,-4.795,-0.8411816257642731,-15.894635735359362,-1.2054820999414284,3.9910000000018044
-0.2838,0.9995,-0.012,0.2346,0.2446,0.0759,-1.26,-1.8725,-4.795,-0.7423867901682731,-15.862636298264928,-1.2054820999414284,3.9910000000018044
-0.2797,0.9979,-0.0093,0.2346,0.2446,0.0759,-1.015,-1.6625,-5.2762,-0.6021408738967955,-15.722638315995033,-1.2320820999347513,4.006999999997788
-0.2779,0.9978,-0.011,0.2362,0.2424,0.0862,-0.7525,-1.435,-5.5388,-0.6227373768599427,-15.618202409389273,-1.2320820999347513,4.006999999997788
-0.2796,0.9988,-0.0153,0.2362,0.2424,0.0862,-0.6825,-1.1375,-5.2937,-0.8024122944789837,-15.631027906172754,-1.2502820999384592,4.023000000001048
-0.2796,1.0017,-0.0135,0.2357,0.2417,0.0818,-0.6825,-1.1375,-5.2937,-0.7810670160226098,-15.606182725886663,-1.2502820999384592,4.023000000001048
-0.2791,1.0017,-0.0135,0.2357,0.2417,0.0818,0.2013,-0.6737,-4.7512,-0.7742241622177125,-15.578366298044056,-1.260387599938067,4.038000000000466
-0.2763,1.0036,-0.0091,0.235,0.2429,0.0897,-0.21,-0.0525,-4.55,-0.5854640591970443,-15.440395240943234,-1.260387599938067,4.038000000000466
-0.2774,1.0036,-0.0096,0.235,0.2429,0.0897,-0.21,-0.0525,-4.55,-0.5577378747183132,-15.447797795314088,-1.261227599938238,4.054000000003725
-0.2835,1.0024,-0.0121,0.235,0.2429,0.0897,-0.385,-0.3762,-4.5763,-0.6552815759366762,-15.70135751081499,-1.261227599938238,4.054000000003725
-0.2838,1.0011,-0.0135,0.2354,0.2429,0.0807,-0.6388,-0.2362,-4.9088,-0.7384243022489829,-15.790395891632931,-1.264770599936382,4.068999999995867
-0.2838,1.0011,-0.0135,0.2354,0.2429,0.0807,-0.3588,-0.8487,-5.2937,-0.763393116924232,-15.814589652677052,-1.264770599936382,4.068999999995867
-0.2874,1.0078,-0.0126,0.2346,0.2434,0.0853,-0.3588,-0.8487,-5.2937,-0.7289845784920184,-15.883206593334794,-1.2783497999391484,4.084999999999127
-0.2845,1.0081,-0.0124,0.2346,0.2434,0.0853,-0.21,-0.91,-6.0113,-0.7110057721433143,-15.810661835871795,-1.2929097999421146,4.1010000000023865
-0.2828,1.0044,-0.0078,0.2346,0.2434,0.0853,-0.7262,-1.1812,-6.1075,-0.5244657310476231,-15.762087953687201,-1.2929097999421146,4.1010000000023865
-0.2824,1.0024,-0.0121,0.2363,0.246,0.0844,-1.1988,-0.91,-6.3437,-0.6334177480312541,-15.74694682701039,-1.3065597999349639,4.1159999999945285
-0.2824,1.0024,-0.0052,0.2363,0.246,0.0844,-1.1988,-0.91,-6.3437,-0.41423835847151314,-15.740065781413978,-1.3065597999349639,4.1159999999945285
-0.2832,1.0008,-0.0052,0.2365,0.2438,0.082,-1.015,-0.6037,-5.8538,-0.33582158962351777,-15.776470645007121,-1.3162189999369316,4.131999999997788
-0.2871,1.0022,-0.0102,0.2365,0.2438,0.082,-0.9975,-0.3588,-5.6,-0.5026770937413706,-15.910463979157777,-1.3162189999369316,4.131999999997788
-0.2866,1.0022,-0.0093,0.2365,0.2438,0.082,-0.4025,-1.015,-5.7575,-0.5237656006464092,-15.940265756719747,-1.3314439999363408,4.146999999997206
-0.2838,1.0017,-0.0107,0.2366,0.2424,0.0717,-0.4025,-1.015,-5.7575,-0.5879545989664664,-15.86386403824805,-1.3314439999363408,4.146999999997206
-0.2842,0.9988,-0.0111,0.2366,0.2424,0.0717,-0.28,-1.75,-6.6588,-0.6238602384510314,-15.87176147085534,-1.3594439999420451,4.163000000000466
-0.2842,0.9988,-0.0111,0.2366,0.2442,0.0816,-0.4812,-1.82,-6.2387,-0.6331393074335064,-15.877449386347243,-1.3594439999420451,4.163000000000466
-0.2845,1.0028,-0.0133,0.2366,0.2442,0.0816,-0.14,-1.7763,-6.125,-0.727632036766726,-15.855071610053098,-1.3878647999478353,4.179000000003725
-0.2847,1.0037,-0.0118,0.2366,0.2442,0.0816,-0.14,-1.7763,-6.125,-0.6873173661908238,-15.84378186620535,-1.3878647999478353,4.179000000003725
-0.284,1.0056,-0.0109,0.2351,0.2446,0.0843,-0.4462,-1.7675,-6.72,-0.6393068804241412,-15.813648634903275,-1.4143772999339461,4.193999999995867
-0.2845,1.0054,-0.0124,0.2351,0.2446,0.0843,-0.3938,-1.9075,-6.86,-0.6883158072591439,-15.808428651189434,-1.4143772999339461,4.193999999995867
-0.2845,1.0054,-0.0099,0.2381,0.2442,0.0771,-0.3938,-1.9075,-6.6762,-0.5979181998539218,-15.804573541249171,-1.444897299940164,4.209999999999127
-0.2891,1.0053,-0.0099,0.2381,0.2442,0.0771,-0.1488,-2.2225,-6.6762,-0.5728094000573356,-15.905327829791485,-1.444897299940164,4.209999999999127
-0.2874,1.0044,-0.011,0.237,0.2449,0.0778,-0.6037,-1.9425,-6.6588,-0.6117075763261256,-15.931757364402717,-1.4740347999390333,4.224999999998545
-0.2901,1.0036,-0.0102,0.237,0.2449,0.0778,-0.91,-2.1088,-6.4837,-0.5916010745706669,-16.022908507238277,-1.4740347999390333,4.224999999998545
-0.2891,1.003,-0.0131,0.237,0.2449,0.0778,-0.91,-2.1088,-6.4837,-0.6987322445579864,-16.04913704859489,-1.5077755999459073,4.241000000001804
-0.2933,1.0047,-0.0099,0.2366,0.2442,0.0833,-0.77,-2.065,-6.1337,-0.6051927875931634,-16.174660801935346,-1.5077755999459073,4.241000000001804
-0.2933,1.0047,-0.0099,0.2366,0.2442,0.0833,-0.7613,-1.9075,-6.4225,-0.5768311827233723,-16.223568169401656,-1.538295599952125,4.257000000005064
-0.294,1.003,-0.0082,0.2376,0.2435,0.08,-0.6125,-1.925,-7.035,-0.4997511195728702,-16.254162699669433,-1.538295599952125,4.257000000005064
-0.2901,1.0006,-0.0101,0.2376,0.2435,0.08,-0.6125,-1.925,-7.035,-0.555608593645234,-16.230662644306594,-1.5671705999369983,4.271999999997206
-0.2916,1.0001,-0.0106,0.2376,0.2435,0.08,-0.4988,-2.0038,-6.2913,-0.5927983307403024,-16.243116435719852,-1.5671705999369983,4.271999999997206
-0.2899,1.0005,-0.0094,0.2371,0.2444,0.0879,-0.35,-2.2225,-6.0287,-0.5529393272626206,-16.194103662375355,-1.6027305999442427,4.288000000000466
-0.2899,1.0005,-0.0094,0.2371,0.2444,0.0879,-0.8575,-2.2487,-5.7575,-0.5428511274325446,-16.171963528824847,-1.6027305999442427,4.288000000000466
-0.2898,1.0013,-0.0087,0.237,0.2444,0.0824,-0.8575,-2.2487,-5.7575,-0.5118249076651697,-16.15276263934429,-1.6364610999429339,4.302999999999884
-0.2899,1.0013,-0.0089,0.237,0.2444,0.0824,-0.735,-2.66,-5.6525,-0.5100265391647809,-16.14869347415807,-1.6364610999429339,4.302999999999884
-0.2877,1.0029,-0.0069,0.237,0.2444,0.0824,-0.2187,-2.065,-5.565,-0.4242537833919396,-16.056299297099745,-1.6695010999496651,4.319000000003143
-0.2884,1.0043,-0.0089,0.2366,0.245,0.0798,0.2887,-1.9075,-5.1013,-0.48859105773915357,-16.03211550809885,-1.6695010999496651,4.319000000003143
-0.291,1.0049,-0.0119,0.2366,0.245,0.0798,0.2887,-1.9075,-5.1013,-0.6349203887396062,-16.113599435563795,-1.700021099942004,4.334999999999127
-0.291,1.0049,-0.0119,0.2367,0.2466,0.0804,0.07,-1.9338,-5.1712,-0.6679505334424646,-16.138018897547024,-1.700021099942004,4.334999999999127
-0.2899,1.0064,-0.0117,0.2367,0.2466,0.0804,-0.3588,-1.7587,-5.1363,-0.6665747022871747,-16.08965639581723,-1.7264015999409803,4.349999999998545
-0.2899,1.0066,-0.0113,0.2367,0.2466,0.0804,-0.3588,-1.9162,-5.8187,-0.6494734731842093,-16.07477105332317,-1.7264015999409803,4.349999999998545
-0.2902,1.003,-0.0127,0.2381,0.2453,0.0794,0.1488,-1.9162,-5.8187,-0.7074422080811656,-16.1121110907735,-1.7570607999472263,4.366000000001804
-0.2933,1.0024,-0.0126,0.2381,0.2453,0.0794,0.2537,-2.065,-6.405,-0.7172201775195098,-16.21021654697696,-1.7570607999472263,4.366000000001804
-0.2933,1.0024,-0.0126,0.239,0.2451,0.0835,0.6562,-1.6888,-5.9588,-0.719538549184183,-16.26813874392449,-1.7823927999462432,4.381000000001222
-0.2915,1.0022,-0.0136,0.239,0.2451,0.0835,0.6562,-1.6888,-5.9588,-0.7652128769285486,-16.237411138399942,-1.7823927999462432,4.381000000001222
-0.2904,1.0025,-0.0148,0.239,0.2451,0.0807,0.0263,-2.1875,-5.95,-0.8261368984002473,-16.18756781514251,-1.8173927999533737,4.397000000004482
-0.2889,1.0027,-0.0136,0.2383,0.2439,0.0807,-0.0962,-2.3012,-6.0025,-0.7894168297645272,-16.1197483369365,-1.8173927999533737,4.397000000004482
-0.2858,1.0025,-0.0085,0.2383,0.2439,0.0807,-0.3325,-2.3975,-5.915,-0.5669859116102143,-15.995151091487543,-1.8557527999263004,4.41299999999319
-0.2885,1.0022,-0.013,0.2383,0.2454,0.0857,-0.3325,-2.3975,-5.915,-0.6960528024219271,-16.032818080934142,-1.8557527999263004,4.41299999999319
-0.2885,1.0022,-0.013,0.2383,0.2454,0.0857,-0.245,-1.6538,-5.7488,-0.7308566001198805,-16.048567510796335,-1.8805597999373707,4.427999999999884
-0.2884,1.002,-0.0171,0.2376,0.245,0.0906,-0.5863,-2.0213,-5.8625,-0.9068864948542716,-16.052404929220046,-1.9129005999439594,4.444000000003143
-0.2865,1.0016,-0.0121,0.2376,0.245,0.0906,-1.1375,-2.3712,-6.3175,-0.7653217855745418,-16.005094770457692,-1.9129005999439594,4.444000000003143
-0.2912,1.0021,-0.0117,0.2376,0.245,0.0906,-1.1375,-2.3712,-6.3175,-0.7017762404666762,-16.107903476585477,-1.9484685999253264,4.458999999995285
-0.2937,0.9981,-0.0129,0.2397,0.2478,0.081,-0.6737,-2.3187,-6.4313,-0.7290913320903468,-16.2500244672568,-1.9484685999253264,4.458999999995285
-0.2937,0.9981,-0.0129,0.2397,0.2478,0.081,-0.735,-1.5838,-6.3525,-0.7370679417075261,-16.32479185512073,-1.973809399930489,4.474999999998545
-0.291,1.0031,-0.0111,0.2371,0.245,0.0824,-1.2163,-1.8288,-6.2387,-0.6700883724443444,-16.244917183267805,-1.973809399930489,4.474999999998545
-0.2895,1.0006,-0.0124,0.2371,0.245,0.0824,-1.2163,-1.8288,-6.2387,-0.6960266628123462,-16.185899258241292,-2.003070199923144,4.4909999999945285
-0.288,1.0017,-0.0088,0.2371,0.245,0.0824,-1.2775,-1.7237,-5.9588,-0.5722916779237938,-16.099568220390566,-2.003070199923144,4.4909999999945285
-0.2915,1.0006,-0.0103,0.2373,0.2461,0.0774,-0.98,-1.3563,-6.1775,-0.5841182338491085,-16.177757108310438,-2.0234146999322227,4.506000000001222
-0.2905,1.0027,-0.0102,0.2373,0.2461,0.0774,-1.2425,-1.2075,-5.985,-0.5832808928567589,-16.165247191984175,-2.0234146999322227,4.506000000001222
-0.2905,1.0027,-0.0102,0.2389,0.246,0.0843,-1.2425,-1.2075,-5.985,-0.582984946451662,-16.160081813576898,-2.0427346999361586,4.522000000004482
-0.2911,1.0017,-0.0124,0.2389,0.246,0.0843,-0.875,-1.0675,-5.985,-0.6697367991686347,-16.18528111823753,-2.0427346999361586,4.522000000004482
-0.2906,1.0035,-0.0132,0.2389,0.246,0.0843,-1.0938,-0.84,-5.9588,-0.725454992365733,-16.163805882187336,-2.055334699929558,4.536999999996624
-0.2928,1.0007,-0.0115,0.2386,0.247,0.0736,-1.0938,-0.84,-6.1075,-0.6809239673377817,-16.245404129274625,-2.055334699929558,4.536999999996624
-0.2954,1.0011,-0.0074,0.2386,0.247,0.0736,-1.6888,-0.9887,-6.1075,-0.5315309374172842,-16.355149491020942,-2.071153899932781,4.552999999999884
-0.2954,1.0011,-0.0074,0.2364,0.2478,0.0813,-1.1287,-0.4025,-5.775,-0.4602156991741436,-16.407518288168596,-2.071153899932781,4.552999999999884
-0.2971,1.0019,-0.009,0.2364,0.2478,0.0813,-1.0675,-0.1838,-5.6788,-0.49654513232285,-16.476480042071675,-2.0740946999320427,4.568999999995867
-0.2996,0.9989,-0.0099,0.2364,0.2478,0.1018,-1.0675,-0.1838,-5.6788,-0.544105760753177,-16.614764289875154,-2.0740946999320427,4.568999999995867
-0.2963,1.0024,-0.007,0.239,0.2471,0.0863,-0.91,-0.2362,-5.7488,-0.4456470564314919,-16.522468000896215,-2.0776376999336237,4.584000000002561
-0.2969,1.004,-0.0056,0.239,0.2471,0.0863,-1.3913,0.0,-4.9,-0.36660669809166335,-16.487541079603446,-2.0776376999336237,4.584000000002561
-0.2969,1.0057,-0.0073,0.238,0.2462,0.0878,-1.1375,-0.1138,-4.1912,-0.39908907175428227,-16.45669323774174,-2.0794584999331667,4.599999999998545
-0.2979,1.0057,-0.0073,0.238,0.2462,0.0878,-1.1375,-0.1138,-4.1912,-0.41015870744150845,-16.489337309203236,-2.0794584999331667,4.599999999998545
-0.299,1.005,-0.0107,0.2386,0.245,0.0833,-0.7613,-0.3938,-4.5588,-0.549629548214853,-16.547194403991632,-2.0853654999329376,4.614999999997963
-0.3003,1.0058,-0.0082,0.2386,0.245,0.0833,-0.5863,-0.7875,-5.32,-0.49078162459566094,-16.59873714454487,-2.0853654999329376,4.614999999997963
-0.3009,1.0048,-0.0062,0.2386,0.245,0.0833,-0.9625,-1.33,-6.1687,-0.39767294692691685,-16.638542508755904,-2.106645499937273,4.631000000001222
-0.3012,1.0028,-0.0112,0.2381,0.2454,0.0858,-0.9625,-1.33,-6.1687,-0.5619937960254531,-16.682016890233474,-2.106645499937273,4.631000000001222
-0.3012,1.0028,-0.0112,0.2381,0.2454,0.0858,-1.0063,-1.6275,-6.2387,-0.6144828804316567,-16.70093441966494,-2.1326854999307363,4.646999999997206
-0.2984,1.0,-0.0103,0.2384,0.2464,0.0865,-1.295,-2.03,-6.0025,-0.5988971358360237,-16.650314800798057,-2.1326854999307363,4.646999999997206
-0.2966,1.0019,-0.009,0.2384,0.2464,0.0865,-1.1113,-2.0738,-5.8625,-0.5431198443680114,-16.553069091995866,-2.163792499944618,4.6620000000039
-0.294,0.998,-0.0079,0.2384,0.2464,0.0865,-1.1113,-2.0738,-5.8625,-0.48379387233359594,-16.468606617962713,-2.163792499944618,4.6620000000039
-0.2912,0.9984,-0.0052,0.239,0.2472,0.0806,-0.7,-1.645,-5.1363,-0.3533915757817251,-16.323779897712246,-2.190112499938011,4.677999999999884
-0.2912,1.0014,-0.0074,0.239,0.2472,0.0806,-0.945,-1.645,-5.18,-0.40100272734711906,-16.247769084930937,-2.190112499938011,4.677999999999884
-0.2942,1.0014,-0.0074,0.239,0.2458,0.0814,-0.945,-1.2163,-5.25,-0.41622919894485366,-16.332489582644868,-2.208356999937303,4.6929999999993015
-0.2956,1.0004,-0.0089,0.239,0.2458,0.0814,-0.98,-1.2163,-5.25,-0.479479031337212,-16.420179362705795,-2.208356999937303,4.6929999999993015
-0.2979,1.0038,-0.0089,0.239,0.2458,0.0814,-0.7088,-1.4875,-5.2675,-0.4995114309538617,-16.494210125610063,-2.2321569999421516,4.709000000002561
-0.2933,1.0024,-0.0042,0.2396,0.2466,0.0835,-0.7175,-1.47,-5.3637,-0.31741066589170175,-16.37001006809679,-2.2321569999421516,4.709000000002561
-0.2905,1.0002,-0.0107,0.2396,0.2466,0.0835,-0.7175,-1.47,-5.3637,-0.5248223078586004,-16.25226300935854,-2.2556769999362474,4.724999999998545
-0.2905,1.0002,-0.0107,0.2394,0.2463,0.0817,-1.0412,-1.33,-5.2937,-0.5838504968200398,-16.213145067961396,-2.2556769999362474,4.724999999998545
-0.2887,0.9966,-0.0066,0.2394,0.2463,0.0817,-1.54,-1.2075,-5.25,-0.46017308899425885,-16.173534683892548,-2.2737894999355444,4.739999999997963
-0.2948,1.0001,-0.0067,0.2394,0.2463,0.0817,-1.3913,-1.26,-5.2587,-0.4123149641145405,-16.344178013547573,-2.2939494999304837,4.755999999993946
-0.2889,1.0045,-0.0019,0.239,0.247,0.077,-1.3913,-1.26,-5.2587,-0.2217609235879876,-16.140382601138555,-2.2939494999304837,4.755999999993946
-0.291,1.0002,-0.0066,0.239,0.247,0.077,-1.2337,-0.9363,-5.0925,-0.32299672179956185,-16.197086755413633,-2.3079939999367514,4.77100000000064
-0.291,1.0002,-0.0039,0.2388,0.2491,0.0902,-1.715,-1.085,-5.285,-0.2656625481636701,-16.213887475989477,-2.3101639999371932,4.773000000001048
-0.2921,0.9983,-0.0039,0.2388,0.2491,0.0902,-0.9275,-1.1463,-5.3725,-0.2371359557681455,-16.277803612302332,-2.3101639999371932,4.773000000001048
-0.2986,0.9983,-0.0043,0.2383,0.2495,0.0829,-0.9275,-1.1463,-5.3725,-0.24371964570142035,-16.528831447089694,-2.3285047999409296,4.789000000004307
-0.3044,1.0,-0.0105,0.2383,0.2495,0.0829,-0.5163,-1.2163,-5.1975,-0.5009346705309224,-16.80456684626948,-2.3285047999409296,4.789000000004307
-0.3026,0.9994,-0.0063,0.2383,0.2495,0.0829,-0.0787,-1.8375,-6.1863,-0.3961749569612417,-16.82681061483721,-2.3579047999335496,4.805000000000291
-0.2982,1.0016,-0.0027,0.24,0.246,0.083,0.1663,-1.9425,-6.3175,-0.21148610676169466,-16.697842649991063,-2.3579047999335496,4.805000000000291
-0.2982,1.0016,-0.0027,0.24,0.246,0.083,0.1663,-1.9425,-6.3175,-0.1679085766172838,-16.636117119787265,-2.387042299932419,4.819999999999709
-0.2984,1.0042,-0.0077,0.2392,0.2458,0.0833,0.0,-1.82,-6.6937,-0.3726675116713992,-16.599834654164034,-2.4161622999383514,4.836000000002969
-0.2968,1.0062,-0.0098,0.2392,0.2458,0.0833,-0.28,-2.5025,-7.0788,-0.509139259936771,-16.558819417098658,-2.4161622999383514,4.836000000002969
-0.2946,1.0035,-0.003,0.2392,0.2458,0.0833,-0.4725,-2.695,-7.4637,-0.26515158617248713,-16.548168174610257,-2.4161622999383514,4.836000000002969
-0.2959,1.0024,-0.0045,0.2398,0.2473,0.0858,-0.4725,-2.695,-7.4637,-0.25941780468284115,-16.542674794101202,-2.456587299936783,4.8510000000023865
-0.2959,1.0024,-0.0045,0.2398,0.2473,0.0858,0.0437,-2.205,-7.2888,-0.25774794124392725,-16.532464927851002,-2.456587299936783,4.8510000000023865
-0.2987,1.0017,-0.007,0.2382,0.2486,0.0854,-0.5775,-2.555,-6.9037,-0.35956462895138463,-16.556354844429144,-2.4974672999265213,4.86699999999837
-0.2965,0.9997,-0.0059,0.2382,0.2486,0.0854,-0.5775,-2.555,-6.9037,-0.3442730584862499,-16.54401932423748,-2.5383472999162597,4.882999999994354
-0.3025,0.9978,-0.0058,0.2382,0.2486,0.0854,-0.4288,-2.275,-6.7638,-0.33612665462544483,-16.669764713185998,-2.5383472999162597,4.882999999994354
-0.3006,0.9969,-0.0016,0.2379,0.2485,0.0802,0.2187,-2.3363,-6.2125,-0.14886643220151607,-16.729690742090725,-2.5733917999318985,4.898000000001048
-0.3027,0.9981,-0.0077,0.2379,0.2485,0.0802,-0.5425,-2.7387,-5.6,-0.3589505749780348,-16.82054638267116,-2.5733917999318985,4.898000000001048
-0.3027,0.9981,-0.0077,0.2398,0.2482,0.0834,-0.5425,-2.7387,-5.6,-0.4184751704016671,-16.852915313768424,-2.617210999920899,4.913999999997031
-0.2968,1.0008,-0.0095,0.2398,0.2482,0.0834,-0.2887,-2.6862,-5.6962,-0.5107160533859257,-16.641359265221336,-2.617210999920899,4.913999999997031
-0.2968,1.0028,-0.0065,0.2398,0.2482,0.0834,0.0437,-2.4938,-5.5213,-0.40523396147068225,-16.540436645570335,-2.6546179999194472,4.928999999996449
-0.2937,1.0011,-0.0039,0.2406,0.2488,0.0831,-0.49,-2.5725,-5.8625,-0.2740259324505231,-16.425072335655976,-2.6546179999194472,4.928999999996449
-0.2922,1.0017,-0.0031,0.2406,0.2488,0.0831,-0.49,-2.5725,-5.8625,-0.2043150842232393,-16.326156616066367,-2.6957779999278326,4.944999999999709
-0.2922,1.0017,-0.0031,0.241,0.2465,0.0862,-1.1638,-2.0912,-5.3987,-0.18659949046270707,-16.283399305274386,-2.6957779999278326,4.944999999999709
-0.29,1.0003,-0.0015,0.241,0.2465,0.0862,-0.5337,-1.6363,-5.2238,-0.1143737110248651,-16.203941957134266,-2.7219587999212607,4.960999999995693
-0.2971,1.0027,-0.0027,0.241,0.2465,0.0836,-0.595,-0.9187,-5.5475,-0.14280353227477632,-16.39938649665624,-2.7219587999212607,4.960999999995693
-0.2972,1.0022,-0.0021,0.2397,0.2467,0.0836,-0.595,-0.9187,-5.5475,-0.12659913281064455,-16.476233246490462,-2.73573929992741,4.9760000000023865
-0.2997,0.9995,0.0013,0.2397,0.2467,0.0836,-0.5425,-0.9712,-5.495,0.017536764376930098,-16.617469068958513,-2.73573929992741,4.9760000000023865
-0.2968,0.9966,-0.004,0.2394,0.2484,0.0777,-0.455,-1.61,-5.635,-0.16153422875356999,-16.596116942823183,-2.766329299927785,4.995000000002619
-0.2968,0.9966,-0.004,0.2394,0.2484,0.0777,-0.63,-1.7325,-5.1975,-0.21008224772922537,-16.587821177376128,-2.769794299928491,4.997000000003027
-0.2985,1.0019,-0.0048,0.24,0.2482,0.079,-0.63,-1.7325,-5.1975,-0.2557812965022909,-16.589596177867836,-2.769794299928491,4.997000000003027
-0.3004,1.0014,-0.0046,0.24,0.2482,0.079,0.0875,-1.8813,-5.1712,-0.26140899238760007,-16.664516710723973,-2.798013799913708,5.011999999995169
-0.2991,1.0031,-0.0005,0.24,0.2482,0.079,-0.2275,-1.7587,-4.6725,-0.08912839869529475,-16.619691023394157,-2.798013799913708,5.011999999995169
-0.2991,1.0025,-0.0011,0.2404,0.2483,0.0704,-0.2275,-1.7587,-4.4012,-0.06969899683726354,-16.614430111977168,-2.8331877999208737,5.031999999999243
-0.2991,1.0025,-0.0011,0.2404,0.2483,0.0704,0.0962,-1.435,-4.4012,-0.06450701139881627,-16.61311674844246,-2.8331877999208737,5.031999999999243
-0.2963,0.9992,-0.0004,0.24,0.2478,0.0809,0.28,-1.3563,-4.8738,-0.03248896274579506,-16.544240425832154,-2.8548885999154265,5.047999999995227
-0.309,1.0022,-0.0066,0.24,0.2478,0.0809,0.2362,-1.2775,-5.2675,-0.29727427531119954,-16.947037816397682,-2.8548885999154265,5.047999999995227
-0.3068,0.9993,-0.0026,0.24,0.2478,0.0809,0.2362,-1.2775,-5.2675,-0.18347390725485738,-17.028932739101485,-2.874051099923978,5.063000000001921
-0.3051,0.995,-0.0023,0.2402,0.2465,0.0773,0.455,-1.3475,-5.74,-0.1437153282857367,-17.0403713164284,-2.874051099923978,5.063000000001921
-0.3051,1.0,-0.0097,0.2402,0.2465,0.0773,-0.07,-1.9338,-4.9262,-0.45279061274484156,-16.987506151790374,-2.904991899916211,5.0789999999979045
-0.2995,1.0,-0.0097,0.2411,0.2465,0.0836,0.7788,-2.0038,-4.9088,-0.5345254746041401,-16.762349365673526,-2.904991899916211,5.0789999999979045
-0.2983,1.0034,-0.0082,0.2411,0.2465,0.0836,0.7788,-2.0038,-4.9088,-0.4818917138303271,-16.615077486005998,-2.935048899915045,5.0939999999973224
-0.2992,1.0036,-0.0049,0.2411,0.2465,0.0836,0.8575,-1.645,-4.3225,-0.32074968967310147,-16.60409851230096,-2.935048899915045,5.0939999999973224
-0.2986,1.0036,-0.0035,0.2394,0.2485,0.0857,0.5775,-1.7325,-3.5438,-0.2258260645926183,-16.576350319090533,-2.9627688999080863,5.109999999993306
-0.2973,1.0045,-0.004,0.2394,0.2485,0.0857,0.2187,-2.17,-3.78,-0.22761235606336,-16.5062734105515,-2.9627688999080863,5.109999999993306
-0.2973,1.0045,-0.004,0.239,0.2474,0.0827,0.2187,-2.17,-3.78,-0.22802868599615014,-16.491127796481056,-2.99748889991516,5.125999999996566
-0.2988,1.0016,-0.0077,0.239,0.2474,0.0827,-0.3675,-2.0475,-3.4738,-0.38311678572795305,-16.58635889562388,-2.99748889991516,5.125999999996566
-0.3023,0.9996,-0.0087,0.239,0.2474,0.0827,-0.2362,-1.785,-3.6575,-0.46853674868909256,-16.775397436383617,-3.0242638999271083,5.14100000000326
-0.2999,0.9999,-0.005,0.2386,0.246,0.0826,0.1925,-1.925,-4.3137,-0.32919182128390784,-16.714919252460863,-3.0242638999271083,5.14100000000326
-0.2999,1.0003,-0.0081,0.2386,0.246,0.0826,0.1925,-1.925,-4.3137,-0.4323463300947543,-16.695137835301587,-3.055063899919377,5.156999999999243
-0.2999,1.0003,-0.0048,0.2416,0.248,0.0849,0.3325,-2.205,-4.1737,-0.31067494665787276,-16.690509443369674,-3.055063899919377,5.156999999999243
-0.2966,1.0002,-0.0048,0.2416,0.248,0.0849,0.9538,-1.6013,-4.0163,-0.28206862175972186,-16.5565598321963,-3.079083399918445,5.171999999998661
-0.2959,1.0002,-0.0056,0.2404,0.2461,0.0826,0.9538,-1.3825,-3.4475,-0.3130843585239854,-16.495536422041404,-3.079083399918445,5.171999999998661
-0.2951,1.0041,-0.0077,0.2404,0.2461,0.0826,0.4375,-1.3825,-3.4475,-0.41136283234474846,-16.401176439669022,-3.101203399912892,5.187999999994645
-0.2967,1.0021,-0.0082,0.2404,0.2461,0.0826,0.0962,-1.1725,-3.6312,-0.4550427889166648,-16.47326109862639,-3.101203399912892,5.187999999994645
-0.2949,1.0049,-0.0038,0.2387,0.2474,0.0823,-0.0962,-1.9425,-3.465,-0.2766214127446853,-16.378811160885373,-3.132283399919224,5.2039999999979045
-0.2949,1.0049,-0.0038,0.2387,0.2474,0.0823,-0.0962,-1.9425,-3.465,-0.23174306247742718,-16.359699006003964,-3.132283399919224,5.2039999999979045
-0.2959,1.0028,-0.0045,0.2396,0.249,0.0854,-0.1138,-1.5838,-3.325,-0.2507006091703797,-16.424031585103645,-3.156040399929826,5.219000000004598
-0.2933,1.0015,-0.0075,0.2396,0.249,0.0854,0.4725,-0.9887,-3.5788,-0.3898167795666729,-16.343768119480373,-3.156040399929826,5.219000000004598
-0.294,0.9996,-0.0104,0.2396,0.249,0.0854,0.63,-0.6737,-3.675,-0.5522219050231914,-16.379205175805208,-3.1668195999271203,5.235000000000582
-0.2937,1.0011,-0.0094,0.2391,0.2474,0.0881,0.63,-0.6737,-3.675,-0.541003265623139,-16.356020592080657,-3.1668195999271203,5.235000000000582
-0.2937,1.0011,-0.0105,0.2391,0.2474,0.0881,0.5163,-0.7962,-4.0775,-0.5878630721257636,-16.35111302998856,-3.1787625999266567,5.25
-0.2926,1.0017,-0.0105,0.2391,0.246,0.0833,0.245,-0.7788,-4.3663,-0.5976208345116071,-16.299418793869627,-3.1787625999266567,5.25
-0.2917,1.0024,-0.0073,0.2391,0.246,0.0833,-0.735,-0.56,-3.5875,-0.4713042248010321,-16.240182103862786,-3.1877225999244074,5.265999999995984
-0.2929,1.0004,-0.0101,0.2391,0.246,0.0833,-0.735,-0.56,-3.5875,-0.5463307393130509,-16.302122802632386,-3.1877225999244074,5.265999999995984
-0.2948,1.001,-0.0076,0.2378,0.2474,0.0863,-0.9187,-0.63,-4.13,-0.47031070272652775,-16.38442682927798,-3.197802599926461,5.281999999999243
-0.2952,1.0006,-0.0132,0.2378,0.2474,0.0863,-0.1575,-0.28,-3.9288,-0.6828714570810142,-16.424419391769934,-3.197802599926461,5.281999999999243
-0.2952,1.0006,-0.0132,0.2382,0.2447,0.0838,-0.0525,-0.8662,-3.8238,-0.7376609250976742,-16.433408961977563,-3.210795599925957,5.296999999998661
-0.2923,1.0028,-0.0098,0.2382,0.2447,0.0838,-0.0525,-0.8662,-3.8238,-0.6041358716969825,-16.289874542588528,-3.2246547999287807,5.313000000001921
-0.2936,1.0028,-0.0144,0.2382,0.2447,0.0838,-0.0175,-0.735,-3.955,-0.7687908965336357,-16.311212407614168,-3.2246547999287807,5.313000000001921
-0.293,1.0035,-0.0123,0.24,0.2472,0.08,-0.2013,-0.9538,-3.815,-0.719437759721749,-16.283268805142498,-3.2389617999282256,5.328000000001339
-0.2955,1.0027,-0.0157,0.24,0.2472,0.08,-0.2187,-0.875,-3.9288,-0.8509535406418578,-16.388354164071117,-3.2389617999282256,5.328000000001339
-0.2955,1.0027,-0.0157,0.2386,0.248,0.082,-0.2187,-0.875,-3.9288,-0.8850854069534162,-16.411820785002828,-3.2529617999247114,5.3439999999973224
-0.2919,1.004,-0.0129,0.2386,0.248,0.082,-0.6037,-0.6562,-4.0687,-0.779079578050622,-16.256397029083097,-3.2529617999247114,5.3439999999973224
-0.2893,1.0016,-0.0165,0.2386,0.2275,0.0778,-1.0588,-0.7088,-4.6813,-0.8891211565102478,-16.148305565645963,-3.2643025999270217,5.360000000000582
-0.2896,1.0001,-0.0106,0.2385,0.2454,0.0778,-1.0588,-0.7088,-4.6813,-0.7008007819814424,-16.148539886153856,-3.2643025999270217,5.360000000000582
-0.2933,1.0005,-0.0142,0.2385,0.2454,0.0778,-0.9275,-0.7175,-4.6112,-0.7774121005441454,-16.287438662892395,-3.2750650999213837,5.374999999992724
-0.2917,0.9968,-0.0089,0.2384,0.2452,0.077,-1.295,-1.19,-4.865,-0.6072955019232327,-16.304192273309948,-3.2750650999213837,5.374999999992724
-0.2917,0.9968,-0.0089,0.2384,0.2452,0.077,-1.295,-0.9975,-4.83,-0.5460334398147799,-16.308940631149238,-3.291025099924635,5.390999999995984
-0.2914,1.0006,-0.0084,0.2398,0.2459,0.0756,-1.295,-0.9975,-4.83,-0.5044098958704176,-16.25664604947871,-3.291025099924635,5.390999999995984
-0.2889,1.0011,-0.0106,0.2398,0.2459,0.0756,-1.5137,-0.6825,-4.6638,-0.5666809544879677,-16.13918339518752,-3.3012625999292036,5.4060000000026776
-0.2896,1.0002,-0.0098,0.2398,0.2459,0.0756,-1.26,-0.385,-4.5413,-0.5632577324112438,-16.145141326282786,-3.3012625999292036,5.4060000000026776
-0.2909,1.0049,-0.0111,0.2383,0.2466,0.0792,-1.4,0.21,-4.6375,-0.6068076308827178,-16.144170967683078,-3.297902599930047,5.421999999998661
-0.2909,1.0049,-0.0111,0.2383,0.2466,0.0792,-1.4,0.21,-4.6375,-0.6231070568913755,-16.14391353566122,-3.297902599930047,5.421999999998661
-0.2924,1.0055,-0.0109,0.2391,0.247,0.0837,-0.455,0.3938,-5.3113,-0.6216430323504447,-16.191061112250292,-3.2916017999287632,5.438000000001921
-0.2899,1.0044,-0.0102,0.2391,0.247,0.0837,-0.9712,0.2362,-5.005,-0.594674744364791,-16.12602018408561,-3.2916017999287632,5.438000000001921
-0.291,1.0014,-0.0078,0.2391,0.247,0.0837,-0.9975,0.4112,-5.5738,-0.49454384200817686,-16.175852745030774,-3.2854337999319942,5.452999999994063
-0.2946,1.001,-0.0094,0.239,0.2456,0.0851,-0.9975,0.4112,-5.5738,-0.5238828667832367,-16.320087607189166,-3.2854337999319942,5.452999999994063
-0.2963,1.0036,-0.0104,0.239,0.2456,0.0851,-0.4375,-0.0263,-6.3875,-0.5745023501180795,-16.384517569346524,-3.28585459993208,5.4689999999973224
-0.2963,1.0036,-0.0104,0.2374,0.248,0.0816,-0.9625,0.1488,-6.3263,-0.5875376669961541,-16.417344081356084,-3.28585459993208,5.4689999999973224
-0.2913,1.0005,-0.007,0.2374,0.248,0.0816,-1.2862,0.2625,-6.1337,-0.467875864601034,-16.313969959081625,-3.281917099930323,5.484000000004016
-0.2911,1.0003,-0.0085,0.2374,0.248,0.0816,-1.2862,0.2625,-6.1337,-0.4800427252097797,-16.264201509020094,-3.281917099930323,5.484000000004016
-0.2943,1.0001,-0.0088,0.238,0.2459,0.0807,-1.1375,0.1925,-6.16,-0.4959275405545503,-16.33789851395595,-3.278837099931096,5.5
-0.2955,0.9992,-0.0082,0.238,0.2459,0.0807,-1.0237,0.315,-5.8538,-0.4786342829561402,-16.42090505210843,-3.278837099931096,5.5
-0.2955,0.9992,-0.0082,0.2394,0.2452,0.0767,-1.0237,0.315,-5.3463,-0.47296095285368506,-16.456888654598146,-3.273797099930069,5.51600000000326
-0.2988,0.9981,-0.0074,0.2394,0.2452,0.0767,-1.5488,0.2625,-5.3463,-0.4438810724803899,-16.597424661854188,-3.273797099930069,5.51600000000326
-0.2983,0.9977,-0.0076,0.2394,0.2452,0.0767,-1.2687,0.1312,-5.2762,-0.43909666015522375,-16.630184783652176,-3.2718290999311,5.530999999995402
-0.3015,0.9978,-0.0077,0.2389,0.2476,0.0795,-1.085,-0.6475,-4.5937,-0.4411220615740893,-16.76468411512625,-3.2718290999311,5.530999999995402
-0.3004,1.0007,-0.0084,0.2389,0.2476,0.0795,-1.085,-0.6475,-4.5937,-0.46760672602488274,-16.723358307937215,-3.282189099933211,5.546999999998661
-0.3004,1.0028,-0.008,0.2392,0.2473,0.0818,-0.4988,-0.6475,-4.6287,-0.4600237536920412,-16.688296658854455,-3.291901599932834,5.561999999998079
-0.2984,1.0028,-0.008,0.2392,0.2473,0.0818,-0.2013,-0.5337,-4.4887,-0.4578380993760706,-16.600757809433137,-3.291901599932834,5.561999999998079
-0.294,1.0031,-0.0061,0.2382,0.2473,0.0754,-0.525,-0.56,-4.6025,-0.3792691142963294,-16.404945810693,-3.300861599934659,5.578000000001339
-0.2944,1.0032,-0.0056,0.2382,0.2473,0.0754,-0.525,-0.56,-4.6025,-0.3365878991814507,-16.367878914661773,-3.300861599934659,5.578000000001339
-0.2963,1.0013,-0.011,0.2382,0.2473,0.0754,-0.9013,-0.7437,-4.4625,-0.5370536094252835,-16.454076255049078,-3.300861599934659,5.578000000001339
-0.2945,1.0018,-0.0089,0.2393,0.2477,0.0821,-0.7175,-0.6475,-4.5588,-0.5173652871660462,-16.40012886430311,-3.31122159993677,5.594000000004598
-0.2945,1.0018,-0.0089,0.2393,0.2477,0.0821,-0.7175,-0.42,-4.8562,-0.5114958273665559,-16.386521847781133,-3.3175215999334693,5.60899999999674
-0.2912,1.0031,-0.0081,0.241,0.2454,0.0829,-0.7175,-0.42,-4.8562,-0.477212919591458,-16.24356373177997,-3.3175215999334693,5.60899999999674
-0.2959,1.0004,-0.0081,0.241,0.2454,0.0829,-0.7875,-0.7175,-4.8825,-0.4679534986352484,-16.4105800948615,-3.329001599935808,5.625
-0.2944,0.9997,-0.0092,0.241,0.2454,0.0829,-0.6388,-0.56,-4.9612,-0.5099880902182692,-16.40905357729314,-3.329001599935808,5.625
-0.2944,1.0055,-0.0085,0.2403,0.2459,0.0908,-0.6037,-1.1988,-5.2063,-0.49173433529743354,-16.34709051276545,-3.3469835999351103,5.639999999999418
-0.2944,1.0055,-0.0046,0.2403,0.2459,0.0908,-0.6037,-1.1988,-5.2063,-0.3283241894350491,-16.327998950324737,-3.3469835999351103,5.639999999999418
-0.2915,1.0037,-0.0046,0.2389,0.2472,0.0823,-0.9538,-0.8925,-5.7137,-0.28366978789050457,-16.24405640292681,-3.361263599931526,5.655999999995402
-0.2886,0.9991,-0.0049,0.2389,0.2472,0.0823,-1.4787,-0.9363,-5.5037,-0.28202952795776554,-16.157293730101905,-3.361263599931526,5.655999999995402
-0.2901,1.0016,-0.0076,0.2389,0.2472,0.0823,-1.4787,-0.98,-5.6087,-0.3758528802137145,-16.154219184864402,-3.3769435999347204,5.671999999998661
-0.2896,1.0038,-0.0056,0.2395,0.2481,0.085,-1.4787,-0.98,-5.6087,-0.34131633175838255,-16.11475499611026,-3.3769435999347204,5.671999999998661
-0.2883,1.0021,-0.0072,0.2395,0.2481,0.085,-2.1613,-0.4638,-5.7312,-0.3748408462759288,-16.07414742770595,-3.3839005999344502,5.686999999998079
-0.2883,1.0021,-0.0072,0.2378,0.2475,0.0851,-2.3363,0.105,-5.635,-0.39044468466663945,-16.05865654658726,-3.3839005999344502,5.686999999998079
-0.2935,0.9959,-0.0049,0.2378,0.2475,0.0851,-2.3363,0.105,-5.635,-0.34444254970442906,-16.28995591349486,-3.382220599934108,5.703000000001339
-0.2983,0.9928,-0.0048,0.2378,0.2475,0.0851,-1.645,-0.3325,-5.9325,-0.3047970711008727,-16.54823409090076,-3.382220599934108,5.703000000001339
-0.3037,0.9959,-0.0065,0.2401,0.2474,0.0794,-1.6013,-0.6475,-5.845,-0.34595957134212596,-16.79851582779638,-3.39193309992902,5.717999999993481
-0.3054,0.9997,-0.0082,0.2401,0.2474,0.0794,-0.735,-1.0063,-5.8888,-0.43279635393430343,-16.912108848133094,-3.39193309992902,5.717999999993481
-0.3054,0.9997,-0.0087,0.2391,0.2438,0.0864,-0.735,-1.0063,-5.8888,-0.4788870117912889,-16.957179051399716,-3.4080338999323003,5.73399999999674
-0.3005,1.0031,-0.0087,0.2391,0.2438,0.0864,-0.0088,-1.155,-6.2125,-0.49248197914977376,-16.80419931578105,-3.4080338999323003,5.73399999999674
-0.2941,1.0045,-0.0059,0.2394,0.2469,0.0821,0.3325,-0.8838,-6.195,-0.3719360469721179,-16.538272925431702,-3.422174699935181,5.75
-0.2901,1.0063,-0.0067,0.2394,0.2469,0.0821,-0.0437,-1.3038,-6.2125,-0.37910526213514295,-16.2894258419573,-3.422174699935181,5.75
-0.2897,1.007,-0.0032,0.2394,0.2469,0.0821,-0.0437,-1.3038,-6.2125,-0.23098540839507967,-16.158956217880526,-3.441731699934422,5.764999999999418
-0.2929,1.0043,-0.007,0.2395,0.2476,0.0802,-0.2013,-0.9275,-5.95,-0.3558489157482023,-16.218123136125804,-3.441731699934422,5.764999999999418
-0.2929,1.0043,-0.007,0.2395,0.2476,0.0802,-0.4288,-0.63,-5.81,-0.38740687098845433,-16.243096437296938,-3.4537016999345687,5.783999999999651
-0.2949,1.0025,-0.007,0.2396,0.249,0.0841,-1.3038,-0.5775,-5.0838,-0.39549130739839794,-16.346937709961928,-3.455434199932821,5.786999999996624
-0.2948,1.0039,-0.0076,0.2396,0.249,0.0841,-1.3038,-0.5775,-5.0838,-0.41992726779812967,-16.359342859703304,-3.455434199932821,5.786999999996624
-0.2979,0.9994,-0.0059,0.2396,0.249,0.0841,-1.6363,-0.3588,-5.0312,-0.371781750322813,-16.52725335060296,-3.4608161999352225,5.802000000003318
-0.3001,1.0002,-0.0053,0.2386,0.2474,0.0927,-1.3388,-0.525,-5.2762,-0.3285495534569704,-16.645586964725403,-3.4608161999352225,5.802000000003318
-0.3001,1.0002,-0.0053,0.2386,0.2474,0.0927,-1.2425,-0.6562,-5.1188,-0.31242069952176715,-16.684234252518614,-3.471315399932587,5.8179999999993015
-0.2963,1.0011,-0.002,0.2405,0.2478,0.0821,-1.2425,-0.6562,-5.1188,-0.1844299795157368,-16.547245928694185,-3.471315399932587,5.8179999999993015
-0.2977,1.0009,-0.0052,0.2405,0.2478,0.0821,-1.33,-0.42,-5.1712,-0.25636806100079657,-16.558799510266734,-3.4780353999309,5.833999999995285
-0.2973,0.9996,-0.003,0.2405,0.2478,0.0821,-1.47,-0.5863,-5.075,-0.2043986374589444,-16.56202326188467,-3.4780353999309,5.833999999995285
-0.2971,0.9988,-0.0013,0.2406,0.2464,0.0919,-1.47,-0.5863,-5.075,-0.1244706985930395,-16.564430096266708,-3.4868298999348246,5.849000000001979
-0.2978,1.0001,0.0001,0.2406,0.2464,0.0919,-1.9162,-0.5337,-4.9788,-0.05466979664997328,-16.576849392570004,-3.4868298999348246,5.849000000001979
-0.2978,1.0001,0.0001,0.2394,0.2465,0.0833,-1.5137,0.0525,-4.9788,-0.01788118213812013,-16.580472208708755,-3.4859898999350354,5.864999999997963
-0.2976,0.9988,0.0029,0.2394,0.2465,0.0833,-1.61,-0.0613,-5.3288,0.09152018054903792,-16.588090535859333,-3.4859898999350354,5.864999999997963
-0.3026,1.0002,-0.0012,0.2394,0.2465,0.0833,-1.61,-0.0613,-5.3288,-0.003643675434778171,-16.753182850843572,-3.4869093999349996,5.879999999997381
-0.2998,1.0003,0.0014,0.2398,0.2466,0.0856,-1.26,-0.14,-5.1625,0.050375749133452975,-16.705315842676168,-3.489149399935456,5.89600000000064
-0.3026,0.9995,0.0004,0.2398,0.2466,0.0856,-0.8838,-0.07,-4.8738,0.03153874562721934,-16.80457421705567,-3.489149399935456,5.89600000000064
-0.3026,0.9995,0.0004,0.2394,0.2474,0.0856,-0.6212,0.0263,-5.0575,0.025424646796567783,-16.832059950435585,-3.4887285999355617,5.911999999996624
-0.2985,0.9978,0.0026,0.2394,0.2474,0.0856,-0.6212,0.0263,-5.0575,0.11339901214932441,-16.707813503151865,-3.4887285999355617,5.911999999996624
-0.297,0.9988,-0.0006,0.2394,0.2474,0.0862,-1.0938,-0.4812,-4.725,0.015216711632789719,-16.60029363819602,-3.4959465999387827,5.927000000003318
-0.2999,1.0006,0.0013,0.2402,0.2482,0.0862,-0.7525,-0.3063,-4.8387,0.0565981239207433,-16.660915455649597,-3.4959465999387827,5.927000000003318
-0.2977,0.9993,0.0025,0.2402,0.2482,0.0862,-0.0088,-0.3325,-4.935,0.12199074693055248,-16.609852052916356,-3.501266599937447,5.9429999999993015
-0.2977,0.9989,0.004,0.2399,0.2466,0.0806,-0.0088,-0.3325,-4.935,0.202990324885083,-16.599559295277235,-3.501266599937447,5.9429999999993015
-0.2972,0.9989,0.004,0.2399,0.2466,0.0806,-1.0325,-0.6212,-4.3488,0.22073379270715032,-16.576569679626736,-3.5105845999370855,5.957999999998719
-0.2988,0.9986,0.0006,0.2405,0.2475,0.0858,-1.0938,-0.8487,-4.62,0.09698574736767321,-16.63662509065932,-3.5105845999370855,5.957999999998719
-0.3005,0.9984,-0.002,0.2405,0.2475,0.0858,-0.6825,-0.9712,-4.8562,-0.052297068904169096,-16.718640422805514,-3.5261237999331847,5.973999999994703
-0.3018,1.0011,-0.0008,0.2405,0.2475,0.0858,-0.6825,-0.9712,-4.8562,-0.04770720351905947,-16.760128134816917,-3.5261237999331847,5.973999999994703
-0.2977,1.0003,-0.0006,0.2396,0.2467,0.0781,0.1838,-1.3825,-5.0225,-0.0375018089653953,-16.628690818132473,-3.5496262999329433,5.9909999999945285
-0.2977,1.0003,-0.0006,0.2396,0.2467,0.0781,-0.0175,-1.6013,-5.0487,-0.0351403087864031,-16.5899814172631,-3.5496262999329433,5.9909999999945285
-0.2988,0.9999,0.0004,0.239,0.2491,0.0776,-0.0175,-1.6013,-4.9963,0.008600016610808647,-16.623720003473796,-3.5736457999436624,6.006000000001222
-0.2949,0.9991,-0.0017,0.239,0.2491,0.0776,0.6737,-1.1638,-4.9963,-0.0751347690094296,-16.497237329655214,-3.5736457999436624,6.006000000001222
-0.2987,1.0003,-0.0032,0.239,0.2491,0.0776,0.525,-1.4787,-4.8212,-0.15976265854954344,-16.59015650485443,-3.5973049999377236,6.021999999997206
-0.2956,1.0012,-0.0002,0.2396,0.248,0.0711,0.3325,-1.715,-5.1275,-0.04512046179078616,-16.492049849911247,-3.5973049999377236,6.021999999997206
-0.2956,1.0022,-0.0054,0.2396,0.248,0.0711,0.3325,-1.715,-5.1275,-0.2488665825951417,-16.451184669239737,-3.6230299999492037,6.0370000000039
-0.296,1.0022,-0.0054,0.2398,0.2474,0.082,0.1225,-1.6712,-4.76,-0.2944462718049743,-16.45343973930216,-3.6230299999492037,6.0370000000039
-0.2945,1.0033,-0.0011,0.2398,0.2474,0.082,0.525,-1.89,-4.7512,-0.1132063165282053,-16.384549049057906,-3.653269999941613,6.052999999999884
-0.2937,1.0003,-0.001,0.2398,0.2474,0.082,0.1488,-1.7587,-4.8738,-0.0705295013336281,-16.368998666700513,-3.653269999941613,6.052999999999884
-0.2959,0.9988,-0.002,0.2392,0.2482,0.0835,0.1488,-1.7587,-4.8738,-0.10425690197814261,-16.464485602435243,-3.6814091999345493,6.068999999995867
-0.2951,0.9975,-0.0041,0.2392,0.2482,0.0835,-0.56,-1.645,-4.8125,-0.19812877039646468,-16.47580765651469,-3.6814091999345493,6.068999999995867
-0.2951,0.9975,-0.0041,0.2398,0.2471,0.0798,0.3938,-1.3125,-5.1275,-0.22713152965665245,-16.478840966854023,-3.701096699943335,6.084000000002561
-0.2956,0.9978,-0.0035,0.2398,0.2471,0.0798,0.5075,-1.4612,-4.9612,-0.2066880369552629,-16.49522148843977,-3.701096699943335,6.084000000002561
-0.2948,0.9983,-0.0014,0.2398,0.2471,0.0798,0.5075,-1.4612,-4.9612,-0.10793903341482584,-16.464516270388696,-3.7244758999374663,6.099999999998545
-0.293,1.0019,-0.0018,0.239,0.2466,0.0791,0.7875,-1.4438,-5.1537,-0.1039661306453178,-16.351427099486745,-3.7244758999374663,6.099999999998545
-0.2925,1.0013,-0.0022,0.239,0.2466,0.0791,0.8662,-1.6013,-5.355,-0.12144772772607967,-16.306171061203933,-3.7484953999365342,6.114999999997963
-0.2925,1.0013,-0.0059,0.2396,0.2478,0.0844,0.8225,-1.2163,-5.0838,-0.2934383546068776,-16.290591219615887,-3.7484953999365342,6.114999999997963
-0.294,1.0008,-0.0059,0.2396,0.2478,0.0844,0.8225,-1.2163,-5.0838,-0.3287130816192639,-16.346573757826246,-3.767956199940499,6.131000000001222
-0.2957,1.0033,-0.0016,0.2383,0.2472,0.0826,0.8662,-1.9338,-5.1537,-0.13943527578448445,-16.398586012379877,-3.767956199940499,6.131000000001222
-0.2956,1.0016,-0.0039,0.2383,0.2472,0.0826,0.665,-2.1437,-5.0662,-0.20543395686520438,-16.429478801792747,-3.802255399931889,6.146999999997206
-0.2959,1.0012,-0.0041,0.2383,0.2472,0.0826,0.665,-4.3837,-5.4163,-0.22846628687479686,-16.452901911332674,-3.802255399931889,6.146999999997206
-0.2957,1.003,-0.0027,0.2406,0.2484,0.0783,0.3762,-2.3712,-5.4163,-0.17092384375705563,-16.435182240315555,-3.837823399947762,6.1620000000039
-0.2957,1.003,-0.0027,0.2406,0.2484,0.0783,0.3413,-2.3625,-5.3288,-0.15801700819573986,-16.429172458872163,-3.837823399947762,6.1620000000039
-0.2982,1.0033,-0.0112,0.2394,0.2466,0.0777,0.0787,-2.2225,-5.3025,-0.5235531438778435,-16.512423200623584,-3.8733833999388354,6.177999999999884
-0.2953,1.002,-0.0125,0.2394,0.2466,0.0777,0.0787,-2.2225,-5.3025,-0.6686700611992294,-16.449496800658856,-3.8733833999388354,6.177999999999884
-0.2989,1.0016,-0.0048,0.2394,0.2466,0.0777,0.0787,-2.66,-4.6988,-0.3695272059709657,-16.571176090054113,-3.913283399937287,6.1929999999993015
-0.296,1.0008,-0.0047,0.2388,0.2478,0.0826,0.2275,-3.2725,-5.1363,-0.29243782575315436,-16.505181489791312,-3.913283399937287,6.1929999999993015
-0.296,1.0008,-0.0085,0.2388,0.2478,0.0826,0.56,-2.9925,-5.2675,-0.44469152043984916,-16.485108732097668,-3.9611633999252684,6.208999999995285
-0.2976,0.9992,-0.0085,0.2399,0.247,0.0828,0.56,-2.9925,-5.2675,-0.4781733809712456,-16.553166508179153,-3.9611633999252684,6.208999999995285
-0.2974,0.999,-0.0102,0.2399,0.247,0.0828,0.8487,-3.2113,-5.6175,-0.5632751344523043,-16.56866775140341,-4.0125441999357365,6.224999999998545
-0.2981,1.0006,-0.006,0.2399,0.247,0.0828,0.5163,-3.6312,-5.2937,-0.39145079987077436,-16.582896913394496,-4.0125441999357365,6.224999999998545
-0.2963,1.0005,-0.0071,0.2386,0.2478,0.081,0.595,-3.5525,-5.1975,-0.40334595503809945,-16.52332649415656,-4.065831699959516,6.240000000005239
-0.2933,0.9988,-0.0059,0.2386,0.2478,0.081,0.595,-3.5525,-5.1975,-0.35235356089167974,-16.4141477962347,-4.065831699959516,6.240000000005239
-0.2933,0.9988,-0.0059,0.239,0.2481,0.0834,0.315,-3.0538,-4.9175,-0.34161727865587077,-16.378893608415133,-4.114692499947251,6.256000000001222
-0.2928,1.0013,-0.0076,0.239,0.2481,0.0834,-0.1663,-2.9662,-4.13,-0.4109962724868993,-16.318081248506004,-4.159185499945525,6.27100000000064
-0.2893,1.0014,-0.004,0.239,0.2481,0.0834,0.0787,-2.6775,-4.5237,-0.27274339630040495,-16.16629416690223,-4.159185499945525,6.27100000000064
-0.2912,1.0031,-0.0061,0.2398,0.2475,0.085,0.0787,-2.6775,-4.5237,-0.3301870474980396,-16.182212122432134,-4.202025499934771,6.286999999996624
-0.2897,1.0002,-0.0083,0.2398,0.2475,0.085,0.1575,-2.6775,-5.1363,-0.44110294617205476,-16.161732671122422,-4.202025499934771,6.286999999996624
-0.2897,1.0002,-0.0083,0.2383,0.2457,0.0843,0.3588,-1.8288,-5.11,-0.46769708023694123,-16.155448949417398,-4.231286299940732,6.302999999999884
-0.2885,1.001,-0.007,0.2383,0.2457,0.0843,0.0263,-1.645,-4.8738,-0.4170202818588778,-16.09937067650857,-4.231286299940732,6.302999999999884
-0.2916,1.0014,-0.0051,0.2383,0.2462,0.089,0.0263,-1.645,-4.8738,-0.3223532517798962,-16.196579539470598,-4.2559612999517435,6.3180000000065775
-0.292,0.9986,-0.0077,0.2389,0.2462,0.089,-0.4288,-1.8988,-5.5563,-0.40900334324907156,-16.263041576049023,-4.2559612999517435,6.3180000000065775
-0.2935,0.9987,-0.0086,0.2389,0.2462,0.089,0.1138,-1.4875,-5.7575,-0.47321613029089027,-16.333700818220535,-4.279761299934946,6.333999999995285
-0.2949,1.0002,-0.0064,0.2382,0.2477,0.0878,0.1138,-1.4875,-5.7575,-0.39208287690612226,-16.39200965809802,-4.279761299934946,6.333999999995285
-0.2949,1.0002,-0.0064,0.2382,0.2477,0.0878,-0.4638,-1.7413,-5.635,-0.37367334843473204,-16.414607861200057,-4.305880799946602,6.349000000001979
-0.2989,1.0004,-0.0098,0.2393,0.247,0.0798,-0.0088,-1.5838,-5.88,-0.5150883856684263,-16.547397234580266,-4.305880799946602,6.349000000001979
-0.2996,0.9993,-0.0082,0.2393,0.247,0.0798,0.1225,-1.715,-5.5213,-0.48085937608309676,-16.63974364813332,-4.333320799939713,6.364999999997963
-0.2971,1.0036,-0.004,0.2393,0.247,0.0798,0.1225,-1.715,-5.5213,-0.28855949293403466,-16.542178405433514,-4.333320799939713,6.364999999997963
-0.2993,1.0032,-0.0036,0.241,0.2481,0.0886,-0.3237,-2.1263,-5.53,-0.22773773604819658,-16.58781107433487,-4.367341599946644,6.381000000001222
-0.2993,1.0032,-0.0036,0.241,0.2481,0.0886,-0.3762,-2.1175,-5.8362,-0.21159455004582728,-16.60266630179856,-4.367341599946644,6.381000000001222
-0.2977,1.0017,-0.0064,0.2394,0.2481,0.0832,-0.2362,-2.1088,-6.0813,-0.32579338628356624,-16.573418604865708,-4.398973599945417,6.39600000000064
-0.2999,1.0029,-0.0081,0.2394,0.2481,0.0832,-0.2362,-2.1088,-6.0813,-0.42703931650610466,-16.61585997967804,-4.398973599945417,6.39600000000064
-0.2996,1.0028,-0.0081,0.2394,0.2481,0.0832,-0.245,-2.1962,-6.0113,-0.4534479091353243,-16.62625932905572,-4.434112799936596,6.411999999996624
-0.2987,1.0003,-0.004,0.2389,0.2474,0.0682,-0.42,-2.31,-6.3175,-0.2905433150047614,-16.626148826163053,-4.434112799936596,6.411999999996624
-0.3026,0.9992,-0.0034,0.2389,0.2474,0.0682,-0.7262,-2.7037,-6.2038,-0.2235298932808941,-16.747539200977364,-4.474668299954694,6.427000000003318
-0.3026,0.9992,-0.0034,0.241,0.2462,0.0826,-0.7262,-2.7037,-6.2038,-0.2034999794479073,-16.802639553672233,-4.474668299954694,6.427000000003318
-0.3015,0.9966,-0.0048,0.241,0.2462,0.0826,-0.525,-2.555,-6.37,-0.25552772787626454,-16.817525965375253,-4.515548299944433,6.4429999999993015
-0.3046,1.0011,-0.0046,0.241,0.2462,0.0826,-0.2275,-3.0712,-6.4925,-0.2612554335023672,-16.867912593395825,-4.515548299944433,6.4429999999993015
-0.3021,1.0007,-0.0036,0.2382,0.2514,0.09,-0.0525,-3.0275,-5.635,-0.21983716602856979,-16.82345747562978,-4.5639882999543016,6.459000000002561
-0.3005,0.9996,-0.0001,0.2382,0.2514,0.09,-0.0525,-3.0275,-5.635,-0.059000282186085024,-16.7648936988732,-4.5639882999543016,6.459000000002561
-0.3005,0.9996,-0.0001,0.2395,0.2479,0.0805,0.035,-3.0363,-5.8888,-0.01870244204438421,-16.744967696927723,-4.6095327999304425,6.473999999994703
-0.2996,1.0007,-0.0062,0.2395,0.2479,0.0805,0.6037,-2.4762,-5.9237,-0.2830583243542598,-16.69833535938514,-4.6095327999304425,6.473999999994703
-0.3032,0.9983,-0.0037,0.2395,0.2479,0.0805,0.6037,-2.4762,-5.6,-0.2274764126283168,-16.82447282861089,-4.649151999938514,6.489999999997963
-0.3027,0.9976,-0.0021,0.2397,0.2499,0.0882,0.6475,-2.7037,-5.6,-0.14325456030901418,-16.85973020038673,-4.649151999938514,6.489999999997963
-0.3037,1.0004,-0.0032,0.2397,0.2499,0.0882,0.63,-2.7387,-5.9325,-0.1747614729523829,-16.876029313007574,-4.6902324999568465,6.505000000004657
-0.3037,0.9994,-0.0092,0.2397,0.2477,0.0895,0.5688,-2.135,-5.425,-0.45142907770096125,-16.8935727134436,-4.6902324999568465,6.505000000004657
-0.3029,0.9994,-0.0092,0.2397,0.2477,0.0895,0.5688,-2.135,-5.425,-0.5110471465579981,-16.871544625051783,-4.724392499948272,6.52100000000064
-0.3022,0.9994,-0.0074,0.2393,0.2454,0.0828,-0.1488,-2.73,-4.9437,-0.4463640607108734,-16.837662156881525,-4.724392499948272,6.52100000000064
-0.3024,1.0008,-0.0054,0.2393,0.2454,0.0828,0.2013,-2.4062,-4.69,-0.341258241761044,-16.81919318004231,-4.762891699956115,6.5370000000039
-0.3035,1.0028,-0.0049,0.2393,0.2454,0.0828,0.4462,-2.0912,-3.9638,-0.29352984269588406,-16.834065447552447,-4.762891699956115,6.5370000000039
-0.3004,0.9999,-0.0098,0.2386,0.2483,0.0848,0.4462,-2.0912,-3.9638,-0.502217868948325,-16.746516118439565,-4.7942596999396825,6.551999999996042
-0.3004,0.9999,-0.0098,0.2386,0.2483,0.0848,0.3325,-2.0912,-3.9375,-0.5480686034799671,-16.72677778440257,-4.7942596999396825,6.551999999996042
-0.2964,0.9968,-0.0091,0.2404,0.2482,0.0917,-0.455,-2.03,-3.955,-0.5299678342460823,-16.59689925785437,-4.8267396999463,6.5679999999993015
-0.2976,1.0039,-0.0044,0.2404,0.2482,0.0917,-0.6125,-1.6538,-3.9987,-0.33172692339847687,-16.531247122291052,-4.8267396999463,6.5679999999993015
-0.2975,1.0055,-0.0039,0.2404,0.2482,0.0917,-0.6125,-1.6538,-3.9987,-0.2538824096584723,-16.493117680083493,-4.85154669995737,6.583000000005995
-0.2937,1.0037,-0.0024,0.2389,0.2489,0.0822,-0.6212,-2.065,-4.4363,-0.17087432732486707,-16.356377210334117,-4.884586699949076,6.599000000001979
-0.2937,0.9881,-0.0078,0.2389,0.2489,0.0822,-0.5688,-2.1088,-4.3313,-0.3719487214736496,-16.50506976881727,-4.884586699949076,6.599000000001979
-0.298,0.9992,-0.0078,0.2386,0.2482,0.0849,-0.6562,-1.9162,-4.305,-0.42520825827968256,-16.58149468175751,-4.91524589994138,6.614999999997963
-0.3025,0.9973,-0.0066,0.2386,0.2482,0.0849,-0.6562,-1.9162,-4.305,-0.3926488276882577,-16.80208264097199,-4.91524589994138,6.614999999997963
-0.304,0.9994,-0.0051,0.2386,0.2482,0.0849,-0.2013,-1.995,-4.6463,-0.31828647682852423,-16.887642531869115,-4.945170899940218,6.629999999997381
-0.3001,0.9987,-0.0085,0.2406,0.2474,0.091,0.4812,-1.4,-4.4275,-0.4504416256807167,-16.765466437682022,-4.945170899940218,6.629999999997381
-0.2979,1.0039,-0.0073,0.2406,0.2474,0.091,0.4812,-1.7763,-5.1363,-0.42405375898238273,-16.6002308779513,-4.973591699946009,6.64600000000064
-0.2979,1.0039,-0.0073,0.2411,0.2464,0.0822,0.1225,-1.7763,-5.1363,-0.41839763048503104,-16.549709055896997,-4.973591699946009,6.64600000000064
-0.2955,1.0016,-0.0086,0.2411,0.2464,0.0822,0.7088,-1.7675,-5.4775,-0.47656025982367184,-16.47544875881204,-5.00010419994498,6.661000000000058
-0.291,1.0054,-0.0047,0.2411,0.2464,0.0822,0.2275,-1.5488,-5.39,-0.316388166212776,-16.25268441978029,-5.00010419994498,6.661000000000058
-0.2902,1.0063,-0.0101,0.2401,0.2482,0.0751,0.2275,-1.5488,-5.39,-0.5148835129133894,-16.141186160446132,-5.0248849999387595,6.676999999996042
-0.2912,1.0105,-0.0095,0.2401,0.2482,0.0751,-0.2362,-1.1638,-5.9675,-0.5324450726787674,-16.102097806372065,-5.0248849999387595,6.676999999996042
-0.2912,1.0105,-0.0101,0.2398,0.2485,0.0818,-0.6562,-1.085,-5.9588,-0.5608829547527012,-16.08598242031934,-5.042244999942296,6.6929999999993015
-0.2908,1.0055,-0.0101,0.2398,0.2485,0.0818,-1.1375,-0.6475,-5.5213,-0.5705204167288965,-16.1144791085814,-5.042244999942296,6.6929999999993015
-0.2965,1.0023,-0.0065,0.2397,0.249,0.087,-1.1375,-0.6475,-5.5213,-0.4393653357284373,-16.352624468311422,-5.053252499942183,6.709999999999127
-0.299,0.9978,-0.0066,0.2397,0.249,0.087,-1.5225,-0.56,-5.5825,-0.40266663867641705,-16.564726511928722,-5.053252499942183,6.709999999999127
-0.3022,0.9986,-0.0084,0.2397,0.249,0.087,-1.015,-0.7962,-5.8187,-0.4560124529744098,-16.73149165374377,-5.053252499942183,6.709999999999127
-0.3017,0.9971,-0.0053,0.24,0.2475,0.0874,-0.5425,-0.7875,-5.005,-0.34746344445262045,-16.804155454346002,-5.06585249994475,6.7260000000023865
-0.3017,0.9971,-0.0053,0.24,0.2475,0.0874,-0.5425,-0.7875,-5.005,-0.3167075019502427,-16.825515362197557,-5.06585249994475,6.7260000000023865
-0.3008,1.0,-0.0023,0.241,0.249,0.0851,-0.735,-0.805,-4.7425,-0.18719954274772135,-16.764242263870322,-5.077927499944281,6.741000000001804
-0.298,0.9999,-0.0041,0.241,0.249,0.0851,-1.1287,-0.945,-4.76,-0.2187158373979757,-16.64176528299949,-5.093047499940486,6.756999999997788
-0.2962,1.0011,-0.0037,0.241,0.249,0.0851,-1.0938,-0.84,-4.6375,-0.2140960091013178,-16.52441272114063,-5.093047499940486,6.756999999997788
-0.2987,0.9992,-0.0029,0.2386,0.2467,0.0918,-1.0938,-0.84,-4.6375,-0.18234291437820038,-16.61183193251817,-5.106487499943224,6.773000000001048
-0.2987,0.9992,-0.0029,0.2386,0.2467,0.0918,-1.575,-0.9187,-4.5062,-0.17271941847533462,-16.635305768552463,-5.106487499943224,6.773000000001048
-0.301,1.003,-0.0027,0.2397,0.2478,0.0836,-1.435,-0.3237,-4.7162,-0.16124531827398633,-16.685698917341004,-5.11134299994068,6.78799999999319
-0.3012,1.0006,-0.004,0.2397,0.2478,0.0836,-1.435,-0.4462,-4.6375,-0.2033324599340073,-16.734915281100463,-5.11134299994068,6.78799999999319
-0.3026,0.9994,-0.0047,0.2397,0.2478,0.0836,-1.5925,-0.4462,-4.6375,-0.24278280456269224,-16.81592325767533,-5.118482199942134,6.803999999996449
-0.302,0.9964,-0.0025,0.2386,0.2481,0.0762,-1.0675,-0.9887,-4.7775,-0.17671740316895374,-16.848971659638554,-5.118482199942134,6.803999999996449
-0.3028,0.9993,-0.0037,0.2386,0.2481,0.0762,-0.8925,-0.7262,-4.7162,-0.20099991337233997,-16.855068908092562,-5.129375199946995,6.819000000003143
-0.3028,0.9993,-0.0037,0.2396,0.2475,0.086,-0.8925,-0.7262,-4.7162,-0.20863744317100308,-16.856720975396726,-5.129375199946995,6.819000000003143
-0.2994,1.0027,-0.0002,0.2396,0.2475,0.086,-1.0675,-0.7962,-4.7075,-0.07706912945025732,-16.687855529592994,-5.1421143999437975,6.834999999999127
-0.2949,1.0018,-0.0009,0.2396,0.2475,0.086,-1.4175,-0.77,-4.4538,-0.061116359443054186,-16.474945472232406,-5.1421143999437975,6.834999999999127
-0.2927,1.0006,-0.0004,0.239,0.2481,0.0794,-1.0762,-0.8575,-4.5325,-0.035660255174541154,-16.349226796543547,-5.155834399946593,6.8510000000023865
-0.2963,0.9966,-0.0048,0.239,0.2481,0.0794,-1.0762,-0.8575,-4.5325,-0.19574147210044918,-16.503820352077287,-5.155834399946593,6.8510000000023865
-0.2963,0.9966,-0.0048,0.2402,0.2479,0.0814,-0.91,-0.7,-5.04,-0.25058655224879567,-16.54162942238886,-5.166334399941092,6.8659999999945285
-0.2975,0.9946,-0.0001,0.2402,0.2479,0.0814,-1.33,-0.3588,-5.3375,-0.09505234953146129,-16.616529877785375,-5.166334399941092,6.8659999999945285
