AcclX,AcclY,AcclZ,MagX,MagY,MagZ,GyroX,GyroY,GyroZ,Roll,Pitch,Yaw,Time Elapsed(s)
-0.2914,1.0015,-0.0053,0.2416,0.2424,0.0844,1.2862,-1.19,-7.3938,0,0,0,0.0
-0.2977,1.0065,-0.009,0.2416,0.2424,0.0844,1.2862,-1.19,-7.3938,0,0,0,0.0
-0.2977,1.0065,-0.009,0.2408,0.2455,0.081,1.575,-2.065,-6.93,0,0,0,0.014999999999417923
-0.297,1.0099,-0.007,0.2408,0.2455,0.081,1.4175,-2.52,-7.1575,0,0,0,0.014999999999417923
-0.3006,1.0103,-0.0075,0.2408,0.2455,0.081,1.4175,-2.52,-7.7525,0,0,0,0.030999999995401595
-0.3003,1.0108,-0.0065,0.2426,0.2458,0.0861,1.4088,-3.22,-7.7525,0,0,0,0.046000000002095476
-0.3025,1.0026,-0.0072,0.2426,0.2458,0.0861,1.1638,-3.535,-8.4087,0,0,0,0.046000000002095476
-0.3025,1.0026,-0.0072,0.2407,0.2475,0.0838,1.1287,-4.4538,-9.0387,0,0,0,0.06199999999807915
-0.3009,0.9985,-0.0044,0.2407,0.2475,0.0838,1.1287,-4.4538,-9.0387,0,0,0,0.06199999999807915
-0.2977,0.9968,-0.0068,0.2407,0.2475,0.0757,0.9975,-5.1013,-9.1962,0,0,0,0.06199999999807915
-0.2995,0.9916,-0.0096,0.2412,0.2469,0.0757,0.1663,-6.0375,-8.6975,0,0,0,0.07799999999406282
-0.298,0.9969,-0.0063,0.2412,0.2469,0.0757,0.7437,-5.95,-8.6275,0,0,0,0.07799999999406282
-0.2944,1.0028,-0.0098,0.2423,0.247,0.0846,0.7437,-5.95,-8.6275,0,0,0,0.0930000000007567
-0.2944,1.0028,-0.0098,0.2423,0.247,0.0846,1.12,-6.0988,-8.0937,0,0,0,0.0930000000007567
-0.2946,1.0057,-0.0135,0.2418,0.246,0.0795,1.1812,-6.1775,-7.3325,0,0,0,0.10899999999674037
-0.2949,1.0126,-0.0128,0.2418,0.246,0.0795,1.0675,-6.51,-7.0613,0,0,0,0.1239999999961583
-0.2924,1.0178,-0.0106,0.2418,0.246,0.0795,1.0675,-6.51,-7.0613,0,0,0,0.1239999999961583
-0.2876,1.0192,-0.0099,0.2429,0.2493,0.0838,0.6562,-6.125,-7.455,0,0,0,0.13999999999214197
-0.2876,1.0192,-0.0099,0.2429,0.2493,0.0838,-0.2275,-6.2562,-7.49,0,0,0,0.13999999999214197
-0.2883,1.0132,-0.0132,0.2434,0.2465,0.0853,-0.4638,-5.8888,-7.3412,0,0,0,0.1559999999954016
-0.2911,1.0078,-0.0165,0.2434,0.2465,0.0853,-0.4638,-5.8888,-7.3412,0,0,0,0.1559999999954016
-0.2974,1.0055,-0.0122,0.2434,0.2465,0.0853,-0.3675,-5.5912,-7.9187,0,0,0,0.17199999999866122
-0.2957,1.003,-0.0111,0.2421,0.2485,0.0859,-0.9887,-5.4775,-8.3038,0,0,0,0.17399999999906868
-0.2957,1.0024,-0.0138,0.2421,0.2485,0.0859,-0.8487,-5.2587,-8.0063,0,0,0,0.17399999999906868
-0.2943,1.0024,-0.0138,0.2425,0.2486,0.085,-0.8487,-5.2587,-8.0063,0,0,0,0.18999999999505235
-0.2905,1.0018,-0.0104,0.2425,0.2486,0.085,-0.035,-5.1188,-8.2775,0,0,0,0.18999999999505235
-0.2887,1.0031,-0.0081,0.2425,0.2486,0.085,-0.28,-4.5588,-7.5338,0,0,0,0.20499999999447027
-0.2874,1.0042,-0.0083,0.2431,0.2482,0.0912,-0.28,-4.5588,-6.9125,0,0,0,0.20499999999447027
-0.2926,1.0038,-0.0084,0.2431,0.2482,0.0912,-0.1138,-4.1125,-6.9125,0,0,0,0.2209999999977299
-0.2926,1.0038,-0.0084,0.2453,0.2482,0.0837,-0.6037,-3.9375,-6.58,0,0,0,0.23699999999371357
-0.2941,1.0074,-0.0046,0.2453,0.2482,0.0837,-1.5225,-3.1237,-6.405,0,0,0,0.23699999999371357
-0.2957,1.003,-0.0036,0.2453,0.2482,0.0632,-1.5225,-3.1237,-6.405,0,0,0,0.25200000000040745
-0.2988,1.0019,-0.0071,0.2437,0.249,0.0805,-1.5137,-2.835,-5.9763,0,0,0,0.25200000000040745
-0.3037,1.0032,-0.0051,0.2437,0.249,0.0805,-1.6538,-2.5812,-6.1687,0,0,0,0.2679999999963911
-0.3037,1.0023,-0.0004,0.2414,0.2491,0.0917,-1.5838,-2.9137,-6.2038,0,0,0,0.2679999999963911
-0.3029,1.0023,-0.0004,0.2414,0.2491,0.0917,-1.5838,-2.9137,-6.2038,0,0,0,0.28299999999580905
-0.3012,0.9994,0.0034,0.2425,0.2488,0.0834,-2.0387,-2.7125,-6.5712,0,0,0,0.28399999999965075
-0.2992,0.9985,-0.0001,0.2425,0.2488,0.0834,-2.1962,-2.3625,-6.2737,0,0,0,0.28399999999965075
-0.3017,0.9983,0.0021,0.2425,0.2488,0.0834,-2.065,-2.2138,-5.8275,0,0,0,0.3000000000029104
-0.297,0.9973,0.007,0.2442,0.2482,0.0777,-2.065,-2.2138,-5.8275,0,0,0,0.31599999999889405
-0.297,0.9973,0.007,0.2442,0.2482,0.0777,-2.3537,-2.24,-5.0838,0,0,0,0.31599999999889405
-0.298,0.9977,0.0038,0.2442,0.2473,0.0904,-2.1,-1.6187,-4.5325,0,0,0,0.330999999998312
-0.3001,0.9965,0.0031,0.2442,0.2473,0.0904,-1.225,-1.1725,-4.4363,0,0,0,0.330999999998312
-0.3024,0.9981,0.0027,0.2442,0.2473,0.0904,-1.225,-1.1725,-4.4363,0,0,0,0.34699999999429565
-0.3009,1.0029,0.0085,0.2432,0.249,0.0854,-1.1113,-1.1725,-4.2962,0,0,0,0.34699999999429565
-0.3009,1.0031,0.0098,0.2432,0.249,0.0854,-1.2337,-1.1638,-4.2175,0,0,0,0.36200000000098953
-0.3038,1.0031,0.0098,0.2426,0.248,0.0881,-1.2337,-1.1988,-4.6025,0,0,0,0.36200000000098953
-0.3049,1.002,0.0081,0.2426,0.248,0.0881,-1.19,-1.1988,-4.6025,0,0,0,0.3779999999969732
-0.3053,1.0058,0.0052,0.2426,0.248,0.0881,-1.0412,-1.3125,-4.97,0,0,0,0.3779999999969732
-0.3032,1.0085,0.0113,0.2423,0.249,0.0895,-1.1725,-1.05,-4.8125,0,0,0,0.3939999999929569
-0.299,1.0071,0.0098,0.2423,0.249,0.0895,-1.1725,-1.05,-4.8125,0,0,0,0.3939999999929569
-0.299,1.0071,0.0098,0.2433,0.2496,0.0908,-1.6013,-1.2075,-4.69,0,0,0,0.40899999999965075
-0.2965,1.0023,0.0079,0.2433,0.2496,0.0908,-1.19,-1.3038,-4.4012,0,0,0,0.40899999999965075
-0.3011,1.0016,0.006,0.2433,0.2496,0.0908,-1.8463,-1.2775,-4.13,0,0,0,0.4249999999956344
-0.3048,0.9978,0.0094,0.2438,0.2492,0.0897,-1.8463,-1.2775,-4.13,0,0,0,0.4249999999956344
-0.3052,0.9961,0.0114,0.2438,0.2492,0.0897,-1.3825,-1.3475,-4.2875,0,0,0,0.43999999999505235
-0.3052,0.9961,0.0074,0.245,0.2485,0.0876,-1.085,-1.5488,-4.2438,0,0,0,0.43999999999505235
-0.3034,0.995,0.0074,0.245,0.2485,0.0876,-0.9975,-1.785,-4.2088,0,0,0,0.455999999998312
-0.3024,1.0008,0.0095,0.2445,0.2478,0.0887,-0.9975,-1.785,-4.2088,0,0,0,0.455999999998312
-0.2988,1.0025,0.0112,0.2445,0.2478,0.0887,-1.3212,-2.065,-3.9375,0,0,0,0.47199999999429565
-0.2959,0.9999,0.0126,0.2445,0.2478,0.0887,-1.5488,-1.785,-3.815,0,0,0,0.47199999999429565
-0.2961,0.9993,0.0096,0.2426,0.2474,0.0862,-1.3913,-1.82,-3.7013,0,0,0,0.48700000000098953
-0.2961,0.9993,0.0096,0.2426,0.2474,0.0862,-1.3913,-1.82,-3.7013,0,0,0,0.48700000000098953
-0.2962,0.9978,0.0087,0.2421,0.2488,0.0921,-1.225,-1.3475,-3.4213,0,0,0,0.5029999999969732
-0.2923,0.995,0.0144,0.2421,0.2488,0.0921,-1.61,-1.2425,-3.29,0,0,0,0.5029999999969732
-0.2905,0.9959,0.0121,0.2421,0.2488,0.0921,-2.1175,-0.8138,-3.2113,0,0,0,0.5179999999963911
-0.2897,0.9952,0.0093,0.2433,0.248,0.0832,-2.1175,-0.8138,-3.2113,0,0,0,0.5179999999963911
-0.2897,0.9952,0.0128,0.2433,0.248,0.0832,-1.9075,-1.4612,-3.6312,0,0,0,0.5339999999923748
-0.2913,0.9968,0.0128,0.2417,0.2474,0.0874,-1.1638,-1.3563,-3.7625,0,0,0,0.5339999999923748
-0.2921,0.9954,0.0134,0.2417,0.2474,0.0874,-1.1638,-1.3563,-3.8675,0,0,0,0.5499999999956344
-0.2938,0.9948,0.0146,0.2417,0.2474,0.0874,-1.1287,-1.0938,-3.8675,0,0,0,0.5499999999956344
-0.2937,0.9977,0.0145,0.2432,0.2478,0.0954,-1.1375,-1.2862,-4.41,0,0,0,0.5650000000023283
-0.2951,0.9996,0.0141,0.2432,0.2478,0.0954,-0.7,-1.82,-4.585,0,0,0,0.5650000000023283
-0.2951,0.9996,0.0141,0.2429,0.2474,0.089,-0.7,-1.82,-4.585,0,0,0,0.580999999998312
-0.293,0.9994,0.0151,0.2429,0.2474,0.089,-0.5688,-1.855,-4.1125,0,0,0,0.580999999998312
-0.2934,1.0002,0.0106,0.2429,0.2474,0.089,-0.5512,-2.0213,-4.0075,0,0,0,0.5959999999977299
-0.2955,0.9992,0.0085,0.2442,0.2479,0.0774,-0.4112,-2.2575,-3.57,0,0,0,0.5959999999977299
-0.2958,0.9992,0.0118,0.2442,0.2479,0.0774,-0.4112,-2.2575,-3.57,0,0,0,0.6119999999937136
-0.2958,0.9992,0.0133,0.2434,0.2481,0.0894,-0.5688,-2.31,-3.3863,0,0,0,0.6119999999937136
-0.2942,1.0016,0.0133,0.2434,0.2481,0.0894,-0.5863,-2.5812,-3.4388,0,0,0,0.6279999999969732
-0.2946,1.0006,0.0081,0.2436,0.2478,0.085,-0.6125,-2.9313,-3.045,0,0,0,0.6430000000036671
-0.2946,1.0026,0.0116,0.2436,0.2478,0.085,-0.6125,-2.9313,-3.045,0,0,0,0.6430000000036671
-0.2929,1.0033,0.012,0.2436,0.2478,0.085,-0.805,-3.0187,-3.2113,0,0,0,0.6589999999923748
-0.2908,1.0037,0.0114,0.2425,0.247,0.0894,-0.7962,-2.9137,-3.1762,0,0,0,0.6589999999923748
-0.2908,1.0037,0.0114,0.2425,0.247,0.0894,-0.5688,-3.0712,-4.2,0,0,0,0.6749999999956344
-0.2909,1.0047,0.0076,0.2421,0.247,0.0845,-0.5688,-3.0712,-4.2,0,0,0,0.6759999999994761
-0.2914,1.0062,0.007,0.2421,0.247,0.0845,-0.7962,-2.905,-4.34,0,0,0,0.6759999999994761
-0.2883,1.0036,0.0104,0.2421,0.247,0.0845,-0.8225,-3.115,-4.1125,0,0,0,0.6920000000027358
-0.2864,1.0009,0.0092,0.2424,0.2462,0.0941,-0.8225,-2.6775,-4.2962,0,0,0,0.6920000000027358
-0.2864,1.0009,0.0092,0.2424,0.2462,0.0941,-1.1988,-2.6775,-4.2962,0,0,0,0.7079999999987194
-0.2845,0.9986,0.0076,0.2409,0.247,0.0902,-1.1812,-2.6688,-4.1737,0,0,0,0.7229999999981374
-0.2827,0.9994,0.0104,0.2409,0.247,0.0902,-0.7613,-2.6513,-4.0775,0,0,0,0.7229999999981374
-0.2811,0.9968,0.0129,0.2409,0.247,0.0902,-0.7613,-2.6513,-4.0775,0,0,0,0.738999999994121
-0.2849,0.9962,0.0096,0.2414,0.2459,0.0861,-0.7962,-2.2838,-3.7275,0,0,0,0.738999999994121
-0.2837,0.9986,0.0101,0.2414,0.2459,0.0861,-0.7875,-2.415,-3.885,0,0,0,0.7540000000008149
-0.2837,0.9986,0.0101,0.2408,0.2475,0.0877,-0.9013,-2.3537,-3.4825,0,0,0,0.7540000000008149
-0.2829,1.0036,0.0096,0.2408,0.2475,0.0877,-0.9013,-2.3537,-3.4825,0,0,0,0.7699999999967986
-0.2862,1.0041,0.0092,0.2408,0.2475,0.0877,-1.4175,-1.8375,-3.6575,0,0,0,0.7699999999967986
-0.2883,1.0039,0.0079,0.2402,0.2473,0.0942,-1.0762,-2.1088,-3.8937,0,0,0,0.7859999999927823
-0.2871,1.0043,0.0092,0.2402,0.2473,0.0942,-0.8662,-1.6888,-4.4887,0,0,0,0.7859999999927823
-0.2871,1.0043,0.0092,0.2426,0.2462,0.0897,-0.8662,-1.6888,-4.4887,0.04777171442342663,-5.068996838044572,0.0,0.8009999999994761
-0.2839,1.003,0.0115,0.2426,0.2462,0.0897,-0.98,-1.7763,-4.9,0.15511993478872538,-5.623071948056392,-0.08526239999152167,0.8489999999947031
-0.2843,1.0015,0.0056,0.2426,0.2458,0.0929,-0.8138,-1.995,-4.7425,0.16264871992459642,-7.411019681201472,-0.08526239999152167,0.8489999999947031
-0.2868,1.0013,0.0096,0.2405,0.2458,0.0929,-0.945,-1.9863,-4.6287,0.22133443636025135,-9.517000686082683,-0.08526239999152167,0.8489999999947031
-0.2849,1.0039,0.0073,0.2405,0.2458,0.0929,-0.945,-1.9863,-4.6287,0.25097517521944185,-11.071324229279064,-0.11704319999799628,0.8649999999979627
-0.2838,1.0033,0.0074,0.2402,0.2459,0.0958,-1.0588,-1.9075,-4.06,0.2898358245289411,-13.301080812892062,-0.11704319999799628,0.8649999999979627
-0.2838,1.0033,0.0074,0.2402,0.2459,0.0958,-1.54,-1.8288,-3.8325,0.34775246395347836,-14.619175820139237,-0.11704319999799628,0.8649999999979627
-0.2871,1.0046,0.0074,0.24,0.2462,0.0947,-1.5137,-1.645,-3.605,0.37953238840037967,-15.382836636559603,-0.11704319999799628,0.8649999999979627
-0.2871,1.0058,0.0102,0.24,0.2462,0.0947,-1.5137,-1.645,-3.605,0.4657313256955817,-15.697292813179308,-0.11704319999799628,0.8649999999979627
-0.2843,1.0048,0.0098,0.24,0.2462,0.0947,-1.3825,-1.5662,-3.7275,0.5012229287660215,-15.752621043199557,-0.11704319999799628,0.8649999999979627
-0.2847,1.0101,0.0093,0.2395,0.2449,0.1029,-1.4,-1.6975,-3.8325,0.5114209627032736,-15.745964029982462,-0.1425056999970082,0.8799999999973807
-0.2847,1.0101,0.0093,0.2395,0.2449,0.1029,-1.4,-1.6975,-4.0775,0.5176623616442665,-15.74319178963756,-0.1425056999970082,0.8799999999973807
-0.2857,1.0076,0.0091,0.241,0.2452,0.089,-1.9162,-2.0125,-4.0775,0.5175460052914819,-15.783660835288648,-0.17470569998892535,0.8959999999933643
-0.2847,1.0077,0.0092,0.241,0.2452,0.089,-1.2425,-1.7587,-4.9437,0.5193314024011813,-15.78357596850471,-0.17470569998892535,0.8959999999933643
-0.283,1.0049,0.0093,0.241,0.2452,0.089,-1.3913,-2.0213,-5.4513,0.5235269733448092,-15.765010033457132,-0.2050252000024557,0.9110000000000582
-0.2819,1.0028,0.0094,0.2418,0.245,0.1014,-1.3913,-2.0213,-5.4513,0.5287334840878345,-15.74366342464848,-0.2050252000024557,0.9110000000000582
-0.2826,1.0028,0.0118,0.2418,0.245,0.1014,-1.54,-2.1088,-5.1887,0.5921852717132369,-15.742470974015697,-0.23876599999398607,0.9269999999960419
-0.2826,1.0028,0.0118,0.24,0.2446,0.091,-1.8375,-2.1437,-5.1363,0.6345919503545123,-15.741687696628816,-0.23876599999398607,0.9269999999960419
-0.2791,1.0015,0.009,0.24,0.2446,0.091,-1.61,-2.275,-5.0662,0.579800123961611,-15.724587515107437,-0.27516600000140173,0.9429999999993015
-0.2784,1.0035,0.0071,0.24,0.2446,0.091,-1.61,-2.275,-5.0662,0.4999687588713252,-15.702529989565113,-0.27516600000140173,0.9429999999993015
-0.2734,1.0079,0.0111,0.2383,0.2466,0.0884,-1.4787,-1.6625,-5.425,0.5544800576693194,-15.533982324713064,-0.300103500000434,0.9579999999987194
-0.2725,1.006,0.0129,0.2383,0.2466,0.0884,-0.6125,-1.1725,-4.9875,0.5784670641296917,-15.52185240240993,-0.300103500000434,0.9579999999987194
-0.2725,1.006,0.0129,0.2427,0.2466,0.087,-0.455,-0.805,-5.1625,0.6155273674634381,-15.458682969380025,-0.3129834999972009,0.9739999999947031
-0.2686,1.001,0.0113,0.2427,0.2466,0.087,-0.455,-0.805,-5.1625,0.6229395886127146,-15.383045360866902,-0.3129834999972009,0.9739999999947031
-0.2697,1.0,0.0079,0.2427,0.2466,0.087,0.0962,-0.21,-5.495,0.5440816028410793,-15.281307448541016,-0.31613349999860657,0.989000000001397
-0.2631,0.9859,0.0113,0.2417,0.2478,0.0878,1.2687,0.6125,-5.8187,0.6195725130721232,-15.123527210256515,-0.31613349999860657,0.989000000001397
-0.2536,0.9729,0.0075,0.2417,0.2478,0.0878,1.8025,1.9162,-5.04,0.4915293875447734,-15.083002218609813,-0.28547430000630264,1.0049999999973807
-0.2536,0.9715,0.0098,0.241,0.2458,0.0835,1.8025,1.9162,-5.04,0.553733684665685,-15.047236775569653,-0.28547430000630264,1.0049999999973807
-0.2525,0.9715,0.0098,0.241,0.2458,0.0835,3.2725,2.4237,-4.0075,0.5731447732065924,-14.814410376733319,-0.246695100016037,1.0209999999933643
-0.2364,0.9686,0.0108,0.2403,0.2446,0.0895,4.2613,3.255,-3.3338,0.6279304783479299,-14.134432566020903,-0.246695100016037,1.0209999999933643
-0.2228,0.9848,0.0088,0.2403,0.2446,0.0895,4.2613,5.495,-2.4062,0.5312101698049057,-13.138332180295619,-0.16427009997925412,1.0360000000000582
-0.2133,0.9989,0.0043,0.2403,0.2446,0.0895,4.1562,4.6813,-2.4062,0.2946922526618715,-12.359247724806457,-0.16427009997925412,1.0360000000000582
-0.206,1.0086,0.0096,0.2405,0.2444,0.0928,4.76,6.3175,-1.085,0.5069269079107536,-11.710639264518433,-0.06319010000462728,1.0519999999960419
-0.206,1.0086,0.0096,0.2405,0.2444,0.0928,5.0487,8.1812,-0.4112,0.53969729165361,-11.57325476865414,-0.06319010000462728,1.0519999999960419
-0.2078,1.018,0.0078,0.2394,0.2441,0.0854,5.0487,8.1812,-0.4112,0.4537732668792706,-11.543308434257382,0.059527899990610644,1.0669999999954598
-0.214,1.0238,-0.0003,0.2394,0.2441,0.0854,4.235,9.4237,-0.5337,0.06162398678317442,-11.75776391656252,0.059527899990610644,1.0669999999954598
-0.2367,1.0254,-0.0001,0.2394,0.2441,0.0854,3.9288,10.1763,-1.6888,0.006214494133241248,-12.707470421413717,0.22234869994973927,1.0829999999914435
-0.261,1.0209,-0.0009,0.2381,0.2427,0.083,3.2462,10.7975,-3.6225,-0.039193279319561125,-13.640421592512089,0.22234869994973927,1.0829999999914435
-0.261,1.0077,-0.0054,0.2381,0.2427,0.083,3.2462,10.7975,-3.6225,-0.2535938385168744,-14.143175665421566,0.39510869998493514,1.098999999994703
-0.2868,1.0077,-0.0054,0.2422,0.2419,0.0819,3.6575,9.9663,-6.37,-0.2971775065526935,-15.164849247201824,0.39510869998493514,1.098999999994703
-0.3048,1.0031,-0.0118,0.2422,0.2419,0.0819,4.1825,8.12,-9.0475,-0.6106280223746852,-16.559892864906363,0.5169086999802086,1.113999999994121
-0.3198,1.0074,-0.0142,0.2422,0.2419,0.0819,4.2,5.565,-11.0075,-0.7745597845673912,-17.46149499830413,0.5169086999802086,1.113999999994121
-0.3176,1.0049,-0.0118,0.2409,0.2448,0.075,4.2,5.565,-11.0075,-0.6898252898799428,-17.527218280230304,0.6059486999983484,1.1299999999973807
-0.321,1.0056,-0.0148,0.2409,0.2448,0.075,4.6813,3.4913,-12.6088,-0.8194065543747473,-17.68174318381925,0.6583181999963162,1.1449999999967986
-0.321,1.0056,-0.0148,0.2423,0.2455,0.0802,4.7162,1.1287,-13.1775,-0.8395247447346573,-17.69974214164035,0.6583181999963162,1.1449999999967986
-0.3287,1.0081,-0.0212,0.2423,0.2455,0.0802,3.9113,-0.5688,-13.5363,-1.140406084090973,-18.01818122761737,0.6492173999986007,1.1609999999927823
-0.3408,1.0146,-0.0188,0.2423,0.2455,0.0802,3.9113,-0.5688,-13.5363,-1.0754304374982526,-18.507055776801074,0.6492173999986007,1.1609999999927823
-0.3528,1.0116,-0.0217,0.2442,0.246,0.0827,2.8612,-2.9488,-13.9125,-1.195712349425861,-19.150516964159735,0.6020365999889887,1.1769999999960419
-0.368,1.0115,-0.0205,0.2442,0.246,0.0827,1.7675,-5.81,-13.86,-1.1708598980540368,-19.903833291875667,0.6020365999889887,1.1769999999960419
-0.368,1.0073,-0.018,0.2442,0.2488,0.0821,1.4963,-8.4175,-13.6588,-1.0688367456520154,-20.04926458371944,0.46735659996155077,1.1929999999993015
-0.3797,1.0073,-0.018,0.2442,0.2488,0.0821,1.4963,-8.4175,-13.6588,-1.0375639968549701,-20.588840526606997,0.46735659996155077,1.1929999999993015
-0.3827,1.0027,-0.0153,0.2433,0.2492,0.0779,0.1225,-11.165,-13.65,-0.960700229414713,-20.857241668715996,0.2887166000063931,1.2089999999952852
-0.3838,0.9983,-0.0187,0.2433,0.2492,0.0779,-1.0063,-14.1575,-13.4925,-0.9824779582407145,-21.008367757683,0.2887166000063931,1.2089999999952852
-0.3831,0.996,-0.0122,0.2433,0.2492,0.0779,-1.0063,-14.1575,-12.0575,-0.9281067422087415,-21.03366583814608,0.07635409991162448,1.224000000001979
-0.3706,0.9952,-0.0113,0.2458,0.2475,0.0817,-2.3275,-15.9775,-12.0575,-0.7589020187260835,-20.498793498671045,0.07635409991162448,1.224000000001979
-0.3706,0.9952,-0.0113,0.2458,0.2475,0.0817,-3.4475,-17.2638,-10.57,-0.6799725928855167,-20.434874425006477,-0.19986670001903842,1.2399999999979627
-0.3584,0.9987,-0.0056,0.2454,0.2497,0.0848,-4.0163,-18.0075,-8.6187,-0.4056664638043051,-19.8898241628618,-0.19986670001903842,1.2399999999979627
-0.3436,1.0058,-0.0021,0.2454,0.2497,0.0848,-4.0163,-18.0075,-8.6187,-0.18692679325497918,-19.081641295952572,-0.4879866999467144,1.2559999999939464
-0.3335,1.0072,0.0062,0.2454,0.2497,0.0848,-5.1625,-18.3225,-6.6413,0.25269491279544426,-18.60359793677931,-0.4879866999467144,1.2559999999939464
-0.3257,1.0028,0.0106,0.2445,0.2491,0.0926,-5.8888,-17.92,-5.0925,0.5479756731270905,-18.529442496304032,-0.7567867000666688,1.2710000000006403
-0.3257,1.0026,0.0129,0.2445,0.2491,0.0926,-6.825,-16.31,-3.78,0.7103577289848446,-18.240932966375787,-0.7567867000666688,1.2710000000006403
-0.3212,1.0026,0.0129,0.2428,0.2487,0.0919,-6.825,-16.31,-3.78,0.7333614935557775,-17.98245613109257,-1.0177467000011624,1.286999999996624
-0.3146,1.0059,0.0209,0.2428,0.2487,0.0919,-7.2975,-15.3825,-3.1237,1.129617724833703,-17.582349485679423,-1.0177467000011624,1.286999999996624
-0.3076,1.0017,0.0249,0.2428,0.2487,0.0919,-7.7875,-14.2013,-2.625,1.387257173411472,-17.22080906070762,-1.230766199992896,1.3019999999960419
-0.3021,0.9973,0.0204,0.2439,0.2476,0.092,-6.8513,-12.7925,-2.275,1.202239278435448,-16.950177540153813,-1.230766199992896,1.3019999999960419
-0.2952,1.0012,0.023,0.2439,0.2476,0.092,-6.8513,-12.7925,-2.275,1.2999370967208257,-16.566897452702715,-1.4354461999415171,1.3179999999920256
-0.2952,1.0012,0.023,0.2423,0.2482,0.0973,-6.3875,-10.8938,-1.9338,1.313567309760951,-16.45942982977231,-1.4354461999415171,1.3179999999920256
-0.2811,1.0052,0.0266,0.2423,0.2482,0.0973,-5.81,-9.6163,-1.7237,1.482364448167665,-15.8170592786502,-1.5893069999728626,1.3339999999952852
-0.2696,1.0055,0.0297,0.2423,0.2482,0.0973,-4.9262,-7.6912,-1.4438,1.651281019980422,-15.183605238548033,-1.5893069999728626,1.3339999999952852
-0.2659,1.0106,0.0283,0.2429,0.2484,0.0875,-4.9262,-7.6912,-1.4438,1.613198265772454,-14.834864731643872,-1.7046749999683857,1.348999999994703
-0.26,1.011,0.0349,0.2429,0.2484,0.0875,-4.1388,-5.845,-0.8925,1.893864777299066,-14.497194703415927,-1.7046749999683857,1.348999999994703
-0.26,1.0089,0.0367,0.2435,0.2479,0.1007,-3.9638,-4.0775,-0.8925,2.0381622094945455,-14.452826657459687,-1.7699149999816768,1.3649999999979627
-0.2546,1.0089,0.0367,0.2435,0.2479,0.1007,-3.9638,-1.6275,-0.4025,2.072537287142505,-14.207931531830436,-1.7699149999816768,1.3649999999979627
-0.2583,1.0043,0.0361,0.2421,0.2477,0.0953,-3.8325,-1.6275,-0.4025,2.062054066654056,-14.377378651991618,-1.7943274999807295,1.3799999999973807
-0.2637,0.9978,0.0345,0.2421,0.2477,0.0953,-4.4187,0.4725,-0.2625,1.9978510293454768,-14.721874000994257,-1.7943274999807295,1.3799999999973807
-0.2618,0.989,0.0357,0.2421,0.2477,0.0953,-3.0538,1.8463,-0.14,2.0461847227715224,-14.801114041265137,-1.7647866999881447,1.3959999999933643
-0.2494,0.9769,0.0361,0.2414,0.2466,0.0932,-3.0538,1.8463,2.1,2.0949903701544685,-14.372884953134738,-1.7647866999881447,1.3959999999933643
-0.2494,0.9769,0.0361,0.2414,0.2466,0.0932,-2.2925,2.695,0.0525,2.1078798272395995,-14.322286956042069,-1.72166669997936,1.411999999996624
-0.242,0.9679,0.0326,0.2399,0.2462,0.0971,-1.5225,3.1675,0.3413,2.0308681907438597,-14.07642211041661,-1.72166669997936,1.411999999996624
-0.2323,0.964,0.0339,0.2399,0.2462,0.0971,0.3588,4.8475,1.1638,2.0219554207477346,-13.615777310561718,-1.6489541999821815,1.4269999999960419
-0.2177,0.9738,0.0319,0.2399,0.2462,0.0971,0.3588,4.8475,1.1638,1.9448160107179409,-12.738519960303957,-1.6489541999821815,1.4269999999960419
-0.2042,0.9866,0.0283,0.2403,0.2451,0.0906,1.9775,6.2562,1.435,1.7236539943164895,-11.830959444640603,-1.5488549999617887,1.4429999999993015
-0.2042,0.9937,0.019,0.2403,0.2451,0.0906,3.36,7.4725,2.5812,1.2179510913592795,-11.63611236095005,-1.5488549999617887,1.4429999999993015
-0.2065,0.9937,0.019,0.2409,0.2441,0.0921,4.5937,8.505,2.065,1.1146597377275604,-11.72478595699143,-1.4212799999667391,1.4579999999987194
-0.222,0.9968,0.0155,0.2409,0.2441,0.0921,4.5937,8.505,2.065,0.9260531173473686,-12.450699265323967,-1.4212799999667391,1.4579999999987194
-0.2383,0.9942,0.0151,0.2409,0.2441,0.0921,4.4363,9.4412,0.63,0.8791603448120616,-13.321514700807004,-1.2702208000046582,1.473999999994703
-0.2503,1.0041,0.0101,0.239,0.2425,0.0882,3.85,9.7037,-1.6187,0.6302316056043733,-13.8409127328123,-1.2702208000046582,1.473999999994703
-0.2632,1.0085,0.0092,0.239,0.2425,0.0882,4.025,9.835,-4.5237,0.5412386733375101,-14.07735855377094,-1.1128607999725997,1.4899999999979627
-0.2632,1.0085,0.0092,0.2397,0.2446,0.0894,4.025,9.835,-4.5237,0.5258713934158404,-14.242621263539219,-1.1128607999725997,1.4899999999979627
-0.2806,1.0095,0.007,0.2397,0.2446,0.0894,3.2725,9.2837,-7.2537,0.42280926242180383,-15.142179293850447,-0.9736052999780035,1.5049999999973807
-0.2923,1.003,0.0027,0.2397,0.2446,0.0894,2.45,8.8725,-9.7125,0.21793797548947064,-16.055478158421625,-0.9736052999780035,1.5049999999973807
-0.3029,0.9967,-0.0051,0.2398,0.2436,0.0974,1.5838,8.0325,-11.41,-0.14059673534425804,-16.79016288166872,-0.8450852999518206,1.5210000000006403
-0.3081,0.9929,-0.0055,0.2398,0.2436,0.0974,1.5838,8.0325,-11.41,-0.26460461913011113,-17.178826608006734,-0.7245977999564961,1.5360000000000582
-0.3081,0.9929,-0.0151,0.2412,0.245,0.0865,1.7413,6.58,-12.3112,-0.6983122897740386,-17.230396390658505,-0.7245977999564961,1.5360000000000582
-0.312,0.9933,-0.0151,0.2412,0.245,0.0865,2.1525,4.865,-12.7225,-0.8268824033217205,-17.412414484701923,-0.6467577999760356,1.5519999999960419
-0.317,0.9914,-0.0206,0.2428,0.2459,0.0854,2.1525,2.625,-12.3988,-1.0976024407329592,-17.69070035462389,-0.6467577999760356,1.5519999999960419
-0.3182,0.9975,-0.0242,0.2428,0.2459,0.0854,2.8788,3.36,-12.3988,-1.3268612288210555,-17.68803111393654,-0.5929977999650832,1.5679999999993015
-0.3167,1.0033,-0.024,0.2428,0.2459,0.0854,2.5988,1.33,-11.5238,-1.3603592451373678,-17.53701892343135,-0.5929977999650832,1.5679999999993015
-0.3139,1.0081,-0.0228,0.2421,0.244,0.0854,2.0038,0.2362,-10.8413,-1.312797618950815,-17.326956203382835,-0.5894547999669393,1.5829999999914435
-0.3139,1.0081,-0.0228,0.2421,0.244,0.0854,2.0038,0.2362,-10.8413,-1.3001813545566554,-17.296454302150078,-0.5894547999669393,1.5829999999914435
-0.3128,1.0074,-0.0237,0.2438,0.2467,0.0872,0.9538,-0.4288,-10.0975,-1.330220611372515,-17.253542966195557,-0.596315599968337,1.598999999994703
-0.3113,1.0038,-0.0194,0.2438,0.2467,0.0872,0.5075,-1.4088,-8.9425,-1.2052886283518647,-17.232131460302107,-0.596315599968337,1.598999999994703
-0.3121,0.998,-0.021,0.2438,0.2467,0.0872,-0.3588,-1.8025,-7.7438,-1.2053338029915774,-17.327860576681193,-0.6233530999672878,1.613999999994121
-0.3069,0.9879,-0.0203,0.2422,0.2466,0.0786,-0.3588,-1.8025,-7.7438,-1.1971873573827614,-17.273822597467376,-0.6233530999672878,1.613999999994121
-0.3069,0.9879,-0.0173,0.2422,0.2466,0.0786,-0.9538,-2.6513,-5.775,-1.1665342946984358,-17.265513444192003,-0.6657738999759301,1.6299999999973807
-0.3,0.9904,-0.0173,0.243,0.2497,0.0881,-1.68,-3.1237,-3.815,-1.087356821200196,-17.043978225805564,-0.6657738999759301,1.6299999999973807
-0.2919,0.9845,-0.0172,0.243,0.2497,0.0881,-2.17,-3.2812,-2.5463,-1.036865381560241,-16.668430419008455,-0.7182730999866256,1.6460000000006403
-0.2826,0.9809,-0.014,0.243,0.2497,0.0881,-2.17,-3.2812,-2.5463,-0.9088721596810996,-16.24579066811794,-0.7182730999866256,1.6460000000006403
-0.2681,0.9833,-0.0068,0.243,0.2477,0.0866,-2.4588,-3.0013,-1.4787,-0.586604769004212,-15.473128812344326,-0.7632925999630412,1.6609999999927823
-0.2618,0.9828,-0.0042,0.243,0.2477,0.0866,-2.7912,-2.5812,-0.2537,-0.3578232970830136,-15.013767448861444,-0.7632925999630412,1.6609999999927823
-0.2618,0.9828,-0.0042,0.2412,0.2469,0.0847,-3.1063,-1.75,0.0525,-0.27867355991750853,-14.932314213417028,-0.7912925999687456,1.6769999999960419
-0.259,0.9872,0.0038,0.2412,0.2469,0.0847,-3.1063,-1.75,0.0525,0.0710894485282765,-14.739172691205859,-0.7912925999687456,1.6769999999960419
-0.2563,0.9981,0.0153,0.2412,0.2469,0.0847,-3.5875,-0.5775,0.21,0.6670125544033458,-14.455082729884968,-0.7999550999684094,1.6919999999954598
-0.2531,0.9964,0.0173,0.2426,0.2443,0.0891,-4.4363,0.0175,0.2537,0.9245335733160461,-14.283419588718418,-0.7999550999684094,1.6919999999954598
-0.2578,0.9944,0.0197,0.2426,0.2443,0.0891,-5.3463,1.33,0.0263,1.0972301184611706,-14.489873949689304,-0.7786750999640741,1.7079999999987194
-0.2578,0.9944,0.0245,0.2414,0.2446,0.0841,-5.3463,1.33,0.0263,1.3550718656738894,-14.523151291346354,-0.7786750999640741,1.7079999999987194
-0.2602,0.9943,0.0245,0.2414,0.2446,0.0841,-5.6788,2.5812,-0.5337,1.401963322456509,-14.63533140370208,-0.7373758999556603,1.724000000001979
-0.2615,0.9933,0.0276,0.2385,0.2448,0.0934,-5.9938,3.675,-0.5512,1.5611669307679288,-14.723724207863937,-0.7373758999556603,1.724000000001979
-0.2655,0.9917,0.0265,0.2385,0.2448,0.0934,-5.9938,3.675,-1.0063,1.5355766727369091,-14.930402907730985,-0.6822508999845386,1.738999999994121
-0.266,0.9976,0.0282,0.2385,0.2448,0.0934,-5.6,3.36,-1.0063,1.60486347747053,-14.925526887177158,-0.6822508999845386,1.738999999994121
-0.2682,1.0026,0.0262,0.239,0.2463,0.0859,-4.8038,3.4825,-1.5137,1.5183436865605877,-14.961025842354054,-0.6265308999731869,1.7549999999973807
-0.2682,1.0026,0.0262,0.239,0.2463,0.0859,-3.955,3.85,-1.855,1.5020312149249628,-14.968826363351397,-0.6265308999731869,1.7549999999973807
-0.2704,1.0068,0.0259,0.2417,0.2442,0.0838,-3.955,3.85,-1.855,1.480397040163759,-15.014043597894574,-0.5687808999754279,1.7699999999967986
-0.2776,1.0127,0.0281,0.2417,0.2442,0.0838,-4.0775,3.535,-3.4213,1.5641275739951455,-15.201442220476936,-0.5687808999754279,1.7699999999967986
-0.2806,1.0217,0.0298,0.2417,0.2442,0.0838,-3.1675,3.1588,-4.76,1.6393518753640013,-15.225765744336208,-0.5182400999651314,1.7860000000000582
-0.2844,1.0268,0.03,0.241,0.2446,0.0915,-3.0888,2.1263,-6.2125,1.6632465346982683,-15.364748663690248,-0.5182400999651314,1.7860000000000582
-0.2844,1.0268,0.0285,0.241,0.2446,0.0915,-3.0888,2.1263,-6.2125,1.6119750040431753,-15.42663934120232,-0.48421929995820046,1.8020000000033178
-0.2924,1.0233,0.0285,0.241,0.2431,0.0867,-2.8963,1.3737,-7.5687,1.6006518259073452,-15.79869190500214,-0.48421929995820046,1.8020000000033178
-0.2934,1.0186,0.03,0.241,0.2431,0.0867,-2.4675,0.6037,-9.0738,1.6550352079524673,-16.010597684620432,-0.47516379996294433,1.8169999999954598
-0.2979,1.0153,0.0295,0.241,0.2431,0.0867,-2.1,-0.1225,-9.73,1.6603226880767548,-16.287703625438468,-0.47516379996294433,1.8169999999954598
-0.3011,1.0146,0.0268,0.2413,0.2446,0.0954,-2.1,-0.1225,-9.73,1.5761671775744586,-16.482849154871964,-0.47712379996334364,1.8329999999987194
-0.303,1.0147,0.0292,0.2413,0.2446,0.0954,-1.5313,-0.9538,-9.8175,1.6074562559038332,-16.5963365646716,-0.49143079996278843,1.8479999999981374
-0.303,1.0147,0.0292,0.2415,0.247,0.0893,-0.7175,-1.9863,-10.3687,1.6093500601093482,-16.61603490357395,-0.49143079996278843,1.8479999999981374
-0.3052,1.0159,0.0273,0.2415,0.247,0.0893,0.1575,-2.625,-9.8437,1.575727901934148,-16.69885413427689,-0.49143079996278843,1.8479999999981374
-0.3115,1.0203,0.025,0.2415,0.247,0.0893,0.1575,-2.625,-9.8437,1.4930907405500284,-16.92624482218469,-0.5334307999522456,1.863999999994121
-0.3142,1.0214,0.0199,0.242,0.247,0.0907,1.0237,-3.1588,-9.9838,1.2512694142121314,-17.067621657949434,-0.5839715999625421,1.8799999999973807
-0.321,1.0199,0.0188,0.242,0.247,0.0907,1.295,-4.1912,-10.4388,1.1198073403004907,-17.406184905422315,-0.5839715999625421,1.8799999999973807
-0.321,1.0199,0.0183,0.2423,0.2462,0.0873,1.295,-5.2063,-10.4213,1.057954362867106,-17.458494942764666,-0.6620660999595116,1.8949999999967986
-0.322,1.0195,0.0183,0.2423,0.2462,0.0873,1.785,-5.2063,-10.4213,1.0366848871558187,-17.515229774497758,-0.6620660999595116,1.8949999999967986
-0.3245,1.0158,0.0128,0.2423,0.2472,0.0806,1.5662,-5.9675,-10.78,0.8163940637592344,-17.68564743055269,-0.7575460999789634,1.9110000000000582
-0.3217,1.0127,0.0146,0.2446,0.2472,0.0806,1.5488,-6.1863,-10.8675,0.8230816374747165,-17.63081911554763,-0.7575460999789634,1.9110000000000582
-0.3198,1.0097,0.0141,0.2446,0.2472,0.0806,1.5488,-6.1863,-10.8675,0.8070031705164473,-17.58121936430657,-0.8503405999303513,1.9259999999922002
-0.3124,1.0066,0.0159,0.2427,0.247,0.0894,2.1,-7.2625,-10.2638,0.879618278925788,-17.293908312025398,-0.8503405999303513,1.9259999999922002
-0.3124,1.0066,0.0159,0.2427,0.247,0.0894,1.715,-7.7613,-9.835,0.8976761630871277,-17.248996532507704,-0.9745213999556502,1.9419999999954598
-0.308,1.0058,0.012,0.245,0.249,0.0845,1.8725,-7.4113,-8.505,0.7424005987808173,-17.073988673928906,-0.9745213999556502,1.9419999999954598
-0.3044,1.0063,0.0111,0.245,0.249,0.0845,1.8725,-7.4113,-8.505,0.6623243206611275,-16.883071057925925,-1.093102199925884,1.9579999999914435
-0.2991,1.0036,0.0112,0.245,0.249,0.0845,0.8838,-7.0262,-7.5687,0.6480413549448423,-16.674346617979182,-1.093102199925884,1.9579999999914435
-0.2978,1.0012,0.0092,0.2431,0.2492,0.0959,0.7875,-5.9938,-6.1425,0.5740812422473269,-16.614476514695664,-1.183009199966006,1.9729999999981374
-0.2978,1.0012,0.0092,0.2431,0.2492,0.0959,0.6475,-5.25,-5.425,0.5461991880157904,-16.598351233443204,-1.183009199966006,1.9729999999981374
-0.2975,1.0049,0.0077,0.2431,0.249,0.0901,0.6475,-5.25,-5.425,0.4834256266972719,-16.563966332934843,-1.267009199983119,1.989000000001397
-0.2933,1.0054,0.0103,0.2431,0.249,0.0901,0.4375,-4.83,-4.3225,0.5399730696326245,-16.447214816082468,-1.267009199983119,1.989000000001397
-0.293,1.0015,0.0093,0.2431,0.249,0.0901,-0.4375,-4.1912,-3.4562,0.5380105036580728,-16.362981911838723,-1.3340683999662857,2.0049999999973807
-0.2908,1.0027,0.0109,0.2434,0.2502,0.0893,-0.7,-2.7912,-3.08,0.5432661615555434,-16.238539222573966,-1.3340683999662857,2.0049999999973807
-0.2891,1.0068,0.0121,0.2434,0.2502,0.0893,-0.7,-2.7912,-3.08,0.552270484399618,-16.09614862736899,-1.3787275999753839,2.0210000000006403
-0.2891,1.0068,0.0121,0.2429,0.2465,0.0893,-1.5838,-1.4963,-2.8,0.613583795463341,-16.04426574734549,-1.3787275999753839,2.0210000000006403
-0.2819,1.0038,0.0164,0.2429,0.2465,0.0893,-1.5838,-0.525,-2.3187,0.7586320575654996,-15.78344969962427,-1.3871275999770951,2.0370000000039
-0.2826,1.0045,0.0149,0.2429,0.2465,0.0893,-1.8813,0.7175,-2.0475,0.8067100715127907,-15.729882166490107,-1.3871275999770951,2.0370000000039
-0.2785,1.0071,0.0143,0.2426,0.2479,0.0869,-1.8813,0.7175,-2.0475,0.8102893275045282,-15.526537469826518,-1.3763650999827333,2.051999999996042
-0.2791,1.0089,0.019,0.2426,0.2479,0.0869,-2.2138,1.2775,-2.17,0.9691550052994136,-15.478209035972297,-1.3763650999827333,2.051999999996042
-0.2791,1.0089,0.019,0.2421,0.2478,0.0886,-2.3363,2.3187,-2.555,1.0361948529396288,-15.465958115879648,-1.3392658999751752,2.0679999999993015
-0.2794,1.0026,0.0171,0.2421,0.2478,0.0886,-2.3363,2.3187,-2.4762,1.0001056523137968,-15.539869350161638,-1.3392658999751752,2.0679999999993015
-0.2885,0.9994,0.0113,0.2421,0.2474,0.0901,-2.5638,2.7387,-2.4762,0.7737275430264237,-15.939698879847514,-1.2981853999767694,2.0829999999987194
-0.2998,1.0002,0.0123,0.2417,0.2474,0.0901,-1.925,2.8875,-2.8437,0.7365987093562241,-16.444993873930862,-1.2981853999767694,2.0829999999987194
-0.3046,0.9997,0.0129,0.2417,0.2474,0.0901,-0.6212,2.7825,-3.7013,0.7369400530947983,-16.722637662902994,-1.2536653999879448,2.098999999994703
-0.3051,1.0009,0.0138,0.2418,0.2478,0.081,-0.6212,2.7825,-3.7013,0.7436439809275612,-16.849673050699565,-1.2536653999879448,2.098999999994703
-0.3051,1.0009,0.0138,0.2418,0.2478,0.081,-0.1138,2.4237,-4.4975,0.7619126806215629,-16.8814665741168,-1.2148861999800444,2.1149999999979627
-0.3065,1.0023,0.011,0.2401,0.2478,0.0898,0.0875,1.7062,-4.865,0.7006061183697546,-16.891401153113044,-1.2148861999800444,2.1149999999979627
-0.306,1.0008,0.0133,0.2401,0.2478,0.0898,0.1838,1.1725,-5.0925,0.7302117202699121,-16.90456205081911,-1.197298699980727,2.1299999999973807
-0.3089,0.9994,0.0105,0.2401,0.2478,0.0898,0.1838,1.1725,-5.0925,0.6677271881334204,-16.937338821687902,-1.197298699980727,2.1299999999973807
-0.3109,0.9991,0.0072,0.2408,0.2466,0.101,0.7262,0.7175,-5.7575,0.5151436401197106,-17.09204074684587,-1.1858186999783882,2.1460000000006403
-0.3109,0.9991,0.0072,0.2408,0.2466,0.101,0.875,-0.5863,-5.9062,0.45160933876145687,-17.18597949493394,-1.1858186999783882,2.1460000000006403
-0.31,0.9958,0.0066,0.2442,0.2476,0.0863,0.28,-1.54,-5.9763,0.41486639915911383,-17.23925971010108,-1.2089186999662869,2.1609999999927823
-0.31,0.9917,0.0078,0.2442,0.2476,0.0863,0.28,-1.54,-5.9763,0.43315497074889864,-17.29950178807925,-1.2089186999662869,2.1609999999927823
-0.3084,0.9934,0.003,0.2442,0.2476,0.0863,0.6562,-2.2925,-6.09,0.2804184010848571,-17.271492737968067,-1.2455986999737596,2.176999999996042
-0.3055,0.9956,0.0063,0.2442,0.2479,0.0786,0.2275,-2.975,-6.1425,0.32135357434515205,-17.155743479766674,-1.2455986999737596,2.176999999996042
-0.3007,0.9951,0.009,0.2442,0.2479,0.0786,0.4375,-2.9575,-6.3525,0.42886208836447165,-16.956014362985552,-1.2929186999618814,2.1929999999920256
-0.3007,0.9951,0.009,0.2426,0.2498,0.0891,0.4375,-2.9575,-6.3525,0.47765051313564694,-16.872727024868187,-1.2929186999618814,2.1929999999920256
-0.301,0.9964,0.0068,0.2426,0.2498,0.0891,0.14,-3.6837,-6.0462,0.4364665264106551,-16.839226423346325,-1.3518578999738888,2.208999999995285
-0.302,0.9967,0.0121,0.2426,0.2498,0.0891,-0.3325,-3.8238,-5.6788,0.5148204484106478,-16.846117921171132,-1.3518578999738888,2.208999999995285
-0.2996,0.9953,0.0119,0.2422,0.2498,0.0917,-0.3325,-3.8238,-5.9325,0.5662914133636976,-16.799303921951644,-1.413038699986353,2.224999999998545
-0.2994,0.9977,0.0114,0.2422,0.2498,0.0917,-0.35,-3.6662,-5.9325,0.5922525284745537,-16.751664105572896,-1.413038699986353,2.224999999998545
-0.2994,0.9977,0.0114,0.2435,0.2472,0.0802,-0.21,-3.1325,-5.3812,0.6145501963915962,-16.737094732570128,-1.4600261999845294,2.2399999999979627
-0.3008,1.0028,0.0112,0.2435,0.2472,0.0802,-0.5075,-3.045,-5.8888,0.6197570233286968,-16.717323754617162,-1.4600261999845294,2.2399999999979627
-0.3009,1.0006,0.0151,0.2435,0.2472,0.1006,-0.5075,-3.045,-5.8888,0.67005504275846,-16.725988511951538,-1.508746199994455,2.2560000000012224
-0.302,1.0002,0.0115,0.2443,0.2462,0.0821,-0.315,-2.9925,-6.3612,0.6665379575781745,-16.769305624548757,-1.556626199982436,2.271999999997206
-0.3024,1.0054,0.0063,0.2443,0.2462,0.0821,0.3413,-2.5725,-6.1337,0.5049452612373482,-16.75328817902938,-1.556626199982436,2.271999999997206
-0.3024,1.0034,0.0093,0.2408,0.2465,0.089,0.6913,-2.1788,-6.2387,0.520415076078362,-16.7631510422857,-1.556626199982436,2.271999999997206
-0.3037,1.0034,0.0093,0.2408,0.2465,0.089,0.6913,-2.1788,-6.2387,0.5267103592559652,-16.805713722565105,-1.5893081999811678,2.286999999996624
-0.2996,1.0022,0.0066,0.2448,0.2482,0.0952,0.945,-2.45,-6.3963,0.43242176086484474,-16.70980639930959,-1.5893081999811678,2.286999999996624
-0.2948,1.0066,0.0106,0.2448,0.2482,0.0952,1.0325,-1.75,-6.5625,0.5422606009712126,-16.471134629017318,-1.6173081999868721,2.3029999999998836
-0.2938,1.0106,0.011,0.2448,0.2482,0.0952,0.385,-1.3125,-5.74,0.5857962797443066,-16.355899112706197,-1.6369956999861082,2.3179999999993015
-0.2915,1.0106,0.0102,0.2437,0.2499,0.0834,0.385,-1.3125,-5.74,0.5817675078888259,-16.238489739723796,-1.6369956999861082,2.3179999999993015
-0.2915,1.0106,0.0102,0.2437,0.2499,0.0834,0.5337,-1.015,-4.8913,0.5797893817953975,-16.229615192125234,-1.6532356999820317,2.333999999995285
-0.2912,1.0089,0.0098,0.2434,0.2486,0.0853,0.6825,0.0088,-4.655,0.5660279323706933,-16.199533438020236,-1.6532356999820317,2.333999999995285
-0.2929,1.0042,0.014,0.2434,0.2486,0.0853,0.1488,1.0063,-4.1912,0.6772080947650941,-16.22533737105679,-1.6371348999860733,2.349999999991269
-0.2981,1.0029,0.0125,0.2434,0.2486,0.0853,0.1488,1.0063,-4.1912,0.6948288381580202,-16.36705404986309,-1.6371348999860733,2.349999999991269
-0.2993,1.0006,0.0087,0.2406,0.2482,0.0858,-0.1312,0.7,-3.7975,0.6184573185874853,-16.52011204046822,-1.6266348999813875,2.3649999999979627
-0.2993,0.998,0.0117,0.2406,0.2482,0.0858,0.3762,0.5688,-4.2787,0.6468323001881268,-16.589785261470038,-1.6266348999813875,2.3649999999979627
-0.3001,0.998,0.0117,0.2438,0.2474,0.0874,0.7437,0.525,-4.3488,0.6617755393680966,-16.644566638258347,-1.6182348999796763,2.3810000000012224
-0.3023,0.9987,0.0139,0.2438,0.2474,0.0874,0.7437,0.525,-4.3488,0.7433592259990963,-16.717974506625147,-1.6182348999796763,2.3810000000012224
-0.3048,0.9977,0.0094,0.2438,0.2474,0.0874,0.8487,0.735,-4.6988,0.6176535543814776,-16.772813444447866,-1.607209899985452,2.3959999999933643
-0.3052,0.9991,0.0131,0.2428,0.2482,0.097,1.2337,0.175,-4.5062,0.706686238983082,-16.838554032506266,-1.607209899985452,2.3959999999933643
-0.3063,0.9974,0.0107,0.2428,0.2482,0.097,1.2337,0.175,-4.5062,0.6453240637868036,-16.910408321415552,-1.6044098999848817,2.411999999996624
-0.3063,0.9974,0.0107,0.2441,0.249,0.0822,1.0412,-0.2187,-4.7162,0.6255698350325698,-16.94125052461093,-1.6044098999848817,2.411999999996624
-0.3102,0.9963,0.0088,0.2441,0.249,0.0822,0.4988,-1.2337,-5.4338,0.5588280623909879,-17.055375619433924,-1.6241490999799268,2.4279999999926076
-0.3096,0.9981,0.0074,0.2441,0.249,0.0822,0.7088,-1.995,-5.3113,0.4789485913004827,-17.102063489281555,-1.6241490999799268,2.4279999999926076
-0.3076,0.9967,0.0057,0.2438,0.248,0.0833,0.7088,-1.995,-5.3113,0.3887922021181723,-17.114915036740555,-1.654074099993281,2.4429999999993015
-0.3042,0.9946,0.0068,0.2438,0.248,0.0833,0.3588,-2.6163,-5.1625,0.3903424017241487,-17.096149305005046,-1.654074099993281,2.4429999999993015
-0.3042,0.9946,0.0046,0.2433,0.2482,0.0842,0.735,-2.9662,-5.04,0.31510938004295225,-17.089056006544585,-1.7015332999813677,2.458999999995285
-0.3007,0.9927,0.0046,0.2433,0.2482,0.0842,0.2887,-3.9113,-4.4538,0.28964193753453255,-17.00996478800277,-1.7015332999813677,2.458999999995285
-0.3009,0.9951,0.0012,0.2428,0.2472,0.0845,0.2887,-3.9113,-4.4538,0.17642854223251028,-16.948039094257513,-1.760202799979091,2.473999999994703
-0.2925,0.9964,0.0026,0.2428,0.2472,0.0845,0.4812,-4.4275,-4.6988,0.16148663853208717,-16.828304270792508,-1.760202799979091,2.473999999994703
-0.2895,0.9974,0.0013,0.2428,0.2472,0.0845,0.315,-4.7162,-4.8212,0.1163918743807401,-16.75274571139345,-1.835661999994464,2.4899999999979627
-0.2856,0.9982,0.0027,0.2444,0.2477,0.0909,0.4288,-4.5763,-4.97,0.1373973833133436,-16.740690259638452,-1.835661999994464,2.4899999999979627
-0.2856,0.9982,0.0027,0.2444,0.2477,0.0909,0.4288,-4.5763,-4.97,0.14696767550093204,-16.72881966859773,-1.9317642999973943,2.510999999998603
-0.2826,0.9983,0.0018,0.243,0.247,0.0877,0.6212,-4.1912,-5.1537,0.12159651804887485,-16.575449008462,-1.965293900004225,2.519000000000233
-0.2796,1.0014,0.0012,0.243,0.247,0.0877,0.0,-3.6837,-5.7312,0.0986337289612821,-16.14909074831099,-1.9800286999804246,2.522999999993772
-0.2791,1.0012,0.002,0.243,0.247,0.0877,0.1312,-3.395,-6.3525,0.10611557215133842,-15.815332680554715,-1.9800286999804246,2.522999999993772
-0.2824,1.0006,0.0002,0.2434,0.2489,0.0894,0.1312,-3.395,-6.3525,0.061346863089988476,-15.783477967690885,-2.0309537000031503,2.5380000000004657
-0.2824,1.0006,0.0013,0.2434,0.2489,0.0894,-0.2013,-2.975,-7.1312,0.06607245776932513,-15.767857070157461,-2.0309537000031503,2.5380000000004657
-0.2855,1.0055,0.0013,0.2433,0.2491,0.0886,-1.12,-2.5463,-7.3763,0.06816495022045731,-15.826889762838281,-2.0716944999929234,2.5539999999964493
-0.2832,1.0047,0.003,0.2433,0.2491,0.0886,-1.12,-2.5463,-7.595,0.09506884996037288,-15.765143989373877,-2.0716944999929234,2.5539999999964493
-0.2866,1.0015,0.0002,0.2433,0.2491,0.0886,-1.4262,-2.4413,-7.595,0.06181555128065415,-15.913419289358604,-2.1083139999915024,2.5689999999958673
-0.288,1.0035,0.0005,0.2426,0.2477,0.077,-1.5662,-1.6275,-7.9887,0.047028583595810025,-15.988496666371034,-2.1083139999915024,2.5689999999958673
-0.2894,1.0038,0.0046,0.2426,0.2477,0.077,-1.4875,-1.0063,-7.63,0.13735584551874166,-16.05681303777531,-2.1244147999874605,2.584999999991851
-0.2894,1.0038,0.0046,0.2442,0.2481,0.0882,-1.4875,-1.0063,-7.63,0.18982794838352282,-16.075399628601897,-2.1244147999874605,2.584999999991851
-0.2935,1.003,0.0064,0.2442,0.2481,0.0882,-1.7675,-0.9013,-7.9012,0.27777255949104357,-16.25080505076462,-2.1388355999903985,2.6009999999951106
-0.2916,1.0029,0.0056,0.2442,0.2481,0.0882,-1.6538,-0.5337,-7.6475,0.297595465848052,-16.222441439960658,-2.1388355999903985,2.6009999999951106
-0.2943,1.0051,0.0065,0.2429,0.2496,0.0842,-1.9512,-0.3762,-7.5512,0.3371511413033455,-16.29291974851505,-2.1444785999929166,2.6160000000018044
-0.2952,1.003,0.0095,0.2429,0.2496,0.0842,-1.9512,-0.3762,-7.5512,0.4486144250263209,-16.36976598753021,-2.1444785999929166,2.6160000000018044
-0.2952,1.003,0.0095,0.2448,0.2505,0.0897,-1.54,0.14,-7.5425,0.48964719581041477,-16.39111136710605,-2.1422385999934788,2.631999999997788
-0.2988,1.0018,0.0095,0.2448,0.2505,0.0897,-1.925,0.4288,-7.3063,0.5184568602783207,-16.54272947043842,-2.1422385999934788,2.631999999997788
-0.3035,1.0003,0.0105,0.2448,0.251,0.093,-1.7325,0.5075,-7.035,0.5592220899015983,-16.76875516229765,-2.134626099993774,2.646999999997206
-0.3023,0.997,0.0142,0.2466,0.251,0.093,-1.7325,0.5075,-7.035,0.6854160922978184,-16.834564775620116,-2.134626099993774,2.646999999997206
-0.3068,0.9978,0.0121,0.2466,0.251,0.093,-1.5838,0.8487,-6.93,0.6896256367141018,-17.00431978088192,-2.1210468999971828,2.6629999999931897
-0.3089,0.9981,0.0093,0.2446,0.251,0.0922,-1.2513,1.1113,-6.5887,0.6387327753441997,-17.123216057776677,-2.1210468999971828,2.6629999999931897
-0.3089,0.9981,0.0093,0.2446,0.251,0.0922,-0.9187,0.6125,-6.2913,0.6248439503794828,-17.164835733396043,-2.1112468999951863,2.6789999999964493
-0.3065,0.997,0.0164,0.2441,0.2502,0.082,-0.9187,0.6125,-6.2913,0.666894433247687,-17.11997412604392,-2.1112468999951863,2.6789999999964493
-0.3093,0.9989,0.0109,0.2441,0.2502,0.082,-0.945,0.0787,-5.6087,0.6605642291556649,-17.153081819942145,-2.1100663999952323,2.6939999999958673
-0.3138,1.0035,0.0097,0.2441,0.2502,0.082,-0.91,0.3762,-4.7425,0.6471324463870783,-17.189962857838225,-2.1100663999952323,2.6939999999958673
-0.3121,1.0052,0.0134,0.2454,0.2494,0.0772,-0.91,-1.8637,-4.235,0.6618052559145997,-17.213981869429205,-2.1398856000013073,2.709999999999127
-0.3121,1.0052,0.0134,0.2454,0.2494,0.0772,-0.8575,-0.0787,-4.235,0.6703453002596329,-17.2279510647431,-2.1410661000012614,2.724999999998545
-0.3129,1.005,0.014,0.2454,0.2498,0.0877,-1.1725,-0.6037,-4.0425,0.7072636770190298,-17.25852344744654,-2.1410661000012614,2.724999999998545
-0.3139,1.0044,0.0107,0.2454,0.2498,0.0877,-1.6538,-0.7088,-3.6137,0.6616914906902958,-17.313438846753083,-2.1524068999984145,2.7409999999945285
-0.3172,1.004,0.0084,0.2454,0.2498,0.0877,-1.6538,-0.7088,-3.6137,0.5759455605442271,-17.438993021022192,-2.1524068999984145,2.7409999999945285
-0.3154,1.002,0.0117,0.2452,0.251,0.0926,-1.5137,-1.4175,-4.235,0.6157506972162824,-17.452528793987295,-2.175086900003035,2.756999999997788
-0.3146,1.0,0.0102,0.2452,0.251,0.0926,-0.9363,-1.8025,-4.2438,0.611189627410142,-17.45676335002002,-2.175086900003035,2.756999999997788
-0.3146,1.0,0.0102,0.2458,0.2498,0.0892,-1.3475,-2.4675,-4.6725,0.6013388667455333,-17.458073857653172,-2.2120994000015988,2.771999999997206
-0.3134,0.9995,0.0145,0.2458,0.2498,0.0892,-1.3475,-2.4675,-4.6725,0.685830372067583,-17.44694022381664,-2.2120994000015988,2.771999999997206
-0.3092,0.9992,0.0157,0.2458,0.2498,0.0892,-1.4438,-2.73,-4.7863,0.7724225983764605,-17.41032720409041,-2.2557793999906344,2.7879999999931897
-0.3057,0.9959,0.0151,0.2428,0.251,0.0953,-1.4175,-3.3163,-4.7075,0.81038553764266,-17.341441104625044,-2.2557793999906344,2.7879999999931897
-0.3035,0.9964,0.0153,0.2428,0.251,0.0953,-1.2425,-3.9375,-4.5237,0.8327603834846319,-17.220185680885326,-2.3148419000169915,2.8029999999998836
-0.3035,0.9964,0.0153,0.2433,0.2497,0.0842,-1.2425,-3.9375,-4.5237,0.8479150370905308,-17.135434764924614,-2.3148419000169915,2.8029999999998836
-0.3009,0.997,0.0203,0.2433,0.2497,0.0842,-1.1725,-3.6312,-4.0163,0.9399638489735396,-16.96862541572287,-2.3729411000024077,2.8189999999958673
-0.2991,0.9933,0.0213,0.2433,0.2497,0.0935,-1.3388,-3.3863,-3.99,1.0450179782501172,-16.863418524183697,-2.3729411000024077,2.8189999999958673
-0.2982,0.9914,0.0212,0.2442,0.249,0.0935,-1.2775,-3.2987,-3.7013,1.105926668597151,-16.79309657807159,-2.42572030001316,2.834999999999127
-0.3011,0.9905,0.0214,0.2442,0.249,0.0935,-1.2775,-3.2987,-3.7013,1.1505147002049347,-16.85528768650607,-2.42572030001316,2.834999999999127
-0.2979,0.9884,0.0253,0.244,0.2496,0.0954,-0.2625,-2.9838,-3.5,1.2562675765267737,-16.803221572782785,-2.4704772999897133,2.849999999991269
-0.2979,0.9884,0.0253,0.244,0.2496,0.0954,0.3063,-2.4325,-3.4037,1.3649382519453244,-16.781457778926676,-2.4704772999897133,2.849999999991269
-0.2963,0.9902,0.0218,0.2431,0.2494,0.0923,0.3237,-2.0213,-3.395,1.3108442503837823,-16.704456630614636,-2.502818099996302,2.8659999999945285
-0.2958,0.9922,0.0198,0.2431,0.2494,0.0923,0.3237,-2.0213,-3.395,1.2234335456553143,-16.639308443802037,-2.502818099996302,2.8659999999945285
-0.2967,0.9947,0.0195,0.2431,0.2494,0.0923,1.1025,-2.1088,-3.7013,1.1580618619815897,-16.620684037178343,-2.534450100010418,2.8810000000012224
-0.293,0.9937,0.0157,0.2444,0.2503,0.0854,1.3388,-1.7938,-3.675,0.9866211729956266,-16.511753700254417,-2.534450100010418,2.8810000000012224
-0.293,0.9937,0.0157,0.2444,0.2503,0.0854,1.3388,-1.7938,-4.1912,0.9314043974613643,-16.474900192262602,-2.5631509000032136,2.896999999997206
-0.2942,0.9979,0.0092,0.2446,0.2485,0.0894,2.3363,-2.38,-4.1912,0.6264975322201333,-16.45367464086303,-2.5631509000032136,2.896999999997206
-0.2924,0.9997,0.0092,0.2446,0.2485,0.0894,2.4237,-2.2575,-3.8238,0.5509491017709344,-16.37366410000053,-2.599270900010572,2.9130000000004657
-0.2921,0.9996,0.0086,0.2446,0.2485,0.0894,1.96,-2.1525,-3.7625,0.5085002040392427,-16.32745317745494,-2.599270900010572,2.9130000000004657
-0.2879,1.0035,0.0027,0.2438,0.2502,0.0845,1.96,-2.1525,-3.7625,0.2492567038117212,-16.153692643001367,-2.631558399993658,2.9279999999926076
-0.2892,1.0031,0.002,0.2438,0.2502,0.0845,1.7763,-1.96,-4.1213,0.15235287916564108,-16.12136936885409,-2.631558399993658,2.9279999999926076
-0.2892,1.0031,0.002,0.2448,0.249,0.0884,1.1725,-1.7938,-4.3313,0.12720809057785515,-16.106474790829374,-2.660259199999505,2.9439999999958673
-0.2886,1.0027,0.0013,0.2448,0.249,0.0884,1.4525,-1.9425,-4.7512,0.0907273104719151,-16.098121160572713,-2.660259199999505,2.9439999999958673
-0.2908,1.0041,0.0017,0.2448,0.249,0.0884,1.4525,-1.9425,-4.7512,0.09505454632430761,-16.107163933733368,-2.6893966999983743,2.958999999995285
-0.288,1.007,0.0026,0.2426,0.2488,0.0957,0.84,-1.9162,-4.8387,0.12764257336424098,-16.091938363029136,-2.6893966999983743,2.958999999995285
-0.2874,1.0036,0.0042,0.2426,0.2488,0.0957,0.735,-1.8288,-5.4775,0.1949427486655227,-16.053475200581108,-2.7186575000043356,2.974999999998545
-0.2874,1.0036,0.0042,0.2436,0.2486,0.0859,-0.14,-2.1263,-5.6262,0.21220503663978058,-16.02392721191811,-2.7186575000043356,2.974999999998545
-0.2868,1.0022,0.0023,0.2436,0.2486,0.0859,-0.14,-2.1263,-5.6262,0.18112853011056892,-16.002062807208436,-2.7526783000112665,2.9910000000018044
-0.29,1.0064,0.0034,0.2436,0.2486,0.0937,-1.1812,-1.5313,-6.1512,0.18477712624060516,-16.041556322426818,-2.7526783000112665,2.9910000000018044
-0.2924,1.0049,0.0055,0.2451,0.2494,0.0937,-1.1463,-1.6888,-6.1687,0.22026235405728675,-16.141278892274055,-2.778010299997996,3.0059999999939464
-0.2944,1.0006,0.0083,0.2451,0.2494,0.0937,-1.6275,-1.1025,-6.2825,0.3382696007833018,-16.28578091073026,-2.778010299997996,3.0059999999939464
-0.299,0.9962,0.0055,0.243,0.2492,0.0896,-1.6275,-1.1025,-6.2825,0.32811437174124813,-16.52572204870809,-2.7956503000015895,3.021999999997206
-0.299,0.9962,0.0055,0.243,0.2492,0.0896,-0.9187,-1.1113,-6.2825,0.3265532830645257,-16.628786316013212,-2.812319800000943,3.036999999996624
-0.3059,0.9974,0.0027,0.2418,0.2483,0.092,-0.7175,-1.6275,-6.9563,0.31861222093890407,-16.91007138228256,-2.812319800000943,3.036999999996624
-0.3041,0.9995,0.0068,0.2418,0.2483,0.092,-0.7175,-1.9688,-7.4637,0.3219094047999249,-16.918690435958624,-2.8438206000073603,3.0529999999998836
-0.3032,1.0025,0.0058,0.2418,0.2483,0.092,-0.4025,-1.9688,-7.4637,0.32446202941470487,-16.853381808991475,-2.8438206000073603,3.0529999999998836
-0.3013,1.003,0.006,0.2434,0.25,0.0902,-0.5512,-2.1088,-7.2888,0.3276951590335,-16.759947848135294,-2.877561400014234,3.069000000003143
-0.3013,1.003,0.006,0.2434,0.25,0.0902,-0.6212,-2.1175,-7.525,0.3295991602779598,-16.731132323339725,-2.877561400014234,3.069000000003143
-0.3061,1.0057,0.0032,0.2432,0.2497,0.0936,-0.6212,-2.1175,-7.525,0.3109614632999579,-16.873107951798655,-2.9093238999975948,3.083999999995285
-0.3052,1.007,0.0032,0.2432,0.2497,0.0936,-0.8838,-2.6425,-7.3763,0.29738511566810244,-16.864428755209172,-2.9093238999975948,3.083999999995285
-0.3033,1.005,0.0068,0.2432,0.2497,0.0936,-1.19,-2.6425,-7.2013,0.3242638676984026,-16.81498620748149,-2.951603900006208,3.099999999998545
-0.3059,1.0055,0.008,0.2445,0.2508,0.0922,-2.0475,-2.4938,-6.72,0.39817271890604466,-16.882448912956896,-2.951603900006208,3.099999999998545
-0.3059,1.0047,0.0064,0.2445,0.2508,0.0922,-2.0475,-2.4938,-6.72,0.3795249354165197,-16.915067895767226,-2.9890109000047564,3.1149999999979627
-0.3065,1.0047,0.0064,0.2438,0.251,0.0918,-2.1263,-2.1,-6.44,0.37113826571494624,-16.944822166246855,-2.9890109000047564,3.1149999999979627
-0.3052,1.0005,0.0123,0.2438,0.251,0.0918,-2.8875,-2.0125,-6.5887,0.5976007106953384,-16.956090993034174,-3.0212108999966736,3.1309999999939464
-0.304,0.9972,0.0126,0.2438,0.251,0.0918,-2.6425,-2.1,-6.6937,0.6800017392697096,-16.953972988609912,-3.0212108999966736,3.1309999999939464
-0.3063,0.9943,0.0133,0.245,0.2501,0.0919,-2.6425,-2.1,-6.6937,0.7363351378595862,-17.059591145232087,-3.0548109000035186,3.146999999997206
-0.3073,0.9934,0.0131,0.245,0.2501,0.0919,-2.5113,-1.7325,-6.0287,0.7485300648636919,-17.125892641705867,-3.0548109000035186,3.146999999997206
-0.3073,0.9934,0.0131,0.2438,0.2488,0.088,-2.17,-1.9688,-6.0375,0.7526109060314727,-17.157982064834407,-3.0843429000023725,3.161999999996624
-0.3027,0.9948,0.0165,0.2438,0.2488,0.088,-1.61,-1.365,-5.6175,0.8430597030924988,-17.06384765818975,-3.0843429000023725,3.161999999996624
-0.3015,0.995,0.0169,0.2438,0.2488,0.088,-1.61,-1.365,-5.6175,0.9025634028777519,-16.98070155045533,-3.106182900006822,3.1779999999998836
-0.3,0.995,0.016,0.2451,0.2509,0.09,-1.505,-0.9625,-5.04,0.9105081433528476,-16.964597596985797,-3.106182900006822,3.1779999999998836
-0.3018,0.9962,0.0212,0.2451,0.2509,0.09,-1.6975,-0.3938,-4.4012,1.059336139272159,-16.92401165050761,-3.1120899000037276,3.1929999999920256
-0.3018,0.9962,0.0183,0.2459,0.2506,0.0951,-1.4787,0.2187,-4.2525,1.0564474642384523,-16.894133043617074,-3.1120899000037276,3.1929999999920256
-0.3024,0.9961,0.0183,0.2459,0.2506,0.0951,-1.4787,0.2187,-4.2525,1.054804730785564,-16.890268301936967,-3.1085907000030146,3.208999999995285
-0.3045,0.9983,0.0168,0.2455,0.2526,0.0963,-1.3563,0.5337,-4.3837,1.0211450062174892,-16.91575579044688,-3.1085907000030146,3.208999999995285
-0.3032,0.9987,0.0188,0.2455,0.2526,0.0963,-1.1287,0.6388,-4.5763,1.0363915430976784,-16.907369048885695,-3.0977310999984784,3.2260000000023865
-0.307,0.9945,0.0145,0.2455,0.2526,0.0963,-1.1287,0.6388,-4.7775,0.9828820560320117,-16.944389044986558,-3.0977310999984784,3.2260000000023865
-0.3062,0.9947,0.0169,0.2438,0.2523,0.0934,-1.0063,0.3588,-4.7775,0.9810384713381116,-16.968937961646024,-3.092349100001298,3.2409999999945285
-0.3062,0.9947,0.0169,0.2438,0.2523,0.0934,-1.435,-0.0088,-4.9262,0.9779625676743028,-16.97274698764878,-3.092349100001298,3.2409999999945285
-0.3055,1.0014,0.0162,0.2449,0.2508,0.087,-1.4438,-0.56,-5.1712,0.9573003457506075,-16.97108801553695,-3.101309100003123,3.256999999997788
-0.3039,1.0015,0.0181,0.2449,0.2508,0.087,-1.4438,-0.56,-5.1712,0.9888443292954325,-16.95442386395375,-3.101309100003123,3.256999999997788
-0.3009,1.0008,0.0185,0.2449,0.2508,0.087,-1.1463,-0.8138,-5.39,1.008172281135175,-16.88669598641679,-3.1135161000026494,3.271999999997206
-0.3045,1.0,0.0192,0.2449,0.2496,0.0926,-1.3038,-0.7175,-5.5475,1.0402640967909689,-16.903766770100834,-3.1135161000026494,3.271999999997206
-0.3045,1.0,0.0221,0.2449,0.2496,0.0926,-1.47,-0.4725,-5.4425,1.1335334052710668,-16.912894093652906,-3.12107610000419,3.2880000000004657
-0.3074,0.9961,0.0221,0.247,0.2513,0.0903,-1.47,-0.4725,-5.4425,1.1903181529496318,-16.989494726175387,-3.12107610000419,3.2880000000004657
-0.3076,0.9952,0.0225,0.247,0.2513,0.0903,-1.61,-1.1287,-5.6875,1.2382987243161716,-17.06643533451902,-3.1391352999996567,3.3039999999964493
-0.3105,0.9959,0.0199,0.247,0.2513,0.0903,-1.2687,-1.295,-5.6087,1.206999028391778,-17.163990637484336,-3.1391352999996567,3.3039999999964493
-0.3083,0.9961,0.0255,0.2451,0.2519,0.0897,-1.0325,-1.6363,-6.3,1.2615810690443865,-17.18026857435865,-3.1636797999987043,3.3189999999958673
-0.3062,0.9965,0.0229,0.2451,0.2519,0.0897,-1.0325,-1.6363,-6.3,1.2731244711014489,-17.120833409318404,-3.1636797999987043,3.3189999999958673
-0.3062,0.9965,0.0229,0.2462,0.2537,0.0911,-0.6737,-1.8637,-6.6062,1.27678790314439,-17.09331963140652,-3.1934990000047794,3.334999999999127
-0.3087,0.9982,0.0192,0.2462,0.2537,0.0911,-0.42,-1.3475,-6.3,1.2318320965567888,-17.143952137017642,-3.1934990000047794,3.334999999999127
-0.3045,0.9984,0.0217,0.2462,0.2537,0.0911,-0.9363,-2.1,-5.9062,1.2337643427712641,-17.05293251910222,-3.224999000003557,3.349999999998545
-0.3049,0.9969,0.0209,0.2458,0.2525,0.0839,-0.9363,-2.1,-5.9062,1.2290024160816686,-17.028404305455034,-3.224999000003557,3.349999999998545
-0.3076,0.9952,0.0179,0.2458,0.2525,0.0839,-0.5863,-2.2313,-5.7312,1.1987450775028665,-17.091578390351906,-3.2606997999945957,3.3659999999945285
-0.3076,0.9952,0.0179,0.2451,0.2511,0.0922,0.0,-2.3888,-5.8975,1.1257350641195563,-17.131051471957743,-3.2606997999945957,3.3659999999945285
-0.3059,0.9938,0.0189,0.2451,0.2511,0.0922,0.0,-2.3888,-5.6962,1.1100237654020428,-17.120337248819478,-3.2989206000023823,3.381999999997788
-0.3102,0.9974,0.0201,0.2656,0.2502,0.0937,-0.21,-2.7213,-5.6962,1.1259142910850668,-17.185286476314644,-3.2989206000023823,3.381999999997788
-0.3108,0.9969,0.0153,0.247,0.2502,0.0937,-0.245,-2.0563,-5.9325,1.0414265028638068,-17.248836315496664,-3.329765100001185,3.396999999997206
-0.3125,1.0018,0.0129,0.247,0.2502,0.0937,0.5512,-2.1437,-6.0725,0.8687976398811954,-17.28817584533189,-3.329765100001185,3.396999999997206
-0.3107,1.0015,0.0169,0.2474,0.2514,0.0978,0.5512,-2.1437,-6.0725,0.9244831188332516,-17.259257405026368,-3.364064300008173,3.4130000000004657
-0.3107,1.0015,0.0169,0.2474,0.2514,0.0978,0.9538,-1.9863,-6.335,0.9512141418534465,-17.2442577048585,-3.3938587999925645,3.4279999999926076
-0.3101,1.0023,0.0132,0.2454,0.2518,0.096,1.1025,-2.59,-6.6062,0.8230921668554991,-17.210497299944695,-3.3938587999925645,3.4279999999926076
-0.3109,1.0017,0.0138,0.2454,0.2518,0.096,0.84,-2.8175,-7.0963,0.8022605398981912,-17.2315366918144,-3.4389388000017487,3.4439999999958673
-0.3144,1.0028,0.0131,0.2454,0.2518,0.096,0.84,-2.8175,-7.0963,0.7690898051332113,-17.35044943226677,-3.4389388000017487,3.4439999999958673
-0.3134,1.0005,0.0137,0.247,0.2529,0.097,0.0613,-3.0363,-7.07,0.7760719116969543,-17.378179739038316,-3.487519600011646,3.459999999999127
-0.3134,1.0005,0.0137,0.247,0.2529,0.097,0.7262,-2.5988,-7.2975,0.7811248111257967,-17.387366588878887,-3.487519600011646,3.459999999999127
-0.3165,1.0005,0.0091,0.2458,0.2538,0.0898,0.5512,-3.0888,-6.3175,0.6333213653468172,-17.48328841072462,-3.533851600009848,3.474999999998545
-0.3181,1.0015,0.0072,0.2458,0.2538,0.0898,0.5512,-3.0888,-6.3175,0.5074554902832865,-17.56252006820564,-3.533851600009848,3.474999999998545
-0.3145,1.0025,0.0121,0.2458,0.2538,0.0898,0.3938,-3.3863,-5.7137,0.6062977710833628,-17.49940046490527,-3.588032400020886,3.4910000000018044
-0.3145,1.0017,0.0108,0.2467,0.2525,0.0904,0.3675,-2.9838,-5.2937,0.6123665834156792,-17.48171237930257,-3.588032400020886,3.4910000000018044
-0.3113,1.003,0.0078,0.2467,0.2525,0.0904,-0.0088,-2.6425,-4.655,0.5404845213393777,-17.426527679233146,-3.627669900000121,3.5059999999939464
-0.3113,1.003,0.0078,0.2458,0.2528,0.0895,-0.0088,-2.6425,-4.655,0.49957889744618156,-17.384059191146147,-3.627669900000121,3.5059999999939464
-0.3136,0.9994,0.0085,0.2458,0.2528,0.0895,0.2537,-2.3363,-4.7425,0.49337672081452477,-17.390458383864047,-3.6650507000077366,3.521999999997206
-0.3093,0.9989,0.0109,0.2458,0.2528,0.0895,-0.0175,-2.0125,-4.095,0.5498050345418564,-17.304131317620772,-3.6650507000077366,3.521999999997206
-0.3054,0.9971,0.0083,0.2467,0.2521,0.0981,-0.0175,-2.2575,-3.9113,0.5186057760241825,-17.163485426602257,-3.7011706999986695,3.5379999999931897
-0.3046,0.9966,0.0109,0.2467,0.2521,0.0981,-0.21,-2.2575,-3.9113,0.557208506408601,-17.077080137564536,-3.7011706999986695,3.5379999999931897
-0.3046,0.9966,0.0109,0.2475,0.2527,0.0977,-0.2013,-2.0387,-3.7975,0.5822644535727559,-17.032650409989202,-3.7317512000123165,3.5529999999998836
-0.303,0.9977,0.0115,0.2475,0.2527,0.0977,-1.1463,-1.715,-3.7625,0.6037872097889518,-16.95638461955868,-3.7317512000123165,3.5529999999998836
-0.2998,0.9981,0.0123,0.2475,0.2527,0.0966,-1.1463,-1.715,-3.7625,0.6319574114184859,-16.8265000224184,-3.7591912000179066,3.569000000003143
-0.2962,0.9942,0.0148,0.2455,0.2535,0.0966,-1.6625,-1.3563,-3.3775,0.7363775700121414,-16.680876327776794,-3.7591912000179066,3.569000000003143
-0.2994,0.9933,0.0148,0.2455,0.2535,0.0966,-0.8925,-0.9013,-3.4825,0.7495387649384182,-16.735180922007757,-3.772710700010824,3.583999999995285
-0.2993,0.9958,0.0113,0.2469,0.2514,0.0826,-1.3737,-1.12,-4.0425,0.7119711643472788,-16.73165252842694,-3.772710700010824,3.583999999995285
-0.2993,0.9958,0.0113,0.2469,0.2514,0.0826,-1.3737,-1.12,-4.0425,0.6886029097625043,-16.729807063835032,-3.7906307000144746,3.599999999998545
-0.2993,0.9952,0.0171,0.2454,0.2514,0.085,-1.47,-1.0237,-3.99,0.8107978496798239,-16.732842401103778,-3.7906307000144746,3.599999999998545
-0.2969,0.9922,0.0162,0.2454,0.2514,0.085,-1.3212,-0.875,-3.6225,0.8552788044181836,-16.689452258756038,-3.8046307000109603,3.6159999999945285
-0.3009,0.9953,0.0141,0.2454,0.2514,0.085,-1.5137,-0.7175,-3.6837,0.836606420346553,-16.7622689833674,-3.8046307000109603,3.6159999999945285
-0.2984,0.9961,0.0221,0.2462,0.2496,0.0891,-1.5137,-0.7175,-3.6837,1.0224329975023574,-16.712131043046355,-3.8153932000157633,3.6310000000012224
-0.2984,0.9961,0.0221,0.2462,0.2496,0.0891,-1.4525,-0.6388,-3.8763,1.1236021754546044,-16.691661315191947,-3.8153932000157633,3.6310000000012224
-0.2987,0.9947,0.0212,0.2451,0.2496,0.0886,-1.2337,-0.665,-3.6662,1.1546226949184355,-16.702540016307957,-3.8260332000130926,3.646999999997206
-0.2977,0.9933,0.0175,0.2451,0.2496,0.0886,-1.0675,-0.5425,-3.9113,1.1209716129800755,-16.69177317995486,-3.8260332000130926,3.646999999997206
-0.2974,0.9968,0.0182,0.2451,0.2496,0.0886,-1.0675,-0.5425,-3.9113,1.1036103034782985,-16.650077667978387,-3.834170700012777,3.661999999996624
-0.2987,0.9951,0.0184,0.2466,0.2505,0.0986,-0.6825,-0.7788,-4.2,1.1001940271391613,-16.67392179754231,-3.834170700012777,3.661999999996624
-0.2979,0.9958,0.0235,0.2466,0.2505,0.0986,-0.2975,-0.7962,-4.4625,1.1804974969622033,-16.66620365898823,-3.846909900015372,3.6779999999998836
-0.2979,0.9958,0.0235,0.2441,0.2504,0.0915,-0.8138,-0.735,-4.9088,1.1883055064108219,-16.665519027237476,-3.846909900015372,3.6779999999998836
-0.3001,0.997,0.0209,0.2441,0.2504,0.0915,-0.8138,-0.735,-4.9088,1.1888797195913103,-16.669139083310093,-3.85866990001242,3.6939999999958673
-0.3006,0.9978,0.0196,0.2441,0.2504,0.0915,-0.21,-1.0412,-5.4513,1.1661694882418328,-16.70014489292203,-3.85866990001242,3.6939999999958673
-0.3008,0.9989,0.0192,0.2478,0.2502,0.087,-0.595,-0.9887,-6.2825,1.1566723257104696,-16.731875695473644,-3.8735004000118445,3.708999999995285
-0.3043,1.0014,0.0204,0.2478,0.2502,0.087,-0.595,-0.9887,-6.5887,1.1581865725830578,-16.83579774160352,-3.8735004000118445,3.708999999995285
-0.3043,1.0014,0.0204,0.2457,0.2518,0.0833,-0.2013,-1.7062,-6.5887,1.1613814347562794,-16.87524773259909,-3.900799600017406,3.724999999998545
-0.3071,1.0017,0.0213,0.2457,0.2518,0.0833,-0.49,-2.0825,-6.9037,1.1736618284617297,-16.984667572874613,-3.900799600017406,3.724999999998545
-0.3068,0.9995,0.019,0.2457,0.2518,0.0833,-0.4288,-2.7562,-7.35,1.1523180197114034,-17.038623646404844,-3.942142600015802,3.7399999999979627
-0.3093,0.9988,0.0197,0.2466,0.2498,0.0897,-0.4288,-2.7562,-7.35,1.146673261390742,-17.15467586645991,-3.942142600015802,3.7399999999979627
-0.3135,1.0013,0.0175,0.2466,0.2498,0.0897,-0.4725,-2.7037,-6.9125,1.1136755288955786,-17.305467202156112,-3.985401800024615,3.7560000000012224
-0.3135,0.9973,0.0185,0.2462,0.2519,0.0921,-0.5512,-2.9313,-6.755,1.104663281206853,-17.396884335217177,-4.032302600012842,3.771999999997206
-0.3085,0.9973,0.0185,0.2462,0.2519,0.0921,-0.455,-2.6163,-6.265,1.0947116697844628,-17.277210756734977,-4.032302600012842,3.771999999997206
-0.3112,1.0001,0.0201,0.2456,0.2523,0.095,-0.455,-2.6163,-6.265,1.1081557204494312,-17.279492966355296,-4.071547100011319,3.786999999996624
-0.3088,1.0005,0.017,0.2456,0.2523,0.095,-0.14,-2.8,-6.3,1.0562906393883476,-17.205370945381283,-4.071547100011319,3.786999999996624
-0.3081,0.9994,0.0146,0.2456,0.2523,0.095,-0.14,-3.0625,-5.4075,0.9718446238245629,-17.182500839947764,-4.120547099999019,3.8029999999926076
-0.3078,1.0001,0.0176,0.2466,0.2526,0.0902,-0.4462,-2.8525,-5.6613,0.9806554504451388,-17.150099070252363,-4.120547099999019,3.8029999999926076
-0.3078,1.0001,0.0176,0.2466,0.2526,0.0902,-0.4462,-2.8525,-5.6613,0.9873309967661862,-17.131115953350633,-4.163334600018113,3.8179999999993015
-0.3099,0.9985,0.0165,0.2463,0.253,0.0933,-0.5425,-2.555,-5.4075,0.9799096636537262,-17.165168669846093,-4.163334600018113,3.8179999999993015
-0.3091,1.0002,0.0109,0.2463,0.253,0.0933,0.0088,-2.905,-5.5563,0.8246910795881107,-17.16780561001024,-4.209814600027583,3.834000000002561
-0.3084,1.0006,0.0149,0.2463,0.253,0.0933,-0.6825,-2.765,-5.7488,0.826884490840489,-17.150315868094093,-4.209814600027583,3.834000000002561
-0.3087,1.0014,0.0177,0.2458,0.2514,0.0897,-0.6825,-2.765,-5.7488,0.8412080384735647,-17.141481038493122,-4.254054600016477,3.849999999998545
-0.3087,0.9858,0.0163,0.2458,0.2514,0.0897,-0.945,-2.7037,-5.6788,0.8573083790779892,-17.24400550202425,-4.254054600016477,3.849999999998545
-0.3052,0.999,0.0163,0.2466,0.2512,0.093,-0.5512,-2.2838,-5.565,0.8710090983925389,-17.14622130379937,-4.2928792000160785,3.86699999999837
-0.3103,0.9956,0.0148,0.2466,0.2512,0.093,-0.5512,-2.4325,-5.4775,0.8675873644447818,-17.202111920911985,-4.2928792000160785,3.86699999999837
-0.3114,0.9966,0.0156,0.2466,0.2512,0.093,-1.4175,-2.4325,-5.4775,0.8791069023791211,-17.252923028254756,-4.331799200024007,3.88300000000163
-0.3057,0.9997,0.0192,0.2462,0.252,0.092,-1.12,-2.6775,-6.195,0.9369224914535966,-17.113018800944317,-4.331799200024007,3.88300000000163
-0.3046,0.9956,0.0154,0.2462,0.252,0.092,-1.4875,-2.975,-5.7838,0.9156584875932239,-17.066029417790713,-4.3764242000006295,3.897999999993772
-0.3046,0.9956,0.0154,0.2465,0.2533,0.0982,-1.4875,-2.975,-5.7838,0.903305993184276,-17.040343358603433,-4.3764242000006295,3.897999999993772
-0.3054,0.9934,0.0143,0.2465,0.2533,0.0982,-1.5838,-2.625,-5.6613,0.8679512296934575,-17.059781716403858,-4.418424200009186,3.9139999999970314
-0.307,0.9986,0.0165,0.2465,0.2533,0.0982,-1.1287,-2.7912,-5.3025,0.8888870270155893,-17.066763859960687,-4.418424200009186,3.9139999999970314
-0.2963,0.9972,0.0189,0.247,0.2545,0.0908,-0.9013,-2.6862,-5.0662,0.9123442546415852,-17.01436407462936,-4.461403399998398,3.929999999993015
-0.295,0.9974,0.0163,0.247,0.2545,0.0908,-0.9013,-2.6862,-5.0662,0.9151946773126273,-16.960088728097855,-4.461403399998398,3.929999999993015
-0.295,0.9974,0.0239,0.2459,0.2525,0.0906,-1.3125,-1.8988,-5.1188,1.0768461900590836,-16.891201664327006,-4.489885400011108,3.944999999999709
-0.2949,0.9967,0.0239,0.2459,0.2525,0.0906,-1.3825,-1.47,-5.0662,1.1900296877024676,-16.849636185585172,-4.489885400011108,3.944999999999709
-0.2948,1.0008,0.0242,0.2461,0.2516,0.0861,-1.7325,-0.7613,-5.25,1.2859390772576043,-16.74900771953779,-4.50206620001359,3.9610000000029686
-0.2938,0.9978,0.0255,0.2461,0.2516,0.0861,-1.7325,-0.7613,-5.25,1.3734228549763996,-16.669813946241682,-4.50206620001359,3.9610000000029686
-0.2986,0.9935,0.0224,0.2461,0.2516,0.0861,-1.82,0.0,-5.075,1.3314389223794136,-16.67567949217391,-4.50206620001359,3.9759999999951106
-0.3047,0.9884,0.0236,0.246,0.2523,0.0922,-1.1988,0.2537,-5.5125,1.3424181388254088,-16.837935442942737,-4.50206620001359,3.9759999999951106
-0.3047,0.9884,0.0236,0.246,0.2523,0.0922,0.0875,0.8925,-5.95,1.3541018114812562,-16.982984567763165,-4.487786200010681,3.99199999999837
-0.308,0.9883,0.0249,0.245,0.2508,0.0942,0.0875,0.8925,-5.95,1.395154114539412,-17.143279307896837,-4.487786200010681,3.99199999999837
-0.3101,0.9904,0.0191,0.245,0.2508,0.0942,0.735,0.7875,-6.8075,1.220904160923785,-17.298721098489168,-4.475186200013844,4.007999999994354
-0.3124,0.994,0.0177,0.245,0.2508,0.0942,1.2775,0.9187,-7.0175,1.0861095241532064,-17.39696875168373,-4.475186200013844,4.007999999994354
-0.3127,0.9995,0.0215,0.2474,0.254,0.0858,1.3125,1.0588,-6.4925,1.1848036311096921,-17.37992969505938,-4.459304200006756,4.023000000001048
-0.3127,0.9995,0.0166,0.2474,0.254,0.0858,1.3125,1.0588,-6.4925,1.027282036450375,-17.374140340140602,-4.459304200006756,4.023000000001048
-0.3122,1.0024,0.0166,0.247,0.2519,0.0926,1.5662,0.2713,-6.3088,0.9723143708161466,-17.329822951205113,-4.454963400007846,4.038999999997031
-0.318,1.0067,0.0141,0.247,0.2519,0.0926,0.9538,-0.1925,-6.4313,0.8648977201232863,-17.44850016063377,-4.454963400007846,4.038999999997031
-0.3236,1.0089,0.0147,0.247,0.2519,0.0926,0.9538,-0.1925,-6.195,0.8458399638775196,-17.63295167225143,-4.457850900007734,4.053999999996449
-0.3243,1.0063,0.0155,0.2474,0.2538,0.0953,0.5425,-0.8662,-6.195,0.866594428808352,-17.758983163009145,-4.457850900007734,4.053999999996449
-0.326,1.0031,0.016,0.2474,0.2538,0.0953,0.1663,-1.4,-6.0813,0.8893816648421672,-17.887544906322752,-4.546050900000236,4.116999999991094
-0.326,1.0031,0.016,0.2474,0.2521,0.0926,-0.8575,-2.065,-6.0813,0.8914291250197447,-17.94799127209711,-4.546050900000236,4.116999999991094
-0.327,1.0022,0.0123,0.2474,0.2521,0.0926,-0.8575,-2.065,-6.0813,0.8756566766163675,-18.012268781634386,-4.577025900014059,4.131999999997788
-0.326,0.9991,0.0177,0.2474,0.2521,0.0926,-1.0412,-2.3187,-5.705,0.9057102334594795,-18.036389344782204,-4.577025900014059,4.131999999997788
-0.3224,0.9951,0.0209,0.2472,0.2528,0.0907,-0.8575,-3.08,-5.845,0.9306323190846125,-17.99474040743352,-4.577025900014059,4.131999999997788
-0.3195,0.9919,0.0221,0.2472,0.2528,0.0907,-0.9187,-3.3512,-6.2125,0.976415011497192,-17.914139457475713,-4.577025900014059,4.131999999997788
-0.3195,0.9919,0.0221,0.2466,0.2536,0.0935,-0.9187,-3.3512,-6.2125,1.0161350721691655,-17.878444885175433,-4.577025900014059,4.131999999997788
-0.3148,0.993,0.0217,0.2466,0.2536,0.0935,-0.945,-3.5175,-5.6613,1.0519160848875315,-17.757197699110016,-4.577025900014059,4.131999999997788
-0.3113,0.9917,0.0255,0.2466,0.255,0.1013,-0.6913,-3.29,-5.5738,1.0812049897220075,-17.628971447850105,-4.577025900014059,4.131999999997788
-0.3087,0.9922,0.027,0.2476,0.255,0.1013,-0.7437,-2.4413,-4.7863,1.0916523794715913,-17.578212307716395,-4.577025900014059,4.131999999997788
-0.3079,0.9918,0.0248,0.2476,0.255,0.1013,-0.7437,-2.4413,-4.7863,1.0991064834438857,-17.52977262512294,-4.6160867000220165,4.148000000001048
-0.3084,0.9917,0.0246,0.2482,0.2538,0.0962,-0.7962,-1.47,-4.305,1.1085221289798668,-17.427379367189392,-4.6160867000220165,4.148000000001048
-0.3084,0.9917,0.0246,0.2482,0.2538,0.0962,-1.0237,-0.9538,-4.305,1.1725313030002906,-17.365301289206222,-4.631347500018186,4.163999999997031
-0.3132,0.9936,0.0255,0.2465,0.2518,0.089,-0.4812,-0.7875,-3.9725,1.238511655593473,-17.42725554717386,-4.631347500018186,4.163999999997031
-0.3107,0.9934,0.0272,0.2465,0.2518,0.089,-0.4812,-0.7875,-3.9725,1.3116524218962686,-17.394777216170652,-4.643160000017727,4.178999999996449
-0.3142,0.9941,0.0222,0.2465,0.2518,0.089,-0.0787,-0.4288,-3.9987,1.2984744722165331,-17.46369574181015,-4.643160000017727,4.178999999996449
-0.3132,0.9917,0.0203,0.2467,0.2513,0.0852,0.5337,0.0525,-4.5937,1.22737605291611,-17.479624308139904,-4.642320000017938,4.194999999992433
-0.3132,0.9917,0.0203,0.2467,0.2513,0.0852,0.5337,-0.6212,-5.0838,1.196460551382292,-17.484682604686114,-4.651638000022096,4.209999999999127
-0.314,0.9989,0.0166,0.248,0.252,0.0926,0.6125,-0.6212,-5.0838,1.0548168250337508,-17.48048710598464,-4.651638000022096,4.209999999999127
-0.3122,1.002,0.0173,0.248,0.252,0.0926,0.455,-0.9975,-4.8825,1.01871008295046,-17.468604451545946,-4.667598000025348,4.2260000000023865
-0.309,1.0045,0.0169,0.248,0.252,0.0926,-0.245,-1.0412,-4.4713,0.9999236872724521,-17.34737306135893,-4.667598000025348,4.2260000000023865
-0.3099,0.9982,0.0163,0.247,0.2542,0.1036,-0.245,-1.0412,-4.4713,0.9778618887068625,-17.314107996230703,-4.68529840001759,4.242999999994936
-0.3121,0.9956,0.019,0.247,0.2542,0.1036,-0.4725,-0.84,-4.5588,1.0040593725599636,-17.339066190697356,-4.68529840001759,4.242999999994936
-0.3121,0.9956,0.019,0.2468,0.2538,0.0912,-0.28,-1.1025,-4.8038,1.0332478184157672,-17.347324582954617,-4.70183590002497,4.25800000000163
-0.3173,0.9983,0.0204,0.2468,0.2538,0.0912,-0.1138,-1.715,-5.2937,1.0874946467918127,-17.418655769910625,-4.70183590002497,4.25800000000163
-0.3157,0.9959,0.0201,0.2468,0.2538,0.0912,-0.1138,-1.715,-5.2937,1.1146290950886897,-17.460855653436447,-4.729275900018082,4.2739999999976135
-0.3105,0.9962,0.0171,0.2462,0.2537,0.0845,-0.0613,-2.1525,-5.5125,1.060377169904378,-17.406479666083694,-4.729275900018082,4.2739999999976135
-0.3093,0.9976,0.0196,0.2462,0.2537,0.0845,-0.2975,-2.0563,-5.005,1.0811727724028921,-17.397628680161173,-4.760120400016885,4.288999999997031
-0.3093,0.9976,0.0196,0.2469,0.2515,0.0881,-0.0613,-1.9425,-5.3025,1.0995204417253264,-17.352439978966867,-4.760120400016885,4.288999999997031
-0.3087,0.9983,0.0178,0.2469,0.2515,0.0881,-0.0613,-1.9425,-5.3025,1.0672633243373235,-17.308014534676662,-4.791200400023217,4.305000000000291
-0.3035,0.9981,0.0188,0.2469,0.2515,0.0903,0.1225,-1.7938,-5.74,1.0728247150889652,-17.13313506517683,-4.791200400023217,4.305000000000291
-0.304,0.9994,0.0174,0.2475,0.2525,0.0903,-0.4725,-2.3012,-5.3113,1.0557176464784637,-17.076138241908097,-4.828019600013975,4.320999999996275
-0.3063,0.9972,0.0172,0.2475,0.2525,0.0903,-0.3237,-1.9688,-5.3375,1.0349970119134657,-17.075123460912433,-4.828019600013975,4.320999999996275
-0.307,0.9961,0.0185,0.2468,0.2521,0.0916,-0.3237,-1.9688,-5.3375,1.043891973597413,-17.08938695692971,-4.857551600012829,4.335999999995693
-0.307,0.9961,0.0185,0.2468,0.2521,0.0916,0.1225,-1.33,-4.9525,1.053352599426674,-17.08945856963444,-4.857551600012829,4.335999999995693
-0.3091,0.9939,0.0173,0.2473,0.2545,0.0899,-0.3588,-1.6363,-5.6,1.0371018560123741,-17.16149513963506,-4.883732400006257,4.351999999991676
-0.3049,0.9947,0.0184,0.2473,0.2545,0.0899,-0.4638,-2.0738,-6.2125,1.0423560509920902,-17.093160452176186,-4.883732400006257,4.351999999991676
-0.3081,0.9944,0.0138,0.2473,0.2545,0.0899,-0.4638,-2.0738,-6.2125,0.9849621747750329,-17.160070649638307,-4.9148394000201385,4.36699999999837
-0.3064,0.9981,0.0148,0.2462,0.2545,0.0969,-0.5688,-1.9775,-6.5012,0.9626477837045381,-17.10162730277726,-4.9148394000201385,4.36699999999837
-0.3064,0.9981,0.0148,0.2462,0.2545,0.0969,-0.4988,-1.4525,-6.44,0.9387911736246705,-17.079044597276045,-4.9380794000143045,4.382999999994354
-0.3055,0.9984,0.0176,0.2489,0.2529,0.094,-0.4988,-1.4525,-6.195,0.9537916198581753,-17.041410636552577,-4.9380794000143045,4.382999999994354
-0.3076,0.9991,0.0164,0.2489,0.2529,0.094,-0.6475,-1.5225,-6.195,0.9523734861222823,-17.07951475580973,-4.962439400019267,4.3989999999976135
-0.3112,0.9976,0.0148,0.2489,0.2529,0.094,-0.315,-1.8725,-6.545,0.9205366192327236,-17.22928720774537,-4.962439400019267,4.3989999999976135
-0.3157,0.9977,0.0215,0.2482,0.2548,0.0953,-0.5163,-2.1088,-6.5275,0.9832838654111766,-17.42841065510619,-4.99407140001804,4.413999999997031
-0.3157,0.9956,0.021,0.2482,0.2548,0.0953,-0.5163,-2.1088,-6.5275,1.0282633236100176,-17.52713948515629,-4.99407140001804,4.413999999997031
-0.3145,0.9956,0.021,0.2495,0.253,0.0938,-0.665,-2.0125,-6.4925,1.0447933149653261,-17.527140710025055,-5.026271400009957,4.429999999993015
-0.3152,0.9977,0.018,0.2495,0.253,0.0938,-0.5863,-1.8288,-5.8888,1.0430861282076462,-17.528539265762294,-5.026271400009957,4.429999999993015
-0.3172,0.9983,0.0181,0.2495,0.253,0.0938,0.07,-1.9075,-5.4687,1.0410915119598287,-17.561103758919014,-5.054883900022726,4.444999999999709
-0.3155,0.9985,0.0163,0.247,0.254,0.0985,0.07,-1.9075,-5.4687,0.9928917670422182,-17.551554765709678,-5.054883900022726,4.444999999999709
-0.3162,0.9997,0.0183,0.247,0.254,0.0985,-0.2713,-2.0825,-5.0575,1.0113676390780164,-17.551328866620683,-5.088203900014362,4.460999999995693
-0.3162,0.9997,0.0183,0.2486,0.2545,0.0915,0.1225,-1.785,-5.1013,1.028937269360865,-17.551048196487923,-5.088203900014362,4.460999999995693
-0.3135,0.9977,0.016,0.2486,0.2545,0.0915,0.0875,-1.9775,-5.1625,0.9782039557209014,-17.532231170201918,-5.119843900020808,4.476999999998952
-0.3176,1.0,0.0162,0.2486,0.2545,0.0915,0.0875,-1.9775,-5.1625,0.955135923861081,-17.546948385539377,-5.119843900020808,4.476999999998952
-0.3145,0.9981,0.0156,0.2466,0.2546,0.0994,-0.0525,-2.1,-5.1363,0.9302783848136255,-17.537810226213587,-5.151343900019585,4.49199999999837
-0.3139,0.9983,0.0164,0.2466,0.2546,0.0994,-0.245,-2.0213,-4.8475,0.9340082009686558,-17.529592287634532,-5.151343900019585,4.49199999999837
-0.3139,0.997,0.0145,0.2474,0.2539,0.0926,-0.315,-1.9338,-4.515,0.9026811256113308,-17.512800619636213,-5.182284700011818,4.507999999994354
-0.3128,0.997,0.0145,0.2474,0.2539,0.0926,-0.315,-1.9338,-4.515,0.8810921176976145,-17.483573306076057,-5.182284700011818,4.507999999994354
-0.3123,0.9979,0.0192,0.248,0.2527,0.0958,-0.5688,-1.925,-4.5937,0.917532229776838,-17.454754868576384,-5.211159700024704,4.523000000001048
-0.3104,0.9978,0.0204,0.248,0.2527,0.0958,-0.6212,-1.6712,-4.34,0.9496362178327317,-17.386992400714043,-5.211159700024704,4.523000000001048
-0.3079,0.9986,0.0148,0.248,0.2527,0.0958,-0.6212,-1.9162,-4.34,0.9369153659665511,-17.29086544000929,-5.241818900017008,4.538999999997031
-0.3095,0.9978,0.0179,0.2486,0.2541,0.0975,-0.4025,-1.9162,-4.34,0.961133296291923,-17.26783876001616,-5.241818900017008,4.538999999997031
-0.3095,0.9978,0.0179,0.2486,0.2541,0.0975,-0.8925,-1.6013,-4.5763,0.9686100296146088,-17.257556005179996,-5.267439700022227,4.555000000000291
-0.3077,0.9973,0.0174,0.2459,0.2542,0.089,-0.8838,-1.4875,-4.5062,0.9718684103254294,-17.222492901554055,-5.267439700022227,4.555000000000291
-0.3079,0.9954,0.0178,0.2459,0.2542,0.089,-0.8838,-1.4875,-4.5062,0.9774089482322383,-17.211027908713213,-5.289752200021361,4.569999999999709
-0.3089,0.9933,0.0168,0.2459,0.2542,0.089,-0.2275,-0.8662,-4.8125,0.9744547417414129,-17.218669745640945,-5.303611400017882,4.585999999995693
-0.3081,0.993,0.0197,0.2477,0.2522,0.0841,-0.6737,-0.9538,-5.1013,0.9881595473701302,-17.220691630020774,-5.303611400017882,4.585999999995693
-0.3081,0.9944,0.019,0.2477,0.2522,0.0841,-0.6913,-1.0675,-4.9262,0.995565265734261,-17.220449154582592,-5.319623900025028,4.6010000000023865
-0.3091,0.9944,0.019,0.2472,0.2531,0.0936,-0.6913,-1.0675,-4.9262,1.0024558059673268,-17.22165591145601,-5.319623900025028,4.6010000000023865
-0.3081,0.9938,0.0232,0.2472,0.2531,0.0936,-0.2887,-1.1025,-5.0225,1.1106544339800064,-17.221561798391082,-5.337263900012578,4.616999999991094
-0.3094,0.996,0.0161,0.2472,0.2531,0.0936,-0.665,-1.1725,-5.2238,1.0937130452622248,-17.22863615670847,-5.337263900012578,4.616999999991094
-0.3112,0.997,0.0168,0.2474,0.2541,0.1002,-0.3063,-0.7962,-5.495,1.0532915873152755,-17.265161987172053,-5.350003100015174,4.632999999994354
-0.3127,0.9981,0.0172,0.2474,0.2541,0.1002,-0.3063,-0.7962,-5.495,1.032496152588282,-17.310054225944913,-5.350003100015174,4.632999999994354
-0.3127,0.9981,0.0172,0.249,0.2537,0.0872,-0.4025,-0.875,-5.915,1.020436404106064,-17.350742031910276,-5.363128100014665,4.647999999993772
-0.3099,0.998,0.0173,0.249,0.2537,0.0872,-0.9363,-1.3913,-5.9675,1.0164603473292686,-17.29915355856748,-5.363128100014665,4.647999999993772
-0.3133,0.9966,0.0161,0.249,0.2537,0.0872,-0.6125,-1.8637,-6.4225,1.0043552549870456,-17.38851508999572,-5.392947300020739,4.663999999997031
-0.3129,0.9978,0.0174,0.2476,0.2542,0.0865,-0.6125,-1.8637,-6.4225,1.0036481285429617,-17.40034968293978,-5.392947300020739,4.663999999997031
-0.3142,0.9969,0.0189,0.2476,0.2542,0.0865,-0.7788,-2.0475,-6.72,1.0046852147706793,-17.45803284757845,-5.423659800019547,4.678999999996449
-0.3142,0.9945,0.0236,0.2477,0.2538,0.0927,-1.2337,-2.1962,-6.6062,1.1177094935250067,-17.50202352588658,-5.423659800019547,4.678999999996449
-0.3104,0.9945,0.0236,0.2477,0.2538,0.0927,-0.91,-2.4675,-6.7463,1.148120310765022,-17.391246968808836,-5.463139800009637,4.694999999992433
-0.3129,0.9945,0.0188,0.249,0.2552,0.0923,-0.91,-2.4675,-6.7463,1.1399252247533618,-17.43680747283009,-5.463139800009637,4.694999999992433
-0.3127,0.9947,0.0183,0.249,0.2552,0.0923,-0.3675,-2.0387,-6.6937,1.1154325592377146,-17.44430057501798,-5.495759000016283,4.710999999995693
-0.3121,0.9968,0.0181,0.249,0.2552,0.0923,-0.6913,-2.03,-6.5887,1.1102037791280106,-17.40611279971118,-5.495759000016283,4.710999999995693
-0.3074,0.9964,0.0204,0.248,0.2542,0.094,-0.6913,-2.03,-6.3263,1.1145647521723754,-17.25344984241188,-5.526209000015101,4.725999999995111
-0.3074,0.9964,0.0204,0.248,0.2542,0.094,-1.1287,-1.6538,-6.3263,1.1300874983168856,-17.18908595897491,-5.526209000015101,4.725999999995111
-0.3113,0.9966,0.019,0.2491,0.2546,0.0973,-0.4112,-1.2862,-6.545,1.1201643938262473,-17.284114903585568,-5.546788200019294,4.74199999999837
-0.3109,0.9981,0.0163,0.2491,0.2546,0.0973,-0.4638,-1.19,-6.3088,1.0773292540121377,-17.292801930009894,-5.546788200019294,4.74199999999837
-0.3131,0.9986,0.0232,0.2491,0.2546,0.0973,-0.4638,-1.19,-6.3088,1.1361817909351273,-17.356670444104502,-5.564638200018601,4.756999999997788
-0.314,0.9977,0.0226,0.247,0.2538,0.0954,-0.7962,-1.47,-5.9237,1.1409050761471995,-17.41039618265841,-5.564638200018601,4.756999999997788
-0.314,0.9977,0.0184,0.247,0.2538,0.0954,-0.5425,-1.12,-6.2913,1.125492523643837,-17.442917216772013,-5.582558200014103,4.772999999993772
-0.3183,0.998,0.0184,0.2488,0.2539,0.0946,-0.8313,-1.47,-6.3,1.1212512770143765,-17.582728847316428,-5.582558200014103,4.772999999993772
-0.3199,0.998,0.0227,0.2488,0.2539,0.0946,-0.8313,-1.47,-6.3,1.1323811628459624,-17.68928929076215,-5.606078200018894,4.788999999997031
-0.3215,0.9966,0.0251,0.2488,0.2539,0.0946,-0.8838,-1.3563,-6.405,1.1650705730279727,-17.798761192819367,-5.606078200018894,4.788999999997031
-0.3212,0.9976,0.0191,0.2495,0.2566,0.0978,-0.665,-1.2687,-6.44,1.1588084880861311,-17.82584745199933,-5.625108700018155,4.803999999996449
-0.335,1.004,0.0188,0.2495,0.2566,0.0978,-0.6475,-1.715,-6.3963,1.149685785929771,-18.193836370362924,-5.625108700018155,4.803999999996449
-0.335,1.004,0.0188,0.2485,0.2561,0.0913,-0.6475,-1.715,-6.3963,1.1415300739231842,-18.34453582048322,-5.652548700023746,4.819999999999709
-0.3381,0.9852,0.0262,0.2485,0.2561,0.0913,-1.0588,-2.8437,-6.09,1.2279895320698198,-18.65847263738606,-5.652548700023746,4.819999999999709
-0.3351,0.9965,0.0276,0.2485,0.2561,0.0913,-0.91,-3.3338,-6.1337,1.27310016892862,-18.615992869107394,-5.702555700021805,4.834999999999127
-0.334,0.9976,0.0237,0.2481,0.2546,0.0908,-0.7962,-4.0425,-5.6262,1.275669142514381,-18.57173866430943,-5.702555700021805,4.834999999999127
-0.3326,0.9956,0.026,0.2481,0.2546,0.0908,-0.7962,-4.0425,-5.6262,1.2821124373959691,-18.529672927413937,-5.767235700005569,4.850999999995111
-0.3326,0.9956,0.0255,0.2483,0.253,0.085,-1.2337,-4.8038,-5.5037,1.3410802939865432,-18.507551469741927,-5.767235700005569,4.850999999995111
-0.33,0.9964,0.0255,0.2483,0.253,0.085,-1.1463,-5.2937,-5.8275,1.3754941328778696,-18.419606093470154,-5.851934900022825,4.86699999999837
-0.3306,0.9922,0.0239,0.2485,0.2543,0.0898,-0.6037,-5.32,-5.6613,1.3761050076950576,-18.42102651340813,-5.851934900022825,4.86699999999837
-0.3268,0.9949,0.0249,0.2485,0.2543,0.0898,-0.6037,-5.32,-5.6613,1.3841472623431912,-18.320692793492558,-5.931734900019729,4.881999999997788
-0.3235,0.9956,0.0237,0.2485,0.2543,0.0898,-0.5512,-5.8538,-5.3987,1.3805226800449995,-18.220736713902713,-5.931734900019729,4.881999999997788
-0.3145,0.9936,0.0276,0.249,0.2548,0.097,-0.3063,-5.3463,-4.7512,1.4468585225104915,-18.108725936547412,-6.017275699998256,4.897999999993772
-0.3145,0.9936,0.0276,0.249,0.2548,0.097,-0.3063,-5.3463,-4.2613,1.4923013143452732,-17.883093420503602,-6.097470199995144,4.91299999999319
-0.3134,0.9955,0.0224,0.249,0.2558,0.0929,-0.0787,-4.7075,-4.2613,1.409488276883827,-17.71427653934208,-6.097470199995144,4.91299999999319
-0.3098,1.0002,0.0237,0.249,0.2558,0.0929,-0.5337,-4.5937,-4.5675,1.3996639557106882,-17.572253147531917,-6.170969400010118,4.928999999996449
-0.3068,0.997,0.0284,0.249,0.2558,0.0929,-0.7613,-4.1213,-4.4625,1.400764381366679,-17.415818134718197,-6.170969400010118,4.928999999996449
-0.3048,0.9912,0.0291,0.2478,0.2565,0.0927,-0.7613,-4.1213,-4.4625,1.40209662182423,-17.307084065285576,-6.2369102000235515,4.944999999999709
-0.3048,0.9912,0.0259,0.2478,0.2565,0.0927,-1.2163,-3.3688,-4.2263,1.4314962761719352,-17.214559406629245,-6.2369102000235515,4.944999999999709
-0.3119,0.9908,0.0259,0.2478,0.2543,0.0958,-0.7788,-3.0712,-4.1388,1.4323249279833365,-17.328499510268166,-6.282978199999418,4.959999999991851
-0.3154,0.9898,0.0247,0.2478,0.2543,0.0958,0.245,-2.17,-4.6725,1.4309011365707387,-17.40345718453698,-6.282978199999418,4.959999999991851
-0.312,0.9914,0.0272,0.2478,0.2543,0.0958,0.245,-2.17,-4.6725,1.5016225118111028,-17.416542179157396,-6.317698200006491,4.975999999995111
-0.3101,0.9941,0.0231,0.2487,0.2549,0.1004,0.7962,-1.4963,-4.5237,1.3976807987706594,-17.387603126090912,-6.317698200006491,4.975999999995111
-0.3101,0.9981,0.0223,0.2487,0.2549,0.1004,1.0063,-0.9975,-4.3837,1.32239356300827,-17.339589687766036,-6.332660700005911,4.9909999999945285
-0.3101,0.9981,0.0223,0.2488,0.2545,0.0964,1.575,0.1663,-4.1125,1.2926292032953242,-17.30113614020287,-6.332660700005911,4.9909999999945285
-0.3063,1.0006,0.0192,0.2488,0.2545,0.0964,1.575,0.1663,-4.1125,1.1571536031667935,-17.17137615381943,-6.329999900005369,5.006999999997788
-0.3069,1.0024,0.0206,0.2488,0.2545,0.0964,1.0325,0.1925,-4.1125,1.1701020832605864,-17.101899988231995,-6.329999900005369,5.006999999997788
-0.3082,1.0021,0.016,0.2486,0.2558,0.1122,0.7437,0.4025,-4.5675,1.0164835433894528,-17.09954122707369,-6.3235599000040565,5.023000000001048
-0.309,1.0019,0.0194,0.2486,0.2558,0.1122,0.9275,0.7788,-4.8738,1.0748361283071166,-17.10237125861567,-6.3235599000040565,5.023000000001048
-0.309,1.0019,0.0194,0.2488,0.2551,0.0982,0.9275,0.7788,-4.8738,1.0964998205714471,-17.10499013778672,-6.311877900010177,5.03799999999319
-0.3084,1.0011,0.0199,0.2488,0.2551,0.0982,0.1225,0.9538,-5.3025,1.1163940582956364,-17.10856807839902,-6.311877900010177,5.03799999999319
-0.3101,0.9968,0.0188,0.2488,0.2548,0.101,-0.28,0.105,-5.3463,1.1046506475025966,-17.156212396669595,-6.310197900009834,5.053999999996449
-0.3124,0.9955,0.0217,0.2474,0.2548,0.101,-0.28,0.105,-4.83,1.1517800238708367,-17.185248144494132,-6.310197900009834,5.053999999996449
-0.3156,0.9947,0.021,0.2474,0.2548,0.101,-0.8313,0.2537,-4.83,1.155311235926053,-17.231099009553446,-6.306392400009982,5.068999999995867
-0.3142,0.9911,0.0214,0.2498,0.2552,0.089,-0.455,0.875,-4.7863,1.174680534454961,-17.282163288047148,-6.306392400009982,5.068999999995867
-0.3142,0.9911,0.0214,0.2498,0.2552,0.089,-0.7437,0.4812,-4.9,1.1760427419660477,-17.297840817128456,-6.2986932000084135,5.084999999999127
-0.3141,0.9909,0.0231,0.2492,0.2531,0.0903,-0.7437,0.4812,-4.9,1.1795299464919764,-17.312577004117692,-6.2986932000084135,5.084999999999127
-0.3109,0.9919,0.0218,0.2492,0.2531,0.0903,-0.7788,0.0787,-5.0312,1.1805297621686899,-17.318743892003972,-6.297434000008157,5.1010000000023865
-0.3151,0.9933,0.0234,0.2492,0.2531,0.0903,-0.8487,0.035,-5.3637,1.1934278704320984,-17.399196082766984,-6.297434000008157,5.1010000000023865
-0.3166,0.9947,0.0229,0.2502,0.2536,0.0955,-0.42,0.0525,-5.4075,1.2256684193708403,-17.477773543597387,-6.29664650000857,5.1159999999945285
-0.3166,0.9947,0.0229,0.2502,0.2536,0.0955,-0.42,0.0525,-5.4075,1.2496201044581556,-17.53185029048512,-6.29664650000857,5.1159999999945285
-0.3136,0.9943,0.0181,0.2489,0.255,0.0947,-0.7,-0.21,-5.4513,1.236808271564842,-17.522086320122135,-6.300006500009254,5.131999999997788
-0.3212,1.0144,0.0199,0.2489,0.255,0.0947,-0.8925,-0.7175,-5.1887,1.224130231100559,-17.530557671892158,-6.300006500009254,5.131999999997788
-0.3234,0.9867,0.0223,0.2489,0.255,0.0947,-1.0412,-2.03,-5.3288,1.239356522474491,-17.697303422554196,-6.330456500008073,5.146999999997206
-0.3179,0.9944,0.0265,0.247,0.2552,0.0854,-1.0412,-2.03,-5.3288,1.3013190150111278,-17.70421425844124,-6.330456500008073,5.146999999997206
-0.3192,1.0006,0.0212,0.247,0.2552,0.0854,-0.8313,-2.59,-5.2937,1.2959570118419423,-17.70046331063604,-6.371896500016516,5.163000000000466
-0.3192,1.0006,0.0212,0.2488,0.2551,0.096,-1.575,-2.7387,-5.145,1.259199726909016,-17.69869362118023,-6.371896500016516,5.163000000000466
-0.3189,0.9991,0.0255,0.2488,0.2551,0.096,-2.275,-3.1325,-5.2937,1.3811934599058147,-17.698269047269353,-6.422016500003934,5.178999999996449
-0.3167,1.0026,0.0272,0.2488,0.2551,0.096,-2.275,-3.1325,-5.2937,1.4851370952329883,-17.654163883626147,-6.422016500003934,5.178999999996449
-0.313,0.999,0.0282,0.2507,0.2565,0.0931,-2.73,-3.7713,-6.2825,1.5724637765239797,-17.50344561073226,-6.478586000001739,5.193999999995867
-0.3178,0.9934,0.0286,0.2507,0.2565,0.0931,-2.5988,-4.3925,-6.7375,1.6220402305543045,-17.650633196277933,-6.478586000001739,5.193999999995867
-0.3178,0.9934,0.0286,0.2499,0.2553,0.1016,-2.8525,-4.41,-7.0087,1.6403264396113246,-17.706153567665883,-6.549146000016114,5.209999999999127
-0.3186,0.9889,0.0298,0.2499,0.2553,0.1016,-2.8525,-4.41,-7.0087,1.698280369459988,-17.802980241741366,-6.549146000016114,5.209999999999127
-0.3199,0.988,0.029,0.2499,0.2553,0.0973,-2.8,-4.935,-7.455,1.6868807161990316,-17.89654939628301,-6.623171000013241,5.224999999998545
-0.3169,0.9882,0.0295,0.2497,0.2548,0.0973,-2.0912,-4.9612,-7.2362,1.7000000907886679,-17.810507664014608,-6.623171000013241,5.224999999998545
-0.3162,0.9877,0.0248,0.2497,0.2548,0.0973,-2.0912,-4.9612,-7.2362,1.5508688041792709,-17.766063471674038,-6.702550199993316,5.2409999999945285
-0.3126,0.9873,0.0307,0.2509,0.2557,0.1021,-1.0675,-5.425,-7.0262,1.604178693917995,-17.627703119215028,-6.7893502000109995,5.256999999997788
-0.3126,0.9873,0.0307,0.2509,0.2557,0.1021,-1.0237,-5.5563,-6.755,1.6404083702419952,-17.584765958095595,-6.794906500032345,5.25800000000163
-0.3091,0.9923,0.032,0.2482,0.2587,0.1008,-0.07,-4.8387,-6.5625,1.7252150067033023,-17.405044133091348,-6.794906500032345,5.25800000000163
-0.3062,0.9934,0.0271,0.2482,0.2587,0.1008,-0.07,-4.8387,-6.5625,1.6584958450669862,-17.232435723610955,-6.867486999994322,5.272999999993772
-0.3068,0.9989,0.0289,0.2482,0.2587,0.1008,-0.2362,-4.1213,-6.6675,1.658050211375203,-17.127963191683296,-6.933427800007756,5.288999999997031
-0.3099,0.9972,0.0322,0.2498,0.2584,0.0894,-0.3237,-3.4125,-6.0462,1.7167551233599871,-17.19438648530498,-6.933427800007756,5.288999999997031
-0.3099,0.9972,0.0322,0.2498,0.2584,0.0894,-0.0613,-2.7387,-6.3,1.771617279316473,-17.22928816808263,-6.974508300006162,5.303999999996449
-0.3103,0.9947,0.0296,0.2498,0.2558,0.0982,-0.0613,-2.7387,-6.3,1.7438656334616693,-17.280338940176502,-6.974508300006162,5.303999999996449
-0.3141,0.9919,0.0256,0.2498,0.2558,0.0982,-0.4288,-2.2662,-6.3,1.676919162856601,-17.444030135383528,-7.010767500013549,5.319999999999709
-0.3165,0.9918,0.0246,0.2498,0.2558,0.0982,-0.3675,-1.8463,-5.845,1.6039406985004312,-17.56161709869406,-7.010767500013549,5.319999999999709
-0.3165,0.9917,0.0281,0.2502,0.2546,0.0905,0.0,-1.2425,-5.9675,1.612230629147592,-17.628122361030382,-7.030647500017599,5.336000000002969
-0.3165,0.9941,0.0289,0.2502,0.2546,0.0905,0.0,-1.2425,-5.9675,1.6352099595448084,-17.64082225956697,-7.030647500017599,5.336000000002969
-0.3166,0.9941,0.0289,0.2495,0.2558,0.0978,0.0787,-1.2163,-6.0025,1.6489461505828409,-17.64991437189205,-7.048892000008041,5.350999999995111
-0.3146,0.9944,0.0301,0.2495,0.2558,0.0978,0.2013,-1.0762,-5.7663,1.690662297297541,-17.604406072148212,-7.048892000008041,5.350999999995111
-0.317,0.9981,0.0271,0.2495,0.2558,0.0978,-0.385,-0.7262,-5.4862,1.6533099532042834,-17.607715046213016,-7.060511200010408,5.36699999999837
-0.3162,0.9979,0.0306,0.2497,0.2577,0.096,-0.385,-0.7262,-5.4862,1.6817519833770636,-17.59596055657401,-7.060511200010408,5.36699999999837
-0.3142,0.9941,0.03,0.2497,0.2577,0.096,-0.14,0.1575,-5.4687,1.699770221856357,-17.574380579018644,-7.0581487000105,5.381999999997788
-0.3142,0.9941,0.03,0.2497,0.2571,0.0908,0.0263,0.4812,-5.1275,1.7124932751563506,-17.56818956842055,-7.0581487000105,5.381999999997788
-0.3152,0.9958,0.0316,0.2497,0.2571,0.0908,0.0263,0.4812,-4.6287,1.758946763598621,-17.56514985718981,-7.050449500008932,5.398000000001048
-0.3155,0.9953,0.0317,0.2497,0.2571,0.0908,0.1312,0.63,-4.6287,1.789823891882998,-17.56873017844669,-7.050449500008932,5.398000000001048
-0.3168,0.9948,0.0295,0.2498,0.2566,0.1015,0.2275,1.1725,-4.55,1.7443406321832178,-17.594179811768015,-7.03168950001364,5.413999999997031
-0.3185,0.9939,0.0256,0.2498,0.2566,0.1015,0.4375,1.1812,-4.585,1.5974741035095414,-17.639663766872555,-7.03168950001364,5.413999999997031
-0.3185,0.9934,0.0238,0.2499,0.2552,0.0989,0.4375,1.1812,-4.585,1.474560960000427,-17.675338533414664,-7.013971500014328,5.428999999996449
-0.3207,0.9934,0.0238,0.2499,0.2552,0.0989,0.7962,1.4787,-5.25,1.4122937821300383,-17.723596556676792,-7.013971500014328,5.428999999996449
-0.3231,0.9956,0.0264,0.2501,0.2559,0.0934,1.1113,1.26,-5.1363,1.481874554754295,-17.762096585956886,-6.993811500010221,5.444999999999709
-0.3234,0.9962,0.0238,0.2501,0.2559,0.0934,0.3237,1.47,-5.0138,1.4227944116347842,-17.77432993131651,-6.993811500010221,5.444999999999709
-0.3262,0.9977,0.0201,0.2501,0.2559,0.0934,0.3237,1.47,-5.0138,1.2826992231769925,-17.792684592048357,-6.971761500021772,5.459999999991851
-0.3271,0.9981,0.0193,0.2518,0.2561,0.0903,0.315,0.8225,-4.8825,1.1918303786528455,-17.816122130547654,-6.971761500021772,5.459999999991851
-0.3271,0.9981,0.0193,0.2518,0.2561,0.0903,0.6212,0.6475,-4.9963,1.1429851972853688,-17.829218151022072,-6.961401500019662,5.475999999995111
-0.3273,0.9993,0.0195,0.2499,0.2563,0.0929,-0.1138,-0.07,-5.1975,1.133085637955299,-17.888407156176303,-6.961401500019662,5.475999999995111
-0.328,0.9978,0.018,0.2499,0.2563,0.0929,-0.1138,-0.07,-5.1975,1.0937665712352955,-17.948188479027632,-6.96252150001938,5.491999999991094
-0.3284,0.9983,0.0167,0.2499,0.2563,0.0929,0.0613,-0.5775,-5.215,1.032468156001964,-18.001629217293768,-6.96252150001938,5.491999999991094
-0.3292,0.9995,0.0204,0.2489,0.2579,0.0987,-0.2362,-1.6013,-5.0838,1.0798444423400064,-18.027390264968833,-6.986541000030099,5.506999999997788
-0.3292,0.9967,0.0198,0.2489,0.2579,0.0987,-0.28,-2.0738,-4.8825,1.0988866552200098,-18.043971793164825,-6.986541000030099,5.506999999997788
-0.3253,0.9967,0.0198,0.2498,0.2558,0.0965,-0.28,-2.0738,-4.8825,1.1117004958435106,-18.04586325561063,-7.0197218000368595,5.523000000001048
-0.3228,0.9961,0.0182,0.2498,0.2558,0.0965,-0.9275,-2.065,-4.7512,1.1026726042779882,-18.03014994037257,-7.0197218000368595,5.523000000001048
-0.3224,0.9959,0.0236,0.2498,0.2558,0.0965,-1.1025,-2.5725,-4.9437,1.166821134707443,-18.029123861504097,-7.058309300016645,5.53799999999319
-0.3185,0.9928,0.0238,0.2504,0.2565,0.103,-1.1988,-2.7387,-4.97,1.2291744288707933,-18.02533387395126,-7.058309300016645,5.53799999999319
-0.319,0.9905,0.0235,0.2504,0.2565,0.103,-1.1988,-2.7387,-4.97,1.2684192974073532,-18.022598457258308,-7.102128500025572,5.553999999996449
-0.319,0.9905,0.0235,0.2494,0.255,0.1024,-1.2775,-2.555,-5.3463,1.2991068510318844,-17.973144967843467,-7.102128500025572,5.553999999996449
-0.3162,0.9909,0.0264,0.2494,0.255,0.1024,-1.1113,-2.2662,-5.53,1.3573711481667556,-17.87051169661989,-7.1383877000164695,5.569999999992433
-0.3166,0.9927,0.0249,0.2494,0.255,0.1024,-1.1113,-2.2662,-5.0662,1.3777694435366463,-17.851733675436762,-7.1383877000164695,5.569999999992433
-0.3143,0.9948,0.0245,0.2512,0.2575,0.0946,-1.0325,-2.5463,-5.0662,1.384718253446549,-17.819244379500226,-7.176582200033514,5.584999999999127
-0.3236,1.0011,0.0231,0.2512,0.2575,0.0946,-0.8575,-3.0888,-4.83,1.3794509847722527,-17.829140614300037,-7.176582200033514,5.584999999999127
-0.3236,0.9985,0.0288,0.2485,0.2582,0.0969,-0.9187,-2.415,-4.515,1.4155608920665534,-17.865976764868897,-7.215222200041386,5.6010000000023865
-0.3267,0.9985,0.0288,0.2485,0.2582,0.0969,-0.9187,-2.415,-4.515,1.4468890563357844,-17.940648923983908,-7.215222200041386,5.6010000000023865
-0.3249,0.9977,0.0319,0.251,0.2562,0.0978,-1.435,-2.9575,-3.3863,1.6009767834432147,-17.994701296858242,-7.259584700018146,5.6159999999945285
-0.3185,0.9993,0.032,0.251,0.2562,0.0978,-2.8,-3.4825,-2.5287,1.7572765024904262,-17.764633595004472,-7.259584700018146,5.6159999999945285
-0.3218,1.0014,0.0321,0.251,0.2562,0.0978,-3.115,-3.1675,-2.0387,1.8124891632641442,-17.79561931644346,-7.310264700028471,5.631999999997788
-0.3256,0.998,0.0303,0.2483,0.2567,0.0961,-3.115,-3.1675,-2.0387,1.760948962867147,-17.993423270841856,-7.360944700015749,5.647999999993772
-0.3256,0.998,0.0303,0.2483,0.2567,0.0961,-3.6137,-3.2113,-1.855,1.7447097227097408,-18.04471488491107,-7.360944700015749,5.647999999993772
-0.3312,0.9942,0.0325,0.2492,0.2562,0.0995,-3.43,-3.85,-2.0912,1.8374835061091808,-18.319449331602495,-7.418694700041521,5.663000000000466
-0.3285,0.9892,0.0305,0.2492,0.2562,0.0995,-3.08,-4.1737,-2.4325,1.7875992583098395,-18.350270356235498,-7.418694700041521,5.663000000000466
-0.3286,0.9889,0.0309,0.2492,0.2562,0.0995,-3.08,-4.1737,-2.4325,1.789086844113304,-18.366320192632216,-7.489647600040792,5.680000000000291
-0.3243,0.9866,0.0301,0.2487,0.2547,0.0928,-3.08,-4.7337,-3.0538,1.7600382454861427,-18.249495551699233,-7.489647600040792,5.680000000000291
-0.3243,0.9861,0.0358,0.2487,0.2547,0.0928,-1.645,-4.6375,-3.3075,1.9093317291755758,-18.214565764575347,-7.55921010000435,5.694999999992433
-0.32,0.9861,0.0358,0.2491,0.2545,0.0991,-0.7525,-4.62,-2.9575,1.9116051737275948,-18.050090232083402,-7.55921010000435,5.694999999992433
-0.3159,0.988,0.0348,0.2491,0.2545,0.0991,-0.7525,-4.62,-2.9575,1.9130195237667864,-17.830604215354704,-7.633130100019409,5.710999999995693
-0.3131,0.9916,0.0341,0.2491,0.2545,0.0991,-0.42,-4.0163,-3.2025,1.9275559574641048,-17.62899294189964,-7.633130100019409,5.710999999995693
-0.308,0.9935,0.0338,0.2481,0.2544,0.0986,-0.1575,-3.99,-3.5175,1.9354857556549883,-17.384797616570236,-7.696970100003384,5.726999999991676
-0.3076,0.9947,0.0329,0.2481,0.2544,0.0986,-0.1575,-3.1325,-3.395,1.9199359664805513,-17.256853399618485,-7.696970100003384,5.726999999991676
-0.3076,0.9947,0.0329,0.2487,0.2554,0.0955,-0.1575,-3.1325,-3.395,1.9102691022210578,-17.206864000838305,-7.743957600024352,5.74199999999837
-0.3105,0.9967,0.0317,0.2487,0.2554,0.0955,-0.5075,-2.1175,-3.15,1.892068035222961,-17.2636065483351,-7.743957600024352,5.74199999999837
-0.3106,0.9977,0.0289,0.2487,0.2554,0.0955,0.0263,-1.33,-3.4913,1.7891227207025062,-17.27654286613424,-7.765237600028687,5.75800000000163
-0.3111,0.9975,0.031,0.2479,0.2562,0.106,0.0263,-1.33,-3.4913,1.7851108930254924,-17.29866292058307,-7.765237600028687,5.75800000000163
-0.3118,0.9956,0.0301,0.2479,0.2562,0.106,-0.0437,-1.085,-3.815,1.7627090426407905,-17.343017198386576,-7.781512600020161,5.772999999993772
-0.3118,0.9956,0.0246,0.247,0.2544,0.0946,-0.2887,-0.98,-4.3663,1.650492245935781,-17.35835024987017,-7.781512600020161,5.772999999993772
-0.3126,0.996,0.0246,0.247,0.2544,0.0946,-0.6212,-1.0237,-4.69,1.6206750582301266,-17.371192123548564,-7.797891800023498,5.788999999997031
-0.3112,0.9972,0.0285,0.2478,0.2555,0.0995,-0.6212,-1.0237,-4.69,1.62274948697538,-17.36155814434189,-7.797891800023498,5.788999999997031
-0.3096,0.9948,0.0257,0.2478,0.2555,0.0995,0.0088,-0.3675,-5.2762,1.5603712994708892,-17.342111858587664,-7.803771800022022,5.804999999993015
-0.309,0.9975,0.0228,0.2478,0.2555,0.0995,-0.105,-0.6737,-4.6813,1.4604864525728356,-17.313215183476245,-7.803771800022022,5.804999999993015
-0.3077,0.9997,0.0244,0.248,0.2556,0.1025,-0.105,-0.5075,-4.6375,1.435681546169739,-17.26266602473568,-7.811384300025419,5.819999999999709
-0.3077,0.9997,0.0244,0.248,0.2556,0.1025,-0.105,-0.5075,-4.6375,1.4207484210542427,-17.224281847981338,-7.811384300025419,5.819999999999709
-0.3081,0.9931,0.029,0.2482,0.2553,0.1021,-1.1287,-0.5075,-5.145,1.4877854419268568,-17.225054040825412,-7.819504300027074,5.836000000002969
-0.3086,0.9938,0.0243,0.2482,0.2553,0.1021,-0.5775,-0.0263,-5.3637,1.4739684435136826,-17.23114856225614,-7.819504300027074,5.836000000002969
-0.3129,0.9956,0.026,0.2482,0.2553,0.1021,-0.56,-0.2362,-5.1275,1.4777214109483532,-17.262176506259596,-7.823047300025218,5.850999999995111
-0.3065,0.9923,0.0269,0.2461,0.2554,0.0976,-0.56,-0.2362,-5.1275,1.4905553248594334,-17.246932443676762,-7.823047300025218,5.850999999995111
-0.3065,0.9923,0.0278,0.2461,0.2554,0.0976,-0.5163,-0.035,-5.18,1.5133797159832296,-17.230646832217143,-7.823607300025332,5.86699999999837
-0.3027,0.993,0.0278,0.248,0.2544,0.0983,-0.91,-0.2187,-5.3288,1.5247356109053716,-17.153310840574704,-7.823607300025332,5.86699999999837
-0.3058,0.999,0.0282,0.248,0.2544,0.0983,-1.4,-0.1225,-6.0813,1.5605048018026781,-17.079120982106605,-7.82556730002484,5.882999999994354
-0.3055,1.002,0.0265,0.248,0.2544,0.0983,-1.4,-0.1225,-6.0813,1.542832147581747,-17.01090223495287,-7.82556730002484,5.882999999994354
-0.3068,0.9958,0.0296,0.249,0.2549,0.1002,-1.6625,0.4462,-6.3612,1.6183567491273436,-17.072702512399072,-7.818874300021853,5.898000000001048
-0.3146,0.9929,0.0275,0.249,0.2549,0.1002,-1.8813,0.8925,-6.65,1.601558173258806,-17.388319725779205,-7.818874300021853,5.898000000001048
-0.3146,0.9929,0.0275,0.247,0.2548,0.0988,-1.8813,0.8925,-6.7463,1.593616462852989,-17.507788870778572,-7.804594300025437,5.913999999997031
-0.3222,0.9912,0.0304,0.247,0.2548,0.0988,-1.54,0.7875,-6.7463,1.6647688654560135,-17.823301492982306,-7.804594300025437,5.913999999997031
-0.3245,0.9927,0.03,0.247,0.2548,0.0988,-0.6737,-0.5775,-7.0525,1.670367966203401,-18.00671555392869,-7.813256800025101,5.928999999996449
-0.3238,0.9939,0.0302,0.2488,0.257,0.1021,-0.2275,-0.8138,-7.42,1.694888169668423,-18.028379941544134,-7.813256800025101,5.928999999996449
-0.3212,0.9959,0.0282,0.2488,0.257,0.1021,-0.2275,-0.8138,-7.42,1.6693598779376206,-17.914964110271843,-7.826277600027754,5.944999999999709
-0.3212,0.9959,0.0282,0.2484,0.2574,0.0952,-0.4025,-1.3475,-7.6125,1.6567215412785288,-17.881539192248624,-7.826277600027754,5.944999999999709
-0.3203,1.0029,0.0289,0.2484,0.2574,0.0952,-0.5863,-1.5662,-7.6125,1.655789259672228,-17.75342753281583,-7.851336800021463,5.960999999995693
-0.3182,1.0049,0.0296,0.2484,0.2567,0.0952,-0.9187,-1.085,-7.3675,1.659948408220658,-17.618906517547934,-7.851336800021463,5.960999999995693
-0.321,1.0039,0.029,0.2511,0.2567,0.0952,-0.9187,-1.085,-7.3675,1.6592484341648481,-17.693845131637424,-7.867611800020832,5.975999999995111
-0.3245,0.9989,0.0339,0.2511,0.2567,0.0952,-2.0038,-1.3038,-7.385,1.8165950793593704,-17.901603683807934,-7.867611800020832,5.975999999995111
-0.3239,0.9955,0.0381,0.2507,0.2575,0.096,-2.31,-2.0038,-7.4988,2.044290082461668,-17.979917423124608,-7.899672600012784,5.991999999991094
-0.3239,0.9955,0.0381,0.2507,0.2575,0.096,-2.5812,-1.8288,-7.1838,2.13937998197175,-18.001165601811618,-7.899672600012784,5.991999999991094
-0.3232,0.9914,0.0377,0.2522,0.2563,0.0982,-2.5812,-1.8288,-7.1838,2.1641131040812156,-18.03070917061034,-7.927104600025026,6.006999999997788
-0.326,0.9884,0.0392,0.2522,0.2563,0.0982,-2.3363,-2.3363,-6.8075,2.2295134872200495,-18.166974178865974,-7.927104600025026,6.006999999997788
-0.3252,0.9881,0.0414,0.2522,0.2563,0.0982,-1.4787,-2.2838,-6.7288,2.3001246023450603,-18.18957475975012,-7.963645400032471,6.023000000001048
-0.322,0.9889,0.0379,0.2502,0.2573,0.095,-1.2687,-2.0038,-6.1512,2.264896721002381,-18.099162497704036,-7.995706200024423,6.038999999997031
-0.322,0.9889,0.0379,0.2502,0.2573,0.095,-1.2687,-2.0038,-6.1512,2.2414526345896686,-18.058005645336454,-7.995706200024423,6.038999999997031
-0.3206,0.9852,0.0356,0.2501,0.2567,0.1022,-0.91,-1.9338,-5.5388,2.2198132500877485,-18.042043417804425,-8.024713200023298,6.053999999996449
-0.3245,0.9872,0.0374,0.2501,0.2567,0.1022,-0.3237,-2.4237,-5.5738,2.204415822398328,-18.096298150111238,-8.024713200023298,6.053999999996449
-0.3237,0.9915,0.0406,0.2501,0.2567,0.1022,-0.3237,-2.0563,-5.5825,2.2474834643487043,-18.084769085051473,-8.05761400001504,6.069999999992433
-0.3192,0.9901,0.0361,0.2511,0.259,0.1027,-0.2275,-2.0563,-5.5825,2.191704235752484,-17.997201046562108,-8.05761400001504,6.069999999992433
-0.3212,0.9954,0.033,0.2511,0.259,0.1027,-0.0875,-1.575,-5.3288,2.0732979052790736,-17.96388221807936,-8.081239000025583,6.084999999999127
-0.3212,0.9954,0.033,0.2507,0.2566,0.1004,-0.525,-1.3913,-5.1363,2.0394038205596168,-17.950186568909135,-8.081239000025583,6.084999999999127
-0.3197,0.9969,0.0381,0.2507,0.2566,0.1004,-0.525,-1.3913,-5.1363,2.0684017610705885,-17.922240977408467,-8.103499800030118,6.1010000000023865
-0.3199,0.9976,0.0335,0.2507,0.2566,0.1004,-0.455,-1.295,-4.76,2.0339754854885013,-17.89747259665373,-8.103499800030118,6.1010000000023865
-0.3224,0.9969,0.0331,0.2515,0.2573,0.0953,-0.4988,-1.0762,-4.69,2.006076324236542,-17.90053157888632,-8.120719000025796,6.11699999999837
-0.3191,0.9955,0.0334,0.2515,0.2573,0.0953,-0.2275,-0.9975,-4.725,1.9765089292878686,-17.874958502354303,-8.120719000025796,6.11699999999837
-0.3191,0.9955,0.0334,0.2506,0.258,0.0978,-0.2275,-0.9975,-4.725,1.9572914274396067,-17.854157693089487,-8.135681500025216,6.131999999997788
-0.3179,0.9958,0.0384,0.2506,0.258,0.0978,-0.1312,-0.8575,-4.8913,2.0547822014208226,-17.84458101886927,-8.135681500025216,6.131999999997788
-0.3177,0.9977,0.0327,0.2506,0.258,0.1046,-0.3325,-0.2013,-4.795,2.0010802417610107,-17.818412268474198,-8.138902300024407,6.147999999993772
-0.316,0.9977,0.0346,0.2511,0.2572,0.1046,-0.5075,-0.0875,-4.7512,1.9980248303836006,-17.77553755293658,-8.138902300024407,6.147999999993772
-0.3167,0.9953,0.0373,0.2511,0.2572,0.1046,-0.5075,-0.0875,-4.7512,2.0284708062646404,-17.752513810351306,-8.140214800024992,6.163000000000466
-0.3217,0.989,0.0364,0.2505,0.2601,0.1063,-0.2713,0.105,-4.6375,2.054732448514643,-17.813797452773258,-8.140214800024992,6.163000000000466
-0.3217,0.989,0.0364,0.2505,0.2601,0.1063,-0.3675,0.4725,-4.2613,2.0698589785944663,-17.892957967866252,-8.13265480002689,6.178999999996449
-0.3267,0.9911,0.0303,0.2474,0.2573,0.0998,-0.4812,0.245,-4.6725,1.9991887509157715,-17.96840295452357,-8.13265480002689,6.178999999996449
-0.3259,0.9921,0.0341,0.2474,0.2573,0.0998,-0.4812,0.245,-4.6725,1.9924000669157624,-18.013854600050013,-8.128734800026091,6.194999999999709
-0.3211,0.9932,0.0346,0.2474,0.2573,0.0998,-0.4638,-0.35,-5.0662,1.993049940879999,-18.00298830211564,-8.128734800026091,6.194999999999709
-0.3219,0.993,0.0346,0.2489,0.2574,0.1122,0.0875,-0.3938,-5.2413,1.994224921130251,-17.991377165481257,-8.134641800025863,6.209999999999127
-0.3219,0.993,0.0346,0.2489,0.2574,0.1122,0.28,-0.7613,-4.9612,1.994928694625949,-17.991104873672903,-8.134641800025863,6.209999999999127
-0.3233,0.9952,0.031,0.2491,0.2573,0.0986,0.28,-0.7613,-4.9612,1.8871711652056264,-17.991088753756888,-8.146822600022805,6.225999999995111
-0.3209,0.9966,0.0337,0.2491,0.2573,0.0986,-0.14,-1.1113,-4.7775,1.906247305558336,-17.968185993012693,-8.146822600022805,6.225999999995111
-0.3213,0.9966,0.0356,0.2491,0.2573,0.0986,-0.3588,-1.1988,-4.8212,1.946639562534671,-17.9552855865709,-8.164804600030829,6.241000000001804
-0.319,0.9972,0.0322,0.2513,0.2579,0.0949,-0.3588,-1.1988,-4.7162,1.9185160893619646,-17.912055401442505,-8.164804600030829,6.241000000001804
-0.3196,0.9941,0.0307,0.2513,0.2579,0.0949,-0.3237,-1.1375,-4.7162,1.8726166939422835,-17.893282116651466,-8.183004600017984,6.256999999990512
-0.3196,0.9941,0.0307,0.2504,0.2578,0.1006,-0.9013,-1.4963,-4.69,1.860256487358784,-17.876801960453253,-8.183004600017984,6.256999999990512
-0.3201,0.9945,0.0343,0.2504,0.2578,0.1006,-0.9538,-1.6275,-4.5413,1.87844521790301,-17.863673085307223,-8.21067210002954,6.2739999999976135
-0.3158,0.9936,0.0355,0.2504,0.2578,0.1006,-0.9538,-1.6275,-4.5413,1.9049655816965316,-17.792869765163363,-8.21067210002954,6.2739999999976135
-0.3162,0.9925,0.0334,0.2489,0.2586,0.1042,-0.6737,-1.3038,-4.6287,1.9068636197303694,-17.760703792430593,-8.230229100028781,6.288999999997031
-0.3143,0.9962,0.0331,0.2489,0.2586,0.1042,-0.9712,-1.365,-4.7162,1.9062101130241507,-17.71080771290707,-8.230229100028781,6.288999999997031
-0.3143,0.9962,0.0331,0.2493,0.2578,0.0925,-0.91,-1.3038,-4.4187,1.905809269541685,-17.637743458541458,-8.251089900023544,6.304999999993015
-0.3123,0.9953,0.042,0.2493,0.2578,0.0925,-0.91,-1.3038,-4.4187,1.9700477354892911,-17.556896604322482,-8.251089900023544,6.304999999993015
-0.3118,0.9952,0.0368,0.2493,0.2578,0.1033,-0.9187,-0.8487,-4.4187,1.9895987247430378,-17.49686557376679,-8.263820400029225,6.319999999999709
-0.3124,0.9959,0.0357,0.2502,0.2581,0.1033,-1.1812,-0.595,-4.1038,2.00819802990888,-17.454830146786502,-8.263820400029225,6.319999999999709
-0.3145,0.9901,0.0364,0.2502,0.2581,0.1033,-1.4088,-0.245,-4.2263,2.0462571997847903,-17.520635687497034,-8.267740400028242,6.335999999995693
-0.3187,0.9907,0.0404,0.251,0.2551,0.0945,-1.4088,-0.245,-4.2263,2.15930267711268,-17.646214195298207,-8.267740400028242,6.335999999995693
-0.3187,0.9907,0.0404,0.251,0.2551,0.0945,-1.2075,-0.1575,-4.0075,2.2131659744626964,-17.73009740009284,-8.270260400028755,6.351999999998952
-0.3151,0.992,0.0351,0.2498,0.2586,0.1046,-0.98,0.3237,-4.0338,2.1802615046408302,-17.67332088408785,-8.270260400028755,6.351999999998952
-0.3163,0.9914,0.033,0.2498,0.2586,0.1046,-0.7962,0.6037,-3.3338,2.1722520786777015,-17.68102284332968,-8.261204900029107,6.36699999999837
-0.3201,0.991,0.0342,0.2498,0.2586,0.1046,-0.7962,0.6037,-3.3338,2.1665266310819162,-17.81078364477999,-8.251545700031532,6.382999999994354
-0.3192,0.9921,0.0355,0.2485,0.2578,0.1083,-0.1663,0.5337,-3.3425,2.122585749528606,-17.819227855170524,-8.251545700031532,6.382999999994354
-0.3192,0.9921,0.0355,0.2485,0.2578,0.1083,-0.5688,0.4112,-3.3775,2.1105146032729203,-17.822433557175444,-8.24537770002878,6.398000000001048
-0.3202,0.9942,0.0334,0.251,0.2566,0.101,-0.3762,0.6037,-3.8763,2.0582296198422685,-17.832927586799702,-8.24537770002878,6.398000000001048
-0.3187,0.9953,0.0344,0.251,0.2566,0.101,-0.3762,0.6037,-3.8763,2.0361438431896266,-17.78751493077389,-8.235718500031204,6.413999999997031
-0.3174,0.9972,0.0352,0.251,0.2566,0.101,-0.4462,0.5688,-3.64,2.0326276609314506,-17.706865519566215,-8.235718500031204,6.413999999997031
-0.3162,0.9969,0.0328,0.2494,0.2572,0.0991,-0.5863,0.9363,-3.5,2.0100515898835796,-17.637155260882952,-8.220737700028153,6.430000000000291
-0.3162,0.9978,0.0318,0.2494,0.2572,0.0991,-0.5863,0.9363,-3.5,1.9819162257104679,-17.60025729574818,-8.220737700028153,6.430000000000291
-0.3195,0.9978,0.0318,0.2479,0.2555,0.0977,-0.595,1.0237,-3.745,1.9590535364186765,-17.68050249477846,-8.205382200028748,6.444999999999709
-0.3187,0.9963,0.0357,0.2479,0.2555,0.0977,0.2362,0.7875,-4.1388,2.0056682737356724,-17.70181967924187,-8.205382200028748,6.444999999999709
-0.32,0.9955,0.0336,0.2479,0.2555,0.0977,-0.2537,0.6475,-3.9288,1.981085523984423,-17.75675616062238,-8.195022200031348,6.460999999995693
-0.3189,0.996,0.0325,0.2502,0.2553,0.0938,-0.2537,0.6475,-3.9288,1.9430883297903023,-17.750911197632437,-8.195022200031348,6.460999999995693
-0.3207,0.9974,0.0315,0.2502,0.2553,0.0938,-0.0875,0.3762,-4.235,1.888850548616378,-17.778206265964354,-8.18937920002883,6.4760000000023865
-0.3207,0.9974,0.0315,0.2502,0.2547,0.0982,-0.56,0.1575,-4.48,1.875193870108653,-17.79041423938311,-8.18937920002883,6.4760000000023865
-0.3197,0.9938,0.0343,0.2502,0.2547,0.0982,-0.56,-0.21,-4.6813,1.8925406112615495,-17.797352970089968,-8.192739200026459,6.491999999991094
-0.3185,0.995,0.0306,0.2502,0.2547,0.0982,-0.56,-0.21,-4.6813,1.870152295171717,-17.785485076440196,-8.192739200026459,6.491999999991094
-0.3179,0.993,0.0278,0.2494,0.2555,0.09,-0.7613,-0.7437,-4.8125,1.868888085398973,-17.78051326330644,-8.204638400028884,6.507999999994354
-0.3179,0.9933,0.0329,0.2494,0.2555,0.09,-1.0938,-0.9013,-5.1625,1.8758401124526909,-17.773166332222406,-8.204638400028884,6.507999999994354
-0.3179,0.9933,0.0356,0.2471,0.258,0.0974,-0.7262,-1.2775,-5.0312,1.8826170341983988,-17.770537833272247,-8.22380090002814,6.522999999993772
-0.3159,0.9933,0.0356,0.2471,0.258,0.0974,-0.7262,-1.2775,-5.0312,1.8891341448123709,-17.760635137485004,-8.22380090002814,6.522999999993772
-0.3183,0.9945,0.0314,0.2512,0.2563,0.0974,-0.8138,-1.4525,-5.075,1.885457614177491,-17.758363354877982,-8.249945900033467,6.540999999997439
-0.3157,0.9947,0.0344,0.2512,0.2563,0.0974,-1.0938,-1.505,-4.6375,1.9089638221898524,-17.7199241376583,-8.249945900033467,6.540999999997439
-0.3127,0.993,0.0337,0.2512,0.2563,0.0974,-1.0237,-1.2687,-4.8825,1.9160865241506848,-17.703153742056923,-8.268976400032729,6.555999999996857
-0.3152,0.9948,0.03,0.2491,0.2559,0.0969,-1.0237,-1.2687,-4.8825,1.877419569901741,-17.69443265919101,-8.268976400032729,6.555999999996857
-0.3152,0.9948,0.03,0.2491,0.2559,0.0969,-0.6737,-1.0412,-5.4425,1.8647290109632064,-17.65466417728036,-8.285635600028547,6.5719999999928405
-0.3165,0.9981,0.0337,0.249,0.2561,0.0958,-1.0412,-1.0938,-6.0813,1.8796342596958304,-17.617515157284963,-8.285635600028547,6.5719999999928405
-0.3138,0.9952,0.0362,0.249,0.2561,0.0958,-1.0412,-1.0938,-6.2125,1.9235557577814568,-17.546418473885414,-8.303136400032113,6.5879999999961
-0.3157,0.9944,0.0346,0.249,0.2561,0.0958,-1.1725,-1.4262,-6.2125,1.9435644063241648,-17.57821961666426,-8.303136400032113,6.5879999999961
-0.3154,0.9956,0.0368,0.2498,0.2572,0.0988,-0.805,-1.6975,-6.4662,1.9500578756996019,-17.571241817606516,-8.328598900043476,6.603000000002794
-0.3154,0.9942,0.0336,0.2498,0.2572,0.0988,-0.5075,-1.505,-6.3525,1.9470942381879892,-17.583160483621477,-8.328598900043476,6.603000000002794
-0.3172,0.9942,0.0336,0.2494,0.2562,0.0974,-0.5075,-1.505,-6.3525,1.9447394649686165,-17.643023179300098,-8.352678900026481,6.618999999991502
-0.3195,0.9914,0.035,0.2494,0.2562,0.0974,-0.875,-1.2687,-6.72,1.9523199869022012,-17.776588730438455,-8.352678900026481,6.618999999991502
-0.3187,0.9916,0.0361,0.2494,0.2562,0.0974,-0.3588,-1.0938,-6.2125,1.9907116315094742,-17.79316565481195,-8.369085900033802,6.633999999998196
-0.3203,0.9954,0.0339,0.2502,0.2572,0.1019,-0.21,-1.4875,-5.6962,1.9763593769442114,-17.807773171854116,-8.369085900033802,6.633999999998196
-0.3169,0.9945,0.0367,0.2502,0.2572,0.1019,-0.21,-1.4875,-5.6962,2.025340359224299,-17.746262806479407,-8.392885900027828,6.649999999994179
-0.3169,0.9945,0.0367,0.2498,0.2571,0.0935,-0.1225,-1.715,-5.6875,2.0598314629638694,-17.711187000966557,-8.392885900027828,6.649999999994179
-0.3151,0.9922,0.0361,0.2498,0.2571,0.0935,-0.4288,-1.6275,-5.0575,2.0658559527622806,-17.701519447955057,-8.418925900033132,6.665999999997439
-0.318,0.9934,0.0314,0.2498,0.2571,0.0935,-0.315,-1.5838,-4.9088,1.9864587712092412,-17.70329573164447,-8.418925900033132,6.665999999997439
-0.3152,0.9942,0.0358,0.2514,0.255,0.094,-0.315,-1.5838,-4.9088,2.010022993538586,-17.69791320215733,-8.44268290003221,6.680999999996857
-0.3142,0.9943,0.036,0.2514,0.255,0.094,-0.3413,-1.505,-5.4862,2.0289673289766403,-17.638168729326487,-8.44268290003221,6.680999999996857
-0.3142,0.9927,0.032,0.2505,0.2566,0.0953,-0.4375,-1.7237,-5.53,1.9837941598492352,-17.607629171114013,-8.470262100025288,6.6969999999928405
-0.3144,0.9927,0.032,0.2505,0.2566,0.0953,-0.6737,-1.7237,-6.4837,1.972168920554153,-17.581888794961746,-8.470262100025288,6.6969999999928405
-0.3163,0.9942,0.0321,0.251,0.2561,0.1046,-0.6737,-1.7237,-6.4837,1.9617780761388122,-17.61678244257212,-8.496117600036825,6.711999999999534
-0.3143,0.9907,0.0304,0.251,0.2561,0.1046,-0.4288,-1.6363,-6.65,1.9102809268024656,-17.602377861516967,-8.496117600036825,6.711999999999534
-0.3179,0.9917,0.0362,0.251,0.2561,0.1046,-0.175,-1.6975,-6.1863,1.977244800237723,-17.69087813385039,-8.523277600030008,6.727999999995518
-0.3199,0.9928,0.0338,0.2491,0.2583,0.0956,0.0175,-1.7413,-6.3175,1.9652266338957445,-17.78283208949187,-8.523277600030008,6.727999999995518
-0.3199,0.9928,0.0338,0.2491,0.2583,0.0956,0.0175,-1.7413,-6.3175,1.958488354324381,-17.821744960842643,-8.551138400035684,6.743999999998778
-0.3176,0.9936,0.0345,0.2496,0.2593,0.0956,0.5075,-1.8725,-6.3875,1.975376969325999,-17.75960808545485,-8.551138400035684,6.743999999998778
-0.3194,0.9956,0.0308,0.2496,0.2593,0.0956,-0.1488,-1.8988,-5.7225,1.8977321623912358,-17.767976734663673,-8.57962040003458,6.758999999998196
-0.3237,0.9971,0.0326,0.2496,0.2593,0.0956,-0.1488,-1.8988,-5.5912,1.8881429054665935,-17.849136944974614,-8.57962040003458,6.758999999998196
-0.3249,0.9939,0.0337,0.25,0.2578,0.1016,-0.0263,-2.0387,-5.5912,1.911032584536932,-17.943831460850124,-8.612239600026392,6.774999999994179
-0.3249,0.9956,0.0321,0.25,0.2578,0.1016,-0.1575,-2.3888,-6.0462,1.8866873250866405,-18.006857499867213,-8.612239600026392,6.774999999994179
-0.3259,0.9956,0.0321,0.2502,0.2561,0.0986,-0.0437,-2.4762,-6.4225,1.869909387482457,-18.07211052721699,-8.649382600042967,6.790000000000873
-0.3248,0.9982,0.0302,0.2502,0.2561,0.0986,-0.0437,-2.4762,-6.4225,1.8124573261941461,-18.038994060157922,-8.649382600042967,6.790000000000873
-0.3201,0.9966,0.035,0.2502,0.2561,0.0986,-0.7875,-2.6775,-6.2475,1.8166312932979602,-17.902153092525346,-8.692222600032213,6.805999999996857
-0.322,0.9947,0.0319,0.2518,0.2576,0.107,-1.2513,-2.8525,-6.0113,1.8232350346640074,-17.91592410584039,-8.737862600041511,6.822000000000116
-0.3235,0.9967,0.0329,0.2518,0.2576,0.107,-0.91,-3.2462,-6.1425,1.831709367982092,-17.94679163038703,-8.737862600041511,6.822000000000116
-0.3235,0.9967,0.0329,0.253,0.2576,0.0925,-0.91,-3.2462,-6.1425,1.8391174293895542,-17.96089880347798,-8.786555600016003,6.836999999992258
-0.3188,0.9997,0.0347,0.253,0.2576,0.0925,-1.1025,-3.3688,-6.1687,1.8765875882420995,-17.805363773889532,-8.786555600016003,6.836999999992258
-0.319,0.9961,0.0372,0.253,0.2576,0.0925,-1.4612,-3.0187,-6.3,1.9840958099525339,-17.77131840802849,-8.834854800025843,6.852999999995518
-0.3212,0.9889,0.0362,0.2503,0.2594,0.0999,-0.9887,-3.29,-6.2038,2.004555192773503,-17.888784716705143,-8.834854800025843,6.852999999995518
-0.3246,0.9896,0.0354,0.2503,0.2594,0.0999,-0.9887,-3.29,-6.2038,2.012596002126706,-18.033443824833576,-8.884204800047867,6.868000000002212
-0.3246,0.9902,0.0366,0.2498,0.2572,0.0966,-0.2975,-3.1063,-6.1775,2.0458488514306294,-18.09108852559349,-8.884204800047867,6.868000000002212
-0.3239,0.9902,0.0366,0.2498,0.2572,0.0966,0.0437,-2.4588,-6.1075,2.0776026148681868,-18.096749150429552,-8.923545600037992,6.883999999998196
-0.3223,0.991,0.0343,0.2513,0.2587,0.0995,0.5075,-2.5113,-6.1863,2.0242186657118917,-18.046572979733398,-8.923545600037992,6.883999999998196
-0.3193,0.9957,0.0331,0.2513,0.2587,0.0995,0.5075,-2.5113,-6.1863,1.9568650904898242,-17.894334830173605,-8.963726400027905,6.899999999994179
-0.3176,0.9981,0.0344,0.2513,0.2587,0.0995,0.35,-2.415,-5.7838,1.9658736966257409,-17.77970133286928,-8.963726400027905,6.899999999994179
-0.3187,0.9963,0.0337,0.249,0.2566,0.0944,0.1138,-2.1175,-5.7137,1.9524998063877126,-17.75786959512049,-8.995488900026674,6.914999999993597
-0.3187,0.9963,0.0337,0.249,0.2566,0.0944,-2.1263,-2.4588,-5.5475,1.9437398935977048,-17.747165182900304,-8.995488900026674,6.914999999993597
-0.3211,0.9986,0.0282,0.2504,0.257,0.092,-0.5688,-2.4588,-5.5475,1.8899999652811723,-17.773740264302113,-9.034829700034688,6.930999999996857
-0.3236,0.9989,0.0303,0.2504,0.257,0.092,-0.315,-1.925,-4.6813,1.8425768302200836,-17.809909901227503,-9.034829700034688,6.930999999996857
-0.3297,0.9983,0.0323,0.2504,0.257,0.092,-0.3325,-1.9162,-4.4625,1.8457771892993855,-17.96078050052141,-9.063572700047516,6.946000000003551
-0.3259,0.9944,0.0342,0.2517,0.2574,0.0888,-0.3325,-1.9162,-6.7025,1.8832787399999185,-18.072097323514924,-9.063572700047516,6.946000000003551
-0.3259,0.9952,0.0338,0.2517,0.2574,0.0888,-0.6475,-1.715,-4.5675,1.889841240256995,-18.08613090088033,-9.09101270002815,6.961999999992258
-0.3201,0.9952,0.0338,0.2505,0.2604,0.1004,-1.33,-2.3537,-4.2613,1.9097993323774332,-17.977365424999224,-9.09101270002815,6.961999999992258
