AcclX,AcclY,AcclZ,MagX,MagY,MagZ,GyroX,GyroY,GyroZ,Roll,Pitch,Yaw,Time Elapsed(s)
-0.1609,1.016,-0.078,0.1806,0.191,0.0686,-7.5163,-2.6075,-15.7325,0,0,0,0.0
-0.1644,1.0221,-0.0784,0.1806,0.191,0.0686,-8.2338,-5.0575,-16.3188,0,0,0,0.0
-0.1677,1.0235,-0.0717,0.1843,0.1922,0.0695,-8.82,-6.5887,-16.8263,0,0,0,0.015000000006693881
-0.1833,1.0194,-0.0688,0.1843,0.1922,0.0695,-9.1875,-8.6012,-17.71,0,0,0,0.031000000002677552
-0.176,1.0194,-0.0688,0.1842,0.193,0.0662,-9.1875,-8.6012,-17.71,0,0,0,0.031000000002677552
-0.1781,1.0178,-0.0658,0.1842,0.193,0.0662,-9.3713,-9.7037,-17.8325,0,0,0,0.04700000000593718
-0.1802,1.016,-0.065,0.1842,0.193,0.0662,-8.6187,-11.27,-18.1213,0,0,0,0.04700000000593718
-0.1768,1.0136,-0.0607,0.1862,0.194,0.0669,-7.8313,-12.25,-17.6138,0,0,0,0.06199999999807915
-0.1713,1.0083,-0.0603,0.1862,0.194,0.0669,-7.8313,-12.25,-17.6138,0,0,0,0.06199999999807915
-0.1713,1.0083,-0.0603,0.1877,0.1936,0.0726,-6.755,-12.53,-16.555,0,0,0,0.07800000000133878
-0.1681,1.0042,-0.0592,0.1877,0.1936,0.0726,-5.3725,-12.7575,-15.6275,0,0,0,0.07800000000133878
-0.1627,1.0077,-0.0619,0.1877,0.1936,0.0726,-3.9113,-11.9963,-14.175,0,0,0,0.09300000000803266
-0.1615,1.0122,-0.0635,0.1888,0.1965,0.0758,-3.9113,-11.9963,-14.175,0,0,0,0.09300000000803266
-0.1599,1.0171,-0.063,0.1888,0.1965,0.0758,-3.4037,-11.4012,-13.23,0,0,0,0.10900000000401633
-0.1599,1.0182,-0.0661,0.1894,0.1968,0.0694,-2.345,-10.8413,-12.6175,0,0,0,0.10900000000401633
-0.1686,1.0182,-0.0661,0.1894,0.1968,0.0694,-1.5137,-10.5262,-12.53,0,0,0,0.12500000000727596
-0.1732,1.0228,-0.0706,0.1903,0.1965,0.0757,-1.5137,-10.5262,-12.53,0,0,0,0.12500000000727596
-0.1679,1.025,-0.0667,0.1903,0.1965,0.0757,-1.1025,-10.6225,-12.6438,0,0,0,0.13999999999941792
-0.1637,1.0302,-0.0693,0.1903,0.1965,0.0757,-0.7613,-10.395,-12.4862,0,0,0,0.13999999999941792
-0.1574,1.0336,-0.0671,0.192,0.1978,0.0822,-0.7613,-10.395,-11.7688,0,0,0,0.15600000000267755
-0.1574,1.0336,-0.0671,0.192,0.1978,0.0822,-1.05,-10.0712,-11.7688,0,0,0,0.15600000000267755
-0.1547,1.0271,-0.0676,0.192,0.198,0.0724,-0.315,-9.4237,-11.4625,0,0,0,0.17100000000209548
-0.1588,1.0249,-0.0731,0.192,0.198,0.0724,0.2362,-8.3737,-11.0425,0,0,0,0.17100000000209548
-0.163,1.0285,-0.0733,0.192,0.198,0.0724,0.2362,-8.3737,-11.0425,0,0,0,0.1870000000053551
-0.1668,1.0255,-0.0758,0.1913,0.1992,0.069,0.735,-7.6825,-10.4038,0,0,0,0.1870000000053551
-0.1668,1.025,-0.0762,0.1913,0.1992,0.069,1.4262,-7.175,-9.3363,0,0,0,0.20300000000861473
-0.1653,1.025,-0.0762,0.1928,0.1984,0.0778,1.5838,-6.93,-8.7762,0,0,0,0.20300000000861473
-0.1695,1.0228,-0.0783,0.1928,0.1984,0.0778,1.5838,-6.93,-8.7762,0,0,0,0.2180000000007567
-0.172,1.0241,-0.0823,0.1928,0.1984,0.0778,2.7825,-6.6588,-9.4062,0,0,0,0.2180000000007567
-0.1679,1.0287,-0.0831,0.1935,0.1997,0.08,2.94,-7.0262,-8.715,0,0,0,0.23400000000401633
-0.1618,1.0311,-0.0761,0.1935,0.1997,0.08,2.59,-6.8338,-8.6363,0,0,0,0.23400000000401633
-0.1618,1.0311,-0.0761,0.1934,0.1998,0.0799,2.59,-6.8338,-8.6363,0,0,0,0.24900000000343425
-0.162,1.032,-0.0788,0.1934,0.1998,0.0799,1.9425,-6.5275,-8.2075,0,0,0,0.24900000000343425
-0.1632,1.0325,-0.0825,0.1934,0.1998,0.0799,1.5488,-6.2562,-8.155,0,0,0,0.2650000000066939
-0.1613,1.0267,-0.0804,0.1955,0.199,0.07,0.7962,-6.6238,-8.085,0,0,0,0.28100000000267755
-0.1568,1.0227,-0.0811,0.1955,0.199,0.07,0.7962,-6.6238,-8.085,0,0,0,0.28100000000267755
-0.1568,1.015,-0.0828,0.1942,0.2014,0.0811,-0.3762,-6.685,-8.1375,0,0,0,0.2960000000020955
-0.151,1.015,-0.0828,0.1942,0.2014,0.0811,-1.0588,-6.335,-7.8575,0,0,0,0.2960000000020955
-0.1491,1.0125,-0.0878,0.1947,0.2001,0.0731,-1.96,-6.3963,-8.1375,0,0,0,0.3120000000053551
-0.1465,1.0069,-0.0897,0.1947,0.2001,0.0731,-1.96,-6.3963,-8.1375,0,0,0,0.3120000000053551
-0.1435,0.9943,-0.0952,0.1947,0.2001,0.0731,-1.6975,-6.7463,-8.6363,0,0,0,0.32699999999749707
-0.1386,0.992,-0.0973,0.1948,0.2015,0.0759,-1.54,-7.0175,-9.2137,0,0,0,0.32699999999749707
-0.1386,0.992,-0.0973,0.1948,0.2015,0.0759,-1.54,-7.0175,-9.6425,0,0,0,0.3430000000007567
-0.1336,0.9953,-0.0968,0.1962,0.1998,0.0843,-0.9187,-7.9012,-9.6425,0,0,0,0.3430000000007567
-0.1182,0.9975,-0.0987,0.1962,0.1998,0.0843,-0.5512,-8.3038,-10.2987,0,0,0,0.35900000000401633
-0.1129,0.9973,-0.0987,0.1962,0.1998,0.0843,0.105,-8.5225,-10.675,0,0,0,0.35900000000401633
-0.1042,1.0003,-0.099,0.1961,0.2015,0.0816,0.105,-8.5225,-10.675,0,0,0,0.37400000000343425
-0.1042,1.0038,-0.0991,0.1961,0.2015,0.0816,0.2362,-8.0937,-10.2987,0,0,0,0.37400000000343425
-0.1049,1.0038,-0.0991,0.1974,0.2006,0.0798,0.6737,-7.455,-10.4213,0,0,0,0.3900000000066939
-0.1075,1.0055,-0.101,0.1974,0.2006,0.0798,1.3125,-6.9563,-10.9113,0,0,0,0.3900000000066939
-0.1155,1.004,-0.0989,0.1974,0.2006,0.0798,1.3125,-6.9563,-10.9113,0,0,0,0.40499999999883585
-0.1187,1.0069,-0.0981,0.1998,0.2017,0.0784,1.68,-6.6062,-11.5063,0,0,0,0.40499999999883585
-0.1254,1.0147,-0.0946,0.1998,0.2017,0.0784,1.9512,-6.86,-11.7338,0,0,0,0.4210000000020955
-0.1254,1.0147,-0.0946,0.1991,0.203,0.0802,1.9512,-7.1312,-11.9263,0,0,0,0.4210000000020955
-0.1305,1.0157,-0.0917,0.1991,0.203,0.0802,1.9512,-7.1312,-11.9263,0,0,0,0.4370000000053551
-0.1368,1.0256,-0.0912,0.1991,0.203,0.0802,1.3563,-6.6325,-13.0463,0,0,0,0.4370000000053551
-0.138,1.0305,-0.0818,0.1986,0.2046,0.0821,0.6913,-6.5188,-13.8075,0,0,0,0.45200000000477303
-0.1418,1.0353,-0.0767,0.1986,0.2046,0.0821,-0.0613,-6.6588,-14.7,0,0,0,0.45200000000477303
-0.1418,1.0353,-0.0772,0.2015,0.2066,0.0728,-0.0613,-6.6588,-14.7,0,0,0,0.46800000000803266
-0.1496,1.0311,-0.0772,0.2015,0.2066,0.0728,-1.6625,-6.4138,-15.995,0,0,0,0.46800000000803266
-0.1563,1.0266,-0.075,0.2017,0.2063,0.0819,-2.5463,-5.6262,-16.03,0,0,0,0.4830000000001746
-0.1701,1.0252,-0.0761,0.2017,0.2063,0.0819,-2.5463,-5.04,-16.2663,0,0,0,0.4830000000001746
-0.1834,1.0234,-0.0675,0.2017,0.2063,0.0819,-3.3775,-5.04,-16.2663,0,0,0,0.49900000000343425
-0.1916,1.0208,-0.0681,0.2026,0.2059,0.0759,-3.6837,-4.62,-15.1112,0,0,0,0.49900000000343425
-0.1916,1.0208,-0.0681,0.2026,0.2059,0.0759,-3.71,-4.4187,-14.3588,0,0,0,0.5149999999994179
-0.1993,1.0144,-0.0705,0.2035,0.2084,0.0846,-3.71,-4.4187,-14.3588,0,0,0,0.5149999999994179
-0.2037,1.02,-0.0643,0.2035,0.2084,0.0846,-3.6925,-4.4275,-12.915,0,0,0,0.5300000000061118
-0.2092,1.0285,-0.0633,0.2035,0.2084,0.0846,-3.745,-4.41,-11.2613,0,0,0,0.5300000000061118
-0.2137,1.0329,-0.0631,0.2052,0.207,0.0875,-3.675,-4.9875,-9.625,0,0,0,0.5460000000093714
-0.2137,1.0329,-0.0581,0.2052,0.207,0.0875,-3.675,-4.9875,-9.625,0,0,0,0.5460000000093714
-0.2118,1.0393,-0.0581,0.2031,0.2095,0.0858,-4.1213,-4.9088,-8.7238,0,0,0,0.5610000000015134
-0.2051,1.0415,-0.0581,0.2031,0.2095,0.0858,-4.83,-5.2238,-8.0588,0,0,0,0.577000000004773
-0.2071,1.038,-0.0514,0.2031,0.2095,0.0858,-5.985,-5.1975,-7.385,0,0,0,0.577000000004773
-0.2147,1.0296,-0.0474,0.2058,0.2094,0.0886,-5.985,-5.1975,-7.385,0,0,0,0.5930000000007567
-0.2248,1.0216,-0.0528,0.2058,0.2094,0.0886,-6.825,-5.1975,-7.6562,0,0,0,0.5930000000007567
-0.2248,1.0216,-0.0528,0.2046,0.2095,0.0858,-6.37,-4.9175,-7.455,0,0,0,0.6080000000001746
-0.2328,1.0191,-0.0515,0.2046,0.2095,0.0858,-5.9763,-5.67,-7.1225,0,0,0,0.6080000000001746
-0.2382,1.0167,-0.0517,0.2046,0.2095,0.0858,-5.9763,-5.67,-7.1225,0,0,0,0.6240000000034343
-0.2375,1.0091,-0.0503,0.2061,0.2086,0.0914,-5.6525,-6.4662,-7.2713,0,0,0,0.6240000000034343
-0.232,1.0117,-0.0499,0.2061,0.2086,0.0914,-4.4713,-6.65,-7.8663,0,0,0,0.6390000000028522
-0.232,1.0117,-0.0493,0.2056,0.2102,0.0878,-4.1125,-6.965,-7.0788,0,0,0,0.6390000000028522
-0.2246,1.0131,-0.0493,0.2056,0.2102,0.0878,-4.1125,-6.965,-7.0788,0,0,0,0.6550000000061118
-0.2162,1.0116,-0.0448,0.2049,0.2106,0.0893,-3.2113,-6.7463,-5.5388,0,0,0,0.6550000000061118
-0.2168,1.0054,-0.0519,0.2049,0.2106,0.0893,-2.87,-6.7463,-4.7075,0,0,0,0.6550000000061118
-0.2194,1.0044,-0.0496,0.2049,0.2106,0.0893,-2.87,-6.7463,-3.1762,0,0,0,0.6710000000020955
-0.2137,1.005,-0.0485,0.2044,0.2107,0.0848,-3.0975,-6.4662,-3.1762,0,0,0,0.6860000000015134
-0.2137,1.005,-0.0485,0.2044,0.2107,0.0848,-2.135,-6.125,-1.8637,0,0,0,0.6860000000015134
-0.2126,1.0054,-0.0553,0.2047,0.2104,0.0898,-1.8725,-6.58,-1.4088,0,0,0,0.702000000004773
-0.2113,1.0056,-0.0583,0.2047,0.2104,0.0898,-1.8725,-6.58,-1.4088,0,0,0,0.702000000004773
-0.205,1.0019,-0.0584,0.2047,0.2104,0.0898,-1.6625,-6.5625,0.0525,0,0,0,0.717000000004191
-0.2009,0.9981,-0.0542,0.2045,0.2097,0.0874,-1.54,-6.4925,0.5337,0,0,0,0.717000000004191
-0.2009,0.9981,-0.0551,0.2045,0.2097,0.0874,-1.295,-6.2125,0.9187,0,0,0,0.7330000000074506
-0.1914,0.9977,-0.0551,0.2035,0.2076,0.0925,-1.295,-6.2125,0.9187,0,0,0,0.7330000000074506
-0.1795,0.994,-0.0519,0.2035,0.2076,0.0925,-0.525,-6.8863,1.2337,0,0,0,0.7490000000034343
-0.1675,0.99,-0.0507,0.2035,0.2076,0.0925,-0.3675,-6.51,1.7763,0,0,0,0.7490000000034343
-0.1571,0.9919,-0.0412,0.2009,0.2081,0.0909,-0.21,-5.53,1.89,0,0,0,0.7640000000028522
-0.1516,0.9955,-0.043,0.2009,0.2081,0.0909,-0.21,-5.53,1.89,0,0,0,0.7640000000028522
-0.1516,0.9955,-0.043,0.2006,0.2066,0.0926,-0.4725,-4.1125,2.2225,0,0,0,0.7799999999988358
-0.1446,1.0021,-0.0375,0.2006,0.2066,0.0926,-0.3063,-2.3537,1.5313,0,0,0,0.7799999999988358
-0.1397,1.0013,-0.0409,0.2006,0.2066,0.0926,-0.8225,-0.9712,0.595,0,0,0,0.7950000000055297
-0.1375,0.9964,-0.0434,0.2016,0.2061,0.0926,-0.8225,-0.9712,0.595,-1.1602203683593169,-7.085202975427912,0.0,0.7950000000055297
-0.1469,0.9861,-0.0396,0.2016,0.2061,0.0926,0.2887,0.8838,0.0525,-1.9174315040182626,-8.32434525257942,0.05567939999526716,0.8580000000001746
-0.1469,0.9861,-0.0396,0.199,0.208,0.0871,2.17,2.8087,0.0962,-2.2210498046518947,-8.451818654900642,0.05567939999526716,0.8580000000001746
-0.1577,0.9892,-0.038,0.199,0.208,0.0871,2.17,2.8087,0.6388,-2.2042726005862137,-8.993260444225916,0.09780990001406825,0.8730000000068685
-0.1619,0.9979,-0.0384,0.199,0.1875,0.0841,3.8763,3.2287,0.6388,-2.2037877572944526,-9.18781957698191,0.09780990001406825,0.8730000000068685
-0.1581,1.0013,-0.0422,0.1979,0.2042,0.0841,4.6287,3.64,0.7875,-2.3846947550802624,-8.986117656783355,0.09780990001406825,0.8730000000068685
-0.1652,1.009,-0.0442,0.1979,0.2042,0.0841,5.9938,4.7512,0.2887,-2.4940529355186736,-9.259120499684588,0.09780990001406825,0.8730000000068685
-0.1655,1.0076,-0.0521,0.199,0.2037,0.086,5.9938,4.7512,0.2887,-2.9063205768308893,-9.309764263648901,0.09780990001406825,0.8730000000068685
-0.1655,1.0076,-0.0521,0.199,0.2037,0.086,7.6388,5.5912,-0.945,-2.954766491119689,-9.314767792822925,0.09780990001406825,0.8730000000068685
-0.162,1.0079,-0.0517,0.1978,0.2037,0.0894,8.4438,5.8713,-2.0912,-2.9380495760182015,-9.145062627638053,0.19175069999048716,0.8890000000028522
-0.1644,1.0075,-0.0566,0.1978,0.2037,0.0894,9.0913,5.67,-3.465,-3.1918816767022458,-9.23585744482428,0.19175069999048716,0.8890000000028522
-0.1709,1.0175,-0.068,0.1978,0.2037,0.0894,9.0913,5.67,-3.465,-3.7698239314773465,-9.4688731182768,0.19175069999048716,0.8890000000028522
-0.1769,1.0229,-0.0662,0.1969,0.2063,0.0922,9.135,6.1425,-4.2525,-3.7085601408694218,-9.732047951077249,0.19175069999048716,0.8890000000028522
-0.1769,1.0229,-0.0662,0.1969,0.2063,0.0922,9.4937,5.9237,-5.2675,-3.7033662158717178,-9.778067213359675,0.28652989996669564,0.9049999999988358
-0.1809,1.022,-0.0718,0.1989,0.2054,0.0856,9.31,5.1188,-6.2125,-3.9924069994195124,-9.945499624978215,0.28652989996669564,0.9049999999988358
-0.1845,1.0176,-0.0791,0.1989,0.2054,0.0856,9.31,5.1188,-6.2125,-4.407083273976786,-10.159418642664077,0.36843069998338107,0.9210000000020955
-0.1906,1.0175,-0.0823,0.1989,0.2054,0.0856,9.6337,4.8125,-5.8362,-4.606654203840281,-10.467461263980821,0.36843069998338107,0.9210000000020955
-0.1906,1.017,-0.0865,0.2002,0.2049,0.0776,9.6075,4.2438,-5.2325,-4.840816645819437,-10.552773734587918,0.4363314999972143,0.9370000000053551
-0.1947,1.0253,-0.0906,0.2002,0.2049,0.0776,9.625,3.605,-4.0687,-5.032824212768837,-10.683121343788711,0.4363314999972143,0.9370000000053551
-0.1947,1.0253,-0.0906,0.1994,0.2024,0.0778,9.625,3.605,-4.0687,-5.048412601902161,-10.706378706293119,0.49040649999511593,0.952000000004773
-0.1888,1.0275,-0.0944,0.1994,0.2024,0.0778,9.2662,2.7825,-3.4037,-5.232434088008657,-10.422869424841641,0.49040649999511593,0.952000000004773
-0.1851,1.0384,-0.0961,0.1994,0.2024,0.0778,9.345,3.1675,-2.9925,-5.282876912164523,-10.118546552170185,0.5410865000054408,0.9680000000080327
-0.1794,1.0455,-0.1016,0.1987,0.203,0.0788,9.0037,2.4762,-3.4388,-5.52760274105369,-9.760350872860847,0.5410865000054408,0.9680000000080327
-0.179,1.0394,-0.1047,0.1987,0.203,0.0788,9.0037,2.4762,-3.4388,-5.732877816108543,-9.729052116260652,0.5807056999954956,0.9840000000040163
-0.179,1.0394,-0.1047,0.1963,0.2037,0.083,8.12,2.4938,-4.1737,-5.750294517782534,-9.724160004316152,0.5807056999954956,0.9840000000040163
-0.1748,1.0336,-0.1001,0.1963,0.2037,0.083,7.7787,3.0187,-4.9175,-5.5524989864479615,-9.590591963261264,0.6259861999937385,0.9990000000034343
-0.1685,1.0227,-0.1016,0.1963,0.2037,0.0625,7.7787,3.0187,-4.725,-5.66187754224583,-9.367478717374532,0.6259861999937385,0.9990000000034343
-0.163,1.0,-0.0973,0.1966,0.2057,0.0803,7.385,3.6662,-4.725,-5.567754604919273,-9.245837467698067,0.6846453999790139,1.014999999999418
-0.1684,0.9859,-0.0988,0.1966,0.2057,0.0803,7.8225,3.9813,-3.885,-5.707942630638529,-9.576583367873866,0.6846453999790139,1.014999999999418
-0.1684,0.9894,-0.0939,0.1947,0.2038,0.0673,9.17,5.6087,-1.1375,-5.445624350053016,-9.612276217641863,0.7687759000165578,1.0300000000061118
-0.1714,0.9894,-0.0939,0.1947,0.2038,0.0673,9.17,5.6087,-1.1375,-5.4235108235466205,-9.764811815338097,0.8585151000348401,1.0460000000093714
-0.1752,0.993,-0.0845,0.1954,0.2008,0.0651,10.85,7.3763,2.8612,-4.905227690840639,-9.954271147566,0.8585151000348401,1.0460000000093714
-0.1808,1.0038,-0.0891,0.1954,0.2008,0.0651,13.0025,8.715,7.5338,-5.061780855647591,-10.15862751077242,0.9979550999998378,1.062000000005355
-0.1837,1.0096,-0.0878,0.1954,0.2008,0.0651,14.3938,9.975,12.18,-4.975588673669525,-10.269091686573553,0.9979550999998378,1.062000000005355
-0.1825,1.0178,-0.0908,0.1938,0.1986,0.065,14.3938,9.975,12.18,-5.090813593785041,-10.132741388767663,1.1475800999940315,1.077000000004773
-0.1825,1.0178,-0.0908,0.1938,0.1986,0.065,15.2425,11.4187,15.5312,-5.09757719564571,-10.126462253311496,1.1475800999940315,1.077000000004773
-0.1768,1.0188,-0.0941,0.1904,0.1957,0.067,16.3625,12.1012,17.5438,-5.267650355466474,-9.815852160500953,1.3411992999454292,1.0930000000007567
-0.1731,1.0307,-0.1017,0.1904,0.1957,0.067,16.5287,12.4687,18.9613,-5.616058880568464,-9.499728129081223,1.4284802000085715,1.1000000000058208
-0.1705,1.0394,-0.1071,0.1904,0.1957,0.067,16.5287,12.4687,18.9613,-5.869119212699045,-9.275562292928363,1.4284802000085715,1.1000000000058208
-0.1562,1.0395,-0.1089,0.1898,0.1952,0.0664,15.2775,12.3813,18.585,-5.974395781099304,-8.527212698637632,1.6141997000013646,1.1150000000052387
-0.1562,1.0344,-0.1182,0.1898,0.1952,0.0664,13.72,11.8912,17.255,-6.485690106497184,-8.532203339149776,1.6141997000013646,1.1150000000052387
-0.1511,1.0344,-0.1182,0.1842,0.1938,0.0604,12.6613,11.1213,15.3737,-6.516703761881646,-8.26867343389386,1.7921404999566979,1.1310000000012224
-0.1401,1.0274,-0.1255,0.1842,0.1938,0.0604,12.6613,11.1213,15.3737,-6.935193714340243,-7.730926715752328,1.7921404999566979,1.1310000000012224
-0.1365,1.0266,-0.1296,0.1842,0.1938,0.0604,11.6812,10.6488,13.09,-7.17698994021652,-7.524341166011383,1.962521299991409,1.147000000004482
-0.1372,1.0256,-0.1385,0.1814,0.1913,0.0506,10.9987,9.3363,11.3225,-7.653328414642968,-7.550472047125407,1.962521299991409,1.147000000004482
-0.1326,1.0233,-0.138,0.1814,0.1913,0.0506,10.9987,8.015,9.9137,-7.678465985221701,-7.329654741800544,2.090761299959218,1.1630000000004657
-0.1326,1.0233,-0.138,0.1809,0.1899,0.0561,9.5638,8.015,9.9137,-7.68028510672496,-7.3183810603567,2.090761299959218,1.1630000000004657
-0.1273,1.0225,-0.1377,0.1809,0.1899,0.0561,8.7937,6.2475,7.98,-7.670780090763647,-7.050002120038201,2.1907212999795824,1.1790000000037253
-0.1218,1.0232,-0.1424,0.1809,0.1899,0.0561,7.8837,4.865,5.8275,-7.899181433882875,-6.7452589378790995,2.1907212999795824,1.1790000000037253
-0.1184,1.0254,-0.1466,0.1786,0.1886,0.0535,7.8837,4.865,3.5875,-8.113934368860097,-6.53780406929109,2.2636962999767505,1.1940000000031432
-0.1199,1.0296,-0.1465,0.1786,0.1886,0.0535,6.79,3.4825,3.29,-8.099821339721103,-6.573693421159265,2.2636962999767505,1.1940000000031432
-0.1199,1.0332,-0.1447,0.1769,0.1884,0.0487,5.2238,2.2313,0.4462,-7.988530098935841,-6.5577399413886015,2.2993970999677886,1.2099999999991269
-0.1176,1.0332,-0.1447,0.1769,0.1884,0.0487,3.9288,0.735,-2.31,-7.974868907287763,-6.4484657569678525,2.2993970999677886,1.2099999999991269
-0.1144,1.0347,-0.1483,0.1779,0.1898,0.0496,3.9288,0.735,-2.31,-8.129033031726445,-6.27339217924557,2.3111570999701843,1.2260000000023865
-0.1125,1.0333,-0.1444,0.1779,0.1898,0.0496,3.2987,-0.2975,-5.2937,-7.984349976551374,-6.181444024799467,2.3111570999701843,1.2260000000023865
-0.1128,1.0257,-0.1466,0.1779,0.1898,0.0496,2.0475,-0.945,-7.8488,-8.102437117640424,-6.19578040612328,2.296982099970734,1.2410000000018044
-0.1181,1.0166,-0.1502,0.1776,0.1895,0.0526,0.8225,-1.4612,-9.8437,-8.31856031507865,-6.389977222097846,2.296982099970734,1.2410000000018044
-0.1181,1.0166,-0.1502,0.1776,0.1895,0.0526,0.8225,-1.4612,-9.8437,-8.380049000195125,-6.479451277409828,2.2736028999659714,1.257000000005064
-0.1243,1.0127,-0.1495,0.1786,0.1891,0.051,0.2537,-2.8,-11.06,-8.391672482618167,-6.792215278474335,2.2736028999659714,1.257000000005064
-0.1262,1.01,-0.1435,0.1786,0.1891,0.051,-0.8225,-4.1038,-11.6112,-8.249668601235465,-6.986122642167319,2.21204589996836,1.272000000004482
-0.1274,1.0097,-0.1446,0.1786,0.1891,0.051,-0.8575,-4.2787,-10.8238,-8.204302722783734,-7.07714761891102,2.21204589996836,1.272000000004482
-0.1302,1.0147,-0.1474,0.1784,0.1899,0.0453,-0.8575,-4.2787,-10.8238,-8.232026832162818,-7.186088764933052,2.1435866999855446,1.2880000000004657
-0.1292,1.0186,-0.143,0.1784,0.1899,0.0453,-0.7,-4.5237,-10.4475,-8.112203502919199,-7.169000664824728,2.1435866999855446,1.2880000000004657
-0.1292,1.0186,-0.143,0.1819,0.1898,0.0518,-1.1025,-5.2063,-10.255,-8.067405174086618,-7.1630999320752515,2.060285899968574,1.3040000000037253
-0.1277,1.0178,-0.1423,0.1819,0.1898,0.0518,-1.4525,-6.0287,-10.4475,-8.04643629300393,-7.111975156102895,2.060285899968574,1.3040000000037253
-0.1296,1.0122,-0.1427,0.1819,0.1898,0.0518,-1.4525,-6.0287,-10.4475,-8.042226796446506,-7.184673542973085,1.969855399972083,1.3190000000031432
-0.1284,1.0095,-0.1378,0.1806,0.1917,0.0526,-1.225,-5.7137,-9.7125,-7.956484405200149,-7.18367834310873,1.969855399972083,1.3190000000031432
-0.1275,1.0051,-0.1363,0.1806,0.1917,0.0526,-0.7613,-5.2325,-9.6163,-7.843756461844002,-7.174440307019002,1.886135399955027,1.3350000000064028
-0.1275,1.0051,-0.1363,0.1823,0.1921,0.0459,-0.7613,-5.1537,-9.5375,-7.785379809121696,-7.169898959311145,1.886135399955027,1.3350000000064028
-0.1252,1.006,-0.1338,0.1823,0.1921,0.0459,-0.3413,-5.1537,-9.5375,-7.665052145944165,-7.106373735830542,1.8088298999580268,1.3500000000058208
-0.1279,1.0108,-0.1315,0.1823,0.1921,0.054,-0.105,-4.725,-8.7413,-7.509965296607079,-7.1092716669031235,1.733229899977004,1.3660000000018044
-0.1301,1.0146,-0.1326,0.1838,0.1926,0.054,0.595,-3.78,-8.4263,-7.46538337953013,-7.13636852799829,1.733229899977004,1.3660000000018044
-0.1298,1.0177,-0.1333,0.1838,0.1926,0.054,0.595,-3.78,-8.4263,-7.46317772886177,-7.150456020234899,1.6727498999646826,1.382000000005064
-0.1353,1.015,-0.1387,0.1836,0.193,0.0602,0.4638,-2.9838,-7.6125,-7.680496656891283,-7.342574223435634,1.6727498999646826,1.382000000005064
-0.1353,1.015,-0.1387,0.1836,0.193,0.0602,0.6737,-2.6775,-7.1312,-7.751343853982349,-7.452440062248004,1.632587399966241,1.397000000004482
-0.1355,1.0106,-0.1386,0.1835,0.1929,0.0509,0.9625,-2.1962,-7.0,-7.793357849598221,-7.523899829259763,1.632587399966241,1.397000000004482
-0.1369,1.0099,-0.1419,0.1835,0.1929,0.0509,0.9625,-2.1962,-7.0,-7.9421599070670315,-7.600100316352551,1.5974481999750616,1.4130000000004657
-0.1365,1.0117,-0.1451,0.1835,0.1929,0.0509,1.5575,-1.8988,-6.5363,-8.110129119648201,-7.60487614771178,1.5974481999750616,1.4130000000004657
-0.1347,1.0161,-0.1398,0.1827,0.1917,0.0455,2.4413,-2.2313,-6.4662,-7.887667075371214,-7.520144131162767,1.5639786999763603,1.4279999999998836
-0.1347,1.0161,-0.1398,0.1827,0.1917,0.0455,2.8875,-2.2313,-6.0113,-7.843494635082243,-7.492236742516658,1.5639786999763603,1.4279999999998836
-0.1352,1.0187,-0.1371,0.1816,0.1926,0.053,2.8875,-2.2313,-6.0113,-7.696987725664917,-7.492959703864475,1.5282778999690871,1.4440000000031432
-0.1384,1.0211,-0.1415,0.1816,0.1926,0.053,2.7213,-1.5225,-5.145,-7.854001860312048,-7.6127042957192605,1.5282778999690871,1.4440000000031432
-0.1421,1.0315,-0.1382,0.1816,0.1926,0.053,1.9688,-1.61,-4.375,-7.678861711420744,-7.744461192003621,1.502517899963839,1.4600000000064028
-0.1399,1.0326,-0.1372,0.1816,0.1935,0.055,1.3212,-1.6363,-4.0862,-7.595977252085047,-7.666266959126572,1.502517899963839,1.4600000000064028
-0.1414,1.0356,-0.1398,0.1816,0.1935,0.055,1.3212,-1.6363,-4.0862,-7.665163371551078,-7.69888410887803,1.4779733999766973,1.4749999999985448
-0.1414,1.0356,-0.1398,0.1832,0.1929,0.0526,0.77,-0.875,-4.83,-7.681490877593531,-7.704526621898022,1.4779733999766973,1.4749999999985448
-0.1454,1.0391,-0.1351,0.1832,0.1929,0.0526,0.315,-1.0588,-5.7575,-7.4988301201746195,-7.85005575160305,1.461032599973246,1.4910000000018044
-0.1505,1.0372,-0.1388,0.1832,0.1929,0.0526,-0.6037,-1.1463,-6.9563,-7.56310251336396,-8.061194846389421,1.461032599973246,1.4910000000018044
-0.157,1.0314,-0.14,0.1838,0.1914,0.0652,-0.6037,-1.1463,-6.9563,-7.650072974608645,-8.387574371387851,1.4438380999739133,1.5060000000012224
-0.158,1.0222,-0.1418,0.1838,0.1914,0.0652,-2.0387,-2.205,-7.7263,-7.713773887913238,-8.54173809372356,1.4438380999739133,1.5060000000012224
-0.158,1.0222,-0.1418,0.1847,0.1935,0.0533,-2.415,-2.94,-7.9713,-7.790927613201404,-8.60888287110013,1.39679809996433,1.522000000004482
-0.1581,1.0126,-0.1385,0.1847,0.1935,0.0533,-0.175,-3.36,-8.155,-7.789400874818382,-8.671911606606391,1.39679809996433,1.522000000004482
-0.156,1.0129,-0.1373,0.1847,0.1935,0.0518,-1.785,-3.36,-8.155,-7.783471059680671,-8.673778499312542,1.3430380999533775,1.5380000000077416
-0.1553,1.0127,-0.1401,0.1838,0.1927,0.0518,-1.5137,-3.185,-7.7875,-7.79756789354969,-8.656747252337587,1.3430380999533775,1.5380000000077416
-0.1534,1.0172,-0.1381,0.1838,0.1927,0.0518,-1.4,-4.0862,-7.7088,-7.78261828228107,-8.579356748820912,1.2817450999854871,1.5529999999998836
-0.1524,1.0189,-0.1377,0.1851,0.1959,0.0518,-1.4,-4.0862,-7.7088,-7.763170870762016,-8.506671870249559,1.2817450999854871,1.5529999999998836
-0.1524,1.0189,-0.1377,0.1851,0.1959,0.0518,-1.2425,-4.1912,-7.5425,-7.742530977060383,-8.466678134753948,1.2146858999718253,1.5690000000031432
-0.1498,1.0224,-0.1372,0.1833,0.1929,0.0559,-1.5575,-4.4275,-7.2275,-7.730715411854413,-8.345996640506412,1.2146858999718253,1.5690000000031432
-0.1457,1.026,-0.1369,0.1833,0.1929,0.0559,-2.0213,-4.1038,-7.525,-7.698391760155507,-8.167648529728869,1.153128899974214,1.5840000000025611
-0.1452,1.0243,-0.1358,0.1833,0.1929,0.0559,-2.0213,-4.1038,-7.525,-7.662189500924675,-8.077584585497384,1.153128899974214,1.5840000000025611
-0.141,1.0175,-0.1427,0.1838,0.1946,0.0507,-2.065,-4.3488,-7.84,-7.749397864232559,-7.957778393242528,1.0835480999600384,1.6000000000058208
-0.141,1.0175,-0.1427,0.1838,0.1946,0.0507,-2.8437,-4.0862,-8.155,-7.874639391310227,-7.908698828594124,1.0835480999600384,1.6000000000058208
-0.1424,1.0114,-0.1377,0.1886,0.1939,0.0556,-2.6862,-4.2263,-7.3412,-7.81402274862036,-7.927694740844029,1.0159272999462623,1.6160000000090804
-0.1467,1.0066,-0.1362,0.1886,0.1939,0.0556,-2.6862,-4.2263,-7.3412,-7.760038551200784,-8.093490231263722,1.0159272999462623,1.6160000000090804
-0.1526,1.0084,-0.141,0.1886,0.1939,0.0556,-2.6862,-4.0425,-6.6238,-7.859612610662874,-8.382508249525477,0.8906097999648513,1.647000000004482
-0.1585,1.011,-0.1397,0.1865,0.1948,0.0494,-2.4938,-3.29,-5.1887,-7.863038148545111,-8.728280209671913,0.8412597999667664,1.6620000000039
-0.1547,1.0086,-0.1339,0.1865,0.1948,0.0494,-2.59,-3.7975,-3.675,-7.720763813410014,-8.659240686987802,0.8412597999667664,1.6620000000039
-0.1547,1.0086,-0.1339,0.1839,0.1943,0.0568,-2.59,-3.7975,-3.675,-7.64579005098476,-8.647730788859755,0.7804997999543879,1.6780000000071595
-0.1521,1.014,-0.1337,0.1839,0.1943,0.0568,-2.7562,-3.9025,-2.59,-7.576490614611977,-8.485323756692061,0.7804997999543879,1.6780000000071595
-0.1463,1.0277,-0.1286,0.1839,0.1943,0.0568,-2.7387,-3.4562,-2.3537,-7.349499348471464,-8.100950205744931,0.7804997999543879,1.6780000000071595
-0.1377,1.0277,-0.1276,0.184,0.1932,0.0663,-3.2025,-3.0975,-2.73,-7.18595921680131,-7.649936049910426,0.7804997999543879,1.6780000000071595
-0.1378,1.0269,-0.1302,0.184,0.1932,0.0663,-3.2025,-3.0975,-2.73,-7.210012301782476,-7.592544609550262,0.7309397999668285,1.6940000000031432
-0.1378,1.0269,-0.1302,0.1843,0.1953,0.0618,-4.2875,-3.2375,-3.675,-7.221509577426774,-7.58449795918421,0.7309397999668285,1.6940000000031432
-0.1368,1.0222,-0.1318,0.1843,0.1953,0.0618,-4.6112,-3.0013,-4.5937,-7.315010403656242,-7.565376227777858,0.6859202999685754,1.7090000000025611
-0.1378,1.023,-0.134,0.1638,0.1936,0.0603,-4.3837,-2.7562,-6.5363,-7.422568407986712,-7.5940416748830355,0.6859202999685754,1.7090000000025611
-0.1384,1.0198,-0.1379,0.1834,0.1936,0.0603,-4.3837,-2.7562,-6.5363,-7.625552110956758,-7.638759303007253,0.6418210999595912,1.7250000000058208
-0.1403,1.0152,-0.1402,0.1834,0.1936,0.0603,-4.6725,-3.2987,-7.42,-7.803238788543777,-7.725848555045221,0.6418210999595912,1.7250000000058208
-0.1387,1.0063,-0.1331,0.1854,0.194,0.0602,-4.3137,-3.955,-8.085,-7.608774607668238,-7.746202211489755,0.5824960999906698,1.7399999999979627
-0.1387,1.0063,-0.1331,0.1854,0.194,0.0602,-4.3137,-3.955,-8.5575,-7.555075320833464,-7.7497922374303005,0.5824960999906698,1.7399999999979627
-0.1394,1.0024,-0.1356,0.1856,0.1939,0.0579,-3.22,-4.06,-8.5575,-7.645045986607083,-7.7598335557894025,0.5175360999774357,1.7560000000012224
-0.1419,1.0094,-0.1338,0.1856,0.1939,0.0579,-2.87,-4.0163,-9.555,-7.5940602277352465,-7.8412648272142,0.5175360999774357,1.7560000000012224
-0.14,1.0183,-0.1309,0.1856,0.1939,0.0579,-2.9838,-4.7512,-10.5787,-7.4424541212306385,-7.791297716317072,0.44151689996194854,1.772000000004482
-0.1417,1.0198,-0.1323,0.1877,0.1938,0.0535,-2.9838,-4.7512,-10.5787,-7.4138905596225415,-7.826919124053579,0.44151689996194854,1.772000000004482
-0.1417,1.0198,-0.1306,0.1877,0.1938,0.0535,-3.1412,-4.9088,-11.6112,-7.345219366005979,-7.842088362703845,0.36788489996480583,1.7870000000039
-0.1511,1.0192,-0.1306,0.1866,0.1971,0.0614,-3.4125,-5.11,-12.5825,-7.317934316755101,-8.258847861233118,0.36788489996480583,1.7870000000039
-0.1537,1.0169,-0.1297,0.1866,0.1971,0.0614,-3.1937,-5.5475,-13.7638,-7.288273336824732,-8.482890275691883,0.27912489994672307,1.8030000000071595
-0.162,1.0129,-0.1279,0.1866,0.1971,0.0614,-3.1937,-5.5475,-13.7638,-7.233317580766048,-8.928754158032044,0.27912489994672307,1.8030000000071595
-0.1646,1.0016,-0.1288,0.1858,0.1981,0.0522,-3.045,-5.8713,-14.3763,-7.287578521634212,-9.208464593406926,0.19105539999285995,1.8179999999993015
-0.1652,0.9969,-0.1235,0.1858,0.1981,0.0522,-2.8963,-6.7638,-14.1575,-7.164379904369635,-9.31892774316803,0.19105539999285995,1.8179999999993015
-0.1652,0.9969,-0.1235,0.1892,0.1988,0.0633,-1.9688,-7.4812,-13.2125,-7.142217620208753,-9.335433475596844,0.071356199968474,1.8340000000025611
-0.1649,1.0026,-0.1193,0.1892,0.1988,0.0633,-1.9688,-7.4812,-13.2125,-7.06501476132017,-9.286456597572815,0.071356199968474,1.8340000000025611
-0.1672,1.0091,-0.1215,0.1892,0.1988,0.0633,-1.645,-8.0325,-11.6025,-7.05600068294226,-9.327656146767247,-0.05716380005770896,1.8500000000058208
-0.1643,1.0146,-0.1205,0.1906,0.1984,0.0668,-1.085,-7.875,-10.5875,-6.949091677195548,-9.201290489128132,-0.05716380005770896,1.8500000000058208
-0.1633,1.0183,-0.1157,0.1906,0.1984,0.0668,-0.735,-7.2625,-9.1175,-6.720728244094731,-9.155803465208207,-0.16610130005348162,1.8650000000052387
-0.1633,1.0183,-0.1193,0.1915,0.198,0.0614,-0.735,-7.2625,-9.1175,-6.701828292058721,-9.12320541551222,-0.16610130005348162,1.8650000000052387
-0.1586,1.0198,-0.1193,0.1915,0.198,0.0614,-0.7437,-7.2013,-8.2688,-6.687475833240082,-9.024632644715831,-0.2813221000769552,1.8810000000084983
-0.1591,1.0183,-0.123,0.1907,0.1992,0.0627,-0.245,-6.6675,-8.1112,-6.805689081935725,-8.949947717519612,-0.2813221000769552,1.8810000000084983
-0.1603,1.0171,-0.1199,0.1907,0.1992,0.0627,-0.1225,-6.1863,-7.6825,-6.755321478869314,-8.923011158760888,-0.374116600028343,1.8960000000006403
-0.1586,1.0131,-0.1216,0.1907,0.1992,0.0627,-0.1225,-6.1863,-7.6825,-6.809696973277061,-8.879204744698555,-0.374116600028343,1.8960000000006403
-0.1597,1.013,-0.1252,0.1884,0.1996,0.0657,0.3063,-5.6087,-7.4725,-6.966959408570085,-8.88640909960456,-0.4638558000466253,1.9120000000039
-0.1597,1.013,-0.1252,0.1884,0.1996,0.0657,0.5863,-4.55,-7.3238,-7.021644835839189,-8.88985519822303,-0.4638558000466253,1.9120000000039
-0.1604,1.0145,-0.1258,0.189,0.1994,0.0647,0.5863,-4.55,-6.9825,-7.054352404742078,-8.907119122640056,-0.536655800028351,1.9279999999998836
-0.1569,1.0155,-0.1269,0.189,0.1994,0.0647,1.1638,-4.2438,-6.9825,-7.105148313778571,-8.787219336017987,-0.536655800028351,1.9279999999998836
-0.1557,1.0163,-0.1272,0.189,0.1994,0.0647,1.8463,-3.3863,-6.965,-7.1276715366262176,-8.696718535311007,-0.5874503000510185,1.9430000000065775
-0.1527,1.021,-0.1273,0.1915,0.2002,0.057,1.2775,-2.7125,-6.5975,-7.112250607777923,-8.52458332829733,-0.5874503000510185,1.9430000000065775
-0.1527,1.021,-0.1295,0.1915,0.2002,0.057,1.2775,-2.7125,-6.5975,-7.199287233137285,-8.467120817597731,-0.6308503000598602,1.959000000009837
-0.1554,1.0217,-0.1295,0.1909,0.1998,0.0622,0.7525,-1.5225,-6.6675,-7.216608854362521,-8.542948549598679,-0.6308503000598602,1.959000000009837
-0.1525,1.0189,-0.1275,0.1909,0.1998,0.0622,0.6388,-1.4963,-8.1375,-7.157839718539767,-8.509622768424691,-0.723620900046099,2.0210000000006403
-0.1583,1.0186,-0.1316,0.1909,0.1998,0.0622,0.875,-0.5075,-8.3212,-7.304525030271081,-8.575329536036358,-0.7317409000477533,2.0370000000039
-0.1647,1.0197,-0.1355,0.1926,0.2004,0.0629,0.875,-0.5075,-8.3212,-7.495039617337103,-8.711029680430014,-0.7317409000477533,2.0370000000039
-0.1669,1.0232,-0.1297,0.1926,0.2004,0.0629,0.4375,0.4725,-9.1175,-7.310760422758602,-8.85896097997952,-0.7246534000480283,2.052000000003318
-0.1669,1.0232,-0.1297,0.1909,0.1992,0.0702,-0.0263,-0.2275,-9.1,-7.25669151970588,-8.958562193061244,-0.7246534000480283,2.052000000003318
-0.1665,1.0187,-0.1304,0.1909,0.1992,0.0702,-0.8313,-0.5337,-8.3387,-7.27420762363468,-9.021275089163964,-0.7246534000480283,2.052000000003318
-0.171,1.0186,-0.1297,0.1909,0.1992,0.0702,-0.8313,-0.5337,-8.3387,-7.266022175045154,-9.129974573095739,-0.7331926000497679,2.0680000000065775
-0.1746,1.0188,-0.1256,0.1908,0.2018,0.0642,-0.1838,-0.4638,-7.63,-7.1229402987580706,-9.39706641928677,-0.7331926000497679,2.0680000000065775
-0.1714,1.0166,-0.1277,0.1908,0.2018,0.0642,-0.035,-0.4988,-7.1575,-7.145864835632232,-9.457202927800754,-0.7331926000497679,2.0680000000065775
-0.1714,1.0166,-0.1285,0.1923,0.2006,0.0617,0.035,-0.385,-6.5188,-7.182735230079114,-9.483678163435595,-0.7331926000497679,2.0680000000065775
-0.1748,1.0141,-0.1285,0.1923,0.2006,0.0617,0.035,-0.385,-6.5188,-7.207383448274006,-9.634050914889182,-0.7331926000497679,2.0680000000065775
-0.1762,1.0197,-0.128,0.1927,0.2002,0.0646,-0.42,-0.7262,-6.4313,-7.177913335619898,-9.699570665824199,-0.7331926000497679,2.0680000000065775
-0.1785,1.0161,-0.1276,0.1927,0.2002,0.0646,-0.7962,-1.085,-6.1425,-7.168328219075432,-9.834256342463213,-0.7505526000454102,2.084000000002561
-0.1815,1.0161,-0.1294,0.1927,0.2002,0.0646,-0.7962,-2.2225,-5.495,-7.210487572897755,-9.996935447959311,-0.7505526000454102,2.084000000002561
-0.1821,1.0157,-0.1303,0.1936,0.2006,0.0675,-0.5863,-2.2225,-5.495,-7.262913611479423,-10.06269279626126,-0.7505526000454102,2.084000000002561
-0.1821,1.0157,-0.1303,0.1936,0.2006,0.0675,-0.7525,-2.9575,-5.3288,-7.285878452936088,-10.078620148260333,-0.7949151000436887,2.099000000001979
-0.1813,1.0135,-0.1247,0.1946,0.2003,0.0597,-1.015,-3.9025,-5.0138,-7.176233884670007,-10.070071576735145,-0.7949151000436887,2.099000000001979
-0.1835,1.0125,-0.1282,0.1946,0.2003,0.0597,-1.015,-3.9025,-5.0138,-7.192387554674576,-10.166476366156942,-0.8573551000564094,2.1150000000052387
-0.1846,1.0143,-0.1272,0.1946,0.2003,0.0597,-1.365,-4.3313,-4.6725,-7.1814305038751085,-10.222356852900257,-0.8573551000564094,2.1150000000052387
-0.1855,1.0146,-0.1292,0.193,0.2016,0.0638,-0.77,-5.6175,-4.4275,-7.217705232870568,-10.268826039057188,-0.9416176000531395,2.1300000000046566
-0.1855,1.0146,-0.1246,0.193,0.2016,0.0638,-1.19,-6.8863,-4.235,-7.1453341170240945,-10.28234368296937,-0.9416176000531395,2.1300000000046566
-0.1831,1.0149,-0.1246,0.1927,0.2019,0.0658,-1.19,-6.8863,-4.235,-7.096476878870773,-10.176137779736361,-1.0517984000755862,2.1460000000079162
-0.1814,1.0185,-0.1255,0.1927,0.2019,0.0658,-1.2163,-8.3562,-4.7425,-7.073295849362035,-10.055263885783825,-1.0517984000755862,2.1460000000079162
-0.1787,1.0184,-0.126,0.1927,0.2019,0.0658,-1.75,-9.0825,-5.04,-7.072189017776894,-9.91674907958001,-1.197118400039108,2.1620000000039
-0.1729,1.0171,-0.1227,0.193,0.2024,0.0584,-1.8375,-9.4587,-5.5388,-7.047670262762475,-9.66107601755622,-1.197118400039108,2.1620000000039
-0.1706,1.0117,-0.1267,0.193,0.2024,0.0584,-1.8375,-9.4587,-5.5388,-7.0591529602523835,-9.53800668623042,-1.3389989000336022,2.177000000003318
-0.1706,1.0117,-0.1267,0.1934,0.2002,0.0675,-2.0475,-10.1412,-6.2038,-7.079884945199284,-9.510060278569195,-1.3389989000336022,2.177000000003318
-0.1676,1.0116,-0.1218,0.1934,0.2002,0.0675,-2.2662,-10.4738,-6.0462,-7.001735741838157,-9.387569433977525,-1.506579699991536,2.1929999999993015
-0.1624,1.0095,-0.1194,0.1934,0.2002,0.0675,-2.135,-10.5175,-5.5738,-6.9230830482641155,-9.152580806597298,-1.506579699991536,2.1929999999993015
-0.1607,1.0108,-0.1239,0.1933,0.1996,0.0619,-2.135,-10.5175,-5.5738,-6.94307463091094,-9.01260061544637,-1.6643422000619388,2.2080000000059954
-0.1618,1.0155,-0.1225,0.1933,0.1996,0.0619,-1.6275,-10.045,-5.4687,-6.939134229067609,-8.994441619207329,-1.6643422000619388,2.2080000000059954
-0.1618,1.0155,-0.1201,0.1923,0.1998,0.0674,-1.5225,-9.2837,-5.4775,-6.910928593288768,-8.99200027663094,-1.8128814000922002,2.224000000009255
-0.1559,1.0162,-0.1201,0.1923,0.1998,0.0674,-1.5225,-8.9513,-5.39,-6.886149673117327,-8.73953877049376,-1.8128814000922002,2.224000000009255
-0.1518,1.0154,-0.1176,0.1936,0.2006,0.0708,-1.5225,-8.9513,-5.39,-6.84552806648684,-8.515281776411078,-1.956102200056249,2.2400000000052387
-0.1482,1.0151,-0.1183,0.1936,0.2006,0.0708,-1.7325,-8.1812,-6.7375,-6.837874682055844,-8.34113610468537,-1.956102200056249,2.2400000000052387
-0.1468,1.0158,-0.1206,0.1936,0.2006,0.0708,-1.5137,-6.8775,-7.6475,-6.827693131564807,-8.252802124194552,-2.0592647000522457,2.2550000000046566
-0.1432,1.01,-0.1213,0.1924,0.2015,0.0663,-1.5137,-5.7838,-8.365,-6.830826428801655,-8.196275047799695,-2.0592647000522457,2.2550000000046566
-0.1432,1.01,-0.1213,0.1924,0.2015,0.0663,-1.4963,-5.7838,-8.365,-6.833701303897754,-8.153067679622344,-2.151805500029016,2.2710000000006403
-0.1443,1.0047,-0.1222,0.1937,0.2014,0.069,-1.1812,-4.6112,-9.5025,-6.86787380281029,-8.135456049169887,-2.151805500029016,2.2710000000006403
-0.1462,1.0049,-0.1208,0.1937,0.2014,0.069,-0.5512,-2.8525,-9.8525,-6.860846829640771,-8.180859690449887,-2.19459300004811,2.286000000007334
-0.1465,1.0086,-0.1224,0.1937,0.2014,0.069,-0.5512,-2.8525,-9.8525,-6.8920374582640305,-8.193972702649738,-2.19459300004811,2.286000000007334
-0.1493,1.0089,-0.1249,0.1943,0.2014,0.0698,-1.1463,-1.505,-10.1062,-6.950373553989654,-8.28871778674146,-2.218673000042066,2.302000000003318
-0.1493,1.0089,-0.125,0.1943,0.2014,0.0698,-0.4812,-0.0962,-9.9663,-7.011955008912947,-8.325946378719548,-2.218673000042066,2.302000000003318
-0.1498,1.0117,-0.125,0.196,0.2026,0.0695,0.2625,1.5137,-10.29,-7.0327913202193315,-8.346859269853166,-2.1944538000481453,2.3179999999993015
-0.15,1.0162,-0.1253,0.196,0.2026,0.0695,0.2625,1.5137,-10.29,-7.030437308271613,-8.339225167600686,-2.1717483000380127,2.3330000000059954
-0.1443,1.0169,-0.1254,0.196,0.2026,0.0695,0.2275,3.2638,-11.0513,-7.030145042386303,-8.112058670218422,-2.1717483000380127,2.3330000000059954
-0.1328,1.0153,-0.1204,0.1944,0.2038,0.0628,0.0613,4.935,-11.7425,-6.859934556986924,-7.5754690538246665,-2.0927883000578333,2.349000000001979
-0.1196,1.0163,-0.1202,0.1944,0.2038,0.0628,0.1838,7.7875,-12.4513,-6.785066448842699,-6.856156204624628,-2.0927883000578333,2.349000000001979
-0.1196,1.0163,-0.1202,0.1976,0.2026,0.0646,0.1838,7.7875,-12.4513,-6.759035734763879,-6.705610173857939,-1.9759758000623662,2.364000000001397
-0.1079,1.0052,-0.1211,0.1976,0.2026,0.0646,-0.6125,11.2087,-12.95,-6.816397810953599,-6.201090131763206,-1.9759758000623662,2.364000000001397
-0.1072,1.0122,-0.1177,0.1976,0.2026,0.0646,-0.0613,15.68,-13.4838,-6.702484928139853,-6.039058337122355,-1.725095800011255,2.3800000000046566
-0.1136,1.0094,-0.1346,0.1983,0.206,0.053,-0.56,20.195,-13.2738,-7.176645146413368,-6.307044129860949,-1.725095800011255,2.3800000000046566
-0.1229,1.0081,-0.1274,0.1983,0.206,0.053,-0.56,20.195,-13.2738,-7.190454080176817,-6.7912113810432,-1.4019758000923648,2.3960000000006403
-0.1229,1.0081,-0.1387,0.2016,0.2032,0.0669,-1.61,24.3775,-12.5562,-7.239406612869623,-6.867008432375008,-1.4019758000923648,2.3960000000006403
-0.1419,1.0135,-0.1387,0.2016,0.2032,0.0669,-1.575,27.58,-11.8387,-7.297510223731085,-7.650104592729152,-0.9882757999077476,2.411000000007334
-0.1599,1.0061,-0.1439,0.201,0.2052,0.0649,-1.96,29.2775,-11.7513,-7.475325267522718,-8.624467807036064,-0.9882757999077476,2.411000000007334
-0.1743,0.9959,-0.1421,0.201,0.2052,0.0649,-1.96,29.2775,-11.7513,-7.6115352993601455,-9.53410912813827,-0.5198358000253357,2.427000000003318
-0.1916,0.9901,-0.1442,0.201,0.2052,0.0649,-0.8487,31.2113,-12.0312,-7.920351849747374,-10.540838206363498,-0.5198358000253357,2.427000000003318
-0.21,0.9961,-0.1498,0.2036,0.2072,0.0624,0.3063,31.0538,-11.6112,-8.341636957810666,-11.462511908190171,-0.054028800043411374,2.4420000000027358
-0.21,0.9961,-0.1498,0.2036,0.2072,0.0624,0.3063,31.0538,-11.13,-8.48212878263931,-11.68547250033311,-0.054028800043411374,2.4420000000027358
-0.2265,1.0097,-0.1426,0.201,0.2076,0.0577,0.84,29.7062,-11.13,-8.164249313292022,-12.2808638648321,0.42127039983727876,2.4579999999987194
-0.2328,1.0197,-0.1353,0.201,0.2076,0.0577,0.8138,28.1488,-10.255,-7.731055898128026,-12.569688232185081,0.42127039983727876,2.4579999999987194
-0.235,1.0268,-0.1396,0.201,0.2076,0.0577,1.4,25.5413,-10.1325,-7.739519214588049,-12.692950773646004,0.8299311999205339,2.474000000001979
-0.2425,1.0331,-0.1388,0.2035,0.2088,0.0514,1.4,25.5413,-10.1325,-7.67341117010818,-12.932315533453497,0.8299311999205339,2.474000000001979
-0.2425,1.0331,-0.1403,0.2035,0.2088,0.0514,0.4375,22.2687,-10.7975,-7.714459594439418,-13.042190770474257,1.1639617000695979,2.489000000008673
-0.243,1.0312,-0.1403,0.2045,0.2086,0.0509,-0.0787,19.3725,-10.7887,-7.735049360110208,-13.110568575601732,1.1639617000695979,2.489000000008673
-0.2438,1.0252,-0.1369,0.2045,0.2086,0.0509,-0.3237,16.835,-10.5787,-7.660477379235568,-13.21077515406367,1.433321700001983,2.5050000000046566
-0.2469,1.022,-0.1416,0.2045,0.2086,0.0509,-0.3237,16.835,-10.5787,-7.792069304295518,-13.372751885124574,1.433321700001983,2.5050000000046566
-0.2419,1.0243,-0.1342,0.205,0.2095,0.0526,-0.385,14.1575,-9.5288,-7.606279306625133,-13.283390985695048,1.6456841999937422,2.5200000000040745
-0.2406,1.0275,-0.1293,0.205,0.2095,0.0526,-0.7437,11.0337,-8.7937,-7.395040628010093,-13.261465393623356,1.6456841999937422,2.5200000000040745
-0.2406,1.0275,-0.1293,0.2056,0.2084,0.0468,-1.645,8.26,-8.085,-7.384974694039069,-13.194030403828748,1.7778441999605672,2.536000000000058
-0.238,1.0301,-0.1301,0.2056,0.2084,0.0468,-1.645,8.26,-8.085,-7.376534023246486,-13.089036853466563,1.7778441999605672,2.536000000000058
-0.2388,1.0309,-0.1312,0.2056,0.2084,0.0468,-1.68,6.0813,-7.525,-7.375026327927224,-13.010054129298174,1.87514499998039,2.552000000003318
-0.2332,1.0289,-0.1239,0.2049,0.2093,0.0514,-1.8813,3.5525,-7.1663,-7.294206619943289,-12.81267694363128,1.87514499998039,2.552000000003318
-0.2301,1.0263,-0.1279,0.2049,0.2093,0.0514,-2.73,1.1988,-6.825,-7.197200715700924,-12.637690573937347,1.8931269999884146,2.5670000000100117
-0.2301,1.0263,-0.1279,0.2076,0.2098,0.0413,-2.73,1.1988,-6.825,-7.149594077559354,-12.576254641265864,1.8931269999884146,2.5670000000100117
-0.2295,1.0222,-0.1273,0.2076,0.2098,0.0413,-3.3075,-0.6388,-6.1512,-7.118222985717388,-12.564659903964328,1.882906199995628,2.5829999999987194
-0.2281,1.0224,-0.1263,0.2076,0.2098,0.0444,-3.7538,-2.2662,-5.8538,-7.067055193394421,-12.505832764847561,1.882906199995628,2.5829999999987194
-0.2207,1.0188,-0.121,0.2061,0.2098,0.0444,-3.6925,-3.6137,-5.355,-6.871100304313602,-12.224877052656922,1.8287006999714384,2.5980000000054133
-0.2169,1.0142,-0.1247,0.2061,0.2098,0.0444,-3.6925,-3.6137,-5.355,-6.963413634709859,-12.03977983373813,1.7708814999859521,2.614000000001397
-0.2119,1.0114,-0.1223,0.2078,0.2098,0.0511,-3.5438,-4.76,-4.725,-6.918873064977867,-11.808391986173534,1.7708814999859521,2.614000000001397
-0.2119,1.0114,-0.1223,0.2078,0.2098,0.0511,-3.8238,-5.8713,-4.2,-6.902498393333062,-11.760494626602252,1.676940699966814,2.6300000000046566
-0.2103,1.0148,-0.1218,0.2071,0.2093,0.0491,-3.8238,-5.8713,-4.27,-6.862755238415236,-11.651462559445305,1.676940699966814,2.6300000000046566
-0.2044,1.0155,-0.1195,0.2071,0.2093,0.0491,-4.0687,-6.93,-4.27,-6.7562797976268305,-11.36868840628308,1.5729906999708478,2.6450000000040745
-0.201,1.0123,-0.1229,0.2071,0.2093,0.0491,-3.815,-7.2013,-4.8212,-6.869075074878637,-11.19558695460048,1.5729906999708478,2.6450000000040745
-0.1993,1.0103,-0.1179,0.2065,0.2094,0.0563,-3.5875,-6.86,-4.83,-6.729725941473157,-11.108626732760396,1.4632306999984,2.661000000000058
-0.1993,1.0103,-0.1179,0.2065,0.2094,0.0563,-3.5875,-6.86,-4.83,-6.681594102795959,-11.090671890263339,1.4632306999984,2.661000000000058
-0.1993,1.0092,-0.1144,0.2047,0.2089,0.053,-3.0187,-7.56,-5.18,-6.55940292470666,-11.099392665252916,1.3498306999477943,2.676000000006752
-0.1938,1.003,-0.115,0.2047,0.2089,0.053,-2.6337,-8.0063,-5.9938,-6.5503557534654115,-10.929768505228049,1.3498306999477943,2.676000000006752
-0.1935,1.0025,-0.1159,0.2047,0.2089,0.053,-2.3363,-8.0763,-6.3963,-6.567742811961666,-10.877243090726504,1.2206098999802313,2.6920000000027358
-0.1904,1.0053,-0.1132,0.2067,0.2098,0.043,-2.3363,-8.0763,-6.3963,-6.51168234944149,-10.725439334316285,1.2206098999802313,2.6920000000027358
-0.1885,1.0086,-0.1102,0.2067,0.2098,0.043,-1.995,-8.1812,-6.3175,-6.447497205572631,-10.584599971818568,1.0897106999535635,2.7080000000059954
-0.1885,1.0086,-0.1102,0.2058,0.2105,0.0554,-1.9338,-8.4087,-5.3812,-6.406250251121614,-10.538744326026832,1.0897106999535635,2.7080000000059954
-0.1881,1.0102,-0.1129,0.2058,0.2105,0.0554,-1.7587,-8.0937,-4.7512,-6.404424961128719,-10.49505450651607,0.9683052000171641,2.7229999999981374
-0.1884,1.0111,-0.1164,0.2058,0.2105,0.0554,-1.7587,-8.0937,-4.7512,-6.414547782916101,-10.488846158617118,0.9683052000171641,2.7229999999981374
-0.1896,1.0115,-0.113,0.2071,0.2111,0.0566,-1.9775,-8.2688,-4.4713,-6.405635944186446,-10.540199319070856,0.8360043999902109,2.739000000001397
-0.1854,1.0125,-0.1118,0.2071,0.2111,0.0566,-2.345,-7.9887,-4.0425,-6.364337524057303,-10.35516152404783,0.8360043999902109,2.739000000001397
-0.1854,1.0125,-0.1118,0.2058,0.2083,0.0512,-1.96,-7.77,-4.9525,-6.350976982705565,-10.323667588064453,0.7039143999350336,2.7560000000084983
-0.1833,1.0078,-0.1143,0.2058,0.2083,0.0512,-1.96,-7.77,-4.9525,-6.376228546287568,-10.260937266786422,0.7039143999350336,2.7560000000084983
-0.1836,1.0049,-0.1146,0.2058,0.2082,0.0608,-1.75,-7.2362,-5.5563,-6.383301148738941,-10.282001274320002,0.5881352000167468,2.771999999997206
-0.1871,1.0057,-0.1139,0.2047,0.2082,0.0608,-0.8662,-6.2825,-5.8975,-6.418664461038152,-10.422664956424805,0.5881352000167468,2.771999999997206
-0.1854,1.0056,-0.1084,0.2047,0.2082,0.0608,-0.8662,-6.2125,-5.9062,-6.298260192862796,-10.39670325871919,0.48873519999649634,2.7880000000004657
-0.1855,1.0085,-0.109,0.2055,0.2101,0.0546,-0.5075,-6.2125,-5.9062,-6.227976358116347,-10.37213528765031,0.48252269997262975,2.7890000000043074
-0.1855,1.0085,-0.109,0.2055,0.2101,0.0546,0.14,-5.2675,-5.3288,-6.189600773573551,-10.365300277875956,0.4035101999756958,2.8040000000037253
-0.1884,1.0119,-0.1137,0.2057,0.2101,0.0515,0.6388,-4.4363,-4.4275,-6.344556544108192,-10.460021623444218,0.4035101999756958,2.8040000000037253
-0.1874,1.0147,-0.1094,0.2057,0.2101,0.0515,0.6388,-4.4363,-4.4275,-6.210911578114439,-10.415329299785615,0.33252939999351344,2.819999999999709
-0.1868,1.0172,-0.1127,0.2057,0.2101,0.0515,0.4988,-3.9638,-4.2175,-6.287368892898459,-10.35708714219828,0.33252939999351344,2.819999999999709
-0.188,1.0164,-0.117,0.2053,0.2094,0.0554,0.2713,-3.1237,-4.3225,-6.472340618408796,-10.401839653457277,0.2856738999726038,2.835000000006403
-0.188,1.0164,-0.117,0.2053,0.2094,0.0554,0.6037,-2.59,-4.935,-6.537959622531614,-10.409954902369217,0.2856738999726038,2.835000000006403
-0.1869,1.0167,-0.1152,0.2058,0.2089,0.0562,0.6037,-2.59,-4.935,-6.486777070421805,-10.363912621832094,0.24423389998300607,2.8510000000023865
-0.1872,1.0183,-0.1127,0.2058,0.2089,0.0562,0.2275,-1.6888,-5.7225,-6.374151997540466,-10.357154253907902,0.24423389998300607,2.8510000000023865
-0.1892,1.0191,-0.1159,0.2058,0.2089,0.0562,-0.0962,-1.7237,-6.125,-6.444298355141105,-10.424961950425995,0.21665469997738745,2.867000000005646
-0.1914,1.0166,-0.1178,0.2071,0.2089,0.0654,0.2713,-0.945,-6.895,-6.553924872646277,-10.53268542959665,0.21665469997738745,2.867000000005646
-0.1966,1.0145,-0.1153,0.2071,0.2089,0.0654,0.2713,-0.945,-6.895,-6.507568195561731,-10.767112144052655,0.20247969997793752,2.882000000005064
-0.1966,1.0145,-0.1153,0.207,0.2091,0.0578,-0.0437,-0.6037,-7.0788,-6.492873766457389,-10.848129215613962,0.20247969997793752,2.882000000005064
-0.1976,1.0138,-0.1107,0.207,0.2091,0.0578,-0.525,-0.9538,-6.755,-6.352159422505352,-10.925391960442255,0.1872188999817683,2.8980000000010477
-0.2006,1.0103,-0.1168,0.207,0.2091,0.0578,-0.4025,-0.49,-6.8688,-6.488748611705613,-11.074968901531472,0.1872188999817683,2.8980000000010477
-0.2036,1.0116,-0.1163,0.2053,0.2118,0.0697,-0.4025,-0.49,-6.8688,-6.52792379886757,-11.224317219616285,0.1798688999784883,2.9130000000077416
-0.2072,1.0136,-0.1133,0.2053,0.2118,0.0697,0.595,-0.7788,-6.6413,-6.423630343822861,-11.398099112785737,0.1798688999784883,2.9130000000077416
-0.2072,1.0136,-0.1133,0.2065,0.2106,0.0541,0.3675,-0.945,-5.95,-6.39293584863587,-11.460652771963595,0.16474889998228373,2.9290000000037253
-0.2103,1.01,-0.1149,0.2065,0.2106,0.0541,0.2713,-1.855,-6.0375,-6.457381922213991,-11.625937927741973,0.16474889998228373,2.9290000000037253
-0.211,1.0066,-0.1155,0.2065,0.2106,0.0541,0.2713,-1.855,-6.0375,-6.51586378924061,-11.725823158048449,0.135068899989734,2.944999999999709
-0.2086,1.0096,-0.1118,0.2054,0.2112,0.0546,0.8225,-2.1437,-6.02,-6.375018593530946,-11.638061193588344,0.135068899989734,2.944999999999709
-0.2083,1.0119,-0.1133,0.2054,0.2112,0.0546,1.295,-3.045,-6.1687,-6.385239660235002,-11.58341248302357,0.08939389996935114,2.960000000006403
-0.2083,1.0133,-0.1125,0.2061,0.211,0.0614,1.295,-3.045,-5.6788,-6.3477697585256445,-11.556278212746204,0.08939389996935114,2.960000000006403
-0.2059,1.0133,-0.1125,0.2061,0.211,0.0614,1.68,-3.1762,-5.6788,-6.338095565510284,-11.452381548881606,0.0385746999821078,2.9760000000023865
-0.2042,1.019,-0.1164,0.2069,0.209,0.0542,1.8025,-3.6925,-5.6962,-6.476910303304866,-11.308537014619782,0.0385746999821078,2.9760000000023865
-0.202,1.0202,-0.1169,0.2069,0.209,0.0542,0.945,-4.3925,-5.5825,-6.520297896250972,-11.172693237496452,-0.027312800015335426,2.9910000000018044
-0.1961,1.0175,-0.1185,0.2069,0.209,0.0542,0.945,-4.3925,-5.5825,-6.6091579770164035,-10.919221729273165,-0.027312800015335426,2.9910000000018044
-0.2003,1.0152,-0.1199,0.2064,0.2101,0.0589,0.42,-4.4012,-5.355,-6.695044902491538,-11.047409994963502,-0.09773199999765876,3.006999999997788
-0.2003,1.0152,-0.1199,0.2064,0.2101,0.0589,0.105,-4.5937,-5.0925,-6.721169380492196,-11.077607709365846,-0.09773199999765876,3.006999999997788
-0.2012,1.0128,-0.1169,0.2074,0.2091,0.0644,0.245,-5.215,-5.5388,-6.630759031017494,-11.142874936372932,-0.18117200001465772,3.0230000000010477
-0.1993,1.0087,-0.1176,0.2074,0.2091,0.0644,0.245,-5.215,-5.5388,-6.643349612416413,-11.112862891483491,-0.18117200001465772,3.0230000000010477
-0.2018,1.0089,-0.1212,0.2074,0.2091,0.0644,0.49,-5.0138,-5.81,-6.785175410262522,-11.201413944784234,-0.2563790000117393,3.0380000000004657
-0.2031,1.0105,-0.1173,0.2076,0.2134,0.0519,0.8138,-4.9875,-5.7312,-6.668057753132606,-11.267970920405373,-0.2563790000117393,3.0380000000004657
-0.2031,1.014,-0.1124,0.2076,0.2134,0.0519,0.8138,-5.4862,-5.7312,-6.423064258890945,-11.261311374796282,-0.3441582000296223,3.0540000000037253
-0.2006,1.014,-0.1124,0.207,0.2106,0.0583,0.8138,-5.4862,-5.7312,-6.3531887990221545,-11.158783791916306,-0.3441582000296223,3.0540000000037253
-0.1984,1.013,-0.1153,0.207,0.2106,0.0583,1.0325,-6.1075,-5.4862,-6.455816304337091,-11.047046875259346,-0.4357707000260672,3.069000000003143
-0.1992,1.0158,-0.1166,0.207,0.2106,0.0583,1.3388,-5.8975,-5.425,-6.52521940843463,-11.02973157741364,-0.4357707000260672,3.069000000003143
-0.1979,1.0152,-0.1161,0.2083,0.2118,0.0574,1.2513,-5.95,-5.1188,-6.524383377141796,-10.976115603267163,-0.5309707000021701,3.084999999999127
-0.1961,1.0122,-0.1152,0.2083,0.2118,0.0574,1.2513,-5.95,-5.1188,-6.500943129847355,-10.913439160762398,-0.5309707000021701,3.084999999999127
-0.1961,1.0122,-0.1152,0.2038,0.2116,0.053,1.365,-5.1363,-5.0662,-6.494942742777029,-10.899633447144488,-0.6131515000189125,3.1010000000023865
-0.198,1.0119,-0.1197,0.2038,0.2116,0.053,1.3212,-4.515,-5.2762,-6.683672886625158,-10.974460541137958,-0.6131515000189125,3.1010000000023865
-0.1985,1.0152,-0.1206,0.2038,0.2116,0.053,1.3212,-4.515,-5.32,-6.751993249521413,-10.984880807512262,-0.6808765000162844,3.1160000000018044
-0.1954,1.0144,-0.12,0.205,0.2095,0.0545,1.505,-5.005,-5.32,-6.747837674693694,-10.865128624962118,-0.6808765000162844,3.1160000000018044
-0.1929,1.0111,-0.1221,0.205,0.2095,0.0545,1.155,-4.9175,-4.795,-6.849846054267507,-10.753828883352364,-0.7595565000323137,3.132000000005064
-0.1929,1.0124,-0.1219,0.2063,0.2094,0.0531,1.225,-4.34,-4.8387,-6.861696111748565,-10.720744140086904,-0.7595565000323137,3.132000000005064
-0.1957,1.0124,-0.1219,0.2063,0.2094,0.0531,1.225,-4.34,-4.8387,-6.8647211344312895,-10.834313735015911,-0.8246565000297874,3.147000000004482
-0.1954,1.0133,-0.1218,0.2053,0.2093,0.0654,1.47,-3.605,-4.4538,-6.856685391984864,-10.837717385600545,-0.8823365000153085,3.1630000000004657
-0.1956,1.0149,-0.1221,0.2053,0.2093,0.0654,1.7325,-3.3688,-3.8588,-6.85935662240997,-10.833415882298684,-0.8823365000153085,3.1630000000004657
-0.1932,1.0161,-0.1206,0.2053,0.2093,0.0654,0.805,-2.975,-3.9462,-6.794635447267852,-10.716973128597232,-0.9299365000250059,3.1790000000037253
-0.195,1.0191,-0.1253,0.2066,0.2099,0.0566,0.805,-2.975,-3.9462,-6.94801329188482,-10.746938767341854,-0.9299365000250059,3.1790000000037253
-0.195,1.0191,-0.1253,0.2066,0.2099,0.0566,0.9275,-2.695,-3.9638,-6.992463081576041,-10.75216763250112,-0.9703615000234372,3.194000000003143
-0.1924,1.0197,-0.1251,0.2074,0.2101,0.0617,1.015,-1.8725,-3.9987,-6.993786528551109,-10.632922310930109,-0.9703615000234372,3.194000000003143
-0.1896,1.0159,-0.1221,0.2074,0.2101,0.0617,1.575,-1.0237,-4.305,-6.8863346677961275,-10.52295492655217,-0.9867407000267742,3.210000000006403
-0.1886,1.0193,-0.1243,0.2074,0.2101,0.0617,1.575,-1.0237,-4.305,-6.937138363624507,-10.428946674680226,-0.9867407000267742,3.210000000006403
-0.1912,1.0196,-0.1261,0.2061,0.2109,0.0553,0.9538,-0.2187,-4.5237,-7.019270514754466,-10.520458185574123,-0.9906773000259849,3.228000000002794
-0.1912,1.0196,-0.1263,0.2061,0.2109,0.0553,0.2713,0.0088,-4.8562,-7.047170142461458,-10.537737993919958,-0.9906069000259705,3.236000000004424
-0.1884,1.0173,-0.1263,0.2059,0.2091,0.0582,0.0175,0.5425,-4.655,-7.066106556408406,-10.438576757705974,-0.9862669000250863,3.2440000000060536
-0.1876,1.0163,-0.1257,0.2059,0.2091,0.0582,0.0175,0.5425,-4.655,-7.0564235154712796,-10.392636103050965,-0.9846394000267283,3.247000000003027
-0.1939,1.0109,-0.1303,0.2059,0.2091,0.0582,-0.9712,0.7788,-4.6813,-7.177186344998753,-10.695197580601878,-0.9846394000267283,3.247000000003027
-0.2002,1.0095,-0.1304,0.207,0.2099,0.0567,0.1575,1.4787,-4.69,-7.296048090426209,-11.040362133905386,-0.9609802000326673,3.2629999999990105
-0.2,1.0113,-0.1304,0.207,0.2099,0.0567,0.1312,0.9712,-4.6988,-7.329177980446836,-11.085772897331344,-0.9609802000326673,3.2629999999990105
-0.2,1.0113,-0.1304,0.2048,0.21,0.0566,0.1312,0.9712,-4.6988,-7.340911418384121,-11.094901654145824,-0.9454410000295015,3.27900000000227
-0.2005,1.0097,-0.1278,0.2048,0.21,0.0566,0.6737,1.0762,-4.9612,-7.251490063033614,-11.134112158699732,-0.9454410000295015,3.27900000000227
-0.2004,1.0103,-0.1314,0.2048,0.21,0.0566,1.0588,0.9887,-5.6087,-7.367973892981159,-11.129524048533069,-0.9306105000228833,3.294000000008964
-0.1995,1.0116,-0.1302,0.2065,0.21,0.0626,1.0588,0.9887,-5.6087,-7.3430920088470675,-11.082580568948764,-0.9306105000228833,3.294000000008964
-0.2009,1.0136,-0.1273,0.2065,0.21,0.0626,1.33,0.6388,-5.5738,-7.204322761594615,-11.115241938609943,-0.9203897000254488,3.3100000000049477
-0.2009,1.0136,-0.1273,0.2059,0.2093,0.0554,0.5337,-0.245,-5.5563,-7.172640752563691,-11.123220074894283,-0.9203897000254488,3.3100000000049477
-0.2019,1.0133,-0.1293,0.2059,0.2093,0.0554,0.3325,-0.7875,-5.7312,-7.239024271213942,-11.165792762225918,-0.9322022000249904,3.3250000000043656
-0.2035,1.0138,-0.1318,0.2059,0.2093,0.0619,0.3325,-0.7875,-5.7312,-7.351632385699785,-11.234497864390846,-0.9322022000249904,3.3250000000043656
-0.2047,1.0137,-0.1299,0.2074,0.2093,0.0619,0.6913,-0.5512,-6.1775,-7.31690608248871,-11.29998284674048,-0.9410214000227767,3.3410000000003492
-0.2059,1.0128,-0.1309,0.2074,0.2093,0.0619,0.49,-1.575,-6.9913,-7.349479636963352,-11.36220393714057,-0.9410214000227767,3.3410000000003492
-0.2029,1.013,-0.1288,0.2071,0.2085,0.0579,-0.245,-2.2925,-6.8775,-7.288347838618188,-11.282490653045746,-0.9777014000302494,3.357000000003609
-0.2029,1.013,-0.1288,0.2071,0.2085,0.0579,-0.245,-2.2925,-6.8775,-7.263369015303469,-11.253978590162683,-0.9777014000302494,3.357000000003609
-0.2069,1.0097,-0.1313,0.2073,0.2106,0.0504,-0.875,-2.5375,-6.9563,-7.328905837581307,-11.400729153465448,-1.0157639000287724,3.372000000003027
-0.2053,1.0051,-0.1281,0.2073,0.2106,0.0504,-0.9712,-2.9488,-6.405,-7.30137135882109,-11.437812766791053,-1.062944700016929,3.3879999999990105
-0.2079,1.0035,-0.125,0.2073,0.2106,0.0504,-0.3063,-3.8763,-6.1337,-7.1846393494428265,-11.56662544389052,-1.062944700016929,3.3879999999990105
-0.2075,1.0039,-0.1236,0.2053,0.2114,0.0522,-0.3063,-3.8763,-6.1337,-7.0883756542648015,-11.585615549548766,-1.1210892000428765,3.4030000000057044
-0.2075,1.0039,-0.1236,0.2053,0.2114,0.0522,0.3762,-3.6312,-5.5738,-7.041557134948879,-11.591269166366844,-1.1210892000428765,3.4030000000057044
-0.2081,1.0089,-0.1261,0.2074,0.211,0.0563,0.735,-3.6488,-5.4338,-7.100170344492068,-11.5727833313469,-1.1794700000282217,3.419000000001688
-0.2069,1.0127,-0.1266,0.2074,0.211,0.0563,0.4988,-4.9,-5.5125,-7.117708553432468,-11.487188707956095,-1.1794700000282217,3.419000000001688
-0.2026,1.0143,-0.1237,0.2074,0.211,0.0563,0.4988,-4.9,-5.5125,-7.00477147531577,-11.280300628317553,-1.2578700000441938,3.4350000000049477
-0.2004,1.0197,-0.1225,0.2079,0.2098,0.0514,0.3762,-4.13,-4.4538,-6.900644681810702,-11.086953487030865,-1.2578700000441938,3.4350000000049477
-0.2016,1.0193,-0.1275,0.2079,0.2098,0.0514,0.0088,-3.85,-4.1475,-7.045000846974342,-11.100405094419095,-1.3156200000139404,3.4499999999970896
-0.2016,1.0193,-0.1275,0.2088,0.2105,0.0572,0.0088,-3.85,-5.0662,-7.098443429717453,-11.102732173724128,-1.3156200000139404,3.4499999999970896
-0.2,1.0192,-0.1316,0.2088,0.2105,0.0572,-0.2187,-4.3663,-5.0662,-7.252698138582138,-11.032516621237052,-1.3854808000281729,3.4660000000003492
-0.1978,1.0202,-0.1285,0.2088,0.2105,0.0572,-0.6913,-3.7625,-4.6463,-7.215792236115481,-10.917243857074466,-1.3854808000281729,3.4660000000003492
-0.1954,1.0196,-0.1279,0.2055,0.2108,0.0547,-0.7175,-3.1412,-5.1712,-7.183272402325142,-10.799950074931605,-1.4325988000491996,3.481000000007043
-0.193,1.0159,-0.1265,0.2055,0.2108,0.0547,-0.7175,-3.1412,-5.1712,-7.141151257929671,-10.703757148862461,-1.4325988000491996,3.481000000007043
-0.193,1.0159,-0.1265,0.207,0.2109,0.0582,-0.595,-2.8175,-5.5213,-7.118544519587898,-10.682905239996272,-1.4776788000378835,3.497000000003027
-0.1957,1.0115,-0.1251,0.207,0.2109,0.0582,-1.2862,-2.0038,-5.845,-7.098864246115482,-10.820532072734528,-1.4776788000378835,3.497000000003027
-0.2002,1.0106,-0.1213,0.207,0.2109,0.058,-1.155,-2.205,-5.9588,-7.009900331210103,-11.044766565585885,-1.512958800045071,3.5130000000062864
-0.2003,1.0068,-0.124,0.2077,0.2108,0.058,-1.155,-2.205,-5.9588,-7.013895824931324,-11.136040624457316,-1.512958800045071,3.5130000000062864
-0.2023,1.0101,-0.128,0.2077,0.2108,0.058,-0.5863,-2.0912,-5.7312,-7.1232058422635625,-11.211873804187928,-1.5443268000286383,3.5279999999984284
-0.2009,1.0142,-0.1265,0.207,0.2103,0.0545,-0.4462,-1.365,-5.3025,-7.115723505217702,-11.141417169513705,-1.5443268000286383,3.5279999999984284
-0.2009,1.0142,-0.1265,0.207,0.2103,0.0545,-0.3237,-1.2337,-4.9525,-7.112254064050374,-11.124942665740846,-1.5640660000326596,3.544000000001688
-0.2007,1.0129,-0.1235,0.2066,0.2105,0.0551,-0.3237,-1.2337,-4.9525,-7.019424159512922,-11.12681264988743,-1.5640660000326596,3.544000000001688
-0.2028,1.013,-0.1251,0.2066,0.2105,0.0551,-0.5075,-0.9975,-4.69,-7.030622014147398,-11.215398390592716,-1.5790285000393367,3.559000000008382
-0.2016,1.0181,-0.127,0.2066,0.2105,0.0551,-0.4288,-0.5688,-4.6287,-7.075194591979098,-11.136182610819128,-1.5790285000393367,3.559000000008382
-0.2037,1.0176,-0.1237,0.206,0.2088,0.055,-0.525,-0.175,-4.4012,-6.997476587207395,-11.219555038148576,-1.5818285000386338,3.5750000000043656
-0.2037,1.0176,-0.1237,0.206,0.2088,0.055,-0.525,-0.175,-4.4012,-6.9616179653582195,-11.23536900952482,-1.5818285000386338,3.5750000000043656
-0.2045,1.0164,-0.1238,0.2073,0.2108,0.0617,-0.3413,-0.1663,-4.3313,-6.951814216632344,-11.283625140426285,-1.584489300039176,3.591000000007625
-0.2054,1.0139,-0.1274,0.2073,0.2108,0.0617,-0.6388,0.0175,-4.4975,-7.059583458399377,-11.349444315793537,-1.584489300039176,3.591000000007625
-0.2039,1.0151,-0.128,0.2073,0.2108,0.0617,-0.6388,0.0175,-4.8038,-7.124868393067232,-11.286906969600766,-1.5842268000393136,3.605999999999767
-0.2018,1.0113,-0.1239,0.2075,0.2109,0.0557,-0.7788,0.14,-4.8038,-7.058006300282387,-11.220426302266143,-1.5842268000393136,3.605999999999767
-0.2018,1.01,-0.1226,0.2075,0.2109,0.0557,-0.6388,-0.1925,-4.8913,-6.987744165476806,-11.21912740051491,-1.587306800039941,3.622000000003027
-0.1976,1.01,-0.1226,0.2066,0.2106,0.0601,-0.7962,-0.14,-4.69,-6.9562249795901465,-11.036806685965914,-1.587306800039941,3.622000000003027
-0.2003,1.0083,-0.126,0.2066,0.2106,0.0601,-0.7962,-0.14,-4.69,-7.035006566152105,-11.12814405476327,-1.5894068000398596,3.6370000000024447
-0.2031,1.0146,-0.1271,0.2066,0.2106,0.0601,-0.7788,-0.665,-4.5413,-7.085277792667053,-11.213501965816324,-1.5894068000398596,3.6370000000024447
-0.2001,1.0115,-0.1213,0.208,0.2092,0.0494,-0.4725,-0.2887,-4.3488,-6.949562405190918,-11.131421734268645,-1.5940260000408006,3.6530000000057044
-0.1996,1.0117,-0.1244,0.208,0.2092,0.0494,-0.9187,-0.3938,-4.095,-6.9759153638175,-11.088638150056749,-1.5940260000408006,3.6530000000057044
-0.1996,1.0117,-0.1244,0.2071,0.2105,0.0562,-0.9187,-0.3938,-4.095,-6.990773443436918,-11.080968468680057,-1.600326800039219,3.669000000001688
-0.2023,1.0106,-0.1251,0.2071,0.2105,0.0562,-0.4462,-0.6125,-3.9113,-7.027306583783279,-11.209250847926576,-1.600326800039219,3.669000000001688
-0.2014,1.0112,-0.1246,0.2071,0.2105,0.0562,-0.7175,-0.8225,-3.6575,-7.025957404614086,-11.18631940405209,-1.6126643000387402,3.684000000001106
-0.2003,1.0125,-0.124,0.2062,0.2095,0.0608,-0.0787,-1.1812,-3.7887,-6.998938950801492,-11.122356330141146,-1.6126643000387402,3.684000000001106
-0.1995,1.0123,-0.1276,0.2062,0.2095,0.0608,-0.0787,-1.1812,-3.7887,-7.11333044783047,-11.073412074049502,-1.6315635000425905,3.7000000000043656
-0.1995,1.0123,-0.1277,0.2047,0.2094,0.0578,-0.035,-1.155,-4.3488,-7.161018301041711,-11.065166353628754,-1.6315635000425905,3.7000000000043656
-0.1993,1.0148,-0.1277,0.2047,0.2094,0.0578,-0.2625,-0.84,-5.2762,-7.1676360133083685,-11.035136298050434,-1.6441635000359898,3.7149999999965075
-0.1996,1.0133,-0.1263,0.2054,0.2113,0.0563,-0.6125,-1.4,-6.1337,-7.135029366227585,-11.052989670834403,-1.6441635000359898,3.7149999999965075
-0.2006,1.0111,-0.1289,0.2054,0.2113,0.0563,-0.6125,-1.4,-6.1337,-7.2025915465794075,-11.110971630104927,-1.6665635000405532,3.730999999999767
-0.2015,1.0112,-0.129,0.2054,0.2113,0.0563,-0.3413,-1.2687,-6.0375,-7.2413413792332175,-11.161958775875709,-1.6665635000405532,3.730999999999767
-0.2012,1.0134,-0.1276,0.2055,0.2097,0.059,-0.7613,-1.5575,-5.46,-7.210080208479559,-11.148026421284552,-1.69148350004563,3.747000000003027
-0.2012,1.0134,-0.1276,0.2055,0.2097,0.059,-0.7613,-2.03,-5.32,-7.193891476081474,-11.14468654947789,-1.69148350004563,3.747000000003027
-0.2002,1.0153,-0.1252,0.2061,0.213,0.0621,-0.6037,-2.03,-5.32,-7.108386031364054,-11.089378646126061,-1.7219335000444485,3.7620000000024447
-0.1996,1.0123,-0.1261,0.2061,0.213,0.0621,-1.0237,-2.0738,-5.0138,-7.105279578292853,-11.074767032110602,-1.7551143000512082,3.7780000000057044
-0.1986,1.0156,-0.1272,0.2061,0.213,0.0621,-1.645,-1.7062,-5.3987,-7.106799511703505,-11.002821729505188,-1.7551143000512082,3.7780000000057044
-0.1958,1.0139,-0.1242,0.2074,0.2102,0.067,-1.645,-1.7062,-5.3987,-7.101238638612282,-10.886518322440114,-1.7807073000378009,3.7929999999978463
-0.1958,1.0139,-0.128,0.2074,0.2102,0.067,-1.6275,-1.7413,-5.3812,-7.106963704962115,-10.855547316564211,-1.7859312000452,3.7960000000020955
-0.1988,1.0144,-0.128,0.2078,0.2091,0.0579,-1.7763,-1.715,-5.3113,-7.11353005357243,-10.969258155672692,-1.7859312000452,3.7960000000020955
-0.1926,1.0122,-0.1274,0.2078,0.2091,0.0579,-2.625,-1.8637,-5.9763,-7.142604670524657,-10.766258923576606,-1.8157504000377147,3.811999999998079
-0.1943,1.0228,-0.1229,0.2078,0.2091,0.0579,-2.625,-1.8637,-5.9763,-7.002283416651963,-10.704200032924964,-1.8157504000377147,3.811999999998079
-0.1947,1.0052,-0.127,0.2055,0.2113,0.0595,-2.7825,-1.6363,-5.9675,-7.105806924823279,-10.83084526938832,-1.8501127000387625,3.8329999999987194
-0.1987,1.0088,-0.1257,0.2055,0.2113,0.0595,-2.8875,-1.6538,-5.635,-7.104086163204744,-11.00275272165844,-1.863343100041458,3.8410000000003492
-0.1987,1.0088,-0.1257,0.2056,0.2104,0.0558,-2.45,-0.9275,-5.25,-7.103465530957011,-11.04654177795851,-1.869835600046155,3.8480000000054133
-0.1978,1.0128,-0.1225,0.2056,0.2104,0.0558,-2.45,-0.9275,-5.25,-7.014263127204344,-10.989445630283724,-1.869835600046155,3.8480000000054133
-0.1962,1.0132,-0.1204,0.2056,0.2104,0.0558,-1.4525,-0.7875,-5.3375,-6.968318796101035,-10.90878510871304,-1.8816481000456966,3.8630000000048312
-0.1957,1.0128,-0.1258,0.2073,0.2103,0.0653,-1.0325,-0.49,-5.2413,-7.012895156624786,-10.867046447674102,-1.8816481000456966,3.8630000000048312
-0.1967,1.0168,-0.1251,0.2073,0.2103,0.0653,-1.19,-0.5163,-5.0925,-7.01327301645524,-10.868302504874102,-1.8899089000436229,3.879000000000815
-0.1967,1.0168,-0.118,0.2058,0.2125,0.057,-1.19,-0.5163,-5.0925,-6.881633890670826,-10.875404586407594,-1.8899089000436229,3.879000000000815
-0.1933,1.0177,-0.118,0.2058,0.2125,0.057,-1.19,-0.595,-5.18,-6.792071377431432,-10.727084952832685,-1.8988339000476058,3.894000000007509
-0.1953,1.0114,-0.1218,0.2049,0.2101,0.0556,-1.6363,-0.4638,-4.97,-6.796042452690774,-10.825986309420637,-1.8988339000476058,3.894000000007509
-0.1974,1.0106,-0.1196,0.2049,0.2101,0.0556,-2.2662,-0.3588,-5.1363,-6.77900193661267,-10.944235823341078,-1.9045747000461648,3.9100000000034925
-0.1986,1.014,-0.1169,0.2049,0.2101,0.0556,-2.2662,-0.3588,-5.1363,-6.705118198569958,-10.995841261074617,-1.9045747000461648,3.9100000000034925
-0.2022,1.0133,-0.1252,0.2062,0.2104,0.0595,-1.4875,-0.21,-5.46,-6.76266252230752,-11.153005760322664,-1.9079347000468494,3.926000000006752
-0.2022,1.0133,-0.1252,0.2062,0.2104,0.0595,-1.0412,-0.4288,-5.7488,-6.873444628840966,-11.18945370150859,-1.9079347000468494,3.926000000006752
-0.2069,1.0096,-0.1218,0.207,0.2119,0.0555,-1.0412,-0.7613,-5.705,-6.875644610794066,-11.421952206621516,-1.9193542000464063,3.94100000000617
-0.2054,1.0095,-0.1178,0.207,0.2119,0.0555,-1.2163,-0.7613,-5.705,-6.804749703981346,-11.424490375382193,-1.9193542000464063,3.94100000000617
-0.2075,1.0111,-0.1205,0.207,0.2119,0.0555,-1.0588,-0.455,-4.8038,-6.8014692880348315,-11.498818255960256,-1.9266342000445789,3.9570000000021537
-0.2094,1.0097,-0.1191,0.2066,0.2118,0.0629,-1.0063,-0.8487,-4.5237,-6.7712843469088915,-11.610913456103376,-1.9266342000445789,3.9570000000021537
-0.2094,1.0097,-0.1193,0.2066,0.2118,0.0629,-1.0063,-0.8487,-4.5237,-6.757935954873053,-11.632470936143699,-1.9393647000502598,3.9720000000088476
-0.2081,1.0133,-0.1193,0.207,0.211,0.0584,-0.805,-0.6037,-4.2175,-6.7376355227679,-11.547086452051063,-1.9393647000502598,3.9720000000088476
-0.2063,1.0137,-0.1212,0.207,0.211,0.0584,-0.805,-1.225,-4.4538,-6.775434746251171,-11.447643341031291,-1.9589647000453398,3.9880000000048312
-0.2069,1.0165,-0.1244,0.207,0.211,0.0584,-0.5512,-0.9887,-4.6112,-6.882969752795583,-11.42703333590447,-1.9589647000453398,3.9880000000048312
-0.204,1.0136,-0.1209,0.207,0.2109,0.0659,-0.5512,-0.9887,-4.6112,-6.839805197040077,-11.326266844424255,-1.974783900041369,4.004000000000815
-0.2015,1.0108,-0.1146,0.207,0.2109,0.0659,-0.3325,-1.1375,-4.8562,-6.62573927320141,-11.22939002475194,-1.974783900041369,4.004000000000815
-0.2015,1.0108,-0.1146,0.2084,0.2095,0.0558,-0.6125,-1.1375,-5.0838,-6.544007940229581,-11.209540176471787,-1.9918464000407068,4.019000000000233
-0.1989,1.013,-0.1164,0.2084,0.2095,0.0558,-1.2075,-0.5863,-5.0575,-6.547562303673071,-11.074959212533825,-1.9918464000407068,4.019000000000233
-0.196,1.0144,-0.1144,0.2084,0.2095,0.0558,-1.2075,-0.5863,-5.0575,-6.510612725918619,-10.913272730211155,-2.001227200042618,4.0350000000034925
-0.1949,1.0146,-0.1152,0.207,0.211,0.0634,-1.3825,-0.4288,-4.6638,-6.502839471906515,-10.827426571423088,-2.001227200042618,4.0350000000034925
-0.1901,1.0121,-0.1165,0.207,0.211,0.0634,-1.3388,-0.0875,-4.585,-6.519404458050647,-10.620243613381101,-2.002539700042567,4.05000000000291
-0.1901,1.0121,-0.1197,0.2072,0.2107,0.059,-1.2862,0.2713,-4.2175,-6.5845585532424815,-10.575784352573148,-2.002539700042567,4.05000000000291
-0.1954,1.0073,-0.1197,0.2072,0.2107,0.059,-1.2862,0.2713,-4.2175,-6.640091224117112,-10.843234469333947,-1.9981989000436566,4.065999999998894
-0.2032,1.0103,-0.1196,0.2072,0.2111,0.051,-0.84,0.7525,-3.9113,-6.69125992547429,-11.216811456597606,-1.9981989000436566,4.065999999998894
-0.1978,1.0119,-0.1211,0.2073,0.2111,0.051,0.105,1.19,-4.4538,-6.77684618447187,-11.02853210595015,-1.9791589000397776,4.082000000002154
-0.1984,1.0149,-0.1212,0.2073,0.2111,0.051,0.28,1.1287,-5.005,-6.798877154441028,-10.99429876332687,-1.9622284000404346,4.097000000001572
-0.1951,1.0163,-0.1258,0.2067,0.2111,0.052,0.28,1.1287,-5.005,-6.969702700139168,-10.83104977955116,-1.9622284000404346,4.097000000001572
-0.1951,1.0163,-0.1258,0.2067,0.2111,0.052,0.2537,1.4963,-5.3113,-7.026914213459813,-10.796749315415306,-1.9382876000355573,4.113000000004831
-0.1993,1.0156,-0.1218,0.2078,0.2105,0.0581,0.3588,1.4612,-5.6525,-6.90043288032135,-10.968618015643475,-1.9382876000355573,4.113000000004831
-0.1951,1.0157,-0.116,0.2078,0.2105,0.0581,0.3588,1.4612,-6.0025,-6.641557341404605,-10.849293796266037,-1.9163696000364079,4.128000000004249
-0.1939,1.0145,-0.1235,0.2078,0.2105,0.0581,0.4462,1.54,-6.0025,-6.84541572401464,-10.771901326805947,-1.9163696000364079,4.128000000004249
-0.1931,1.015,-0.1208,0.2062,0.2098,0.0518,0.3938,2.3187,-6.16,-6.806008973596085,-10.718926835671741,-1.8792704000457205,4.144000000000233
-0.1931,1.015,-0.1208,0.2062,0.2098,0.0518,-0.1663,2.66,-5.635,-6.794597219906618,-10.703068481623687,-1.8792704000457205,4.144000000000233
-0.1923,1.0169,-0.1205,0.2066,0.2115,0.0588,-0.1663,2.66,-5.635,-6.772420016502223,-10.652399213633899,-1.83671040003705,4.1600000000034925
-0.1951,1.0121,-0.1214,0.2066,0.2115,0.0588,-0.4112,3.1325,-5.4425,-6.810302321825566,-10.79193236472742,-1.83671040003705,4.1600000000034925
-0.191,1.0095,-0.1192,0.2066,0.2115,0.0588,-1.3563,2.9488,-5.4862,-6.7911619326433,-10.67753476262086,-1.7924784000387664,4.17500000000291
-0.1917,1.0096,-0.1199,0.2065,0.2101,0.0558,-0.5775,3.5263,-5.74,-6.781440009506973,-10.677793569103834,-1.7924784000387664,4.17500000000291
-0.191,1.0076,-0.1179,0.2065,0.2101,0.0558,-0.5775,3.5263,-5.74,-6.724735457470713,-10.666415819741692,-1.7360576000272718,4.19100000000617
-0.191,1.0076,-0.1179,0.2068,0.2108,0.0571,0.0175,4.76,-5.7925,-6.692642057712378,-10.663536469027635,-1.7360576000272718,4.19100000000617
-0.1886,1.0075,-0.1179,0.2068,0.2108,0.0571,-0.0175,4.6813,-6.2387,-6.681300459242094,-10.570709880723312,-1.6564755000280893,4.208000000005995
-0.1917,1.0053,-0.1194,0.2068,0.2108,0.0571,-0.0437,6.3525,-5.74,-6.738577328416845,-10.683897406536015,-1.6564755000280893,4.208000000005995
-0.1896,1.0082,-0.1207,0.207,0.2124,0.0659,-0.0437,6.3525,-5.74,-6.7935301969232595,-10.603975961278257,-1.554835500053603,4.224000000001979
-0.1864,1.0124,-0.12,0.207,0.2124,0.0659,-0.14,6.8075,-5.6613,-6.772980451437782,-10.421821901686327,-1.554835500053603,4.224000000001979
-0.1864,1.0124,-0.12,0.2061,0.2091,0.0521,0.3675,7.9975,-5.39,-6.764068900075824,-10.375464519148862,-1.426875500027534,4.240000000005239
-0.1862,1.0092,-0.1214,0.2061,0.2091,0.0521,0.2625,8.4875,-5.5738,-6.827097154182984,-10.379246869704659,-1.426875500027534,4.240000000005239
-0.1929,1.011,-0.1225,0.2061,0.2091,0.0597,0.2625,8.4875,-5.5738,-6.88107569282667,-10.641156442425606,-1.2995630000324743,4.255000000004657
-0.1924,1.0116,-0.1167,0.2074,0.2109,0.0597,0.4025,9.1613,-5.4075,-6.677726169635009,-10.685727176718522,-1.2995630000324743,4.255000000004657
-0.1928,1.0088,-0.122,0.2074,0.2109,0.0597,0.3675,9.3275,-5.5213,-6.824410501432542,-10.729472584537216,-1.1503230000699365,4.27100000000064
-0.1961,1.0147,-0.1249,0.2078,0.2106,0.0516,0.3675,9.3275,-5.4775,-6.9542421133729055,-10.827448476033524,-1.1503230000699365,4.27100000000064
-0.1961,1.0147,-0.1249,0.2078,0.2106,0.0516,0.315,9.9575,-5.4775,-6.996313291639621,-10.850799564890147,-1.0009605000032822,4.286000000007334
-0.198,1.0182,-0.1246,0.207,0.211,0.0518,0.315,10.325,-5.8275,-6.983260449871016,-10.905654116566808,-1.0009605000032822,4.286000000007334
-0.1986,1.0164,-0.1225,0.207,0.211,0.0518,-0.2013,10.115,-6.5975,-6.916864917054761,-10.954843400799975,-0.8391205000439074,4.302000000003318
-0.2019,1.0144,-0.1274,0.207,0.211,0.0518,-0.2013,10.115,-6.5975,-7.061427876778614,-11.100839804322915,-0.8391205000439074,4.302000000003318
-0.2047,1.0135,-0.1263,0.2093,0.212,0.0496,-0.5775,9.975,-6.4313,-7.083577807223801,-11.261555765360962,-0.6795205000113926,4.3180000000065775
-0.2047,1.0135,-0.1263,0.2093,0.212,0.0496,-0.9538,9.6687,-6.3263,-7.092017932684116,-11.311822928657358,-0.6795205000113926,4.3180000000065775
-0.2098,1.0131,-0.1251,0.2102,0.2114,0.0525,-0.5688,9.0825,-6.1775,-7.064170401592125,-11.527598186934924,-0.5432830000827632,4.332999999998719
-0.2117,1.0121,-0.125,0.2102,0.2114,0.0525,-0.5688,9.0825,-6.1775,-7.051749484716304,-11.670360807616078,-0.5432830000827632,4.332999999998719
-0.2158,1.0127,-0.1261,0.2102,0.2114,0.0525,-0.4988,8.47,-6.09,-7.076837725513987,-11.86468672018575,-0.40776300005515415,4.349000000001979
-0.2162,1.0148,-0.1264,0.209,0.2102,0.0361,-0.0088,7.77,-6.3,-7.091368016420408,-11.91578110134047,-0.40776300005515415,4.349000000001979
-0.2145,1.0126,-0.1273,0.209,0.2102,0.0361,-0.0437,7.1487,-6.2038,-7.137451739097339,-11.882816976625513,-0.3005325000073016,4.364000000008673
-0.2145,1.0126,-0.1273,0.2094,0.2113,0.0477,-0.0437,7.1487,-6.2038,-7.1548507195862046,-11.873315788631324,-0.3005325000073016,4.364000000008673
-0.2149,1.0111,-0.1282,0.2094,0.2113,0.0477,-0.5512,6.6413,-6.2387,-7.192835655173685,-11.896882623855431,-0.1942717000339752,4.380000000004657
-0.2151,1.0113,-0.1251,0.2094,0.2113,0.0477,0.3237,5.6175,-6.1075,-7.098553940520161,-11.913120566496763,-0.1942717000339752,4.380000000004657
-0.2118,1.0111,-0.1276,0.2083,0.2124,0.0473,0.0962,4.6287,-5.8187,-7.158911186631847,-11.785246500028007,-0.12021250001888735,4.396000000007916
-0.2136,1.0177,-0.1282,0.2083,0.2124,0.0473,0.0962,4.6287,-5.8187,-7.172277007440779,-11.768864722951937,-0.12021250001888735,4.396000000007916
-0.2136,1.0177,-0.1282,0.2089,0.2121,0.045,0.385,3.7275,-5.2413,-7.177321624501304,-11.764420800302918,-0.06430000004817818,4.411000000000058
-0.212,1.0199,-0.1246,0.2089,0.2121,0.045,0.105,3.0187,-5.0312,-7.041057361983455,-11.681088135084186,-0.06430000004817818,4.411000000000058
-0.2106,1.0163,-0.1283,0.2089,0.2121,0.0426,-0.1488,2.3888,-4.7162,-7.134529530964031,-11.630400220729875,-0.026079200040391583,4.427000000003318
-0.2122,1.0173,-0.127,0.2086,0.2126,0.0426,-0.1488,2.3888,-4.7162,-7.123287802943202,-11.681337950746055,-0.026079200040391583,4.427000000003318
-0.2134,1.0153,-0.1268,0.2086,0.2126,0.0426,-0.2275,1.4787,-4.4713,-7.120600098652779,-11.761803083723228,-0.003898700030493342,4.442000000010012
-0.2112,1.0129,-0.1281,0.2083,0.2137,0.0515,-0.4375,0.3063,-4.7162,-7.169154957168599,-11.702486615435074,-0.003898700030493342,4.442000000010012
-0.2112,1.0129,-0.1281,0.2083,0.2137,0.0515,-0.4375,0.3063,-4.5588,-7.19068852533662,-11.69042752754742,0.0010020999660478314,4.457999999998719
-0.2084,1.011,-0.1289,0.2087,0.211,0.0488,-0.6825,-0.6037,-4.5588,-7.2284629104797755,-11.582591055393676,0.0010020999660478314,4.457999999998719
-0.2071,1.0099,-0.1269,0.2087,0.211,0.0488,-0.21,-1.225,-4.83,-7.188787054995133,-11.51781521537811,-0.018597900037945217,4.474000000001979
-0.2025,1.0113,-0.1276,0.2087,0.211,0.0488,0.0175,-1.715,-4.9875,-7.190341228786558,-11.296309721940048,-0.018597900037945217,4.474000000001979
-0.1987,1.0116,-0.1282,0.2083,0.2125,0.0545,0.0175,-1.715,-4.9875,-7.210688417663375,-11.0841938268804,-0.04432290003694696,4.489000000001397
-0.1987,1.0116,-0.1282,0.2083,0.2125,0.0545,-0.2887,-2.1175,-4.375,-7.217637614778457,-11.037505942521495,-0.04432290003694696,4.489000000001397
-0.1987,1.0141,-0.1261,0.2088,0.2112,0.0482,-0.5775,-2.17,-3.8937,-7.14938246113667,-11.009206741693424,-0.07904290004402034,4.505000000004657
-0.1941,1.0117,-0.1281,0.2088,0.2112,0.0482,-0.3413,-2.4325,-4.3225,-7.187841811153114,-10.820010392564182,-0.11553040004260444,4.5200000000040745
-0.195,1.0129,-0.1316,0.2088,0.2112,0.0482,-0.3413,-2.4325,-4.3225,-7.311270755411238,-10.81056134530918,-0.11553040004260444,4.5200000000040745
-0.1942,1.0123,-0.1288,0.2087,0.2119,0.046,0.0613,-2.4062,-4.4887,-7.272930916644709,-10.781774686997911,-0.15402960003294036,4.536000000000058
-0.1928,1.0122,-0.1302,0.2087,0.2119,0.046,-0.0787,-2.7562,-4.9963,-7.308009186807646,-10.716080663114893,-0.15402960003294036,4.536000000000058
-0.1928,1.0122,-0.1302,0.209,0.211,0.046,-0.91,-2.7387,-5.3637,-7.317551127461442,-10.702360064526566,-0.1978488000418675,4.552000000003318
-0.1928,1.0098,-0.1271,0.209,0.211,0.046,-0.91,-2.7387,-5.3637,-7.2544943239918664,-10.721035308776528,-0.1978488000418675,4.552000000003318
-0.1938,1.0095,-0.1331,0.209,0.211,0.046,-0.7437,-2.485,-5.3725,-7.379357095488719,-10.763343826673673,-0.23512380004042105,4.567000000002736
-0.1905,1.0086,-0.1331,0.2079,0.2113,0.0518,-0.3588,-2.59,-5.845,-7.458361241544715,-10.647056502660142,-0.23512380004042105,4.567000000002736
-0.1922,1.0082,-0.129,0.2079,0.2113,0.0518,-0.525,-2.625,-5.7488,-7.368447289861776,-10.692413544091057,-0.2771238000489776,4.583000000005995
-0.1922,1.0082,-0.129,0.2094,0.2107,0.0423,-0.525,-2.625,-5.7488,-7.326961531164875,-10.70397102706353,-0.2771238000489776,4.583000000005995
-0.195,1.0085,-0.1303,0.2094,0.2107,0.0423,-0.0437,-2.275,-5.8625,-7.348729625592999,-10.815665113402336,-0.31124880003110056,4.597999999998137
-0.198,1.013,-0.133,0.2094,0.2107,0.0423,-0.49,-2.0213,-5.5825,-7.420265744238048,-10.930556422617922,-0.31124880003110056,4.597999999998137
-0.199,1.0146,-0.1313,0.2074,0.2108,0.0435,-0.49,-2.1525,-5.4163,-7.39484426631909,-10.989350805824118,-0.3456888000381169,4.614000000001397
-0.199,1.0138,-0.1297,0.2074,0.2108,0.0435,-0.8313,-2.1525,-5.4163,-7.346569472530802,-11.011181566868899,-0.3456888000381169,4.614000000001397
-0.199,1.0135,-0.1294,0.2099,0.2123,0.0488,-1.1025,-2.0825,-5.215,-7.320369754021773,-11.019119491928992,-0.3790088000449051,4.630000000004657
-0.1993,1.0135,-0.1294,0.2099,0.2123,0.0488,-0.7262,-1.7938,-5.5825,-7.298543184132776,-11.033099237917229,-0.3790088000449051,4.630000000004657
-0.2037,1.0134,-0.1291,0.2082,0.214,0.0518,-0.7262,-1.7938,-5.5825,-7.279589720162981,-11.21707558790908,-0.40591580004386096,4.6450000000040745
-0.2,1.0134,-0.1276,0.2082,0.214,0.0518,-1.3125,-1.855,-5.9325,-7.251212126346097,-11.115820299900928,-0.40591580004386096,4.6450000000040745
-0.1994,1.0111,-0.1308,0.2082,0.214,0.0518,-1.5313,-1.8463,-5.7925,-7.267838358947654,-11.079050675941069,-0.43545660004987924,4.661000000007334
-0.2008,1.0099,-0.1257,0.21,0.2117,0.0405,-1.4,-2.1088,-5.3375,-7.228737606967702,-11.14256603928247,-0.43545660004987924,4.661000000007334
-0.2008,1.0099,-0.1257,0.21,0.2117,0.0405,-1.4,-2.1088,-5.3375,-7.198481946149612,-11.15721517997601,-0.4670886000333082,4.675999999999476
-0.2029,1.0121,-0.1283,0.208,0.2098,0.0454,-0.7875,-1.9338,-5.2937,-7.210902673052436,-11.227549979548856,-0.4670886000333082,4.675999999999476
-0.2009,1.0115,-0.1245,0.208,0.2098,0.0454,-1.295,-1.8375,-4.8038,-7.155745437731521,-11.167227072520197,-0.4964886000392978,4.692000000002736
-0.2025,1.0137,-0.1283,0.208,0.2098,0.0454,-0.63,-1.9162,-5.1013,-7.185416667761932,-11.200450680200634,-0.4964886000392978,4.692000000002736
-0.2004,1.017,-0.1275,0.2094,0.2114,0.0374,-0.63,-1.9162,-5.1013,-7.16501835364667,-11.09297577685668,-0.5271478000455438,4.708000000005995
-0.2004,1.0203,-0.1216,0.2094,0.2114,0.0374,-0.5512,-1.61,-4.8562,-6.968606942383904,-11.047833674061716,-0.5271478000455438,4.708000000005995
-0.2017,1.0203,-0.1216,0.2098,0.2113,0.0476,-0.91,-1.8375,-5.0925,-6.89305729814095,-11.093164447983455,-0.5547103000444743,4.723000000005413
-0.2014,1.0169,-0.1227,0.2098,0.2113,0.0476,-1.0675,-1.225,-5.1188,-6.888072900181644,-11.117207753649044,-0.5547103000444743,4.723000000005413
-0.2012,1.0151,-0.1258,0.2098,0.2113,0.0476,-1.0675,-1.225,-5.1188,-6.955946214581408,-11.125741013564205,-0.5743103000395543,4.739000000001397
-0.2013,1.0164,-0.1232,0.2093,0.2121,0.0544,-1.3038,-1.0762,-5.53,-6.943432841962524,-11.123818471072504,-0.5743103000395543,4.739000000001397
-0.2021,1.0152,-0.1193,0.2093,0.2121,0.0544,-1.1113,-1.5313,-6.0375,-6.854816766859139,-11.167385270381507,-0.597279800038663,4.754000000000815
-0.2021,1.0152,-0.1193,0.2091,0.2117,0.0518,-1.3038,-1.715,-6.0725,-6.812140727393157,-11.17932389332825,-0.597279800038663,4.754000000000815
-0.2029,1.0146,-0.1227,0.2091,0.2117,0.0518,-1.3038,-1.715,-6.0725,-6.835478323440851,-11.215299333082047,-0.6247198000442532,4.7700000000040745
-0.2059,1.0154,-0.124,0.2091,0.2117,0.0518,-0.6212,-1.855,-5.9763,-6.901144907876009,-11.33584254885139,-0.6247198000442532,4.7700000000040745
-0.2021,1.0119,-0.1244,0.2091,0.2127,0.0498,-1.0588,-1.9775,-5.11,-6.942822411433065,-11.23948056558031,-0.6563598000506992,4.786000000007334
-0.2011,1.0123,-0.1239,0.2091,0.2127,0.0498,-1.0588,-1.9775,-4.9788,-6.9564595592537835,-11.172812971225511,-0.6563598000506992,4.786000000007334
-0.2011,1.0121,-0.1241,0.2094,0.2146,0.0463,-1.2775,-1.715,-4.9788,-6.966441904757161,-11.160073753187833,-0.6820848000372226,4.800999999999476
-0.2025,1.0121,-0.1241,0.2094,0.2146,0.0463,-1.3212,-1.7062,-5.1013,-6.972955293019485,-11.216523150488156,-0.6820848000372226,4.800999999999476
-0.2029,1.0117,-0.1224,0.2102,0.2106,0.0506,-1.3038,-1.89,-5.4338,-6.952085503637209,-11.250075547010768,-0.7123248000433833,4.817000000002736
-0.2039,1.0143,-0.1225,0.2102,0.2106,0.0506,-1.3038,-1.89,-5.4338,-6.933712923332301,-11.277924819469954,-0.7123248000433833,4.817000000002736
-0.2031,1.0121,-0.1271,0.2102,0.2106,0.0506,-1.3563,-2.0125,-5.5825,-6.9900660349850785,-11.26497253432792,-0.7425123000422118,4.832000000002154
-0.2076,1.0032,-0.1231,0.208,0.211,0.0422,-1.19,-2.2925,-5.9938,-6.991930172478287,-11.51402003422059,-0.7425123000422118,4.832000000002154
-0.2076,1.0032,-0.1231,0.208,0.211,0.0422,-0.4988,-2.4413,-6.1163,-6.993949320263898,-11.580835693870936,-0.7815731000501696,4.848000000005413
-0.21,1.0014,-0.1178,0.2092,0.2116,0.0462,-0.4988,-2.4413,-6.1163,-6.838997629033265,-11.713101787441424,-0.8206339000403645,4.864000000001397
-0.2172,1.008,-0.1228,0.2092,0.2116,0.0462,-0.735,-3.0187,-6.02,-6.891261441628488,-11.974733113801783,-0.8206339000403645,4.864000000001397
-0.2125,1.0167,-0.1212,0.2092,0.2116,0.0462,-1.0588,-3.8412,-6.0462,-6.855131502100743,-11.793651716023,-0.8782519000381287,4.879000000000815
-0.2091,1.0196,-0.1168,0.2098,0.212,0.0521,-0.6475,-4.2438,-5.74,-6.691563502640462,-11.586786720637438,-0.8782519000381287,4.879000000000815
-0.2091,1.0196,-0.121,0.2098,0.212,0.0521,-0.6475,-4.2438,-5.74,-6.73055114251244,-11.530232556200314,-0.946152700051962,4.8950000000040745
-0.2062,1.0216,-0.121,0.2094,0.2114,0.0482,-1.1025,-5.1363,-5.075,-6.739524815342269,-11.376775563294787,-0.946152700051962,4.8950000000040745
-0.2107,1.0236,-0.1246,0.2094,0.2114,0.0482,-2.03,-6.0637,-4.9437,-6.79020812237004,-11.512185178806925,-1.0371082000484324,4.9100000000034925
-0.2162,1.0209,-0.1222,0.2094,0.2114,0.0482,-2.17,-6.545,-5.1363,-6.801691405147614,-11.794840547472836,-1.0371082000484324,4.9100000000034925
-0.2149,1.0141,-0.1213,0.2105,0.2109,0.044,-2.17,-6.545,-5.1363,-6.807913278270359,-11.86309701260585,-1.1418282000697666,4.926000000006752
-0.2131,1.0114,-0.1243,0.2105,0.2109,0.044,-1.8112,-7.2975,-5.4687,-6.829004373573469,-11.82395030175579,-1.1418282000697666,4.926000000006752
-0.2131,1.0114,-0.1243,0.2101,0.2109,0.0542,-1.5225,-7.9187,-5.3987,-6.854767948250619,-11.814592217681412,-1.2685274000379625,4.942000000002736
-0.2122,1.0075,-0.1193,0.2101,0.2109,0.0542,-1.2425,-8.9075,-5.6087,-6.823210130541173,-11.813864027534358,-1.2685274000379625,4.942000000002736
-0.2101,1.0111,-0.1161,0.2101,0.2109,0.0542,-1.2425,-8.9075,-5.6087,-6.738541781506349,-11.7009602875021,-1.4021399000327777,4.957000000002154
-0.2095,1.0152,-0.1157,0.2103,0.2133,0.0456,-1.5488,-9.4237,-5.3113,-6.708826294374522,-11.613207521101106,-1.4021399000327777,4.957000000002154
-0.2083,1.0176,-0.1157,0.2103,0.2133,0.0456,-1.155,-9.4412,-5.2238,-6.631155852834614,-11.5226538984001,-1.5531991000635526,4.973000000005413
-0.2083,1.0176,-0.1128,0.2088,0.2122,0.059,-1.155,-9.4412,-4.8475,-6.524271597184779,-11.504645910351629,-1.5531991000635526,4.973000000005413
-0.2054,1.0186,-0.1128,0.2088,0.2122,0.059,-1.1287,-9.45,-4.8475,-6.4503497917704475,-11.368803720402424,-1.6949491000580519,4.988000000004831
-0.2033,1.0174,-0.1109,0.2076,0.2131,0.0516,-1.5575,-9.5463,-4.655,-6.423082547516158,-11.261937296294814,-1.6949491000580519,4.988000000004831
-0.1992,1.0153,-0.1127,0.2076,0.2131,0.0516,-2.03,-9.1875,-4.4012,-6.400595519884934,-11.07742697235994,-1.8419491000879997,5.004000000008091
-0.2032,1.0141,-0.113,0.2076,0.2131,0.0516,-2.03,-9.1875,-4.4012,-6.389887445335432,-11.227531416902092,-1.8419491000879997,5.004000000008091
-0.2003,1.0116,-0.1114,0.2093,0.2123,0.0484,-2.5463,-9.205,-4.3488,-6.341223815559378,-11.151783975064639,-1.9892290999840543,5.019999999996799
-0.2003,1.0116,-0.1114,0.2093,0.2123,0.0484,-1.8988,-8.75,-4.7688,-6.33147203788859,-11.137839416242773,-1.9892290999840543,5.019999999996799
-0.2014,1.0094,-0.1127,0.209,0.2116,0.0558,-1.3038,-7.9975,-5.2413,-6.342453610211659,-11.198228174780349,-2.1091916000375885,5.0350000000034925
-0.1988,1.0105,-0.1127,0.209,0.2116,0.0558,-1.3038,-7.9975,-5.2413,-6.348437674139434,-11.093527815808217,-2.1091916000375885,5.0350000000034925
-0.1984,1.0105,-0.1139,0.209,0.2116,0.0558,-1.6187,-7.7438,-5.4687,-6.354103283668494,-11.052648772927947,-2.2330924000628305,5.051000000006752
-0.1964,1.012,-0.11,0.2069,0.2108,0.0674,-0.945,-6.9738,-4.7337,-6.2896674988387415,-10.946989702862485,-2.2330924000628305,5.051000000006752
-0.1964,1.012,-0.112,0.2069,0.2108,0.0674,-0.7088,-6.2737,-4.2613,-6.30239457370494,-10.923264674167367,-2.3271979000591787,5.06600000000617
-0.1968,1.0108,-0.112,0.2082,0.212,0.0575,-0.7088,-6.2737,-4.2613,-6.31249842708506,-10.946777702855854,-2.3271979000591787,5.06600000000617
-0.1995,1.0119,-0.1134,0.2082,0.212,0.0575,-0.98,-5.6087,-4.1562,-6.346508842512739,-11.060265210125245,-2.416937100036652,5.082000000002154
-0.1979,1.0113,-0.1124,0.2082,0.212,0.0575,-1.2425,-4.6813,-4.0687,-6.345127635032704,-11.01577945633846,-2.416937100036652,5.082000000002154
-0.1963,1.0149,-0.109,0.2097,0.2108,0.0598,-0.315,-4.0775,-4.2263,-6.220522369764933,-10.909639538684957,-2.4821771000202757,5.097999999998137
-0.1935,1.0153,-0.1118,0.2097,0.2108,0.0598,-0.315,-4.0775,-4.2263,-6.257195847756381,-10.76048291856285,-2.4821771000202757,5.097999999998137
-0.1935,1.0153,-0.1118,0.2081,0.2105,0.0558,-0.7437,-3.1588,-4.0425,-6.27015809666369,-10.73289852547314,-2.5295591000414204,5.113000000004831
-0.1939,1.0155,-0.1117,0.2081,0.2105,0.0558,-0.4025,-2.555,-4.2175,-6.274023195316254,-10.744145608889916,-2.5295591000414204,5.113000000004831
-0.1928,1.0111,-0.1134,0.2081,0.2105,0.0558,-0.4025,-2.065,-4.8125,-6.344573616654177,-10.73295506415688,-2.5625991000331267,5.129000000000815
-0.1922,1.0106,-0.1093,0.2099,0.2114,0.0576,-0.0875,-2.065,-4.8125,-6.238713016944009,-10.712467277326448,-2.5625991000331267,5.129000000000815
-0.1959,1.0101,-0.1111,0.2099,0.2114,0.0576,0.1488,-1.225,-4.6638,-6.263318025608659,-10.871804483781911,-2.580974100032414,5.144000000000233
-0.1959,1.0101,-0.1151,0.2099,0.2106,0.0637,0.0525,-0.77,-4.5675,-6.414257785400283,-10.9000118907196,-2.5932941000349237,5.1600000000034925
-0.1975,1.0099,-0.1151,0.2099,0.2106,0.0637,0.0525,-0.77,-4.5675,-6.470059425207314,-10.977118240078475,-2.5932941000349237,5.1600000000034925
-0.1961,1.0118,-0.1128,0.2089,0.2122,0.0524,-0.1925,-0.2013,-5.0575,-6.4048200462949145,-10.918873181397295,-2.5965149000341152,5.175999999999476
-0.1975,1.0099,-0.1137,0.2089,0.2122,0.0524,-0.3938,-0.4112,-5.1712,-6.415440280143653,-10.980083379906366,-2.5965149000341152,5.175999999999476
-0.1982,1.0115,-0.1157,0.2089,0.2122,0.0524,-0.385,0.0962,-4.9,-6.47773970372933,-11.008783655882533,-2.595071900033471,5.19100000000617
-0.199,1.0124,-0.118,0.207,0.2117,0.0589,-0.385,0.0962,-4.9,-6.574264452899044,-11.039394151690342,-2.595071900033471,5.19100000000617
-0.199,1.0124,-0.118,0.207,0.2117,0.0589,0.0437,1.0412,-4.8913,-6.621111930672628,-11.045810136829708,-2.578412700037653,5.207000000002154
-0.1981,1.0145,-0.1155,0.2083,0.2127,0.0601,-0.14,0.8575,-4.8562,-6.5444782298488615,-10.993539195513293,-2.578412700037653,5.207000000002154
-0.1997,1.0125,-0.1122,0.2083,0.2127,0.0601,-0.21,0.8138,-4.9612,-6.412473196321471,-11.070556575358136,-2.5662057000381266,5.222000000001572
-0.202,1.0164,-0.1161,0.2083,0.2127,0.0601,-0.21,0.8138,-4.9612,-6.474571274220294,-11.148695583765459,-2.5662057000381266,5.222000000001572
-0.2022,1.0174,-0.1113,0.2078,0.2143,0.0496,-0.3588,1.0325,-5.215,-6.342311087129969,-11.169583083630505,-2.549685700034761,5.238000000004831
-0.2022,1.0174,-0.1113,0.2078,0.2143,0.0496,-0.6737,0.4988,-6.02,-6.29226335936236,-11.173969672332943,-2.549685700034761,5.238000000004831
-0.1999,1.0131,-0.1161,0.208,0.211,0.055,-1.3125,0.2625,-6.2475,-6.359773942049431,-11.115338727583255,-2.544960700035708,5.256000000001222
-0.2005,1.0113,-0.117,0.208,0.211,0.055,-1.3125,0.2625,-6.2475,-6.425728108868273,-11.133922281059602,-2.544960700035708,5.256000000001222
-0.2009,1.0136,-0.115,0.208,0.211,0.055,-0.8138,-0.2625,-6.3787,-6.44780170338909,-11.13906221962133,-2.5488982000355556,5.27100000000064
-0.1999,1.0141,-0.1139,0.2082,0.2103,0.0634,-0.9013,-0.42,-6.7288,-6.430397104211228,-11.102215267293007,-2.5488982000355556,5.27100000000064
-0.2025,1.0111,-0.1138,0.2082,0.2103,0.0634,-1.2687,-0.42,-6.1425,-6.427795526945292,-11.212408904477742,-2.5556182000369247,5.2870000000039
-0.2025,1.0111,-0.1138,0.2098,0.2118,0.056,-1.2687,-0.42,-6.1425,-6.425968121049907,-11.243618389192637,-2.5556182000369247,5.2870000000039
-0.202,1.0121,-0.1144,0.2098,0.2118,0.056,-0.9275,-0.5337,-6.5975,-6.435907519221816,-11.225968273887544,-2.563623700036614,5.302000000003318
-0.2043,1.0134,-0.1136,0.2098,0.2118,0.056,-0.8838,-1.0938,-6.6937,-6.418081451963648,-11.294333897396426,-2.563623700036614,5.302000000003318
-0.2054,1.0137,-0.1119,0.2094,0.2127,0.0616,-0.8838,-1.0938,-6.6413,-6.364953285570978,-11.356489632327374,-2.5811245000401795,5.3180000000065775
-0.2065,1.0116,-0.1133,0.2094,0.2127,0.0616,-0.9712,-1.2075,-6.6413,-6.3756739265165185,-11.430960471726179,-2.5811245000401795,5.3180000000065775
-0.2065,1.0116,-0.1133,0.2111,0.213,0.0552,-0.525,-1.12,-6.4662,-6.383680917389218,-11.456182268155825,-2.599044500035681,5.334000000002561
-0.2087,1.0127,-0.1135,0.2111,0.213,0.0552,-0.28,-1.2425,-6.51,-6.390209071966534,-11.53686123018803,-2.599044500035681,5.334000000002561
-0.2084,1.0116,-0.1126,0.2111,0.213,0.0546,-0.28,-1.2425,-6.51,-6.3674766382193475,-11.560309980399087,-2.6176820000349577,5.349000000001979
-0.2044,1.0122,-0.111,0.2102,0.2134,0.0546,-0.63,-1.8725,-6.5275,-6.31117127186122,-11.417065645451844,-2.6176820000349577,5.349000000001979
-0.2069,1.0135,-0.1129,0.2102,0.2134,0.0546,-0.7613,-1.7763,-5.6875,-6.332941325453202,-11.455977778823597,-2.646102800040748,5.365000000005239
-0.2044,1.0117,-0.1166,0.2101,0.2132,0.0546,-0.1138,-1.9162,-5.8012,-6.480771419292922,-11.37656080711524,-2.646102800040748,5.365000000005239
-0.2044,1.0117,-0.1166,0.2101,0.2132,0.0546,-0.1138,-1.9162,-5.8012,-6.538102237192054,-11.356050617560921,-2.6748458000396322,5.380000000004657
-0.2067,1.0138,-0.1133,0.2103,0.2127,0.0552,-0.5163,-1.995,-5.7663,-6.450919096552011,-11.429280582574554,-2.6748458000396322,5.380000000004657
-0.2036,1.013,-0.114,0.2103,0.2127,0.0552,-0.5075,-1.995,-5.4163,-6.434629513425059,-11.326436253103232,-2.706765800046135,5.396000000007916
-0.2036,1.0149,-0.1163,0.2103,0.2127,0.0552,-0.0787,-2.2225,-5.7137,-6.497928636040099,-11.285542475962636,-2.706765800046135,5.396000000007916
-0.205,1.0132,-0.1135,0.2108,0.2123,0.0528,-0.0787,-2.2225,-5.7137,-6.432344881216918,-11.347889866957834,-2.7423258000372086,5.4120000000039
-0.205,1.0132,-0.1135,0.2108,0.2123,0.0528,0.0263,-1.785,-5.32,-6.4066514587139345,-11.364117012067704,-2.7423258000372086,5.4120000000039
-0.203,1.0109,-0.1161,0.2099,0.2131,0.0557,-0.1838,-1.7938,-4.6025,-6.493823938107919,-11.298491559330017,-2.7692328000361646,5.427000000003318
-0.2026,1.014,-0.1104,0.2099,0.2131,0.0557,-0.2275,-1.435,-4.7337,-6.32731528351348,-11.247358607835931,-2.7692328000361646,5.427000000003318
-0.2042,1.0136,-0.1133,0.2099,0.2131,0.0557,-0.2275,-1.435,-4.7337,-6.357457451350526,-11.30663290068318,-2.792192800030401,5.4429999999993015
-0.2065,1.0114,-0.1145,0.2101,0.2128,0.0517,0.1838,-1.2775,-4.2263,-6.423643976103154,-11.43863374171742,-2.792192800030401,5.4429999999993015
-0.2073,1.0157,-0.1143,0.2101,0.2128,0.0517,-0.1225,-1.0237,-3.78,-6.421825286545413,-11.460494497016496,-2.8075483000372534,5.458000000005995
-0.2073,1.0157,-0.1143,0.2084,0.2128,0.0549,2.1175,-0.8487,-3.2987,-6.4209076345250535,-11.464261175124147,-2.8075483000372534,5.458000000005995
-0.2065,1.0164,-0.1114,0.2084,0.2128,0.0549,0.8225,-0.8487,-3.2987,-6.302055865528265,-11.425085768691218,-2.8211275000400198,5.474000000009255
-0.2056,1.0168,-0.1136,0.2084,0.2128,0.0549,0.7175,-0.7175,-2.9838,-6.353483051612762,-11.371779895073493,-2.8211275000400198,5.474000000009255
-0.2081,1.017,-0.1144,0.2102,0.211,0.0646,0.1312,-0.9013,-3.5788,-6.395209341803665,-11.473750685347781,-2.8634886000322552,5.52100000000064
-0.207,1.0189,-0.1174,0.2102,0.211,0.0646,0.1312,-0.9013,-3.5788,-6.509882089520694,-11.420826339263543,-2.8770081000317305,5.536000000000058
-0.207,1.0189,-0.1174,0.2107,0.2125,0.055,-0.14,-1.19,-3.7013,-6.5481286692477605,-11.41217731548256,-2.8770081000317305,5.536000000000058
-0.2066,1.019,-0.1187,0.2107,0.2125,0.055,0.2187,-1.1988,-3.6925,-6.6112336841997275,-11.390604998613554,-2.896188900035638,5.552000000003318
-0.2074,1.0192,-0.118,0.2107,0.2125,0.0603,-0.1488,-1.015,-3.9813,-6.606925733841508,-11.421369939435161,-2.896188900035638,5.552000000003318
-0.2108,1.0184,-0.1224,0.2087,0.2114,0.0603,-0.1488,-1.015,-3.9813,-6.756511399725264,-11.57957593652297,-2.896188900035638,5.552000000003318
-0.2084,1.0182,-0.1209,0.2087,0.2114,0.0603,-0.245,-1.2687,-4.3225,-6.765396687148974,-11.505693767120041,-2.896188900035638,5.552000000003318
-0.2031,1.0164,-0.1221,0.2083,0.212,0.0606,-0.5163,-1.5313,-4.6025,-6.811179341690947,-11.2775970068694,-2.896188900035638,5.552000000003318
-0.2031,1.0164,-0.1221,0.2083,0.212,0.0606,-0.6125,-1.1463,-4.5413,-6.831391257543065,-11.232482599425008,-2.896188900035638,5.552000000003318
-0.2038,1.0131,-0.1229,0.2093,0.2118,0.0562,-0.6125,-1.1463,-4.5413,-6.875735384451047,-11.281563102136726,-2.914529700031034,5.5679999999993015
-0.2,1.0125,-0.1185,0.2093,0.2118,0.0562,-1.2337,-0.7262,-4.4538,-6.812730859452869,-11.134765621302618,-2.914529700031034,5.5679999999993015
-0.1981,1.0108,-0.1171,0.2093,0.2118,0.0562,-1.4262,-0.0787,-4.1825,-6.769736471630866,-11.038135731662537,-2.914529700031034,5.5679999999993015
-0.1986,1.0149,-0.1182,0.2098,0.2118,0.0488,-1.33,0.5512,-3.745,-6.736030037413826,-11.005983611415372,-2.9062617000273443,5.583000000005995
-0.1986,1.0149,-0.1182,0.2098,0.2118,0.0488,-1.33,0.5512,-3.745,-6.711288555471263,-11.00056009012618,-2.897442500029558,5.599000000001979
-0.1993,1.018,-0.1169,0.2098,0.2107,0.0549,-1.7938,1.1812,-3.7975,-6.696501632996707,-11.005480026880663,-2.897442500029558,5.599000000001979
-0.1972,1.0172,-0.1154,0.2098,0.2107,0.0549,-1.7763,1.0412,-3.78,-6.679148839074098,-10.920659769314703,-2.8818245000301643,5.614000000001397
-0.1971,1.0153,-0.1157,0.2098,0.2107,0.0549,-1.7413,1.8375,-3.6662,-6.670842975600393,-10.91779771330639,-2.8818245000301643,5.614000000001397
-0.1978,1.0155,-0.1146,0.2093,0.2114,0.0435,-1.7413,1.8375,-3.6662,-6.660005760902204,-10.948206710103833,-2.8524245000241746,5.630000000004657
-0.1968,1.0126,-0.1124,0.2093,0.2114,0.0435,-1.82,2.345,-3.6488,-6.6230985109804905,-10.93542126386974,-2.8524245000241746,5.630000000004657
-0.1968,1.0126,-0.1124,0.2091,0.2112,0.0548,-1.6363,2.3275,-3.71,-6.6077548743622225,-10.933303347663447,-2.8151845000335225,5.64600000000064
-0.1964,1.0078,-0.1153,0.2091,0.2112,0.0548,-1.6363,2.3275,-3.1412,-6.6034530437285275,-10.954089982315711,-2.8151845000335225,5.64600000000064
-0.1968,1.0074,-0.1158,0.2091,0.2112,0.0548,-0.9975,2.6163,-3.1412,-6.584545209544308,-10.97876001241203,-2.7759400000160093,5.661000000007334
-0.1962,1.0071,-0.1144,0.2066,0.2109,0.0485,-1.47,2.5988,-3.6662,-6.565646325229418,-10.95925767887693,-2.7759400000160093,5.661000000007334
-0.1948,1.0089,-0.1135,0.2066,0.2109,0.0485,-1.4,3.185,-3.7713,-6.5324089451991485,-10.877988534622313,-2.7249800000288014,5.677000000003318
-0.1948,1.0089,-0.1135,0.2086,0.2104,0.0565,-1.4,3.185,-3.7713,-6.506690286458433,-10.864218710449144,-2.7249800000288014,5.677000000003318
-0.1973,1.011,-0.1135,0.2086,0.2104,0.0565,-1.0588,3.3863,-4.1213,-6.467443235997566,-10.955385429705531,-2.6741855000307724,5.692000000002736
-0.194,1.0101,-0.1147,0.2086,0.2104,0.0543,-0.4375,3.4388,-3.9025,-6.473521078877999,-10.8302898376704,-2.6741855000307724,5.692000000002736
-0.1913,1.0049,-0.1122,0.2074,0.2128,0.0543,-0.4725,4.235,-3.605,-6.417103450757696,-10.73254190213207,-2.6064255000477816,5.707999999998719
-0.1862,1.0075,-0.1136,0.2074,0.2128,0.0543,-0.4725,4.235,-3.605,-6.4259361239652835,-10.460161628277312,-2.6064255000477816,5.707999999998719
-0.1903,1.0122,-0.1141,0.2091,0.2087,0.0491,-0.6388,4.13,-3.9987,-6.428792214676213,-10.56068099066894,-2.540345500034319,5.724000000001979
-0.1903,1.0122,-0.1141,0.2091,0.2087,0.0491,-1.05,4.0425,-4.2787,-6.429852500272568,-10.578198296527416,-2.540345500034319,5.724000000001979
-0.1851,1.0081,-0.1132,0.2071,0.2102,0.0526,-0.6562,4.7162,-4.8475,-6.418187809594058,-10.389970227312723,-2.4696025000027495,5.739000000008673
-0.1849,1.0106,-0.1152,0.2071,0.2102,0.0526,-0.6562,4.7162,-4.8475,-6.46143418038718,-10.320955350812076,-2.4696025000027495,5.739000000008673
-0.1908,1.0128,-0.116,0.2071,0.2102,0.0526,-0.5863,5.0487,-5.4687,-6.499460899641298,-10.53448086584719,-2.388823300023027,5.755000000004657
-0.1972,1.0106,-0.1177,0.2076,0.2112,0.0538,-0.6825,4.9175,-5.3463,-6.571607950519052,-10.868691164837589,-2.388823300023027,5.755000000004657
-0.1972,1.0106,-0.1177,0.2076,0.2112,0.0538,-0.56,4.585,-5.6875,-6.609546887524923,-10.943942582163926,-2.3200483000256957,5.7700000000040745
-0.1993,1.0114,-0.1151,0.2071,0.2121,0.0522,-0.56,4.585,-5.6875,-6.54738029899224,-11.044215089843206,-2.3200483000256957,5.7700000000040745
-0.1995,1.0127,-0.1171,0.2071,0.2121,0.0522,-0.28,4.62,-6.3875,-6.575788517001199,-11.063906408710881,-2.2461283000442513,5.786000000000058
-0.2029,1.0146,-0.1169,0.2071,0.2121,0.0522,-0.0613,4.34,-7.175,-6.573758170421957,-11.167366556672558,-2.2461283000442513,5.786000000000058
-0.2014,1.0173,-0.1166,0.2095,0.2127,0.056,-0.5688,4.3225,-8.0763,-6.5551270463989,-11.152393939497928,-2.1769683000301616,5.802000000003318
-0.2014,1.0178,-0.1168,0.2095,0.2127,0.056,-0.5688,4.3225,-8.0763,-6.550548258447577,-11.140961535539383,-2.1769683000301616,5.802000000003318
-0.2009,1.0178,-0.1168,0.209,0.2116,0.0505,-0.7613,3.4738,-8.2338,-6.548583368016509,-11.126894466694607,-2.1213875000188382,5.8180000000065775
-0.2094,1.0182,-0.1169,0.209,0.2116,0.0505,-0.6125,2.6425,-9.1788,-6.5490475962063215,-11.268108456016266,-2.1213875000188382,5.8180000000065775
-0.2146,1.0131,-0.1107,0.209,0.2116,0.0505,-0.6125,2.6425,-9.8175,-6.386457253860573,-11.600583212879695,-2.079107500029451,5.834000000002561
-0.2178,1.0066,-0.1105,0.2084,0.2121,0.0458,-0.4288,2.6688,-9.8175,-6.3184280118710054,-11.887502060994702,-2.079107500029451,5.834000000002561
-0.2242,1.0027,-0.1101,0.2084,0.2121,0.0458,0.1225,2.1962,-9.3975,-6.284738987959417,-12.157745614628011,-2.0461645000307294,5.849000000001979
-0.2242,1.0027,-0.1101,0.2089,0.2117,0.0516,1.33,1.6888,-9.3538,-6.2707909343269055,-12.308851269523148,-2.0461645000307294,5.849000000001979
-0.2281,1.0013,-0.1075,0.2089,0.2117,0.0516,1.33,1.6888,-9.3538,-6.163370103017242,-12.49246694189255,-2.0191437000252246,5.865000000005239
-0.2292,1.0008,-0.1111,0.2089,0.2117,0.0516,1.82,0.5688,-8.7762,-6.296603587859254,-12.523322451204876,-2.0191437000252246,5.865000000005239
-0.2297,1.0067,-0.1092,0.2122,0.2143,0.0483,2.5638,-0.3675,-8.0588,-6.210972031367234,-12.62128915827504,-2.0250237000237488,5.881000000001222
-0.2268,1.0109,-0.1138,0.2122,0.2143,0.0483,2.8263,-1.9512,-6.51,-6.384509662395426,-12.585076699176001,-2.0250237000237488,5.881000000001222
-0.2268,1.0123,-0.1173,0.2107,0.2153,0.0509,2.8263,-1.9512,-6.51,-6.568858814862518,-12.559025091757855,-2.05429170003681,5.896000000007916
-0.2219,1.0123,-0.1173,0.2107,0.2153,0.0509,3.0538,-2.7387,-5.3725,-6.602556288608563,-12.34811906740925,-2.05429170003681,5.896000000007916
-0.2261,1.0158,-0.1158,0.2119,0.2126,0.0432,3.0975,-3.7013,-4.9612,-6.52067087825142,-12.4443676798127,-2.1135125000219444,5.9120000000039
-0.2275,1.0164,-0.1147,0.2119,0.2126,0.0432,3.1237,-4.3488,-4.6112,-6.452667775428744,-12.52067975359227,-2.1135125000219444,5.9120000000039
-0.2306,1.0178,-0.1153,0.2119,0.2126,0.0432,3.1237,-4.3488,-4.6112,-6.461319582348665,-12.65439916916393,-2.178744500019413,5.927000000003318
-0.2308,1.02,-0.116,0.2104,0.2122,0.0459,2.5463,-5.6788,-4.2263,-6.483000142283071,-12.667834314926717,-2.178744500019413,5.927000000003318
-0.2308,1.02,-0.116,0.2104,0.2122,0.0459,2.5638,-7.0437,-4.0775,-6.487141974744579,-12.670315597869871,-2.291443699991123,5.9429999999993015
-0.2256,1.019,-0.1191,0.2108,0.2118,0.048,1.8725,-8.0588,-3.7625,-6.627164938755669,-12.447202962088074,-2.291443699991123,5.9429999999993015
-0.2216,1.0177,-0.119,0.2108,0.2118,0.048,1.8725,-8.0588,-3.7625,-6.660092079655353,-12.244767002893745,-2.420384500017392,5.959000000002561
-0.217,1.0177,-0.1213,0.2108,0.2118,0.048,1.8637,-9.0387,-3.6137,-6.766979129701111,-12.002428450828258,-2.420384500017392,5.959000000002561
-0.2078,1.0153,-0.1229,0.2098,0.2126,0.0583,1.9162,-9.9488,-4.0338,-6.872668963076371,-11.577009583954617,-2.569616500083988,5.974000000009255
-0.2078,1.0122,-0.125,0.2098,0.2126,0.0583,1.9162,-9.7563,-3.4825,-7.003695652214076,-11.526062894070451,-2.569616500083988,5.974000000009255
-0.2063,1.0122,-0.125,0.2102,0.2125,0.0518,0.8138,-9.7563,-3.4825,-7.0296496320898605,-11.44997434791308,-2.7257173000448036,5.990000000005239
-0.2012,1.0109,-0.1224,0.2102,0.2125,0.0518,1.4612,-9.5988,-3.15,-6.934083659626915,-11.218812497239412,-2.7257173000448036,5.990000000005239
-0.1997,1.0128,-0.1215,0.2102,0.2125,0.0518,1.5575,-9.6775,-2.8788,-6.862723694393817,-11.097735047033712,-2.8708798000391704,6.005000000004657
-0.1958,1.013,-0.1241,0.2095,0.213,0.0501,1.5575,-9.6775,-2.8788,-6.955735125095528,-10.89533032106171,-3.0257198000003025,6.02100000000064
-0.195,1.0161,-0.1298,0.2095,0.213,0.0501,1.05,-9.5463,-2.6775,-7.193152385446745,-10.794820668456031,-3.0257198000003025,6.02100000000064
-0.195,1.0161,-0.1298,0.2091,0.2107,0.0544,1.05,-9.0212,-3.0013,-7.256593158638746,-10.780569764814983,-3.1700590000297084,6.0370000000039
-0.19,1.0157,-0.1271,0.2091,0.2107,0.0544,0.245,-9.0387,-3.1237,-7.1748478100065025,-10.55581233403486,-3.1700590000297084,6.0370000000039
-0.1876,1.0166,-0.1259,0.2091,0.2107,0.0544,0.245,-9.0387,-3.1237,-7.098969048823836,-10.405155415704446,-3.3056395000244474,6.052000000003318
-0.1876,1.0175,-0.1286,0.2085,0.2114,0.0427,0.6475,-7.9012,-3.1762,-7.172074084187536,-10.371898838269987,-3.3056395000244474,6.052000000003318
-0.1849,1.0179,-0.1294,0.2085,0.2114,0.0427,0.3063,-7.49,-3.5263,-7.2205707054335155,-10.240505132411323,-3.425479499994365,6.0679999999993015
-0.1849,1.0135,-0.1293,0.2089,0.2094,0.05,-0.1925,-6.8425,-3.8063,-7.250460525507693,-10.254863796986662,-3.425479499994365,6.0679999999993015
-0.182,1.0135,-0.1293,0.2089,0.2094,0.05,-0.1925,-6.8425,-3.8063,-7.262417194850865,-10.126617199723613,-3.5281170000401683,6.083000000005995
-0.1837,1.0131,-0.1305,0.2094,0.2108,0.0458,0.6037,-5.845,-4.6025,-7.3164598540704056,-10.181535408515368,-3.5281170000401683,6.083000000005995
-0.1817,1.0146,-0.1292,0.2094,0.2108,0.0458,0.105,-4.8825,-5.4075,-7.278277688823453,-10.098860093197096,-3.6062370000205584,6.099000000001979
-0.1826,1.0113,-0.1301,0.2094,0.2108,0.0458,0.1138,-3.9288,-5.4338,-7.311971436662863,-10.140322344284181,-3.6062370000205584,6.099000000001979
-0.1842,1.0103,-0.1319,0.209,0.2122,0.052,0.1138,-3.9288,-5.4338,-7.393214773431304,-10.222365760774812,-3.6690978000333647,6.115000000005239
-0.1842,1.0103,-0.1319,0.209,0.2122,0.052,-0.4112,-3.0187,-5.6788,-7.418477518121201,-10.241351616942517,-3.6690978000333647,6.115000000005239
-0.1834,1.0113,-0.1277,0.2086,0.2109,0.0497,-0.6475,-1.9162,-5.6613,-7.305221721720471,-10.210040021418324,-3.697840800032249,6.130000000004657
-0.1854,1.0106,-0.1261,0.2086,0.2109,0.0497,-0.6125,-0.9013,-5.845,-7.205138694390823,-10.289321526231179,-3.697840800032249,6.130000000004657
-0.19,1.0125,-0.1263,0.2086,0.2109,0.0497,-0.6125,-0.9013,-5.845,-7.155945626420373,-10.480652510871998,-3.7122616000286293,6.14600000000064
-0.19,1.014,-0.1266,0.2083,0.2116,0.0597,-0.42,-0.8575,-5.4338,-7.1339546786289505,-10.520580893696359,-3.7122616000286293,6.14600000000064
-0.19,1.0137,-0.1299,0.2083,0.2116,0.0597,0.0787,-0.2537,-5.67,-7.241572408724387,-10.528946881481405,-3.7160671000303274,6.161000000007334
-0.1964,1.0137,-0.1299,0.2104,0.2098,0.0525,0.0787,-0.2537,-5.775,-7.2804089235032645,-10.78857449324555,-3.7160671000303274,6.161000000007334
-0.1993,1.0121,-0.1275,0.2104,0.2098,0.0525,-0.0263,0.2975,-5.775,-7.217695139473208,-10.986509167415168,-3.7113071000315223,6.177000000003318
-0.1992,1.0144,-0.1283,0.2104,0.2098,0.0525,-0.315,0.455,-6.335,-7.212322233699512,-11.012967207764106,-3.7113071000315223,6.177000000003318
-0.2033,1.0133,-0.1251,0.2099,0.2126,0.0551,-0.8138,0.1575,-5.9412,-7.130800864203391,-11.194858965827661,-3.708787100031009,6.1930000000065775
-0.2051,1.0154,-0.1299,0.2099,0.2126,0.0551,-0.8138,0.1575,-5.9412,-7.205367874771498,-11.29347537649557,-3.708787100031009,6.1930000000065775
-0.2051,1.0154,-0.1299,0.209,0.2122,0.0479,-0.5512,0.2275,-5.95,-7.250603174633787,-11.319876540520262,-3.7053746000327967,6.207999999998719
-0.2055,1.0137,-0.1233,0.209,0.2122,0.0479,-0.8313,0.3063,-5.9325,-7.104596018808828,-11.362611663158681,-3.7053746000327967,6.207999999998719
-0.2112,1.0147,-0.1255,0.209,0.2122,0.0479,-1.2425,0.315,-6.09,-7.087856048864739,-11.585100784446738,-3.70033460003177,6.224000000001979
-0.2116,1.0148,-0.1245,0.209,0.2119,0.0602,-1.2425,0.315,-6.09,-7.058840469108361,-11.662873666864437,-3.70033460003177,6.224000000001979
-0.2124,1.0161,-0.1228,0.209,0.2119,0.0602,-0.77,0.0,-5.9763,-6.978319128213214,-11.707369139229483,-3.70033460003177,6.239000000008673
-0.2124,1.0161,-0.1261,0.2092,0.2118,0.0518,-0.4725,-0.5337,-5.81,-7.031088935587734,-11.716286507004574,-3.70033460003177,6.239000000008673
-0.2112,1.0161,-0.1261,0.2092,0.2118,0.0518,-0.6737,-0.805,-5.145,-7.052918434455187,-11.66853883618918,-3.713214600028537,6.255000000004657
-0.2137,1.0155,-0.1247,0.211,0.2126,0.0514,-0.6737,-0.805,-5.145,-7.026559217696583,-11.769191177371056,-3.713214600028537,6.255000000004657
-0.2092,1.0171,-0.1213,0.211,0.2126,0.0514,-1.0938,-1.505,-4.9,-6.942106228376265,-11.590454189382127,-3.737294600033443,6.271000000007916
-0.2085,1.0166,-0.1226,0.211,0.2126,0.0514,-1.0412,-1.6625,-4.6463,-6.916254118984377,-11.525386784552706,-3.737294600033443,6.271000000007916
-0.2089,1.016,-0.1231,0.2098,0.2106,0.0497,-1.2163,-2.2138,-4.6725,-6.913709461543598,-11.534350912285941,-3.7705016000160465,6.286000000000058
-0.2089,1.016,-0.1231,0.2098,0.2106,0.0497,-1.2163,-2.2138,-4.6725,-6.911985491447307,-11.536143460346146,-3.7705016000160465,6.286000000000058
-0.2045,1.0173,-0.1208,0.2118,0.2118,0.0555,-1.61,-1.9075,-4.5675,-6.901329054667555,-11.337395523344952,-3.8010216000222643,6.302000000003318
-0.2025,1.0139,-0.1236,0.2118,0.2118,0.0555,-1.7237,-1.6538,-4.445,-6.902820200027597,-11.23746173962693,-3.8258286000333346,6.317000000010012
-0.2056,1.0143,-0.1208,0.2118,0.2118,0.0555,-1.7237,-1.995,-4.2438,-6.899443759731321,-11.354051980196717,-3.8258286000333346,6.317000000010012
-0.1997,1.0165,-0.1174,0.2085,0.2132,0.0451,-1.6712,-1.995,-4.2438,-6.892997731689383,-11.100373060395798,-3.8577486000108063,6.332999999998719
-0.1997,1.0137,-0.1187,0.2085,0.2132,0.0451,-1.7763,-1.6275,-4.1125,-6.876398332023032,-11.076174024314358,-3.8577486000108063,6.332999999998719
-0.2011,1.0137,-0.1187,0.2102,0.213,0.054,-2.1,-1.3563,-4.1125,-6.819139516233218,-11.133888961722596,-3.8794494000152273,6.349000000001979
-0.1993,1.0135,-0.1185,0.2102,0.213,0.054,-2.1,-1.3563,-4.1125,-6.775610882526766,-11.066384069648132,-3.8794494000152273,6.349000000001979
-0.1982,1.0128,-0.1138,0.2102,0.213,0.054,-2.5113,-0.8925,-4.2263,-6.611435238830453,-11.016290220483118,-3.8928369000147076,6.364000000001397
-0.1987,1.0109,-0.1182,0.2102,0.2135,0.055,-1.9075,-0.4375,-4.1825,-6.621637589565416,-11.041216327060678,-3.8928369000147076,6.364000000001397
-0.1989,1.0122,-0.1165,0.2102,0.2135,0.055,-2.0738,-0.21,-4.025,-6.606168426704061,-11.045166320095513,-3.896196900015392,6.380000000004657
-0.1989,1.0122,-0.1165,0.209,0.2116,0.0504,-2.0738,-0.21,-4.025,-6.594970694703124,-11.045865647542241,-3.896196900015392,6.380000000004657
-0.1974,1.0127,-0.1155,0.209,0.2116,0.0504,-1.8112,-0.385,-4.4275,-6.585578636707428,-10.976951050918826,-3.9019719000151682,6.3950000000040745
-0.1987,1.0102,-0.1148,0.209,0.2116,0.0504,-1.855,-0.3938,-4.9175,-6.571273840482238,-11.04116540215718,-3.9019719000151682,6.3950000000040745
-0.2012,1.0111,-0.1125,0.2098,0.2109,0.0494,-1.8112,-0.0962,-5.1625,-6.5476511461882865,-11.154722020172397,-3.9035111000147817,6.411000000000058
-0.1998,1.0099,-0.1143,0.2098,0.2109,0.0494,-1.8112,-0.0962,-5.1625,-6.538045893165612,-11.129052341647037,-3.9035111000147817,6.411000000000058
-0.1998,1.0094,-0.1179,0.2098,0.2124,0.0518,-1.9162,-0.1225,-5.53,-6.560732620969773,-11.124197294847477,-3.905471100015181,6.427000000003318
-0.2022,1.0094,-0.1179,0.2098,0.2124,0.0518,-1.3563,0.0613,-5.845,-6.586223300502446,-11.219257582207753,-3.905471100015181,6.427000000003318
-0.2029,1.0135,-0.1135,0.2086,0.2099,0.0521,-1.1375,-0.5512,-6.0287,-6.516138865331695,-11.24321585463866,-3.91373910001486,6.442000000002736
-0.2033,1.0114,-0.1134,0.2086,0.2099,0.0521,-1.1375,-0.5512,-6.0287,-6.4737627412254,-11.281905063837455,-3.91373910001486,6.442000000002736
-0.204,1.0106,-0.1159,0.2086,0.2099,0.0521,-1.0063,-0.8838,-5.8625,-6.5016690681085425,-11.324752017995076,-3.9278799000177407,6.458000000005995
-0.2033,1.0074,-0.1114,0.2067,0.2129,0.0547,-0.8925,-0.9975,-5.4687,-6.416592705037096,-11.337974181487827,-3.9278799000177407,6.458000000005995
-0.2033,1.0074,-0.1114,0.2067,0.2129,0.0547,-1.0063,-1.1375,-5.2325,-6.373312777641434,-11.341171086219418,-3.9449424000088023,6.472999999998137
-0.2059,1.0072,-0.1174,0.2079,0.2119,0.0548,-1.0063,-1.1375,-5.2325,-6.4852603769540735,-11.447227413430344,-3.9449424000088023,6.472999999998137
-0.2059,1.0067,-0.1172,0.2079,0.2119,0.0548,-0.3325,-0.9275,-5.8362,-6.574705049427535,-11.474254642177412,-3.9597824000118256,6.489000000001397
-0.2065,1.01,-0.1155,0.2079,0.2119,0.0548,-0.3413,-1.5137,-5.915,-6.545452964270184,-11.480197052982108,-3.9597824000118256,6.489000000001397
-0.2054,1.0114,-0.116,0.21,0.2126,0.0522,-0.3413,-3.7538,-5.9237,-6.543932793649382,-11.426506443987531,-4.019843200024061,6.505000000004657
-0.2054,1.0133,-0.1178,0.21,0.2126,0.0522,-0.4638,-2.485,-5.9237,-6.591979121848095,-11.395466312522352,-4.019843200024061,6.505000000004657
-0.2011,1.0133,-0.1178,0.209,0.2119,0.053,-0.2362,-1.9775,-6.02,-6.6151647974954155,-11.218561334044244,-4.04950570002291,6.5200000000040745
-0.1993,1.0108,-0.1176,0.209,0.2119,0.053,-0.6125,-1.82,-5.915,-6.626063517379195,-11.117670176457136,-4.04950570002291,6.5200000000040745
-0.2015,1.0141,-0.1152,0.209,0.2119,0.053,-0.6125,-1.82,-5.915,-6.550705006291084,-11.154753059774546,-4.078625700028843,6.536000000007334
-0.1996,1.0144,-0.1145,0.2088,0.2129,0.0596,-1.1025,-1.8463,-5.8275,-6.509625499902987,-11.086992396871313,-4.078625700028843,6.536000000007334
-0.2001,1.0122,-0.1126,0.2088,0.2129,0.0596,-1.3563,-2.1875,-6.16,-6.468884297633802,-11.107507859098119,-4.111438200011653,6.550999999999476
-0.2001,1.0122,-0.1126,0.2095,0.2113,0.0556,-1.2513,-1.6625,-6.0113,-6.431778500744604,-11.1134416197007,-4.111438200011653,6.550999999999476
-0.204,1.0114,-0.1134,0.2095,0.2113,0.0556,-1.2513,-1.6625,-6.0113,-6.4212529840898975,-11.274080013315745,-4.138038200017072,6.567000000002736
-0.2078,1.0117,-0.1149,0.2095,0.2113,0.0556,-0.9187,-1.4175,-6.1512,-6.446611123474853,-11.46077520786893,-4.138038200017072,6.567000000002736
-0.2144,1.0095,-0.1215,0.2085,0.2133,0.0522,-0.14,-2.1,-5.95,-6.699808502286762,-11.787151405738172,-4.171638200023917,6.583000000005995
-0.2152,1.0128,-0.1197,0.2085,0.2133,0.0522,0.0437,-2.2138,-6.2562,-6.725539056426009,-11.877784887038642,-4.171638200023917,6.583000000005995
-0.2152,1.0284,-0.118,0.2102,0.2126,0.0556,0.0437,-2.2138,-6.2562,-6.6113468345508934,-11.78322982424712,-4.204845200022628,6.598000000005413
-0.2134,1.017,-0.118,0.2102,0.2126,0.0556,-0.3063,-2.5988,-7.0437,-6.615382658230561,-11.777414056104373,-4.204845200022628,6.598000000005413
-0.2119,1.0207,-0.1165,0.2109,0.2122,0.055,-0.0175,-2.6337,-6.7375,-6.55028112503233,-11.69641996996758,-4.2469844000120505,6.614000000001397
-0.2056,1.0192,-0.1155,0.2109,0.2122,0.055,0.7788,-2.45,-6.7288,-6.489863363885629,-11.457338219189337,-4.2469844000120505,6.614000000001397
-0.2076,1.0219,-0.1191,0.2109,0.2122,0.055,0.7788,-2.45,-6.7288,-6.602225355862763,-11.424919104828186,-4.2837344000106246,6.629000000000815
-0.21,1.0221,-0.1197,0.2105,0.2127,0.0533,0.2537,-2.1175,-6.5188,-6.653327609153833,-11.49920885250145,-4.2837344000106246,6.629000000000815
-0.21,1.0221,-0.1197,0.2105,0.2127,0.0533,0.1225,-2.1875,-5.7663,-6.670258204332796,-11.524864811459606,-4.318734400017755,6.6450000000040745
-0.21,1.0222,-0.1163,0.2097,0.2122,0.0528,-0.6913,-2.1788,-5.3375,-6.580517781219798,-11.534094014679638,-4.3535952000248574,6.661000000007334
-0.208,1.0167,-0.1174,0.2097,0.2122,0.0528,-0.6913,-2.1788,-5.3375,-6.583692711190658,-11.498581114846422,-4.45382000001357,6.707000000002154
-0.2115,1.0187,-0.1215,0.2097,0.2122,0.0528,-1.3388,-2.0825,-5.18,-6.64058860909196,-11.615288231132391,-4.45382000001357,6.707000000002154
-0.2111,1.0167,-0.1154,0.2109,0.2143,0.061,-1.7237,-1.9075,-5.425,-6.6355730696386575,-11.647195840071536,-4.45382000001357,6.707000000002154
-0.2111,1.0011,-0.1163,0.2109,0.2143,0.061,-1.7237,-1.9075,-5.075,-6.635296430964254,-11.790329125278172,-4.45382000001357,6.707000000002154
-0.2063,1.0146,-0.1163,0.21,0.2134,0.0549,-0.9975,-2.1175,-5.075,-6.595846865558261,-11.500963983057161,-4.45382000001357,6.707000000002154
-0.2031,1.0111,-0.1139,0.21,0.2134,0.0549,-1.5925,-2.0825,-5.1537,-6.58054150705124,-11.335373632555386,-4.487140000020358,6.723000000005413
-0.2029,1.0108,-0.1175,0.21,0.2134,0.0549,-1.3212,-1.7587,-4.97,-6.594081627667498,-11.28885424612053,-4.487140000020358,6.723000000005413
-0.2033,1.0115,-0.1114,0.2098,0.2136,0.0531,-1.3212,-1.7587,-4.97,-6.510379096295885,-11.295936458713781,-4.487140000020358,6.723000000005413
-0.2042,1.0116,-0.113,0.2098,0.2136,0.0531,-1.2075,-1.3212,-4.795,-6.465768468966812,-11.333809411545674,-4.487140000020358,6.723000000005413
-0.2042,1.0116,-0.113,0.21,0.2118,0.0589,-1.1638,-0.8225,-4.9175,-6.433952939928859,-11.341521445289464,-4.500300000017055,6.739000000001397
-0.202,1.0097,-0.111,0.21,0.2118,0.0589,-0.9975,-0.665,-4.76,-6.3681883684482905,-11.266388803941172,-4.500300000017055,6.739000000001397
-0.2047,1.0104,-0.1111,0.21,0.2118,0.0589,-0.9975,-0.665,-4.76,-6.329915049611697,-11.36157692020771,-4.510275000016668,6.754000000000815
-0.2066,1.0119,-0.1106,0.2117,0.2134,0.0583,-0.385,-0.455,-4.83,-6.277626456730183,-11.44999624012515,-4.510275000016668,6.754000000000815
-0.2083,1.0144,-0.1097,0.2117,0.2134,0.0583,-0.1225,0.0787,-5.1188,-6.2131857613494486,-11.519093516389496,-4.509015800016411,6.7700000000040745
-0.2083,1.0144,-0.1117,0.2109,0.2144,0.0574,-0.91,-0.175,-5.705,-6.244169001092599,-11.531848550836312,-4.509015800016411,6.7700000000040745
-0.2047,1.0111,-0.1117,0.2109,0.2144,0.0574,-0.91,-0.175,-5.705,-6.270482213904681,-11.416470590662339,-4.511640800016309,6.7850000000034925
-0.2022,1.0132,-0.1116,0.2109,0.2134,0.0583,-1.1988,-0.2187,-5.1712,-6.2754672109323995,-11.26355200241028,-4.511640800016309,6.7850000000034925
-0.2038,1.0135,-0.1079,0.2114,0.2134,0.0583,-0.8575,-0.3588,-5.7488,-6.185154707547728,-11.296281620125768,-4.518458000016393,6.804000000003725
-0.2072,1.0101,-0.1108,0.2114,0.2134,0.0583,-0.2975,-0.0787,-5.6087,-6.228670448024456,-11.468662879109583,-4.519008900016219,6.811000000001513
-0.2098,1.0136,-0.1152,0.211,0.2139,0.0525,-0.2975,-0.0787,-5.6087,-6.377435143234501,-11.583871479123717,-4.519008900016219,6.811000000001513
-0.2098,1.0136,-0.1152,0.211,0.2139,0.0525,-0.0437,0.1312,-5.7312,-6.443821268833248,-11.611928632486357,-4.516909700015791,6.827000000004773
-0.2128,1.0189,-0.1158,0.2118,0.2131,0.0574,-0.5512,-0.2713,-6.51,-6.465211962535999,-11.68818925269318,-4.516909700015791,6.827000000004773
-0.2073,1.0147,-0.113,0.2118,0.2131,0.0574,-0.5512,-0.8575,-6.7987,-6.4061778533108695,-11.550733287908376,-4.529772200015292,6.842000000004191
-0.2073,1.0108,-0.1119,0.2118,0.2131,0.0574,-0.3237,-0.8575,-6.7987,-6.3547484933805745,-11.531551286999845,-4.529772200015292,6.842000000004191
-0.2077,1.0061,-0.1118,0.2105,0.2128,0.0604,0.14,-0.805,-6.895,-6.345735576602675,-11.572100549162574,-4.5426522000179155,6.858000000007451
-0.2077,1.0061,-0.1195,0.2105,0.2128,0.0604,0.8313,-0.21,-7.3763,-6.6521726095075415,-11.579447588438276,-4.5426522000179155,6.858000000007451
-0.212,1.0121,-0.1195,0.2084,0.2142,0.0535,0.8313,-0.21,-7.3763,-6.710643768507886,-11.6763753988559,-4.545802200016265,6.8729999999995925
-0.2084,1.0187,-0.1144,0.2084,0.2142,0.0535,1.8813,0.0437,-7.2713,-6.473757111214695,-11.568427900760293,-4.545802200016265,6.8729999999995925
-0.2061,1.0111,-0.1221,0.2084,0.2142,0.0535,2.8963,0.63,-6.79,-6.811966189277746,-11.484729710048198,-4.535722200014211,6.889000000002852
-0.207,1.007,-0.132,0.2113,0.2143,0.0466,3.22,1.0325,-5.285,-7.356949641302238,-11.51203198055502,-4.535722200014211,6.889000000002852
-0.2266,1.0127,-0.1309,0.2113,0.2143,0.0466,3.22,1.0325,-5.285,-7.363742072861253,-12.284031059978,-4.519202200018358,6.904999999998836
-0.2266,1.0127,-0.1309,0.2113,0.215,0.0525,3.9462,1.1463,-2.7738,-7.364916512114381,-12.478851970298807,-4.519202200018358,6.904999999998836
-0.2333,1.0088,-0.1283,0.2113,0.215,0.0525,5.1013,0.4112,-0.7437,-7.263011949945291,-12.87151185071542,-4.513034200015606,6.92000000000553
