AcclX,AcclY,AcclZ,MagX,MagY,MagZ,GyroX,GyroY,GyroZ,Roll,Pitch,Yaw,Time Elapsed(s)
-0.1551,1.0213,-0.0265,0.195,0.205,0.0941,-1.1988,-1.9863,-5.2675,0,0,0,0.0
-0.1541,1.0232,-0.027,0.195,0.205,0.0941,-1.1988,-1.9863,-5.2675,0,0,0,0.0
-0.1541,1.0232,-0.027,0.1951,0.2033,0.0944,-0.8925,-2.0038,-5.67,0,0,0,0.01599999999598367
-0.1526,1.0211,-0.0235,0.1951,0.2033,0.0944,-1.6888,-2.2662,-6.5363,0,0,0,0.01599999999598367
-0.1545,1.021,-0.0204,0.1951,0.2031,0.0931,-2.2662,-2.065,-7.1225,0,0,0,0.030999999995401595
-0.1551,1.0212,-0.0224,0.1956,0.2031,0.0931,-2.2662,-2.065,-7.1225,0,0,0,0.030999999995401595
-0.1542,1.0191,-0.0228,0.1956,0.2031,0.0931,-2.2575,-1.995,-7.175,0,0,0,0.046999999991385266
-0.1518,1.0165,-0.0197,0.195,0.2036,0.0984,-1.9775,-2.1525,-6.9738,0,0,0,0.046999999991385266
-0.1518,1.0165,-0.0197,0.195,0.2036,0.0984,-1.645,-2.2313,-7.0613,0,0,0,0.06199999999807915
-0.1563,1.0113,-0.0203,0.197,0.2042,0.092,-1.645,-2.2313,-7.0613,0,0,0,0.06199999999807915
-0.1581,1.0099,-0.024,0.197,0.2042,0.092,-1.3825,-2.38,-7.2013,0,0,0,0.07800000000133878
-0.1615,1.0158,-0.022,0.197,0.2042,0.092,-0.8838,-2.6163,-6.8075,0,0,0,0.07800000000133878
-0.1598,1.0158,-0.0198,0.1996,0.2045,0.1134,-0.8838,-2.6163,-7.1487,0,0,0,0.09399999999732245
-0.1598,1.0158,-0.0198,0.1996,0.2045,0.1134,-0.6125,-2.3187,-7.1487,0,0,0,0.09399999999732245
-0.1612,1.0194,-0.0228,0.1969,0.2065,0.0958,-0.035,-3.0625,-7.6475,0,0,0,0.10899999999674037
-0.1602,1.0244,-0.022,0.1969,0.2065,0.0958,-0.4025,-2.555,-7.385,0,0,0,0.10899999999674037
-0.1611,1.0248,-0.0188,0.1969,0.2065,0.0958,-0.4025,-2.555,-7.385,0,0,0,0.12499999999272404
-0.1645,1.0233,-0.0224,0.1969,0.2044,0.0923,-0.2975,-2.0125,-7.3675,0,0,0,0.12499999999272404
-0.1664,1.0211,-0.0212,0.1969,0.2044,0.0923,-0.455,-1.715,-7.35,0,0,0,0.13999999999941792
-0.1664,1.0211,-0.0212,0.198,0.2046,0.0958,-1.05,-1.8988,-7.4988,0,0,0,0.13999999999941792
-0.1638,1.0189,-0.0209,0.198,0.2046,0.0958,-1.05,-1.8988,-7.4988,0,0,0,0.15600000000267755
-0.166,1.0154,-0.024,0.198,0.2046,0.0958,-0.9887,-2.1088,-7.0175,0,0,0,0.15600000000267755
-0.1668,1.0161,-0.0237,0.1969,0.2048,0.0942,-0.9013,-2.17,-6.9825,0,0,0,0.17199999999866122
-0.1656,1.0177,-0.0163,0.1969,0.2048,0.0942,-0.77,-2.17,-6.7025,0,0,0,0.17199999999866122
-0.1656,1.0177,-0.0163,0.1966,0.205,0.1047,-0.77,-2.17,-6.7025,0,0,0,0.18699999999807915
-0.163,1.0161,-0.0221,0.1966,0.205,0.1047,-0.4725,-2.1525,-6.0988,0,0,0,0.18699999999807915
-0.1652,1.016,-0.0205,0.1966,0.205,0.0952,-0.875,-2.17,-5.9763,0,0,0,0.20299999999406282
-0.1635,1.0146,-0.0168,0.1969,0.2052,0.0952,-0.77,-1.7237,-5.985,0,0,0,0.20299999999406282
-0.1651,1.0138,-0.0147,0.1969,0.2052,0.0952,-0.77,-1.7237,-5.985,0,0,0,0.2180000000007567
-0.1662,1.0168,-0.0165,0.197,0.2061,0.0938,-0.84,-1.33,-5.9588,0,0,0,0.2180000000007567
-0.1662,1.0168,-0.0165,0.197,0.2061,0.0938,-0.7788,-1.2513,-5.6788,0,0,0,0.23399999999674037
-0.1638,1.02,-0.017,0.1986,0.2037,0.1012,-0.7788,-0.8225,-5.7663,0,0,0,0.23399999999674037
-0.1646,1.0184,-0.014,0.1986,0.2037,0.1012,-0.6562,-0.8225,-5.7663,0,0,0,0.25
-0.1673,1.0153,-0.0171,0.1986,0.2037,0.1012,-0.6037,-0.7788,-6.0113,0,0,0,0.2649999999994179
-0.1674,1.0161,-0.0168,0.1984,0.204,0.097,-0.0875,-0.735,-5.915,0,0,0,0.2649999999994179
-0.1674,1.0161,-0.0168,0.1984,0.204,0.097,-0.0875,-0.735,-5.915,0,0,0,0.2809999999954016
-0.1674,1.0217,-0.0179,0.1992,0.2046,0.0911,-0.42,-0.4375,-6.0988,0,0,0,0.2809999999954016
-0.1717,1.0208,-0.0154,0.1992,0.2046,0.0911,-0.6212,0.2537,-5.8538,0,0,0,0.2960000000020955
-0.1718,1.0182,-0.0168,0.1992,0.2046,0.0911,-0.6737,-0.2887,-6.475,0,0,0,0.2960000000020955
-0.1734,1.0133,-0.0176,0.1975,0.2065,0.1034,-0.6737,-0.2887,-6.475,0,0,0,0.31199999999807915
-0.1734,1.0076,-0.0173,0.1975,0.2065,0.1034,-0.21,-0.5337,-6.265,0,0,0,0.31199999999807915
-0.1766,1.0076,-0.0173,0.1986,0.2066,0.0963,0.2275,-0.1312,-6.7987,0,0,0,0.3279999999940628
-0.1706,1.005,-0.0143,0.1986,0.2066,0.0963,0.7613,0.1225,-6.5712,0,0,0,0.3279999999940628
-0.1637,1.0097,-0.0135,0.1986,0.2066,0.0963,0.7613,0.1225,-6.5712,0,0,0,0.3430000000007567
-0.1538,1.0131,-0.0109,0.1972,0.2064,0.1013,0.945,0.2625,-6.405,0,0,0,0.3430000000007567
-0.1513,1.0137,-0.0069,0.1972,0.2064,0.1013,1.2862,1.9338,-6.3,0,0,0,0.35899999999674037
-0.1513,1.0137,-0.0069,0.1967,0.2062,0.1038,0.945,2.66,-6.0287,0,0,0,0.35899999999674037
-0.1488,1.0125,-0.0073,0.1967,0.2062,0.1038,0.945,2.66,-6.0287,0,0,0,0.3739999999961583
-0.1564,1.0183,-0.0065,0.1967,0.2062,0.1038,0.595,4.27,-5.53,0,0,0,0.3739999999961583
-0.1705,1.0172,-0.0087,0.1973,0.2063,0.0953,0.2275,5.1188,-4.9175,0,0,0,0.38999999999214197
-0.1806,1.0191,-0.012,0.1973,0.2063,0.0953,-0.0175,4.2438,-5.1712,0,0,0,0.38999999999214197
-0.1806,1.0193,-0.0144,0.1982,0.2058,0.0994,-0.0175,4.2438,-5.1712,0,0,0,0.4059999999954016
-0.1897,1.0193,-0.0144,0.1982,0.2058,0.0994,-0.245,3.6837,-6.1075,0,0,0,0.4059999999954016
-0.1998,1.0216,-0.0142,0.1986,0.2061,0.0905,-0.5688,1.925,-6.5188,0,0,0,0.4210000000020955
-0.1985,1.023,-0.0142,0.1986,0.2061,0.0905,-0.5688,1.925,-7.105,0,0,0,0.4210000000020955
-0.1962,1.0222,-0.0181,0.1986,0.2061,0.0905,-1.0675,0.2362,-7.105,0,0,0,0.43699999999807915
-0.1924,1.0239,-0.0185,0.1978,0.209,0.0958,-1.015,-1.505,-7.0525,0,0,0,0.43699999999807915
-0.1924,1.0239,-0.0185,0.1978,0.209,0.0958,-1.1463,-3.0013,-7.0,0,0,0,0.45199999999749707
-0.1861,1.023,-0.0173,0.2002,0.2048,0.0954,-1.1463,-3.0013,-7.0,0,0,0,0.45199999999749707
-0.1807,1.0187,-0.0189,0.2002,0.2048,0.0954,-1.4612,-4.2962,-6.4575,0,0,0,0.46799999999348074
-0.1718,1.0187,-0.0161,0.2002,0.2048,0.0954,-1.085,-4.8387,-5.9938,0,0,0,0.46799999999348074
-0.1624,1.0139,-0.0117,0.1997,0.2074,0.0939,-0.6562,-5.11,-4.8038,0,0,0,0.48399999999674037
-0.1624,1.0139,-0.0169,0.1997,0.2074,0.0939,-0.6562,-5.11,-4.8038,0,0,0,0.48399999999674037
-0.1554,1.0103,-0.0169,0.1997,0.2054,0.0947,0.0525,-5.0662,-4.305,0,0,0,0.4989999999961583
-0.148,1.0066,-0.0191,0.1997,0.2054,0.0947,0.4812,-4.0775,-3.7713,0,0,0,0.4989999999961583
-0.1379,1.0078,-0.0158,0.1997,0.2054,0.0947,1.435,-2.7825,-4.0512,0,0,0,0.5149999999994179
-0.1297,1.0117,-0.0182,0.1976,0.2053,0.106,1.435,-2.7825,-4.0512,0,0,0,0.5149999999994179
-0.1276,1.0213,-0.0175,0.1976,0.2053,0.106,2.415,-1.1725,-4.3663,0,0,0,0.5299999999988358
-0.1276,1.0213,-0.0175,0.198,0.2053,0.0934,2.7475,0.875,-4.1825,0,0,0,0.5299999999988358
-0.1302,1.0215,-0.0249,0.198,0.2053,0.0934,2.9488,2.0738,-4.515,0,0,0,0.5459999999948195
-0.1308,1.0235,-0.0247,0.198,0.2053,0.0934,2.9488,2.0738,-4.515,0,0,0,0.5459999999948195
-0.1292,1.0236,-0.0273,0.2001,0.2072,0.087,2.8,3.2812,-4.5675,0,0,0,0.5619999999980791
-0.137,1.0247,-0.0346,0.2001,0.2072,0.087,2.4325,4.9088,-4.095,0,0,0,0.5619999999980791
-0.137,1.0247,-0.036,0.1968,0.2058,0.0922,2.4325,4.9088,-3.7887,0,0,0,0.5769999999974971
-0.1475,1.0271,-0.036,0.1968,0.2058,0.0922,2.8175,5.74,-3.7887,0,0,0,0.5930000000007567
-0.1543,1.0243,-0.0388,0.1978,0.2057,0.094,2.4325,5.8888,-3.64,0,0,0,0.5930000000007567
-0.1588,1.0213,-0.0463,0.1978,0.2057,0.094,2.6337,5.6438,-3.7362,0,0,0,0.6080000000001746
-0.1634,1.0222,-0.0431,0.1978,0.2057,0.094,2.6337,5.6438,-3.7362,0,0,0,0.6080000000001746
-0.161,1.023,-0.0408,0.1989,0.2055,0.09,2.6425,4.9088,-4.0862,0,0,0,0.6239999999961583
-0.161,1.023,-0.0408,0.1989,0.2055,0.09,2.905,4.8125,-4.1825,0,0,0,0.6239999999961583
-0.1582,1.0239,-0.0426,0.1984,0.2054,0.0907,2.2925,4.0862,-3.815,0,0,0,0.6399999999994179
-0.1527,1.0263,-0.0423,0.1984,0.2054,0.0907,2.2925,4.0862,-3.815,0,0,0,0.6399999999994179
-0.1493,1.0271,-0.0393,0.1984,0.2054,0.0907,0.4725,3.885,-3.3688,0,0,0,0.6549999999915599
-0.1487,1.0225,-0.0426,0.1971,0.2054,0.0865,-0.6212,3.6312,-2.8525,0,0,0,0.6549999999915599
-0.1487,1.0225,-0.0404,0.1971,0.2054,0.0865,-0.8662,3.5263,-2.7562,0,0,0,0.6709999999948195
-0.1489,1.0186,-0.0404,0.1973,0.2049,0.0878,-0.8662,3.5263,-2.7562,0,0,0,0.6709999999948195
-0.1474,1.0144,-0.0397,0.1973,0.2049,0.0878,-1.0588,3.2375,-2.59,0,0,0,0.6860000000015134
-0.147,1.0105,-0.0404,0.1973,0.2049,0.0878,-0.98,3.3075,-2.7125,0,0,0,0.6860000000015134
-0.1459,1.0104,-0.0381,0.1984,0.2068,0.0795,-0.4812,3.5438,-2.9575,0,0,0,0.7019999999974971
-0.1446,1.0121,-0.0354,0.1984,0.2068,0.0795,-0.4812,3.5438,-2.9575,0,0,0,0.7019999999974971
-0.1446,1.0121,-0.0354,0.1988,0.2042,0.0869,0.3675,4.2088,-3.535,0,0,0,0.7180000000007567
-0.1443,1.0138,-0.0403,0.1988,0.2042,0.0869,0.5775,4.4538,-3.4825,0,0,0,0.7180000000007567
-0.1443,1.0161,-0.0361,0.1988,0.2042,0.0869,0.1138,4.4625,-3.15,0,0,0,0.7329999999928987
-0.1419,1.0125,-0.0313,0.1981,0.205,0.0945,0.1138,4.4625,-3.15,0,0,0,0.7329999999928987
-0.143,1.0141,-0.04,0.1981,0.205,0.0945,0.175,4.83,-2.8788,0,0,0,0.7489999999961583
-0.143,1.0141,-0.0393,0.198,0.2058,0.0878,0.5075,5.3113,-2.94,0,0,0,0.7489999999961583
-0.1484,1.0152,-0.0393,0.198,0.2058,0.0878,0.5075,5.3113,-2.94,0,0,0,0.7639999999955762
-0.1518,1.0176,-0.0361,0.198,0.2053,0.084,0.1312,5.2238,-3.1237,0,0,0,0.7639999999955762
-0.1583,1.0195,-0.0367,0.1986,0.2053,0.084,-0.1663,4.445,-3.745,0,0,0,0.7799999999988358
-0.1631,1.0246,-0.0328,0.1986,0.2053,0.084,-0.3063,4.3575,-4.4887,0,0,0,0.7799999999988358
-0.1643,1.0217,-0.035,0.1975,0.2062,0.0818,-0.3063,4.3575,-4.4887,-0.5392434687077643,-3.237408240056432,0.0,0.7960000000020955
-0.1643,1.0217,-0.035,0.1975,0.2062,0.0818,-0.9275,3.6837,-4.9262,-1.2506947716241235,-3.8303486644375853,0.16945019998091665,0.841999999996915
-0.171,1.026,-0.0315,0.1981,0.2036,0.084,-1.6975,2.8788,-6.3437,-1.5752092914238938,-7.017131985428365,0.16945019998091665,0.841999999996915
-0.1708,1.0257,-0.0273,0.1981,0.2036,0.084,-2.87,2.3712,-6.9913,-1.537453149944798,-8.626782956727528,0.16945019998091665,0.841999999996915
-0.1774,1.0261,-0.0317,0.1981,0.2036,0.084,-2.87,2.3712,-6.9913,-1.7106561536368319,-9.405500254961456,0.2073893999886459,0.8580000000001746
-0.1867,1.0255,-0.0289,0.198,0.2038,0.0882,-3.7362,1.1638,-7.8225,-1.6342946852835725,-10.07402089004624,0.2073893999886459,0.8580000000001746
-0.1867,1.0255,-0.024,0.198,0.2038,0.0882,-4.48,0.385,-8.855,-1.39354200810083,-10.265255292393373,0.2073893999886459,0.8580000000001746
-0.1923,1.0203,-0.024,0.1976,0.2051,0.0857,-4.0512,-0.945,-9.625,-1.3564785501555203,-10.598106270013032,0.2073893999886459,0.8580000000001746
-0.1951,1.0137,-0.0298,0.1976,0.2051,0.0857,-4.0512,-0.945,-9.625,-1.6199622070218465,-10.837368351576153,0.2073893999886459,0.8580000000001746
-0.2001,1.0112,-0.0292,0.1976,0.2051,0.0857,-3.6488,-2.52,-9.6512,-1.646827684744427,-11.126148090298472,0.16706939998043163,0.8740000000034343
-0.2004,1.0121,-0.0273,0.1979,0.2055,0.092,-2.7037,-4.025,-10.36,-1.5720375497479893,-11.184921825656295,0.16706939998043163,0.8740000000034343
-0.1997,1.0153,-0.0285,0.1979,0.2055,0.092,-2.3888,-4.8825,-10.5437,-1.5975397767050168,-11.132708556242264,0.16706939998043163,0.8740000000034343
-0.1997,1.0153,-0.0285,0.2008,0.209,0.0878,-2.3888,-4.8825,-10.5437,-1.604907136649153,-11.124682688556103,0.09383190001879849,0.8889999999955762
-0.1981,1.0214,-0.0289,0.2008,0.209,0.0878,-1.7675,-6.1687,-11.2262,-1.6151543852001435,-10.993178755063097,0.09383190001879849,0.8889999999955762
-0.192,1.0216,-0.0255,0.2008,0.209,0.0878,-1.82,-7.1137,-10.7887,-1.493911738355582,-10.69299564869882,-0.034214700007288046,0.9069999999992433
-0.1895,1.0149,-0.0226,0.2004,0.2098,0.0957,-1.82,-7.1137,-11.0863,-1.3511108890722525,-10.590709743423828,-0.034214700007288046,0.9069999999992433
-0.1899,1.0188,-0.0234,0.2004,0.2098,0.0957,-2.3712,-7.3938,-11.0863,-1.3260172629718023,-10.56075484293667,-0.1451217000029843,0.9219999999986612
-0.1899,1.0188,-0.0234,0.2003,0.2089,0.0921,-2.31,-7.4025,-11.2,-1.3187848366961494,-10.556493694085129,-0.1451217000029843,0.9219999999986612
-0.1882,1.0166,-0.0185,0.2003,0.2089,0.0921,-2.2225,-7.5512,-11.0075,-1.1263781233423829,-10.496585911067847,-0.28104329997573296,0.9399999999950523
-0.1848,1.0157,-0.0187,0.2003,0.2078,0.0981,-2.2225,-7.5512,-11.0075,-1.0764873315300634,-10.33684599732616,-0.28104329997573296,0.9399999999950523
-0.1846,1.0153,-0.0171,0.2013,0.2078,0.0981,-2.1962,-7.525,-10.5787,-0.999037420513074,-10.308527579956888,-0.4014433000002617,0.955999999998312
-0.1867,1.0142,-0.0157,0.2013,0.2078,0.0981,-2.1875,-6.72,-10.4475,-0.9212806163263704,-10.410500303172016,-0.4014433000002617,0.955999999998312
-0.1939,1.011,-0.0195,0.2014,0.2078,0.0901,-1.435,-5.8012,-10.08,-1.0317229787019544,-10.781402830241156,-0.4884612999968849,0.9709999999977299
-0.1939,1.011,-0.0195,0.2014,0.2078,0.0901,-1.435,-5.8012,-10.08,-1.0757640130202817,-10.842790988790865,-0.4884612999968849,0.9709999999977299
-0.1967,1.0135,-0.0181,0.2028,0.2105,0.0962,-1.05,-5.1625,-9.765,-1.0479261956590114,-10.957449668060972,-0.5710612999761506,0.9869999999937136
-0.1985,1.0127,-0.0179,0.2028,0.2105,0.0962,-1.155,-5.215,-9.6862,-1.0284726372273965,-11.065128760995504,-0.5710612999761506,0.9869999999937136
-0.2008,1.0164,-0.021,0.2028,0.2105,0.0962,-0.98,-4.795,-9.1175,-1.1080429170602393,-11.151860453485957,-0.6429863000082477,1.0020000000004075
-0.198,1.0175,-0.0201,0.2024,0.2115,0.0779,-0.98,-4.795,-9.1175,-1.1201705103621113,-11.037715391830183,-0.6429863000082477,1.0020000000004075
-0.198,1.0175,-0.0201,0.2024,0.2115,0.0779,-0.7962,-4.5763,-9.0475,-1.1255266458962898,-11.015320314891216,-0.7162070999898678,1.0179999999963911
-0.1948,1.0212,-0.0219,0.2022,0.212,0.0913,-0.4025,-4.0512,-8.6888,-1.1587106850495705,-10.844211777034035,-0.7162070999898678,1.0179999999963911
-0.1954,1.0222,-0.0239,0.2022,0.212,0.0913,0.0962,-3.3338,-7.9012,-1.1628564653784321,-10.825534363360852,-0.7695479000007347,1.0339999999996508
-0.1929,1.0211,-0.0186,0.2022,0.212,0.0913,0.0962,-3.3338,-7.9012,-1.160119177430109,-10.729650949201218,-0.7695479000007347,1.0339999999996508
-0.1902,1.0248,-0.0238,0.2034,0.2114,0.0961,-0.0263,-2.7037,-7.35,-1.1754605592247696,-10.57738763104964,-0.8101033999991609,1.0489999999990687
-0.1877,1.0274,-0.0231,0.2034,0.2114,0.0961,0.2625,-2.5725,-6.6762,-1.1934148004439828,-10.436729704130277,-0.8101033999991609,1.0489999999990687
-0.1877,1.0274,-0.0231,0.2038,0.2097,0.0902,-0.2625,-2.0912,-5.7312,-1.2171655550672695,-10.401578556776311,-0.843562599990762,1.0649999999950523
-0.1872,1.0274,-0.0194,0.2038,0.2097,0.0902,-0.2625,-2.0912,-5.7312,-1.183172471973029,-10.370080725749009,-0.843562599990762,1.0649999999950523
-0.1849,1.0239,-0.0197,0.2038,0.2097,0.0902,-0.98,-1.19,-5.6,-1.1416690776527312,-10.32131423888281,-0.8614125999987277,1.0800000000017462
-0.187,1.0211,-0.0199,0.2033,0.2125,0.0888,-1.085,-0.6037,-5.3025,-1.1281560428931623,-10.332746668048241,-0.8614125999987277,1.0800000000017462
-0.1862,1.0173,-0.019,0.2033,0.2125,0.0888,-1.085,-0.6037,-5.3025,-1.0969432485181478,-10.340635191453162,-0.871071799996303,1.09599999999773
-0.1862,1.0173,-0.019,0.2042,0.2118,0.0974,-1.295,0.21,-5.1712,-1.0813693559165747,-10.344140066435438,-0.871071799996303,1.09599999999773
-0.1895,1.0157,-0.0184,0.2042,0.2118,0.0974,-0.7,0.4725,-5.1013,-1.0623921668583014,-10.357363740872502,-0.8635117999947628,1.1120000000009895
-0.1918,1.0142,-0.0233,0.2042,0.2118,0.0958,-1.2775,0.3413,-5.0225,-1.2081311111154263,-10.362714768961466,-0.8635117999947628,1.1120000000009895
-0.1909,1.0163,-0.0233,0.2037,0.2102,0.0958,-1.2775,0.3413,-5.0225,-1.2685802330048264,-10.36690098690535,-0.8583922999974447,1.1269999999931315
-0.1896,1.018,-0.018,0.2037,0.2102,0.0958,-0.4375,0.6125,-4.62,-1.1822285525145022,-10.420500224497431,-0.8583922999974447,1.1269999999931315
-0.1888,1.0193,-0.0235,0.2041,0.2114,0.091,-0.595,0.7175,-4.515,-1.237678322493133,-10.444700343715686,-0.846912299995106,1.1429999999963911
-0.1888,1.0193,-0.0235,0.2041,0.2114,0.091,-0.4725,1.0762,-4.3313,-1.2669796634895083,-10.463858667449497,-0.830769299987902,1.158000000003085
-0.1912,1.0185,-0.0197,0.2047,0.21,0.0875,-0.4725,1.0762,-4.3313,-1.2109156717089784,-10.532773366697967,-0.830769299987902,1.158000000003085
-0.1916,1.0155,-0.0206,0.2047,0.21,0.0875,-0.9013,1.19,-3.9288,-1.1868381905147893,-10.611546566686137,-0.8117292999926815,1.1739999999990687
-0.1955,1.0128,-0.0256,0.2047,0.21,0.0875,-0.7088,0.1925,-3.4562,-1.301372298660985,-10.801746680219344,-0.8117292999926815,1.1739999999990687
-0.1956,1.0138,-0.0243,0.2031,0.2078,0.0874,-0.6388,-0.1138,-3.3338,-1.331179673059179,-10.874544360010521,-0.8135500999922245,1.1899999999950523
-0.1956,1.0138,-0.0243,0.2031,0.2078,0.0874,-0.6388,-0.1138,-3.3338,-1.3485954563845914,-10.901463821216302,-0.8135500999922245,1.1899999999950523
-0.1911,1.0129,-0.0211,0.2036,0.2108,0.091,-0.6037,-0.7525,-3.6662,-1.2859643506461804,-10.774485212325175,-0.8248375999917865,1.2049999999944703
-0.1909,1.0141,-0.0252,0.2036,0.2108,0.091,-0.0613,-1.365,-3.8063,-1.3022162391761316,-10.71003462803285,-0.8248375999917865,1.2049999999944703
-0.1876,1.017,-0.0222,0.2036,0.2108,0.091,-0.2013,-1.8813,-3.4738,-1.2910943497152898,-10.550853183497598,-0.8549383999979189,1.22099999999773
-0.1826,1.0155,-0.0198,0.2023,0.2116,0.0909,-0.2013,-1.8813,-3.4738,-1.2536499890997734,-10.331756136472022,-0.8549383999979189,1.22099999999773
-0.1826,1.0146,-0.0245,0.2023,0.2116,0.0909,-0.3588,-1.9338,-3.5788,-1.292724974945674,-10.253297064037403,-0.8839454000108635,1.2360000000044238
-0.1793,1.0146,-0.0245,0.2043,0.211,0.0899,-0.525,-2.0213,-3.9288,-1.3266014157043464,-10.130063721194261,-0.8839454000108635,1.2360000000044238
-0.178,1.015,-0.022,0.2043,0.211,0.0899,-0.525,-2.0213,-3.9375,-1.2948334911288932,-10.03283654556913,-0.9162861999880384,1.2519999999931315
-0.1759,1.0133,-0.0238,0.2043,0.211,0.0899,0.21,-1.3563,-3.9375,-1.300948846320997,-9.934550803177537,-0.9162861999880384,1.2519999999931315
-0.1735,1.0125,-0.0278,0.2041,0.2102,0.0934,0.1925,-1.7763,-3.5963,-1.3300251997229275,-9.807901280543692,-0.9447069999938285,1.2679999999963911
-0.1743,1.0153,-0.0278,0.2041,0.2102,0.0934,0.805,-1.82,-4.2175,-1.4308046216795625,-9.776226254312002,-0.9447069999938285,1.2679999999963911
-0.1743,1.0153,-0.0278,0.2035,0.2108,0.0829,0.805,-1.82,-4.2175,-1.4889817818793183,-9.758827909593984,-0.9720069999927691,1.282999999995809
-0.1708,1.018,-0.0245,0.2035,0.2108,0.0829,1.4088,-1.3475,-4.3488,-1.4258849541157574,-9.662059137690875,-0.9720069999927691,1.282999999995809
-0.1719,1.0134,-0.0275,0.2035,0.2108,0.0829,0.9975,-0.9975,-4.1562,-1.4876401992041188,-9.644128640681542,-0.9879669999960206,1.2989999999990687
-0.176,1.0162,-0.029,0.2027,0.2098,0.0967,1.1113,-1.3125,-4.3663,-1.5625340627153315,-9.715565952523823,-0.9879669999960206,1.2989999999990687
-0.1761,1.0172,-0.0261,0.2027,0.2098,0.0967,1.1113,-1.3125,-4.3663,-1.5152950542925117,-9.756991061762772,-1.0076544999952566,1.3139999999984866
-0.1761,1.0172,-0.0304,0.2039,0.2094,0.0973,1.4262,-1.3212,-4.8038,-1.628321907313471,-9.76848127280367,-1.0076544999952566,1.3139999999984866
-0.1784,1.0172,-0.0304,0.2039,0.2094,0.0973,1.2775,-1.6013,-4.8913,-1.6739541165239828,-9.790844703957152,-1.0332752999888253,1.3299999999944703
-0.1807,1.0183,-0.0322,0.2032,0.2098,0.089,1.1375,-1.3913,-5.2587,-1.7447122497731895,-9.83906207249675,-1.0332752999888253,1.3299999999944703
-0.1792,1.0168,-0.0304,0.2032,0.2098,0.089,1.1375,-1.3913,-5.2587,-1.7281022956155065,-9.86647852742549,-1.0555360999933605,1.34599999999773
-0.1769,1.0188,-0.0364,0.2032,0.2098,0.089,1.1812,-1.7587,-5.4338,-1.8953401870051487,-9.860168008990584,-1.0555360999933605,1.34599999999773
-0.1776,1.0197,-0.0317,0.2034,0.2115,0.0933,0.7437,-2.1788,-5.4513,-1.8492715630846595,-9.864609278070807,-1.0882180999920923,1.3609999999971478
-0.1776,1.0197,-0.0317,0.2034,0.2115,0.0933,0.84,-2.3537,-5.145,-1.8194628967919073,-9.865647466833963,-1.0882180999920923,1.3609999999971478
-0.1728,1.018,-0.0348,0.2015,0.2106,0.0858,0.84,-2.3537,-5.145,-1.8795560399234197,-9.84272127352519,-1.1258772999997644,1.3770000000004075
-0.1747,1.0228,-0.0363,0.2015,0.2106,0.0858,0.665,-2.975,-5.3812,-1.9364916752953982,-9.80291897049743,-1.1258772999997644,1.3770000000004075
-0.1703,1.0216,-0.0354,0.2015,0.2106,0.0858,0.175,-2.9662,-5.2063,-1.940955095247617,-9.75333260565673,-1.1703702999764558,1.3919999999925494
-0.1712,1.0167,-0.0332,0.2042,0.2097,0.0917,-2.065,-3.2375,-5.81,-1.8928248258160076,-9.666169388940617,-1.1703702999764558,1.3919999999925494
-0.1712,1.0173,-0.035,0.2042,0.2097,0.0917,-0.035,-3.2375,-5.81,-1.9003753347365395,-9.614329359597981,-1.2221702999870088,1.407999999995809
-0.1701,1.0173,-0.035,0.2033,0.2094,0.0888,-0.2713,-2.9488,-5.4775,-1.9183174359769941,-9.575442771151746,-1.2221702999870088,1.407999999995809
-0.1701,1.0175,-0.0307,0.2033,0.2094,0.0888,0.0,-2.4762,-5.5738,-1.905430376448026,-9.544377094474326,-1.2617894999950803,1.4239999999990687
-0.1679,1.0142,-0.034,0.2033,0.2094,0.0888,0.0,-2.4762,-5.5738,-1.9064222173679974,-9.492209565632244,-1.2617894999950803,1.4239999999990687
-0.1703,1.0158,-0.0343,0.205,0.2114,0.0939,-0.14,-2.3187,-5.915,-1.911249391905067,-9.501395949827598,-1.2965699999937306,1.4389999999984866
-0.1703,1.0215,-0.0321,0.205,0.2114,0.0939,0.2625,-1.9338,-5.67,-1.8934865199883275,-9.485546595736173,-1.2965699999937306,1.4389999999984866
-0.1703,1.0215,-0.0321,0.2026,0.2117,0.0894,0.0088,-1.9338,-5.9588,-1.8878637908708404,-9.473523628580486,-1.327510800000034,1.4550000000017462
-0.1676,1.0207,-0.0318,0.2026,0.2117,0.0894,0.0088,-1.9338,-5.9588,-1.8816528557884766,-9.400108766154656,-1.327510800000034,1.4550000000017462
-0.1715,1.0195,-0.0329,0.2026,0.2117,0.0894,-0.7525,-2.7125,-6.0375,-1.866589060391528,-9.472034489457286,-1.368198299978719,1.4699999999938882
-0.1749,1.0217,-0.0328,0.2037,0.211,0.0859,-0.6913,-1.82,-6.72,-1.854533966243961,-9.620724762937737,-1.3973182999846516,1.4859999999971478
-0.1732,1.0207,-0.0339,0.2037,0.211,0.0859,-0.4812,-1.4088,-6.6937,-1.871538359147968,-9.623659927842949,-1.3973182999846516,1.4859999999971478
-0.1732,1.0207,-0.0338,0.2041,0.2106,0.0873,-0.4812,-1.4088,-6.6937,-1.88048252465127,-9.624784303672984,-1.4198590999892438,1.5020000000004075
-0.1786,1.0195,-0.0338,0.2041,0.2106,0.0873,-1.2337,-1.4438,-6.7638,-1.8908922975845657,-9.818734215236212,-1.4198590999892438,1.5020000000004075
-0.1811,1.0188,-0.03,0.2062,0.2108,0.0888,-0.84,-1.5225,-6.8162,-1.7934396992099413,-9.982903041298183,-1.4426965999883576,1.5169999999998254
-0.181,1.0179,-0.0328,0.2062,0.2108,0.0888,-0.8838,-1.7938,-6.9388,-1.8189475400208392,-10.044991484888016,-1.4426965999883576,1.5169999999998254
-0.1815,1.0185,-0.0327,0.2062,0.2108,0.0888,-0.8838,-1.7938,-6.9388,-1.8287063513660342,-10.080466243270221,-1.4713973999811532,1.532999999995809
-0.1814,1.0191,-0.0309,0.2051,0.2115,0.0869,-0.3413,-1.575,-6.825,-1.801775024639818,-10.085559425509556,-1.4713973999811532,1.532999999995809
-0.1814,1.0191,-0.0309,0.2051,0.2115,0.0869,-1.015,-1.6187,-6.6325,-1.7678839313717025,-10.087311070703946,-1.495677899980211,1.547999999995227
-0.1818,1.0164,-0.0298,0.2052,0.2118,0.0887,-1.05,-1.8463,-6.6062,-1.721075516854379,-10.117525907574121,-1.495677899980211,1.547999999995227
-0.1847,1.0149,-0.0327,0.2052,0.2118,0.0887,-1.05,-1.8463,-6.6062,-1.7868457661671742,-10.234472875480543,-1.5252186999862292,1.5639999999984866
-0.1868,1.0196,-0.0304,0.2052,0.2118,0.0887,-0.8838,-1.8463,-6.7025,-1.7482027270132077,-10.32379456846218,-1.5252186999862292,1.5639999999984866
-0.1827,1.0191,-0.0279,0.2031,0.213,0.0873,-0.9712,-1.9425,-7.1838,-1.6562678359600913,-10.212104141401532,-1.556298699992561,1.5800000000017462
-0.1827,1.0191,-0.0294,0.2031,0.213,0.0873,-0.9712,-1.9425,-6.895,-1.6543264438635592,-10.17800401433813,-1.556298699992561,1.5800000000017462
-0.181,1.0182,-0.0294,0.2047,0.212,0.0894,-1.6013,-1.75,-6.895,-1.6540760962402727,-10.111546465596174,-1.5825486999788094,1.5949999999938882
-0.1814,1.0202,-0.0265,0.2047,0.212,0.0894,-2.3012,-1.5488,-6.51,-1.5371816331812016,-10.0921436976679,-1.5825486999788094,1.5949999999938882
-0.1835,1.0217,-0.0248,0.2047,0.212,0.0894,-2.3275,-1.19,-6.755,-1.4336268468637052,-10.14702074216341,-1.6015886999826885,1.6109999999971478
-0.1849,1.0171,-0.0235,0.2037,0.2122,0.0886,-2.3275,-1.19,-6.755,-1.3559433421452511,-10.244116751804873,-1.6015886999826885,1.6109999999971478
-0.1864,1.013,-0.0264,0.2037,0.2122,0.0886,-1.9162,-1.12,-6.7288,-1.4470512557775583,-10.35638334962487,-1.6183886999820365,1.6259999999965657
-0.1864,1.013,-0.0264,0.2045,0.2115,0.0882,-2.2575,-0.8575,-6.545,-1.4791038805322854,-10.396297617510799,-1.6183886999820365,1.6259999999965657
-0.1926,1.0112,-0.0243,0.2045,0.2115,0.0882,-1.96,-0.665,-6.93,-1.4104004438243158,-10.647801912267377,-1.629028699984204,1.6419999999998254
-0.1978,1.0092,-0.0264,0.2045,0.2115,0.0882,-1.96,-0.665,-6.93,-1.4694353180624717,-10.934162634214283,-1.629028699984204,1.6419999999998254
-0.2011,1.0099,-0.0271,0.2064,0.2118,0.0942,-1.1988,-1.7062,-7.0963,-1.5073259521267655,-11.15208885133326,-1.6563278999897657,1.658000000003085
-0.2013,1.0167,-0.0267,0.2064,0.2118,0.0942,-0.3063,-2.0475,-7.1663,-1.506500764136443,-11.181681077328255,-1.6563278999897657,1.658000000003085
-0.2013,1.0167,-0.0262,0.2054,0.2126,0.0933,-0.0263,-1.9338,-7.3763,-1.5037677116653256,-11.191518181570034,-1.6892024999753579,1.6749999999956344
-0.1959,1.023,-0.0262,0.2054,0.2126,0.0933,-0.0263,-1.9338,-7.3763,-1.5004622254932527,-10.943326387875384,-1.6892024999753579,1.6749999999956344
-0.1915,1.0244,-0.0264,0.2054,0.2139,0.0892,-0.1312,-2.1525,-6.9563,-1.4963617945957324,-10.707887157268841,-1.7236424999823743,1.690999999998894
-0.1907,1.0257,-0.0248,0.2053,0.2139,0.0892,-0.4462,-1.89,-6.755,-1.4583380011674534,-10.595011979844923,-1.7236424999823743,1.690999999998894
-0.1893,1.0236,-0.0235,0.2053,0.2139,0.0892,-0.8838,-2.1175,-6.2387,-1.3883480265633297,-10.529506510708359,-1.7554049999657348,1.705999999991036
-0.1897,1.0203,-0.0228,0.2072,0.2141,0.0938,-0.8838,-2.1175,-6.2387,-1.3354462998846572,-10.529734092631813,-1.7554049999657348,1.705999999991036
-0.1897,1.0203,-0.0228,0.2072,0.2141,0.0938,-1.5575,-1.7325,-5.5825,-1.3011670194436549,-10.52980091183749,-1.783124999971382,1.7219999999942956
-0.1902,1.0187,-0.026,0.205,0.213,0.0914,-1.8112,-1.505,-5.53,-1.4062486783036092,-10.543872266554443,-1.783124999971382,1.7219999999942956
-0.1884,1.0151,-0.0195,0.205,0.213,0.0914,-1.8112,-1.6275,-5.8625,-1.2065268208681763,-10.529658889155764,-1.8091649999766872,1.7379999999975553
-0.185,1.0124,-0.0224,0.205,0.213,0.0914,-1.8463,-1.6275,-5.8625,-1.2466111381013552,-10.449901410770375,-1.8091649999766872,1.7379999999975553
-0.1853,1.0107,-0.0223,0.2063,0.2146,0.0916,-1.7675,-1.4875,-5.775,-1.257854424540906,-10.42306968316831,-1.8314774999758214,1.7529999999969732
-0.1853,1.0107,-0.0173,0.2063,0.2146,0.0916,-2.065,-0.8138,-5.9588,-1.068980613825081,-10.40608772375887,-1.8314774999758214,1.7529999999969732
-0.1858,1.0119,-0.0173,0.2053,0.2137,0.0906,-2.065,-0.8138,-5.9588,-1.0079937793056457,-10.404599195400307,-1.844498299978474,1.7690000000002328
-0.1873,1.0116,-0.0217,0.2053,0.2137,0.0906,-1.4612,-0.14,-5.74,-1.1417037502281375,-10.438704376495384,-1.844498299978474,1.7690000000002328
-0.1905,1.0137,-0.0208,0.2053,0.2137,0.0906,-1.3212,0.3237,-5.845,-1.1613713227206002,-10.529049424702748,-1.8396427999810177,1.7839999999923748
-0.1907,1.0169,-0.0179,0.206,0.2135,0.0836,-1.61,0.4112,-6.335,-1.0654498215182642,-10.580261294534587,-1.8396427999810177,1.7839999999923748
-0.192,1.0175,-0.0192,0.206,0.2135,0.0836,-1.61,0.4112,-6.335,-1.0752226316559932,-10.63888105729055,-1.8330635999796774,1.7999999999956344
-0.192,1.0175,-0.0192,0.2078,0.2136,0.0913,-1.2775,0.175,-6.195,-1.0785592323059436,-10.663124800639173,-1.8330635999796774,1.7999999999956344
-0.1937,1.0189,-0.0206,0.2078,0.2136,0.0913,-1.33,0.0787,-5.7488,-1.1250780787641805,-10.704092550581398,-1.831804399979421,1.815999999998894
-0.1935,1.02,-0.0174,0.2078,0.2136,0.0913,-1.5925,0.385,-5.565,-1.0327493373596408,-10.71654431951837,-1.831804399979421,1.815999999998894
-0.1954,1.015,-0.0189,0.2068,0.213,0.0938,-1.5925,0.385,-5.565,-1.0540013335540956,-10.778123495909524,-1.826029399979645,1.830999999998312
-0.1943,1.0148,-0.0195,0.2068,0.213,0.0938,-1.5575,0.1312,-5.3463,-1.0830307245462412,-10.792013340670213,-1.826029399979645,1.830999999998312
-0.1943,1.0148,-0.0195,0.2075,0.2128,0.0938,-1.4525,0.1838,-5.6087,-1.0937861042547607,-10.808385639711581,-1.823088599979046,1.8470000000015716
-0.1951,1.0208,-0.0183,0.2075,0.2128,0.0938,-1.4525,-0.2713,-5.04,-1.053470684762019,-10.808404950997282,-1.823088599979046,1.8470000000015716
-0.1922,1.0192,-0.0154,0.2075,0.2127,0.0878,-1.4525,-0.2713,-5.04,-0.9400383983999755,-10.808155029447953,-1.8271580999769141,1.8619999999937136
-0.1934,1.0151,-0.0169,0.2059,0.2127,0.0878,-1.1113,-0.1663,-5.1013,-0.9475025996098277,-10.80680383569707,-1.8271580999769141,1.8619999999937136
-0.1934,1.0138,-0.0173,0.2059,0.2127,0.0878,-0.9187,-0.8925,-4.9262,-0.9625011121695101,-10.806004854509249,-1.8414380999798234,1.8779999999969732
-0.1911,1.0139,-0.0169,0.2061,0.2144,0.0963,-1.3475,-1.2513,-5.145,-0.9580614563785964,-10.793103869896083,-1.8414380999798234,1.8779999999969732
-0.1911,1.0139,-0.0169,0.2061,0.2144,0.0963,-1.3475,-1.2513,-5.145,-0.9562270508439996,-10.781449053243824,-1.8614588999839021,1.8940000000002328
-0.1942,1.0109,-0.0157,0.2067,0.2154,0.0974,-0.7525,-1.1725,-5.18,-0.9261818440484135,-10.792840454503652,-1.8790463999832197,1.9089999999996508
-0.1906,1.0126,-0.021,0.2067,0.2154,0.0974,-0.4025,-1.435,-4.83,-1.0105443409016335,-10.769568138106926,-1.8790463999832197,1.9089999999996508
-0.1916,1.016,-0.0158,0.2067,0.2154,0.0974,-0.4025,-1.435,-5.2063,-0.972017554503485,-10.756426782178417,-1.9020063999878971,1.9250000000029104
-0.1874,1.0185,-0.018,0.2062,0.2141,0.0858,-0.4112,-2.0475,-5.2063,-0.985214495737798,-10.708557468193362,-1.9020063999878971,1.9250000000029104
-0.1874,1.0185,-0.018,0.2062,0.2141,0.0858,-0.0437,-1.4875,-5.2413,-0.9880582199656648,-10.660495830732836,-1.9243188999762082,1.9399999999950523
-0.187,1.0191,-0.0196,0.208,0.2133,0.0907,-0.245,-1.3913,-4.7337,-1.015485986516912,-10.598764382274963,-1.9243188999762082,1.9399999999950523
-0.1884,1.0193,-0.018,0.208,0.2133,0.0907,-0.245,-1.3913,-4.7337,-1.0145710248807411,-10.568799927739713,-1.9465796999807434,1.955999999998312
-0.189,1.0203,-0.0179,0.208,0.2133,0.0907,-1.0412,-1.4525,-4.62,-1.009572949916838,-10.546427414164054,-1.9465796999807434,1.955999999998312
-0.1904,1.0172,-0.0184,0.2078,0.2138,0.0963,-0.7437,-1.6538,-4.6375,-1.0215871585436518,-10.561828262174132,-1.9730404999861342,1.9720000000015716
-0.1896,1.0154,-0.0187,0.2078,0.2138,0.0963,-0.595,-1.7413,-4.6375,-1.0349897271721595,-10.565586791891299,-1.9730404999861342,1.9720000000015716
-0.1896,1.0154,-0.0187,0.2058,0.2126,0.0919,-0.595,-1.7413,-4.6375,-1.0430262133994275,-10.568270349965701,-1.999159999972451,1.9869999999937136
-0.1884,1.0153,-0.0195,0.2058,0.2126,0.0919,-0.6913,-1.89,-5.1013,-1.0678303357140706,-10.56482885257002,-1.999159999972451,1.9869999999937136
-0.1898,1.0157,-0.019,0.2058,0.2126,0.0919,-0.6825,-1.6888,-5.3637,-1.0694814251803237,-10.569233648071789,-2.026180799977956,2.002999999996973
-0.1886,1.0136,-0.02,0.2078,0.2142,0.0971,-0.3413,-1.9425,-5.1275,-1.0873161270992848,-10.566706753318927,-2.026180799977956,2.002999999996973
-0.1853,1.0153,-0.0164,0.2078,0.2142,0.0971,-0.3413,-1.9425,-5.1275,-1.0399110836322853,-10.548242507278248,-2.0553182999768254,2.017999999996391
-0.1853,1.0153,-0.0164,0.2071,0.214,0.0899,-0.1838,-2.3888,-5.4425,-1.0165359791072242,-10.488783143738171,-2.0553182999768254,2.017999999996391
-0.184,1.0133,-0.0173,0.2071,0.214,0.0899,-0.28,-2.5287,-5.8012,-1.0065170306761333,-10.402935842667626,-2.095777499985068,2.0339999999996508
-0.1856,1.0136,-0.0199,0.2071,0.214,0.0913,-0.4725,-2.24,-5.4425,-1.04823199977671,-10.39474888999884,-2.095777499985068,2.0339999999996508
-0.1844,1.0157,-0.0163,0.206,0.2142,0.0913,-0.4725,-2.24,-5.4425,-1.0027770509854348,-10.364198266616922,-2.1316174999923696,2.0500000000029104
-0.1842,1.0152,-0.0175,0.206,0.2142,0.0913,-0.3588,-2.0475,-5.3725,-0.9981917941000437,-10.343721316938566,-2.1316174999923696,2.0500000000029104
-0.186,1.0163,-0.0223,0.2065,0.2139,0.0885,-0.2625,-1.5662,-5.0838,-1.0631678331705579,-10.344820926863,-2.1551104999800623,2.0649999999950523
-0.186,1.0163,-0.0223,0.2065,0.2139,0.0885,1.9775,-1.225,-5.3725,-1.1902725766445883,-10.3508480012653,-2.1551104999800623,2.0649999999950523
-0.1884,1.015,-0.021,0.2077,0.2135,0.0874,0.4288,-1.225,-5.3725,-1.188956573698363,-10.391517336210201,-2.174710499984055,2.080999999998312
-0.1871,1.0153,-0.0199,0.2077,0.2135,0.0874,-0.2537,-1.575,-5.3637,-1.172691059075507,-10.403277266483551,-2.174710499984055,2.080999999998312
-0.1873,1.016,-0.0211,0.2077,0.2135,0.0874,-0.6913,-1.1988,-5.5738,-1.180071461447267,-10.417142457887614,-2.1926924999833575,2.09599999999773
-0.19,1.018,-0.0218,0.2065,0.2126,0.1032,-0.6913,-1.1988,-5.5738,-1.2002993666211383,-10.47036231655349,-2.1926924999833575,2.09599999999773
-0.19,1.018,-0.0218,0.2065,0.2126,0.1032,-0.6562,-1.6187,-5.6087,-1.211461630086485,-10.506454299582677,-2.2185916999886337,2.1120000000009895
-0.1901,1.0172,-0.022,0.2058,0.2128,0.0918,-0.5425,-2.1175,-5.7838,-1.2219505957503631,-10.539248006644025,-2.2185916999886337,2.1120000000009895
-0.1888,1.0178,-0.0226,0.2058,0.2128,0.0918,-0.42,-1.9075,-5.4775,-1.2384807059935825,-10.52918364559061,-2.2491116999809724,2.127999999996973
-0.1884,1.0196,-0.0216,0.2058,0.2128,0.0918,-0.42,-1.9075,-5.4775,-1.2302736524343065,-10.510090953312949,-2.2491116999809724,2.127999999996973
-0.1886,1.0192,-0.0207,0.2074,0.2156,0.0918,-0.6737,-1.8375,-5.6087,-1.2017432535669925,-10.499781147239451,-2.2766741999799027,2.142999999996391
-0.1858,1.0197,-0.0186,0.2074,0.2156,0.0918,-1.5137,-1.505,-5.6788,-1.1056006072228648,-10.431495948931431,-2.2766741999799027,2.142999999996391
-0.1858,1.0197,-0.0186,0.2061,0.2141,0.0919,-1.12,-1.6712,-5.4862,-1.0726355557672467,-10.39851614690725,-2.30341339998535,2.1589999999996508
-0.1853,1.0181,-0.022,0.2061,0.2141,0.0919,-1.12,-1.6712,-5.4862,-1.16253290283223,-10.372019160844689,-2.30341339998535,2.1589999999996508
-0.1851,1.0172,-0.0165,0.2061,0.2141,0.0919,-1.295,-1.3563,-5.8538,-1.027813145772715,-10.345030671926365,-2.3237578999845607,2.1739999999990687
-0.188,1.0157,-0.0163,0.2082,0.213,0.0904,-1.5488,-1.365,-5.7925,-0.9607590866451335,-10.405265100010654,-2.3237578999845607,2.1739999999990687
-0.1864,1.0138,-0.0187,0.2082,0.213,0.0904,-1.3825,-1.26,-5.7137,-1.0176394809806975,-10.409781333114102,-2.343917899988668,2.1900000000023283
-0.1864,1.0138,-0.0187,0.2086,0.2132,0.0867,-1.3825,-1.26,-5.7137,-1.0408066554788833,-10.412476589208968,-2.343917899988668,2.1900000000023283
-0.1878,1.016,-0.0143,0.2086,0.2132,0.0867,-1.2163,-0.6125,-5.6788,-0.9087901507608147,-10.435517901982928,-2.353717899986208,2.205999999998312
-0.1906,1.0141,-0.0148,0.2086,0.2132,0.0902,-0.7175,-0.6212,-5.985,-0.8767164771872022,-10.536648650472198,-2.3630358999858463,2.22099999999773
-0.1918,1.0142,-0.0157,0.2077,0.2139,0.0902,-1.085,-0.6737,-5.845,-0.8821687293111415,-10.613054441110135,-2.3630358999858463,2.22099999999773
-0.1906,1.0147,-0.0156,0.2077,0.2139,0.0902,-1.085,-0.6737,-5.845,-0.8814322215234123,-10.623826778560034,-2.3738150999880423,2.2370000000009895
-0.1925,1.0169,-0.0153,0.208,0.2124,0.0971,-1.3388,-0.4375,-5.845,-0.8700531969389088,-10.665932310432593,-2.3738150999880423,2.2370000000009895
-0.1925,1.0169,-0.0153,0.208,0.2124,0.0971,-0.8575,-0.84,-6.2213,-0.8661681417715682,-10.69421206059383,-2.3864150999875533,2.2520000000004075
-0.1936,1.0137,-0.0134,0.2071,0.2147,0.0946,-0.8575,-0.84,-5.845,-0.8137228657172019,-10.746555491100114,-2.3864150999875533,2.2520000000004075
-0.1947,1.0134,-0.0143,0.2071,0.2147,0.0946,-0.4988,-0.8313,-5.845,-0.8118024198019216,-10.803649347220823,-2.3997158999842143,2.267999999996391
-0.1994,1.0172,-0.0181,0.2071,0.2147,0.0946,-1.1463,-1.2862,-5.9938,-0.9258517366447624,-10.943214676285399,-2.3997158999842143,2.267999999996391
-0.1987,1.0138,-0.0153,0.2079,0.2154,0.0971,-0.945,-1.2075,-5.7838,-0.8949706145700579,-11.00502138146674,-2.4190358999793644,2.283999999992375
-0.1987,1.0138,-0.0153,0.2079,0.2154,0.0971,-0.945,-1.2075,-5.7838,-0.8796656175438652,-11.040426027668536,-2.4190358999793644,2.283999999992375
-0.2014,1.0165,-0.0176,0.2077,0.2139,0.0903,-0.7175,-1.1725,-6.1425,-0.9292235279378166,-11.126944527518665,-2.436623399987213,2.2989999999990687
-0.1999,1.0158,-0.0147,0.2077,0.2139,0.0903,-0.8925,-1.6975,-6.2737,-0.8800427456565609,-11.129672747862035,-2.436623399987213,2.2989999999990687
-0.1985,1.0185,-0.0133,0.2077,0.2139,0.0903,-0.665,-1.995,-6.335,-0.8240500112322409,-11.071963174397647,-2.468543399993716,2.3150000000023283
-0.1979,1.0171,-0.0162,0.2086,0.2125,0.0954,-0.665,-1.995,-6.335,-0.8616037532512277,-11.036561600249328,-2.468543399993716,2.3150000000023283
-0.1934,1.0146,-0.0148,0.2086,0.2125,0.0954,-0.6825,-2.3975,-5.8538,-0.8504650268947096,-10.926224483433767,-2.5045058999748764,2.3299999999944703
-0.1934,1.0146,-0.0148,0.2085,0.2139,0.0917,-0.42,-2.1,-5.6438,-0.8455966542383246,-10.875199560192003,-2.5045058999748764,2.3299999999944703
-0.1942,1.0196,-0.0164,0.2085,0.2139,0.0917,-0.6475,-2.1263,-5.7225,-0.877379096818476,-10.837500673388787,-2.5385266999818072,2.34599999999773
-0.1928,1.0168,-0.011,0.2085,0.2139,0.0917,-0.6475,-2.1263,-5.7225,-0.7695433037234816,-10.79627172245295,-2.5385266999818072,2.34599999999773
-0.1919,1.0119,-0.0202,0.2101,0.215,0.0877,-0.8487,-1.8988,-5.845,-0.9489280616433271,-10.769422194540336,-2.568907499974181,2.3619999999937136
-0.1943,1.0173,-0.0188,0.2101,0.215,0.0877,-0.2187,-1.5838,-5.3375,-0.9737037130081716,-10.779053631037367,-2.568907499974181,2.3619999999937136
-0.1943,1.0173,-0.0188,0.2071,0.2155,0.087,-0.4462,-1.8112,-5.6262,-1.0027490174201994,-10.790965775088472,-2.596075499986305,2.3770000000004075
-0.1923,1.0187,-0.0176,0.2071,0.2155,0.087,-0.4462,-1.8112,-5.6262,-0.9983238825520598,-10.752973818854692,-2.596075499986305,2.3770000000004075
-0.1879,1.0175,-0.015,0.2071,0.2155,0.087,-0.7262,-1.9512,-5.5037,-0.9300510220596465,-10.66044660266091,-2.6272946999784685,2.392999999996391
-0.1873,1.0207,-0.019,0.2086,0.2158,0.0883,-0.7788,-1.5925,-5.2587,-0.9927669963143662,-10.612724558407157,-2.6272946999784685,2.392999999996391
-0.1895,1.021,-0.0164,0.2086,0.2158,0.0883,-0.91,-1.1812,-5.3637,-0.9568220374736811,-10.588291985644995,-2.645012699977781,2.407999999995809
-0.1895,1.0196,-0.0134,0.2084,0.2135,0.0898,-0.91,-1.1812,-5.3637,-0.855780235669627,-10.573435477910413,-2.645012699977781,2.407999999995809
-0.1893,1.0196,-0.0134,0.2084,0.2135,0.0898,-1.6013,-0.9625,-4.9,-0.7914123856930898,-10.566582081741489,-2.6604126999809186,2.4239999999990687
-0.1919,1.013,-0.0129,0.2084,0.2149,0.0898,-1.3212,-1.0325,-5.4163,-0.7554153422557656,-10.610330333189,-2.6604126999809186,2.4239999999990687
-0.1968,1.0104,-0.0165,0.2084,0.2149,0.0898,-1.3212,-1.0325,-4.8562,-0.8603126877071675,-10.673422896268628,-2.6769326999767715,2.4399999999950523
-0.2029,1.0099,-0.0194,0.2084,0.2149,0.0898,-0.5337,-1.085,-4.8562,-0.9509848230920751,-10.77878213558416,-2.6769326999767715,2.4399999999950523
-0.2031,1.0117,-0.0157,0.2071,0.2146,0.0905,-0.2625,-1.3825,-5.04,-0.9354405327407984,-10.77987844312133,-2.697670199986026,2.4550000000017462
-0.2031,1.0117,-0.0157,0.2071,0.2146,0.0905,0.525,-1.0938,-5.355,-0.9209991829028695,-10.917076035858033,-2.697670199986026,2.4550000000017462
-0.1987,1.0167,-0.0162,0.2074,0.2151,0.0954,0.525,-1.0938,-5.355,-0.9184669480323315,-10.950729064197912,-2.715170999981633,2.47099999999773
-0.1989,1.0213,-0.0174,0.2074,0.2151,0.0954,0.2187,-1.47,-5.915,-0.9258036303567533,-10.982601766849145,-2.715170999981633,2.47099999999773
-0.1964,1.0255,-0.0157,0.2074,0.2151,0.0954,-0.1488,-1.9338,-6.0287,-0.9169728078186957,-10.911913397702799,-2.7441779999805074,2.485999999997148
-0.1962,1.0242,-0.015,0.2092,0.2174,0.0928,-0.315,-2.0825,-6.2475,-0.895207403250352,-10.874356799583754,-2.7441779999805074,2.485999999997148
-0.1962,1.0205,-0.0109,0.2092,0.2174,0.0928,-0.315,-2.0825,-6.2475,-0.8160692945999032,-10.878657776218223,-2.7774979999872955,2.5020000000004075
-0.1976,1.0205,-0.0109,0.2069,0.2145,0.0934,-1.0412,-2.2925,-6.3525,-0.70851256337289,-10.92371355382201,-2.7774979999872955,2.5020000000004075
-0.2021,1.0158,-0.0148,0.2069,0.2145,0.0934,-1.4875,-2.3363,-6.3525,-0.7854297389916014,-11.109740518512488,-2.814878799977912,2.517999999996391
-0.2026,1.0119,-0.0168,0.2069,0.2145,0.0934,-1.33,-2.905,-6.3963,-0.8821848301591914,-11.231064439521893,-2.814878799977912,2.517999999996391
-0.2025,1.0093,-0.0101,0.2087,0.2161,0.094,-1.33,-2.905,-6.3963,-0.7018776190259839,-11.296287861847379,-2.858453799997358,2.533000000003085
-0.2007,1.0085,-0.0132,0.2087,0.2161,0.094,-1.9688,-3.2287,-6.6413,-0.7341023505737188,-11.270463018975056,-2.858453799997358,2.533000000003085
-0.2007,1.0085,-0.0132,0.2079,0.2153,0.0928,-1.3038,-3.535,-5.9412,-0.7432451064008146,-11.262818964068444,-2.91501379995744,2.5489999999917927
-0.1986,1.0091,-0.0127,0.2079,0.2153,0.0928,-0.6737,-3.1325,-6.1863,-0.7337616763770413,-11.193520995652205,-2.9620012999784087,2.5639999999984866
-0.1972,1.0109,-0.0116,0.2079,0.2153,0.0928,-0.6737,-3.1325,-6.1863,-0.7011401276099324,-11.11016426204645,-2.9620012999784087,2.5639999999984866
-0.1938,1.0144,-0.0085,0.2098,0.2158,0.0882,-0.595,-2.7213,-5.88,-0.6126364805233274,-10.97551690941827,-3.005542099987279,2.5800000000017462
-0.1933,1.0134,-0.0138,0.2098,0.2158,0.0882,-0.4462,-2.4325,-6.1512,-0.669874749595367,-10.882074500230496,-3.005542099987279,2.5800000000017462
-0.1933,1.0126,-0.0113,0.2082,0.2177,0.0949,-0.4462,-1.8637,-5.39,-0.6594496644777367,-10.862474325837958,-3.035361299979794,2.59599999999773
-0.1944,1.0126,-0.0113,0.2082,0.2177,0.0949,-0.5425,-1.8637,-5.39,-0.6517975763794909,-10.863604798067456,-3.035361299979794,2.59599999999773
-0.1957,1.0139,-0.009,0.2078,0.2167,0.0994,-0.49,-1.1375,-5.3288,-0.6002263579191963,-10.877274979980415,-3.052423799979132,2.610999999997148
-0.1955,1.015,-0.011,0.2078,0.2167,0.0994,-0.525,-0.8487,-5.3987,-0.6079661712764703,-10.883735602908374,-3.052423799979132,2.610999999997148
-0.1965,1.0142,-0.0163,0.2078,0.2167,0.0994,-0.525,-0.8487,-5.3987,-0.7249864836578114,-10.90494204204169,-3.0660029999757232,2.6269999999931315
-0.1988,1.0135,-0.0167,0.2089,0.217,0.0958,0.1312,-0.7525,-5.6087,-0.7370882338947111,-10.974468056986549,-3.0660029999757232,2.6269999999931315
-0.1988,1.0135,-0.0167,0.2089,0.217,0.0958,0.2713,-0.2362,-5.5125,-0.7713714293058144,-11.01367307910493,-3.0695459999773043,2.6419999999998254
-0.1932,1.0164,-0.0135,0.2103,0.2145,0.0922,0.4812,-0.2625,-5.2238,-0.7683541600767383,-10.974191784764383,-3.0695459999773043,2.6419999999998254
-0.1965,1.0199,-0.0193,0.2103,0.2145,0.0922,0.4812,-0.2625,-5.2238,-0.8599267618888138,-10.963105818346467,-3.0742709999782667,2.6600000000034925
-0.1942,1.0226,-0.0159,0.2103,0.2145,0.0922,0.49,0.42,-4.7512,-0.8690158882778866,-10.915959116858986,-3.070910999980638,2.6679999999978463
-0.1956,1.0191,-0.0164,0.2102,0.2155,0.0963,0.0875,0.7437,-4.5588,-0.8697872657225754,-10.898965393552118,-3.070910999980638,2.6679999999978463
-0.1956,1.0167,-0.0182,0.2102,0.2155,0.0963,-0.5863,0.6388,-3.8063,-0.9316594167612389,-10.89303123516458,-3.0600513999807495,2.6849999999976717
-0.1962,1.0167,-0.0182,0.2086,0.217,0.0942,-0.5863,0.6388,-3.8063,-0.9689539264785492,-10.908363741409305,-3.0555797999821626,2.69199999999546
-0.1985,1.0164,-0.0189,0.2086,0.217,0.0942,-0.9538,0.7437,-3.5875,-1.0177545332084466,-10.99146035687549,-3.0496301999809505,2.6999999999970896
-0.1998,1.0153,-0.017,0.2086,0.217,0.0942,-0.7875,0.0962,-4.0338,-0.9907052960108674,-11.061583844808773,-3.048860599980794,2.7079999999987194
-0.1976,1.0141,-0.0172,0.2082,0.2145,0.0988,-0.7175,-0.2887,-3.9638,-0.9823127070877159,-11.042390820070157,-3.048860599980794,2.7079999999987194
-0.1976,1.0162,-0.0178,0.2082,0.2145,0.0988,-0.7175,-0.2887,-3.9638,-0.9916666347625831,-11.021573831261605,-3.053191099980626,2.7229999999981374
-0.1976,1.0162,-0.0178,0.2107,0.2163,0.1016,-0.5512,0.1138,-4.2438,-0.9962145343971794,-11.012995869070366,-3.053191099980626,2.7229999999981374
-0.1968,1.0185,-0.0159,0.2107,0.2163,0.1016,-0.2362,0.4725,-4.3488,-0.9721813884825585,-10.981138482904441,-3.0456310999790857,2.739000000001397
-0.1944,1.0192,-0.0179,0.2107,0.2163,0.1016,-0.5337,0.0088,-4.2438,-0.9850121557785809,-10.899686293208768,-3.0456310999790857,2.739000000001397
-0.1956,1.0187,-0.0112,0.2118,0.2154,0.0915,-0.5337,0.0088,-4.2438,-0.850961660305895,-10.885838873349462,-3.0454990999791547,2.753999999993539
-0.1975,1.0183,-0.0179,0.2118,0.2154,0.0915,-0.77,-0.7088,-4.5588,-0.9223487788060476,-10.914605163379454,-3.0454990999791547,2.753999999993539
-0.1975,1.0183,-0.015,0.2099,0.215,0.0874,-0.7788,-1.015,-5.0487,-0.8862841247234448,-10.915241232767043,-3.0617390999824634,2.7699999999967986
-0.199,1.0197,-0.015,0.2099,0.215,0.0874,-0.7788,-1.015,-4.8738,-0.8662728677500809,-10.933073461605192,-3.0617390999824634,2.7699999999967986
-0.1964,1.0162,-0.0129,0.2104,0.2158,0.0922,-0.9275,-1.0237,-4.8738,-0.7967758143708576,-10.933736760108326,-3.078118299978352,2.7859999999927823
-0.1959,1.0164,-0.0126,0.2104,0.2158,0.0922,-1.3125,-1.5575,-4.9088,-0.7465211798950581,-10.930852551591602,-3.078118299978352,2.7859999999927823
-0.1962,1.0162,-0.0135,0.2104,0.2158,0.0922,-1.1025,-1.6975,-4.9088,-0.7544071696999921,-10.930391217934588,-3.103580799989715,2.800999999999476
-0.1934,1.0147,-0.0112,0.2084,0.2154,0.1012,-1.1025,-1.6975,-4.9088,-0.6884845902312429,-10.914365589437946,-3.103580799989715,2.800999999999476
-0.1934,1.0147,-0.0112,0.2084,0.2154,0.1012,-1.4,-1.4612,-4.725,-0.6550757412529872,-10.884808968975307,-3.1269599999944777,2.8170000000027358
-0.1947,1.0145,-0.0076,0.2082,0.2162,0.0955,-1.365,-1.5225,-4.7425,-0.521868319545628,-10.879982220353561,-3.1269599999944777,2.8170000000027358
-0.1917,1.0131,-0.0048,0.2082,0.2162,0.0955,-0.9013,-1.9075,-4.9175,-0.39831304683831786,-10.862205640648364,-3.1555724999794883,2.8319999999948777
-0.1912,1.0131,-0.0087,0.2082,0.2162,0.0955,-0.9013,-1.9075,-4.9175,-0.4445476073527479,-10.843375268743676,-3.1555724999794883,2.8319999999948777
-0.1923,1.0112,-0.0115,0.2078,0.2164,0.0886,-0.8925,-2.0213,-5.0225,-0.5462292786221623,-10.84219910990831,-3.187913299986077,2.8479999999981374
-0.1923,1.0112,-0.0085,0.2078,0.2164,0.0886,-1.0588,-1.6187,-4.935,-0.5119254041524192,-10.83517226798413,-3.187913299986077,2.8479999999981374
-0.192,1.0103,-0.0085,0.2089,0.2159,0.0929,-0.455,-2.0738,-4.9875,-0.5016013466843214,-10.831550850307126,-3.2210940999777478,2.863999999994121
-0.1908,1.0118,-0.0073,0.2089,0.2159,0.0929,-0.455,-2.0738,-4.9875,-0.4711252227825026,-10.824200140672536,-3.2210940999777478,2.863999999994121
-0.1914,1.0134,-0.0113,0.2089,0.2159,0.0929,-0.49,-2.5375,-5.2325,-0.5315226475977209,-10.803131967407065,-3.2591565999947334,2.879000000000815
-0.1886,1.0175,-0.0105,0.2114,0.215,0.0977,-0.9013,-2.0387,-5.215,-0.5609871296024799,-10.757624345924466,-3.2591565999947334,2.879000000000815
-0.1856,1.0166,-0.0087,0.2114,0.215,0.0977,0.0437,-1.8463,-5.4163,-0.5589945878442047,-10.644699246747065,-3.2886974000007516,2.8950000000040745
-0.1856,1.0166,-0.0087,0.2085,0.2152,0.0943,0.0437,-1.8463,-5.4163,-0.55705822952263,-10.562763958207112,-3.2886974000007516,2.8950000000040745
-0.1869,1.0147,-0.009,0.2085,0.2152,0.0943,-0.735,-2.0563,-5.565,-0.5352179096245576,-10.519042636021595,-3.319541899984593,2.9099999999962165
-0.1899,1.0155,-0.0117,0.2085,0.2152,0.0943,-0.9013,-1.9075,-5.8362,-0.5968367241140026,-10.551147325195315,-3.319541899984593,2.9099999999962165
-0.1893,1.015,-0.0098,0.2096,0.2162,0.0816,-0.9013,-1.4525,-6.16,-0.5752973979089706,-10.557916717026535,-3.342781899989328,2.925999999999476
-0.1892,1.0136,-0.0059,0.2096,0.2162,0.0816,-0.2537,-1.4525,-6.16,-0.515795305383866,-10.565921836330169,-3.342781899989328,2.925999999999476
-0.1892,1.0136,-0.0059,0.2095,0.2165,0.0948,-0.525,-1.3125,-6.2825,-0.4475996082677399,-10.569877943756909,-3.3637818999840565,2.94199999999546
-0.19,1.0157,-0.0095,0.2095,0.2165,0.0948,-0.595,-0.665,-6.2213,-0.482945344007473,-10.583503200950798,-3.3637818999840565,2.94199999999546
-0.1942,1.0183,-0.0087,0.2095,0.2165,0.0994,-0.595,-0.665,-6.2213,-0.4855709775630551,-10.699123654763248,-3.373756899988508,2.9570000000021537
-0.1954,1.0188,-0.0054,0.2105,0.2165,0.0994,-0.875,-0.455,-6.4313,-0.3970693037773343,-10.791036293120646,-3.373756899988508,2.9570000000021537
-0.1962,1.0185,-0.0042,0.2105,0.2165,0.0994,-0.9013,-0.5775,-6.4662,-0.31772795367391754,-10.857234592239893,-3.3829968999861886,2.9729999999981374
-0.1992,1.0187,-0.0106,0.2094,0.215,0.093,-0.9013,-0.3762,-6.5975,-0.4551138988399525,-10.98297793015986,-3.3829968999861886,2.9729999999981374
-0.1992,1.0187,-0.0106,0.2094,0.215,0.093,-0.9013,-0.3762,-6.5975,-0.5247111132309451,-11.032107494878145,-3.3886398999859697,2.9879999999975553
-0.2028,1.0182,-0.0081,0.2098,0.2155,0.0948,-0.6737,-0.5863,-7.105,-0.49525461006392907,-11.18847532560146,-3.3886398999859697,2.9879999999975553
-0.2031,1.0209,-0.0056,0.2098,0.2155,0.0948,-1.3563,-0.5688,-6.7288,-0.388788054608996,-11.22806089896988,-3.397740699987824,3.004000000000815
-0.2048,1.0147,-0.0071,0.2098,0.2155,0.0948,-0.7962,-1.1025,-6.4313,-0.3944193395929355,-11.33433340264517,-3.397740699987824,3.004000000000815
-0.2044,1.0138,-0.0085,0.2103,0.2154,0.0944,-0.7962,-1.1025,-6.4313,-0.4343820510784939,-11.371767208749485,-3.415380699983396,3.0199999999967986
-0.2044,1.0138,-0.0085,0.2103,0.2154,0.0944,-0.875,-0.7875,-6.3437,-0.45676050087439796,-11.38698223995192,-3.4271931999829377,3.0349999999962165
-0.2051,1.0138,-0.0058,0.2097,0.2167,0.0942,-1.0063,-1.0675,-6.3437,-0.38982360301930935,-11.415223678358904,-3.4271931999829377,3.0349999999962165
-0.207,1.0136,-0.0035,0.2097,0.2167,0.0942,-0.7,-1.1463,-6.3963,-0.3061408297921072,-11.488416912515133,-3.4455339999783337,3.0509999999922
-0.2047,1.0121,-0.009,0.2097,0.2167,0.0942,-0.7,-1.1463,-6.3963,-0.39477665913817844,-11.456814291194632,-3.4455339999783337,3.0509999999922
-0.2053,1.0112,-0.0068,0.2095,0.2189,0.0878,-0.5512,-1.4787,-5.915,-0.39113191300377165,-11.465916892346536,-3.467714499988232,3.065999999998894
-0.2048,1.0125,-0.005,0.2095,0.2189,0.0878,-0.0962,-1.295,-6.02,-0.3754975279501733,-11.450544621689847,-3.467714499988232,3.065999999998894
-0.2048,1.0125,-0.005,0.2112,0.2178,0.0934,0.3063,-1.2513,-5.9675,-0.3579712999594127,-11.443003315854014,-3.487735299992311,3.0820000000021537
-0.205,1.01,-0.0047,0.2112,0.2178,0.0934,0.3063,-1.2513,-5.9675,-0.3406738893664682,-11.45762527248635,-3.487735299992311,3.0820000000021537
-0.2047,1.0121,-0.0081,0.2112,0.2178,0.0934,0.5163,-1.1988,-5.4163,-0.3768910670821924,-11.451040377108798,-3.506916099987496,3.0979999999981374
-0.2052,1.0125,-0.0124,0.2114,0.2159,0.082,0.105,-1.4,-5.4425,-0.38704834884498573,-11.452449199212452,-3.506916099987496,3.0979999999981374
-0.2036,1.0143,-0.0084,0.2114,0.2159,0.082,0.105,-1.4,-5.4425,-0.38978305953216247,-11.422872987963224,-3.527916099986681,3.1129999999975553
-0.2036,1.0143,-0.0084,0.2109,0.2151,0.0987,0.4112,-1.225,-5.32,-0.4112039004638134,-11.406789684305439,-3.527916099986681,3.1129999999975553
-0.2033,1.0134,-0.0091,0.2109,0.2151,0.0987,1.0762,-0.8575,-5.1537,-0.46293352670107374,-11.400198066216618,-3.541636099983237,3.128999999993539
-0.2045,1.0164,-0.0132,0.2109,0.2151,0.0884,0.49,-1.9863,-5.1975,-0.545704125266611,-11.396748518977077,-3.541636099983237,3.128999999993539
-0.201,1.0135,-0.0115,0.2098,0.2154,0.0884,0.49,-1.9863,-5.1975,-0.5764400259385695,-11.37200385243827,-3.571430599996533,3.144000000000233
-0.2,1.0133,-0.0107,0.2098,0.2154,0.0884,1.015,-1.68,-5.075,-0.5902935554066321,-11.364619686103808,-3.571430599996533,3.144000000000233
-0.2,1.015,-0.0148,0.2101,0.2173,0.096,0.7088,-1.9863,-4.865,-0.6855820272744588,-11.332342382590916,-3.6032114000030075,3.1600000000034925
-0.2012,1.015,-0.0148,0.2101,0.2173,0.096,0.385,-2.345,-4.9875,-0.7212310942323674,-11.32650250469285,-3.6032114000030075,3.1600000000034925
-0.2003,1.0141,-0.0134,0.211,0.2178,0.096,0.385,-2.345,-4.9875,-0.7297536106647572,-11.319065138154205,-3.640731399993589,3.175999999999476
-0.1984,1.0129,-0.0131,0.211,0.2178,0.096,-0.105,-1.9162,-4.9175,-0.731446791583693,-11.29350220771458,-3.640731399993589,3.175999999999476
-0.1981,1.0163,-0.0161,0.211,0.2178,0.096,0.0437,-1.8375,-4.97,-0.7364135110186836,-11.276617614384183,-3.6682938999925194,3.190999999998894
-0.1947,1.0196,-0.0178,0.2113,0.2187,0.0858,0.3762,-1.5925,-5.1275,-0.7978200880308328,-11.238257538491203,-3.6682938999925194,3.190999999998894
-0.1947,1.0196,-0.0178,0.2113,0.2187,0.0858,0.3762,-1.5925,-5.1275,-0.844929626699977,-11.20304616890108,-3.6937738999861236,3.2069999999948777
-0.1941,1.0175,-0.0145,0.2098,0.2162,0.0892,0.14,-1.8463,-4.9963,-0.8431338529103571,-11.186843662797093,-3.6937738999861236,3.2069999999948777
-0.1931,1.0186,-0.0145,0.2098,0.2162,0.0892,-0.6212,-1.4262,-4.5937,-0.8318394974173644,-11.047319146540362,-3.7151668999956704,3.2220000000015716
-0.1917,1.0188,-0.0142,0.2098,0.2162,0.0892,-0.77,-1.3563,-4.6463,-0.8166085714427533,-10.936971276641119,-3.7151668999956704,3.2220000000015716
-0.1915,1.0185,-0.0148,0.2101,0.2162,0.0926,-0.77,-1.3563,-4.6463,-0.8238835369217256,-10.855465627599616,-3.7368676999902233,3.2379999999975553
-0.1915,1.015,-0.0165,0.2101,0.2162,0.0926,-1.05,-1.0588,-5.2587,-0.8807110442196026,-10.824296585262356,-3.7368676999902233,3.2379999999975553
-0.1925,1.015,-0.0165,0.211,0.217,0.0953,-0.7525,-0.6475,-5.3113,-0.9035955830894885,-10.805673215778997,-3.7472276999876226,3.253999999993539
-0.1945,1.0133,-0.0151,0.211,0.217,0.0953,-0.7525,-0.6475,-5.6,-0.8810582546121876,-10.82680989578434,-3.7472276999876226,3.253999999993539
-0.2012,1.0139,-0.0137,0.211,0.217,0.0953,-0.5512,-0.4462,-5.6,-0.839981274934563,-10.96936486226341,-3.7539206999906094,3.269000000000233
-0.2028,1.0129,-0.0163,0.2104,0.2173,0.1029,-0.63,-1.3212,-5.81,-0.8738089446245554,-11.122320801235848,-3.7539206999906094,3.269000000000233
-0.2069,1.0171,-0.0163,0.2104,0.2173,0.1029,-0.0437,-1.5137,-6.265,-0.8784317080188662,-11.328677583187407,-3.77813989998453,3.2849999999962165
-0.2069,1.0171,-0.0163,0.2093,0.2175,0.0874,-0.0437,-1.5137,-6.265,-0.8825724293405173,-11.421342117143704,-3.77813989998453,3.2849999999962165
-0.2029,1.0212,-0.0151,0.2093,0.2175,0.0874,0.0787,-1.225,-6.8688,-0.8823616503692288,-11.301750937308327,-3.796514899983817,3.2999999999956344
-0.2016,1.0218,-0.0137,0.2093,0.2175,0.0874,0.0613,-1.05,-7.2275,-0.881072743142772,-11.204490384557548,-3.796514899983817,3.2999999999956344
-0.205,1.0232,-0.0181,0.2118,0.2186,0.0934,-0.4025,-1.2687,-6.9475,-0.9237105663760012,-11.285278197303882,-3.8168140999787212,3.315999999991618
-0.2053,1.0209,-0.0123,0.2118,0.2186,0.0934,-0.4025,-1.2687,-6.9475,-0.8485140436881773,-11.34058880073677,-3.8371132999828568,3.3319999999948777
-0.2053,1.0209,-0.0127,0.2106,0.2177,0.0926,-0.7437,-1.0762,-6.3963,-0.7874807008064606,-11.35724191212865,-3.8371132999828568,3.3319999999948777
-0.2031,1.0178,-0.0127,0.2106,0.2177,0.0926,-1.0325,-1.33,-6.37,-0.7493732267490159,-11.315508482460961,-3.8570632999917596,3.3470000000015716
-0.2031,1.0142,-0.0136,0.2118,0.2175,0.094,-0.9275,-1.3825,-6.3263,-0.758820886819633,-11.319761792004735,-3.8570632999917596,3.3470000000015716
-0.2059,1.0118,-0.0103,0.2118,0.2175,0.094,-0.9275,-1.3825,-6.3263,-0.6710229406653518,-11.422343345614667,-3.879183299986207,3.3629999999975553
-0.2044,1.0109,-0.0076,0.2118,0.2175,0.094,-1.1287,-1.0237,-5.845,-0.5398918284584424,-11.426009289248865,-3.879183299986207,3.3629999999975553
-0.2064,1.0069,-0.0092,0.2114,0.2181,0.0926,-1.2337,-0.9712,-5.6087,-0.5306038830321864,-11.483359461648922,-3.8937512999856416,3.377999999996973
-0.2064,1.0069,-0.0092,0.2114,0.2181,0.0926,-1.3825,-0.84,-5.565,-0.5263900615714948,-11.518042367256307,-3.8937512999856416,3.377999999996973
-0.2048,1.0095,-0.0097,0.2093,0.2191,0.1,-1.3825,-0.84,-5.565,-0.5406931500209866,-11.500632859589482,-3.907191299982268,3.393999999992957
-0.206,1.0103,-0.0061,0.2093,0.2191,0.1,-0.91,-0.5075,-5.11,-0.44416393169326235,-11.502228635799584,-3.907191299982268,3.393999999992957
-0.2042,1.0106,-0.0077,0.2093,0.2191,0.1,-1.225,-0.7525,-5.0662,-0.43985896661094415,-11.500060185497864,-3.919231299984721,3.4099999999962165
-0.2044,1.0149,-0.007,0.2118,0.2182,0.0956,-1.225,-0.7525,-5.3375,-0.4146226824627428,-11.473945817228433,-3.919231299984721,3.4099999999962165
-0.2044,1.0149,-0.0083,0.2118,0.2182,0.0956,-0.805,-0.6562,-5.3375,-0.43983632523763155,-11.453824251712513,-3.9290742999891135,3.4250000000029104
-0.2067,1.0178,-0.0083,0.2114,0.2174,0.0926,-0.2275,-0.5337,-5.1363,-0.44616091300080085,-11.45611379710285,-3.9290742999891135,3.4250000000029104
-0.2033,1.0185,-0.0058,0.2114,0.2174,0.0926,0.0175,-0.4375,-4.8125,-0.43988782641120217,-11.425192483602862,-3.9360742999873564,3.440999999998894
-0.2062,1.0159,-0.0095,0.2114,0.2174,0.0926,0.0175,-0.4375,-4.8125,-0.4449052134997463,-11.434014697915718,-3.9360742999873564,3.440999999998894
-0.21,1.0144,-0.0109,0.212,0.2166,0.0959,-0.3675,-0.8925,-4.4625,-0.4970902929031084,-11.52951509443312,-3.9494617999868367,3.455999999998312
-0.2063,1.0175,-0.0076,0.212,0.2166,0.0959,-0.35,-0.6913,-4.5413,-0.4765476350859878,-11.506823367260242,-3.9494617999868367,3.455999999998312
-0.2063,1.0175,-0.0076,0.2118,0.2179,0.0946,-0.5163,-1.2075,-4.7075,-0.4585337523637949,-11.495474861174813,-3.9687817999819868,3.4719999999942956
-0.2039,1.0177,-0.0106,0.2118,0.2179,0.0946,-0.5163,-1.2075,-4.7075,-0.5097679582582864,-11.45407025854335,-3.9687817999819868,3.4719999999942956
-0.2044,1.0153,-0.0094,0.2118,0.2179,0.0946,-0.9887,-1.7413,-4.4887,-0.5204165860791007,-11.428568766922012,-3.9966425999876627,3.4879999999975553
-0.2051,1.011,-0.0087,0.2112,0.2176,0.0872,-0.9187,-1.5925,-4.935,-0.5067860909882861,-11.432202992048733,-3.9966425999876627,3.4879999999975553
-0.2053,1.0091,-0.0098,0.2112,0.2176,0.0872,-0.49,-1.2862,-4.7075,-0.5246577998716931,-11.44886544827324,-4.015935599986914,3.502999999996973
-0.2053,1.0091,-0.0098,0.2112,0.2187,0.0936,-0.49,-1.2862,-4.7075,-0.5360941199194351,-11.461388178054762,-4.015935599986914,3.502999999996973
-0.2052,1.0067,-0.0092,0.2112,0.2187,0.0936,-0.21,-1.575,-4.7162,-0.5333400157678332,-11.475793554402566,-4.041135599992048,3.519000000000233
-0.2038,1.0067,-0.0088,0.2112,0.2182,0.0954,0.1575,-1.7938,-4.4012,-0.5307994327667339,-11.463449708800297,-4.041135599992048,3.519000000000233
-0.1993,1.0132,-0.0071,0.2116,0.2182,0.0954,0.1312,-2.2838,-4.3837,-0.5236548363548625,-11.330741692283874,-4.075392599990718,3.5339999999996508
-0.1965,1.0131,-0.0084,0.2116,0.2182,0.0954,0.1312,-2.2838,-4.3837,-0.5209692689470642,-11.190575325822348,-4.075392599990718,3.5339999999996508
-0.1965,1.0147,-0.0109,0.2115,0.2175,0.099,0.2362,-2.3625,-4.9525,-0.5342454550261516,-11.172338907384747,-4.11319259998123,3.5499999999956344
-0.1965,1.0147,-0.0109,0.2115,0.2175,0.099,0.6562,-2.59,-5.0925,-0.5641688704106208,-11.16133998598889,-4.11319259998123,3.5499999999956344
-0.201,1.0166,-0.0101,0.2112,0.2166,0.0892,0.8313,-1.4175,-4.69,-0.5663474262267635,-11.167090899528606,-4.13587259998585,3.565999999998894
-0.1997,1.0152,-0.0084,0.2112,0.2166,0.0892,0.8313,-1.4175,-4.69,-0.5265415656833363,-11.157047708960409,-4.13587259998585,3.565999999998894
-0.2028,1.0177,-0.0082,0.2112,0.2166,0.0892,0.3325,-1.3563,-5.4687,-0.5131588203366712,-11.190899688084112,-4.156217099975192,3.580999999991036
-0.2004,1.0128,-0.0121,0.2106,0.2186,0.0869,-0.1225,-1.9688,-5.5475,-0.5411415280210544,-11.191139727663398,-4.156217099975192,3.580999999991036
-0.2004,1.0128,-0.0121,0.2106,0.2186,0.0869,-0.1225,-1.9688,-5.4075,-0.5645538075560194,-11.191266840854299,-4.18771789998161,3.5969999999942956
-0.2013,1.0158,-0.0132,0.2107,0.2162,0.0933,0.2013,-1.575,-5.4075,-0.5850557696780283,-11.19580711676505,-4.18771789998161,3.5969999999942956
-0.2031,1.0135,-0.0104,0.2107,0.2162,0.0933,0.1488,-1.6625,-5.425,-0.585258165724077,-11.233549098556217,-4.212655399992739,3.6120000000009895
-0.2039,1.0131,-0.0138,0.2107,0.2162,0.0933,0.3762,-1.7062,-5.425,-0.6306944394959174,-11.273985617902705,-4.212655399992739,3.6120000000009895
-0.2048,1.0121,-0.0137,0.212,0.2181,0.091,0.3762,-1.7062,-5.425,-0.6644136770337973,-11.319855260513862,-4.239954599985887,3.627999999996973
-0.2072,1.0141,-0.0127,0.212,0.2181,0.091,0.595,-1.3475,-5.3463,-0.6826277569559368,-11.373324616636225,-4.239954599985887,3.627999999996973
-0.2072,1.0141,-0.0127,0.2118,0.2178,0.093,0.945,-1.155,-5.3288,-0.6988752414511652,-11.412398471016182,-4.258434599989652,3.644000000000233
-0.2069,1.0175,-0.0149,0.2118,0.2178,0.093,0.4462,-1.7062,-5.0838,-0.7369689478811356,-11.41590981209786,-4.258434599989652,3.644000000000233
-0.2064,1.0181,-0.0104,0.2118,0.2178,0.093,0.4462,-1.7062,-5.0838,-0.6957160633234241,-11.417824674031475,-4.284027599976245,3.658999999992375
-0.2061,1.0161,-0.0133,0.2119,0.2175,0.0976,0.7088,-1.61,-4.48,-0.7167884452731867,-11.434737172891241,-4.284027599976245,3.658999999992375
-0.2057,1.0164,-0.0098,0.2119,0.2175,0.0976,0.3762,-2.345,-4.3925,-0.6785195782297821,-11.437008235594245,-4.321547599983888,3.6749999999956344
-0.2057,1.0164,-0.0098,0.2121,0.2167,0.0987,0.6388,-2.2225,-4.3925,-0.6329395393003058,-11.438388336739925,-4.354885099998765,3.6900000000023283
-0.2069,1.0166,-0.012,0.2121,0.2167,0.0987,0.6388,-2.2225,-4.3925,-0.6486095748642158,-11.463747772414207,-4.354885099998765,3.6900000000023283
-0.2068,1.0135,-0.0123,0.2121,0.2167,0.096,0.2187,-2.3975,-3.8238,-0.6545595148649143,-11.501066894955416,-4.393245099989136,3.705999999998312
-0.204,1.0133,-0.011,0.212,0.2177,0.096,-0.2362,-2.1175,-3.2638,-0.6468649971932173,-11.42499186134641,-4.397480099974592,3.7079999999914435
-0.2077,1.0142,-0.0125,0.212,0.2177,0.096,0.315,-1.6187,-2.6775,-0.6584243105620151,-11.52883889178061,-4.397480099974592,3.7079999999914435
-0.2039,1.0109,-0.0108,0.2118,0.2168,0.1018,0.315,-1.6187,-2.6775,-0.6493894045493095,-11.440448931209417,-4.423379299979868,3.723999999994703
-0.2039,1.0109,-0.0108,0.2118,0.2168,0.1018,0.6475,-1.68,-3.0275,-0.635778679275169,-11.415442268315255,-4.423379299979868,3.723999999994703
-0.2023,1.0119,-0.013,0.2098,0.2182,0.0899,0.4112,-1.6363,-2.5812,-0.6611347500586082,-11.336712626343326,-4.447923799990821,3.739000000001397
-0.1992,1.0135,-0.0148,0.2098,0.2182,0.0899,0.4112,-1.6363,-2.3975,-0.7055133520667396,-11.178364295431235,-4.447923799990821,3.739000000001397
-0.195,1.0149,-0.0113,0.2098,0.2182,0.0899,0.5775,-1.3212,-2.3975,-0.6828358192590236,-10.958652285933924,-4.469062999985515,3.7549999999973807
-0.1917,1.0152,-0.014,0.21,0.2166,0.0934,0.9187,-1.0237,-1.9775,-0.7319844742588737,-10.75785540108363,-4.469062999985515,3.7549999999973807
-0.1917,1.0152,-0.014,0.21,0.2166,0.0934,0.49,-1.3038,-2.1875,-0.749089532511462,-10.709286237447218,-4.488619999984756,3.7699999999967986
-0.1934,1.0161,-0.0136,0.211,0.2158,0.09,0.49,-1.3038,-2.1875,-0.7543128129406571,-10.75836469684202,-4.488619999984756,3.7699999999967986
-0.1921,1.0174,-0.0145,0.211,0.2158,0.09,0.4288,-1.015,-2.59,-0.7706486881508438,-10.710779391283468,-4.504859999980679,3.7859999999927823
-0.1923,1.0197,-0.0171,0.211,0.2158,0.09,0.3413,-0.7875,-2.6075,-0.8108947287293627,-10.687714120105792,-4.517459999983246,3.801999999996042
-0.1928,1.0179,-0.0167,0.209,0.2158,0.084,0.28,-0.6037,-2.4588,-0.8330492815180259,-10.713792569859582,-4.517459999983246,3.801999999996042
-0.1928,1.0177,-0.0209,0.209,0.2158,0.084,0.28,-0.6037,-2.4588,-0.8920163283746421,-10.721986203944587,-4.517459999983246,3.801999999996042
-0.1981,1.0177,-0.0209,0.2103,0.2162,0.0925,0.21,-0.5775,-2.7475,-0.9263559321147143,-10.924476678868581,-4.52612249998291,3.81699999999546
-0.2018,1.0216,-0.0173,0.2103,0.2162,0.0925,-0.0613,-1.2425,-2.87,-0.9315333712913436,-11.09415011969019,-4.52612249998291,3.81699999999546
-0.2054,1.0221,-0.0167,0.2103,0.2162,0.0925,0.2713,-1.2163,-2.5113,-0.932284565313344,-11.285528513864675,-4.546799599982697,3.833999999995285
-0.2095,1.0182,-0.0182,0.2094,0.2171,0.0966,0.2713,-1.2163,-2.5113,-0.9474859938346404,-11.528630886861604,-4.546799599982697,3.833999999995285
-0.2151,1.0196,-0.0199,0.2094,0.2171,0.0966,0.4288,-1.2075,-2.1263,-0.9922931748097601,-11.812898268448608,-4.564912099990781,3.849000000001979
-0.2151,1.0196,-0.0199,0.2083,0.2164,0.0937,0.1312,-1.4963,-1.4525,-0.9992458786133454,-11.889235073779146,-4.564912099990781,3.849000000001979
-0.218,1.0164,-0.0144,0.2083,0.2164,0.0937,0.7262,-1.4963,-0.63,-0.9251215495802038,-12.064579115294084,-4.588852899984771,3.8649999999979627
-0.2173,1.0133,-0.0124,0.2083,0.2164,0.0937,0.7262,-1.4963,-0.63,-0.8365874309191946,-12.0956990841272,-4.612793699989648,3.8810000000012224
-0.2194,1.0091,-0.0148,0.2078,0.2151,0.0943,0.7437,-2.0912,0.3325,-0.8380662823292152,-12.238546493181751,-4.612793699989648,3.8810000000012224
-0.2173,1.0037,-0.011,0.2078,0.2151,0.0943,1.2075,-2.1437,1.575,-0.7263511617991819,-12.218294829140286,-4.6449491999884005,3.8960000000006403
-0.2173,1.0037,-0.0128,0.2068,0.2136,0.0921,3.4475,-1.9775,3.6925,-0.7296618407995281,-12.215321177024594,-4.6449491999884005,3.8960000000006403
-0.2151,1.0037,-0.0128,0.2068,0.2136,0.0921,2.4675,-1.9775,3.6925,-0.7303538712724729,-12.107340217864703,-4.676589199980458,3.911999999996624
-0.2153,0.9999,-0.0124,0.205,0.2137,0.0993,3.36,-1.9075,6.7112,-0.7151326350767556,-12.147189342560981,-4.676589199980458,3.911999999996624
-0.2125,1.0041,-0.0118,0.205,0.2137,0.0993,4.9175,-1.575,9.1525,-0.6804560586427496,-11.961600731111849,-4.7002141999910005,3.927000000003318
-0.2106,1.0074,-0.0138,0.205,0.2137,0.0993,4.9175,-1.575,11.3925,-0.7669679077757017,-11.815610936302948,-4.7002141999910005,3.927000000003318
-0.2033,1.0083,-0.0176,0.203,0.2112,0.0951,5.9325,-1.295,12.425,-0.9660320586603635,-11.420449319743506,-4.720934199976377,3.9429999999920256
-0.2033,1.0083,-0.0176,0.203,0.2112,0.0951,6.5275,-0.665,15.5225,-0.9954463258051272,-11.398870439562033,-4.720934199976377,3.9429999999920256
-0.2015,1.0068,-0.0135,0.1995,0.209,0.0875,7.3675,-0.245,18.0338,-0.795616301950131,-11.320019642454353,-4.724854199977176,3.958999999995285
-0.1911,1.0061,-0.0178,0.1995,0.209,0.0875,7.3675,-0.245,18.0338,-0.9872989991672066,-10.776632558766588,-4.724854199977176,3.958999999995285
-0.181,0.9973,-0.0179,0.1995,0.209,0.0875,8.82,0.56,20.3962,-1.0240582826064812,-10.303621222755112,-4.715334199973199,3.9760000000023865
-0.1559,0.9687,-0.0168,0.196,0.2066,0.0783,10.5525,0.9975,23.3013,-0.9962270948143749,-9.180899854995362,-4.715334199973199,3.9760000000023865
-0.1559,0.9687,-0.0146,0.196,0.2066,0.0783,13.58,2.4588,27.195,-0.8726322711784977,-9.142795701065284,-4.675993399983074,3.99199999999837
-0.1613,0.979,-0.0146,0.1902,0.2017,0.087,13.58,2.4588,27.195,-0.8556556010731033,-9.348589377049372,-4.675993399983074,3.99199999999837
-0.1737,0.9725,-0.012,0.1902,0.2017,0.087,17.01,4.0425,33.1975,-0.7152457319231437,-10.106341761088975,-4.615355899985428,4.006999999997788
-0.1773,0.9878,-0.0091,0.1902,0.2017,0.087,19.7488,5.4687,40.7225,-0.5368812417628264,-10.173758923637758,-4.615355899985428,4.006999999997788
-0.1715,1.0079,-0.0174,0.185,0.197,0.0908,21.105,6.3437,47.1012,-0.9685118810760387,-9.665064195121344,-4.51385669996475,4.023000000001048
-0.1579,1.0266,-0.024,0.185,0.197,0.0908,21.105,6.3437,47.1012,-1.3223989944322685,-8.759089742152467,-4.51385669996475,4.023000000001048
-0.1579,1.0266,-0.024,0.1776,0.1926,0.0802,21.3325,7.035,51.5025,-1.338469006136745,-8.742015675579902,-4.401296699993004,4.038999999997031
-0.1421,1.0306,-0.0297,0.1776,0.1926,0.0802,22.2337,7.7088,53.865,-1.6372213164934841,-7.862210635922212,-4.401296699993004,4.038999999997031
-0.1225,1.0305,-0.0404,0.1776,0.1926,0.0802,21.8312,8.015,54.6437,-2.2183799358522593,-6.791961797190254,-4.2810716999393525,4.054000000003725
-0.1066,1.0158,-0.0452,0.1677,0.1859,0.0793,21.8312,8.015,54.6437,-2.53333178887088,-5.998221853098917,-4.2810716999393525,4.054000000003725
-0.0966,1.0045,-0.05,0.1677,0.1859,0.0793,23.0475,8.19,55.0462,-2.836411450623908,-5.4947144884766175,-4.150031700031836,4.069999999992433
-0.0966,1.0045,-0.05,0.1603,0.1815,0.0733,24.045,8.4963,55.0725,-2.8490750303093115,-5.486471598557349,-4.150031700031836,4.069999999992433
-0.0874,1.0013,-0.0568,0.1603,0.1815,0.0733,24.045,8.4963,54.4075,-3.2307730801584014,-4.988909720149591,-4.022587199974963,4.084999999999127
-0.0682,1.0073,-0.0542,0.1603,0.1754,0.0686,25.3925,8.7325,54.4075,-3.0856859898246296,-3.886312347036162,-4.022587199974963,4.084999999999127
-0.0408,1.0182,-0.0655,0.1542,0.1754,0.0686,26.3725,8.7063,53.8037,-3.6589241812229663,-2.3166036931189455,-3.883286400009931,4.100999999995111
-0.0254,1.0434,-0.0701,0.1542,0.1754,0.0686,25.5675,9.5463,51.8787,-3.836625303554295,-1.4073438565121856,-3.883286400009931,4.100999999995111
-0.0051,1.0341,-0.0769,0.1434,0.1709,0.0678,25.5675,9.5463,51.8787,-4.237213125471161,-0.30122632571103036,-3.7305455999788135,4.11699999999837
-0.0051,1.0341,-0.0769,0.1434,0.1709,0.0678,23.7038,9.7475,48.6675,-4.252287750143369,-0.28214762655650544,-3.7305455999788135,4.11699999999837
-0.003,1.0336,-0.0874,0.1362,0.1636,0.0604,22.47,10.01,44.3363,-4.808530481747754,-0.16801932790654953,-3.58039559998464,4.131999999997788
0.0009,1.0325,-0.0942,0.1362,0.1636,0.0604,20.2038,9.975,39.8037,-5.193802773760985,0.04498631004310423,-3.58039559998464,4.131999999997788
0.007,1.0276,-0.1051,0.1362,0.1636,0.0604,20.2038,9.975,39.8037,-5.809174875237836,0.3807784034348813,-3.420795600024703,4.147999999993772
0.0158,1.0089,-0.1069,0.1306,0.163,0.043,19.1012,9.73,35.0,-6.036380415959104,0.8797578570501007,-3.420795600024703,4.147999999993772
0.0158,1.0089,-0.1069,0.1306,0.163,0.043,18.8388,8.6363,31.0275,-6.047716621881765,0.8918842481841537,-3.2912510999668925,4.163000000000466
0.0168,0.9951,-0.1055,0.1262,0.1607,0.0571,18.9788,7.9975,29.2863,-6.051654347345065,0.9598475820083202,-3.2912510999668925,4.163000000000466
0.0144,1.0045,-0.1088,0.1262,0.1607,0.0571,18.9788,7.9975,29.2863,-6.175219878543003,0.8205889657367017,-3.163291099999013,4.178999999996449
0.0206,1.0151,-0.1133,0.1262,0.1607,0.0571,18.445,7.0525,28.6125,-6.358700432464385,1.14574090785041,-3.163291099999013,4.178999999996449
0.0332,1.0167,-0.1169,0.1218,0.1606,0.0465,17.605,6.1775,27.44,-6.548245031650238,1.8367990929048066,-3.0644510999788768,4.194999999999709
0.0392,1.0228,-0.1232,0.1218,0.1606,0.0465,15.8112,5.1363,25.83,-6.84926904625793,2.1683752311802458,-3.0644510999788768,4.194999999999709
0.0392,1.0228,-0.1232,0.1182,0.1546,0.0511,15.8112,5.1363,25.83,-6.86725299251159,2.178779879640065,-2.9874065999818664,4.209999999999127
0.0489,1.0212,-0.1246,0.1182,0.1546,0.0511,13.7288,4.5325,23.835,-6.950376354999837,2.703191335952683,-2.9874065999818664,4.209999999999127
0.0538,1.019,-0.1312,0.1182,0.1546,0.0511,12.18,4.0338,21.5863,-7.307206505092907,2.986877994423478,-2.9228657999980676,4.225999999995111
0.0606,1.0088,-0.1335,0.1126,0.1525,0.0468,12.18,3.2987,19.0662,-7.5208169748713045,3.391285881032284,-2.9228657999980676,4.225999999995111
0.0627,0.9988,-0.1299,0.1126,0.1525,0.0468,11.0513,3.2987,19.0662,-7.419316455664507,3.555321355060835,-2.8733852999759866,4.241000000001804
0.0627,0.9988,-0.1299,0.1077,0.1507,0.0446,10.8325,2.3187,16.4675,-7.410857317726591,3.5618242182303783,-2.8733852999759866,4.241000000001804
0.065,0.9975,-0.1299,0.1077,0.1507,0.0446,11.0688,1.7587,14.7525,-7.418890306733178,3.6906490806535,-2.8452460999830502,4.256999999997788
0.0724,1.0058,-0.1325,0.1077,0.1507,0.0535,11.0688,1.7587,14.7525,-7.49754586990577,4.063219148013886,-2.8452460999830502,4.256999999997788
0.0788,1.0133,-0.1332,0.1108,0.151,0.0535,10.8938,1.1812,13.23,-7.489439559931742,4.390978800359288,-2.8263468999792,4.273000000001048
0.0851,1.0081,-0.1326,0.1108,0.151,0.0535,10.2025,0.7613,11.2087,-7.493006168793631,4.761436039160551,-2.8263468999792,4.273000000001048
0.0899,1.0085,-0.1309,0.1062,0.1514,0.043,9.1525,0.07,8.9425,-7.4051362794543465,5.032471004109089,-2.8252968999792407,4.288000000000466
0.0899,1.0085,-0.1309,0.1062,0.1514,0.043,9.1525,0.07,8.9425,-7.396418842590437,5.0505634290503005,-2.8252968999792407,4.288000000000466
0.09,1.0092,-0.1394,0.1025,0.149,0.039,8.68,-0.3588,6.6675,-7.8157388351364805,5.048614348768671,-2.8310376999777995,4.303999999996449
0.0863,1.0094,-0.1404,0.1025,0.149,0.039,7.8575,-0.8138,3.9725,-7.906899281343018,4.861129482412699,-2.843244699983247,4.319000000003143
0.082,1.0068,-0.1405,0.1025,0.149,0.039,7.2013,-1.19,1.925,-7.939769494750864,4.643067287833566,-2.843244699983247,4.319000000003143
0.0848,1.0038,-0.1413,0.1023,0.1482,0.049,7.2013,-1.19,1.925,-8.003639996519935,4.764466751688406,-2.8622846999784675,4.334999999999127
0.0848,1.0038,-0.1413,0.1023,0.1482,0.049,6.7987,-1.3388,-0.2625,-8.011440076024622,4.778882793877445,-2.8622846999784675,4.334999999999127
0.0867,1.0078,-0.1446,0.1009,0.1489,0.0375,5.6962,-2.03,-2.485,-8.14191800308167,4.842478054461791,-2.8947646999703145,4.350999999995111
0.0833,1.0108,-0.1465,0.1009,0.1489,0.0375,4.9437,-3.1588,-5.075,-8.228871747178692,4.836072881463546,-2.8947646999703145,4.350999999995111
0.0867,1.0148,-0.1487,0.1009,0.1489,0.0375,4.9437,-3.1588,-5.075,-8.318002544447726,4.835923876286448,-2.9421466999684758,4.3659999999945285
0.0888,1.0152,-0.1477,0.1018,0.1494,0.0446,4.13,-3.2987,-6.3263,-8.28575111448479,4.898538057798336,-2.9421466999684758,4.3659999999945285
0.0888,1.0156,-0.1462,0.1018,0.1494,0.0446,2.9225,-2.8875,-7.6125,-8.216129342492685,4.932919587654835,-2.988346699977888,4.381999999997788
0.0895,1.0156,-0.1462,0.1036,0.149,0.0413,1.5225,-2.8087,-8.9425,-8.201671329611203,4.974436513210746,-2.988346699977888,4.381999999997788
0.0893,1.0131,-0.1532,0.1036,0.149,0.0413,1.5225,-2.8087,-8.9425,-8.436847337216607,4.9796580052611565,-3.0304771999966893,4.397000000004482
0.0895,1.013,-0.1538,0.1036,0.149,0.0413,0.3762,-3.465,-9.975,-8.482533622545011,4.990036082916711,-3.0304771999966893,4.397000000004482
0.0873,1.0077,-0.1522,0.1033,0.1518,0.0551,-1.3913,-4.235,-11.165,-8.545711816157082,4.909265815315699,-3.0982371999488665,4.41299999999319
0.0854,1.0075,-0.152,0.1033,0.1518,0.0551,-1.3913,-4.235,-12.3725,-8.565742799332034,4.8052699609685785,-3.0982371999488665,4.41299999999319
0.0854,1.0075,-0.152,0.1039,0.1489,0.0464,-1.6013,-4.0775,-12.3725,-8.574308289990327,4.792792090053325,-3.163477199962158,4.428999999996449
0.0788,1.0044,-0.1501,0.1039,0.1489,0.0464,-1.7325,-4.655,-14.0787,-8.526181045178914,4.472317496575285,-3.163477199962158,4.428999999996449
0.0755,1.0016,-0.1515,0.1039,0.1489,0.0464,-2.0213,-4.9088,-14.5513,-8.576983218181748,4.282426540382414,-3.2371091999593005,4.443999999995867
0.0721,1.0069,-0.1505,0.1061,0.1499,0.042,-2.0213,-4.9088,-14.5513,-8.525551365072602,4.0729029602161555,-3.2371091999593005,4.443999999995867
0.0727,1.0101,-0.1449,0.1061,0.1499,0.042,-3.1063,-5.5563,-15.1725,-8.250099539256249,4.074886311912769,-3.326009999977412,4.459999999999127
0.0727,1.0106,-0.1469,0.1071,0.1492,0.0423,-3.7013,-5.4338,-15.3737,-8.266260470072922,4.072233782801285,-3.326009999977412,4.459999999999127
0.0693,1.0106,-0.1469,0.1071,0.1492,0.0423,-4.1825,-5.8538,-15.4263,-8.269727788829348,3.8988296949569685,-3.4138169999740047,4.474999999998545
0.0644,1.0067,-0.1459,0.1099,0.1503,0.0474,-4.1825,-5.8538,-15.4263,-8.250840276364622,3.6468177342283705,-3.4138169999740047,4.474999999998545
0.0596,1.0064,-0.1434,0.1099,0.1503,0.0474,-4.6463,-5.6525,-15.5138,-8.134113631300034,3.380741721183873,-3.5042569999513025,4.4909999999945285
0.0598,1.0052,-0.1423,0.1099,0.1503,0.0474,-4.8913,-5.6613,-15.8638,-8.070322701395227,3.371840752518483,-3.5042569999513025,4.4909999999945285
0.0595,1.0044,-0.1418,0.1085,0.1528,0.0408,-5.4163,-5.8888,-16.0825,-8.041155966197183,3.358222989689406,-3.5984777999704978,4.506999999997788
0.0595,1.0044,-0.1418,0.1085,0.1528,0.0408,-5.4163,-5.8888,-16.0825,-8.036661179978005,3.3570923616112434,-3.5984777999704978,4.506999999997788
0.054,1.0013,-0.1414,0.1138,0.1531,0.0431,-5.67,-5.8275,-16.5462,-8.037762968122177,3.080711297486792,-3.685890299967106,4.521999999997206
0.0499,1.0027,-0.1373,0.1138,0.1531,0.0431,-5.9412,-5.8538,-16.66,-7.831358762399306,2.8431540346648156,-3.685890299967106,4.521999999997206
0.0486,1.0024,-0.1369,0.1138,0.1531,0.0431,-6.5188,-5.8275,-17.0187,-7.784072641741276,2.7574014399468565,-3.7791302999861016,4.538000000000466
0.0447,1.0046,-0.1327,0.1145,0.1553,0.0442,-6.5188,-5.8275,-17.0187,-7.55892892092652,2.543644071883317,-3.7791302999861016,4.538000000000466
0.0447,1.0053,-0.1358,0.1145,0.1553,0.0442,-6.4575,-6.02,-17.0625,-7.675349500233634,2.5246368237998316,-3.8694302999825974,4.552999999999884
0.0384,1.0053,-0.1358,0.1167,0.1556,0.0476,-6.1863,-6.0462,-17.01,-7.6907215072619985,2.195331143375586,-3.8694302999825974,4.552999999999884
0.0375,1.006,-0.1334,0.1167,0.1556,0.0476,-6.1863,-6.3175,-17.0625,-7.5724921437227914,2.122349960176204,-3.9705102999572244,4.568999999995867
0.037,1.0075,-0.1293,0.1167,0.1556,0.0476,-6.4225,-6.3175,-17.0625,-7.347811134778244,2.088904597399395,-4.071590299977817,4.584999999999127
0.0353,1.0081,-0.1301,0.1178,0.1535,0.043,-6.335,-6.475,-16.87,-7.352854622903104,1.9967755510766505,-4.071590299977817,4.584999999999127
0.0343,1.0095,-0.1324,0.1178,0.1535,0.043,-6.125,-6.615,-17.2813,-7.455382247196306,1.9345716135911215,-4.170815299973967,4.599999999998545
0.0343,1.0095,-0.1324,0.1203,0.1575,0.044,-6.125,-6.615,-17.2813,-7.469626715655143,1.9298745743971482,-4.170815299973967,4.599999999998545
0.031,1.0142,-0.1297,0.1203,0.1575,0.044,-6.8425,-6.2913,-17.2463,-7.310649191349689,1.7512526018777088,-4.271476099994474,4.616000000001804
0.0334,1.0158,-0.1254,0.1203,0.1575,0.044,-6.965,-6.2125,-17.3162,-7.0715090260129685,1.8601847065760289,-4.271476099994474,4.616000000001804
0.0282,1.02,-0.1302,0.1193,0.1561,0.0596,-8.0325,-6.1512,-18.06,-7.252027473395348,1.591546185737931,-4.363744099946137,4.630999999993946
0.0284,1.0193,-0.1286,0.1193,0.1561,0.0596,-8.0325,-6.1512,-18.06,-7.197462503630626,1.5840096695703982,-4.363744099946137,4.630999999993946
0.0284,1.0193,-0.1244,0.1246,0.1589,0.0528,-8.4525,-5.9938,-19.0925,-6.9833420782256335,1.584213630437345,-4.459644899965674,4.646999999997206
0.0232,1.021,-0.1244,0.1246,0.1589,0.0528,-8.9862,-6.1775,-20.0462,-6.950390982930993,1.3103902022525502,-4.459644899965674,4.646999999997206
0.0225,1.0211,-0.1239,0.126,0.1603,0.0554,-9.3275,-6.6675,-21.1838,-6.9215055310189415,1.256463286138989,-4.566324899987408,4.663000000000466
0.0205,1.0227,-0.1272,0.126,0.1603,0.0554,-9.3275,-6.6675,-21.1838,-7.073661378022545,1.1463790028344456,-4.566324899987408,4.663000000000466
0.0179,1.0251,-0.131,0.126,0.1603,0.0554,-9.6075,-6.7025,-22.7237,-7.262940532955836,1.0005576403337955,-4.666862399983507,4.677999999999884
0.0174,1.024,-0.1247,0.1287,0.1604,0.053,-11.3225,-6.72,-23.9225,-6.9689411541875375,0.9680696924316834,-4.666862399983507,4.677999999999884
0.0174,1.024,-0.1247,0.1287,0.1604,0.053,-12.5562,-7.1575,-26.11,-6.9450339579544575,0.9664272787336199,-4.78138239995476,4.693999999995867
0.018,1.025,-0.1207,0.1324,0.1615,0.05,-12.5562,-7.1575,-26.11,-6.732803983445427,0.9976809927645965,-4.78138239995476,4.693999999995867
0.0193,1.0241,-0.1175,0.1324,0.1615,0.05,-13.7113,-7.42,-27.9475,-6.557893827837683,1.069488196906107,-4.8926823999504405,4.708999999995285
0.0175,1.0256,-0.1194,0.1324,0.1615,0.05,-14.7963,-6.9825,-29.995,-6.6352589610092565,0.9747910964676548,-4.8926823999504405,4.708999999995285
0.0117,1.0276,-0.119,0.1356,0.1651,0.0672,-15.4613,-6.4575,-32.5062,-6.6074373194186675,0.6594765598033011,-5.008917399974121,4.726999999998952
0.0117,1.0276,-0.1182,0.1356,0.1651,0.0672,-15.4613,-6.4575,-32.5062,-6.564397815730925,0.6484559410682084,-5.008917399974121,4.726999999998952
0.0059,1.0278,-0.1182,0.1392,0.1687,0.063,-16.5462,-6.0637,-35.035,-6.560590548203934,0.33712327812748,-5.105936599993886,4.743000000002212
0.0018,1.0273,-0.1126,0.1392,0.1687,0.063,-17.9288,-6.6238,-37.7562,-6.271167382355242,0.1068325712265967,-5.105936599993886,4.743000000002212
-0.0084,1.0313,-0.113,0.1392,0.1687,0.063,-17.9288,-8.8638,-40.8363,-6.2539370711387265,-0.4483814465223951,-5.238893599924235,4.757999999994354
-0.0172,1.0308,-0.1075,0.1455,0.1728,0.063,-18.6375,-7.14,-40.8363,-5.968967078906908,-0.9371438761064452,-5.238893599924235,4.757999999994354
-0.0278,1.035,-0.1061,0.1455,0.1728,0.063,-20.8775,-7.3675,-43.2863,-5.858344052770803,-1.5154519805527376,-5.35677359994825,4.7739999999976135
-0.0278,1.035,-0.1061,0.1518,0.1746,0.0609,-22.68,-7.21,-46.5238,-5.85328607379971,-1.5302159679494465,-5.35677359994825,4.7739999999976135
-0.0292,1.0327,-0.1042,0.1518,0.1746,0.0609,-22.68,-7.21,-46.5238,-5.7655323710827675,-1.6095392643022208,-5.464923599996513,4.789000000004307
-0.0395,1.0331,-0.1023,0.1518,0.1746,0.0609,-23.3713,-7.4725,-49.9012,-5.659644366869812,-2.1665434459551816,-5.464923599996513,4.789000000004307
-0.047,1.0299,-0.0948,0.1576,0.1778,0.0714,-24.7887,-7.5775,-53.2262,-5.274616052915224,-2.5930729313455183,-5.586163599966079,4.805000000000291
-0.0505,1.0253,-0.0878,0.1576,0.1778,0.0714,-25.76,-7.9275,-55.545,-4.908662264196131,-2.805292988505085,-5.586163599966079,4.805000000000291
-0.0505,1.0253,-0.085,0.1659,0.1829,0.0715,-25.76,-7.9275,-55.545,-4.745447956440644,-2.810041795304244,-5.713003599934239,4.820999999996275
-0.0565,1.0224,-0.085,0.1659,0.1829,0.0715,-26.2237,-8.1287,-58.1,-4.752251970266178,-3.1458870616169987,-5.713003599934239,4.820999999996275
-0.0652,1.0163,-0.0827,0.1736,0.1889,0.0736,-26.8713,-8.225,-59.7975,-4.655697760261992,-3.6494825324235554,-5.836378599929451,4.835999999995693
-0.0745,1.0071,-0.0698,0.1736,0.1889,0.0736,-26.81,-8.1287,-60.8125,-3.989492693729924,-4.210588091060283,-5.836378599929451,4.835999999995693
-0.0838,1.004,-0.0615,0.1736,0.1889,0.0736,-26.81,-8.1287,-60.8125,-3.52263841870015,-4.752595312034217,-5.966437799955948,4.851999999998952
-0.0999,0.9991,-0.0544,0.1821,0.1962,0.079,-26.7313,-8.12,-60.7425,-3.1312234704893442,-5.684898943966935,-5.966437799955948,4.851999999998952
-0.0999,0.9991,-0.0544,0.1821,0.1962,0.079,-26.0487,-7.5075,-60.025,-3.1171590478039635,-5.701336623686059,-6.079050299951578,4.86699999999837
-0.1216,0.9914,-0.0514,0.1888,0.2009,0.0866,-25.3487,-7.2537,-58.5462,-2.973541926506398,-6.959870351078975,-6.079050299951578,4.86699999999837
-0.1377,0.9926,-0.0387,0.1888,0.2009,0.0866,-25.3487,-7.2537,-58.5462,-2.2607841720592483,-7.875015277655007,-6.195109499922444,4.882999999994354
-0.1518,0.9882,-0.0351,0.1888,0.2009,0.0866,-23.6075,-6.8075,-56.7262,-2.043419958222323,-8.711489188610887,-6.195109499922444,4.882999999994354
-0.1575,0.9891,-0.0239,0.1946,0.2042,0.0951,-23.0475,-6.86,-54.7487,-1.4115213871191217,-9.038399247938434,-6.304869499944806,4.8989999999976135
-0.1575,0.9891,-0.0182,0.1946,0.2042,0.0951,-21.4463,-6.6413,-52.5525,-1.0700253232559807,-9.04590801277294,-6.304869499944806,4.8989999999976135
-0.1665,0.9908,-0.0182,0.2023,0.2086,0.0895,-21.4463,-6.6413,-52.5525,-1.0531325393909647,-9.52748551762973,-6.40448899994094,4.913999999997031
-0.1748,0.9952,-0.0133,0.2023,0.2086,0.0895,-19.565,-6.0113,-50.3825,-0.7795929879044111,-9.951764399139497,-6.40448899994094,4.913999999997031
-0.1773,0.9984,-0.0073,0.2023,0.2086,0.0895,-18.41,-5.8362,-47.7225,-0.4374343693999865,-10.066882005668345,-6.497868199959964,4.930000000000291
-0.1836,0.9931,-0.0048,0.2069,0.2117,0.0948,-18.41,-5.8362,-45.7188,-0.2851667837149605,-10.46443640117069,-6.497868199959964,4.930000000000291
-0.1954,1.0025,-0.002,0.2069,0.2117,0.0948,-16.7913,-4.655,-45.7188,-0.12387018595899352,-11.015815997824383,-6.567693199923385,4.944999999992433
-0.1954,1.0025,-0.002,0.2112,0.219,0.0954,-16.2313,-3.045,-43.1987,-0.11485837837339849,-11.02902371901193,-6.567693199923385,4.944999999992433
-0.2013,1.001,0.003,0.2112,0.219,0.0954,-15.365,-2.4675,-41.65,0.1542812083364487,-11.361334127894914,-6.607173199931428,4.960999999995693
-0.2039,1.0014,0.0043,0.2112,0.219,0.0954,-15.365,-2.4675,-41.65,0.2404445482392889,-11.504922713215459,-6.607173199931428,4.960999999995693
-0.2081,0.9989,0.0035,0.2148,0.2224,0.0936,-14.3588,-2.0563,-40.6525,0.20332720297682666,-11.7608048650072,-6.640073999938131,4.976999999998952
-0.2119,1.0004,0.0024,0.2148,0.2224,0.0936,-14.21,-1.2425,-39.9175,0.14176489189088817,-11.953790825566303,-6.640073999938131,4.976999999998952
-0.2119,0.9848,0.0043,0.2216,0.2258,0.0945,-13.3175,-0.5163,-39.5238,0.24263946052598398,-12.137774852443878,-6.64781849993783,4.99199999999837
-0.222,0.9989,0.0043,0.2216,0.2258,0.0945,-13.3175,-0.5163,-39.5238,0.24636351807399332,-12.518859431604254,-6.64781849993783,4.99199999999837
-0.2294,1.0023,0.0038,0.2225,0.2276,0.0948,-12.5212,0.6562,-39.515,0.21936692719349285,-12.88086404544661,-6.637319299935691,5.00800000000163
-0.2319,1.0019,0.0098,0.2225,0.2276,0.0948,-11.8038,0.9363,-39.9525,0.5339298153367894,-13.027401234911299,-6.637319299935691,5.00800000000163
-0.2352,1.0008,0.0053,0.2225,0.2276,0.0948,-11.3313,1.5225,-40.1275,0.32200537343601504,-13.219547406056273,-6.614481799947655,5.022999999993772
-0.2425,1.0029,0.0104,0.2302,0.2333,0.0963,-11.3313,1.5225,-40.1275,0.5721931935361884,-13.582106888605574,-6.614481799947655,5.022999999993772
-0.2425,1.0029,0.0104,0.2302,0.2333,0.0963,-11.1038,2.135,-39.9875,0.5923300549166666,-13.592151916044584,-6.5803217999406955,5.038999999997031
-0.2501,1.002,0.012,0.2342,0.2359,0.0983,-10.9375,2.1875,-40.2938,0.6783330018725853,-14.00212057201902,-6.545321799933565,5.055000000000291
-0.2591,0.9988,0.0147,0.2342,0.2359,0.0983,-11.0775,2.695,-40.6087,0.8296300153213167,-14.526370759140805,-6.545321799933565,5.055000000000291
-0.266,0.9964,0.0103,0.2342,0.2359,0.0983,-11.0775,2.695,-40.6087,0.6117941127390388,-14.934915414823017,-6.504896799935134,5.069999999999709
-0.273,0.996,0.015,0.2387,0.2421,0.1004,-10.8062,2.9225,-41.0288,0.8416907079145804,-15.31586596899263,-6.504896799935134,5.069999999999709
-0.273,0.996,0.017,0.2387,0.2421,0.1004,-10.3425,3.1588,-41.2125,0.9659176164996387,-15.325707580301254,-6.454355999924837,5.086000000002969
-0.2794,0.998,0.017,0.2422,0.2464,0.1019,-9.8263,3.5438,-41.4137,0.9749712341137052,-15.629604969397027,-6.454355999924837,5.086000000002969
-0.2863,0.9952,0.019,0.2422,0.2464,0.1019,-9.8263,3.5438,-41.4137,1.0828405419327376,-16.03558040498142,-6.401198999952684,5.100999999995111
-0.2949,0.9927,0.0182,0.2422,0.2464,0.1019,-9.6075,3.5263,-41.4487,1.0533774509055005,-16.52885581566071,-6.401198999952684,5.100999999995111
-0.3029,0.9879,0.0215,0.2459,0.2511,0.105,-9.8525,4.1737,-41.23,1.2290508060999172,-17.02845647369973,-6.334419799939079,5.11699999999837
-0.3108,0.9846,0.0236,0.2459,0.2511,0.105,-9.8525,4.1737,-40.775,1.3598847836210095,-17.5009402437528,-6.334419799939079,5.11699999999837
-0.3108,0.9846,0.0236,0.2526,0.2537,0.101,-9.1962,4.3575,-40.775,1.3717830849101917,-17.51380152149381,-6.264699799924875,5.13300000000163
-0.3201,0.9847,0.022,0.2526,0.2537,0.101,-8.68,4.1475,-40.1362,1.2893030103889354,-17.990200898023257,-6.264699799924875,5.13300000000163
-0.3285,0.9818,0.0196,0.2526,0.2537,0.101,-8.6713,4.0775,-39.2525,1.1586094256784674,-18.481896151385328,-6.203537299956916,5.147999999993772
-0.3369,0.9831,0.0255,0.2547,0.2582,0.1004,-8.6713,4.0775,-39.2525,1.45224407926093,-18.8980787842844,-6.203537299956916,5.147999999993772
-0.3478,0.9866,0.0287,0.2547,0.2582,0.1004,-8.225,3.9375,-38.5088,1.6432356880801615,-19.396286275162378,-6.140537299944081,5.163999999997031
-0.3478,0.9866,0.0302,0.2574,0.2599,0.0943,-8.4875,3.4562,-37.2663,1.7417751253424691,-19.40993337582369,-6.140537299944081,5.163999999997031
-0.3586,0.9852,0.0302,0.2574,0.2599,0.0943,-8.33,3.6312,-36.1725,1.7542873052719885,-19.974082568867683,-6.086069299946195,5.178999999996449
-0.3676,0.9859,0.0365,0.2614,0.2658,0.1014,-8.33,3.6312,-36.1725,2.081317073670114,-20.42113667155254,-6.086069299946195,5.178999999996449
-0.3742,0.9848,0.0378,0.2614,0.2658,0.1014,-8.1025,3.7975,-34.8338,2.1853980787672773,-20.779542181577593,-6.0253092999338165,5.194999999999709
-0.3808,0.98,0.0377,0.2614,0.2658,0.1014,-7.8575,3.8588,-33.2938,2.2010708877331138,-21.205336542115102,-6.0253092999338165,5.194999999999709
-0.385,0.9779,0.0405,0.2647,0.2701,0.1003,-6.79,3.2025,-31.7362,2.34988140003817,-21.463210173954096,-5.974069299946679,5.210999999995693
-0.385,0.9779,0.0405,0.2647,0.2701,0.1003,-6.79,3.2025,-31.7362,2.3688074977417055,-21.472520322220785,-5.974069299946679,5.210999999995693
-0.3888,0.9767,0.039,0.2661,0.2721,0.0948,-6.0637,2.9313,-29.1112,2.2981429530055695,-21.68189631555945,-5.930099799948385,5.225999999995111
-0.3913,0.9739,0.0422,0.2661,0.2721,0.0948,-5.3375,2.625,-26.0313,2.4525819672162332,-21.862419044271036,-5.930099799948385,5.225999999995111
-0.3948,0.9738,0.0428,0.2661,0.2721,0.0948,-4.1125,2.7037,-23.1087,2.504267885374128,-22.03966669130908,-5.886840599939572,5.24199999999837
-0.4003,0.9791,0.0417,0.2688,0.2739,0.091,-4.1125,2.7037,-23.1087,2.451394443262964,-22.209374098120673,-5.886840599939572,5.24199999999837
-0.4003,0.9791,0.0439,0.2688,0.2739,0.091,-3.7187,2.8963,-20.405,2.543075617305959,-22.21634552235891,-5.843396099941258,5.256999999997788
-0.4053,0.9784,0.0439,0.2717,0.275,0.1,-2.4762,2.4413,-18.0075,2.5617606021295902,-22.462340033650495,-5.843396099941258,5.256999999997788
-0.4086,0.9759,0.0401,0.2717,0.275,0.1,-1.9512,1.5662,-16.1612,2.4220202710684005,-22.681665176319918,-5.81520449994691,5.274999999994179
-0.4166,0.9787,0.0422,0.2717,0.275,0.1,-1.9512,1.5662,-16.1612,2.4534467216320275,-23.00922097430359,-5.81520449994691,5.274999999994179
-0.4124,0.9846,0.0414,0.2712,0.2772,0.1073,-0.7088,1.19,-14.6562,2.4333907627617415,-22.7366950709939,-5.796164499943031,5.290999999997439
-0.4142,0.9869,0.0401,0.2712,0.2772,0.1073,-0.2975,0.4725,-13.2738,2.404585431135274,-22.74930737437043,-5.796164499943031,5.290999999997439
-0.4142,0.9869,0.0401,0.2717,0.2776,0.1016,-0.2975,0.4725,-11.655,2.3835629407768506,-22.750637734415417,-5.7890769999433065,5.305999999996857
-0.42,0.982,0.0378,0.2717,0.2776,0.1016,-0.0525,0.6825,-11.655,2.3636244904230033,-23.0897459138761,-5.7890769999433065,5.305999999996857
-0.4238,0.982,0.0388,0.2717,0.2776,0.1016,0.1225,0.315,-10.3337,2.3588357889902762,-23.28951595742238,-5.78403699994228,5.322000000000116
-0.4235,0.9836,0.0373,0.2725,0.2806,0.0966,0.6562,-0.1663,-9.555,2.2898890281985143,-23.281632055248995,-5.78403699994228,5.322000000000116
-0.4203,0.9821,0.0379,0.2725,0.2806,0.0966,0.6562,-0.1663,-9.555,2.2604484066050046,-23.17680304883778,-5.786531499940973,5.336999999992258
-0.4203,0.9821,0.0312,0.2728,0.2775,0.1036,1.0325,-0.6913,-8.4525,2.0445464033235954,-23.16269302986206,-5.786531499940973,5.336999999992258
-0.4209,0.9796,0.0312,0.2728,0.2775,0.1036,1.6363,-1.575,-7.2888,1.9101760494222044,-23.2168962848128,-5.811731499946107,5.352999999995518
-0.4155,0.9809,0.0337,0.2728,0.2788,0.0954,1.1725,-2.38,-6.0025,1.9403003942637438,-23.083372610876015,-5.811731499946107,5.352999999995518
-0.4135,0.9811,0.0289,0.2728,0.2788,0.0954,1.1725,-2.38,-6.0025,1.80776699755907,-22.966277686576095,-5.849811499953865,5.368999999998778
-0.4124,0.9775,0.0286,0.2728,0.2788,0.0954,1.0412,-2.6513,-4.9875,1.7428889248315205,-22.961437701817946,-5.849811499953865,5.368999999998778
-0.4102,0.9787,0.031,0.2718,0.277,0.0995,1.8288,-3.3425,-4.025,1.7883376584324817,-22.844793085738726,-5.89994899995192,5.383999999998196
-0.4102,0.9787,0.031,0.2718,0.277,0.0995,1.1988,-3.4913,-2.765,1.8020454282519616,-22.76483172654852,-5.89994899995192,5.383999999998196
-0.403,0.9744,0.0294,0.2717,0.2774,0.0986,1.1988,-3.4913,-2.765,1.7629477006157435,-22.55326326138884,-5.9558097999633,5.400000000001455
-0.3978,0.9784,0.0314,0.2717,0.2774,0.0986,1.8025,-3.8588,-2.1962,1.810616891346391,-22.22944128705706,-5.9558097999633,5.400000000001455
-0.3936,0.9779,0.0298,0.2717,0.2774,0.0986,1.61,-3.7362,-1.085,1.771140183556393,-21.978752710413133,-6.0118527999339415,5.414999999993597
-0.3892,0.9742,0.0343,0.2709,0.2772,0.0942,1.8288,-3.8412,-0.4638,1.9274487356248031,-21.80321852987035,-6.0118527999339415,5.414999999993597
-0.3892,0.9742,0.0316,0.2709,0.2772,0.0942,1.8288,-3.8412,-0.4638,1.8830992048034196,-21.773244553289924,-6.073311999946462,5.430999999996857
-0.3888,0.9726,0.0316,0.2715,0.278,0.1032,2.0825,-4.2,-0.035,1.8682747274789084,-21.777878198739668,-6.073311999946462,5.430999999996857
-0.387,0.9719,0.0327,0.2715,0.278,0.1032,2.17,-3.745,0.35,1.908049650901775,-21.712841793152585,-6.133231999958669,5.447000000000116
-0.385,0.9696,0.0345,0.2715,0.278,0.1032,2.17,-3.22,1.155,1.9959222851815979,-21.653708315292036,-6.133231999958669,5.447000000000116
-0.3833,0.9647,0.0384,0.2707,0.277,0.0943,2.7825,-3.22,1.155,2.203031797099471,-21.653642423617764,-6.181531999956794,5.461999999999534
-0.3881,0.9658,0.0342,0.2707,0.277,0.0943,4.0862,-3.185,2.2575,2.062957652896371,-21.8526839746702,-6.181531999956794,5.461999999999534
-0.3881,0.9658,0.0342,0.269,0.2734,0.102,5.6875,-2.905,3.6575,2.0333329685421453,-21.87715255922096,-6.228011999966264,5.478000000002794
-0.3845,0.9658,0.0379,0.269,0.2734,0.102,5.6875,-2.905,3.6575,2.2149128446008404,-21.712106586732723,-6.271586999943437,5.492999999994936
-0.38,0.9706,0.0364,0.269,0.2734,0.102,6.475,-2.555,4.9525,2.15680838140158,-21.3985776753727,-6.292026999947601,5.500999999996566
-0.378,0.974,0.034,0.2691,0.2716,0.1041,7.1487,-2.1525,6.58,2.018756183325627,-21.214805543162853,-6.292026999947601,5.500999999996566
-0.3759,0.9764,0.0305,0.2691,0.2716,0.1041,7.175,-1.8112,7.5687,1.8175128306334687,-21.0589839529362,-6.321006199953505,5.516999999999825
-0.3759,0.9764,0.0305,0.267,0.2718,0.0946,7.175,-1.8112,7.5687,1.7926749790036927,-21.047532189581315,-6.321006199953505,5.516999999999825
-0.3753,0.9739,0.0309,0.267,0.2718,0.0946,7.7613,-1.05,7.7088,1.8144452763464494,-21.063627061456064,-6.337806199949288,5.532999999995809
-0.3812,0.9712,0.03,0.267,0.2709,0.0965,8.47,-0.8487,8.3912,1.7740882876729491,-21.39615929166052,-6.337806199949288,5.532999999995809
-0.3918,0.9782,0.0306,0.2667,0.2709,0.0965,9.7825,-0.2887,10.4913,1.7900911040743974,-21.79247157482874,-6.3421366999512205,5.548000000002503
-0.3997,0.9761,0.0304,0.2667,0.2709,0.0965,9.7825,-0.2887,10.4913,1.7844447088141353,-22.230503717338525,-6.3421366999512205,5.548000000002503
-0.3994,0.9811,0.0304,0.2633,0.2677,0.0934,10.8413,-0.0613,14.21,1.7755992926925321,-22.14575137069698,-6.343117499950974,5.563999999998487
-0.3994,0.9811,0.0304,0.2633,0.2677,0.0934,12.7662,-0.3588,17.3775,1.7748378687797215,-22.1415362555497,-6.343117499950974,5.563999999998487
-0.394,0.988,0.0185,0.261,0.2638,0.0934,13.8687,0.1225,20.51,1.1201739367110533,-21.753140406793783,-6.341279999951046,5.5789999999979045
-0.3903,0.9936,0.0199,0.261,0.2638,0.0934,13.8687,0.1225,20.51,1.1455382764995328,-21.453417563988555,-6.341279999951046,5.5789999999979045
-0.3798,0.9947,0.0163,0.261,0.2638,0.0934,13.72,-0.0437,23.4412,0.9529268683425508,-20.91440318033184,-6.341979199951188,5.595000000001164
-0.3743,1.0005,0.0057,0.2581,0.259,0.0847,14.0087,-0.5425,24.7975,0.36836539052895145,-20.524245463732335,-6.341979199951188,5.595000000001164
-0.3743,1.0005,0.0057,0.2581,0.259,0.0847,13.9125,-0.5775,26.18,0.32924580393697994,-20.51157442285404,-6.3512191999488685,5.610999999997148
-0.3703,1.0049,0.0023,0.2538,0.2562,0.0928,13.9125,-0.5775,26.18,0.1444872993873431,-20.23729566194249,-6.3512191999488685,5.610999999997148
-0.359,1.0083,0.0052,0.2538,0.2562,0.0928,14.2187,-0.7525,27.4662,0.2855135554024305,-19.616856190334126,-6.3625066999484305,5.625999999996566
-0.3489,1.0066,-0.0016,0.2538,0.2562,0.0928,14.1488,-0.77,28.9013,-0.06609308607641735,-19.131234584745137,-6.3625066999484305,5.625999999996566
-0.3412,1.0082,-0.0043,0.2494,0.2519,0.09,14.1488,-0.77,32.3575,-0.23254163449678744,-18.708252897586544,-6.374826699945338,5.641999999992549
-0.3398,0.9963,0.0044,0.2494,0.2519,0.09,14.2537,-0.0437,32.3575,0.22105011161349272,-18.829151207632123,-6.374826699945338,5.641999999992549
-0.3398,0.9963,0.0044,0.2476,0.2468,0.0901,16.2488,1.5225,38.6662,0.25117378882181135,-18.832311846352287,-6.351989199935146,5.656999999999243
-0.344,0.9953,0.0013,0.2476,0.2468,0.0901,19.4338,3.8763,45.8413,0.08349672134238088,-19.061873245479205,-6.351989199935146,5.656999999999243
-0.348,1.0,-0.0029,0.2476,0.2468,0.0901,19.4338,3.8763,45.8413,-0.153895963134964,-19.185394099314347,-6.289968399922511,5.673000000002503
-0.3331,1.0052,-0.0091,0.2397,0.2399,0.0847,20.58,4.7688,51.6688,-0.5017192512163099,-18.3480656735574,-6.289968399922511,5.673000000002503
-0.3143,1.0104,-0.0171,0.2397,0.2399,0.0847,20.9212,4.795,55.755,-0.9481667591287373,-17.294095845510448,-6.21324839994177,5.688999999998487
-0.3143,1.0104,-0.0171,0.2333,0.2304,0.0834,20.1688,4.0075,57.0062,-0.9685656001782244,-17.277033838634935,-6.21324839994177,5.688999999998487
-0.2949,1.0063,-0.0311,0.2333,0.2304,0.0834,20.1688,4.0075,57.0062,-1.732181380810154,-16.341126198463254,-6.153135899944102,5.7039999999979045
-0.28,1.0061,-0.0324,0.2333,0.2277,0.0854,20.0812,3.7013,56.665,-1.8391446356472854,-15.557049283222284,-6.153135899944102,5.7039999999979045
-0.2572,1.0047,-0.0381,0.2244,0.2277,0.0854,19.9937,3.2375,55.685,-2.1558200455116916,-14.368845330565495,-6.085148399942029,5.724999999998545
-0.2379,1.0067,-0.0447,0.2244,0.2277,0.0854,19.6875,2.9662,53.8213,-2.5236532060778765,-13.301531860390652,-6.0614187999371945,5.733000000000175
-0.2232,0.9974,-0.045,0.2163,0.2191,0.082,19.6875,2.9662,53.8213,-2.5803868989069825,-12.613218586590529,-6.037689199953942,5.7409999999945285
-0.2232,0.9974,-0.045,0.2163,0.2191,0.082,20.02,2.4237,52.92,-2.5831412135564618,-12.601722735188401,-6.027994399951966,5.744999999995343
-0.2089,0.9901,-0.0442,0.209,0.2145,0.0755,19.6963,1.9688,52.675,-2.5574097640866627,-11.91442201504933,-6.027994399951966,5.744999999995343
-0.2029,1.0091,-0.0503,0.209,0.2145,0.0755,19.5825,2.2313,54.6175,-2.8391836513701723,-11.364372457455923,-5.994524899953265,5.759999999994761
-0.1945,1.0185,-0.0508,0.209,0.2145,0.0755,19.5825,2.2313,54.6175,-2.8546006192557507,-10.807663031569852,-5.994524899953265,5.759999999994761
-0.177,1.0221,-0.0478,0.2014,0.2086,0.0663,18.2525,2.0387,55.825,-2.686800013173716,-9.83018141229527,-5.96190569994662,5.775999999998021
-0.177,1.0221,-0.0478,0.2014,0.2086,0.0663,16.8787,1.9338,57.2337,-2.6780883163977967,-9.814374904788277,-5.96190569994662,5.775999999998021
-0.1636,1.0255,-0.0464,0.1937,0.202,0.0717,14.6388,1.89,55.9388,-2.5962678021985064,-9.067268252507787,-5.931665699940459,5.792000000001281
-0.148,1.0182,-0.0565,0.1937,0.202,0.0717,15.0675,1.89,55.9388,-3.139839491067491,-8.270815465761702,-5.903315699955311,5.8069999999934225
-0.1329,1.0235,-0.059,0.1937,0.202,0.0717,13.1425,2.1175,54.0138,-3.287857993643372,-7.400982914066915,-5.903315699955311,5.8069999999934225
-0.1263,1.0239,-0.0626,0.1847,0.1954,0.0601,10.9987,2.66,51.1963,-3.4809652013780235,-7.0257187027709,-5.903315699955311,5.8069999999934225
-0.123,1.018,-0.0613,0.1847,0.1954,0.0601,10.9987,2.66,48.9562,-3.4489025140741854,-6.8797416435971375,-5.86075569994664,5.822999999996682
-0.123,1.018,-0.0613,0.1787,0.1915,0.0681,10.675,2.5463,47.9238,-3.4462209062471327,-6.877088179592294,-5.86075569994664,5.822999999996682
-0.1058,1.0003,-0.0712,0.1787,0.1915,0.0681,9.7212,2.2838,43.7062,-4.0126618106784635,-6.039683087385316,-5.82649869994797,5.8379999999961
-0.1139,0.9824,-0.0677,0.1787,0.1915,0.0681,11.095,2.2662,41.0462,-3.948046108421571,-6.586012500917546,-5.790239499940583,5.85399999999936
-0.1127,0.9978,-0.0624,0.1714,0.1882,0.0661,11.095,2.2662,41.0462,-3.6092194656511922,-6.434978874168038,-5.790239499940583,5.85399999999936
-0.1047,1.0101,-0.0619,0.1714,0.1882,0.0661,12.74,2.7037,41.5275,-3.514257470197526,-5.917855589809182,-5.74698029993177,5.870000000002619
-0.1047,1.0101,-0.0619,0.1666,0.1827,0.0679,13.79,2.835,43.0588,-3.50727021264119,-5.906976511214803,-5.74698029993177,5.870000000002619
-0.0931,1.0079,-0.0672,0.1666,0.1827,0.0679,13.8863,2.31,44.45,-3.79371563400947,-5.2785251637758535,-5.7123302999499215,5.884999999994761
-0.0763,1.0069,-0.0689,0.1666,0.1827,0.0616,13.8863,2.31,44.45,-3.90636944984042,-4.342275602230865,-5.7123302999499215,5.884999999994761
-0.0571,1.0064,-0.0717,0.1604,0.1794,0.0616,12.5475,1.8288,45.6662,-4.062575584706201,-3.2604461579964044,-5.683069499943961,5.900999999998021
-0.0428,1.0042,-0.0699,0.1604,0.1794,0.0616,11.7863,2.1788,45.9113,-3.9881551677430296,-2.4505382616927682,-5.683069499943961,5.900999999998021
-0.0346,1.0146,-0.0762,0.149,0.1743,0.0643,10.7187,2.5113,45.2725,-4.2686976510645325,-1.9574695414319614,-5.645399999945423,5.915999999997439
-0.0346,1.0146,-0.0762,0.149,0.1743,0.0643,10.7187,2.5113,45.2725,-4.292786852907185,-1.9478600466827445,-5.645399999945423,5.915999999997439
-0.0211,1.0134,-0.0765,0.1451,0.1686,0.0581,9.2225,3.605,43.82,-4.314598338229997,-1.2046122749463957,-5.587719999933672,5.9320000000006985
-0.0088,1.0075,-0.0812,0.1451,0.1686,0.0581,8.6625,4.1038,42.6213,-4.5772473196120815,-0.5133241574864874,-5.587719999933672,5.9320000000006985
-0.0054,0.9973,-0.0868,0.1451,0.1686,0.0581,8.9775,4.8475,41.1162,-4.934125938634996,-0.31339520470932225,-5.510159999917871,5.948000000003958
0.0071,0.9961,-0.0985,0.1379,0.165,0.0656,8.9775,4.8475,41.1162,-5.575360866881627,0.39113900203100604,-5.510159999917871,5.948000000003958
0.0071,0.9961,-0.0985,0.1379,0.165,0.0656,9.9312,5.7925,39.41,-5.640739325381568,0.40606789471348326,-5.423272499963389,5.9629999999961
0.0119,1.0021,-0.1025,0.1306,0.1626,0.0622,9.9225,6.3525,38.2463,-5.8218158083172895,0.6707138222469535,-5.423272499963389,5.9629999999961
0.0279,0.9869,-0.1046,0.1306,0.1626,0.0622,9.9225,6.3525,36.5838,-6.0290627778922365,1.5882798756989753,-5.321632499942682,5.97899999999936
0.0356,0.9842,-0.1127,0.1306,0.1626,0.0622,9.5638,5.4687,36.5838,-6.484461954949462,2.047110049742795,-5.321632499942682,5.97899999999936
0.054,0.9983,-0.1107,0.125,0.1609,0.0666,10.3337,5.4075,35.8838,-6.341523212406377,3.05282115365291,-5.24051999994583,5.993999999998778
0.0606,1.0092,-0.1071,0.125,0.1609,0.0666,10.1763,5.8275,34.8338,-6.083320129542423,3.408287555335793,-5.24051999994583,5.993999999998778
0.0606,1.0092,-0.1071,0.1199,0.1578,0.0571,10.1763,5.8275,34.8338,-6.060066100968412,3.416984645554647,-5.147279999926835,6.010000000002037
0.0696,1.0173,-0.1111,0.1199,0.1578,0.0571,9.8875,6.0113,33.5563,-6.2166548816944935,3.878842390730533,-5.147279999926835,6.010000000002037
0.0722,1.0144,-0.1132,0.1199,0.1578,0.0571,9.2575,5.7137,31.43,-6.352659575334893,4.041670111111851,-5.055860799949783,6.025999999998021
0.0783,1.0081,-0.1098,0.115,0.1544,0.0506,9.345,5.18,29.225,-6.229326455585221,4.404692807107125,-5.055860799949783,6.025999999998021
0.0838,1.0152,-0.1106,0.115,0.1544,0.0506,9.345,5.18,29.225,-6.218663494025775,4.683043706043541,-4.978160799952798,6.040999999997439
0.0838,1.0152,-0.1106,0.1103,0.1521,0.0442,8.47,4.8038,25.7075,-6.217635885813149,4.690911730273242,-4.978160799952798,6.040999999997439
0.0833,1.0138,-0.1171,0.1103,0.1521,0.0442,7.5512,4.48,21.7437,-6.545030736520822,4.667217388241476,-4.906480799938195,6.0570000000006985
0.0905,1.0108,-0.1184,0.1103,0.1521,0.0442,6.5188,4.4187,18.3312,-6.662647357732916,5.064657618952327,-4.906480799938195,6.0570000000006985
0.1022,1.0165,-0.1206,0.1061,0.1498,0.0527,6.5188,4.4187,18.3312,-6.752189655262251,5.6754288339010115,-4.840200299972917,6.0719999999928405
0.1005,1.0132,-0.1229,0.1061,0.1498,0.0527,6.6762,4.0512,15.19,-6.894564097716114,5.626159913896593,-4.840200299972917,6.0719999999928405
0.1005,1.0122,-0.1262,0.1037,0.1494,0.051,6.65,3.6575,12.285,-7.078879021631038,5.6269111603977535,-4.781680299960995,6.0879999999961
0.1057,1.0122,-0.1262,0.1037,0.1494,0.051,6.125,2.8263,9.4675,-7.102928372379928,5.89743598312964,-4.781680299960995,6.0879999999961
0.1072,1.0089,-0.1261,0.1004,0.1485,0.0541,6.125,2.8263,9.4675,-7.1212844695771835,6.010866578213105,-4.736459499972347,6.103999999992084
0.1084,1.0077,-0.1242,0.1004,0.1485,0.0541,6.2475,2.555,7.3325,-7.039559950521091,6.087812984062988,-4.736459499972347,6.103999999992084
0.0974,0.9994,-0.1238,0.1004,0.1485,0.0541,6.405,1.505,4.7512,-7.058510665287985,5.576637982431266,-4.713884499962273,6.118999999998778
0.0944,0.9927,-0.1259,0.1002,0.1494,0.0512,6.93,0.7175,2.3888,-7.206425483267563,5.411485515675846,-4.713884499962273,6.118999999998778
0.0944,0.9927,-0.1259,0.1002,0.1494,0.0512,6.93,0.7175,2.3888,-7.225250664991222,5.391887215290611,-4.7024044999599335,6.135000000002037
0.091,0.9933,-0.1246,0.0984,0.146,0.0454,5.95,-0.3675,0.6737,-7.160824612311371,5.223477774028781,-4.7024044999599335,6.135000000002037
0.0904,0.9931,-0.1263,0.0984,0.146,0.0454,5.8012,-1.6013,-1.085,-7.234896376235798,5.172702216454139,-4.72642399994735,6.149999999994179
0.091,0.9988,-0.1315,0.0984,0.146,0.0454,5.8012,-1.6013,-3.325,-7.460863141961895,5.1656347310146735,-4.72642399994735,6.149999999994179
0.0941,0.9975,-0.1316,0.0976,0.1478,0.048,5.5738,-3.045,-2.9313,-7.507195912133172,5.28595739552844,-4.775143999957276,6.165999999997439
0.0941,0.9919,-0.1301,0.0976,0.1478,0.048,5.2413,-3.8588,-4.725,-7.478038324664614,5.30685144001459,-4.775143999957276,6.165999999997439
0.0989,0.9919,-0.1301,0.0982,0.1468,0.0462,5.25,-4.375,-6.3175,-7.473310249650933,5.497193432681348,-4.845143999939705,6.1819999999934225
0.093,0.9922,-0.1343,0.0982,0.1468,0.0462,5.25,-4.375,-6.3175,-7.670398499735349,5.390237464077586,-4.91076899996899,6.197000000000116
0.094,0.9995,-0.1388,0.0982,0.1468,0.0462,5.215,-5.4862,-7.5075,-7.8677005891350715,5.341612095681665,-4.91076899996899,6.197000000000116
0.0927,1.0009,-0.1351,0.0981,0.1481,0.0503,3.8675,-6.3263,-8.2688,-7.72487609019811,5.267194208344849,-5.011989799989612,6.213000000003376
0.0907,0.9945,-0.134,0.0981,0.1481,0.0503,3.5,-6.755,-8.4175,-7.685396692517131,5.188053767284829,-5.011989799989612,6.213000000003376
0.0907,0.9945,-0.134,0.0997,0.1481,0.0429,3.5,-6.755,-8.4175,-7.676479399485176,5.169982792852805,-5.113314799936531,6.227999999995518
0.085,0.9984,-0.1354,0.0997,0.1481,0.0429,3.885,-6.4837,-8.68,-7.713462039573192,4.89718414100434,-5.113314799936531,6.227999999995518
0.0838,1.0025,-0.1319,0.0997,0.1481,0.0429,3.7538,-6.51,-9.31,-7.541994749591785,4.7679204503213075,-5.217474799957752,6.243999999998778
0.0836,0.9998,-0.1352,0.1001,0.1466,0.0365,2.7912,-6.7375,-9.45,-7.65840247832868,4.742592393439851,-5.217474799957752,6.243999999998778
0.0796,0.9971,-0.1375,0.1001,0.1466,0.0365,2.7912,-6.7375,-9.45,-7.799617172165005,4.5625304803129065,-5.325274799930692,6.259999999994761
0.0796,0.9981,-0.1377,0.1012,0.1482,0.0488,1.995,-6.5012,-9.6075,-7.836088605331057,4.525313292938395,-5.325274799930692,6.259999999994761
0.0803,0.9981,-0.1377,0.1012,0.1482,0.0488,1.8375,-6.5275,-10.0013,-7.848199200633095,4.551458041322658,-5.423187299974386,6.275000000001455
0.0827,0.9988,-0.1377,0.1022,0.149,0.0398,1.4787,-6.51,-9.8525,-7.849032433153973,4.665431306034172,-5.423187299974386,6.275000000001455
0.086,1.0054,-0.1418,0.1022,0.149,0.0398,1.4787,-6.51,-9.8525,-7.953588723974173,4.811125155933232,-5.52734729994824,6.290999999997439
0.0842,1.0056,-0.1402,0.1022,0.149,0.0398,1.5313,-6.2387,-9.2575,-7.9437312692080715,4.754140040380605,-5.52734729994824,6.290999999997439
0.0886,1.0069,-0.1383,0.1019,0.1485,0.0474,1.0412,-6.2825,-9.6687,-7.883234463611799,4.941638761485284,-5.621584799944583,6.305999999996857
0.0886,1.0069,-0.1383,0.1019,0.1485,0.0474,1.0412,-6.2825,-10.0975,-7.85250179072058,4.975447471853158,-5.621584799944583,6.305999999996857
0.0851,1.0061,-0.1395,0.1024,0.1497,0.0415,1.1988,-5.9938,-10.0975,-7.8744658260894544,4.819936259199172,-5.71748559996412,6.322000000000116
0.0826,1.0046,-0.1399,0.1024,0.1497,0.0415,0.7788,-5.2413,-10.8062,-7.896617071846192,4.679932805994602,-5.71748559996412,6.322000000000116
0.0783,1.0059,-0.1418,0.1024,0.1497,0.0415,-0.1225,-6.0725,-11.55,-7.917425102339871,4.443824431655799,-5.814645599939731,6.3379999999961
0.0778,1.0099,-0.1383,0.1049,0.1517,0.0479,-0.1225,-6.0725,-11.55,-7.897890436143847,4.3751778294844454,-5.814645599939731,6.3379999999961
0.0778,1.0099,-0.1421,0.1049,0.1517,0.0479,-0.1663,-6.335,-12.81,-7.919389093578315,4.363864238148352,-5.909670599936044,6.352999999995518
0.0756,1.011,-0.1421,0.103,0.1498,0.0458,-0.3413,-6.5538,-14.1225,-7.943206528496311,4.247777977008672,-5.909670599936044,6.352999999995518
0.0696,1.0108,-0.1401,0.103,0.1498,0.0458,-1.1988,-6.6762,-15.82,-7.914037271782537,3.9311450479818753,-6.01648979990923,6.368999999991502
0.0658,1.0047,-0.1388,0.103,0.1498,0.0458,-1.1988,-6.6762,-15.82,-7.886959263698523,3.730526811903071,-6.01648979990923,6.368999999991502
0.0641,1.0052,-0.1405,0.1078,0.1511,0.0457,-1.4438,-7.0262,-16.8962,-7.929085585791994,3.622772722183485,-6.121882799956263,6.383999999998196
0.0598,1.0021,-0.1415,0.1078,0.1511,0.0457,-1.715,-6.825,-18.5763,-7.998435237682773,3.398180656381702,-6.121882799956263,6.383999999998196
0.0598,1.0021,-0.1415,0.1091,0.151,0.0414,-1.9338,-6.9212,-19.5825,-8.02432481958952,3.3826584076919133,-6.232621999978824,6.400000000001455
0.0531,0.9977,-0.1403,0.1091,0.151,0.0414,-1.9338,-6.9212,-19.5825,-8.011187965940437,3.040445914040014,-6.232621999978824,6.400000000001455
0.0439,0.9999,-0.138,0.1091,0.151,0.0414,-2.6337,-7.1838,-20.5275,-7.899306331139756,2.5237068053676,-6.347562799949972,6.415999999997439
0.0353,1.0061,-0.1412,0.1128,0.1534,0.042,-3.2987,-7.8575,-21.56,-7.968431529090627,2.0204290929091457,-6.347562799949972,6.415999999997439
0.0273,1.0121,-0.143,0.1128,0.1534,0.042,-3.465,-8.2425,-23.0825,-8.025873055893058,1.555668356814241,-6.471200299945174,6.430999999996857
0.0273,1.0121,-0.1408,0.1153,0.1551,0.0468,-3.465,-8.2425,-23.0825,-7.943306249988146,1.5316974387028117,-6.471200299945174,6.430999999996857
0.0256,1.0133,-0.1408,0.1153,0.1551,0.0468,-4.375,-9.03,-24.4387,-7.916690877840836,1.4382619551246258,-6.615680299908907,6.4469999999928405
0.0275,1.0168,-0.1393,0.1189,0.155,0.045,-5.2762,-9.415,-24.9112,-7.819112458390947,1.5302635750914924,-6.615680299908907,6.4469999999928405
0.0275,1.0196,-0.1405,0.1189,0.155,0.045,-5.6262,-9.2137,-24.57,-7.8418987333173416,1.5305025217332275,-6.753885799970583,6.461999999999534
0.0321,1.017,-0.1433,0.1189,0.155,0.045,-5.6262,-9.2137,-24.57,-7.993786626897827,1.7775310535228621,-6.753885799970583,6.461999999999534
0.0313,1.0147,-0.1402,0.1217,0.1581,0.0521,-5.2762,-8.4788,-23.31,-7.886707009733668,1.7516186059439378,-6.88954659999822,6.478000000002794
0.0313,1.0147,-0.1402,0.1217,0.1581,0.0521,-5.2063,-8.1637,-20.9825,-7.8698762977279975,1.7502841439695656,-6.88954659999822,6.478000000002794
0.0281,1.0056,-0.1385,0.1225,0.158,0.0412,-5.2063,-8.1637,-18.6375,-7.84638712989704,1.5969435247315238,-7.020165799965432,6.493999999998778
0.0201,1.0029,-0.1441,0.1225,0.158,0.0412,-4.1125,-8.0937,-18.6375,-8.112824943153143,1.1680319452408063,-7.020165799965432,6.493999999998778
0.0123,1.0044,-0.1439,0.1225,0.158,0.0412,-3.29,-8.3912,-16.7825,-8.143992598659361,0.7316787698206004,-7.146033799960548,6.508999999998196
0.0075,0.9971,-0.1452,0.1248,0.1586,0.0563,-1.5838,-8.6012,-15.435,-8.232110563639313,0.45324278322554973,-7.2836529999260025,6.524999999994179
0.0075,0.9971,-0.1425,0.1248,0.1586,0.0563,-1.5838,-8.6012,-15.435,-8.170508171159396,0.4289608862746691,-7.2836529999260025,6.524999999994179
0.0089,0.9963,-0.1425,0.126,0.158,0.0542,-0.7962,-8.8025,-13.9038,-8.156214073171641,0.49878133801728597,-7.415690499984925,6.540000000000873
0.0085,1.0063,-0.1426,0.126,0.158,0.0542,-0.2362,-8.4788,-12.775,-8.134810766177822,0.48141174218921334,-7.415690499984925,6.540000000000873
0.0129,1.01,-0.139,0.126,0.158,0.0542,-0.1575,-8.7238,-12.3287,-8.078899839297398,0.6955533791707823,-7.555271299949887,6.555999999996857
0.0149,1.014,-0.1436,0.1255,0.1611,0.047,-0.1575,-8.7238,-12.3287,-8.07545220625343,0.8168996172328449,-7.555271299949887,6.555999999996857
0.0132,1.0143,-0.1391,0.1255,0.1611,0.047,-0.3588,-8.3825,-12.5738,-7.995063891053375,0.7478494364659455,-7.689391299977212,6.572000000000116
0.0132,1.0143,-0.1391,0.1278,0.1605,0.0523,-0.63,-8.1287,-12.7925,-7.91818018815315,0.739733066140779,-7.689391299977212,6.572000000000116
0.0146,1.0155,-0.1371,0.1278,0.1605,0.0523,-1.0325,-7.5425,-13.02,-7.797791342385816,0.8077655453916421,-7.802528799972821,6.586999999999534
0.0157,1.0163,-0.1412,0.1278,0.1605,0.0523,-1.0325,-7.5425,-13.02,-7.856581305867963,0.8689602716381827,-7.802528799972821,6.586999999999534
0.0134,1.0082,-0.1396,0.1278,0.162,0.0555,-1.4438,-7.0788,-13.755,-7.8726892219972635,0.7660809014525917,-7.91578959994439,6.602999999995518
0.0164,1.0118,-0.1368,0.1278,0.162,0.0555,-2.1613,-7.0525,-14.2625,-7.75336984288742,0.9051618640905721,-7.91578959994439,6.602999999995518
0.0164,1.0118,-0.1394,0.1292,0.1626,0.053,-2.8437,-6.93,-15.0325,-7.821230119495409,0.9185800228808002,-8.019739599990778,6.618000000002212
0.0169,1.0133,-0.1394,0.1292,0.1626,0.053,-2.8437,-6.93,-15.0325,-7.830017413121384,0.9440396356809994,-8.019739599990778,6.618000000002212
0.0179,1.0092,-0.1394,0.132,0.1618,0.0532,-3.4562,-7.2187,-15.89,-7.8568516126166505,1.0013060959883702,-8.135238799909263,6.63399999999092
0.0195,1.0126,-0.1399,0.132,0.1618,0.0532,-4.5062,-6.4488,-17.1675,-7.864476263988865,1.0858781725080797,-8.135238799909263,6.63399999999092
0.0168,1.0189,-0.135,0.132,0.1618,0.0532,-4.5062,-6.3175,-18.1912,-7.604309366636384,0.9470041722895546,-8.236318799929856,6.649999999994179
0.0154,1.0144,-0.1407,0.1334,0.1643,0.0552,-4.6112,-6.3175,-18.1912,-7.845254477491011,0.8675564875309366,-8.236318799929856,6.649999999994179
0.0154,1.0144,-0.1407,0.1334,0.1643,0.0552,-5.1537,-5.95,-19.95,-7.888433712210609,0.8618958760456221,-8.325568799969686,6.665000000000873
0.0127,1.0293,-0.1353,0.1369,0.1659,0.0581,-5.7575,-5.3375,-21.9363,-7.547065431366894,0.7098747759510935,-8.325568799969686,6.665000000000873
0.0045,1.0323,-0.131,0.1369,0.1659,0.0581,-5.7575,-5.3375,-26.4163,-7.27833310851703,0.2684245132627787,-8.410968799948249,6.680999999996857
-0.0068,1.0296,-0.1309,0.1369,0.1659,0.0581,-5.9412,-5.145,-24.9463,-7.250205032781672,-0.34459121296967493,-8.410968799948249,6.680999999996857
-0.0187,1.043,-0.1269,0.1394,0.1693,0.0516,-7.1838,-5.705,-29.1725,-6.974918803367736,-0.9927741399500796,-8.496543799944927,6.695999999996275
-0.0187,1.0586,-0.1239,0.1394,0.1693,0.0516,-7.9713,-5.7225,-33.4425,-6.708700292622834,-1.0047346470889051,-8.496543799944927,6.695999999996275
-0.0194,1.0483,-0.1239,0.1433,0.1704,0.0586,-7.9713,-5.7225,-33.4425,-6.737068504316516,-1.0512394430832104,-8.588103799921944,6.711999999992258
-0.02,1.0432,-0.1211,0.1433,0.1704,0.0586,-9.24,-6.23,-37.2487,-6.632751801538236,-1.0898055133471467,-8.588103799921944,6.711999999992258
-0.0309,1.0288,-0.122,0.1433,0.1704,0.0586,-10.535,-6.23,-39.9787,-6.75161816953096,-1.6911866473004091,-8.68778379994225,6.727999999995518
-0.0418,1.0146,-0.1197,0.1496,0.1732,0.0644,-10.5875,-6.405,-41.3175,-6.730493710382292,-2.325452666588107,-8.68778379994225,6.727999999995518
-0.051,1.0043,-0.121,0.1496,0.1732,0.0644,-10.5875,-6.405,-41.3175,-6.858028669650821,-2.8711965870099996,-8.809478799943742,6.746999999995751
-0.051,1.0043,-0.121,0.1542,0.177,0.0614,-9.5288,-6.58,-41.5537,-6.868863824354789,-2.8858384077944956,-8.809478799943742,6.746999999995751
-0.0591,1.0004,-0.1189,0.1542,0.177,0.0614,-8.7238,-5.9675,-40.7663,-6.787229084421117,-3.344485225346149,-8.904958799963193,6.7629999999990105
-0.0694,1.0011,-0.1147,0.1542,0.177,0.0614,-8.1988,-5.915,-38.9725,-6.563189697139477,-3.922875336151584,-8.904958799963193,6.7629999999990105
-0.0746,1.0078,-0.1132,0.1585,0.1779,0.0637,-8.1988,-5.915,-38.9725,-6.425471109783332,-4.198966263092653,-8.99368379995975,6.777999999998428
-0.0792,1.0117,-0.1138,0.1585,0.1779,0.0637,-7.3587,-6.3612,-37.59,-6.41877852197047,-4.4408482864386585,-8.99368379995975,6.777999999998428
-0.0792,1.0117,-0.1123,0.1646,0.1818,0.0703,-7.1663,-5.9062,-35.4987,-6.34426865372239,-4.448744723647075,-9.088182999979002,6.794000000001688
-0.0835,1.0146,-0.1123,0.1646,0.1818,0.0703,-7.21,-5.6962,-34.0288,-6.3194289226472335,-4.668732827134292,-9.088182999979002,6.794000000001688
-0.0881,1.0202,-0.1081,0.169,0.185,0.0664,-7.21,-5.6962,-34.0288,-6.0811836761500615,-4.900241250631463,-9.179322199956125,6.809999999997672
-0.0825,1.0244,-0.1132,0.169,0.185,0.0664,-7.0437,-5.2325,-33.005,-6.27813647301783,-4.587808184771707,-9.179322199956125,6.809999999997672
-0.08,1.0277,-0.1074,0.169,0.185,0.0664,-7.2625,-4.6025,-32.6113,-6.00349283510019,-4.432751466959555,-9.248359699953447,6.82499999999709
-0.0755,1.0213,-0.1105,0.173,0.1868,0.0706,-7.2625,-3.57,-31.9638,-6.154530122973766,-4.211689053767744,-9.248359699953447,6.82499999999709
-0.0755,1.0213,-0.1105,0.173,0.1868,0.0706,-7.4288,-3.57,-31.9638,-6.172698828553307,-4.203772968186295,-9.305479699965083,6.841000000000349
-0.0729,1.0208,-0.1089,0.1742,0.1887,0.0652,-7.665,-2.625,-31.3512,-6.09888198362177,-4.067044776030101,-9.305479699965083,6.841000000000349
-0.0749,1.0188,-0.1085,0.1742,0.1887,0.0652,-8.1112,-1.8813,-30.7738,-6.081132595868554,-4.176872036933582,-9.333699199963988,6.855999999999767
-0.0805,1.0125,-0.1147,0.1742,0.1887,0.0652,-8.1112,-1.8813,-30.7738,-6.421543434497273,-4.504311700426995,-9.333699199963988,6.855999999999767
-0.0939,1.0113,-0.107,0.1786,0.1937,0.0765,-8.1462,-1.68,-30.9487,-6.0810980288804615,-5.246813619279394,-9.360579199969465,6.872000000003027
-0.0939,1.0113,-0.1033,0.1786,0.1937,0.0765,-7.7263,-0.7437,-31.5438,-5.860568964076787,-5.2763308083957385,-9.360579199969465,6.872000000003027
-0.1172,1.0133,-0.1033,0.1839,0.1925,0.0691,-9.205,-0.8575,-32.9263,-5.824723667115732,-6.519320264911853,-9.374299199966021,6.8879999999990105
-0.131,1.0156,-0.0986,0.1839,0.1925,0.0691,-9.205,-0.8575,-32.9263,-5.572404995262278,-7.2882784131939795,-9.374299199966021,6.8879999999990105
-0.1349,1.023,-0.1017,0.1839,0.1925,0.0691,-10.955,-1.2513,-35.1488,-5.668596646425135,-7.4696303410461455,-9.393068699965292,6.902999999998428
-0.1374,1.0283,-0.0946,0.1881,0.199,0.0674,-12.53,-1.1988,-36.8288,-5.286532088337162,-7.575733693854942,-9.393068699965292,6.902999999998428
-0.1393,1.0314,-0.0958,0.1881,0.199,0.0674,-13.4488,-1.3125,-38.3775,-5.305222282129916,-7.656770618560612,-9.414068699960021,6.918999999994412
