AcclX,AcclY,AcclZ,MagX,MagY,MagZ,GyroX,GyroY,GyroZ,Roll,Pitch,Yaw,Time Elapsed(s)
-0.1307,1.0195,-0.0828,0.1824,0.1935,0.0717,-0.3063,-1.4438,-5.1013,0,0,0,0.0
-0.1307,1.0195,-0.0828,0.1824,0.1935,0.0717,-0.56,-1.3825,-5.1363,0,0,0,0.0
-0.1327,1.0225,-0.0859,0.1818,0.1944,0.0768,-0.56,-1.3825,-5.1363,0,0,0,0.014999999999417923
-0.129,1.0255,-0.0816,0.1818,0.1944,0.0768,-0.3413,-1.1812,-5.3025,0,0,0,0.014999999999417923
-0.1259,1.0255,-0.0845,0.1818,0.1944,0.0768,-0.2887,-1.0588,-5.0838,0,0,0,0.031000000002677552
-0.1261,1.0205,-0.0896,0.1804,0.1928,0.0722,-0.3762,-0.49,-5.1188,0,0,0,0.031000000002677552
-0.1261,1.0215,-0.0833,0.1804,0.1928,0.0722,-0.3762,-0.49,-5.1188,0,0,0,0.046000000002095476
-0.1284,1.0215,-0.0833,0.1799,0.1926,0.0733,-0.8138,-0.5775,-5.1887,0,0,0,0.046000000002095476
-0.1301,1.0171,-0.0867,0.1799,0.1926,0.0733,-1.155,-0.9625,-5.5213,0,0,0,0.062000000005355105
-0.131,1.0151,-0.0817,0.1799,0.1926,0.0733,-1.0938,-0.9187,-5.5475,0,0,0,0.07799999999406282
-0.1321,1.014,-0.0836,0.1805,0.1918,0.0823,-1.0938,-0.9187,-5.5475,0,0,0,0.07799999999406282
-0.1332,1.0169,-0.0803,0.1805,0.1918,0.0823,-0.6388,-1.015,-5.3288,0,0,0,0.0930000000007567
-0.1332,1.0169,-0.0803,0.1806,0.1926,0.0829,-0.28,-0.8225,-5.6438,0,0,0,0.0930000000007567
-0.1304,1.0169,-0.0829,0.1806,0.1926,0.0829,-0.28,-0.8225,-5.2587,0,0,0,0.10900000000401633
-0.1319,1.0178,-0.0844,0.1806,0.1926,0.0624,-0.4375,-0.77,-5.2587,0,0,0,0.10900000000401633
-0.1316,1.0189,-0.0794,0.1814,0.1936,0.0762,-0.7875,-0.7262,-5.18,0,0,0,0.125
-0.1331,1.0189,-0.0819,0.1814,0.1936,0.0762,-0.7262,-1.12,-5.5125,0,0,0,0.13300000000162981
-0.1331,1.0182,-0.0814,0.1818,0.1924,0.0731,-0.7262,-1.12,-5.5125,0,0,0,0.14100000000325963
-0.1366,1.0182,-0.0814,0.1818,0.1924,0.0731,-0.84,-1.0237,-5.7225,0,0,0,0.14900000000488944
-0.1385,1.0176,-0.0844,0.1811,0.1933,0.0738,-0.945,-1.225,-5.9237,0,0,0,0.1569999999992433
-0.1386,1.0191,-0.0836,0.1811,0.1933,0.0738,-0.7088,-1.5662,-6.335,0,0,0,0.16500000000087311
-0.1383,1.0199,-0.0816,0.1811,0.1933,0.0738,-0.7088,-1.5662,-6.335,0,0,0,0.17300000000250293
-0.1394,1.0195,-0.0831,0.1818,0.1938,0.0712,-1.26,-1.4963,-6.335,0,0,0,0.18100000000413274
-0.1394,1.0195,-0.0831,0.1818,0.1938,0.0712,-0.4288,-1.6363,-6.685,0,0,0,0.18900000000576256
-0.1442,1.0221,-0.086,0.1811,0.193,0.0714,-0.2975,-2.0038,-6.4138,0,0,0,0.19099999999889405
-0.1416,1.0235,-0.0842,0.1811,0.193,0.0714,-0.2975,-2.0038,-6.4138,0,0,0,0.19099999999889405
-0.1412,1.0235,-0.0866,0.1811,0.193,0.0714,-0.7262,-2.3625,-6.2125,0,0,0,0.20700000000215368
-0.1416,1.0251,-0.0886,0.182,0.1936,0.0684,-0.2625,-2.0125,-6.2913,0,0,0,0.20700000000215368
-0.1416,1.0266,-0.0891,0.182,0.1936,0.0684,-0.1663,-2.1,-5.985,0,0,0,0.22899999999935972
-0.1428,1.0266,-0.0891,0.1822,0.1944,0.0737,-0.1663,-2.1,-5.985,0,0,0,0.22899999999935972
-0.1413,1.0268,-0.0875,0.1822,0.1944,0.0737,-0.5863,-2.5988,-5.5912,0,0,0,0.24399999999877764
-0.1429,1.0282,-0.0913,0.1822,0.1944,0.0737,-0.315,-2.7738,-6.0813,0,0,0,0.24399999999877764
-0.1435,1.0346,-0.0931,0.1815,0.1933,0.0832,-0.315,-2.8525,-6.0113,0,0,0,0.26000000000203727
-0.1472,1.0356,-0.0889,0.1815,0.1933,0.0832,-0.2625,-2.8525,-6.0113,0,0,0,0.26000000000203727
-0.1472,1.0356,-0.0889,0.1808,0.1931,0.0856,-0.9887,-3.2812,-6.545,0,0,0,0.2750000000014552
-0.1478,1.0318,-0.0917,0.1808,0.1931,0.0856,-0.9975,-3.1937,-7.28,0,0,0,0.2750000000014552
-0.1495,1.0307,-0.095,0.1808,0.1931,0.0856,-0.9975,-3.1937,-7.28,0,0,0,0.29099999999743886
-0.1463,1.0288,-0.0941,0.183,0.1939,0.0823,-1.2775,-3.1937,-7.805,0,0,0,0.29099999999743886
-0.1477,1.026,-0.0936,0.183,0.1939,0.0823,-1.5838,-3.2638,-7.9363,0,0,0,0.3070000000006985
-0.1477,1.0214,-0.093,0.1834,0.1951,0.0803,-1.4787,-3.605,-7.3675,0,0,0,0.3070000000006985
-0.1502,1.0214,-0.093,0.1834,0.1951,0.0803,-1.4787,-3.605,-7.3675,0,0,0,0.3220000000001164
-0.1531,1.0216,-0.0951,0.1837,0.194,0.079,-1.6888,-3.745,-7.385,0,0,0,0.3220000000001164
-0.1522,1.0214,-0.0944,0.1837,0.194,0.079,-1.19,-3.1412,-6.6062,0,0,0,0.33800000000337604
-0.1498,1.0188,-0.096,0.1837,0.194,0.079,-0.6825,-3.5,-6.3088,0,0,0,0.33800000000337604
-0.1496,1.0232,-0.0966,0.1842,0.1951,0.0721,-0.6825,-3.5,-6.3088,0,0,0,0.3539999999993597
-0.1496,1.0232,-0.0966,0.1842,0.1951,0.0721,-1.295,-3.1412,-5.8538,0,0,0,0.3539999999993597
-0.1491,1.0244,-0.097,0.1843,0.1949,0.0762,-1.0412,-2.8612,-5.1013,0,0,0,0.37000000000261934
-0.1493,1.016,-0.0999,0.1843,0.1949,0.0762,-0.7437,-2.5812,-4.7512,0,0,0,0.37000000000261934
-0.1495,1.0156,-0.1042,0.1843,0.1949,0.0762,-0.7437,-2.5812,-4.7512,0,0,0,0.385999999998603
-0.1454,1.0114,-0.1021,0.1838,0.1975,0.0782,-0.3938,-2.3275,-4.1737,0,0,0,0.385999999998603
-0.1454,1.0074,-0.1012,0.1838,0.1975,0.0782,-0.6475,-2.4938,-3.1412,0,0,0,0.40099999999802094
-0.1411,1.0074,-0.1012,0.184,0.1929,0.0766,-0.4025,-2.0738,-2.7125,0,0,0,0.40099999999802094
-0.131,1.0001,-0.1047,0.184,0.1929,0.0766,-0.4025,-2.0738,-2.7125,0,0,0,0.41700000000128057
-0.1225,1.0005,-0.1021,0.184,0.1929,0.0766,0.5775,-1.3563,-2.2313,0,0,0,0.41700000000128057
-0.1101,0.9986,-0.0985,0.1825,0.1934,0.0832,0.8487,-0.6737,-1.6187,0,0,0,0.4320000000006985
-0.1003,1.0044,-0.0964,0.1825,0.1934,0.0832,0.8487,1.5662,-0.8925,0,0,0,0.4320000000006985
-0.1003,1.0044,-0.0964,0.1806,0.1929,0.0728,0.9538,0.0175,-0.8925,0,0,0,0.44799999999668216
-0.0919,1.0033,-0.0983,0.1806,0.1929,0.0728,1.0412,1.8463,0.35,0,0,0,0.44799999999668216
-0.0893,1.0095,-0.0937,0.1806,0.1929,0.0728,1.2425,3.01,0.2625,0,0,0,0.4639999999999418
-0.0857,1.0045,-0.0855,0.1826,0.1935,0.078,1.2425,3.01,0.2625,0,0,0,0.4639999999999418
-0.0885,1.0116,-0.0874,0.1826,0.1935,0.078,1.015,3.5263,-0.0175,0,0,0,0.4789999999993597
-0.0885,1.0138,-0.0827,0.1814,0.1926,0.078,0.1225,3.9725,-0.7088,0,0,0,0.4789999999993597
-0.0829,1.0138,-0.0827,0.1814,0.1926,0.078,-0.84,3.7625,-1.3125,0,0,0,0.49500000000261934
-0.0808,1.0185,-0.0785,0.1814,0.1917,0.0765,-0.84,3.7625,-1.3125,0,0,0,0.49500000000261934
-0.0894,1.0205,-0.0827,0.1814,0.1917,0.0765,-1.8288,4.795,-2.4762,0,0,0,0.5099999999947613
-0.1012,1.0202,-0.0824,0.1814,0.1917,0.0765,-2.2838,5.0662,-3.5612,0,0,0,0.5099999999947613
-0.1098,1.019,-0.0773,0.179,0.1931,0.071,-2.2662,5.1712,-5.3637,0,0,0,0.5259999999980209
-0.1098,1.019,-0.0773,0.179,0.1931,0.071,-2.2662,5.1712,-5.3637,0,0,0,0.5259999999980209
-0.1174,1.0233,-0.0742,0.1801,0.1911,0.0709,-2.73,4.9262,-7.8837,0,0,0,0.5420000000012806
-0.1302,1.0332,-0.0789,0.1801,0.1911,0.0709,-3.22,4.1562,-10.5525,0,0,0,0.5420000000012806
-0.1403,1.0374,-0.0728,0.1801,0.1911,0.0709,-4.4625,3.605,-13.0988,0,0,0,0.5570000000006985
-0.1498,1.039,-0.0679,0.1825,0.1946,0.067,-4.4625,3.605,-13.0988,0,0,0,0.5730000000039581
-0.1498,1.039,-0.0705,0.1825,0.1946,0.067,-5.2937,2.4237,-15.5312,0,0,0,0.5730000000039581
-0.1644,1.035,-0.0705,0.1862,0.1945,0.0754,-6.0637,1.2075,-17.57,0,0,0,0.5879999999961001
-0.1817,1.028,-0.0703,0.1862,0.1945,0.0754,-8.3038,0.0525,-20.16,0,0,0,0.5879999999961001
-0.1973,1.0222,-0.0643,0.1862,0.1945,0.0754,-6.8075,0.0525,-20.16,0,0,0,0.6039999999993597
-0.2084,1.0172,-0.0602,0.1853,0.1961,0.0795,-7.1838,-1.505,-21.9363,0,0,0,0.6039999999993597
-0.2163,1.0176,-0.0588,0.1853,0.1961,0.0795,-7.0262,-3.4562,-23.1525,0,0,0,0.6200000000026193
-0.2163,1.0176,-0.0588,0.1895,0.1978,0.0751,-7.0262,-3.4562,-23.1525,0,0,0,0.6200000000026193
-0.2167,1.0149,-0.0558,0.1895,0.1978,0.0751,-7.2013,-5.5213,-22.6187,0,0,0,0.6350000000020373
-0.2182,1.0181,-0.0493,0.1895,0.1978,0.0751,-7.6737,-6.8425,-21.5775,0,0,0,0.6350000000020373
-0.2137,1.0178,-0.0479,0.1918,0.2008,0.082,-7.4462,-7.6038,-19.9762,0,0,0,0.6510000000052969
-0.2142,1.0202,-0.0417,0.1918,0.2008,0.082,-7.4462,-7.6038,-19.9762,0,0,0,0.6510000000052969
-0.2142,1.0202,-0.04,0.1914,0.2014,0.0825,-7.175,-8.6538,-17.8937,0,0,0,0.6659999999974389
-0.2109,1.0199,-0.04,0.1914,0.2014,0.0825,-6.2038,-9.4587,-15.9513,0,0,0,0.6659999999974389
-0.2095,1.0304,-0.0404,0.1941,0.2014,0.0778,-6.6238,-9.765,-13.2913,0,0,0,0.6820000000006985
-0.2012,1.0318,-0.0425,0.1941,0.2014,0.0778,-6.6238,-9.765,-13.2913,0,0,0,0.6820000000006985
-0.1947,1.0339,-0.0428,0.1941,0.2014,0.0778,-6.685,-10.5262,-10.64,0,0,0,0.6980000000039581
-0.1967,1.0329,-0.0457,0.1949,0.2037,0.0898,-6.3963,-10.3075,-8.855,0,0,0,0.6980000000039581
-0.1967,1.0329,-0.0457,0.1949,0.2037,0.0898,-6.2213,-10.5612,-8.1025,0,0,0,0.713000000003376
-0.1997,1.0237,-0.05,0.1951,0.2018,0.0822,-6.2213,-10.5612,-8.1025,0,0,0,0.713000000003376
-0.1903,1.0108,-0.0465,0.1951,0.2018,0.0822,-5.2762,-10.6225,-7.2888,0,0,0,0.7289999999993597
-0.1743,1.0039,-0.0464,0.1951,0.2018,0.0822,-3.99,-10.57,-6.125,0,0,0,0.7289999999993597
-0.1576,1.0048,-0.051,0.1931,0.2019,0.0818,-3.3425,-10.5175,-4.6375,0,0,0,0.7439999999987776
-0.1576,1.0048,-0.0537,0.1931,0.2019,0.0818,-3.3425,-10.5175,-4.6375,0,0,0,0.7439999999987776
-0.1405,1.0125,-0.0537,0.193,0.2006,0.0855,-2.1175,-10.1587,-2.6688,0,0,0,0.7600000000020373
-0.1194,1.019,-0.0539,0.193,0.2006,0.0855,-2.2487,-8.8813,-1.225,0,0,0,0.7600000000020373
-0.1092,1.0301,-0.0565,0.193,0.2006,0.0855,-0.0088,-7.385,0.0875,0,0,0,0.7760000000052969
-0.1025,1.0289,-0.0581,0.1916,0.2023,0.0936,-1.0588,-7.385,0.0875,0,0,0,0.7760000000052969
-0.1038,1.024,-0.054,0.1916,0.2023,0.0936,-0.6475,-5.9325,1.1638,0,0,0,0.7909999999974389
-0.1038,1.024,-0.054,0.1921,0.2008,0.0846,-0.7788,-4.2088,0.8225,-1.6842857635938373,-5.1230016634371,0.0,0.7909999999974389
-0.1055,1.0228,-0.0641,0.1921,0.2008,0.0846,-0.7788,-4.2088,0.8225,-2.745417704754595,-5.791878780045503,-0.06734080001371913,0.8070000000006985
-0.1026,1.0197,-0.0664,0.1921,0.2008,0.0846,-0.6388,-3.5438,0.175,-3.3176163370998037,-5.740732757786498,-0.06734080001371913,0.8070000000006985
-0.1033,1.0171,-0.0633,0.1915,0.2013,0.083,-0.7525,-2.7037,-0.7613,-3.4547933937093696,-5.781565356462461,-0.10789630001214537,0.8220000000001164
-0.1022,1.0096,-0.0673,0.1915,0.2013,0.083,-0.6913,-2.0387,-1.6888,-3.6609550531547854,-5.769776539390734,-0.10789630001214537,0.8220000000001164
-0.1022,1.0096,-0.0673,0.1904,0.2002,0.0854,-0.6913,-2.0387,-1.6888,-3.748693574143349,-5.767900635624908,-0.14051550001879076,0.838000000003376
-0.1002,1.0041,-0.0708,0.1904,0.2002,0.0854,-0.49,-1.54,-3.01,-3.921735756964345,-5.701469521993254,-0.14051550001879076,0.838000000003376
-0.1012,1.0028,-0.0743,0.1904,0.2012,0.0825,-0.0787,-0.5863,-3.5875,-4.130871678683147,-5.736607263634469,-0.149896300016436,0.8539999999993597
-0.0974,1.0028,-0.0763,0.1922,0.2012,0.0825,1.4262,0.1312,-3.8412,-4.301784234555023,-5.5813182147764175,-0.149896300016436,0.8539999999993597
-0.0918,1.0046,-0.0775,0.1922,0.2012,0.0825,1.4262,0.1312,-3.8412,-4.386825871122938,-5.296670897108905,-0.14792830001651236,0.8689999999987776
-0.0876,1.0103,-0.0792,0.1905,0.199,0.0818,1.6538,0.7437,-3.71,-4.462039225280368,-5.024019526743199,-0.14792830001651236,0.8689999999987776
-0.0876,1.0103,-0.0792,0.1905,0.199,0.0818,1.4525,1.4262,-3.9113,-4.477865456507851,-4.961035320841557,-0.12510910001186348,0.8850000000020373
-0.0879,1.0153,-0.0778,0.1902,0.1988,0.0886,1.5662,1.4875,-4.83,-4.40270963725216,-4.942379894091426,-0.12510910001186348,0.8850000000020373
-0.0877,1.0214,-0.0756,0.1902,0.1988,0.0886,1.5662,1.4875,-4.83,-4.2699050116673405,-4.909530151345799,-0.10279660001272932,0.9000000000014552
-0.0933,1.0257,-0.0706,0.1902,0.1988,0.0886,0.6475,2.5463,-5.6175,-4.0276315680370995,-5.0682029459978155,-0.10279660001272932,0.9000000000014552
-0.0959,1.0259,-0.0732,0.1903,0.2018,0.0809,-0.5075,2.835,-6.6762,-4.060086984268411,-5.127447005629879,-0.05743660000348827,0.9160000000047148
-0.0959,1.0259,-0.0732,0.1903,0.2018,0.0809,-1.6712,3.3688,-8.575,-4.065800839371061,-5.250280480667767,-0.0035358000170184825,0.9320000000006985
-0.1044,1.0269,-0.0712,0.1909,0.2015,0.0866,-1.6712,3.3688,-8.575,-4.038923725408493,-5.583323357389511,-0.0035358000170184825,0.9320000000006985
-0.1131,1.0233,-0.0631,0.1909,0.2015,0.0866,-3.15,4.0425,-10.465,-3.770564853897724,-6.136675001776053,0.05710169998062848,0.9470000000001164
-0.124,1.0131,-0.07,0.1909,0.2015,0.0866,-3.8325,4.4275,-12.3375,-3.8873642708963896,-6.832039503122271,0.05710169998062848,0.9470000000001164
-0.133,1.0072,-0.0668,0.1923,0.2033,0.0983,-3.8325,4.4275,-14.5775,-3.827729331052048,-7.427709320225621,0.1279416999950605,0.963000000003376
-0.1449,1.0036,-0.0711,0.1923,0.2033,0.0983,-3.8675,4.515,-13.8775,-3.9728774481131595,-8.098229350358407,0.1279416999950605,0.963000000003376
-0.1449,1.0036,-0.0711,0.1932,0.2038,0.0835,-3.7713,4.2613,-15.1988,-4.023239898449949,-8.18481813366027,0.1918611999925801,0.978000000002794
-0.151,0.9999,-0.0691,0.1932,0.2038,0.0835,-3.7362,3.4213,-16.52,-3.9792180225500946,-8.531223996658635,0.1918611999925801,0.978000000002794
-0.1591,0.9997,-0.0666,0.1932,0.2038,0.0835,-3.7362,3.4213,-16.52,-3.8736737465770434,-8.976361495525687,0.24660200000373228,0.9940000000060536
-0.1629,1.002,-0.0691,0.1959,0.2032,0.0922,-2.8175,3.0363,-17.1325,-3.9048451145128973,-9.191394534363136,0.24660200000373228,0.9940000000060536
-0.1691,1.0047,-0.0713,0.1959,0.2032,0.0922,-2.5812,2.4762,-17.78,-3.95900640327207,-9.501617250137551,0.28622119997577034,1.0099999999947613
-0.1691,1.0047,-0.0713,0.1998,0.2056,0.0926,-1.9338,1.89,-17.9025,-3.9687166008535995,-9.527917002347735,0.28622119997577034,1.0099999999947613
-0.1728,1.0096,-0.0722,0.1998,0.2056,0.0926,-1.9338,1.89,-17.9025,-3.9805063299084944,-9.674750250093982,0.31457119998842176,1.0250000000014552
-0.1781,1.0097,-0.0712,0.1998,0.2056,0.083,-2.2662,1.1375,-18.2175,-3.9902628518867096,-9.954305824936664,0.31457119998842176,1.0250000000014552
-0.1865,1.0077,-0.0751,0.1974,0.2075,0.083,-1.6625,0.1312,-18.095,-4.064921200101014,-10.415540430077014,0.31667039998884944,1.0410000000047148
-0.1926,1.0098,-0.0708,0.1974,0.2075,0.083,-0.9625,0.1312,-17.5175,-4.036739479098662,-10.74162696743189,0.31667039998884944,1.0410000000047148
-0.1926,1.0093,-0.0682,0.1983,0.2063,0.0809,-0.9625,0.1312,-17.5175,-3.947983701883425,-10.776307678041313,0.31863839998781845,1.0559999999968568
-0.1926,1.0093,-0.0682,0.1983,0.2063,0.0809,-1.225,-1.1463,-17.045,-3.9110053349683715,-10.779299645442686,0.31863839998781845,1.0559999999968568
-0.1948,1.0091,-0.0662,0.2021,0.2075,0.0875,-1.085,-1.995,-16.1175,-3.833972872305324,-10.891069288963191,0.2867183999813155,1.0720000000001164
-0.1995,1.0102,-0.0646,0.2021,0.2075,0.0875,-1.225,-1.9775,-15.33,-3.7553281452311187,-11.121562695891082,0.2867183999813155,1.0720000000001164
-0.2029,1.0167,-0.0601,0.2021,0.2075,0.0875,-1.225,-1.9775,-15.33,-3.5880135219940046,-11.251389231010123,0.2550783999892578,1.0879999999961
-0.204,1.019,-0.057,0.2037,0.2102,0.0838,-1.575,-2.1088,-15.015,-3.4651876364513945,-11.297763958459935,0.2550783999892578,1.0879999999961
-0.204,1.019,-0.057,0.2037,0.2102,0.0838,-2.73,-2.2487,-14.7963,-3.357675617941331,-11.302877042367559,0.22134789997420526,1.103000000002794
-0.2099,1.0218,-0.0578,0.2038,0.2102,0.084,-2.73,-2.2487,-14.7437,-3.308690265263245,-11.557520878980807,0.22134789997420526,1.103000000002794
-0.2142,1.0255,-0.0503,0.2038,0.2102,0.084,-3.3512,-2.3625,-14.7437,-3.0247693167175473,-11.758345390372865,0.18354789998369384,1.1189999999987776
-0.2217,1.0285,-0.0415,0.2038,0.2102,0.084,-4.585,-2.9225,-15.0588,-2.512140066951566,-12.111132917902518,0.18354789998369384,1.1189999999987776
-0.2266,1.026,-0.0376,0.2068,0.2139,0.0894,-5.67,-3.2375,-15.0588,-2.1880856243093136,-12.409312136301743,0.13498539998557832,1.1339999999981956
-0.2422,1.0245,-0.0381,0.2068,0.2139,0.0894,-5.67,-3.2375,-15.0588,-2.142378915445919,-13.194951421465825,0.13498539998557832,1.1339999999981956
-0.2347,1.0245,-0.0381,0.205,0.216,0.0854,-6.7025,-3.6575,-15.1812,-2.132008645785265,-12.927107848925512,0.07646539997365623,1.1500000000014552
-0.2416,1.023,-0.0373,0.205,0.216,0.0854,-6.9475,-4.3925,-15.6012,-2.0955826873734678,-13.242854503366381,0.07646539997365623,1.1500000000014552
-0.2477,1.0212,-0.0371,0.205,0.216,0.0854,-7.2625,-5.145,-15.3562,-2.083033079978371,-13.584779678809463,-0.00585460000567975,1.1659999999974389
-0.2533,1.0202,-0.04,0.2077,0.2152,0.0935,-7.2625,-5.145,-15.3562,-2.2192205605021216,-13.896261132197814,-0.00585460000567975,1.1659999999974389
-0.2554,1.0209,-0.0325,0.2077,0.2152,0.0935,-7.4725,-6.58,-15.54,-1.8849237259087022,-14.023772175348602,-0.10455460004972549,1.1810000000041327
-0.2554,1.0209,-0.0325,0.2079,0.2168,0.0806,-7.1137,-7.8925,-16.0475,-1.8335108762066064,-14.037178961054304,-0.10455460004972549,1.1810000000041327
-0.2561,1.017,-0.0348,0.2079,0.2168,0.0806,-6.7288,-8.6363,-15.6975,-1.9375954590125086,-14.117188522173246,-0.2427354000150393,1.1970000000001164
-0.2564,1.0143,-0.0329,0.2079,0.2168,0.101,-6.7288,-8.6363,-15.6975,-1.8718325010812438,-14.172805439603541,-0.2427354000150393,1.1970000000001164
-0.2574,1.0157,-0.034,0.2102,0.2166,0.093,-6.475,-9.905,-15.4,-1.908874695807499,-14.208692153761236,-0.3913104000092738,1.2119999999995343
-0.2563,1.0169,-0.0304,0.2102,0.2166,0.093,-5.4775,-10.745,-15.0325,-1.7566356207102758,-14.147727159609724,-0.3913104000092738,1.2119999999995343
-0.2563,1.0129,-0.0334,0.2099,0.2181,0.0846,-4.97,-11.2525,-14.3763,-1.8550293828261393,-14.18711302770772,-0.5713504000459528,1.228000000002794
-0.2533,1.0129,-0.0334,0.2099,0.2181,0.0846,-4.97,-11.2525,-14.3763,-1.8800725142396146,-14.05126130895506,-0.7513904000007591,1.2439999999987776
-0.2562,1.012,-0.035,0.2123,0.2181,0.0904,-4.6638,-11.6812,-14.6038,-1.9529843637179747,-14.181427658491714,-0.7513904000007591,1.2439999999987776
-0.2553,1.0099,-0.0313,0.2123,0.2181,0.0904,-3.9025,-11.76,-13.8337,-1.8373365263464905,-14.180579330658489,-0.9277904000794791,1.2590000000054715
-0.2539,1.0073,-0.0317,0.2123,0.2181,0.0904,-2.905,-11.6637,-13.09,-1.8211980168884105,-14.146178354365484,-0.9277904000794791,1.2590000000054715
-0.2521,1.0084,-0.0323,0.2111,0.2238,0.0976,-2.905,-11.6637,-13.09,-1.8274148204303204,-14.045750904059826,-1.1144096000326338,1.2750000000014552
-0.2521,1.0084,-0.0323,0.2111,0.2238,0.0976,-2.135,-11.935,-12.0837,-1.8280329218470845,-14.032019612942435,-1.1144096000326338,1.2750000000014552
-0.2533,1.0138,-0.0321,0.2125,0.2217,0.0957,-1.3737,-11.4888,-11.375,-1.8222375990994006,-14.023459649678493,-1.2867416000259464,1.2900000000008731
-0.2481,1.0157,-0.0317,0.2125,0.2217,0.0957,-1.3737,-11.4888,-10.6313,-1.8083827929337766,-13.78525609980245,-1.2867416000259464,1.2900000000008731
-0.2487,1.0196,-0.0342,0.2125,0.2217,0.0957,-0.6475,-10.5525,-10.6313,-1.8740233264997068,-13.7186575682855,-1.4555816000603436,1.3060000000041327
-0.2491,1.0197,-0.0337,0.2124,0.2214,0.0986,-0.0613,-9.835,-9.9838,-1.8865487531844156,-13.720098447577653,-1.4555816000603436,1.3060000000041327
-0.2452,1.0185,-0.0367,0.2124,0.2214,0.0986,-0.35,-9.5025,-9.555,-1.9978494944259806,-13.581411333499288,-1.6076216000221786,1.3220000000001164
-0.2452,1.0185,-0.0367,0.2139,0.2221,0.0955,-0.35,-9.5025,-9.555,-2.0392094287118985,-13.542692032890564,-2.044736600042091,1.368000000002212
-0.2379,1.0186,-0.0368,0.2139,0.2221,0.0955,0.0875,-7.9887,-8.0937,-2.0595343074310497,-13.328757339132547,-2.172555800010006,1.3839999999981956
-0.2356,1.0198,-0.035,0.2139,0.2221,0.0955,0.2887,-6.51,-6.8162,-1.9938427734640025,-13.284320173942257,-2.172555800010006,1.3839999999981956
-0.2298,1.0245,-0.0388,0.2139,0.2206,0.1018,0.6913,-5.3812,-5.9237,-2.12198007545027,-12.951154705940171,-2.172555800010006,1.3839999999981956
-0.2298,1.0258,-0.0336,0.2139,0.2206,0.1018,0.6913,-5.3812,-5.9237,-1.9419404869867314,-12.781783656576577,-2.172555800010006,1.3839999999981956
-0.2298,1.0258,-0.0336,0.2109,0.2213,0.0962,-0.3588,-4.305,-4.725,-1.9006143943935212,-12.670079282901305,-2.172555800010006,1.3839999999981956
-0.2308,1.0205,-0.0389,0.2109,0.2213,0.0962,-0.665,-2.8263,-3.7713,-2.064138483536593,-12.719458181193684,-2.172555800010006,1.3839999999981956
-0.239,1.02,-0.0398,0.2109,0.2213,0.0962,-0.7,-1.8813,-3.5963,-2.1617423752397804,-13.072929873697955,-2.2026566000161383,1.4000000000014552
-0.2419,1.0185,-0.0398,0.2123,0.2231,0.1021,-0.7,-1.8813,-3.5963,-2.205318362163626,-13.287257208319444,-2.2026566000161383,1.4000000000014552
-0.2416,1.0197,-0.0445,0.2123,0.2231,0.1021,-0.8313,-1.4175,-3.5,-2.36599677962527,-13.31051282172091,-2.2026566000161383,1.4000000000014552
-0.2416,1.0194,-0.0394,0.2137,0.2219,0.0954,-0.3675,-0.4288,-3.64,-2.270471204349936,-13.320596228151649,-2.2026566000161383,1.4000000000014552
-0.2385,1.0194,-0.0394,0.2137,0.2219,0.0954,-0.1925,-0.4638,-3.745,-2.233429392681936,-13.196951338845354,-2.209613600015868,1.4150000000008731
-0.2384,1.0211,-0.0346,0.213,0.2229,0.099,-0.1925,-0.4638,-3.745,-2.0434822935756607,-13.149173281091494,-2.209613600015868,1.4150000000008731
-0.2377,1.0176,-0.0398,0.213,0.2229,0.099,-0.2362,-0.2537,-3.99,-2.169800792437141,-13.14096142288868,-2.2136728000148493,1.4309999999968568
-0.2334,1.0182,-0.04,0.213,0.2229,0.099,-0.2187,-0.35,-3.9638,-2.2213958526024853,-12.960949721206031,-2.2136728000148493,1.4309999999968568
-0.2307,1.0158,-0.0348,0.2126,0.2213,0.0882,-0.6737,-0.0263,-3.6312,-2.0716380973529906,-12.828012340611172,-2.2140673000150253,1.4460000000035507
-0.2307,1.0158,-0.0348,0.2126,0.2213,0.0882,-0.6737,-0.0263,-3.6312,-2.008377849829414,-12.797395293716269,-2.2140673000150253,1.4460000000035507
-0.2292,1.0157,-0.0289,0.213,0.2214,0.096,-0.9538,0.1838,-3.4562,-1.811185232175656,-12.73031435243335,-2.2111265000157636,1.4619999999995343
-0.2288,1.0097,-0.0302,0.213,0.2214,0.096,-1.4963,0.6125,-3.5087,-1.7766316078819377,-12.755054829959196,-2.2111265000157636,1.4619999999995343
-0.2307,1.0054,-0.0303,0.213,0.2214,0.096,-1.4963,0.6125,-3.78,-1.7588529420017307,-12.878955232826124,-2.201326500013767,1.478000000002794
-0.2288,1.0022,-0.0252,0.212,0.2224,0.0889,-2.0475,0.945,-3.78,-1.7568050431812572,-12.861603832200338,-2.201326500013767,1.478000000002794
-0.2288,0.9993,-0.027,0.212,0.2224,0.0889,-1.785,0.6212,-3.99,-1.714179799819438,-12.884088116133572,-2.1920085000141287,1.493000000002212
-0.2297,0.9993,-0.027,0.2123,0.2211,0.0972,-1.225,0.6388,-3.8937,-1.6393694081797465,-12.92677089036888,-2.1920085000141287,1.493000000002212
-0.2265,0.9972,-0.027,0.2123,0.2211,0.0972,-1.225,0.6388,-3.8937,-1.5996387298728683,-12.82524937755112,-2.1817877000166943,1.5089999999981956
-0.2317,0.9982,-0.0283,0.2123,0.2211,0.0972,-0.6125,0.9887,-4.1213,-1.6139448631557736,-13.001192873038226,-2.1817877000166943,1.5089999999981956
-0.2294,1.0002,-0.0254,0.2135,0.2211,0.096,-0.2713,1.295,-4.235,-1.5122006022252266,-12.937024469440267,-2.1623627000080257,1.5240000000048894
-0.2277,1.0007,-0.0253,0.2135,0.2211,0.096,-0.3063,1.0938,-4.585,-1.4716414187000129,-12.850949132884145,-2.1623627000080257,1.5240000000048894
-0.2277,1.0007,-0.0253,0.2128,0.2225,0.0909,-0.3063,1.0938,-4.585,-1.4568102605280797,-12.825544239179598,-2.144861900012419,1.5400000000008731
-0.2272,1.0024,-0.0309,0.2128,0.2225,0.0909,0.7613,1.7413,-4.5937,-1.6844199419145403,-12.782773282184014,-2.144861900012419,1.5400000000008731
-0.227,1.005,-0.0308,0.2128,0.2225,0.0909,0.7788,1.7062,-4.3488,-1.736803918163612,-12.738823702936221,-2.1124441000120218,1.559000000001106
-0.228,1.0088,-0.0336,0.2126,0.2202,0.0952,1.2687,1.6888,-4.7512,-1.868000013378965,-12.731830918230054,-2.1124441000120218,1.559000000001106
-0.2298,1.0069,-0.0315,0.2126,0.2202,0.0952,1.2687,1.6888,-4.7512,-1.809530654197965,-12.813373529996117,-2.087112100013005,1.5740000000005239
-0.2298,1.0069,-0.0304,0.2111,0.2219,0.0895,1.5575,1.0938,-4.3837,-1.7467707959673973,-12.840148930683,-2.087112100013005,1.5740000000005239
-0.2267,1.0136,-0.0304,0.2111,0.2219,0.0895,0.98,0.7962,-4.445,-1.7250846061291343,-12.669288254704687,-2.074372900016203,1.5899999999965075
-0.2309,1.0143,-0.0328,0.2114,0.221,0.0993,0.9538,1.1463,-4.9262,-1.8203507730461463,-12.7692268802029,-2.074372900016203,1.5899999999965075
-0.2308,1.0164,-0.0359,0.2114,0.221,0.0993,0.9538,1.1463,-4.9262,-1.9721884247236474,-12.78038382660591,-2.05717840000853,1.6050000000032014
-0.23,1.0157,-0.0372,0.2114,0.221,0.0993,1.435,0.6125,-4.9788,-2.069519136425507,-12.760735014669322,-2.05717840000853,1.6050000000032014
-0.2291,1.012,-0.0383,0.212,0.222,0.0948,1.365,-0.0175,-5.2587,-2.1451639726973446,-12.752045852660801,-2.0574584000085867,1.621000000006461
-0.2291,1.012,-0.0383,0.212,0.222,0.0948,1.365,2.2225,-5.3725,-2.162332460113184,-12.748926467286719,-2.0574584000085867,1.621000000006461
-0.2302,1.0117,-0.04,0.213,0.2209,0.0956,2.065,0.0088,-5.3725,-2.2442073919637484,-12.78591899651794,-2.057317600008622,1.6370000000024447
-0.2317,1.0128,-0.0422,0.213,0.2209,0.0956,2.6163,-0.5775,-4.4363,-2.360890394038744,-12.849891255676475,-2.057317600008622,1.6370000000024447
-0.2324,1.0185,-0.0377,0.213,0.2209,0.0956,2.7825,-1.19,-4.27,-2.1612391246184073,-12.84640139080452,-2.0751676000079295,1.6520000000018626
-0.2271,1.0203,-0.0426,0.2127,0.2197,0.0959,2.7825,-1.19,-4.27,-2.3514211405381396,-12.621171490622062,-2.0751676000079295,1.6520000000018626
-0.2271,1.0203,-0.0415,0.2127,0.2197,0.0959,2.7738,-0.9712,-4.1213,-2.333006956184663,-12.559880289985234,-2.0907068000040288,1.6679999999978463
-0.2273,1.021,-0.0415,0.2122,0.2186,0.0932,3.1237,-0.9712,-4.2613,-2.3284664782273494,-12.545913616411251,-2.0907068000040288,1.6679999999978463
-0.2264,1.0211,-0.0449,0.2122,0.2186,0.0932,2.8263,-1.2075,-3.9288,-2.4855298767451037,-12.50366354086015,-2.1088193000121116,1.6830000000045402
-0.2252,1.0228,-0.0507,0.2122,0.2186,0.0932,2.8263,-1.2075,-3.9288,-2.777775658147362,-12.42750884611207,-2.1088193000121116,1.6830000000045402
-0.2266,1.0242,-0.0504,0.2116,0.2194,0.089,2.66,-2.1437,-4.0862,-2.810287537445499,-12.452295246186845,-2.143118500003502,1.6990000000005239
-0.2256,1.0229,-0.0493,0.2116,0.2194,0.089,2.485,-1.6538,-3.9462,-2.7685346975466314,-12.430627277001678,-2.16957929999686,1.7149999999965075
-0.2256,1.0229,-0.0493,0.2115,0.221,0.0962,2.0912,-1.8988,-4.55,-2.7611071213072385,-12.425560074711866,-2.16957929999686,1.7149999999965075
-0.2256,1.0194,-0.0497,0.2115,0.221,0.0962,2.0912,-1.8988,-4.55,-2.78533487310494,-12.453100970634791,-2.19806130000957,1.7300000000032014
-0.2245,1.0193,-0.0512,0.2115,0.221,0.0962,1.3212,-2.0038,-4.0862,-2.8548934556131695,-12.418029066051302,-2.21008409999744,1.7359999999971478
-0.2233,1.0169,-0.0521,0.2114,0.2209,0.0887,1.2687,-1.61,-3.9987,-2.9148273050465603,-12.381507482804995,-2.21008409999744,1.7359999999971478
-0.2233,1.0165,-0.0555,0.2114,0.2209,0.0887,1.435,-1.4,-3.9638,-3.0781968989890043,-12.374234089079849,-2.2324841000020035,1.7520000000004075
-0.2233,1.0165,-0.0521,0.2114,0.2198,0.0922,1.435,-1.4,-3.9638,-2.9662835631941875,-12.374008935626518,-2.2324841000020035,1.7520000000004075
-0.2222,1.0132,-0.0521,0.2114,0.2198,0.0922,0.8925,-1.68,-3.9288,-2.9493871394605806,-12.358661860092797,-2.2576841000010255,1.7669999999998254
-0.2214,1.013,-0.0546,0.212,0.2191,0.0917,0.7,-2.52,-4.0163,-3.0489092574406276,-12.323273203948006,-2.2576841000010255,1.7669999999998254
-0.22,1.0121,-0.0517,0.212,0.2191,0.0917,0.7175,-1.8463,-4.025,-2.9574068362479142,-12.267149204178596,-2.2872249000070437,1.783000000003085
-0.2208,1.0124,-0.0545,0.212,0.2191,0.0917,0.7175,-1.8463,-4.025,-3.048409797912056,-12.281265188369227,-2.2872249000070437,1.783000000003085
-0.2187,1.0157,-0.0542,0.2106,0.2185,0.095,0.2275,-2.0738,-3.8063,-3.0526592821567817,-12.169816044655965,-2.3204056999987146,1.7989999999990687
-0.2187,1.0157,-0.0542,0.2106,0.2185,0.095,0.105,-2.6075,-3.7975,-3.0539370880296497,-12.143051563506676,-2.3204056999987146,1.7989999999990687
-0.2197,1.0149,-0.0563,0.2112,0.2194,0.095,0.105,-2.6075,-4.0075,-3.1366143221185916,-12.182960945120028,-2.359518199997197,1.8139999999984866
-0.2184,1.0161,-0.0571,0.2112,0.2194,0.095,0.5425,-2.1875,-4.0075,-3.1941125139606696,-12.129910224001076,-2.359518199997197,1.8139999999984866
-0.2214,1.0143,-0.0588,0.2112,0.2194,0.095,0.3413,-2.7213,-4.1737,-3.281217992210537,-12.250296051973175,-2.4030590000060674,1.8300000000017462
-0.2176,1.0149,-0.0589,0.213,0.2208,0.0959,0.735,-2.5025,-4.5763,-3.310795890111143,-12.131249256230818,-2.4030590000060674,1.8300000000017462
-0.2176,1.0149,-0.0589,0.213,0.2208,0.0959,0.735,-2.5025,-4.5763,-3.3186289617675517,-12.096202920300263,-2.440596500004611,1.8450000000011642
-0.2137,1.0147,-0.0605,0.2092,0.2191,0.0924,0.595,-2.8263,-4.9612,-3.386420164287291,-11.946733412192698,-2.440596500004611,1.8450000000011642
-0.2135,1.0123,-0.0607,0.2092,0.2191,0.0924,0.3063,-3.1325,-5.0662,-3.4180236763214085,-11.908686818566508,-2.4907164999920295,1.8609999999971478
-0.2086,1.0127,-0.06,0.2092,0.2191,0.0924,-0.14,-2.7738,-4.5325,-3.4000997596641938,-11.703480004759472,-2.4907164999920295,1.8609999999971478
-0.2084,1.0135,-0.0536,0.211,0.2193,0.0891,-0.14,-2.7738,-4.5325,-3.155823448303587,-11.632673082677616,-2.535097300001071,1.8770000000004075
-0.2073,1.0131,-0.0556,0.211,0.2193,0.0891,-0.6212,-2.17,-3.7538,-3.1473028732605135,-11.567528423924905,-2.535097300001071,1.8770000000004075
-0.2073,1.0131,-0.0556,0.213,0.219,0.093,-0.7788,-2.0125,-3.4475,-3.143954494289729,-11.551764296805302,-2.5652847999999,1.8919999999998254
-0.2101,1.013,-0.0581,0.213,0.219,0.093,-0.9013,-1.82,-3.045,-3.2177873322192068,-11.6687564017646,-2.5652847999999,1.8919999999998254
-0.2082,1.0117,-0.0592,0.213,0.219,0.093,-0.9013,-1.82,-3.045,-3.287605970177518,-11.62141423126477,-2.594404800005832,1.908000000003085
-0.2101,1.0136,-0.0558,0.2114,0.2191,0.0906,-0.42,-1.5313,-3.3075,-3.2031357039604003,-11.677870842523514,-2.594404800005832,1.908000000003085
-0.2097,1.0151,-0.0544,0.2114,0.2191,0.0906,-1.0063,-1.4088,-3.0013,-3.1342066576055636,-11.660193940475517,-2.6155367999947616,1.922999999995227
-0.2097,1.0151,-0.0544,0.2088,0.2171,0.0902,-0.5075,-1.015,-3.6137,-3.093884657146655,-11.656764284218296,-2.6155367999947616,1.922999999995227
-0.2065,1.0148,-0.0534,0.2088,0.2171,0.0902,-0.5075,-1.015,-3.6137,-3.0444383355627838,-11.525568681417353,-2.6317767999980703,1.9389999999984866
-0.2095,1.014,-0.0556,0.2088,0.2171,0.0902,-0.7788,-1.3737,-4.3663,-3.0969314867384936,-11.620167844932315,-2.6317767999980703,1.9389999999984866
-0.2077,1.011,-0.0523,0.2097,0.2174,0.1015,-0.9363,-0.9538,-4.515,-3.025754950026167,-11.601740161413067,-2.648945200001568,1.9570000000021537
-0.2098,1.013,-0.0483,0.2097,0.2174,0.1015,-0.9363,-0.9538,-5.0925,-2.8704166685340113,-11.65808941929254,-2.648945200001568,1.9570000000021537
-0.2098,1.0125,-0.0506,0.2105,0.2195,0.0935,-0.8662,-0.5775,-5.0925,-2.86532662655913,-11.68048527212442,-2.657607700001232,1.9720000000015716
-0.2103,1.0125,-0.0506,0.2105,0.2195,0.0935,-0.525,-0.6825,-5.4163,-2.8627160356117702,-11.704234705764055,-2.657607700001232,1.9720000000015716
-0.2108,1.015,-0.0529,0.2107,0.2186,0.0872,-0.8225,-0.6562,-5.705,-2.929032017787895,-11.711486790256599,-2.668106899998597,1.9879999999975553
-0.2117,1.0139,-0.0525,0.2107,0.2186,0.0872,-0.8225,-0.6562,-5.705,-2.948316631047017,-11.74892593068512,-2.668106899998597,1.9879999999975553
-0.212,1.0162,-0.0483,0.2107,0.2186,0.0872,-1.5137,-0.875,-5.9412,-2.869909273275585,-11.760203299508325,-2.681231900004454,2.003000000004249
-0.2126,1.0134,-0.0487,0.2121,0.2177,0.0886,-0.945,-1.0325,-5.9412,-2.8078835368517123,-11.798148133811969,-2.681231900004454,2.003000000004249
-0.2126,1.0134,-0.0487,0.2121,0.2177,0.0886,-1.5575,-1.0237,-6.2475,-2.789438642978846,-11.8136102605744,-2.6976111000003424,2.019000000000233
-0.2142,1.0125,-0.0496,0.2114,0.2178,0.097,-1.5575,-1.0237,-6.2475,-2.7943618959459786,-11.863064792749762,-2.6976111000003424,2.019000000000233
-0.2137,1.0125,-0.0463,0.2114,0.2178,0.097,-1.3388,-0.805,-5.9237,-2.721697298092885,-11.885021469246794,-2.7104911000029666,2.0350000000034925
-0.2144,1.011,-0.0417,0.2114,0.2178,0.097,-1.645,-0.7,-6.16,-2.6196291690002536,-11.920125178700058,-2.7104911000029666,2.0350000000034925
-0.2169,1.011,-0.0439,0.2109,0.2191,0.0938,-1.7587,-0.42,-6.265,-2.5902865813936247,-11.993711341789156,-2.716791099999666,2.0499999999956344
-0.2169,1.0083,-0.0448,0.2109,0.2191,0.0938,-1.7587,-0.42,-6.265,-2.5801063586212347,-12.049607897154328,-2.7235111000010352,2.065999999998894
-0.2214,1.0083,-0.0448,0.2102,0.2194,0.0941,-1.6975,-0.63,-6.4837,-2.5708866170240263,-12.15571141070825,-2.7235111000010352,2.065999999998894
-0.2247,1.0111,-0.0451,0.2102,0.2194,0.0941,-1.0588,-1.295,-7.105,-2.5625085047924765,-12.197842288427603,-2.7429361000002817,2.080999999998312
-0.2197,1.0145,-0.0434,0.2102,0.2194,0.0941,-0.7875,-1.4088,-7.1225,-2.4997042908110756,-12.19922046557643,-2.7429361000002817,2.080999999998312
-0.2167,1.0122,-0.0476,0.2115,0.2203,0.0944,-0.7875,-1.4088,-7.1225,-2.606904759409329,-12.182556133228948,-2.765476900004874,2.0970000000015716
-0.2154,1.0135,-0.0461,0.2115,0.2203,0.0944,-0.7962,-1.3038,-7.105,-2.605492087985969,-12.159722305928312,-2.765476900004874,2.0970000000015716
-0.2154,1.0135,-0.0461,0.212,0.2185,0.0953,-1.3563,-1.0412,-6.4575,-2.605030855269652,-12.100808621798224,-2.782136100008268,2.1130000000048312
-0.2153,1.0171,-0.0434,0.212,0.2185,0.0953,-1.47,-0.84,-6.265,-2.5462633376856734,-12.034722902294396,-2.782136100008268,2.1130000000048312
-0.2144,1.0147,-0.0428,0.212,0.2185,0.0953,-1.47,-0.84,-6.265,-2.498662161650319,-11.987358498427025,-2.7947361000016673,2.127999999996973
-0.2147,1.0129,-0.0433,0.2106,0.2206,0.0905,-1.7237,-1.0063,-6.09,-2.486415103669498,-11.973119760894251,-2.7947361000016673,2.127999999996973
-0.2202,1.0125,-0.0434,0.2106,0.2206,0.0905,-1.75,-0.5075,-5.5388,-2.4792060687612536,-12.141440695305956,-2.8028561000033214,2.144000000000233
-0.2202,1.0128,-0.0447,0.2122,0.2191,0.0953,-1.75,-0.5075,-5.5388,-2.490005481501489,-12.208123843513146,-2.8028561000033214,2.144000000000233
-0.2232,1.0128,-0.0447,0.2122,0.2191,0.0953,-1.3125,-0.945,-5.565,-2.505645425509279,-12.329926699192217,-2.8170311000027715,2.1589999999996508
-0.2266,1.0125,-0.0439,0.2116,0.2199,0.0902,-0.6475,-1.5662,-5.9675,-2.4922729724251744,-12.467146641229313,-2.8170311000027715,2.1589999999996508
-0.2261,1.0152,-0.0431,0.2116,0.2199,0.0902,-0.2713,-1.1988,-5.6875,-2.4531317281984446,-12.510799578841338,-2.836211900006679,2.1750000000029104
-0.2231,1.0205,-0.0425,0.2116,0.2199,0.0902,-0.2713,-1.1988,-5.6875,-2.4094558199461042,-12.40433990819154,-2.836211900006679,2.1750000000029104
-0.2217,1.0224,-0.037,0.2114,0.2182,0.096,-0.105,-1.4088,-5.9763,-2.187327205130834,-12.315807422258372,-2.858752700011271,2.19100000000617
-0.2217,1.0224,-0.037,0.2114,0.2182,0.096,-0.77,-1.855,-5.7488,-2.12311382912365,-12.26692214651544,-2.858752700011271,2.19100000000617
-0.2234,1.0208,-0.0417,0.2127,0.218,0.0962,-0.2275,-1.8725,-5.7663,-2.262429614934998,-12.303862520362468,-2.886840199996557,2.205999999998312
-0.2245,1.0202,-0.0436,0.2127,0.218,0.0962,-0.2275,-1.8725,-5.7663,-2.381492073489087,-12.356136197592045,-2.886840199996557,2.205999999998312
-0.225,1.0185,-0.0395,0.2127,0.218,0.0962,-0.8487,-1.9162,-6.2038,-2.294185482451091,-12.39618665501874,-2.917499400002803,2.2220000000015716
-0.2277,1.0106,-0.0406,0.2122,0.2202,0.0949,-1.6975,-1.8112,-6.3525,-2.29581853946137,-12.507739510928355,-2.917499400002803,2.2220000000015716
-0.2277,1.0085,-0.0431,0.2122,0.2202,0.0949,-1.925,-1.855,-6.1775,-2.311551275566527,-12.59812897236672,-2.9453244000017236,2.2370000000009895
-0.2261,1.0085,-0.0431,0.2121,0.22,0.0928,-1.925,-1.855,-6.1775,-2.3256483556623277,-12.610161829801019,-2.9453244000017236,2.2370000000009895
-0.2261,1.0055,-0.0376,0.2121,0.22,0.0928,-1.05,-2.0825,-6.23,-2.234008759254774,-12.633267775964576,-2.9786444000085117,2.253000000004249
-0.2236,1.0084,-0.0362,0.2121,0.22,0.0928,-0.98,-2.0912,-5.9062,-2.142341626252602,-12.56165693604614,-2.9786444000085117,2.253000000004249
-0.2205,1.008,-0.0379,0.212,0.2201,0.094,-1.4875,-1.785,-6.1775,-2.1462324300378697,-12.45929492919259,-3.0072044000013425,2.269000000000233
-0.221,1.0086,-0.0364,0.212,0.2201,0.094,-1.4875,-1.785,-6.1775,-2.1179611350184,-12.411435302325819,-3.0072044000013425,2.269000000000233
-0.221,1.0086,-0.0364,0.2114,0.221,0.099,-1.3737,-2.03,-5.3987,-2.097519086616203,-12.374648161074001,-3.037654400000161,2.2839999999996508
-0.2216,1.0097,-0.0345,0.2114,0.221,0.099,-0.91,-1.6363,-4.97,-2.022914751738536,-12.372558304612152,-3.037654400000161,2.2839999999996508
-0.225,1.0106,-0.0377,0.2114,0.221,0.099,-0.91,-1.6363,-5.2238,-2.083148283103119,-12.481113659289969,-3.0638352000054945,2.3000000000029104
-0.2233,1.0114,-0.0371,0.2118,0.2215,0.0879,-1.5662,-1.6013,-5.2238,-2.0888223186802577,-12.456290099357432,-3.0638352000054945,2.3000000000029104
-0.2244,1.0121,-0.0387,0.2118,0.2215,0.0879,-1.295,-1.7325,-5.6,-2.1319546986958775,-12.477177945463962,-3.0898226999918803,2.3149999999950523
-0.2244,1.0277,-0.0375,0.2115,0.2202,0.0959,-1.1375,-1.3475,-5.3113,-2.111923135010427,-12.372407369248439,-3.0898226999918803,2.3149999999950523
-0.2275,1.015,-0.0375,0.2115,0.2202,0.0959,-1.1375,-1.3475,-5.3113,-2.113799768850314,-12.530121443168547,-3.111382699996273,2.330999999998312
-0.2259,1.0133,-0.0326,0.2126,0.2199,0.0978,-1.3825,-1.2862,-5.3812,-2.0061543248700646,-12.549347432016495,-3.1319619000004653,2.3470000000015716
-0.2237,1.0124,-0.0395,0.2126,0.2199,0.0978,-0.8138,-1.5137,-5.6962,-2.1318818622510594,-12.494024847431893,-3.1319619000004653,2.3470000000015716
-0.2232,1.016,-0.0399,0.2126,0.2199,0.0978,-0.7175,-0.9975,-5.74,-2.198562980321693,-12.431587985265836,-3.1469243999998846,2.3620000000009895
-0.2222,1.02,-0.0387,0.2122,0.221,0.0958,-0.7175,-0.9975,-5.74,-2.18390328719701,-12.348391058902896,-3.1469243999998846,2.3620000000009895
-0.2222,1.02,-0.0387,0.2122,0.221,0.0958,-1.575,-0.9975,-5.7137,-2.1803823239523603,-12.310783809871229,-3.162884400003136,2.378000000004249
-0.2231,1.0188,-0.0354,0.2113,0.2219,0.0949,-1.82,-1.1812,-5.5037,-2.145927329002604,-12.330913366306415,-3.162884400003136,2.378000000004249
-0.2233,1.014,-0.0371,0.2113,0.2219,0.0949,-1.0938,-1.2862,-5.5213,-2.1213435685527764,-12.378471283193603,-3.182177399993029,2.392999999996391
-0.2274,1.0089,-0.0389,0.2113,0.2219,0.0949,-1.0938,-1.2862,-5.5213,-2.163522198625855,-12.564564952801119,-3.182177399993029,2.392999999996391
-0.228,1.0053,-0.0378,0.2126,0.2222,0.0942,-1.1113,-1.19,-5.6613,-2.158620308293341,-12.680950766150165,-3.2012173999969082,2.4089999999996508
-0.228,1.0053,-0.0342,0.2126,0.2222,0.0942,-0.7088,-1.4787,-5.5037,-2.0385562784435014,-12.734684622660913,-3.2012173999969082,2.4089999999996508
-0.2261,1.0063,-0.0342,0.213,0.2217,0.0956,-0.035,-1.3475,-5.425,-1.9771230912371087,-12.686942673795894,-3.222777399991496,2.4249999999956344
-0.2222,1.0083,-0.0368,0.213,0.2217,0.0956,-0.035,-1.3475,-5.425,-2.052583665996626,-12.524562919161301,-3.222777399991496,2.4249999999956344
-0.2193,1.0125,-0.034,0.213,0.2217,0.0956,0.315,-1.1375,-5.2762,-1.9618113927159069,-12.329399783407188,-3.2398398999991103,2.4400000000023283
-0.2172,1.0119,-0.0339,0.2143,0.2213,0.0931,0.2187,-1.0762,-5.1188,-1.931972202668835,-12.185491021340113,-3.2398398999991103,2.4400000000023283
-0.2173,1.0133,-0.032,0.2143,0.2213,0.0931,0.3413,-0.7437,-4.9963,-1.8452155407772344,-12.127247824598747,-3.2517391000015343,2.456000000005588
-0.2173,1.0133,-0.032,0.2142,0.2207,0.0999,0.3413,-0.7437,-4.9963,-1.8195655559467863,-12.107682380456177,-3.2517391000015343,2.456000000005588
-0.2164,1.0153,-0.0337,0.2142,0.2207,0.0999,-0.0962,-0.455,-4.8038,-1.8733946560741075,-12.05142625265978,-3.258564099997959,2.47099999999773
-0.217,1.015,-0.035,0.2142,0.2207,0.0999,-0.3325,-0.5163,-5.1975,-1.9374452513757545,-12.057429658727674,-3.258564099997959,2.47099999999773
-0.2198,1.0105,-0.0376,0.2134,0.2198,0.105,-0.3325,-0.5163,-5.5825,-2.059509049075865,-12.177225922074921,-3.266824899999642,2.4870000000009895
-0.2189,1.0107,-0.0326,0.2134,0.2198,0.105,-0.2013,-0.4288,-5.5825,-1.9221113113912824,-12.198826198427282,-3.266824899999642,2.4870000000009895
-0.2189,1.0107,-0.0352,0.2142,0.2231,0.0894,0.2362,-0.315,-5.4163,-1.9725184871734862,-12.207662167125731,-3.271864899998377,2.502999999996973
-0.2222,1.0099,-0.0352,0.2142,0.2231,0.0894,-0.2537,-0.1312,-5.3375,-1.987724777597952,-12.327838184827689,-3.271864899998377,2.502999999996973
-0.2245,1.0094,-0.0395,0.2142,0.2217,0.0917,-0.2537,-0.1312,-5.3375,-2.150110284216879,-12.453134152998382,-3.273832899999255,2.518000000003667
-0.223,1.0113,-0.037,0.2142,0.2217,0.0917,0.3413,-0.3063,-6.1863,-2.1115200879844203,-12.44168585986581,-3.273832899999255,2.518000000003667
-0.2222,1.0147,-0.0367,0.2142,0.2217,0.0917,0.595,-0.5337,-5.95,-2.082426428024706,-12.3922301514568,-3.2823721000009947,2.5340000000069267
-0.2203,1.0168,-0.0381,0.2133,0.2207,0.0927,1.0063,-0.2975,-5.425,-2.130215153649078,-12.285432756611485,-3.2823721000009947,2.5340000000069267
-0.2203,1.0168,-0.0381,0.2133,0.2207,0.0927,1.0063,-0.2975,-5.425,-2.1420226290067395,-12.243520854264943,-3.286834599998657,2.5489999999990687
-0.2251,1.0161,-0.0408,0.2124,0.2212,0.0986,0.3588,-0.5075,-5.285,-2.2531048700628133,-12.392936675744362,-3.286834599998657,2.5489999999990687
-0.2281,1.0143,-0.0411,0.2124,0.2212,0.0986,0.6388,0.0,-5.0925,-2.3021032788493003,-12.56990760394259,-3.286834599998657,2.5650000000023283
-0.2333,1.0162,-0.0414,0.2124,0.2212,0.0986,0.98,-0.035,-4.4975,-2.3252715905630508,-12.818982732879547,-3.286834599998657,2.5650000000023283
-0.237,1.0192,-0.0404,0.2129,0.2188,0.101,0.98,-0.035,-4.4975,-2.283711939909192,-13.005423718750482,-3.287394599998516,2.580999999998312
-0.237,1.0192,-0.0561,0.2129,0.2188,0.101,1.015,-0.4288,-3.4562,-2.93684316431168,-13.05690799864077,-3.287394599998516,2.580999999998312
-0.2402,1.0182,-0.0476,0.2118,0.2214,0.094,0.3938,-0.5863,-2.5025,-2.752352613257108,-13.222706439451496,-3.2961890999981747,2.59599999999773
-0.2405,1.02,-0.0469,0.2118,0.2214,0.094,1.1638,-0.4288,-1.89,-2.661101250232369,-13.248539634867154,-3.2961890999981747,2.59599999999773
-0.2383,1.0213,-0.046,0.2118,0.2214,0.094,1.1638,-0.4288,-1.89,-2.5984456758685446,-13.141969073640183,-3.3030498999995723,2.6120000000009895
-0.2376,1.0185,-0.0496,0.2124,0.2222,0.0946,0.9887,-0.8662,-1.0063,-2.740997377748756,-13.120026370149983,-3.3030498999995723,2.6120000000009895
-0.237,1.0142,-0.0506,0.2124,0.2222,0.0946,0.6388,-0.49,-0.6562,-2.824898134826899,-13.134834612888955,-3.310399899999287,2.6270000000004075
-0.237,1.0142,-0.0506,0.2118,0.2205,0.0948,0.6388,-0.49,-0.0875,-2.8476983192589285,-13.136881548300687,-3.310399899999287,2.6270000000004075
-0.2362,1.0135,-0.0474,0.2118,0.2205,0.0948,1.085,-0.665,-0.0875,-2.718896575939957,-13.10904432028222,-3.3210399000014545,2.643000000003667
-0.2342,1.0152,-0.0439,0.2118,0.2205,0.0948,1.1375,-0.28,0.595,-2.534192245249185,-12.993980716844959,-3.3210399000014545,2.643000000003667
-0.2347,1.0097,-0.0498,0.2097,0.2202,0.0934,0.5512,-0.7962,1.0237,-2.743056883814677,-13.06192091508468,-3.3337790999982566,2.6589999999996508
-0.233,1.0111,-0.0451,0.2097,0.2202,0.0934,0.5512,-0.7962,1.0237,-2.6066141257091124,-12.975208540110131,-3.3337790999982566,2.6589999999996508
-0.233,1.0111,-0.0451,0.2104,0.2184,0.0935,0.9887,-0.6913,1.5225,-2.5670405584797296,-12.965507137364012,-3.344148599997854,2.6739999999990687
-0.2289,1.0103,-0.0429,0.2104,0.2184,0.0935,1.2687,-1.05,1.9425,-2.462926174263838,-12.775923491285722,-3.344148599997854,2.6739999999990687
-0.2209,1.0104,-0.042,0.2104,0.2184,0.0966,1.2513,-1.1025,2.2487,-2.3995368723369754,-12.36641370204694,-3.3617885999934263,2.6899999999950523
-0.2162,1.0069,-0.0431,0.21,0.2178,0.0966,1.2513,-1.1025,2.2487,-2.4390330236906004,-12.13301038270454,-3.3617885999934263,2.6899999999950523
-0.2149,1.0085,-0.0418,0.21,0.2178,0.0966,0.9625,-0.7437,2.45,-2.389808414513112,-12.030075278591937,-3.3729440999984046,2.7050000000017462
-0.207,1.0089,-0.0404,0.209,0.2176,0.0898,0.7088,-0.2887,1.9338,-2.3188936293976044,-11.630516239586106,-3.3729440999984046,2.7050000000017462
-0.207,1.0089,-0.0404,0.209,0.2176,0.0898,0.8925,0.0263,1.4787,-2.2996609738618345,-11.590403036827452,-3.372523299998319,2.721000000005006
-0.2012,1.0103,-0.039,0.208,0.2163,0.0976,0.8925,0.0263,1.4787,-2.233283786197402,-11.290360537210967,-3.3721024999984244,2.7370000000009895
-0.2016,1.0072,-0.0416,0.208,0.2163,0.0976,0.8487,0.3063,1.295,-2.3312277557061183,-11.307248068496007,-3.3721024999984244,2.7370000000009895
-0.2033,1.0099,-0.0429,0.208,0.2163,0.0976,1.0063,0.9363,0.8138,-2.407426039557505,-11.364573171432905,-3.3580579999989695,2.7520000000004075
-0.2036,1.0106,-0.044,0.2055,0.2166,0.0912,0.91,1.4438,-0.14,-2.471339393837349,-11.378110421356846,-3.3580579999989695,2.7520000000004075
-0.2036,1.0106,-0.044,0.2055,0.2166,0.0912,0.91,1.4438,-0.14,-2.4875157799018983,-11.379838623575107,-3.3349572000047685,2.767999999996391
-0.2026,1.0117,-0.0459,0.2071,0.2156,0.0928,1.7237,1.3563,-0.7175,-2.5745601868598853,-11.321999613834956,-3.3349572000047685,2.767999999996391
-0.202,1.0131,-0.0472,0.2071,0.2156,0.0928,2.1525,1.2513,-1.4262,-2.64957471392817,-11.273119553669654,-3.3161876999963926,2.783000000003085
-0.2057,1.0144,-0.045,0.2071,0.2156,0.0928,2.1525,0.9275,-1.9162,-2.561133958628218,-11.422500075808049,-3.3161876999963926,2.783000000003085
-0.2071,1.0122,-0.0533,0.2051,0.2159,0.0926,2.4675,0.9275,-1.9162,-2.9320116314387734,-11.527090486908593,-3.3013476999933693,2.7990000000063446
-0.2071,1.0128,-0.0548,0.2051,0.2159,0.0926,3.2812,0.6825,-2.2313,-3.070993579085969,-11.537957119926716,-3.3013476999933693,2.7990000000063446
-0.212,1.0128,-0.0548,0.2056,0.2136,0.0888,3.115,0.0875,-2.5725,-3.092865130938797,-11.756135003155402,-3.2999476999937207,2.8150000000023283
-0.2176,1.0159,-0.0529,0.2056,0.2136,0.0888,3.115,0.0875,-2.5725,-2.9990181409678454,-12.01503937049034,-3.2999476999937207,2.8150000000023283
-0.2161,1.0155,-0.052,0.2056,0.2136,0.0888,3.3425,-0.3588,-2.3975,-2.941945974778936,-12.001193378148212,-3.305329699993512,2.8300000000017462
-0.218,1.0134,-0.0569,0.2061,0.2137,0.0931,3.9638,-0.7788,-2.45,-3.1748597743217166,-12.099950661797592,-3.305329699993512,2.8300000000017462
-0.2141,1.0129,-0.0568,0.2061,0.2137,0.0931,4.27,-0.8662,-1.9863,-3.204841093630961,-11.947502669036956,-3.319188899990033,2.84599999999773
-0.2141,1.0129,-0.0568,0.2049,0.2146,0.0929,4.27,-0.8662,-1.9863,-3.208941928603723,-11.922038819533604,-3.319188899990033,2.84599999999773
-0.2114,1.0041,-0.0547,0.2049,0.2146,0.0929,4.69,-0.5863,-0.8838,-3.129937098079106,-11.879170318422437,-3.3279833999939576,2.861000000004424
-0.2112,0.9939,-0.0522,0.2049,0.2146,0.0929,5.4775,-0.4725,0.14,-3.020931741325466,-11.968149181969128,-3.3279833999939576,2.861000000004424
-0.2133,0.9903,-0.0514,0.2042,0.213,0.0818,7.28,0.4288,2.975,-2.9760033401286736,-12.123705264114626,-3.3211225999956797,2.8770000000004075
-0.218,0.9933,-0.0486,0.2042,0.213,0.0818,7.28,0.4288,2.975,-2.8180675977096543,-12.342178988815848,-3.3211225999956797,2.8770000000004075
-0.218,0.9933,-0.0483,0.202,0.2119,0.0897,9.3625,2.345,7.9625,-2.786617864661866,-12.362927202868107,-3.283602600005098,2.892999999996391
-0.2262,0.9931,-0.0483,0.202,0.2119,0.0897,12.0487,3.6137,13.8075,-2.7845653989235184,-12.795957312993856,-3.283602600005098,2.892999999996391
-0.2321,1.0089,-0.0478,0.1993,0.2078,0.0866,14.0,4.725,20.1163,-2.716776094276071,-12.936410966346509,-3.2127275999734697,2.908000000003085
-0.2334,1.0199,-0.0556,0.1993,0.2078,0.0866,14.0,4.725,20.1163,-3.09671383081098,-12.873786957848669,-3.2127275999734697,2.908000000003085
-0.2302,1.0207,-0.0657,0.1993,0.2078,0.0866,15.19,5.5825,25.095,-3.6507567776348058,-12.689708536889565,-3.123407599995891,2.9239999999990687
-0.2222,1.024,-0.0642,0.1978,0.2064,0.0786,15.5925,6.3088,28.6125,-3.590877065526172,-12.232514471586128,-3.123407599995891,2.9239999999990687
-0.2222,1.024,-0.0642,0.1978,0.2064,0.0786,16.0562,6.3088,29.9338,-3.587659093853863,-12.220005686978702,-3.0287755999995634,2.9389999999984866
-0.2069,1.0288,-0.0718,0.1908,0.2021,0.08,16.0562,6.3088,29.9338,-3.971018651870819,-11.36719826600414,-3.0287755999995634,2.9389999999984866
-0.1917,1.0253,-0.0783,0.1908,0.2021,0.08,15.925,6.4488,29.96,-4.3461986513152935,-10.581517088411646,-2.925594800025464,2.9549999999944703
-0.1792,1.0188,-0.0789,0.1908,0.2021,0.08,16.4237,6.4138,29.2425,-4.424156272053882,-9.96376577267614,-2.925594800025464,2.9549999999944703
-0.162,1.0236,-0.0813,0.1868,0.1983,0.0785,16.4237,6.4138,28.7612,-4.535201970804339,-8.99272098150921,-2.822974000004557,2.97099999999773
-0.162,1.0236,-0.0819,0.1868,0.1983,0.0785,16.7125,6.7987,28.7612,-4.572594777216865,-8.96588834956454,-2.822974000004557,2.97099999999773
-0.1501,1.0277,-0.0819,0.1822,0.196,0.0744,16.3363,6.825,28.0175,-4.557250368754245,-8.302600798734195,-2.7205989999588716,2.986000000004424
-0.1355,1.0299,-0.0899,0.1822,0.196,0.0744,15.3038,6.5975,27.1775,-4.965186129733673,-7.490836559220627,-2.7205989999588716,2.986000000004424
-0.1299,1.0345,-0.095,0.1822,0.196,0.0744,15.3038,6.5975,27.1775,-5.23150435743578,-7.137712964654673,-2.6150389999853694,3.0020000000004075
-0.1219,1.0257,-0.0946,0.1762,0.1925,0.0737,14.1225,6.6238,26.5387,-5.267253171411916,-6.760444079870648,-2.6150389999853694,3.0020000000004075
-0.1184,1.0225,-0.0985,0.1762,0.1925,0.0737,14.3062,7.28,25.9613,-5.4889085616859825,-6.580423678816831,-2.505838999989607,3.0169999999998254
-0.1184,1.0225,-0.0985,0.1724,0.1902,0.0649,14.4637,7.56,24.9112,-5.501693162784453,-6.575123875613356,-2.505838999989607,3.0169999999998254
-0.1164,1.0245,-0.1014,0.1724,0.1902,0.0649,14.4637,7.56,24.9112,-5.643834613882231,-6.4544771034767745,-2.3848790000199704,3.032999999995809
-0.1127,1.0211,-0.1086,0.1724,0.1902,0.0649,14.0087,7.8663,24.4212,-6.045872244000911,-6.269171283478338,-2.3848790000199704,3.032999999995809
-0.1021,1.0304,-0.1078,0.1694,0.1862,0.0614,13.5188,7.875,23.7038,-5.97696126095027,-5.64854882726908,-2.258878999994301,3.0489999999990687
-0.095,1.0309,-0.1122,0.1694,0.1862,0.0614,13.2037,7.3063,22.2337,-6.197013711982857,-5.248053634030824,-2.258878999994301,3.0489999999990687
-0.095,1.0153,-0.1151,0.1645,0.185,0.0672,13.2037,7.3063,22.2337,-6.4510859363829045,-5.309577558122192,-2.1492844999453933,3.0640000000057626
-0.0876,1.0217,-0.1151,0.1645,0.185,0.0672,13.3088,6.8513,20.3,-6.429015653923594,-4.8854207954753175,-2.0396636999729103,3.0800000000017462
-0.0849,1.0069,-0.1111,0.1614,0.183,0.0601,12.5913,6.7463,18.4363,-6.304948735177487,-4.794324107996894,-2.0396636999729103,3.0800000000017462
-0.0834,0.9964,-0.1124,0.1614,0.183,0.0601,12.4775,6.09,17.57,-6.427653685101084,-4.7561203576214055,-1.9483136999764552,3.095000000001164
-0.0828,0.9928,-0.1129,0.1614,0.183,0.0601,12.4775,6.09,17.57,-6.483863682315493,-4.737817174901711,-1.9483136999764552,3.095000000001164
-0.0814,0.9923,-0.1147,0.1586,0.1813,0.0612,12.4775,5.88,17.465,-6.586491168151601,-4.661796212428583,-1.8542337000000713,3.110999999997148
-0.0814,0.9923,-0.1147,0.1586,0.1813,0.0612,12.9937,5.4775,17.465,-6.593119054937289,-4.65880774855217,-1.8542337000000713,3.110999999997148
-0.0741,1.0005,-0.1141,0.1565,0.1769,0.0525,15.2338,5.1975,17.8062,-6.510836120134843,-4.226045983903766,-1.7710736999831294,3.1270000000004075
-0.0669,1.0089,-0.1157,0.1565,0.1769,0.0525,13.7812,5.1975,17.8062,-6.54020752082761,-3.7868145520137775,-1.7710736999831294,3.1270000000004075
-0.0606,1.0109,-0.1229,0.1565,0.1769,0.0525,13.4137,4.8125,18.0163,-6.907914708428719,-3.420234241603195,-1.6988861999859306,3.1419999999998254
-0.0558,1.0095,-0.1234,0.1544,0.1768,0.0492,13.2037,5.1188,17.78,-6.965416825354934,-3.1513330145949445,-1.6988861999859306,3.1419999999998254
-0.0558,1.0095,-0.1292,0.1544,0.1768,0.0492,13.2037,5.1188,17.78,-7.27311869059811,-3.1387602358051527,-1.6169853999692452,3.158000000003085
-0.0548,1.0089,-0.1292,0.1508,0.1752,0.0541,13.2388,5.2238,17.395,-7.296090095051933,-3.0860823155603723,-1.6169853999692452,3.158000000003085
-0.0546,1.0148,-0.1333,0.1508,0.1752,0.0541,12.67,5.075,17.5,-7.4713812767912335,-3.0548510413437633,-1.5408603999721993,3.173000000002503
-0.057,1.0046,-0.1342,0.1508,0.1752,0.0541,12.4075,4.4887,17.6575,-7.599941204963752,-3.212490527619171,-1.5408603999721993,3.173000000002503
-0.0573,1.0102,-0.136,0.1442,0.171,0.0486,12.4075,4.4887,17.6575,-7.663077316545124,-3.217262390478278,-1.4690411999902273,3.1889999999984866
-0.0519,1.0206,-0.1404,0.1442,0.171,0.0486,12.0925,4.6988,18.5588,-7.821580848180168,-2.896568333064212,-1.4690411999902273,3.1889999999984866
-0.0519,1.0206,-0.1404,0.1434,0.1713,0.0503,11.9087,4.4363,19.67,-7.832045404221363,-2.884462208707275,-1.3980603999757666,3.2050000000017462
-0.0496,1.0173,-0.1413,0.1434,0.1713,0.0503,11.9175,4.3225,21.2188,-7.902570678704221,-2.7689290965283897,-1.3980603999757666,3.2050000000017462
-0.0442,1.0216,-0.1461,0.1434,0.1713,0.0503,11.9175,4.3225,21.2188,-8.122950942513368,-2.463303276533117,-1.3332229000097329,3.219999999993888
-0.0398,1.0257,-0.1446,0.1405,0.1688,0.0597,11.375,4.375,21.875,-8.031328290733082,-2.2091922003930424,-1.3332229000097329,3.219999999993888
-0.0276,1.0228,-0.151,0.1405,0.1688,0.0597,10.4475,3.9638,21.56,-8.370943797900239,-1.5521958663623046,-1.2698020999968123,3.235999999997148
-0.0276,1.0228,-0.1473,0.1367,0.1669,0.0441,9.6512,3.5438,20.7375,-8.209033049932266,-1.5307343308504229,-1.2698020999968123,3.235999999997148
-0.0203,1.0086,-0.1473,0.1367,0.1669,0.0441,9.6512,3.5438,20.7375,-8.30109131092763,-1.1545082589519509,-1.2166450999730904,3.2510000000038417
-0.0213,0.9936,-0.1546,0.1326,0.1645,0.045,10.6313,4.0338,21.7087,-8.804353193176253,-1.2114893439968948,-1.2166450999730904,3.2510000000038417
-0.027,0.9757,-0.1514,0.1326,0.1645,0.045,12.285,3.6488,23.6425,-8.819241441728304,-1.5551487085075724,-1.1582642999877453,3.2669999999998254
-0.0267,0.9736,-0.1415,0.1326,0.1645,0.045,14.7875,3.9375,27.7113,-8.300138077248679,-1.5545774107683685,-1.1582642999877453,3.2669999999998254
-0.0333,0.9948,-0.1481,0.1264,0.1605,0.0449,14.7875,3.9375,27.7113,-8.458271237620519,-1.8867459999693086,-1.0952642999749105,3.283000000003085
-0.0333,0.9948,-0.1481,0.1264,0.1605,0.0449,15.3387,4.2,32.8213,-8.467156713989617,-1.8960881168550356,-1.0952642999749105,3.283000000003085
-0.0309,1.0169,-0.1521,0.12,0.1582,0.039,14.805,4.1912,36.7762,-8.504572911181329,-1.725249193423509,-1.032396300007845,3.297999999995227
-0.0141,1.0272,-0.1501,0.12,0.1582,0.039,14.805,4.1562,38.9375,-8.324234498358344,-0.7983549561354344,-1.032396300007845,3.297999999995227
-0.003,1.0366,-0.1538,0.12,0.1582,0.039,14.7875,4.1562,38.9375,-8.432929344854342,-0.17754454861858188,-0.9658970999942974,3.3139999999984866
0.0111,1.0346,-0.161,0.1138,0.1562,0.0346,13.8863,4.095,38.8675,-8.82082487601712,0.5906234141612782,-0.9658970999942974,3.3139999999984866
0.0111,1.0346,-0.1682,0.1138,0.1562,0.0346,13.1425,3.7362,37.1175,-9.20853291894846,0.606368203621112,-0.9098540999692877,3.3290000000051805
0.0225,1.0264,-0.1682,0.1057,0.1529,0.0362,13.1425,3.7362,37.1175,-9.300496885359996,1.2252347962187125,-0.9098540999692877,3.3290000000051805
0.0332,1.0147,-0.1723,0.1057,0.1529,0.0362,12.9237,3.6837,33.5475,-9.616038228337137,1.8325775671898659,-0.8509148999840827,3.345000000001164
0.0445,1.008,-0.176,0.1057,0.1529,0.0362,13.3263,3.5612,31.0713,-9.88657832446448,2.473319146661581,-0.8509148999840827,3.345000000001164
0.0537,0.9913,-0.1789,0.1016,0.1496,0.0354,13.72,3.0275,29.8725,-10.209567558536254,3.036276629442885,-0.8024748999742142,3.361000000004424
0.0631,0.9789,-0.1758,0.1016,0.1496,0.0354,13.72,3.0275,29.8725,-10.182874740757777,3.6145756172844496,-0.8024748999742142,3.361000000004424
0.0631,0.9789,-0.1758,0.0956,0.1458,0.0288,14.8663,3.5087,29.5225,-10.181275720113836,3.6298522114298284,-0.7498444000017856,3.3759999999965657
0.0671,0.9947,-0.1866,0.0956,0.1458,0.0288,15.4438,3.7187,30.4937,-10.600874035291863,3.788968610220669,-0.690345199989664,3.3919999999998254
0.0725,1.0056,-0.1929,0.0956,0.1458,0.0288,14.5688,3.5175,30.8088,-10.844245366360513,4.043353448164599,-0.686827700001744,3.392999999996391
0.083,1.0045,-0.1916,0.0917,0.1468,0.0205,14.5688,3.5175,30.8088,-10.801545788982326,4.624842586607935,-0.686827700001744,3.392999999996391
0.0928,1.0046,-0.1958,0.0917,0.1468,0.0205,13.125,3.0538,31.0538,-11.014816898212528,5.166539445731589,-0.6410206999813022,3.408000000003085
0.0928,1.0046,-0.2023,0.0849,0.1439,0.0326,12.005,2.6775,29.6712,-11.360948728018796,5.174222666309789,-0.6410206999813022,3.408000000003085
0.1009,1.0063,-0.2023,0.0849,0.1439,0.0326,10.8238,2.2313,27.1338,-11.366431995737688,5.601694980169131,-0.6053198999902638,3.4239999999990687
0.1135,1.0016,-0.2006,0.0644,0.1421,0.0306,10.8238,2.2313,27.1338,-11.328297068717767,6.319212700216383,-0.5696190999829907,3.4400000000023283
0.1268,0.9899,-0.2021,0.0804,0.1421,0.0306,10.57,2.2225,24.9463,-11.5235597074215,7.128149205393445,-0.5696190999829907,3.4400000000023283
0.1307,0.9647,-0.199,0.0804,0.1421,0.0306,11.13,2.4237,22.12,-11.64626866643326,7.544062904618061,-0.5332636000020362,3.4549999999944703
0.134,0.9578,-0.1978,0.0766,0.1402,0.0289,12.1975,3.4125,20.8512,-11.666947510934307,7.792738696620427,-0.5332636000020362,3.4549999999944703
0.134,0.9578,-0.1978,0.0766,0.1402,0.0289,12.1975,3.4125,20.8512,-11.668304521565585,7.801365981477682,-0.47866359999091274,3.47099999999773
0.1297,0.9669,-0.204,0.0718,0.1377,0.0184,13.1425,3.6225,21.4463,-11.898575925245519,7.488376849795364,-0.47866359999091274,3.47099999999773
0.1313,0.98,-0.2045,0.0718,0.1377,0.0184,12.7312,3.4037,22.2512,-11.79404175763586,7.472493681978923,-0.42760809996812876,3.486000000004424
0.1385,0.9709,-0.1998,0.0718,0.1377,0.0184,12.7312,3.4037,22.6275,-11.638969641211155,7.938321655333752,-0.42760809996812876,3.486000000004424
0.1451,0.9764,-0.2067,0.0661,0.139,0.0291,10.7362,3.4388,22.6275,-11.930037799502344,8.261092115459622,-0.3725872999819401,3.5020000000004075
0.1451,0.9764,-0.2067,0.0661,0.139,0.0291,10.325,3.7362,21.6388,-11.951113688975223,8.27162805149066,-0.3725872999819401,3.5020000000004075
0.149,0.9803,-0.2135,0.0629,0.1372,0.0205,9.8,3.8675,19.4338,-12.260483545699268,8.441004253511887,-0.3107072999693335,3.518000000003667
0.1513,0.9773,-0.2178,0.0629,0.1372,0.0205,9.8,3.8675,19.4338,-12.539962549587159,8.587264363004302,-0.3107072999693335,3.518000000003667
0.1598,0.9565,-0.213,0.0629,0.1372,0.0205,9.205,3.85,16.9575,-12.55301465885982,9.234810173051995,-0.25295729999958694,3.532999999995809
0.1649,0.9405,-0.2125,0.0589,0.1343,0.0188,10.22,3.64,14.3062,-12.718350181947399,9.683805033717839,-0.25295729999958694,3.532999999995809
0.1613,0.9342,-0.2216,0.0589,0.1343,0.0188,13.0638,3.7187,13.6412,-13.305523739577136,9.54340775614057,-0.19345809998746535,3.5489999999990687
0.1613,0.9342,-0.2216,0.0572,0.1338,0.0156,13.0638,3.7187,13.6412,-13.34198321357026,9.536912194509855,-0.19345809998746535,3.5489999999990687
0.1552,0.9492,-0.2228,0.0572,0.1338,0.0156,14.0525,4.13,14.665,-13.217309851078468,9.066207237049367,-0.13150809995981963,3.5640000000057626
0.1523,0.9725,-0.2247,0.0572,0.1338,0.0156,13.6062,3.3512,15.6888,-13.02255283356331,8.69215872954073,-0.13150809995981963,3.5640000000057626
0.1686,0.9611,-0.223,0.0538,0.1344,0.019,11.4537,1.9338,17.5,-13.060166709182527,9.657830208131063,-0.1005672999675864,3.5800000000017462
0.1748,0.9838,-0.2292,0.0538,0.1344,0.019,11.4537,1.9338,17.5,-13.110756530895516,9.811217197504847,-0.1005672999675864,3.5800000000017462
0.1748,0.9838,-0.2292,0.0493,0.1304,0.0148,10.4125,1.7587,17.4387,-13.114226736670215,9.817238122697795,-0.07242809996185369,3.596000000005006
0.1803,0.9969,-0.2336,0.0493,0.1304,0.0148,10.08,1.8637,14.9362,-13.182351381685404,9.97947048135052,-0.07242809996185369,3.596000000005006
0.1827,1.0012,-0.2342,0.0493,0.1302,0.0076,9.0825,1.435,12.1713,-13.167218365462277,10.070652854461397,-0.05090309997312997,3.610999999997148
0.1863,0.9992,-0.2395,0.0468,0.1302,0.0076,9.0825,1.435,12.1713,-13.453312992309243,10.26661550039906,-0.05090309997312997,3.610999999997148
0.191,0.9995,-0.2414,0.0468,0.1302,0.0076,7.7088,0.9887,9.1525,-13.566484850934792,10.50804467152296,-0.03508389996990718,3.6270000000004075
0.1917,0.996,-0.2461,0.0456,0.1302,0.0092,6.5975,0.875,5.7575,-13.846687957047338,10.578192170726185,-0.03508389996990718,3.6270000000004075
0.1917,0.996,-0.2461,0.0456,0.1302,0.0092,5.5825,0.2362,2.695,-13.875363009557827,10.583185798649275,-0.03154089997004467,3.6419999999998254
0.1916,0.9886,-0.2458,0.0446,0.1295,0.0118,5.5825,0.2362,2.695,-13.952467055501973,10.645479838051683,-0.03154089997004467,3.6419999999998254
0.1982,0.9778,-0.2441,0.0446,0.1295,0.0118,4.4975,0.1312,1.0762,-14.008387043491387,11.072943318847377,-0.029441699969617003,3.658000000003085
0.1993,0.9706,-0.2457,0.0446,0.1295,0.0118,3.0975,-0.1663,-0.875,-14.17344976133711,11.231951847004172,-0.029441699969617003,3.658000000003085
0.2037,0.9709,-0.2455,0.0446,0.129,0.0112,3.0975,-0.1663,-2.1613,-14.187527998456002,11.451658117979058,-0.03260139996965572,3.677000000003318
0.2037,0.9709,-0.2455,0.0446,0.129,0.0112,2.03,-0.0875,-2.1613,-14.189727466361912,11.489461338813573,-0.03260139996965572,3.677000000003318
0.2055,0.9797,-0.2456,0.0435,0.1297,0.009,0.0962,-0.2275,-2.87,-14.110473795731833,11.498373288833585,-0.0360138999695233,3.6920000000027358
0.209,0.9817,-0.2449,0.0435,0.1297,0.009,-0.8662,-0.77,-4.4187,-14.054794668098175,11.622558822320112,-0.0360138999695233,3.6920000000027358
0.2104,0.9796,-0.2425,0.0435,0.1297,0.009,-0.8662,-0.77,-4.4187,-13.973364061926569,11.733406203228265,-0.04833389996643073,3.7079999999987194
0.2065,0.977,-0.2493,0.0434,0.1291,0.007,-2.2662,-1.1988,-6.1163,-14.036085966470951,11.65988447289026,-0.04833389996643073,3.7079999999987194
0.1992,0.9742,-0.2492,0.0434,0.1291,0.007,-3.2638,-1.6712,-8.0413,-14.207982452534514,11.424976225420474,-0.07340189997761754,3.7230000000054133
0.1992,0.9742,-0.2492,0.0446,0.1299,0.0098,-4.585,-2.625,-10.4125,-14.308894625608664,11.254595985424064,-0.07340189997761754,3.7230000000054133
0.1975,0.9732,-0.2468,0.0446,0.1299,0.0098,-4.585,-2.625,-10.4125,-14.252272618246808,11.15703717575833,-0.11540189996707467,3.739000000001397
0.1987,0.9723,-0.2462,0.0446,0.1299,0.0098,-6.0813,-3.185,-12.9412,-14.217929959573437,11.198699768692437,-0.11540189996707467,3.739000000001397
0.2004,0.972,-0.2447,0.0468,0.1299,0.0123,-6.9563,-4.2438,-15.4525,-14.145295856448572,11.294969666722652,-0.18330269995003018,3.7549999999973807
0.202,0.9753,-0.2404,0.0468,0.1299,0.0123,-8.2775,-4.8913,-18.0163,-13.887975927494775,11.364089302486635,-0.18330269995003018,3.7549999999973807
0.202,0.9753,-0.2404,0.0473,0.1307,0.0084,-8.2775,-4.8913,-18.0163,-13.852417173318182,11.369828629686804,-0.25667219994718304,3.7699999999967986
0.2059,0.9766,-0.2381,0.0473,0.1307,0.0084,-10.1412,-5.74,-20.7725,-13.718256278571667,11.562048408346563,-0.25667219994718304,3.7699999999967986
0.2044,0.9794,-0.238,0.0473,0.1307,0.0146,-11.165,-7.0262,-23.9575,-13.664374075722996,11.469412692111147,-0.3690913999700859,3.786000000000058
0.2078,0.9828,-0.2336,0.051,0.1314,0.0146,-13.3437,-7.07,-26.1275,-13.39432028240165,11.616262407121061,-0.3690913999700859,3.786000000000058
0.2078,0.9768,-0.2302,0.051,0.1314,0.0146,-13.3437,-7.07,-26.1275,-13.271642305639924,11.694438431487502,-0.4751414000174116,3.801000000006752
0.2056,0.9808,-0.2324,0.0551,0.1331,0.0182,-14.4725,-6.7638,-28.6475,-13.325982526315,11.536159372358977,-0.4751414000174116,3.801000000006752
0.2056,0.9808,-0.2324,0.0551,0.1331,0.0182,-14.98,-6.4925,-31.1063,-13.33004011358159,11.529147334153476,-0.5790213999440964,3.81699999999546
0.2008,0.9818,-0.2306,0.0602,0.133,0.0124,-14.98,-6.615,-33.8537,-13.225804578332534,11.270201573820549,-0.5790213999440964,3.81699999999546
0.1984,0.9769,-0.2278,0.0602,0.133,0.0124,-15.9425,-6.615,-33.8537,-13.132743829188824,11.190816266050756,-0.6848613999656589,3.8329999999987194
0.1931,0.9836,-0.2212,0.0602,0.133,0.0124,-17.9375,-6.755,-36.6275,-12.70141791655762,10.854230321612702,-0.6848613999656589,3.8329999999987194
0.1854,0.9849,-0.2167,0.0646,0.1357,0.0226,-20.0462,-7.2625,-39.2088,-12.424044479064133,10.430372334528188,-0.7937988999614315,3.8479999999981374
0.1854,0.9849,-0.2167,0.0646,0.1357,0.0226,-20.0462,-7.2625,-39.2088,-12.409449849902478,10.417619225756331,-0.7937988999614315,3.8479999999981374
0.1732,0.9836,-0.2184,0.0726,0.1377,0.022,-22.3475,-7.8138,-42.7525,-12.513800140237663,9.771932061918601,-0.9188196999869016,3.864000000001397
0.1657,0.9857,-0.2102,0.0726,0.1377,0.022,-24.395,-7.6562,-46.9875,-12.058353378458484,9.346938710733378,-0.9188196999869016,3.864000000001397
0.154,0.9922,-0.2098,0.0726,0.1377,0.022,-25.7862,-8.295,-51.0125,-11.944099259146745,8.65038819101709,-1.0432446999820733,3.879000000000815
0.1517,0.9917,-0.2033,0.0799,0.1418,0.0258,-25.7862,-8.295,-51.0125,-11.599712822533519,8.525378995772337,-1.0432446999820733,3.879000000000815
0.1452,0.9952,-0.2065,0.0799,0.1418,0.0258,-27.3875,-8.3387,-55.5013,-11.717647292596189,8.138097161115452,-1.1766638999485823,3.8949999999967986
0.1452,0.9952,-0.2065,0.0882,0.1433,0.0333,-27.8075,-8.12,-59.8237,-11.722126354532955,8.130264800559821,-1.3065838999750505,3.911000000000058
0.1347,1.0003,-0.2035,0.0882,0.1433,0.0333,-27.7025,-7.875,-64.1725,-11.507625412667725,7.527662204261195,-1.3065838999750505,3.911000000000058
0.1176,1.0091,-0.1942,0.0882,0.1433,0.0333,-27.7025,-7.875,-64.1725,-10.916359775475602,6.545669272561777,-1.4247088999704667,3.925999999999476
0.1069,0.9979,-0.19,0.0985,0.1473,0.0381,-28.6038,-8.4087,-68.7838,-10.78502086035599,6.015949659329367,-1.4247088999704667,3.925999999999476
0.093,0.9977,-0.1857,0.0985,0.1473,0.0381,-29.8725,-8.5837,-72.555,-10.552071634166662,5.247705090470576,-1.5620480999984463,3.9420000000027358
0.093,0.9977,-0.1857,0.109,0.1494,0.0331,-29.5313,-8.5575,-75.5475,-10.543995425397112,5.236159176640367,-1.5620480999984463,3.9420000000027358
0.0716,1.0016,-0.1798,0.109,0.1494,0.0331,-29.5313,-8.5575,-75.5475,-10.189815656012398,4.0421628934523195,-1.690410599993465,3.9570000000021537
0.0495,1.008,-0.1738,0.109,0.1494,0.0417,-30.3713,-8.9163,-78.1462,-9.796665122605075,2.7881763747926582,-1.690410599993465,3.9570000000021537
0.0296,1.0076,-0.1699,0.1196,0.1562,0.0417,-31.8062,-9.8787,-79.8962,-9.578428879224305,1.6745408343879769,-1.848469799953789,3.9729999999981374
0.013,1.0107,-0.1581,0.1196,0.1562,0.0417,-32.9263,-9.8088,-81.27,-8.912090625918845,0.7406361525239301,-1.848469799953789,3.9729999999981374
-0.0012,1.0169,-0.1563,0.1307,0.165,0.0455,-32.9263,-9.8088,-81.27,-8.743573876714944,-0.05610374831199142,-2.005410599985762,3.989000000001397
-0.0012,1.0169,-0.1563,0.1307,0.165,0.0455,-34.8338,-10.7887,-82.705,-8.73827912068484,-0.06668772818391294,-2.005410599985762,3.989000000001397
-0.019,1.0196,-0.1498,0.1435,0.171,0.053,-36.4175,-12.0575,-84.3587,-8.368866666994347,-1.0436091497002384,-2.1862730999787434,4.004000000000815
-0.0357,1.0257,-0.136,0.1435,0.171,0.053,-36.4175,-12.0575,-86.0825,-7.5759916134316665,-1.9644817193428543,-2.1862730999787434,4.004000000000815
-0.0495,1.0279,-0.1305,0.1435,0.171,0.053,-37.7912,-12.53,-86.0825,-7.244708396930168,-2.7254900905010175,-2.3867531000195865,4.0200000000040745
-0.0636,1.0228,-0.1261,0.1556,0.1775,0.0657,-40.0313,-13.965,-88.4713,-7.03401773851145,-3.521758174097309,-2.3867531000195865,4.0200000000040745
-0.0636,1.0228,-0.1261,0.1556,0.1775,0.0657,-42.1925,-14.3413,-90.6237,-7.028606595970492,-3.531413135055797,-2.601872599906892,4.0349999999962165
-0.0786,1.0225,-0.1252,0.1682,0.1851,0.0662,-42.1925,-14.3413,-90.6237,-6.981993014373997,-4.353419504787087,-2.601872599906892,4.0349999999962165
-0.0885,1.0182,-0.1122,0.1682,0.1851,0.0662,-42.4987,-15.1025,-92.7412,-6.305039232675493,-4.9310802342198325,-2.8435125999561204,4.050999999999476
-0.098,1.0122,-0.1065,0.1682,0.1851,0.0662,-42.6475,-16.0212,-94.57,-6.013532845809221,-5.493480657400012,-2.8435125999561204,4.050999999999476
-0.1064,1.0059,-0.0959,0.1819,0.1946,0.0726,-42.98,-16.9837,-95.3138,-5.459509654327037,-6.0052138902545025,-3.115251800011481,4.067000000002736
-0.1165,0.9955,-0.0908,0.1819,0.1946,0.0726,-42.98,-16.9837,-95.3138,-5.217465659077139,-6.640237336748993,-3.115251800011481,4.067000000002736
-0.1165,0.9955,-0.0908,0.1926,0.2019,0.0782,-42.7438,-17.465,-95.2,-5.2116951192424965,-6.6473451225933085,-3.377226800001315,4.082000000002154
-0.1298,0.9838,-0.0796,0.1926,0.2019,0.0782,-41.335,-18.13,-93.9488,-4.640309330690798,-7.482241605302115,-3.377226800001315,4.082000000002154
-0.1511,0.9795,-0.0692,0.1926,0.2019,0.0782,-40.9938,-18.62,-92.12,-4.056131504348888,-8.733298697011382,-3.6751467999265306,4.097999999998137
-0.1698,0.969,-0.0531,0.2034,0.2123,0.0903,-40.9938,-18.62,-92.12,-3.159616081883874,-9.910732005558701,-3.6751467999265306,4.097999999998137
-0.1867,0.9628,-0.0431,0.2034,0.2123,0.0903,-39.6725,-18.3925,-89.9325,-2.5785896216555844,-10.950977708527757,-3.9510342999158246,4.112999999997555
-0.1867,0.9628,-0.0431,0.2137,0.2219,0.0835,-37.87,-18.5238,-88.41,-2.5635689464568614,-10.96336482200882,-3.9510342999158246,4.112999999997555
-0.2115,0.9569,-0.0353,0.2137,0.2219,0.0835,-37.1263,-18.1388,-86.8875,-2.1251759112750266,-12.436844932699728,-4.24125509997495,4.129000000000815
-0.2286,0.9542,-0.0242,0.2137,0.2219,0.0918,-37.1263,-18.1388,-86.8875,-1.4714318900580161,-13.45564499754078,-4.24125509997495,4.129000000000815
-0.2404,0.9557,-0.0168,0.2246,0.2297,0.0918,-35.1838,-17.5088,-84.6825,-1.0206839648966102,-14.108939461373657,-4.521395900032022,4.1450000000040745
-0.2501,0.9526,-0.0091,0.2246,0.2297,0.0918,-33.5037,-16.4325,-82.7575,-0.5619004728353547,-14.702224660821903,-4.521395900032022,4.1450000000040745
-0.2665,0.9502,0.0003,0.2322,0.2371,0.0926,-32.865,-15.4875,-79.9313,-0.00013534763581932356,-15.65402311487698,-4.753708399910321,4.1599999999962165
-0.2665,0.9502,0.0003,0.2322,0.2371,0.0926,-32.865,-15.4875,-79.9313,0.017516915419198927,-15.666892532586333,-4.753708399910321,4.1599999999962165
-0.2836,0.9449,0.0095,0.2418,0.247,0.1087,-31.8937,-14.2975,-76.8163,0.5579282551751252,-16.691015442916267,-4.982468399956926,4.175999999999476
-0.2963,0.9507,0.0137,0.2418,0.247,0.1087,-30.2663,-12.8013,-73.5963,0.8164410167354164,-17.299608782650388,-4.982468399956926,4.175999999999476
-0.317,0.9467,0.02,0.2418,0.247,0.1087,-28.0263,-10.7712,-70.8487,1.1956580306611815,-18.490493881532153,-5.144036399950656,4.190999999998894
-0.3453,0.947,0.029,0.2456,0.2553,0.1044,-27.965,-10.7712,-70.8487,1.7332831225614658,-20.000840838373257,-5.316375599985767,4.207000000002154
-0.3453,0.947,0.029,0.2456,0.2553,0.1044,-25.025,-8.4087,-68.1363,1.7531569704518266,-20.02410561227152,-5.316375599985767,4.207000000002154
-0.3575,0.9517,0.0393,0.2541,0.2606,0.1115,-21.9713,-6.4575,-64.6363,2.3354424108362024,-20.56295937844188,-5.419695600006816,4.223000000005413
-0.3647,0.9506,0.0406,0.2541,0.2606,0.1115,-21.9713,-6.4575,-60.1563,2.4403453359079212,-20.96442886925046,-5.419695600006816,4.223000000005413
-0.375,0.9525,0.0406,0.2541,0.2606,0.1115,-19.7138,-4.6725,-60.0687,2.4407154176973003,-21.46249830746386,-5.489783099970099,4.237999999997555
-0.3834,0.9576,0.047,0.2599,0.2682,0.1142,-17.1063,-2.8175,-54.18,2.7869022450747534,-21.7892793308277,-5.489783099970099,4.237999999997555
-0.391,0.9557,0.0501,0.2599,0.2682,0.1142,-14.2975,-0.91,-47.88,2.984692546909229,-22.21276562747006,-5.504343099973065,4.254000000000815
-0.391,0.9557,0.0501,0.2641,0.273,0.1132,-14.2975,-0.91,-47.88,2.9996128290049837,-22.222871044498252,-5.504343099973065,4.254000000000815
-0.4053,0.9501,0.0467,0.2641,0.273,0.1132,-11.4362,0.6125,-41.5187,2.831836451086921,-23.05346682027261,-5.495155599973422,4.269000000000233
-0.4277,0.9465,0.0448,0.2641,0.273,0.1132,-8.0675,2.2575,-35.5425,2.727268607097875,-24.25106944525907,-5.495155599973422,4.269000000000233
-0.4519,0.9539,0.0468,0.269,0.2748,0.1121,-5.4775,2.9575,-30.9925,2.790406070630422,-25.279311264285365,-5.447835599963781,4.2850000000034925
-0.471,0.9607,0.045,0.269,0.2748,0.1121,-5.4775,2.9575,-30.9925,2.7062977239760873,-26.05990521466222,-5.447835599963781,4.2850000000034925
-0.471,0.9607,0.045,0.2681,0.2784,0.1126,-3.605,2.555,-26.88,2.6913683367780386,-26.090849303620487,-5.406955599955453,4.301000000006752
-0.4819,0.9755,0.0479,0.2681,0.2784,0.1126,-2.24,2.3625,-22.4963,2.7112444006882948,-26.251761960962686,-5.406955599955453,4.301000000006752
-0.4864,0.9884,0.0475,0.2681,0.2784,0.1079,-0.5425,1.8813,-17.9638,2.7353122215820784,-26.1823337883544,-5.3787360999702365,4.315999999998894
-0.4822,0.9958,0.045,0.2708,0.278,0.1079,-0.5425,1.8813,-17.9638,2.646614341709031,-25.845558278201203,-5.3787360999702365,4.315999999998894
-0.4774,0.9961,0.0525,0.2708,0.278,0.1079,0.945,1.7062,-13.65,2.9240895776323272,-25.611115879434152,-5.351436899964675,4.332000000002154
-0.4702,0.9974,0.0531,0.2707,0.2826,0.1171,1.715,1.015,-8.8112,3.0215200187491655,-25.350774322026943,-5.351436899964675,4.332000000002154
-0.4702,0.9974,0.0531,0.2707,0.2826,0.1171,1.8375,0.4725,-4.3925,3.0421426452754536,-25.248691990610343,-5.34434939996495,4.347000000001572
-0.4683,0.9897,0.0515,0.2716,0.2798,0.1155,1.8375,0.4725,-4.3925,2.9917480827789578,-25.280153066563976,-5.34434939996495,4.347000000001572
-0.4697,0.9815,0.0467,0.2716,0.2798,0.1155,1.8813,-0.2187,-0.5425,2.7784680601852156,-25.512283193243015,-5.347848599965663,4.363000000004831
-0.4654,0.9809,0.0465,0.2716,0.2798,0.1155,3.535,-0.805,3.1412,2.72388826513134,-25.37158738534152,-5.347848599965663,4.363000000004831
-0.457,0.9841,0.0454,0.2679,0.2786,0.1074,3.535,-1.575,5.4513,2.6539296543780355,-24.92229100272682,-5.373048599959337,4.379000000000815
-0.457,0.9841,0.0454,0.2679,0.2786,0.1074,3.8763,-1.575,5.4513,2.643197089940976,-24.888822464552067,-5.373048599959337,4.379000000000815
-0.4428,0.9817,0.0464,0.2673,0.2771,0.1087,4.2088,-2.3625,7.7875,2.6973960944381403,-24.294286918350643,-5.408486099957962,4.394000000000233
-0.4311,0.982,0.0376,0.2673,0.2771,0.1087,5.2325,-2.4325,10.2638,2.253735374904434,-23.719476220924502,-5.408486099957962,4.394000000000233
-0.4193,0.9837,0.0376,0.2673,0.2771,0.1087,5.2325,-2.4325,10.2638,2.196783085371872,-23.10650161031553,-5.449838599957537,4.411000000000058
-0.4077,0.9778,0.0364,0.2675,0.274,0.1126,5.985,-2.3537,11.9087,2.13911750449725,-22.64439496391097,-5.449838599957537,4.411000000000058
-0.3993,0.974,0.0341,0.2675,0.274,0.1126,6.825,-2.17,13.3263,2.0187031132458104,-22.296441861555408,-5.482388599956273,4.425999999999476
-0.3993,0.974,0.0341,0.2627,0.271,0.1098,7.2625,-0.9538,15.2075,2.0064397099904148,-22.280040295906378,-5.482388599956273,4.425999999999476
-0.3912,0.9749,0.0312,0.2627,0.271,0.1098,7.2625,-0.9538,15.2075,1.8498577641922038,-21.872448107472202,-5.497649399959382,4.442000000002736
-0.3806,0.9811,0.033,0.2627,0.271,0.1098,8.1112,-0.665,16.8175,1.919589599616911,-21.219392332312946,-5.497649399959382,4.442000000002736
-0.3692,0.9829,0.0299,0.2604,0.269,0.1118,7.9187,0.1488,17.6488,1.7585772283144345,-20.603628757777336,-5.495268599958897,4.458000000005995
-0.3622,0.9856,0.0254,0.2604,0.269,0.1118,7.8837,1.8637,18.865,1.502091796835037,-20.187902649329207,-5.495268599958897,4.458000000005995
-0.3622,0.9856,0.0254,0.2598,0.2666,0.1016,7.8837,1.8637,18.865,1.4786142849482973,-20.17241252563032,-5.467313099973542,4.472999999998137
-0.3553,0.9855,0.0254,0.2598,0.2666,0.1016,8.75,3.0187,19.3463,1.4765863831687047,-19.832482059141118,-5.467313099973542,4.472999999998137
-0.3483,0.9805,0.0207,0.2598,0.2666,0.1221,8.4613,4.0338,19.915,1.2326566264714158,-19.562425639100784,-5.402772299960393,4.489000000001397
-0.342,0.9812,0.0148,0.2549,0.261,0.1034,8.925,5.1712,20.9475,0.8949547147904137,-19.226161283457134,-5.402772299960393,4.489000000001397
-0.3359,0.9861,0.0117,0.2549,0.261,0.1034,8.925,5.1712,20.9475,0.6977603753064314,-18.823810364209137,-5.325204299963403,4.504000000000815
-0.3301,0.9859,0.0127,0.2542,0.2587,0.1014,9.0738,6.2825,20.7638,0.7346989129348532,-18.5211088863364,-5.325204299963403,4.504000000000815
-0.3301,0.9859,0.0127,0.2542,0.2587,0.1014,8.6275,7.3063,20.4137,0.7377374558900809,-18.510580038024326,-5.208303499939587,4.5200000000040745
-0.3229,0.9841,0.006,0.2512,0.2567,0.1003,8.9075,7.875,20.1688,0.38183184530709763,-18.17750214291346,-5.208303499939587,4.5200000000040745
-0.3203,0.9847,0.0044,0.2512,0.2567,0.1003,8.9075,7.875,20.1688,0.2665465611719174,-18.02398905539355,-5.082303499971216,4.536000000000058
-0.3193,0.9875,-0.0024,0.2512,0.2567,0.1003,9.1875,8.8725,20.4925,-0.10606579321869247,-17.921855998535506,-5.082303499971216,4.536000000000058
-0.3196,0.9878,-0.0028,0.2476,0.2539,0.114,9.3713,9.87,21.6912,-0.15786983882393413,-17.928545565640757,-4.934253499976961,4.550999999999476
-0.3196,0.9878,-0.0028,0.2476,0.2539,0.114,9.3713,9.87,22.1812,-0.16204343507479388,-17.92877120219299,-4.934253499976961,4.550999999999476
-0.3187,0.9873,-0.0108,0.2452,0.2526,0.1014,10.4125,10.6225,22.1812,-0.5921891322349746,-17.89037136436376,-4.764293499942336,4.567000000002736
-0.3182,0.9878,-0.0148,0.2452,0.2526,0.1014,10.7362,11.06,22.8638,-0.8390648661047315,-17.85462768073248,-4.764293499942336,4.567000000002736
-0.3133,0.9894,-0.0163,0.2452,0.2526,0.1014,10.6925,11.0337,22.8288,-0.9362121917315926,-17.577784563217563,-4.598787999948758,4.582000000002154
-0.3057,0.9935,-0.0134,0.2442,0.2462,0.1014,10.6925,11.0337,22.8288,-0.7846428700471544,-17.117126819700335,-4.422248799993073,4.597999999998137
-0.3034,0.9877,-0.0169,0.2442,0.2462,0.1014,11.235,10.9812,21.9625,-0.9665588214449867,-17.074926018585384,-4.422248799993073,4.597999999998137
-0.3034,0.9877,-0.0169,0.2418,0.243,0.0929,11.5675,11.1213,21.98,-0.9793234245688737,-17.073516272436628,-4.24430800003774,4.613999999994121
-0.2991,0.9982,-0.0192,0.2418,0.243,0.0929,11.41,11.3925,21.9363,-1.0934427402952696,-16.69061623234476,-4.24430800003774,4.613999999994121
-0.2905,1.0053,-0.0178,0.2418,0.243,0.0929,11.41,11.3925,21.9363,-1.0198530276388222,-16.13446921266684,-4.07342049996148,4.629000000000815
-0.2878,1.0047,-0.0198,0.2381,0.2413,0.0884,10.7975,11.7425,22.54,-1.1211158678901225,-15.986619441531186,-4.07342049996148,4.629000000000815
-0.2859,1.0035,-0.0253,0.2381,0.2413,0.0884,10.4038,12.2413,23.4412,-1.4201894700764834,-15.900440357459043,-3.877559699921578,4.6450000000040745
-0.2859,1.0035,-0.0253,0.2336,0.2382,0.0868,9.8787,12.5475,23.8612,-1.442361331609893,-15.89769586346966,-3.877559699921578,4.6450000000040745
-0.2798,1.0052,-0.0279,0.2336,0.2382,0.0868,9.8787,12.5475,23.8612,-1.578456918523758,-15.559936084639487,-3.6893472000201766,4.6599999999962165
-0.278,0.9972,-0.0323,0.2336,0.2382,0.0887,10.3075,12.4862,24.0625,-1.8344692279001384,-15.569365225783368,-3.6893472000201766,4.6599999999962165
-0.2783,0.9947,-0.0326,0.2318,0.235,0.0887,10.78,12.635,24.1063,-1.8740366958600538,-15.621066842464156,-3.487187199978991,4.675999999999476
-0.2725,0.9974,-0.0336,0.2318,0.235,0.0887,10.535,12.11,24.0362,-1.9253469429882313,-15.28350458363184,-3.487187199978991,4.675999999999476
-0.2708,1.002,-0.039,0.2266,0.2314,0.0781,10.535,12.11,24.0362,-2.206586951490315,-15.117854218018238,-3.293427200027629,4.69199999999546
-0.2708,1.002,-0.039,0.2266,0.2314,0.0781,10.8062,11.69,23.9312,-2.2273351404837447,-15.112679703805126,-3.293427200027629,4.69199999999546
-0.2682,1.0038,-0.0409,0.225,0.2283,0.0826,11.2613,11.6287,24.5088,-2.3258311467595485,-14.95236963156994,-3.118996699949788,4.707000000002154
-0.2638,1.0122,-0.0394,0.225,0.2283,0.0826,11.235,11.48,25.6987,-2.2358937729928767,-14.607482889371362,-3.118996699949788,4.707000000002154
-0.2581,1.0114,-0.0424,0.225,0.2283,0.0826,11.235,11.48,25.6987,-2.389019114705518,-14.312789620133522,-2.900876699947115,4.7260000000023865
-0.2586,1.0166,-0.0472,0.2187,0.2227,0.0846,11.4625,12.2762,27.23,-2.639726350940985,-14.258893171181887,-2.839495699979271,4.730999999999767
-0.2586,1.0166,-0.0472,0.2187,0.2227,0.0846,12.04,11.7425,28.8663,-2.657061318602705,-14.257360170425258,-2.839495699979271,4.730999999999767
-0.2614,1.0158,-0.0536,0.2151,0.2198,0.0769,12.04,10.85,29.3563,-2.9963866025947485,-14.407700665274776,-2.6767456999855863,4.745999999999185
-0.2594,1.0031,-0.0516,0.2151,0.2198,0.0769,11.7513,10.85,29.3563,-2.948222089534522,-14.478673508613975,-2.6767456999855863,4.745999999999185
-0.2587,0.9579,-0.0579,0.2151,0.2198,0.0769,12.1975,10.43,30.555,-3.4254989284746657,-15.071243218091961,-2.5098656999515883,4.762000000002445
-0.2621,0.9662,-0.0484,0.212,0.2173,0.0778,15.015,9.835,33.81,-2.898619973261534,-15.157079388795035,-2.5098656999515883,4.762000000002445
-0.2707,0.9905,-0.0447,0.212,0.2173,0.0778,15.015,9.835,33.81,-2.6013605674176983,-15.267927352729734,-2.352505699991089,4.777999999998428
-0.2707,0.9905,-0.0447,0.2075,0.2114,0.0732,18.0513,9.73,40.285,-2.5847584512619024,-15.270589015964042,-2.352505699991089,4.777999999998428
-0.2822,0.9934,-0.0432,0.2075,0.2114,0.0732,18.9438,10.0013,47.9238,-2.494361250654443,-15.834031739884773,-2.2024861999241416,4.793000000005122
-0.2764,0.9736,-0.0397,0.2075,0.2114,0.0732,20.8512,9.8437,54.9325,-2.3416965779796652,-15.83643161475144,-2.2024861999241416,4.793000000005122
-0.2694,0.9565,-0.0423,0.1975,0.2062,0.0658,20.8512,9.8437,54.9325,-2.524210566610825,-15.717296757926617,-2.044986999963677,4.809000000001106
-0.274,0.9383,-0.045,0.1975,0.2062,0.0658,23.2575,9.6075,62.3787,-2.7373247554966427,-16.253297573204588,-2.044986999963677,4.809000000001106
-0.274,0.9383,-0.045,0.1879,0.1978,0.0635,26.2588,8.7063,71.6363,-2.745461221949663,-16.260929208286893,-1.9143924999687447,4.824000000000524
-0.2698,0.9436,-0.0486,0.1879,0.1978,0.0635,29.6362,8.9687,83.9037,-2.942196062011953,-15.94010402933747,-1.9143924999687447,4.824000000000524
-0.2471,0.9815,-0.0509,0.1879,0.1978,0.0553,29.6362,8.9687,83.9037,-2.967855262656045,-14.132662418454775,-1.7708932999395102,4.8400000000037835
-0.2095,1.0036,-0.0662,0.1739,0.1864,0.0553,32.41,8.9163,97.2125,-3.7511706280936363,-11.788727948094351,-1.7708932999395102,4.8400000000037835
-0.1648,1.0125,-0.0789,0.1739,0.1864,0.0553,33.8275,9.1788,108.7012,-4.436709433430944,-9.239280863073773,-1.624032499976375,4.855999999999767
-0.1206,1.013,-0.0919,0.1567,0.1777,0.0531,34.93,9.0913,116.9525,-5.16404616687439,-6.781562733427757,-1.624032499976375,4.855999999999767
-0.1206,1.013,-0.0919,0.1567,0.1777,0.0531,34.93,9.0913,116.9525,-5.183201211437405,-6.761889285049619,-1.487662999915519,4.871000000006461
-0.0736,1.003,-0.1044,0.1398,0.1674,0.0542,35.0962,9.2837,120.61,-5.9224824695300216,-4.194485926634922,-1.487662999915519,4.871000000006461
-0.0297,0.9933,-0.1146,0.1398,0.1674,0.0542,35.9888,9.3975,120.6012,-6.56440829908024,-1.7207637163229494,-1.3373030000216384,4.886999999995169
0.0015,0.9834,-0.1261,0.1398,0.1674,0.0542,37.7562,10.01,117.81,-7.288878285457644,0.07231503717927215,-1.3373030000216384,4.886999999995169
0.032,0.9786,-0.1352,0.1195,0.1582,0.0481,37.7562,10.01,117.81,-7.8518468538720265,1.8411069141412881,-1.1871529999546326,4.902000000001863
0.032,0.9786,-0.1352,0.1195,0.1582,0.0481,38.6312,9.7212,113.8812,-7.865653321144187,1.8551655141427337,-1.031613799993676,4.917999999997846
0.0655,0.9739,-0.1395,0.1029,0.1511,0.041,39.1475,10.0363,108.3425,-8.144739959962207,3.7920979224828693,-1.031613799993676,4.917999999997846
0.0922,0.9767,-0.1485,0.1029,0.1511,0.041,39.1475,10.0363,102.0425,-8.63332564212231,5.317801282208944,-0.8710329999609614,4.934000000001106
0.1186,0.9833,-0.1559,0.1029,0.1511,0.041,39.2175,9.4587,102.0425,-9.000234671575992,6.78000620726101,-0.8710329999609614,4.934000000001106
0.1441,0.9904,-0.1597,0.0863,0.1439,0.0463,38.5525,9.45,94.0625,-9.156141835388356,8.160467481948489,-0.7292829999664621,4.949000000000524
0.1686,0.989,-0.1624,0.0863,0.1439,0.0463,37.1437,9.2662,86.555,-9.320902610986423,9.534336757075323,-0.7292829999664621,4.949000000000524
0.1686,0.989,-0.1624,0.0734,0.1368,0.0268,37.1437,9.2662,86.555,-9.325002695366692,9.548870728389334,-0.5810238000036781,4.9649999999965075
0.1894,0.9807,-0.1722,0.0734,0.1368,0.0268,36.19,9.5638,78.925,-9.942819069269076,10.755929915292395,-0.5810238000036781,4.9649999999965075
0.2056,0.9629,-0.1789,0.0734,0.1368,0.0268,35.7262,9.7212,72.03,-10.510118360889447,11.842140542796779,-0.4352057999386056,4.980000000003201
0.21,0.9612,-0.1883,0.0609,0.1351,0.0279,35.9975,9.9488,67.0163,-11.06923201700365,12.097650289005761,-0.4352057999386056,4.980000000003201
0.2131,0.9551,-0.1953,0.0609,0.1351,0.0279,35.9975,9.9488,67.0163,-11.544113202968969,12.32749386676634,-0.2760249999785632,4.995999999999185
0.2131,0.9551,-0.1953,0.0491,0.131,0.0149,35.84,10.0363,63.7088,-11.556276331011851,12.330556967952331,-0.2760249999785632,4.995999999999185
0.2231,0.9557,-0.1988,0.0491,0.131,0.0149,35.6388,9.5113,61.2412,-11.745781712803065,12.865938750011406,-0.12384419994755991,5.012000000002445
0.2297,0.97,-0.21,0.0491,0.131,0.0129,33.9588,9.31,58.6775,-12.203018063700805,13.028749743548142,-0.12384419994755991,5.012000000002445
0.242,0.9609,-0.214,0.0398,0.1282,0.0129,33.9588,9.31,58.6775,-12.54579978837416,13.799133493937402,0.01580580004702098,5.027000000001863
0.251,0.9668,-0.2217,0.0398,0.1282,0.0129,31.5875,8.4525,56.0,-12.904712280019954,14.194391454680485,0.01580580004702098,5.027000000001863
0.2575,0.9606,-0.2298,0.029,0.1262,0.0103,29.4,8.1287,52.5525,-13.436841612625928,14.6051701365991,0.14586500001437344,5.042999999997846
0.2575,0.9606,-0.2298,0.029,0.1262,0.0103,27.5625,7.3325,49.7962,-13.453213262110514,14.611951550666282,0.14586500001437344,5.042999999997846
0.265,0.9531,-0.2379,0.0222,0.1234,0.0003,27.5625,7.3325,49.7962,-13.99666665763323,15.088546851689324,0.25585250006345633,5.05800000000454
0.2752,0.9421,-0.2426,0.0222,0.1234,0.0003,26.5037,6.16,46.0337,-14.425470522418944,15.782307011235561,0.25585250006345633,5.05800000000454
0.28,0.9367,-0.249,0.0222,0.1234,0.0003,25.795,5.18,42.3763,-14.870496395258868,16.10684510912157,0.33873250004265176,5.074000000000524
0.2785,0.9264,-0.2555,0.014,0.1228,0.0023,26.1537,3.78,38.8237,-15.40001145706014,16.1607299459738,0.33873250004265176,5.074000000000524
0.2785,0.9264,-0.2555,0.014,0.1228,0.0023,26.1537,3.78,38.8237,-15.418148809180744,16.16188140912499,0.39921250005497316,5.0900000000037835
0.285,0.9277,-0.2595,0.0054,0.1209,-0.0034,25.935,2.8525,35.8225,-15.620356138039389,16.473809988011656,0.39921250005497316,5.0900000000037835
0.294,0.9426,-0.2602,0.0054,0.1209,-0.0034,24.0362,2.17,33.18,-15.438859822033193,16.727524096162373,0.4317625000537101,5.105000000003201
0.2991,0.9471,-0.2591,0.0054,0.1209,-0.0034,24.0362,2.17,31.0187,-15.305277855810857,16.935928410944335,0.4317625000537101,5.105000000003201
0.3079,0.9429,-0.264,0.0008,0.1215,-0.0094,21.9013,1.6625,31.0187,-15.628087480920975,17.442568330255313,0.45836250004703294,5.120999999999185
0.3079,0.9386,-0.2712,0.0008,0.1215,-0.0094,19.2675,0.9013,28.3675,-16.094293819596754,17.4908784819314,0.45836250004703294,5.120999999999185
0.3134,0.9386,-0.2712,-0.0038,0.1202,-0.0082,15.89,0.5075,26.3725,-16.115016966963132,17.776607466163192,0.4659750000504301,5.136000000005879
0.3185,0.9315,-0.2722,-0.0038,0.1202,-0.0082,15.89,0.5075,26.3725,-16.280048717738733,18.158195313005518,0.4659750000504301,5.136000000005879
0.3218,0.9302,-0.2727,-0.0038,0.1202,-0.0082,14.5338,0.2975,23.87,-16.335808229038673,18.358405836451297,0.47073500004923524,5.152000000001863
0.3265,0.9364,-0.2767,-0.0082,0.1182,-0.0136,13.895,0.1138,21.035,-16.4546064544382,18.484541050833116,0.47073500004923524,5.152000000001863
0.3295,0.916,-0.2794,-0.0082,0.1182,-0.0136,11.5413,-0.4812,18.7162,-16.92799699250044,18.967806476490278,0.4630358000511679,5.167999999997846
0.3295,0.916,-0.2794,-0.0114,0.1163,-0.0095,11.5413,-0.4812,18.7162,-16.96046029589495,18.98591353442641,0.4630358000511679,5.167999999997846
0.3314,0.9353,-0.275,-0.0114,0.1163,-0.0095,10.5262,-1.2425,16.7388,-16.427012835321968,18.783275795247565,0.4443983000518911,5.182999999997264
0.3364,0.9322,-0.2796,-0.0114,0.1163,-0.0095,8.785,-1.7413,13.7638,-16.673127302714384,19.054808847196355,0.4443983000518911,5.182999999997264
0.343,0.9407,-0.277,-0.0154,0.1173,-0.0064,7.7875,-2.2313,11.1213,-16.432189293781803,19.266759001232685,0.4086975000446179,5.199000000000524
0.3409,0.9351,-0.2832,-0.0154,0.1173,-0.0064,7.7875,-2.2313,11.1213,-16.810703416853517,19.23607115321752,0.4086975000446179,5.199000000000524
0.3409,0.9249,-0.2804,-0.0166,0.117,-0.0122,5.8713,-2.345,8.435,-16.859457856972178,19.417354097041365,0.37352250002892073,5.214000000007218
0.3406,0.9249,-0.2804,-0.0166,0.117,-0.0122,4.6725,-3.0538,5.2063,-16.864820854976795,19.413608348849664,0.3246617000634051,5.2299999999959255
0.3406,0.9216,-0.2796,-0.0189,0.1181,-0.0111,4.55,-3.4475,2.1962,-16.875423557347496,19.47031707071007,0.3246617000634051,5.2299999999959255
0.3403,0.9186,-0.2761,-0.0189,0.1181,-0.0111,4.55,-3.4475,2.1962,-16.74828511492609,19.52726576005103,0.3246617000634051,5.2299999999959255
0.3439,0.9115,-0.2741,-0.0189,0.1181,-0.0111,2.9488,-3.535,-0.1312,-16.738652015093017,19.822077161610085,0.26810170005188233,5.245999999999185
0.3434,0.9242,-0.2787,-0.0194,0.1188,-0.0142,2.94,-3.2725,-1.96,-16.774011825020917,19.622408380574953,0.2190142000537872,5.260999999998603
0.3434,0.9242,-0.2787,-0.0194,0.1188,-0.0142,0.7,-3.045,-3.9725,-16.779213143564544,19.592534973638397,0.2190142000537872,5.260999999998603
0.3413,0.9065,-0.2771,-0.0193,0.117,-0.017,1.54,-3.045,-3.9725,-16.949776939121907,19.749453389605016,0.17029420004386162,5.277000000001863
0.3428,0.9193,-0.2724,-0.0193,0.117,-0.017,0.875,-2.9925,-5.53,-16.618735112307217,19.704494217976503,0.17029420004386162,5.277000000001863
0.3421,0.916,-0.2749,-0.0193,0.117,-0.017,0.2013,-2.8263,-7.4025,-16.6783821121717,19.697931629077424,0.12789970004550674,5.292000000001281
0.3451,0.9088,-0.2719,-0.0197,0.1156,-0.015,0.2013,-2.8263,-7.4025,-16.6632026181328,19.786054971725093,0.12789970004550674,5.292000000001281
0.3451,0.9088,-0.2746,-0.0197,0.1156,-0.015,-1.6538,-3.4213,-8.2338,-16.70488921946365,19.89210250822002,0.0731589000592478,5.307999999997264
0.3365,0.9065,-0.2746,-0.0181,0.1173,-0.0158,-1.645,-2.8525,-10.1237,-16.746844605766555,19.63878124414123,0.0731589000592478,5.307999999997264
0.3325,0.9104,-0.2755,-0.0181,0.1173,-0.0158,-2.2138,-3.22,-11.2087,-16.760061755820363,19.338842641165062,0.02163890004875179,5.324000000000524
0.3271,0.914,-0.2679,-0.0181,0.1173,-0.0158,-2.2138,-3.22,-11.2087,-16.697624900647188,19.027474654238926,0.02163890004875179,5.324000000000524
0.3261,0.9135,-0.268,-0.0161,0.1176,-0.0129,-2.8087,-3.0013,-12.3287,-16.546866052793643,18.927190145045852,-0.023380599949501223,5.338999999999942
0.3248,0.9069,-0.2656,-0.0161,0.1176,-0.0129,-2.87,-2.555,-13.8863,-16.445628103666042,18.96299467555389,-0.023380599949501223,5.338999999999942
0.3248,0.9069,-0.2656,-0.0158,0.1181,-0.0087,-3.3863,-2.485,-14.9537,-16.37557613231523,18.967597149336054,-0.0631405999576014,5.355000000003201
0.3188,0.908,-0.2686,-0.0158,0.1181,-0.0087,-3.3863,-2.485,-14.9537,-16.434904691708628,18.647436356510475,-0.0631405999576014,5.355000000003201
0.3196,0.9054,-0.2624,-0.0158,0.1181,-0.0087,-4.2,-2.5812,-15.7238,-16.248710612512912,18.720449475551558,-0.10185859995609894,5.370000000002619
0.3181,0.8986,-0.2634,-0.0126,0.1174,-0.012,-5.075,-2.0213,-15.8638,-16.315155083775927,18.758454595223224,-0.10185859995609894,5.370000000002619
0.3152,0.8976,-0.2663,-0.0126,0.1174,-0.012,-4.935,-1.9863,-15.015,-16.470791826126412,18.62291916619732,-0.1336393999481213,5.385999999998603
0.3152,0.8976,-0.2619,-0.0133,0.1195,-0.0162,-4.935,-1.9863,-15.015,-16.318656899216155,18.628394063481213,-0.1336393999481213,5.385999999998603
0.3102,0.8988,-0.2619,-0.0133,0.1195,-0.0162,-4.97,-2.0038,-14.6737,-16.26413201477005,18.366451689127494,-0.16570019995465293,5.402000000001863
0.3079,0.9021,-0.2655,-0.0089,0.1179,-0.009,-4.1125,-1.8375,-13.7812,-16.35566723136336,18.160201695892127,-0.16570019995465293,5.402000000001863
0.307,0.9024,-0.2644,-0.0089,0.1179,-0.009,-3.3688,-1.5313,-13.8512,-16.34125319571761,18.09084634720318,-0.19020099994850273,5.417999999997846
0.3045,0.9052,-0.2613,-0.0089,0.1179,-0.009,-3.3688,-1.5313,-13.8512,-16.20455593372089,17.933394834639785,-0.19020099994850273,5.417999999997846
0.3028,0.9089,-0.2618,-0.0079,0.1168,-0.0098,-3.5438,-1.7325,-13.7113,-16.12288770844275,17.77513416135029,-0.21792099995415004,5.434000000001106
0.3028,0.9089,-0.2618,-0.0079,0.1168,-0.0098,-4.06,-1.6888,-14.14,-16.086543833083766,17.754522855876747,-0.21792099995415004,5.434000000001106
0.3024,0.9155,-0.2612,-0.0073,0.1182,-0.012,-4.06,-3.9288,-14.7262,-15.97777554501007,17.636905109171092,-0.2768529999518632,5.449000000000524
0.3004,0.9187,-0.2558,-0.0073,0.1182,-0.012,-4.06,-2.3187,-14.7262,-15.6978255565283,17.50189928538279,-0.2768529999518632,5.449000000000524
0.2969,0.9214,-0.2568,-0.0073,0.1182,-0.012,-4.7075,-2.8,-15.505,-15.607401151736841,17.271227222691348,-0.32165299994061747,5.4649999999965075
0.2966,0.9231,-0.2564,-0.0037,0.1196,-0.0154,-5.9325,-3.0538,-17.1588,-15.540374578225594,17.20809862910375,-0.32165299994061747,5.4649999999965075
0.2966,0.9231,-0.2538,-0.0037,0.1196,-0.0154,-5.9325,-3.0538,-17.1588,-15.407394002413763,17.21311692626053,-0.3705137999505717,5.480999999999767
0.2976,0.9224,-0.2538,-0.002,0.1202,-0.0097,-7.175,-2.9313,-18.9263,-15.388094862511862,17.274520640150726,-0.3705137999505717,5.480999999999767
0.2968,0.9199,-0.255,-0.002,0.1202,-0.0097,-7.8488,-3.5525,-20.3787,-15.478092629119855,17.27167456488296,-0.4238012999485039,5.495999999999185
0.2929,0.9201,-0.2541,-0.002,0.1202,-0.0097,-8.365,-4.34,-22.5662,-15.443753117425928,17.071405277951655,-0.4238012999485039,5.495999999999185
0.2954,0.9292,-0.2497,0.0012,0.1195,-0.0146,-8.365,-4.34,-22.5662,-15.09642869150447,17.067557267107052,-0.4932412999626507,5.512000000002445
0.2968,0.9376,-0.2514,0.0012,0.1195,-0.0146,-9.9137,-5.1013,-24.57,-15.019510227747778,17.004723937067425,-0.4932412999626507,5.512000000002445
0.2968,0.9376,-0.2514,0.0039,0.1204,-0.0033,-11.7775,-6.2913,-26.3988,-15.010649926920282,17.001328039491753,-0.5876107999132134,5.526999999994587
0.2949,0.9395,-0.2528,0.0039,0.1204,-0.0033,-14.0612,-6.335,-29.1112,-15.05657504965877,16.868527593894957,-0.5876107999132134,5.526999999994587
0.2945,0.9456,-0.2546,0.0039,0.1204,-0.0033,-14.0612,-6.335,-29.1112,-15.068375607928893,16.74339421439002,-0.6889707999338631,5.542999999997846
0.294,0.9522,-0.2535,0.0097,0.1198,-0.0083,-16.38,-6.7638,-32.2438,-14.918287330263075,16.618273583651085,-0.6889707999338631,5.542999999997846
0.2927,0.9562,-0.2541,0.0097,0.1198,-0.0083,-18.6025,-7.5687,-35.5425,-14.883881155486725,16.48498757775127,-0.8100699999585342,5.559000000001106
0.2927,0.9562,-0.2532,0.013,0.1223,0.0038,-21.035,-8.0763,-39.1213,-14.83404454991165,16.483989341312064,-0.8100699999585342,5.559000000001106
0.2819,0.964,-0.2532,0.013,0.1223,0.0038,-21.035,-8.0763,-39.1213,-14.722515968168802,15.813561778941269,-0.9312144999538332,5.574000000000524
0.2719,0.9738,-0.2513,0.0214,0.1245,0.0013,-22.8988,-9.555,-43.19,-14.481663524497767,15.147104123195488,-0.9312144999538332,5.574000000000524
0.2666,0.9726,-0.2491,0.0214,0.1245,0.0013,-25.8038,-9.8875,-47.1712,-14.370345704629944,14.877818293360594,-1.0894144999860629,5.5900000000037835
0.2637,0.9729,-0.2441,0.0214,0.1245,0.0013,-26.7488,-10.7887,-51.7825,-14.09584228309916,14.732810775296791,-1.0894144999860629,5.5900000000037835
0.2553,0.979,-0.2398,0.028,0.1259,0.0075,-26.7488,-10.7887,-51.7825,-13.776200928362028,14.224784502469298,-1.251244999901285,5.6049999999959255
0.2553,0.979,-0.2398,0.028,0.1259,0.0075,-27.5888,-11.3837,-56.105,-13.763751358973309,14.2136731526926,-1.4333841999383916,5.620999999999185
0.2477,0.9819,-0.2355,0.0378,0.1266,0.0098,-29.19,-11.655,-60.7513,-13.49695303525435,13.790869358722544,-1.4333841999383916,5.620999999999185
0.2413,0.9783,-0.2298,0.0378,0.1266,0.0098,-29.19,-11.655,-64.4262,-13.228848465784672,13.507005162893787,-1.6198641999763825,5.637000000002445
0.2294,0.9747,-0.2281,0.0378,0.1266,0.0098,-31.0187,-12.5125,-64.4262,-13.173285120047089,12.91746879749368,-1.6198641999763825,5.637000000002445
0.2162,0.9772,-0.2224,0.0483,0.1278,0.0118,-31.5875,-12.7575,-67.7775,-12.83301404390766,12.185770774044169,-1.8112266999689566,5.652000000001863
0.2162,0.9772,-0.2144,0.0483,0.1278,0.0118,-31.9463,-13.3612,-71.2337,-12.389581670281332,12.194203611409808,-1.8112266999689566,5.652000000001863
0.2081,0.9833,-0.2144,0.0591,0.1335,0.0214,-31.9463,-13.3612,-71.2337,-12.303217683424606,11.690587459847016,-2.025005900012509,5.668000000005122
0.1976,0.9929,-0.2103,0.0591,0.1335,0.0214,-32.8037,-13.3525,-74.9088,-11.96957413016072,11.027075458333343,-2.025005900012509,5.668000000005122
0.179,0.9969,-0.2104,0.0591,0.1335,0.0214,-33.5387,-13.3437,-78.1025,-11.919219289732801,9.979131867921682,-2.225161399907654,5.682999999997264
0.1599,0.9871,-0.2034,0.071,0.1394,0.0244,-34.3088,-13.5712,-80.92,-11.651590512288822,9.028062206324046,-2.225161399907654,5.682999999997264
0.1484,0.9786,-0.1927,0.071,0.1394,0.0244,-34.3088,-13.5712,-80.92,-11.155199039008782,8.470381118856364,-2.442300599951891,5.699000000000524
0.1484,0.9786,-0.1927,0.082,0.1436,0.0314,-33.95,-14.2362,-84.6738,-11.140282989026241,8.462935299207777,-2.442300599951891,5.699000000000524
0.1316,0.9861,-0.1903,0.082,0.1436,0.0314,-32.0863,-14.875,-88.1213,-10.929809917606198,7.4774916027746015,-2.680300600000378,5.7150000000037835
0.1119,0.9776,-0.1871,0.082,0.1436,0.0314,-32.0775,-15.12,-91.8138,-10.837717801602814,6.4268437726052685,-2.680300600000378,5.7150000000037835
0.0981,0.9812,-0.1787,0.0997,0.1479,0.0246,-32.0775,-15.12,-91.8138,-10.338425905341722,5.627063256853931,-2.9071005998815647,5.7299999999959255
0.085,0.9893,-0.1713,0.0997,0.1479,0.0246,-31.0275,-15.5925,-94.6663,-9.840689255853665,4.847982007124419,-2.9071005998815647,5.7299999999959255
0.085,0.9893,-0.1681,0.1099,0.1538,0.043,-31.0275,-15.82,-97.1775,-9.650062279045322,4.841763300705037,-3.160220599933132,5.745999999999185
0.0709,0.9882,-0.1681,0.1099,0.1538,0.043,-31.3425,-16.3188,-100.03,-9.653887896717531,4.054287083917221,-3.160220599933132,5.745999999999185
0.0509,0.9902,-0.1591,0.1254,0.1594,0.045,-31.3425,-16.3188,-100.03,-9.1453170174856,2.9176431411582766,-3.405002599923633,5.760999999998603
0.0403,0.9924,-0.1557,0.1254,0.1594,0.045,-31.22,-16.1963,-102.8125,-8.924163455870227,2.3037581488204313,-3.405002599923633,5.760999999998603
0.0258,0.995,-0.1495,0.1254,0.1594,0.045,-31.92,-16.1175,-105.1225,-8.557128296985178,1.4772672794676542,-3.6628825999761703,5.777000000001863
0.0097,0.9913,-0.1438,0.1409,0.1682,0.0492,-33.775,-16.345,-106.68,-8.263132988577398,0.5639817026601793,-3.6628825999761703,5.777000000001863
0.0097,0.9913,-0.1438,0.1409,0.1682,0.0492,-33.775,-16.345,-106.68,-8.254151637080925,0.5549129502752129,-3.924402600029449,5.793000000005122
-0.0059,0.9883,-0.1422,0.1565,0.1779,0.055,-34.1512,-16.0737,-108.3863,-8.189726660693081,-0.32983238041503293,-3.924402600029449,5.793000000005122
-0.0239,0.9852,-0.1341,0.1565,0.1779,0.055,-34.7638,-16.2838,-109.69,-7.764156684909589,-1.366879289381262,-4.16865959990149,5.807999999997264
-0.0457,0.9787,-0.1288,0.1565,0.1779,0.055,-34.7638,-16.2838,-110.9325,-7.505136181357171,-2.638408092846972,-4.16865959990149,5.807999999997264
-0.0672,0.9754,-0.1227,0.1714,0.1871,0.0636,-35.175,-16.555,-110.9325,-7.179658780531798,-3.8983134036757376,-4.433539599955453,5.824000000000524
-0.0672,0.9754,-0.118,0.1714,0.1871,0.0636,-35.245,-17.1063,-111.965,-6.906132208068491,-3.9125803039286966,-4.433539599955453,5.824000000000524
-0.0989,0.9708,-0.118,0.1875,0.1978,0.0642,-35.4463,-16.6863,-112.665,-6.92956068606717,-5.757259598877496,-4.683834099945741,5.838999999999942
-0.1175,0.971,-0.1085,0.1875,0.1978,0.0642,-35.4463,-16.6863,-112.665,-6.391904305315573,-6.847191984362682,-4.683834099945741,5.838999999999942
-0.1196,0.978,-0.1003,0.1875,0.1978,0.0642,-35.98,-16.9662,-112.84,-5.870918296665256,-6.93524956388004,-4.955293300001044,5.855000000003201
-0.1213,0.9797,-0.0943,0.2,0.2077,0.0739,-35.5687,-16.7475,-111.2475,-5.5088081262787405,-7.025059639259324,-4.955293300001044,5.855000000003201
-0.133,0.9689,-0.0912,0.2,0.2077,0.0739,-36.015,-16.1,-107.2138,-5.381018502066824,-7.774638067671154,-5.212893300053524,5.871000000006461
-0.133,0.9689,-0.0912,0.2145,0.2167,0.0766,-36.015,-16.1,-107.2138,-5.377364652735329,-7.782041994397944,-5.212893300053524,5.871000000006461
-0.161,0.9658,-0.088,0.2145,0.2167,0.0766,-34.895,-14.0787,-101.08,-5.211252447793664,-9.40862005914506,-5.424073799942892,5.885999999998603
-0.1951,0.9619,-0.0804,0.2145,0.2167,0.0766,-33.2412,-12.775,-94.6663,-4.791393972816947,-11.404085164818344,-5.424073799942892,5.885999999998603
-0.2232,0.9499,-0.0709,0.2226,0.2268,0.0746,-32.3575,-12.9325,-90.125,-4.285303115566681,-13.16644554889937,-5.630993799985047,5.902000000001863
-0.2768,0.9298,-0.0564,0.2226,0.2268,0.0746,-32.3575,-12.9325,-90.125,-3.4972018412438444,-16.509234769771954,-5.630993799985047,5.902000000001863
-0.2768,0.9142,-0.0445,0.2312,0.2359,0.0869,-31.29,-12.6438,-87.92,-2.8102415444828046,-16.822513162527365,-5.820650799977687,5.917000000001281
-0.3301,0.9179,-0.0445,0.2312,0.2359,0.0869,-31.1238,-12.6613,-88.6725,-2.7766928157455686,-19.722957127793173,-6.023231600018958,5.93300000000454
-0.3534,0.9365,-0.0266,0.2446,0.2463,0.088,-31.9813,-13.6588,-89.7487,-1.6641301234673647,-20.655727923441177,-6.023231600018958,5.93300000000454
-0.3468,0.9707,-0.0156,0.2446,0.2463,0.088,-31.9813,-13.6588,-89.7487,-0.9447416019142078,-19.669748070072863,-6.2417723999641,5.949000000000524
-0.3429,0.9886,-0.0103,0.2446,0.2463,0.088,-32.725,-13.615,-88.3225,-0.6079077003207324,-19.134926325590815,-6.2417723999641,5.949000000000524
-0.3601,0.9849,-0.0035,0.2555,0.2558,0.0899,-33.5913,-11.1125,-83.3875,-0.21602962916751883,-20.071099328984563,-6.408459899957632,5.963999999999942
-0.3601,0.9849,-0.0035,0.2555,0.2558,0.0899,-32.655,-9.0913,-76.8775,-0.20400176623300015,-20.08317781374455,-6.408459899957632,5.963999999999942
-0.3831,0.9714,-0.0001,0.2603,0.2624,0.0923,-32.655,-9.0913,-76.8775,-0.012164595771433404,-21.502937015321113,-6.553920699987266,5.980000000003201
-0.4007,0.9611,0.0038,0.2603,0.2624,0.0923,-30.835,-7.0175,-69.6325,0.2185233651842799,-22.614244796406616,-6.553920699987266,5.980000000003201
-0.413,0.9539,0.0044,0.2603,0.2624,0.0923,-27.65,-5.8012,-62.7113,0.26256338204759183,-23.39639917060022,-6.64093869998389,5.995000000002619
-0.4261,0.9446,0.0101,0.2659,0.2708,0.0923,-27.65,-5.8012,-57.0325,0.5994485905916972,-24.261176487831232,-6.64093869998389,5.995000000002619
-0.4261,0.9446,0.0215,0.2659,0.2708,0.0923,-24.5175,-4.2263,-57.0325,1.2738757262593932,-24.27386465314786,-6.708559499966915,6.010999999998603
-0.441,0.9442,0.0215,0.2694,0.2767,0.1002,-22.61,-3.5438,-52.0887,1.3030170648247892,-25.013408289998306,-6.708559499966915,6.010999999998603
-0.436,0.9556,0.0266,0.2694,0.2767,0.1002,-20.5012,-2.0825,-48.0812,1.5794918657146642,-24.52862946144576,-6.741879499958551,6.026999999994587
-0.4352,0.975,0.0254,0.2694,0.2767,0.1002,-20.5012,-2.0825,-48.0812,1.4967719752304915,-24.058234048982094,-6.741879499958551,6.026999999994587
-0.4356,0.9879,0.0285,0.2717,0.2819,0.1009,-20.1688,-0.0088,-43.8025,1.6443318496301673,-23.79278712633319,-6.74201149995861,6.042000000001281
-0.4396,0.9922,0.0203,0.2717,0.2819,0.1009,-20.5625,2.8175,-39.4188,1.1962755167018901,-23.888623105192714,-6.74201149995861,6.042000000001281
-0.4396,0.9922,0.0203,0.2778,0.287,0.0963,-19.7225,5.8975,-34.6937,1.1733792621370676,-23.891473999166866,-6.6476514999393865,6.05800000000454
-0.4552,0.9939,0.0185,0.2778,0.287,0.0963,-19.7225,5.8975,-34.6937,1.0720832301901466,-24.57892811874268,-6.6476514999393865,6.05800000000454
-0.4641,0.9877,0.0199,0.2778,0.287,0.0963,-18.8213,8.05,-29.5225,1.149608744417526,-25.13857647962989,-6.526901500002643,6.072999999996682
-0.4703,0.9736,0.024,0.2802,0.2909,0.1057,-18.8388,8.6538,-24.3425,1.3973511813484132,-25.741460639248064,-6.526901500002643,6.072999999996682
-0.4752,0.9695,0.0279,0.2802,0.2909,0.1057,-17.675,9.5375,-20.055,1.633295232963847,-26.0767616289733,-6.374301499971555,6.088999999999942
-0.4752,0.9539,0.0335,0.2817,0.2887,0.1043,-17.675,9.5375,-20.055,1.988615562742739,-26.439109729036055,-6.374301499971555,6.088999999999942
-0.4774,0.9639,0.0335,0.2817,0.2887,0.1043,-16.5987,10.3863,-17.3425,1.990372481459106,-26.34372274756383,-6.20812070001327,6.1049999999959255
-0.4822,0.9622,0.0358,0.2821,0.2927,0.0996,-15.3825,10.01,-16.0912,2.1209961419363057,-26.576075057666255,-6.20812070001327,6.1049999999959255
-0.4861,0.9676,0.0459,0.2821,0.2927,0.0996,-15.1988,10.0013,-16.03,2.673881805754896,-26.64092038769774,-6.058101199946322,6.120000000002619
-0.4784,0.9724,0.0481,0.2821,0.2927,0.0996,-15.1988,10.0013,-16.03,2.820684275398532,-26.215455369062127,-6.058101199946322,6.120000000002619
-0.4706,0.9645,0.0573,0.2824,0.2954,0.0962,-15.3737,9.8875,-16.1525,3.3594784225668626,-25.993187353931987,-5.899901199914093,6.136000000005879
-0.4706,0.9645,0.0573,0.2824,0.2954,0.0962,-15.435,10.6138,-14.875,3.3970824540413225,-25.971693557084823,-5.899901199914093,6.136000000005879
-0.4648,0.9548,0.0635,0.2842,0.2966,0.1,-14.105,10.7275,-14.5338,3.773696149685597,-25.91478629857984,-5.73898869999839,6.150999999998021
-0.4674,0.9504,0.0581,0.2842,0.2966,0.1,-14.105,10.7275,-14.5338,3.5193445417499727,-26.118407087057204,-5.73898869999839,6.150999999998021
-0.4735,0.9465,0.0621,0.2842,0.2966,0.1,-12.9412,11.2262,-12.9587,3.7341019128961306,-26.469323477038312,-5.559369499961797,6.167000000001281
-0.4783,0.9391,0.0634,0.285,0.2983,0.0963,-11.76,11.4275,-11.4012,3.8503040860654476,-26.851565246003123,-5.559369499961797,6.167000000001281
-0.4783,0.9235,0.062,0.285,0.2983,0.0963,-11.76,11.4275,-9.8787,3.841722839993236,-27.206016761918036,-5.376529500007694,6.182999999997264
-0.4839,0.935,0.062,0.286,0.3,0.1004,-10.1763,10.8675,-9.8787,3.798991085211234,-27.284940011968484,-5.376529500007694,6.182999999997264
-0.4898,0.9349,0.0631,0.286,0.3,0.1004,-7.5512,10.7975,-7.6737,3.8516922713889232,-27.413428220884153,-5.214566999935417,6.198000000003958
-0.4941,0.9369,0.0614,0.286,0.3,0.1004,-5.9325,10.2288,-6.0988,3.770418124842069,-27.573010549542577,-5.214566999935417,6.198000000003958
-0.4934,0.9335,0.0597,0.2866,0.3001,0.0986,-5.9325,10.2288,-6.0988,3.681973727982754,-27.68372097660786,-5.050906199976499,6.213999999999942
-0.4965,0.9389,0.0617,0.2866,0.3001,0.0986,-3.9113,9.1962,-5.1363,3.7326837973549383,-27.771548730988947,-5.050906199976499,6.213999999999942
-0.4965,0.9389,0.0617,0.2879,0.2989,0.1057,-1.7763,8.6625,-4.6813,3.7383591411858546,-27.80483813556081,-4.920968699981541,6.22899999999936
-0.4962,0.9413,0.0631,0.2879,0.2989,0.1057,-0.6825,7.1137,-3.7275,3.7940722323516662,-27.757339041447334,-4.807149499958354,6.245000000002619
-0.4982,0.9456,0.0622,0.2879,0.2989,0.1057,-0.6825,7.1137,-3.7275,3.7764047065158426,-27.73799336410144,-4.807149499958354,6.245000000002619
-0.4976,0.9514,0.0558,0.2869,0.2978,0.0976,0.875,6.44,-2.2575,3.4637836040563443,-27.59941483833891,-4.807149499958354,6.245000000002619
-0.4952,0.9543,0.0573,0.2869,0.2978,0.0976,1.785,6.09,-0.4288,3.441870381046106,-27.411963796853524,-4.7097094999828135,6.260999999998603
-0.4952,0.9543,0.0568,0.2865,0.2997,0.101,2.7562,4.5763,0.9887,3.4123779017747595,-27.38716554209259,-4.7097094999828135,6.260999999998603
-0.4937,0.9572,0.0568,0.2865,0.2997,0.101,2.7562,4.5763,0.9887,3.3987709417791674,-27.258693146259688,-4.641064999952181,6.276000000005297
-0.4936,0.9622,0.0509,0.2857,0.297,0.0954,2.6775,3.7013,3.5612,3.0929206396658264,-27.136517424468817,-4.581844199967047,6.292000000001281
-0.4942,0.9555,0.0454,0.2857,0.297,0.0954,2.59,3.64,6.335,2.7864958753995195,-27.309390734993983,-4.581844199967047,6.292000000001281
-0.4948,0.9508,0.0434,0.2857,0.297,0.0954,3.3338,3.2113,9.1788,2.640633958936603,-27.458972457234314,-4.533674699968916,6.3070000000006985
-0.4969,0.9419,0.0425,0.2834,0.2938,0.0966,3.3338,3.2113,9.1788,2.592481614325286,-27.770587113093974,-4.533674699968916,6.3070000000006985
-0.4969,0.9419,0.0425,0.2834,0.2938,0.0966,4.4625,2.275,11.9087,2.5847167052544227,-27.788909452393657,-4.4972746999615,6.323000000003958
-0.4993,0.9321,0.044,0.2822,0.2909,0.0938,6.2562,1.3913,15.6275,2.689969220901409,-28.134872520291765,-4.4972746999615,6.323000000003958
-0.5011,0.9486,0.0436,0.2822,0.2909,0.0938,7.8925,0.735,20.5713,2.636941748918529,-27.83140692128275,-4.485514699964452,6.338999999999942
-0.4981,0.9581,0.0394,0.2822,0.2909,0.0938,7.8925,0.735,20.5713,2.38065126618095,-27.46273768303403,-4.485514699964452,6.338999999999942
-0.4871,0.9598,0.0389,0.2796,0.2879,0.0925,8.7762,0.77,26.4513,2.3259437357872903,-26.905563912635454,-4.4739646999649,6.35399999999936
-0.4871,0.9598,0.0385,0.2796,0.2879,0.0925,10.4563,1.4262,32.2,2.299187768175168,-26.889687283212872,-4.4739646999649,6.35399999999936
-0.4699,0.9528,0.0385,0.2745,0.282,0.0915,10.4563,1.4262,36.9513,2.3128140868185065,-26.247584243428587,-4.451145499970628,6.369999999995343
-0.4606,0.9452,0.0394,0.2745,0.282,0.0915,12.5125,1.7413,36.9513,2.382185905656337,-25.96698038170201,-4.451145499970628,6.369999999995343
-0.4527,0.9454,0.0374,0.2745,0.282,0.0915,14.1313,1.7938,41.7988,2.272236869098701,-25.577728805802707,-4.42423849995862,6.385000000002037
-0.4445,0.9272,0.0357,0.2694,0.2766,0.095,16.7738,2.5375,47.565,2.2083660614227005,-25.596197437387314,-4.42423849995862,6.385000000002037
-0.4366,0.9296,0.0415,0.2694,0.2766,0.095,16.7738,2.5375,47.565,2.538598373503901,-25.144120471397386,-4.383638499950349,6.401000000005297
-0.4366,0.9296,0.0415,0.2647,0.2701,0.0851,20.4312,3.85,54.635,2.5554023138124324,-25.135963680055703,-4.383638499950349,6.401000000005297
-0.4274,0.9474,0.0359,0.2647,0.2701,0.0851,24.3687,4.83,63.0262,2.184138919469487,-24.278382398083345,-4.306358499969748,6.417000000001281
-0.4061,0.9317,0.0315,0.2647,0.2701,0.0851,27.4312,6.1512,72.485,1.944515430888931,-23.54814364021158,-4.306358499969748,6.417000000001281
-0.3755,0.9221,0.0429,0.2563,0.2582,0.0782,27.4312,6.1512,72.485,2.6401196947424945,-22.15319412912038,-4.207939299949697,6.43300000000454
-0.3259,0.9008,0.0391,0.2563,0.2582,0.0782,31.955,7.8575,82.1363,2.4898332606264657,-19.897660067390525,-4.207939299949697,6.43300000000454
-0.3259,0.9165,0.0426,0.2436,0.2467,0.0766,37.625,11.2875,92.3562,2.6570444258086363,-19.558877358605784,-4.027339299995031,6.449000000000524
-0.2923,0.9131,0.0426,0.2436,0.2467,0.0766,43.4,16.7738,102.9088,2.6708511487570616,-17.749209900325003,-4.027339299995031,6.449000000000524
-0.2607,0.9376,0.0313,0.2312,0.236,0.0739,43.4,16.7738,102.9088,1.9283410960084812,-15.55038536609639,-3.775732300004795,6.463999999999942
-0.2227,0.9321,0.024,0.2312,0.236,0.0739,47.25,23.52,113.61,1.4839590895312407,-13.450488590948147,-3.775732300004795,6.463999999999942
-0.1756,0.9196,0.0123,0.2312,0.236,0.0739,52.3425,30.7475,123.6288,0.7792650209472627,-10.829757936237796,-3.2837722999045695,6.480000000003201
-0.136,0.9235,0.0033,0.215,0.2206,0.0671,58.7212,39.1388,132.9563,0.21403994589259495,-8.394843954638425,-3.2837722999045695,6.480000000003201
-0.136,0.9235,0.0033,0.215,0.2206,0.0671,58.7212,39.1388,132.9563,0.20488831562668763,-8.377566415029955,-2.6575515000617638,6.495999999999185
-0.1173,0.9514,-0.0226,0.197,0.2058,0.0532,64.7063,48.6675,140.8225,-1.3376644676136076,-7.035756458286534,-2.6575515000617638,6.495999999999185
-0.0845,0.9481,-0.0536,0.197,0.2058,0.0532,69.8425,57.0413,144.9875,-3.2096798778654785,-5.0977413954184625,-1.8019319996799361,6.511000000005879
-0.0662,0.9477,-0.0815,0.197,0.2058,0.0532,76.475,65.695,148.9863,-4.893761961103559,-3.9882770936682697,-1.8019319996799361,6.511000000005879
-0.0742,0.9873,-0.1021,0.1742,0.1911,0.0403,76.475,65.695,148.9863,-5.891454302133241,-4.273411080160661,-0.7508120004217829,6.526999999994587
-0.0742,1.0185,-0.1438,0.1742,0.1911,0.0403,81.6988,73.71,152.8975,-8.011047945732857,-4.126903227323105,-0.7508120004217829,6.526999999994587
-0.0776,1.0241,-0.1438,0.1529,0.1757,0.0183,83.0987,78.47,154.1662,-7.993194210336165,-4.290288209651029,0.426238000103486,6.542000000001281
-0.0675,1.046,-0.1798,0.1529,0.1757,0.0183,83.0987,78.47,152.005,-9.73298795048208,-3.6431128806855466,0.426238000103486,6.542000000001281
-0.0587,1.0478,-0.2197,0.1529,0.1757,0.0183,83.7725,80.395,152.005,-11.817781650934547,-3.141529839495166,1.7125579997805933,6.557999999997264
-0.047,1.0169,-0.23,0.1279,0.1648,0.0055,82.915,79.4238,147.525,-12.733805224630766,-2.5847621172655106,1.7125579997805933,6.557999999997264
-0.0484,1.0039,-0.2246,0.1279,0.1648,0.0055,83.8337,76.93,143.4825,-12.612380834643625,-2.6929952538665747,2.9434380000313567,6.574000000000524
-0.0484,1.0039,-0.2246,0.1078,0.1571,-0.0094,83.8337,76.93,143.4825,-12.610983139447535,-2.693709873253486,2.9434380000313567,6.574000000000524
-0.0243,1.0343,-0.2284,0.1078,0.1571,-0.0094,83.685,72.7913,141.0325,-12.45436163680057,-1.3234757279553853,4.035307499988987,6.588999999999942
0.0213,1.0796,-0.2322,0.1078,0.1571,-0.0094,79.0387,66.99,137.3225,-12.142093941695512,1.088295001746361,4.035307499988987,6.588999999999942
0.0655,1.1082,-0.2422,0.0842,0.1509,-0.0236,71.0325,61.4688,130.1212,-12.325779856576958,3.2886484331347745,5.0188082997421075,6.6049999999959255
0.1122,1.0839,-0.2489,0.0842,0.1509,-0.0236,71.0325,61.4688,130.1212,-12.924636307118082,5.743129679872064,5.0188082997421075,6.6049999999959255
0.1122,1.0839,-0.244,0.0623,0.1439,-0.0328,61.9238,56.35,120.785,-12.690211661946535,5.766446158407178,5.864058300119308,6.620000000002619
0.1308,1.0479,-0.244,0.0623,0.1439,-0.0328,54.2762,51.59,111.3,-13.1002924900796,6.9216099104125615,6.689498299912106,6.635999999998603
0.1516,1.0329,-0.254,0.0425,0.1389,-0.0406,47.8975,46.8213,102.935,-13.801414394361732,8.100730287084067,6.689498299912106,6.635999999998603
0.1718,1.0042,-0.2614,0.0425,0.1389,-0.0406,47.8975,46.8213,102.935,-14.575181142278932,9.389124374378868,7.4386391000647265,6.652000000001863
0.1922,0.9822,-0.2614,0.0425,0.1389,-0.0406,41.825,41.3613,95.1038,-14.89578485807755,10.69543673988915,7.4386391000647265,6.652000000001863
0.2087,0.9689,-0.2647,0.0275,0.1358,-0.0568,36.7062,36.925,88.1125,-15.270464479718,11.727285485328807,7.992514100043233,6.667000000001281
0.2087,0.9689,-0.2647,0.0275,0.1358,-0.0568,31.1675,31.5963,82.1275,-15.27985164951259,11.738016827784525,7.992514100043233,6.667000000001281
0.2208,0.9684,-0.2751,0.0131,0.1329,-0.056,31.1675,31.5963,82.1275,-15.841700891012648,12.363603624969846,8.498054899916331,6.682999999997264
0.2323,0.9638,-0.278,0.0131,0.1329,-0.056,24.5175,26.0837,76.6237,-16.080759728826802,13.03093991529879,8.498054899916331,6.682999999997264
0.2533,0.9515,-0.279,0.0131,0.1329,-0.056,17.8762,19.7838,71.2513,-16.329755647687975,14.313671327554426,8.794811900048762,6.698000000003958
0.2743,0.9453,-0.2819,0.0012,0.1334,-0.048,13.0463,14.1838,65.835,-16.58809962878899,15.523107918640397,8.794811900048762,6.698000000003958
0.2743,0.9453,-0.2849,0.0012,0.1334,-0.048,13.0463,14.1838,65.835,-16.760625911954953,15.526763558714304,9.021752699991795,6.713999999999942
0.2899,0.9391,-0.2849,-0.007,0.1305,-0.0579,9.45,8.5575,60.0337,-16.867237871678597,16.44371619520207,9.021752699991795,6.713999999999942
0.3104,0.9213,-0.2856,-0.007,0.1305,-0.0579,6.1337,3.5438,54.9325,-17.184460674317293,17.816383120068917,9.078453500003347,6.730000000003201
0.3236,0.9118,-0.2837,-0.007,0.1305,-0.0579,6.1337,3.5438,48.79,-17.272396452246994,18.704458435662684,9.078453500003347,6.730000000003201
0.3356,0.8974,-0.281,-0.0193,0.1292,-0.0518,3.465,-0.5425,48.79,-17.369162653448765,19.624096741320983,9.070316000003663,6.745000000002619
0.352,0.884,-0.2789,-0.0193,0.1292,-0.0518,0.945,-3.64,44.065,-17.474942618127525,20.771242502351907,9.070316000003663,6.745000000002619
0.352,0.884,-0.2789,-0.0258,0.1252,-0.0594,-1.68,-6.58,40.46,-17.484339491346525,20.79325468029966,8.965036000030091,6.760999999998603
0.3638,0.8767,-0.2783,-0.0258,0.1252,-0.0594,-1.68,-6.58,40.46,-17.518081179109803,21.563338968254826,8.965036000030091,6.760999999998603
0.3696,0.8737,-0.2769,-0.0258,0.1252,-0.0594,-3.5788,-8.8112,36.2513,-17.558550156962067,21.953257361579634,8.83286799997111,6.776000000005297
0.3913,0.8585,-0.2693,-0.0316,0.1251,-0.0683,-5.6438,-11.1125,32.1912,-17.446927811801153,23.465607262949753,8.83286799997111,6.776000000005297
0.4011,0.8678,-0.27,-0.0316,0.1251,-0.0683,-5.495,-11.2525,28.8663,-17.31947027444584,23.804118435445602,8.652828000016305,6.792000000001281
0.4011,0.8678,-0.2729,-0.0363,0.1241,-0.0548,-5.495,-11.2525,28.8663,-17.42610168661589,23.793708899392914,8.652828000016305,6.792000000001281
0.4038,0.8686,-0.2729,-0.0363,0.1241,-0.0548,-7.2625,-11.8212,24.535,-17.439336351565572,23.91400825925321,8.463688800063782,6.807999999997264
0.4054,0.8581,-0.2691,-0.0391,0.123,-0.0492,-8.5225,-12.0575,20.965,-17.41514709581865,24.253339003140777,8.463688800063782,6.807999999997264
0.4033,0.8577,-0.2791,-0.0391,0.123,-0.0492,-9.5813,-12.3988,16.9925,-17.95372776876082,24.097516583351524,8.277706800070998,6.822999999996682
0.4015,0.8661,-0.2781,-0.0391,0.123,-0.0492,-9.5813,-12.3988,16.9925,-17.819361725523148,23.826855638844048,8.277706800070998,6.822999999996682
0.4059,0.8697,-0.2757,-0.0419,0.1238,-0.054,-10.1237,-13.1075,13.16,-17.614291929023913,23.97653282438642,8.067986800028272,6.838999999999942
0.4059,0.8697,-0.2757,-0.0419,0.1238,-0.054,-10.7887,-13.4925,8.5487,-17.59152322411129,23.983517220871686,8.067986800028272,6.838999999999942
0.4145,0.8775,-0.2746,-0.0434,0.1234,-0.0502,-11.4362,-13.5975,4.865,-17.397366192158223,24.244159508748734,7.8640242999372525,6.854000000006636
0.4175,0.8807,-0.2731,-0.0434,0.1234,-0.0502,-11.4362,-13.5975,4.865,-17.244620293112085,24.35124780542447,7.8640242999372525,6.854000000006636
0.4176,0.8797,-0.2736,-0.0434,0.1234,-0.0502,-12.1275,-13.44,2.6425,-17.273609568568183,24.381188717503605,7.648984300089021,6.869999999995343
0.4088,0.8834,-0.2707,-0.0455,0.1195,-0.0493,-13.265,-13.2212,0.7262,-17.05600749777339,23.926129595983422,7.648984300089021,6.869999999995343
0.4088,0.8834,-0.2649,-0.0455,0.1195,-0.0493,-14.0612,-12.88,-1.12,-16.72005284728906,23.908675487015323,7.4429043000470365,6.885999999998603
0.4013,0.8829,-0.2649,-0.045,0.1211,-0.0484,-14.0612,-12.88,-1.12,-16.702491322185434,23.581828213926105,7.4429043000470365,6.885999999998603
0.397,0.885,-0.2645,-0.045,0.1211,-0.0484,-15.365,-13.2825,-3.5612,-16.644204922168058,23.33151356140138,7.243666800054768,6.900999999998021
0.4139,0.8846,-0.2646,-0.045,0.1211,-0.0484,-16.2488,-13.755,-5.9938,-16.65231295104546,23.734161375438983,7.243666800054768,6.900999999998021
