AcclX,AcclY,AcclZ,MagX,MagY,MagZ,GyroX,GyroY,GyroZ,Roll,Pitch,Yaw,Time Elapsed(s)
-0.1775,1.0199,-0.0962,0.2086,0.2158,0.0513,0.0437,1.1287,-0.5863,0,0,0,0.0
-0.1775,1.0199,-0.0962,0.2078,0.2148,0.0562,-0.875,1.7325,0.9187,0,0,0,0.01600000000325963
-0.1793,1.0426,-0.1047,0.2078,0.2148,0.0562,-2.38,1.9512,1.435,0,0,0,0.01600000000325963
-0.1862,1.0582,-0.1008,0.2078,0.2148,0.0562,-2.38,1.9512,1.435,0,0,0,0.030999999995401595
-0.1925,1.0716,-0.1002,0.2074,0.2152,0.0536,-4.69,1.2775,0.595,0,0,0,0.030999999995401595
-0.2048,1.0784,-0.0957,0.2074,0.2152,0.0536,-6.3963,0.84,-0.6125,0,0,0,0.046999999998661224
-0.2204,1.0741,-0.0971,0.2064,0.2149,0.049,-8.4525,0.2275,-2.1,0,0,0,0.046999999998661224
-0.2187,1.0741,-0.0971,0.2064,0.2149,0.049,-8.4525,0.2275,-2.1,0,0,0,0.0629999999946449
-0.2372,1.074,-0.0899,0.2063,0.2116,0.0462,-9.8787,-1.0675,-4.3925,0,0,0,0.0629999999946449
-0.2475,1.0757,-0.0825,0.2063,0.2116,0.0462,-10.9725,-2.3888,-6.7375,0,0,0,0.07800000000133878
-0.2588,1.0734,-0.0748,0.2063,0.2116,0.0462,-10.9725,-2.3888,-9.4937,0,0,0,0.07800000000133878
-0.2683,1.0679,-0.0689,0.2077,0.2168,0.0424,-12.6088,-3.7887,-9.4937,0,0,0,0.0940000000045984
-0.2683,1.0679,-0.0689,0.2077,0.2168,0.0424,-15.1375,-5.3288,-11.62,0,0,0,0.0940000000045984
-0.273,1.0579,-0.0598,0.2078,0.2159,0.048,-16.695,-6.4138,-12.845,0,0,0,0.10899999999674037
-0.2738,1.0443,-0.0542,0.2078,0.2159,0.048,-16.695,-6.4138,-12.845,0,0,0,0.10899999999674037
-0.2654,1.0228,-0.0427,0.2078,0.2159,0.048,-17.5438,-7.595,-13.0113,0,0,0,0.125
-0.2639,1.0196,-0.0356,0.209,0.2159,0.0556,-17.6838,-8.6538,-12.74,0,0,0,0.125
-0.2639,1.0019,-0.0266,0.209,0.2159,0.0556,-18.6725,-8.925,-11.6375,0,0,0,0.14099999999598367
-0.256,1.0019,-0.0266,0.2097,0.2158,0.057,-18.6725,-8.925,-11.6375,0,0,0,0.14099999999598367
-0.2507,1.0006,-0.0085,0.2097,0.2158,0.057,-18.9963,-9.3188,-8.2863,0,0,0,0.15600000000267755
-0.2418,0.9866,-0.0051,0.2097,0.2158,0.057,-18.2525,-8.2513,-5.075,0,0,0,0.15600000000267755
-0.2351,0.9801,-0.001,0.2114,0.217,0.0607,-16.8088,-7.6562,-1.9775,0,0,0,0.17199999999866122
-0.2302,0.9824,0.0024,0.2114,0.217,0.0607,-16.8088,-7.6562,-1.9775,0,0,0,0.17199999999866122
-0.2302,0.9824,0.0024,0.209,0.2171,0.0665,-15.4263,-6.1687,0.4112,0,0,0,0.18699999999807915
-0.2306,0.9817,0.0046,0.209,0.2171,0.0665,-13.965,-5.3375,2.5113,0,0,0,0.18699999999807915
-0.2333,0.9869,0.0104,0.209,0.2171,0.0665,-12.53,-4.5937,3.5263,0,0,0,0.20300000000133878
-0.233,0.983,0.0099,0.2077,0.2158,0.0634,-12.53,-4.5937,3.5263,0,0,0,0.20300000000133878
-0.234,0.9905,0.0121,0.2077,0.2158,0.0634,-12.0837,-4.6025,3.1325,0,0,0,0.21899999999732245
-0.234,0.9958,0.0149,0.207,0.2163,0.0722,-12.7837,-5.8975,3.255,0,0,0,0.21899999999732245
-0.228,0.9958,0.0149,0.207,0.2163,0.0722,-15.8988,-7.3763,4.6375,0,0,0,0.23399999999674037
-0.1896,0.9631,0.0368,0.2061,0.2154,0.0668,-15.8988,-7.3763,4.6375,0,0,0,0.23399999999674037
-0.1332,0.9251,0.0554,0.2061,0.2154,0.0668,-11.48,-4.7512,8.12,0,0,0,0.24999999999272404
-0.1465,1.0142,0.0353,0.2061,0.2154,0.0668,3.605,3.7013,6.6413,0,0,0,0.24999999999272404
-0.1767,1.0009,0.0065,0.2046,0.2138,0.0718,3.605,3.7013,3.885,0,0,0,0.2649999999994179
-0.1767,1.0009,0.0065,0.2046,0.2138,0.0718,3.4475,5.2762,3.885,0,0,0,0.2649999999994179
-0.1549,0.9717,0.0257,0.2026,0.2122,0.0681,-1.9162,2.5725,4.6813,0,0,0,0.28100000000267755
-0.1315,0.9815,0.0262,0.2026,0.2122,0.0681,-3.185,2.59,5.5738,0,0,0,0.28100000000267755
-0.1006,0.9792,0.0226,0.2026,0.2122,0.0681,-3.185,2.59,5.5738,0,0,0,0.2969999999986612
-0.0986,0.9993,0.0092,0.201,0.2114,0.0627,-1.5488,5.1887,5.6613,0,0,0,0.2969999999986612
-0.0986,1.0249,-0.0023,0.201,0.2114,0.0627,1.4175,8.7413,4.8212,0,0,0,0.31199999999807915
-0.1241,1.0249,-0.0023,0.2,0.2101,0.0667,0.4025,9.2137,4.13,0,0,0,0.31199999999807915
-0.1441,1.0345,-0.0101,0.2,0.2101,0.0667,0.4025,9.2137,4.13,0,0,0,0.3279999999940628
-0.1529,1.0225,-0.0135,0.2,0.2101,0.0667,-1.0237,7.6737,3.5875,0,0,0,0.3279999999940628
-0.1585,1.0186,-0.0151,0.1991,0.2106,0.067,0.9712,6.895,1.3212,0,0,0,0.3430000000007567
-0.1773,1.0307,-0.0235,0.1991,0.2106,0.067,4.41,6.37,-2.4062,0,0,0,0.3430000000007567
-0.1773,1.0307,-0.0235,0.201,0.2086,0.057,4.41,6.37,-2.4062,0,0,0,0.35900000000401633
-0.1817,1.0149,-0.0332,0.201,0.2086,0.057,4.9788,4.48,-6.4488,0,0,0,0.35900000000401633
-0.1717,1.008,-0.0218,0.201,0.2086,0.057,5.1975,2.0387,-8.68,0,0,0,0.375
-0.1628,0.996,-0.0293,0.2009,0.2085,0.0654,6.7812,1.1463,-10.395,0,0,0,0.3899999999994179
-0.1615,0.9999,-0.0406,0.2009,0.2085,0.0654,6.7812,1.1463,-10.395,0,0,0,0.3899999999994179
-0.1615,0.9999,-0.045,0.2006,0.2095,0.0681,8.8112,1.1287,-10.4738,0,0,0,0.4059999999954016
-0.1593,0.9985,-0.045,0.2006,0.2095,0.0681,9.0212,0.5425,-9.415,0,0,0,0.4059999999954016
-0.1555,0.9945,-0.0488,0.2006,0.2101,0.0542,9.0212,0.5425,-7.8925,0,0,0,0.4210000000020955
-0.1478,0.9963,-0.0525,0.2009,0.2101,0.0542,10.1587,-0.2187,-7.8925,0,0,0,0.4210000000020955
-0.1366,1.0084,-0.0505,0.2009,0.2101,0.0542,11.2087,-0.4462,-5.9588,0,0,0,0.43699999999807915
-0.1401,1.0304,-0.0488,0.2021,0.2111,0.0577,10.9462,0.2537,-3.99,0,0,0,0.43699999999807915
-0.1401,1.0304,-0.0488,0.2021,0.2111,0.0577,10.9462,0.2537,-3.99,0,0,0,0.4530000000013388
-0.1493,1.0426,-0.0475,0.2016,0.2112,0.0569,8.5662,0.735,-3.395,0,0,0,0.4530000000013388
-0.1518,1.0468,-0.0378,0.2016,0.2112,0.0569,6.2125,0.7175,-3.8763,0,0,0,0.4680000000007567
-0.1595,1.0582,-0.0367,0.2016,0.2112,0.0569,5.0225,1.6187,-4.6287,0,0,0,0.4680000000007567
-0.1717,1.0668,-0.0343,0.2009,0.2095,0.0555,5.0225,1.6187,-4.6287,0,0,0,0.48399999999674037
-0.1717,1.0668,-0.0187,0.2009,0.2095,0.0555,2.8087,2.4588,-5.5213,0,0,0,0.48399999999674037
-0.194,1.0624,-0.0294,0.201,0.2091,0.0555,0.07,2.7125,-7.4113,0,0,0,0.5020000000004075
-0.2207,1.0536,-0.0346,0.201,0.2091,0.0555,-2.0475,1.75,-9.17,0,0,0,0.5100000000020373
-0.2358,1.0363,-0.0364,0.201,0.2091,0.0555,-2.0475,1.75,-9.17,0,0,0,0.5180000000036671
-0.2537,1.0353,-0.0406,0.2033,0.2114,0.0524,-3.3863,-0.0088,-11.165,0,0,0,0.5260000000052969
-0.2538,1.0177,-0.0377,0.2033,0.2114,0.0524,-3.9462,-2.6075,-13.16,0,0,0,0.5339999999996508
-0.2538,1.0177,-0.0377,0.2051,0.2117,0.0575,-5.25,-5.7575,-12.8625,0,0,0,0.5370000000038999
-0.2494,0.9925,-0.0346,0.2051,0.2117,0.0575,-5.25,-5.7575,-12.8625,0,0,0,0.5370000000038999
-0.2508,1.0022,-0.0391,0.2051,0.2117,0.0575,-3.5,-7.9538,-11.4362,0,0,0,0.5529999999998836
-0.2458,1.0027,-0.0428,0.205,0.2131,0.063,-2.065,-10.1587,-9.4937,0,0,0,0.5529999999998836
-0.2314,0.9995,-0.0342,0.205,0.2131,0.063,-2.065,-12.3112,-7.3763,0,0,0,0.5689999999958673
-0.2314,0.9995,-0.0342,0.2042,0.2125,0.0565,-1.75,-12.3112,-7.3763,0,0,0,0.5689999999958673
-0.2314,1.0118,-0.0418,0.2042,0.2125,0.0565,-0.5512,-13.405,-5.2325,0,0,0,0.5839999999952852
-0.2162,1.0139,-0.0354,0.2042,0.2125,0.058,-1.3475,-14.1488,-3.4213,0,0,0,0.5839999999952852
-0.2073,1.0099,-0.0417,0.2046,0.2112,0.058,-1.3475,-14.1488,-1.1812,0,0,0,0.5999999999985448
-0.1925,1.0178,-0.042,0.2046,0.2112,0.058,-1.7325,-15.3825,-0.875,0,0,0,0.5999999999985448
-0.1845,1.018,-0.0457,0.2026,0.21,0.0568,-1.2075,-15.4,0.6475,0,0,0,0.6150000000052387
-0.1845,1.018,-0.0457,0.2026,0.21,0.0568,-1.12,-15.4175,0.9975,0,0,0,0.6150000000052387
-0.172,1.0134,-0.0445,0.2017,0.2105,0.0674,-1.12,-15.4175,0.9975,0,0,0,0.6309999999939464
-0.1661,1.0144,-0.0507,0.2017,0.2105,0.0674,-1.295,-14.7525,1.6712,0,0,0,0.646999999997206
-0.1623,1.0099,-0.0545,0.2017,0.2105,0.0674,-1.33,-14.245,2.1613,0,0,0,0.646999999997206
-0.1535,1.0074,-0.0558,0.2005,0.2116,0.0616,-1.0762,-13.79,1.0063,0,0,0,0.661999999996624
-0.1535,1.0074,-0.0558,0.2005,0.2116,0.0616,-1.0762,-13.79,1.0063,0,0,0,0.661999999996624
-0.1464,1.0028,-0.051,0.2006,0.2106,0.0652,-1.1113,-13.125,0.1925,0,0,0,0.6779999999998836
-0.1408,0.9984,-0.049,0.2006,0.2106,0.0652,-0.3063,-11.8038,-0.385,0,0,0,0.6779999999998836
-0.1317,0.9972,-0.0472,0.2006,0.2106,0.0652,-0.42,-10.08,-1.575,0,0,0,0.6929999999993015
-0.1271,0.9951,-0.0481,0.1978,0.209,0.0646,-0.42,-10.08,-1.575,0,0,0,0.6929999999993015
-0.1271,0.9945,-0.0483,0.1978,0.209,0.0646,-0.3063,-8.2075,-2.52,0,0,0,0.7089999999952852
-0.1273,0.9945,-0.0483,0.1987,0.2098,0.0656,0.9538,-5.9938,-3.1675,0,0,0,0.7089999999952852
-0.1234,0.9956,-0.0462,0.1987,0.2098,0.0656,1.0325,-4.0512,-4.3663,0,0,0,0.7249999999985448
-0.1207,0.9977,-0.0428,0.1987,0.2098,0.0656,1.0325,-4.0512,-4.3663,0,0,0,0.7249999999985448
-0.114,1.0017,-0.0392,0.1977,0.2096,0.0572,1.0588,-2.135,-4.6988,0,0,0,0.7399999999979627
-0.1149,1.0071,-0.0364,0.1977,0.2096,0.0572,1.5225,0.455,-5.67,0,0,0,0.7399999999979627
-0.1149,1.0071,-0.0364,0.1969,0.2092,0.063,1.5225,0.455,-6.9738,0,0,0,0.7560000000012224
-0.1233,1.0098,-0.0372,0.1969,0.2092,0.063,0.9625,2.835,-6.9738,0,0,0,0.7560000000012224
-0.1344,1.0121,-0.0326,0.1969,0.2092,0.063,0.9363,4.76,-7.9887,0,0,0,0.7710000000006403
-0.1505,1.0149,-0.0352,0.1991,0.2118,0.0676,1.26,6.5538,-9.94,0,0,0,0.7710000000006403
-0.1696,1.0142,-0.043,0.1991,0.2118,0.0676,1.26,6.5538,-9.94,0,0,0,0.786999999996624
-0.1696,1.0109,-0.0466,0.201,0.212,0.0602,2.0038,7.6562,-11.3488,0,0,0,0.786999999996624
-0.1848,1.0109,-0.0466,0.201,0.212,0.0602,2.7213,8.1988,-11.9525,-2.2373530904878103,-9.25759733991053,0.0,0.8029999999998836
-0.1901,1.0162,-0.0523,0.2014,0.2106,0.0711,3.7625,7.5338,-13.23,-2.853017498179548,-10.459039084169483,0.23354780002017214,0.8340000000025611
-0.1939,1.0169,-0.0504,0.2014,0.2106,0.0711,3.7625,7.5338,-13.23,-2.8394480720465713,-10.75244478711418,0.34655479996097127,0.8489999999947031
-0.1995,1.0244,-0.0511,0.2014,0.2106,0.0711,4.7337,6.51,-13.5013,-2.853814475998178,-10.983884473458074,0.34655479996097127,0.8489999999947031
-0.2041,1.0287,-0.0559,0.2026,0.2114,0.0614,5.53,6.3787,-14.4725,-3.0830459882257917,-11.187459540221461,0.34655479996097127,0.8489999999947031
-0.2041,1.0287,-0.0559,0.2026,0.2114,0.0614,4.8825,5.3987,-14.3675,-3.1072816773765113,-11.204406725670639,0.34655479996097127,0.8489999999947031
-0.2114,1.0336,-0.0551,0.2038,0.2134,0.0591,4.8825,5.3987,-14.3675,-3.0578759824078654,-11.514737200844653,0.432933999978569,0.8649999999979627
-0.2162,1.0335,-0.0559,0.2038,0.2134,0.0591,4.8562,4.6638,-13.9825,-3.0916185453160616,-11.774011391539576,0.432933999978569,0.8649999999979627
-0.22,1.0281,-0.059,0.2038,0.2134,0.0591,4.5062,3.9025,-13.4663,-3.2613623936098515,-12.033203460730176,0.432933999978569,0.8649999999979627
-0.2222,1.0257,-0.0578,0.204,0.2111,0.0475,4.375,3.6137,-12.8013,-3.229693391597756,-12.187896942571578,0.432933999978569,0.8649999999979627
-0.2222,1.0257,-0.0641,0.204,0.2111,0.0475,4.375,3.6137,-12.8013,-3.53385659271347,-12.198981680273656,0.49075319999034833,0.8810000000012224
-0.2245,1.0257,-0.0641,0.2058,0.2142,0.0604,3.8063,2.6513,-11.2788,-3.57048008666796,-12.30857958504495,0.49075319999034833,0.8810000000012224
-0.2236,1.0258,-0.0611,0.2058,0.2142,0.0604,2.8525,1.9863,-9.1438,-3.432853690988158,-12.280605554729926,0.5205476999891921,0.8960000000006403
-0.2216,1.0314,-0.0587,0.2058,0.2142,0.0604,2.8525,1.0675,-8.1112,-3.283561748581056,-12.137650083522582,0.5205476999891921,0.8960000000006403
-0.2217,1.0304,-0.0601,0.2061,0.2148,0.0619,2.6775,1.0675,-8.1112,-3.3297389017134957,-12.125271063526357,0.5376276999849047,0.911999999996624
-0.2205,1.0311,-0.0599,0.2061,0.2148,0.0619,1.7675,0.6212,-6.5712,-3.3256504588879725,-12.069202977454538,0.5376276999849047,0.911999999996624
-0.2205,1.0311,-0.0599,0.2062,0.213,0.0552,0.805,-0.07,-5.2413,-3.324954655250673,-12.05764758123508,0.5365776999849454,0.9269999999960419
-0.2175,1.0304,-0.0606,0.2062,0.213,0.0552,0.805,-0.07,-5.2413,-3.3570222183068434,-11.956387939907902,0.5365776999849454,0.9269999999960419
-0.2175,1.028,-0.059,0.2062,0.213,0.0552,-0.21,-0.9275,-4.4012,-3.3046509869224487,-11.942295473144778,0.5217376999819221,0.9429999999993015
-0.2153,1.0226,-0.0602,0.2069,0.2142,0.0574,-0.9887,-1.085,-3.9725,-3.346525644118495,-11.917956773752897,0.5217376999819221,0.9429999999993015
-0.2104,1.018,-0.0593,0.2069,0.2142,0.0574,-1.6275,-2.0125,-3.6837,-3.339537602721195,-11.872193953879146,0.4895376999753621,0.9590000000025611
-0.2104,1.018,-0.0584,0.2066,0.2128,0.0528,-1.6275,-2.0125,-3.6837,-3.3086707886392634,-11.834596353126932,0.4895376999753621,0.9590000000025611
-0.2026,1.0188,-0.0584,0.2066,0.2128,0.0528,-2.3363,-2.7387,-2.8263,-3.2992569784805057,-11.597565908495458,0.44845719999688294,0.9739999999947031
-0.1967,1.0161,-0.055,0.2034,0.2143,0.0595,-2.45,-3.22,-3.0275,-3.2423968167762456,-11.396022374792713,0.44845719999688294,0.9739999999947031
-0.1884,1.0144,-0.0563,0.2034,0.2143,0.0595,-2.625,-3.185,-2.5025,-3.2305664315645655,-10.958209165715429,0.397497199986501,0.9899999999979627
-0.1833,1.0135,-0.0587,0.2034,0.2143,0.0595,-2.625,-3.185,-2.5025,-3.2457280294536868,-10.602523275936033,0.397497199986501,0.9899999999979627
-0.1828,1.0101,-0.0584,0.207,0.2142,0.0634,-2.2487,-3.22,-2.8963,-3.269329000093814,-10.470820842680503,0.3491971999883753,1.0049999999973807
-0.1828,1.0101,-0.0584,0.207,0.2142,0.0634,-2.0213,-2.9313,-3.1937,-3.287212083384399,-10.421133270308232,0.3491971999883753,1.0049999999973807
-0.1825,1.0062,-0.0554,0.204,0.214,0.0568,-1.5488,-3.1937,-3.43,-3.21058165820344,-10.415158154582455,0.298097999977965,1.0210000000006403
-0.1835,1.0053,-0.0591,0.204,0.214,0.0568,-1.5488,-3.1937,-3.43,-3.2974326841357704,-10.411783473056458,0.298097999977965,1.0210000000006403
-0.1857,1.0075,-0.0573,0.204,0.214,0.0568,-0.4025,-3.0275,-3.6575,-3.2673997986379955,-10.414177110500814,0.24965799996809646,1.0370000000039
-0.1849,1.0091,-0.054,0.2053,0.2136,0.0684,0.175,-3.0538,-3.9638,-3.1139624243956763,-10.39915983256792,0.20385099999209333,1.0519999999960419
-0.1849,1.0091,-0.0576,0.2053,0.2136,0.0684,0.525,-2.345,-4.62,-3.2319234582029734,-10.381831006151996,0.20385099999209333,1.0519999999960419
-0.1868,1.0129,-0.0576,0.2044,0.2118,0.0579,0.525,-2.345,-4.62,-3.249488095035551,-10.40901680251108,0.1663309999844495,1.0679999999993015
-0.1918,1.0163,-0.0567,0.2044,0.2118,0.0579,0.9013,-1.9863,-5.915,-3.2051047241459374,-10.595073820329125,0.1663309999844495,1.0679999999993015
-0.1937,1.0177,-0.0585,0.2044,0.2118,0.0579,0.945,-2.2313,-6.4575,-3.2721863181240223,-10.717841671202718,0.13286149998574828,1.0829999999987194
-0.1976,1.0194,-0.0576,0.2055,0.2119,0.0683,0.945,-2.2313,-7.0788,-3.2419663472324234,-10.902050649805961,0.13286149998574828,1.0829999999987194
-0.2028,1.0194,-0.0633,0.2055,0.2119,0.0683,1.2163,-2.2313,-7.0788,-3.4917342203253554,-11.159217005554869,0.09716069997847507,1.099000000001979
-0.2028,1.0194,-0.0633,0.2058,0.214,0.0594,1.2163,-2.625,-7.8313,-3.541086369908265,-11.217183636041051,0.09716069997847507,1.099000000001979
-0.2076,1.0174,-0.063,0.2058,0.214,0.0594,0.4375,-3.36,-8.3475,-3.5428415743891524,-11.461340979812396,0.04340069999196993,1.1149999999979627
-0.2062,1.0172,-0.0683,0.2058,0.214,0.0594,0.4375,-3.36,-8.3475,-3.7716513572591803,-11.438876651294612,0.04340069999196993,1.1149999999979627
-0.2105,1.0172,-0.0675,0.206,0.2157,0.0578,0.6562,-3.3775,-8.5837,-3.7909817884239723,-11.629551429269224,-0.010639300019039469,1.1310000000012224
-0.2112,1.0146,-0.0704,0.206,0.2157,0.0578,0.2887,-3.9288,-8.12,-3.92609600253935,-11.713370127416107,-0.010639300019039469,1.1310000000012224
-0.2112,1.0146,-0.0704,0.2053,0.2146,0.0587,0.2275,-4.2438,-8.1025,-3.958628143850428,-11.72819489033329,-0.07854010000199498,1.146999999997206
-0.2103,1.0144,-0.0678,0.2053,0.2146,0.0587,0.2275,-4.2438,-8.1025,-3.856926329113614,-11.69430081546874,-0.07854010000199498,1.146999999997206
-0.2069,1.0135,-0.0684,0.2053,0.2145,0.0544,0.5163,-4.62,-7.9538,-3.8600460663994403,-11.545706016524292,-0.14784009999930578,1.161999999996624
-0.2056,1.0125,-0.0658,0.2061,0.2145,0.0544,0.3938,-4.6463,-7.7,-3.7517350922684054,-11.472331878312351,-0.14784009999930578,1.161999999996624
-0.2054,1.0142,-0.073,0.2061,0.2145,0.0544,0.4288,-4.4363,-7.0525,-4.031473537921988,-11.431544854725038,-0.21882090001376647,1.1779999999998836
-0.2039,1.0158,-0.0648,0.2069,0.2156,0.0554,0.4288,-4.4363,-7.0525,-3.739320982732875,-11.350307753390558,-0.21882090001376647,1.1779999999998836
-0.2039,1.0158,-0.0648,0.2069,0.2156,0.0554,0.385,-4.4275,-6.4662,-3.6711724010298976,-11.333306699949702,-0.2896609000281985,1.1940000000031432
-0.2004,1.0203,-0.0642,0.2066,0.2153,0.062,0.4812,-4.375,-6.16,-3.616804009696751,-11.156504207425092,-0.2896609000281985,1.1940000000031432
-0.1976,1.0202,-0.0629,0.2066,0.2153,0.062,-0.5425,-4.0775,-5.6087,-3.5549495319913698,-11.009978267044007,-0.35082339999615736,1.2089999999952852
-0.195,1.0192,-0.0658,0.2066,0.2153,0.062,-0.5425,-4.0775,-5.6087,-3.651830926109381,-10.87325603892347,-0.35082339999615736,1.2089999999952852
-0.1932,1.0182,-0.067,0.2071,0.2144,0.067,-0.5863,-3.57,-5.46,-3.7301098257805174,-10.77212290695444,-0.4079434000077942,1.2249999999985448
-0.1932,1.0182,-0.067,0.2071,0.2144,0.067,-1.0588,-2.3275,-5.39,-3.752329751460359,-10.738708612681432,-0.4079434000077942,1.2249999999985448
-0.1933,1.018,-0.0629,0.2062,0.2158,0.0612,-1.0588,-0.0875,-5.4862,-3.6134525238062505,-10.733862766587668,-0.4092559000077433,1.2399999999979627
-0.1937,1.0155,-0.0623,0.2062,0.2158,0.0612,-1.9688,-1.8988,-5.4862,-3.5654508677424936,-10.764226806862178,-0.4092559000077433,1.2399999999979627
-0.1931,1.0162,-0.0587,0.2062,0.2158,0.0612,-2.1175,-1.2513,-5.3113,-3.4562089491532526,-10.749612230665127,-0.43177930001233195,1.2580000000016298
-0.1917,1.0164,-0.0616,0.2052,0.2164,0.0469,-1.6275,-0.4988,-5.25,-3.462807700902607,-10.693380907967436,-0.43177930001233195,1.2580000000016298
-0.1945,1.0208,-0.0578,0.2052,0.2164,0.0469,-1.6275,-0.4988,-5.25,-3.3409086407944084,-10.742955278148573,-0.4397601000103286,1.2739999999976135
-0.1945,1.0208,-0.0578,0.2066,0.2149,0.0598,-1.6013,-0.035,-5.5213,-3.2854005568659406,-10.76167712338022,-0.4397601000103286,1.2739999999976135
-0.1956,1.021,-0.0551,0.2066,0.2149,0.0598,-2.0563,0.525,-5.9412,-3.1988531009430186,-10.810145528738666,-0.4318851000106342,1.2889999999970314
-0.1974,1.0188,-0.055,0.2066,0.2149,0.0598,-2.2313,0.91,-5.8538,-3.1575157174800315,-10.908703204477439,-0.4318851000106342,1.2889999999970314
-0.2022,1.0205,-0.0512,0.2063,0.2135,0.0565,-2.2313,0.91,-5.8538,-3.0490510055158095,-11.109410680050166,-0.41641510001079307,1.3059999999968568
-0.2047,1.0213,-0.0537,0.2063,0.2135,0.0565,-2.415,1.5925,-5.9062,-3.037268236576356,-11.257608147991974,-0.41641510001079307,1.3059999999968568
-0.2047,1.0213,-0.0537,0.2054,0.215,0.0554,-2.625,1.4525,-6.4313,-3.032329480855125,-11.303080347759234,-0.3946276000010702,1.3210000000035507
-0.205,1.0187,-0.0501,0.2054,0.215,0.0554,-2.7738,2.1525,-6.79,-3.0179906763256734,-11.350421823167386,-0.3946276000010702,1.3210000000035507
-0.2074,1.0186,-0.0512,0.2054,0.215,0.0609,-2.7738,2.1525,-6.79,-3.0087012888884885,-11.461307816058277,-0.3601876000097154,1.3369999999995343
-0.2103,1.0171,-0.0487,0.2072,0.2169,0.0609,-2.7213,1.96,-6.265,-2.9793428432643703,-11.614350533971365,-0.3601876000097154,1.3369999999995343
-0.2123,1.0155,-0.0481,0.2072,0.2169,0.0609,-2.3363,1.6712,-5.985,-2.8891885318363255,-11.743830615862539,-0.3334484000042679,1.353000000002794
-0.2121,1.0099,-0.0467,0.2066,0.2159,0.0599,-2.0475,1.2513,-6.2475,-2.782028686038209,-11.820878944919766,-0.3334484000042679,1.353000000002794
-0.2121,1.0099,-0.0467,0.2066,0.2159,0.0599,-2.0475,1.2513,-6.2475,-2.722400430685726,-11.841274575542842,-0.31467890001410065,1.367999999994936
-0.2128,1.0094,-0.0482,0.2066,0.2162,0.0608,-2.065,0.63,-5.7225,-2.727421636713557,-11.87606832848611,-0.31467890001410065,1.367999999994936
-0.2069,1.0081,-0.0439,0.2066,0.2162,0.0608,-1.6363,0.6037,-5.4338,-2.599426414998855,-11.68486096042388,-0.3050197000121328,1.3839999999981956
-0.2067,1.0094,-0.0427,0.2066,0.2162,0.0608,-1.89,0.6737,-4.5763,-2.5129199577870738,-11.620691729199391,-0.3050197000121328,1.3839999999981956
-0.2029,1.0118,-0.0478,0.2094,0.2159,0.0502,-1.89,0.6737,-4.5763,-2.606626816658663,-11.466436243483026,-0.29491420001252494,1.3989999999976135
-0.2029,1.0118,-0.0478,0.2094,0.2159,0.0502,-1.085,0.7788,-4.1213,-2.6692169780044033,-11.411441028057203,-0.29491420001252494,1.3989999999976135
-0.2053,1.0133,-0.0464,0.2079,0.2162,0.0586,-0.665,0.3237,-5.075,-2.6367116563793505,-11.43009855250605,-0.2897350000114698,1.4150000000008731
-0.2016,1.0137,-0.0448,0.2079,0.2162,0.0586,-0.665,0.3237,-5.0225,-2.563913139377347,-11.312811665038836,-0.2897350000114698,1.4150000000008731
-0.1938,1.0112,-0.0435,0.2079,0.2162,0.0586,-0.7175,0.5775,-5.0225,-2.49543505322492,-11.024970912836885,-0.2804950000095874,1.4310000000041327
-0.1887,1.0129,-0.0443,0.2078,0.2151,0.053,-0.9275,0.665,-5.3375,-2.501248773619526,-10.711193080865836,-0.2804950000095874,1.4310000000041327
-0.1731,1.0174,-0.0443,0.2078,0.2151,0.053,-1.1025,1.4963,-5.4687,-2.496147141430373,-10.00176178300252,-0.25805050002134533,1.4459999999962747
-0.1826,1.0174,-0.0443,0.2061,0.2147,0.0605,-1.1025,1.4963,-5.4687,-2.4942866795017884,-10.11091394206409,-0.25805050002134533,1.4459999999962747
-0.1785,1.0139,-0.0401,0.2061,0.2147,0.0605,-0.5425,2.24,-5.6525,-2.334353725421131,-10.019160736130805,-0.22221050001404374,1.4619999999995343
-0.1812,1.013,-0.0434,0.2061,0.2147,0.0605,-0.8138,3.71,-5.9938,-2.4140044251662647,-10.10026905462234,-0.22221050001404374,1.4619999999995343
-0.1835,1.012,-0.0449,0.207,0.2166,0.0499,-0.0875,4.5763,-6.4138,-2.5067655028403344,-10.22514042511759,-0.1535660000167075,1.4769999999989523
-0.1896,1.0106,-0.0536,0.207,0.2166,0.0499,-0.0875,4.5763,-6.4138,-2.895136811691199,-10.51334563478443,-0.1535660000167075,1.4769999999989523
-0.1896,1.0106,-0.0536,0.2074,0.2175,0.0519,0.4988,5.6087,-6.3963,-3.003566709375897,-10.586309572617814,-0.0638268000392339,1.492999999994936
-0.1898,1.0083,-0.0495,0.2074,0.2175,0.0519,0.9275,7.3412,-6.79,-2.8509875242633984,-10.633680235332072,-0.0638268000392339,1.492999999994936
-0.1884,1.0108,-0.0491,0.2074,0.2175,0.0519,1.085,8.4087,-7.0613,-2.795180307592247,-10.565005882085261,0.07071239998817534,1.5089999999981956
-0.1895,1.0121,-0.0552,0.2082,0.2161,0.051,1.085,8.4087,-7.0613,-3.0555616043897955,-10.58422444497267,0.07071239998817534,1.5089999999981956
-0.1904,1.0157,-0.0546,0.2082,0.2161,0.051,1.9863,9.0562,-7.1487,-3.0733498702800457,-10.598445562063315,0.20655539998290395,1.5239999999976135
-0.1904,1.0139,-0.0526,0.2086,0.2172,0.0558,2.135,10.2638,-7.8837,-2.9870993389231955,-10.617430815924095,0.20655539998290395,1.5239999999976135
-0.1936,1.0139,-0.0526,0.2086,0.2172,0.0558,2.4413,10.9637,-8.575,-2.9725341398951968,-10.766823497437668,0.38197460001864153,1.5400000000008731
-0.1956,1.0137,-0.0534,0.21,0.2166,0.0588,2.4413,10.9637,-8.575,-3.0086289636762267,-10.883715039803427,0.5464300999324884,1.554999999993015
-0.1988,1.0122,-0.0554,0.21,0.2166,0.0588,2.625,11.3925,-8.1988,-3.1136088958543473,-11.058519901324706,0.557822599976255,1.5559999999968568
-0.2062,1.0146,-0.0559,0.21,0.2166,0.0588,1.8813,12.005,-7.7088,-3.14658052115597,-11.392257646474349,0.557822599976255,1.5559999999968568
-0.2106,1.017,-0.0587,0.2085,0.2199,0.0541,1.8813,12.005,-7.42,-3.275993784519235,-11.622290402145989,0.7499026000153869,1.5720000000001164
-0.2106,1.017,-0.0587,0.2085,0.2199,0.0541,1.4612,12.4075,-7.42,-3.298216386439859,-11.66875990101586,0.7499026000153869,1.5720000000001164
-0.2131,1.0173,-0.0592,0.2094,0.2178,0.0496,1.4612,12.0312,-6.685,-3.324392638558105,-11.777716522440514,0.9424018000546042,1.588000000003376
-0.215,1.0188,-0.0638,0.2094,0.2178,0.0496,0.84,11.9175,-6.72,-3.528061543632861,-11.8664861181575,1.1211642999609561,1.602999999995518
-0.2197,1.0188,-0.0603,0.2094,0.2178,0.0496,0.84,11.9175,-6.72,-3.4172922027355974,-12.082236985638927,1.1211642999609561,1.602999999995518
-0.2214,1.0175,-0.0589,0.2098,0.2162,0.0485,0.525,10.9462,-6.3612,-3.3368538757872614,-12.211246924495645,1.1211642999609561,1.602999999995518
-0.2214,1.0175,-0.0613,0.2098,0.2162,0.0485,0.2625,10.465,-6.23,-3.4206789625854475,-12.24278832167071,1.2886042999950682,1.6189999999987776
-0.2247,1.0153,-0.0613,0.2095,0.2172,0.0483,-0.2362,8.9775,-6.09,-3.445567965327193,-12.397994790259371,1.4232667999898425,1.6339999999981956
-0.2261,1.0152,-0.0622,0.2095,0.2172,0.0483,-0.2362,8.9775,-6.09,-3.4892931194165904,-12.495663568504018,1.4232667999898425,1.6339999999981956
-0.2285,1.0186,-0.0602,0.2095,0.2172,0.0483,-0.07,8.4175,-5.6788,-3.410636389126697,-12.582896374490444,1.5579468000172805,1.6500000000014552
-0.2272,1.019,-0.0611,0.2121,0.2157,0.0412,-0.3938,7.4637,-5.3025,-3.4253754327048895,-12.559973007659512,1.5579468000172805,1.6500000000014552
-0.2276,1.019,-0.0595,0.2121,0.2157,0.0412,-0.2887,6.2038,-5.4513,-3.3652595043842757,-12.566624335767363,1.6572076000375024,1.6660000000047148
-0.2276,1.019,-0.0595,0.2115,0.2188,0.0458,-0.2887,6.2038,-5.4513,-3.3483536894472596,-12.568855211124854,1.6572076000375024,1.6660000000047148
-0.2286,1.02,-0.063,0.2115,0.2188,0.0458,-0.9187,4.9788,-5.2413,-3.4707930538859904,-12.594513640531263,1.7318895999983788,1.6809999999968568
-0.2248,1.0235,-0.0603,0.2115,0.2188,0.0458,-1.1375,3.3863,-5.1188,-3.408311501315395,-12.452810887033937,1.7318895999983788,1.6809999999968568
-0.2239,1.021,-0.0575,0.2106,0.219,0.0491,-1.2862,2.1613,-5.2937,-3.295639250300309,-12.386347057033987,1.7664704000054239,1.6970000000001164
-0.2216,1.0194,-0.0584,0.2106,0.219,0.0491,-1.2862,2.1613,-5.2937,-3.285388680738355,-12.294948796473948,1.7664704000054239,1.6970000000001164
-0.2216,1.0194,-0.0608,0.2117,0.2195,0.0459,-2.065,1.2775,-5.215,-3.3414005575930763,-12.262055865687866,1.7856329000046802,1.7119999999995343
-0.2234,1.0198,-0.0608,0.2117,0.2195,0.0459,-2.1437,0.4025,-5.5475,-3.3704561407728604,-12.311262771906117,1.7856329000046802,1.7119999999995343
-0.2236,1.0187,-0.0592,0.211,0.2165,0.0445,-2.135,-0.91,-5.6438,-3.351963950854572,-12.344391833759458,1.7710729000083352,1.727999999995518
-0.2188,1.016,-0.0596,0.211,0.2165,0.0445,-2.135,-0.91,-5.6438,-3.354139094494881,-12.19963215389929,1.7710729000083352,1.727999999995518
-0.2173,1.0138,-0.0567,0.211,0.2165,0.0445,-2.345,-1.4787,-5.5563,-3.303155904575064,-12.11843751916716,1.7474137000035153,1.7439999999987776
-0.2139,1.0127,-0.0562,0.2117,0.2194,0.0461,-1.1988,-2.3363,-5.88,-3.2242973472511443,-11.970257371218922,1.7474137000035153,1.7439999999987776
-0.2139,1.0127,-0.0562,0.2117,0.2194,0.0461,-1.1988,-2.3363,-5.775,-3.1944925231640817,-11.927377913233636,1.7123692000048751,1.7589999999981956
-0.2149,1.0128,-0.0537,0.2109,0.218,0.0466,-1.12,-3.22,-5.775,-3.093572895011698,-11.952402615073375,1.7123692000048751,1.7589999999981956
-0.213,1.0084,-0.052,0.2109,0.218,0.0466,-1.0063,-3.3688,-5.4425,-3.0018449149652695,-11.925359069096624,1.658468399993894,1.7750000000014552
-0.2131,1.0099,-0.0568,0.2109,0.218,0.0466,-0.6737,-3.465,-5.67,-3.1505895791117275,-11.905849152836437,1.658468399993894,1.7750000000014552
-0.2119,1.0147,-0.0524,0.2114,0.2186,0.0379,-0.6737,-3.465,-5.67,-3.017488864046743,-11.819540316538522,1.6064934000211222,1.7899999999935972
-0.2119,1.0147,-0.0516,0.2114,0.2186,0.0379,-0.3063,-3.6837,-5.1712,-2.941184879153883,-11.795124417029543,1.6064934000211222,1.7899999999935972
-0.2081,1.0133,-0.0516,0.2124,0.2204,0.0497,-0.4112,-3.6925,-5.1013,-2.922725206317885,-11.668434083110832,1.547413400009086,1.8059999999968568
-0.2067,1.0138,-0.0531,0.2124,0.2204,0.0497,-0.0263,-3.36,-5.0138,-2.978472268666631,-11.57138337703704,1.547413400009086,1.8059999999968568
-0.2097,1.0128,-0.0559,0.2124,0.2204,0.0497,-0.0263,-3.36,-5.0138,-3.1118319367986715,-11.637607275620923,1.4936533999981336,1.8220000000001164
-0.2069,1.0142,-0.0536,0.2098,0.2181,0.0553,-0.2187,-3.4825,-5.0225,-3.0491219547138355,-11.562826629946564,1.4936533999981336,1.8220000000001164
-0.2067,1.0121,-0.0529,0.2098,0.2181,0.0553,-0.455,-3.3512,-5.2762,-3.0088435856043985,-11.540026125179187,1.4433854000000843,1.8369999999995343
-0.2067,1.0121,-0.0529,0.2113,0.2177,0.0508,-0.035,-3.255,-5.7312,-2.996412551250606,-11.53127415082223,1.4433854000000843,1.8369999999995343
-0.2078,1.0116,-0.0581,0.2113,0.2177,0.0508,-0.035,-3.255,-5.7312,-3.2107977289936396,-11.571633657010523,1.3913053999894742,1.853000000002794
-0.2101,1.0125,-0.058,0.2113,0.2177,0.0508,0.3675,-3.1325,-5.7225,-3.262461620333695,-11.663446143363524,1.3913053999894742,1.853000000002794
-0.2083,1.0107,-0.0558,0.2124,0.217,0.0554,0.2275,-3.4475,-6.0113,-3.1851990613658443,-11.638070048434027,1.3395929000165647,1.867999999994936
-0.2091,1.0128,-0.0562,0.2124,0.217,0.0554,0.8313,-3.0712,-5.7663,-3.1780225606539196,-11.644853602861934,1.3395929000165647,1.867999999994936
-0.2091,1.0128,-0.0641,0.2119,0.2183,0.048,0.8313,-3.0712,-5.7663,-3.526589328045288,-11.643268809611044,1.2904537000065537,1.8839999999981956
-0.211,1.0141,-0.0641,0.2119,0.2183,0.048,1.1812,-2.9488,-6.125,-3.5988372468772023,-11.706898225807045,1.2904537000065537,1.8839999999981956
-0.21,1.0167,-0.0578,0.2119,0.2197,0.0585,0.5425,-3.1937,-5.9763,-3.3324450652732174,-11.667700092557865,1.2393544999961434,1.9000000000014552
-0.2086,1.0142,-0.0595,0.2114,0.2197,0.0585,0.5425,-3.0888,-5.9062,-3.35180367359064,-11.621875598846906,1.2393544999961434,1.9000000000014552
-0.2106,1.0146,-0.0608,0.2114,0.2197,0.0585,0.6212,-3.0888,-5.9062,-3.411988679367795,-11.681462501459958,1.1930224999979413,1.9150000000008731
-0.2094,1.0147,-0.062,0.2123,0.2197,0.0478,0.4988,-3.115,-5.67,-3.4770646208374756,-11.652355013268425,1.1930224999979413,1.9150000000008731
-0.2094,1.0147,-0.062,0.2123,0.2197,0.0478,0.14,-3.0013,-5.1712,-3.4916437148906434,-11.64402278158467,1.1450016999881583,1.9310000000041327
-0.2096,1.0142,-0.0575,0.2126,0.2182,0.0562,0.14,-3.0013,-5.1712,-3.306828767924897,-11.6531139583132,1.0999822000117425,1.9459999999962747
-0.2076,1.0142,-0.0615,0.2126,0.2182,0.0562,0.0088,-3.2113,-5.1887,-3.427733717766166,-11.586423109330088,1.0999822000117425,1.9459999999962747
-0.2088,1.0166,-0.0647,0.2126,0.2182,0.0562,0.2975,-3.4213,-5.7663,-3.5899631337941136,-11.584593030675766,1.0452414000005903,1.9619999999995343
-0.2069,1.0147,-0.0601,0.2102,0.2198,0.0559,0.6737,-2.7213,-5.7312,-3.4339682663191495,-11.529508910805589,1.0452414000005903,1.9619999999995343
-0.2069,1.0147,-0.0757,0.2102,0.2198,0.0559,0.6737,-2.7213,-5.7312,-4.0822843165911165,-11.504670804533736,1.0017006000115198,1.977999999995518
-0.2066,1.017,-0.0628,0.2112,0.2185,0.0498,0.2187,-2.975,-5.2063,-3.668589212863305,-11.477544053211634,1.0017006000115198,1.977999999995518
-0.2076,1.0158,-0.0597,0.2112,0.2185,0.0498,0.6125,-2.2838,-5.1363,-3.431937900153087,-11.511058730319826,0.9674435999962323,1.993000000002212
-0.2069,1.0166,-0.0645,0.2112,0.2185,0.0498,0.5512,-1.4875,-4.97,-3.5852265550488367,-11.49322576987127,0.9674435999962323,1.993000000002212
-0.2077,1.0152,-0.061,0.2124,0.2176,0.0395,0.5512,-1.4875,-4.97,-3.471939636650909,-11.522693227464167,0.9436436000022066,2.0089999999981956
-0.2108,1.0112,-0.0647,0.2124,0.2176,0.0395,-0.4288,-2.1175,-4.9088,-3.60564293305122,-11.658082110870897,0.9436436000022066,2.0089999999981956
-0.2108,1.0112,-0.0647,0.2111,0.2198,0.051,-0.245,-2.1,-5.1275,-3.6456124735421094,-11.716766776220899,0.912143600003429,2.0239999999976135
-0.2125,1.014,-0.0642,0.2111,0.2198,0.051,-0.1138,-1.7325,-5.0925,-3.6288904368153347,-11.776294095464062,0.912143600003429,2.0239999999976135
-0.2137,1.0139,-0.0594,0.2111,0.2198,0.051,-0.1138,-1.7325,-5.0925,-3.4268598503537233,-11.84184992143897,0.8844235999977816,2.040000000000873
-0.2134,1.014,-0.06,0.2106,0.2193,0.0518,0.1663,-1.6888,-4.6025,-3.3964380955815456,-11.85388408702106,0.8844235999977816,2.040000000000873
-0.211,1.0163,-0.0653,0.2106,0.2193,0.0518,0.035,-1.61,-3.8763,-3.6042037760700745,-11.810975364276741,0.8586636000042479,2.055999999996857
-0.211,1.0163,-0.0653,0.2101,0.2189,0.0466,-0.4025,-1.505,-3.0013,-3.6553929867942094,-11.777297768714144,0.8586636000042479,2.055999999996857
-0.2061,1.0149,-0.0624,0.2101,0.2189,0.0466,-0.4025,-1.505,-3.0013,-3.5581552051599057,-11.675471765362808,0.836088600005124,2.0709999999962747
-0.2042,1.0186,-0.0605,0.2101,0.2189,0.0501,-0.5163,-0.9625,-3.0625,-3.44689084745422,-11.571565724919198,0.836088600005124,2.0709999999962747
-0.2043,1.0188,-0.0597,0.2106,0.2177,0.0501,-0.7,-0.5775,-3.7362,-3.383268887240789,-11.518693257826579,0.8268486000032416,2.0869999999995343
-0.2053,1.0149,-0.0606,0.2106,0.2177,0.0501,-0.7,-0.5775,-3.92,-3.4063361470253737,-11.486818911276085,0.8268486000032416,2.0869999999995343
-0.2062,1.0114,-0.0635,0.211,0.2183,0.0558,-0.7962,-0.3063,-3.92,-3.531469967945534,-11.491301467413175,0.8222541000034198,2.1019999999989523
-0.2062,1.0114,-0.0635,0.211,0.2183,0.0558,-0.1575,0.3325,-4.6638,-3.5759897950722275,-11.496720197723977,0.8222541000034198,2.1019999999989523
-0.2098,1.0139,-0.0622,0.2114,0.218,0.0484,-0.5775,0.2625,-4.6725,-3.5305729885107695,-11.59107538283225,0.8264541000042754,2.118000000002212
-0.2086,1.0131,-0.0615,0.2114,0.218,0.0484,-0.5775,0.2625,-4.6725,-3.491221435219653,-11.603567300139646,0.8264541000042754,2.118000000002212
-0.209,1.0148,-0.0632,0.2114,0.218,0.0484,-1.0063,0.4375,-4.8825,-3.538151487292499,-11.61059307180726,0.8334541000025183,2.1339999999981956
-0.2119,1.0135,-0.0634,0.2111,0.2199,0.0548,-0.5425,0.56,-5.0487,-3.5669795961411013,-11.718443490357627,0.8334541000025183,2.1339999999981956
-0.2119,1.0135,-0.0634,0.2111,0.2199,0.0548,-0.6125,0.6562,-4.6463,-3.575627616754161,-11.755366894652754,0.8432971000021363,2.1489999999976135
-0.2107,1.014,-0.0594,0.2114,0.2198,0.0489,-0.6125,0.6562,-4.6463,-3.4215677644046854,-11.735691511128893,0.8432971000021363,2.1489999999976135
-0.2048,1.0177,-0.0586,0.2114,0.2198,0.0489,-0.1575,0.1312,-4.795,-3.3296905670926153,-11.521460105614553,0.8453963000025639,2.165000000000873
-0.204,1.0204,-0.0589,0.2114,0.2198,0.0489,-1.085,0.0875,-4.445,-3.313046484721773,-11.405854899300115,0.8453963000025639,2.165000000000873
-0.2043,1.0214,-0.0587,0.2104,0.2183,0.0542,-1.3212,-0.0962,-4.7075,-3.2986369885652578,-11.343354874559774,0.8439533000026199,2.180000000000291
-0.2043,1.019,-0.0574,0.2104,0.2183,0.0542,-1.3212,-0.0962,-4.7075,-3.2536071214164726,-11.330150741385362,0.8439533000026199,2.180000000000291
-0.21,1.019,-0.0574,0.2111,0.2169,0.0488,-1.7062,0.0613,-5.4425,-3.2378713063858533,-11.52701538485664,0.8449341000028198,2.1960000000035507
-0.2147,1.0131,-0.0575,0.2111,0.2169,0.0488,-1.6538,-0.21,-6.2737,-3.2436063137204845,-11.836321948302,0.8449341000028198,2.1960000000035507
-0.2214,1.0072,-0.0615,0.2111,0.2169,0.0488,-1.4963,-1.3913,-6.755,-3.3874674203756348,-12.249368416985599,0.8226733000084077,2.2119999999995343
-0.224,1.0074,-0.0642,0.2112,0.2171,0.048,-1.4963,-1.3913,-6.755,-3.5361593707177255,-12.450293778946794,0.8226733000084077,2.2119999999995343
-0.2228,1.0089,-0.0618,0.2112,0.2171,0.048,-0.4812,-1.785,-7.21,-3.514449407814011,-12.434634730664325,0.7958983000094466,2.2269999999989523
-0.2228,1.0089,-0.0618,0.2111,0.2185,0.0442,-0.5425,-1.9775,-7.0087,-3.508045401347789,-12.43137043654621,0.7958983000094466,2.2269999999989523
-0.2151,1.0141,-0.0574,0.2111,0.2185,0.0442,-0.5425,-4.2175,-6.8338,-3.3208904110873574,-12.06561704411811,0.7284183000263855,2.242999999994936
-0.2153,1.0178,-0.0592,0.2111,0.2185,0.0442,-0.245,-2.5725,-6.8338,-3.3266311658332692,-11.95675535517374,0.7284183000263855,2.242999999994936
-0.2129,1.0208,-0.0597,0.2112,0.2194,0.0458,0.1138,-2.4675,-6.3787,-3.3418899102125588,-11.81130637534907,0.6914058000098684,2.25800000000163
-0.214,1.0201,-0.0539,0.2112,0.2194,0.0458,0.4375,-2.555,-5.5825,-3.0986803861206997,-11.825250944968412,0.6914058000098684,2.25800000000163
-0.214,1.0194,-0.0549,0.2108,0.2186,0.0431,0.4375,-2.555,-5.5825,-3.086430453071238,-11.834667187678692,0.65052580000154,2.2740000000048894
-0.2139,1.0194,-0.0549,0.2108,0.2186,0.0431,0.2013,-2.8,-5.1013,-3.0836206279179783,-11.834097248742422,0.65052580000154,2.2740000000048894
-0.2167,1.0174,-0.0554,0.2106,0.2187,0.0556,0.1488,-3.0712,-5.1537,-3.108507869547095,-11.942390998631307,0.6013866000362209,2.289999999993597
-0.2164,1.0155,-0.0554,0.2106,0.2187,0.0556,-0.6212,-2.9662,-4.8038,-3.118257095977354,-11.982336383589056,0.5568936000163656,2.305000000000291
-0.2169,1.0163,-0.0522,0.2106,0.2187,0.0556,-0.6212,-2.9662,-4.8038,-2.9954984289858086,-12.010718516478867,0.5568936000163656,2.305000000000291
-0.2145,1.0133,-0.0543,0.2126,0.2189,0.0487,-0.455,-2.7213,-4.9437,-3.0461818997465566,-11.965939855018663,0.5133528000272952,2.3209999999962747
-0.2145,1.0133,-0.0543,0.2126,0.2189,0.0487,-0.8662,-2.8963,-4.48,-3.060270529646316,-11.950672206494302,0.5133528000272952,2.3209999999962747
-0.2161,1.0134,-0.0572,0.2111,0.219,0.0519,-0.6562,-3.01,-4.4187,-3.1771483083722853,-11.983953324259979,0.46820280000714665,2.3360000000029686
-0.2142,1.0129,-0.0526,0.2111,0.219,0.0519,-0.6562,-3.01,-4.4187,-3.036825586494831,-11.955213425922002,0.46820280000714665,2.3360000000029686
-0.2115,1.0117,-0.0519,0.2111,0.219,0.0519,-0.3237,-2.6337,-4.0338,-2.9651281265162357,-11.896641520735214,0.4260636000177245,2.3519999999989523
-0.2104,1.0108,-0.0509,0.2127,0.218,0.051,-0.0437,-2.87,-3.7975,-2.9044305597206104,-11.858934008493678,0.4260636000177245,2.3519999999989523
-0.2104,1.0155,-0.0554,0.2127,0.218,0.051,-0.0613,-2.3275,-3.9725,-3.064964844596961,-11.801923386281816,0.3888236000270725,2.367999999994936
-0.2075,1.0155,-0.0554,0.2113,0.2186,0.0501,-0.0613,-2.3275,-3.9725,-3.1073968291218055,-11.711543546624931,0.3888236000270725,2.367999999994936
-0.2081,1.0181,-0.0505,0.2113,0.2186,0.0501,-0.3938,-1.89,-3.2812,-2.917252817671649,-11.684060154428087,0.3604736000144211,2.38300000000163
-0.2081,1.016,-0.0527,0.2113,0.2186,0.0501,-0.4288,-1.33,-3.955,-2.954045665593928,-11.643617398975161,0.3604736000144211,2.38300000000163
-0.2108,1.0134,-0.0523,0.2106,0.2166,0.0513,-0.0175,-0.945,-4.095,-2.954252136709259,-11.678960820649765,0.3453536000182165,2.3989999999976135
-0.2084,1.0133,-0.0524,0.2106,0.2166,0.0513,-0.0175,-0.945,-4.095,-2.958686889812711,-11.651117229319224,0.3453536000182165,2.3989999999976135
-0.2084,1.0133,-0.0524,0.2079,0.2187,0.0498,0.315,-0.4288,-3.6488,-2.959878419734874,-11.644355945793615,0.3389216000184661,2.4139999999970314
-0.2094,1.0151,-0.0533,0.2079,0.2187,0.0498,0.245,0.0787,-3.7362,-2.994478635461553,-11.643476021158914,0.3389216000184661,2.4139999999970314
-0.2094,1.0195,-0.049,0.2079,0.2187,0.0498,0.245,0.0787,-4.235,-2.8110468135237943,-11.621947411226017,0.34018080001872264,2.430000000000291
-0.2094,1.0177,-0.049,0.2093,0.2186,0.0544,0.1925,-0.3413,-4.235,-2.7700384122539488,-11.618378998412368,0.34018080001872264,2.430000000000291
-0.2139,1.0162,-0.0533,0.2093,0.2186,0.0544,0.1312,-0.4638,-3.815,-2.9439788431170824,-11.683156605271364,0.3327600000205854,2.4459999999962747
-0.2139,1.0006,-0.0546,0.2088,0.2175,0.048,-0.1138,-0.7262,-3.9987,-3.0752910425063966,-11.809781183675629,0.3327600000205854,2.4459999999962747
-0.2169,1.0141,-0.0546,0.2088,0.2175,0.048,-0.1138,-0.7262,-3.9987,-3.0801120712530388,-11.894890790863512,0.3218670000157243,2.4610000000029686
-0.2169,1.0141,-0.0583,0.2118,0.2181,0.0524,-0.6125,-0.875,-4.3313,-3.2252542907854402,-11.968268149327269,0.3218670000157243,2.4610000000029686
-0.2227,1.0157,-0.0538,0.2118,0.2181,0.0524,-0.1312,-1.3563,-4.1825,-3.0840653888913105,-12.127141184017889,0.30016620002117167,2.4769999999989523
-0.2205,1.0153,-0.0578,0.2118,0.2181,0.0524,-0.0437,-1.5575,-4.5588,-3.212440701975343,-12.182767652580093,0.30016620002117167,2.4769999999989523
-0.2217,1.0164,-0.0596,0.2111,0.2178,0.0499,-0.0437,-1.5575,-4.5588,-3.3181465466864344,-12.235711045070724,0.27680370002207827,2.49199999999837
-0.2217,1.0164,-0.0596,0.2111,0.2178,0.0499,0.2187,-2.5375,-5.2587,-3.3465982449993357,-12.26689568612244,0.27680370002207827,2.49199999999837
-0.2178,1.0188,-0.058,0.2106,0.2174,0.0502,0.0437,-3.4125,-5.46,-3.281020201939344,-12.121314122545778,0.222203700035784,2.507999999994354
-0.2181,1.0193,-0.0552,0.2106,0.2174,0.0502,-0.07,-4.1475,-5.2325,-3.14782048534007,-12.082402857622297,0.222203700035784,2.507999999994354
-0.2155,1.0172,-0.0531,0.2106,0.2174,0.0502,-0.07,-4.1475,-5.2325,-3.03052366833184,-11.995243923573003,0.15584370002226466,2.5239999999976135
-0.2152,1.0148,-0.0519,0.2089,0.2175,0.0522,-0.7,-4.62,-4.9437,-2.9604199414614385,-11.972864461264097,0.15584370002226466,2.5239999999976135
-0.2152,1.0148,-0.0558,0.2089,0.2175,0.0522,-0.2975,-4.9,-5.1013,-3.0946209403029767,-11.961986502641174,0.08234369998946464,2.5390000000043074
-0.2147,1.0125,-0.0558,0.209,0.2171,0.0498,-0.2975,-5.0312,-5.04,-3.13757813294218,-11.957459543351659,0.0018445000096715958,2.555000000000291
-0.2142,1.0137,-0.0539,0.209,0.2171,0.0498,-0.2975,-5.0312,-5.04,-3.070122274987701,-11.931538654603456,0.0018445000096715958,2.555000000000291
-0.2152,1.0109,-0.0572,0.209,0.2171,0.0498,0.3675,-5.005,-4.9875,-3.198546670562877,-11.972248795073112,0.0018445000096715958,2.555000000000291
-0.2089,1.0086,-0.0531,0.2071,0.2171,0.0485,-0.1138,-5.3637,-5.0138,-3.063232508179996,-11.798423101446913,-0.07861099998720632,2.569999999999709
-0.2139,1.0114,-0.0571,0.2071,0.2171,0.0485,-0.1138,-5.3637,-5.25,-3.1862394002738204,-11.878206863891226,-0.07861099998720632,2.569999999999709
-0.2139,1.0114,-0.0571,0.2102,0.2178,0.0549,-0.1225,-5.39,-5.25,-3.2191815451355,-11.90690411833744,-0.1648509999655583,2.5859999999956926
-0.2162,1.0091,-0.0576,0.2102,0.2178,0.0549,0.3413,-5.32,-5.5213,-3.2555235350906533,-12.019068404616986,-0.1648509999655583,2.5859999999956926
-0.2106,1.0111,-0.0558,0.2102,0.2178,0.0549,0.5863,-5.425,-5.4513,-3.180630678969073,-11.839196632310292,-0.2516509999832418,2.6019999999989523
-0.2078,1.0111,-0.0582,0.2108,0.2187,0.0491,0.5863,-5.425,-5.4513,-3.2687016294258835,-11.676887364439645,-0.2516509999832418,2.6019999999989523
-0.2043,1.0085,-0.0588,0.2108,0.2187,0.0491,0.5863,-5.2238,-5.5912,-3.321445944294376,-11.511127715728314,-0.3300080000182093,2.617000000005646
-0.2043,1.0085,-0.0588,0.2092,0.2182,0.0482,0.6388,-4.9525,-5.0138,-3.3333902330685388,-11.463704874293432,-0.3300080000182093,2.617000000005646
-0.2042,1.01,-0.0604,0.2092,0.2182,0.0482,0.8138,-4.4538,-4.4713,-3.403234041206088,-11.436850581552756,-0.4012687999679157,2.632999999994354
-0.2031,1.0119,-0.0591,0.2092,0.2171,0.0529,0.8138,-4.4538,-4.4713,-3.3555858971350374,-11.383545397078233,-0.4012687999679157,2.632999999994354
-0.2017,1.013,-0.0615,0.2108,0.2171,0.0529,1.0762,-3.9813,-4.0775,-3.4501003851531933,-11.329592772537422,-0.46098829999456603,2.6480000000010477
-0.2023,1.0157,-0.062,0.2108,0.2171,0.0529,0.8225,-3.7625,-4.0775,-3.4838823799864347,-11.297228080222148,-0.5211882999794546,2.6639999999970314
-0.2029,1.02,-0.0631,0.2102,0.2172,0.0588,0.6037,-3.465,-3.955,-3.5273558806900356,-11.275130750162672,-0.5211882999794546,2.6639999999970314
-0.2029,1.02,-0.0631,0.2102,0.2172,0.0588,0.6037,-3.465,-3.955,-3.537128869914671,-11.26025227682497,-0.5766282999907492,2.680000000000291
-0.1971,1.0214,-0.0596,0.2105,0.2173,0.0562,0.525,-2.5988,-4.0775,-3.384724312779464,-11.12560751799727,-0.5766282999907492,2.680000000000291
-0.1978,1.0177,-0.0621,0.2105,0.2173,0.0562,1.1025,-2.38,-4.2962,-3.470200546253694,-11.059247519248567,-0.6123282999893638,2.694999999999709
-0.2009,1.0142,-0.0669,0.2105,0.2173,0.0562,1.2425,-1.6625,-4.7863,-3.714242664290292,-11.12834277954562,-0.6123282999893638,2.694999999999709
-0.2022,1.0124,-0.0656,0.2112,0.2174,0.0594,1.2425,-1.6625,-4.7863,-3.7087326420087092,-11.209793998818796,-0.6389282999826866,2.7109999999956926
-0.2022,1.0124,-0.0656,0.2112,0.2174,0.0594,1.2425,-1.2687,-4.6375,-3.707649512598743,-11.24312211209506,-0.6389282999826866,2.7109999999956926
-0.2029,1.0139,-0.0627,0.2098,0.2177,0.0522,1.6625,-0.8575,-4.4625,-3.569369004848211,-11.269180802407094,-0.6517907999884266,2.7260000000023865
-0.2032,1.0151,-0.0672,0.2098,0.2177,0.0522,0.7525,-0.7525,-3.7887,-3.7400315784810108,-11.27557208801731,-0.6517907999884266,2.7260000000023865
-0.2065,1.0191,-0.0679,0.2098,0.2177,0.0522,0.7525,-0.7525,-3.7887,-3.7962165278202535,-11.312926374781329,-0.6638307999854043,2.74199999999837
-0.2011,1.0215,-0.0648,0.2105,0.2173,0.056,0.8313,-0.1225,-3.1588,-3.6653573691028023,-11.266081380650743,-0.6638307999854043,2.74199999999837
-0.201,1.0227,-0.0647,0.2105,0.2173,0.056,1.0063,0.2275,-3.255,-3.6292952741617768,-11.236267268806818,-0.6601907999846627,2.75800000000163
-0.201,1.0227,-0.0647,0.2088,0.2162,0.052,1.0063,0.2275,-3.01,-3.6218612192335646,-11.192550635427047,-0.6601907999846627,2.75800000000163
-0.2019,1.0239,-0.0678,0.2088,0.2162,0.052,-0.35,-0.2887,-3.01,-3.740778035595251,-11.173201560866037,-0.6645212999823941,2.772999999993772
-0.2018,1.0219,-0.068,0.2088,0.2162,0.052,-1.295,-0.3413,-3.5,-3.781029447683841,-11.172426198260409,-0.6645212999823941,2.772999999993772
-0.2001,1.0187,-0.0653,0.2107,0.2174,0.0529,-1.295,-0.4812,-4.0075,-3.7121592075256378,-11.143865330949465,-0.6722204999839626,2.7889999999970314
-0.2018,1.0152,-0.0687,0.2107,0.2174,0.0529,-1.295,-0.4812,-4.0075,-3.8089332575325674,-11.169656169899083,-0.6722204999839626,2.7889999999970314
-0.2018,1.0152,-0.0687,0.2101,0.2176,0.05,-1.295,-0.7175,-3.7625,-3.8468893429625153,-11.180516582505309,-0.6829829999887654,2.8040000000037253
-0.2025,1.0142,-0.0704,0.2101,0.2176,0.05,-0.7088,-0.0962,-3.99,-3.9312705919971904,-11.209443127838648,-0.6829829999887654,2.8040000000037253
-0.2002,1.012,-0.0625,0.2101,0.2176,0.052,-0.7,-0.0175,-4.6375,-3.6603570556751452,-11.18785822302574,-0.6832629999886951,2.819999999999709
-0.2011,1.0127,-0.0655,0.2096,0.2166,0.052,-0.7,-0.0175,-4.6375,-3.6878402848758265,-11.199110969821085,-0.6832629999886951,2.819999999999709
-0.1973,1.0124,-0.0686,0.2096,0.2166,0.052,-0.6913,-0.0437,-4.9262,-3.816619323521623,-11.082933345836524,-0.6839621999888376,2.8360000000029686
-0.1973,1.0142,-0.065,0.2099,0.2169,0.0563,-0.98,0.2887,-4.8825,-3.719273301941719,-11.026581167677987,-0.6839621999888376,2.8360000000029686
-0.1962,1.0142,-0.065,0.2099,0.2169,0.0563,-1.5137,0.21,-4.4975,-3.6894640321995706,-10.976068036879656,-0.6808121999904877,2.8509999999951106
-0.1944,1.0112,-0.0583,0.209,0.2154,0.055,-1.5137,0.21,-4.4975,-3.4669101739147865,-10.919549133848873,-0.6808121999904877,2.8509999999951106
-0.196,1.0114,-0.0658,0.209,0.2154,0.055,-1.7587,0.2887,-4.5937,-3.599877184887333,-10.93294876504349,-0.6761929999895466,2.86699999999837
-0.1963,1.0124,-0.0658,0.209,0.2154,0.055,-1.3212,0.28,-4.725,-3.6715855568232194,-10.942827368874788,-0.6761929999895466,2.86699999999837
-0.1986,1.0149,-0.0619,0.2105,0.216,0.0572,-1.3212,0.8225,-4.4012,-3.562090523817976,-10.995448226098507,-0.6638554999840409,2.882000000005064
-0.1986,1.0149,-0.0619,0.2105,0.216,0.0572,-1.3212,0.8225,-4.4012,-3.518699208733899,-11.022693325075885,-0.6638554999840409,2.882000000005064
-0.1967,1.0135,-0.0609,0.2096,0.2159,0.0502,-0.91,0.7525,-4.8825,-3.465960400291558,-10.98839673460527,-0.6518154999870632,2.8980000000010477
-0.1939,1.0114,-0.0609,0.2096,0.2159,0.0502,-1.2075,0.6913,-4.6375,-3.453458916877454,-10.905005316466713,-0.6518154999870632,2.8980000000010477
-0.1958,1.0125,-0.0622,0.2096,0.2159,0.0502,-1.2075,0.6913,-5.1013,-3.4919008959297435,-10.917286813090744,-0.6407546999898397,2.9139999999970314
-0.1943,1.0148,-0.0556,0.2086,0.2172,0.0466,-1.0588,0.9275,-5.1013,-3.263785900579553,-10.858943329676372,-0.6407546999898397,2.9139999999970314
-0.1943,1.0158,-0.0578,0.2086,0.2172,0.0466,-1.6712,1.4175,-5.215,-3.2599458896476623,-10.828806315476491,-0.6194921999906647,2.9289999999964493
-0.1948,1.0158,-0.0578,0.2095,0.2172,0.053,-1.7062,1.0938,-4.9262,-3.2582037370878894,-10.83467300213138,-0.6194921999906647,2.9289999999964493
-0.1995,1.0163,-0.061,0.2095,0.2172,0.053,-1.7062,1.0938,-4.9262,-3.3522531169723857,-10.98398533838098,-0.6019913999870994,2.944999999999709
-0.2051,1.0144,-0.0589,0.2095,0.2172,0.053,-2.0563,1.0412,-5.53,-3.3393948513001095,-11.271955930194842,-0.5863733999877054,2.959999999999127
-0.2116,1.0126,-0.0638,0.2098,0.2168,0.0465,-1.3388,0.8487,-5.6962,-3.499137007550878,-11.622794658773556,-0.5863733999877054,2.959999999999127
-0.2128,1.0134,-0.0637,0.2098,0.2168,0.0465,-0.9712,0.5512,-6.0287,-3.5627786436138744,-11.776323474271948,-0.5775541999899192,2.9759999999951106
-0.2128,1.0134,-0.0637,0.2093,0.217,0.0421,-0.9712,0.5512,-6.0287,-3.5849269443438017,-11.819463021090614,-0.5775541999899192,2.9759999999951106
-0.2151,1.014,-0.0637,0.2093,0.217,0.0421,-0.2625,0.2362,-6.4837,-3.591918801378456,-11.920286757277154,-0.5737749999891493,2.99199999999837
-0.2103,1.0205,-0.0619,0.2093,0.217,0.0421,-0.14,-0.2975,-7.0613,-3.5037209138375616,-11.6881129805477,-0.5737749999891493,2.99199999999837
-0.2067,1.0221,-0.062,0.2093,0.2163,0.0442,-0.0263,-1.155,-6.9913,-3.4797729287387296,-11.473338304371755,-0.591099999988477,3.006999999997788
-0.2076,1.0206,-0.0637,0.2093,0.2163,0.0442,-0.0263,-1.155,-6.9913,-3.5474338413175484,-11.475351250563177,-0.591099999988477,3.006999999997788
-0.2076,1.0207,-0.0608,0.2114,0.2186,0.0479,-0.3675,-1.3475,-7.1137,-3.4487468098010416,-11.47645757127089,-0.6126599999928694,3.0230000000010477
-0.2051,1.0207,-0.0608,0.2114,0.2186,0.0479,-0.6125,-1.1287,-7.2362,-3.421233570810888,-11.370333551502322,-0.6126599999928694,3.0230000000010477
-0.213,1.0179,-0.058,0.2083,0.219,0.053,-0.9013,-1.2337,-6.5712,-3.3155652500950032,-11.695429400244583,-0.631165499983175,3.0379999999931897
-0.2127,1.0149,-0.0612,0.2083,0.219,0.053,-0.9013,-1.2337,-6.5712,-3.404882376671687,-11.78639297511951,-0.631165499983175,3.0379999999931897
-0.2114,1.0153,-0.0558,0.2083,0.219,0.053,-1.1725,-1.5838,-6.2213,-3.2427329066576664,-11.755683957563239,-0.6565062999883375,3.0539999999964493
-0.2106,1.0142,-0.0555,0.2098,0.2185,0.0509,-1.0325,-1.7675,-5.8888,-3.171550222643247,-11.726046092410291,-0.6565062999883375,3.0539999999964493
-0.2106,1.0142,-0.0555,0.2098,0.2185,0.0509,-1.0325,-1.4963,-5.5563,-3.1462375118549835,-11.717763534095448,-0.680447099993215,3.069999999999709
-0.2089,1.0147,-0.0553,0.2079,0.2157,0.0471,-1.4438,-1.4963,-5.5563,-3.1306187305682505,-11.649232461096084,-0.680447099993215,3.069999999999709
-0.2089,1.0139,-0.0542,0.2079,0.2157,0.0471,-1.47,-1.3737,-5.5037,-3.0897069728905877,-11.633615936055923,-0.7010525999924153,3.084999999999127
-0.2078,1.0164,-0.054,0.2079,0.2157,0.0471,-1.3125,-1.1463,-6.0813,-3.060350774787729,-11.565114446649151,-0.7010525999924153,3.084999999999127
-0.207,1.0135,-0.0552,0.2106,0.2176,0.0417,-1.3125,-1.1463,-6.0813,-3.0949417491549696,-11.537449086104854,-0.7193933999961518,3.1010000000023865
-0.207,1.0128,-0.058,0.2106,0.2176,0.0417,-1.3825,-1.05,-6.3175,-3.203399073328504,-11.534050459998912,-0.7193933999961518,3.1010000000023865
-0.2077,1.0128,-0.058,0.2084,0.2177,0.0507,-1.4875,-0.9712,-6.0287,-3.246107196879154,-11.560478858624913,-0.7339613999885201,3.1159999999945285
-0.2059,1.0094,-0.0523,0.2084,0.2177,0.0507,-0.8225,-0.525,-5.8012,-3.058693029027632,-11.52804949510729,-0.7339613999885201,3.1159999999945285
-0.2072,1.0093,-0.0533,0.2084,0.2177,0.0507,-0.8225,-0.525,-5.8012,-3.0347555474285435,-11.568190907337996,-0.7423613999902313,3.131999999997788
-0.2086,1.0107,-0.0555,0.2103,0.2183,0.0426,-0.6125,-0.6913,-5.4513,-3.109574954256836,-11.618945544710034,-0.7423613999902313,3.131999999997788
-0.2109,1.013,-0.0534,0.2103,0.2183,0.0426,-0.3063,-0.3063,-4.8038,-3.043548904369385,-11.690852413831442,-0.7472621999912298,3.1480000000010477
-0.2109,1.013,-0.0534,0.2118,0.2194,0.0554,-0.1663,0.0437,-5.0225,-3.0246088868801224,-11.7236396581244,-0.7472621999912298,3.1480000000010477
-0.2076,1.0151,-0.0506,0.2118,0.2194,0.0554,-0.1663,0.0437,-5.0225,-2.9001478461429255,-11.614577004949735,-0.7466066999912552,3.1630000000004657
-0.2081,1.0175,-0.0531,0.2118,0.2194,0.0554,-0.3413,-0.2275,-4.6638,-2.962472714097601,-11.575892794729786,-0.7466066999912552,3.1630000000004657
-0.2077,1.02,-0.0538,0.2105,0.2189,0.0433,-0.6475,-0.6913,-4.62,-3.0015074435354636,-11.532131751514907,-0.7576674999935086,3.1790000000037253
-0.2106,1.0178,-0.0532,0.2105,0.2189,0.0433,-1.1375,-0.1575,-4.6287,-2.9955779607705164,-11.608816053869218,-0.7576674999935086,3.1790000000037253
-0.2106,1.0178,-0.0538,0.2117,0.2174,0.0425,-1.1375,-0.1575,-4.6287,-3.014628437766139,-11.644147986861821,-0.7600299999922709,3.1939999999958673
-0.21,1.0135,-0.0538,0.2117,0.2174,0.0425,-1.155,-0.4025,-4.6025,-3.02968827197214,-11.6685999486486,-0.7600299999922709,3.1939999999958673
-0.2131,1.0122,-0.0563,0.2121,0.2166,0.0507,-0.4988,-0.7525,-4.97,-3.1375934804832,-11.790115794270687,-0.7720699999947238,3.209999999999127
-0.2119,1.0126,-0.0569,0.2121,0.2166,0.0507,-0.4462,-0.98,-5.4075,-3.193056450459784,-11.797461007715098,-0.7720699999947238,3.209999999999127
-0.2078,1.0122,-0.0512,0.2121,0.2166,0.0507,-0.4462,-0.98,-5.4075,-2.9832108598759253,-11.658612106971583,-0.7877499999979183,3.2260000000023865
-0.2095,1.0124,-0.0531,0.2129,0.2183,0.0505,-0.2537,-1.3475,-5.46,-2.997049722653223,-11.670065462900215,-0.7877499999979183,3.2260000000023865
-0.2095,1.0124,-0.0531,0.2129,0.2183,0.0505,0.14,-0.9538,-5.53,-3.001050523750888,-11.67393979994678,-0.8030107999940875,3.24199999999837
-0.2092,1.0159,-0.0561,0.2114,0.2175,0.0517,0.14,-0.9538,-5.67,-3.120690301970061,-11.636031066210732,-0.8030107999940875,3.24199999999837
-0.2076,1.0171,-0.0561,0.2114,0.2175,0.0517,-0.1575,-0.7525,-5.67,-3.1471916429464093,-11.555656660776018,-0.8150507999965404,3.25800000000163
-0.2084,1.0193,-0.055,0.2114,0.2175,0.0517,-0.6475,-0.4812,-5.4075,-3.106929608490297,-11.54451750676925,-0.8150507999965404,3.25800000000163
-0.2056,1.0138,-0.0536,0.212,0.2178,0.0516,-0.6475,-0.5863,-5.3725,-3.051610290094738,-11.481653549266584,-0.8238452999919332,3.272999999993772
-0.2056,1.0138,-0.0561,0.212,0.2178,0.0516,-0.6475,-0.5863,-5.3725,-3.131121084489258,-11.459024514618394,-0.8238452999919332,3.272999999993772
-0.2097,1.0125,-0.0561,0.2101,0.2176,0.0507,-0.455,-0.2887,-5.5037,-3.1594943973511413,-11.609665147495727,-0.8284644999928743,3.2889999999970314
-0.2094,1.0123,-0.054,0.2101,0.2176,0.0507,-0.5688,-0.0962,-5.5475,-3.085845734726999,-11.65106160464333,-0.8284644999928743,3.2889999999970314
-0.2141,1.0134,-0.0521,0.2101,0.2176,0.0507,-0.4288,0.07,-5.88,-2.984852288047686,-11.836976945111104,-0.8273444999926461,3.305000000000291
-0.212,1.0146,-0.0578,0.2116,0.2175,0.0514,-0.4288,0.07,-5.88,-3.17981485616166,-11.79921054256076,-0.8273444999926461,3.305000000000291
-0.2161,1.0174,-0.0553,0.2116,0.2175,0.0514,-0.6475,-0.0962,-5.2937,-3.132666084238717,-11.91241418094092,-0.8287874999925902,3.319999999999709
-0.2161,1.0174,-0.0553,0.211,0.2182,0.0487,-0.5775,-0.245,-5.25,-3.117775067171385,-11.952156565747375,-0.8287874999925902,3.319999999999709
-0.2153,1.0191,-0.0564,0.211,0.2182,0.0487,-0.6913,-0.14,-5.285,-3.1518580278126374,-11.925919220649492,-0.8310274999930465,3.3360000000029686
-0.2142,1.0165,-0.0567,0.211,0.2182,0.0487,-0.6913,-0.14,-5.285,-3.179699729740151,-11.89728419175727,-0.8331274999919464,3.3509999999951106
-0.2176,1.0167,-0.0545,0.2127,0.2178,0.0508,-0.49,-0.5775,-5.5738,-3.101572351486393,-12.01008979881561,-0.8331274999919464,3.3509999999951106
-0.217,1.0164,-0.0569,0.2127,0.2178,0.0508,-0.385,-0.6562,-5.88,-3.174522835648403,-12.026523592568731,-0.8436266999940853,3.36699999999837
-0.217,1.0164,-0.0569,0.2113,0.2192,0.0511,-0.5163,-1.1025,-5.9675,-3.19527083904875,-12.031392640307802,-0.8436266999940853,3.36699999999837
-0.2184,1.0151,-0.0559,0.2113,0.2192,0.0511,-0.5163,-1.1025,-5.9675,-3.1650057081937266,-12.097763233292566,-0.8612666999976791,3.38300000000163
-0.2145,1.0136,-0.0553,0.2113,0.2189,0.0498,-0.5337,-1.4787,-5.425,-3.135580716550411,-11.987775112242423,-0.8612666999976791,3.38300000000163
-0.2158,1.0144,-0.0541,0.2122,0.2189,0.0498,-0.35,-1.0412,-4.9525,-3.0764932595303693,-11.991086052319465,-0.8768846999970731,3.3980000000010477
-0.2159,1.0164,-0.0544,0.2122,0.2189,0.0498,-0.35,-1.1988,-4.41,-3.067342981987979,-11.983615614206482,-0.8768846999970731,3.3980000000010477
-0.2136,1.0157,-0.0519,0.211,0.2186,0.0454,-0.9013,-1.1988,-4.41,-2.973455072483069,-11.924252638342084,-0.8960655000009807,3.4140000000043074
-0.2136,1.0157,-0.0519,0.211,0.2186,0.0454,-1.2513,-2.0213,-4.3663,-2.9437718650770264,-11.894406005594222,-0.8960655000009807,3.4140000000043074
-0.213,1.015,-0.0567,0.2122,0.2191,0.0469,-1.19,-2.38,-4.305,-3.1018194443274187,-11.866797529950201,-0.9317654999822786,3.4289999999964493
-0.2123,1.0164,-0.0566,0.2122,0.2191,0.0469,-1.19,-2.38,-4.305,-3.1551138755600796,-11.827414667252812,-0.9317654999822786,3.4289999999964493
-0.2089,1.0163,-0.0535,0.2122,0.2191,0.0469,-0.8838,-2.3012,-4.5325,-3.061249150499802,-11.710104487535789,-0.9685846999897797,3.444999999999709
-0.2084,1.0148,-0.0546,0.211,0.217,0.0349,-0.91,-2.695,-5.0312,-3.073449454169919,-11.636066649593607,-0.9685846999897797,3.444999999999709
-0.2084,1.0148,-0.0546,0.211,0.217,0.0349,-1.2687,-2.73,-4.8825,-3.0773075708119126,-11.608302269413125,-1.0122646999986784,3.4610000000029686
-0.2093,1.0123,-0.0598,0.2118,0.2184,0.0505,-1.2687,-2.73,-4.8825,-3.2629371252718733,-11.639698704117167,-1.0122646999986784,3.4610000000029686
-0.2092,1.0152,-0.0571,0.2118,0.2184,0.0505,-0.84,-2.6163,-5.3812,-3.233765638212078,-11.630673527621143,-1.0515091999781194,3.4759999999951106
-0.2055,1.014,-0.0533,0.2118,0.2184,0.0505,-0.4288,-2.3275,-4.935,-3.0747530882019745,-11.51804444556226,-1.0515091999781194,3.4759999999951106
-0.2052,1.0133,-0.0575,0.2109,0.2202,0.0402,-0.4988,-2.2925,-5.2675,-3.1960675839553208,-11.461509145546334,-1.0881891999855922,3.49199999999837
-0.2055,1.0124,-0.0569,0.2109,0.2202,0.0402,-0.4988,-2.2925,-5.2675,-3.2106141336335847,-11.458340011738375,-1.0881891999855922,3.49199999999837
-0.2055,1.0124,-0.0569,0.2106,0.2195,0.0508,-0.805,-1.9162,-5.7137,-3.214775097048298,-11.457120568522479,-1.1169321999844768,3.506999999997788
-0.2069,1.0105,-0.0569,0.2106,0.2195,0.0508,-0.5337,-1.6975,-5.6262,-3.220411735780556,-11.523018224179689,-1.1169321999844768,3.506999999997788
-0.2065,1.0118,-0.052,0.2106,0.2195,0.0508,-0.5425,-1.68,-5.565,-3.0263443760648108,-11.521231220370844,-1.1438121999899529,3.5230000000010477
-0.2081,1.0134,-0.054,0.2106,0.2178,0.0493,-0.5425,-1.68,-5.565,-3.042959218717374,-11.566620030202733,-1.1438121999899529,3.5230000000010477
-0.2106,1.0145,-0.0561,0.2106,0.2178,0.0493,-0.7088,-1.4875,-5.4075,-3.1261694045274755,-11.661236744668798,-1.1676121999839786,3.5389999999970314
-0.2106,1.0145,-0.0561,0.2126,0.2179,0.0503,-0.6562,-1.3125,-5.8362,-3.152909644485172,-11.695561369401803,-1.1676121999839786,3.5389999999970314
-0.2112,1.013,-0.052,0.2126,0.2179,0.0503,-0.63,-1.155,-5.5738,-3.0052437602640163,-11.74047204169501,-1.1849371999833063,3.5539999999964493
-0.212,1.0128,-0.0522,0.2126,0.2179,0.0506,-0.63,-1.155,-5.5738,-2.967481407538119,-11.785746863291466,-1.1849371999833063,3.5539999999964493
-0.2125,1.0133,-0.0556,0.2104,0.2185,0.0506,-0.6913,-1.9688,-5.6525,-3.085756446092309,-11.813779510433626,-1.216437999989724,3.569999999999709
-0.216,1.0141,-0.0561,0.2104,0.2185,0.0506,-0.1575,-2.2662,-5.8187,-3.144509763310317,-11.94881546013986,-1.216437999989724,3.569999999999709
-0.2158,1.0124,-0.0567,0.2104,0.2192,0.0544,-0.1575,-2.2662,-5.6438,-3.1889818479839356,-11.993890239953341,-1.252697199980622,3.5859999999956926
-0.2158,1.0124,-0.0567,0.2104,0.2192,0.0544,0.0263,-2.3012,-5.6438,-3.201256405661171,-12.00809154752397,-1.252697199980622,3.5859999999956926
-0.2158,1.0106,-0.0519,0.2103,0.2189,0.0548,-0.0962,-2.7387,-6.02,-3.0096081680932127,-12.029797114687991,-1.2965163999895493,3.6019999999989523
-0.2163,1.0086,-0.0534,0.2103,0.2189,0.0548,0.0962,-3.5087,-6.1425,-3.025330546703205,-12.071888122139518,-1.2965163999895493,3.6019999999989523
-0.219,1.0122,-0.0542,0.2103,0.2189,0.0548,0.0962,-3.5087,-6.1425,-3.0549892714360993,-12.15887304523223,-1.3526555999754573,3.617999999994936
-0.2188,1.0152,-0.0545,0.212,0.2197,0.0386,0.5688,-3.745,-5.9763,-3.0688549574789294,-12.149390091711375,-1.3526555999754573,3.617999999994936
-0.2188,1.0152,-0.0545,0.212,0.2197,0.0386,0.6212,-3.465,-5.8625,-3.072007458476709,-12.146721880891121,-1.4046305999986515,3.63300000000163
-0.2175,1.0148,-0.0567,0.2122,0.2183,0.0487,0.5163,-3.5,-5.5912,-3.1690830195436375,-12.100550597170901,-1.4046305999986515,3.63300000000163
-0.2169,1.0125,-0.0578,0.2122,0.2183,0.0487,0.5163,-3.5,-5.5912,-3.24475086564222,-12.081284071807872,-1.4606306000100602,3.6490000000048894
-0.2181,1.0165,-0.0581,0.2122,0.2183,0.0487,0.7788,-3.5612,-5.67,-3.265550275519745,-12.08770088715535,-1.4606306000100602,3.6490000000048894
-0.2173,1.0158,-0.0541,0.2122,0.2196,0.0462,0.6562,-3.64,-4.9612,-3.096808411274758,-12.070003482202628,-1.515230599981457,3.6639999999970314
-0.2173,1.0148,-0.0563,0.2122,0.2196,0.0462,0.4462,-4.165,-5.0662,-3.157123920215442,-12.068932135797436,-1.515230599981457,3.6639999999970314
-0.2101,1.0148,-0.0563,0.2121,0.2182,0.0504,0.4462,-4.165,-5.0662,-3.1711807532353986,-11.829525392693972,-1.5818705999950333,3.680000000000291
-0.204,1.018,-0.0557,0.2121,0.2182,0.0504,-0.0613,-4.1213,-4.6287,-3.1422260005996336,-11.553377749550549,-1.5818705999950333,3.680000000000291
-0.2031,1.0235,-0.0576,0.2121,0.2182,0.0504,-0.5688,-4.025,-4.4275,-3.1969977014757047,-11.3836877866499,-1.6462705999788676,3.6959999999962747
-0.2025,1.0203,-0.0545,0.2122,0.2192,0.0481,-1.1025,-3.36,-4.1562,-3.1084267529984784,-11.313034049575908,-1.6462705999788676,3.6959999999962747
-0.2057,1.0169,-0.0562,0.2122,0.2192,0.0481,-1.1025,-3.36,-4.1562,-3.143283024631208,-11.356001395376593,-1.6966705999769118,3.7109999999956926
-0.2057,1.0169,-0.0562,0.213,0.2184,0.043,-0.77,-2.4413,-4.7688,-3.1567834608916203,-11.391371576158232,-1.6966705999769118,3.7109999999956926
-0.2104,1.0112,-0.0594,0.213,0.2184,0.043,-0.4988,-2.3363,-5.5213,-3.3005321696521874,-11.621812821968536,-1.7340513999845273,3.7269999999989523
-0.2178,1.0105,-0.0609,0.213,0.2184,0.043,-0.4988,-2.03,-5.7925,-3.404544928516754,-11.985375859575973,-1.7645013999833457,3.74199999999837
-0.2187,1.0092,-0.06,0.2127,0.2183,0.057,-0.0787,-2.03,-5.7925,-3.4029716234973897,-12.13987052879655,-1.7645013999833457,3.74199999999837
-0.2139,1.0133,-0.0565,0.2127,0.2183,0.057,-0.07,-1.9775,-5.81,-3.247463503057072,-11.973044847159162,-1.7961413999897915,3.75800000000163
-0.2139,1.0182,-0.0575,0.2122,0.2186,0.0522,0.6475,-1.6013,-5.5037,-3.235586978167939,-11.887636486014658,-1.7961413999897915,3.75800000000163
-0.2103,1.0182,-0.0575,0.2122,0.2186,0.0522,0.6475,-1.6013,-5.5037,-3.2329431277892917,-11.72951672613681,-1.8217621999833602,3.7739999999976135
-0.2083,1.0228,-0.0574,0.2108,0.2198,0.0516,0.8662,-1.4787,-5.0925,-3.216521198948215,-11.58357603482623,-1.8217621999833602,3.7739999999976135
-0.2072,1.0252,-0.0559,0.2108,0.2198,0.0516,0.28,-1.2687,-5.39,-3.1441708626101286,-11.46908270822558,-1.8407926999826216,3.7889999999970314
-0.21,1.0228,-0.0551,0.2108,0.2198,0.0516,-0.1488,-1.1025,-4.7337,-3.1000193733195522,-11.534526035927636,-1.8407926999826216,3.7889999999970314
-0.2115,1.019,-0.0562,0.2123,0.2176,0.0547,-0.1488,-1.1025,-4.7337,-3.141425635777356,-11.631551786670107,-1.8584326999862153,3.805000000000291
-0.2115,1.019,-0.0562,0.2123,0.2176,0.0547,-0.5075,-0.9013,-5.2587,-3.152182435006569,-11.680793198746182,-1.8584326999862153,3.805000000000291
-0.2178,1.0159,-0.0588,0.2114,0.2189,0.0462,-0.7875,-1.2337,-5.6,-3.260104873824446,-11.953085406506181,-1.8769381999854973,3.819999999999709
-0.2175,1.0133,-0.0584,0.2114,0.2189,0.0462,-0.77,-1.1725,-5.74,-3.2860163127470448,-12.051583411537909,-1.8769381999854973,3.819999999999709
-0.2159,1.0116,-0.0559,0.2114,0.2189,0.0462,-0.77,-1.1725,-5.74,-3.202936202542871,-12.036420979437205,-1.8956981999893192,3.8360000000029686
-0.2143,1.0083,-0.0548,0.2121,0.2194,0.0524,-1.0675,-1.1463,-5.4338,-3.1440421689396705,-12.000161648645172,-1.8956981999893192,3.8360000000029686
-0.2143,1.0081,-0.0562,0.2121,0.2194,0.0524,-1.2163,-1.1463,-5.88,-3.1730393955311187,-11.98811309031234,-1.9140389999847154,3.8519999999989523
-0.2151,1.0081,-0.0562,0.2108,0.2191,0.0522,-1.1725,-0.9887,-5.3987,-3.1841830119548633,-12.013425259144308,-1.9140389999847154,3.8519999999989523
-0.2157,1.0071,-0.0529,0.2108,0.2191,0.0522,-1.1725,-0.9887,-5.3987,-3.073192214614527,-12.052511280095871,-1.9288694999841398,3.86699999999837
-0.2173,1.0094,-0.0511,0.2108,0.2191,0.0522,-1.0063,-1.6013,-5.1188,-2.959772310776737,-12.103199860479522,-1.9288694999841398,3.86699999999837
-0.2163,1.0106,-0.0526,0.2131,0.2203,0.041,-0.8225,-1.33,-4.8212,-2.9729446315297268,-12.081226162510559,-1.950149499978798,3.882999999994354
-0.219,1.0121,-0.0539,0.2131,0.2203,0.041,-1.085,-1.3125,-4.48,-3.0210840712310003,-12.137281141075022,-1.950149499978798,3.882999999994354
-0.219,1.0121,-0.0539,0.2105,0.2179,0.0493,-1.085,-1.3125,-4.48,-3.038528223096639,-12.16516658192158,-1.9698369999875838,3.8980000000010477
-0.2156,1.0164,-0.0503,0.2105,0.2179,0.0493,-0.6125,-0.98,-4.375,-2.8967026688300685,-12.068598627655911,-1.9698369999875838,3.8980000000010477
-0.2156,1.0177,-0.0525,0.2105,0.2179,0.0493,-0.0875,-1.155,-4.34,-2.9380852766852685,-12.011483325526333,-1.9883169999913486,3.9140000000043074
-0.2149,1.017,-0.0529,0.2126,0.2185,0.06,-0.0875,-1.155,-4.6638,-2.9670816018008916,-11.959453637135095,-1.9883169999913486,3.9140000000043074
-0.2137,1.0181,-0.0524,0.2126,0.2185,0.06,-0.3588,-1.2775,-4.6638,-2.9522785399625664,-11.893960287318043,-2.008756999986218,3.930000000000291
-0.2137,1.0181,-0.0507,0.213,0.2191,0.0457,-1.085,-1.2163,-5.0138,-2.887634380133066,-11.861258209064468,-2.008756999986218,3.930000000000291
-0.2108,1.0175,-0.0507,0.213,0.2191,0.0457,-1.0675,-0.8575,-4.6638,-2.865199571077926,-11.768348065569121,-2.021619499985719,3.944999999999709
-0.2107,1.0141,-0.054,0.2106,0.2196,0.051,-1.0675,-0.8575,-4.6638,-2.9822244778726885,-11.742705974278246,-2.021619499985719,3.944999999999709
-0.2103,1.0143,-0.0526,0.2106,0.2196,0.051,-0.9625,-0.9187,-4.8475,-2.973333495492482,-11.716905275309713,-2.0363186999820293,3.9609999999956926
-0.2137,1.0113,-0.0526,0.2106,0.2196,0.051,-1.19,-0.91,-4.9175,-2.975868211284301,-11.834731420506454,-2.0363186999820293,3.9609999999956926
-0.2161,1.0099,-0.0516,0.2114,0.2198,0.0461,-1.0675,-1.2075,-5.1887,-2.943276272603604,-11.978930816988946,-2.054431199990112,3.9760000000023865
-0.2161,1.0099,-0.0516,0.2114,0.2198,0.0461,-1.0675,-1.2075,-5.1887,-2.931540446333662,-12.03196698342261,-2.054431199990112,3.9760000000023865
-0.2147,1.0091,-0.0542,0.2102,0.2185,0.0472,-0.4112,-1.3563,-4.6638,-3.032842949295488,-12.011618196292721,-2.076131999984665,3.99199999999837
-0.218,1.012,-0.0535,0.2102,0.2185,0.0472,-0.1575,-1.2862,-4.55,-3.027972098851397,-12.078365457603104,-2.076131999984665,3.99199999999837
-0.2147,1.017,-0.0517,0.2102,0.2185,0.0472,0.1575,-1.3737,-4.8125,-2.939605685205229,-11.979463647543817,-2.0981111999791477,4.007999999994354
-0.2127,1.0197,-0.0526,0.211,0.2182,0.0529,0.1575,-1.3737,-4.8125,-2.949590727737369,-11.857816105337633,-2.0981111999791477,4.007999999994354
-0.2127,1.0197,-0.0556,0.211,0.2182,0.0529,0.4375,-1.2513,-5.1013,-3.0809787222375715,-11.80054147768999,-2.1168806999875236,4.023000000001048
-0.2126,1.0197,-0.0556,0.2132,0.2179,0.0506,-0.0263,-1.4612,-5.5125,-3.110526042861831,-11.773363391988791,-2.1168806999875236,4.023000000001048
-0.2145,1.0179,-0.059,0.2132,0.2179,0.0506,-0.6125,-1.645,-5.1712,-3.253320925929965,-11.840745062387438,-2.1432006999809166,4.038999999997031
-0.2134,1.0177,-0.0551,0.2132,0.2179,0.0506,-0.6125,-1.645,-5.1712,-3.146790539285072,-11.83136620437332,-2.1432006999809166,4.038999999997031
-0.2128,1.0118,-0.0567,0.2117,0.2188,0.041,-0.42,-1.7237,-5.1275,-3.1897222870719117,-11.848704415213357,-2.1690561999799134,4.053999999996449
-0.2155,1.0138,-0.0573,0.2117,0.2188,0.041,-0.7262,-1.925,-5.425,-3.2204242874672757,-11.936881271614002,-2.1690561999799134,4.053999999996449
-0.2155,1.0138,-0.0573,0.2125,0.219,0.0505,-0.7262,-2.0038,-5.6,-3.2302696201201493,-11.967572452601953,-2.201116999986445,4.069999999999709
-0.2145,1.0133,-0.0539,0.2125,0.219,0.0505,-0.5863,-2.0038,-5.6,-3.101748279656521,-11.945951816669556,-2.2331777999783973,4.085999999995693
-0.2137,1.0094,-0.0534,0.2125,0.219,0.0505,-0.4375,-1.7763,-5.88,-3.049842584974396,-11.93988461480562,-2.2331777999783973,4.085999999995693
-0.2129,1.0131,-0.0535,0.2124,0.2183,0.0434,-0.4462,-1.3125,-5.425,-3.0308136940963575,-11.88160911642574,-2.252865299987183,4.1010000000023865
-0.2128,1.0144,-0.0498,0.2124,0.2183,0.0434,-0.4462,-1.3125,-5.425,-2.8753764872174914,-11.849985672271345,-2.252865299987183,4.1010000000023865
-0.2128,1.0144,-0.0511,0.2123,0.2193,0.0567,-0.3938,-1.8112,-5.32,-2.8813693776247673,-11.839011688777397,-2.2818444999799086,4.11699999999837
-0.2121,1.0125,-0.0511,0.2123,0.2193,0.0567,-0.5163,-2.2138,-5.6087,-2.8868592225666347,-11.82381217871217,-2.2818444999799086,4.11699999999837
-0.2123,1.0167,-0.0558,0.213,0.2187,0.055,-0.525,-1.5925,-5.0925,-3.064749263915986,-11.795089060696268,-2.3057319999789816,4.131999999997788
-0.2151,1.015,-0.0531,0.213,0.2187,0.055,-0.525,-1.5925,-5.0925,-3.015811405467827,-11.890497786885325,-2.3057319999789816,4.131999999997788
-0.2118,1.015,-0.0545,0.213,0.2187,0.055,-0.98,-1.855,-4.9088,-3.0533757031558566,-11.819576444559353,-2.3354119999715315,4.147999999993772
-0.2129,1.0132,-0.0551,0.2119,0.2179,0.0542,-1.0237,-1.5838,-4.9525,-3.091735672100169,-11.837565539545086,-2.3354119999715315,4.147999999993772
-0.2129,1.0132,-0.0551,0.2119,0.2179,0.0542,-0.8925,-1.715,-5.0487,-3.105665890554638,-11.84499365054653,-2.3628519999771216,4.163999999997031
-0.2136,1.0161,-0.0563,0.2122,0.2172,0.0498,-0.8925,-1.715,-5.0487,-3.149131945581716,-11.850470593292222,-2.3628519999771216,4.163999999997031
-0.2132,1.0157,-0.0553,0.2122,0.2172,0.0498,-0.7175,-1.8637,-5.0225,-3.1268697280040465,-11.842582495443883,-2.390807499989597,4.179000000003725
-0.2095,1.0167,-0.054,0.2122,0.2172,0.0498,-0.0962,-1.6712,-5.145,-3.0633910529120527,-11.707831111952254,-2.390807499989597,4.179000000003725
-0.2094,1.0164,-0.0566,0.2127,0.2203,0.0502,-0.455,-1.6625,-5.1625,-3.1507610126078847,-11.654976284404377,-2.41740749998292,4.194999999999709
-0.2094,1.0164,-0.0533,0.2127,0.2203,0.0502,-0.455,-1.6625,-5.1625,-3.045774378619457,-11.636591415936843,-2.41740749998292,4.194999999999709
-0.2094,1.0196,-0.0533,0.2124,0.2198,0.0522,-0.7088,-1.1463,-5.005,-3.009445370195279,-11.60857684260262,-2.434601999982253,4.209999999999127
-0.2083,1.0221,-0.0581,0.2124,0.2198,0.0522,-0.7962,-1.1638,-5.1363,-3.1733777710416144,-11.54124679128554,-2.434601999982253,4.209999999999127
-0.21,1.0196,-0.057,0.2124,0.2198,0.0522,-1.1025,-1.19,-5.4338,-3.1901316147619054,-11.5937107368226,-2.4536419999774735,4.225999999995111
-0.2151,1.0175,-0.0586,0.2133,0.2174,0.054,-1.1025,-1.19,-5.4338,-3.2574842924194254,-11.808211640785093,-2.4536419999774735,4.225999999995111
-0.217,1.0157,-0.0534,0.2133,0.2174,0.054,-1.5313,-1.1463,-5.0838,-3.1167152924560613,-11.953519013281605,-2.47198279998121,4.24199999999837
-0.217,1.0157,-0.0534,0.2122,0.2186,0.0498,-1.015,-1.3388,-5.6175,-3.047410017899525,-12.014947081870748,-2.47198279998121,4.24199999999837
-0.2169,1.0117,-0.0544,0.2122,0.2186,0.0498,-1.015,-1.4787,-5.67,-3.067112107327014,-12.062158485911871,-2.494163299991108,4.257000000005064
-0.2192,1.0138,-0.0561,0.2122,0.2186,0.0498,-1.1025,-1.4787,-5.67,-3.1307695601859042,-12.144819141606568,-2.494163299991108,4.257000000005064
-0.2186,1.0147,-0.0526,0.2132,0.2186,0.0478,-0.8138,-1.7237,-5.4075,-3.0213303244195258,-12.142814747228,-2.5217424999716433,4.272999999993772
-0.2159,1.0124,-0.0551,0.2132,0.2186,0.0478,-1.1463,-2.1525,-5.8975,-3.0804476417260678,-12.056570225855415,-2.5217424999716433,4.272999999993772
-0.2159,1.0124,-0.0537,0.2116,0.2205,0.0572,-1.1463,-2.1525,-5.8975,-3.0526316230150323,-12.032021579742619,-2.554029999986052,4.288000000000466
-0.2144,1.0114,-0.0537,0.2116,0.2205,0.0572,-0.8138,-2.065,-5.6962,-3.0436648925627527,-11.976957923110282,-2.554029999986052,4.288000000000466
-0.2144,1.0115,-0.0539,0.2111,0.2206,0.0514,-0.7875,-2.0125,-4.9788,-3.0480936988222203,-11.961321605559935,-2.586229999977969,4.303999999996449
-0.209,1.0086,-0.0497,0.2111,0.2206,0.0514,-0.6475,-1.7325,-4.9175,-2.892056467928574,-11.802757987039923,-2.586229999977969,4.303999999996449
-0.2067,1.0061,-0.0497,0.2111,0.2206,0.0514,-0.6475,-1.7325,-4.9175,-2.8480605770753926,-11.680431623452854,-2.6139499999836167,4.319999999999709
-0.2057,1.0049,-0.0514,0.2129,0.2213,0.0509,-0.7,-1.5225,-4.8387,-2.902641248105949,-11.60723701312892,-2.6139499999836167,4.319999999999709
-0.2057,1.0049,-0.0514,0.2129,0.2213,0.0509,-0.2887,-0.8575,-4.2438,-2.920934121847719,-11.583908087626313,-2.6268124999831177,4.334999999999127
-0.2073,1.0091,-0.05,0.2116,0.2202,0.0555,-0.0175,-0.9625,-4.2088,-2.8586614040887457,-11.588605015837638,-2.6268124999831177,4.334999999999127
-0.208,1.01,-0.0465,0.2116,0.2202,0.0555,-0.0175,-0.9625,-4.2088,-2.6941897333141718,-11.604010465586773,-2.642212499979252,4.350999999995111
-0.2087,1.0142,-0.0501,0.2116,0.2202,0.0555,-0.1312,-1.05,-4.62,-2.791987110054766,-11.609417788582208,-2.642212499979252,4.350999999995111
-0.2086,1.0164,-0.0522,0.2118,0.2178,0.0483,-0.385,-0.105,-4.97,-2.8972159555726216,-11.59365534859785,-2.647147499979875,4.398000000001048
-0.2086,1.0164,-0.0504,0.2118,0.2178,0.0483,-0.6475,-0.3413,-5.3375,-2.8570630059242026,-11.587466737090615,-2.647147499979875,4.398000000001048
-0.2088,1.0186,-0.0504,0.2122,0.22,0.0512,-0.6475,-0.3413,-5.3375,-2.840297279188302,-11.576515305634254,-2.647147499979875,4.398000000001048
-0.2087,1.0156,-0.0515,0.2122,0.22,0.0512,-0.6125,-0.1225,-5.6087,-2.8835461869717314,-11.591022345845104,-2.647147499979875,4.398000000001048
-0.2125,1.0092,-0.0522,0.2122,0.22,0.0512,-0.455,0.175,-6.2475,-2.9381047627369936,-11.800002440462798,-2.647147499979875,4.398000000001048
-0.2122,1.0127,-0.0512,0.213,0.2203,0.0531,-0.42,0.1488,-6.3,-2.9070845476399065,-11.814631162591954,-2.6449154999810447,4.41299999999319
-0.2114,1.0137,-0.0492,0.213,0.2203,0.0531,-0.42,0.1488,-6.3,-2.8161702644936493,-11.778945003344088,-2.6449154999810447,4.41299999999319
-0.2114,1.0137,-0.0492,0.2133,0.2205,0.0525,-0.385,0.3237,-6.0113,-2.789512328848391,-11.769896290364565,-2.6397362999799894,4.428999999996449
-0.2119,1.0138,-0.0515,0.2133,0.2205,0.0525,-0.28,0.6825,-6.125,-2.874808460610261,-11.785205035664488,-2.6397362999799894,4.428999999996449
-0.2143,1.0144,-0.0565,0.2133,0.2205,0.0525,-0.28,0.6825,-6.5275,-3.1001129244418006,-11.87989029410576,-2.629498799975421,4.444000000003143
-0.2147,1.0186,-0.0496,0.2128,0.2206,0.0594,-0.2362,0.3938,-6.5275,-2.874332859003196,-11.88665171692444,-2.629498799975421,4.444000000003143
-0.2144,1.0128,-0.0479,0.2128,0.2206,0.0594,-0.4988,0.3325,-6.79,-2.7575486402173914,-11.927302093833001,-2.6241787999767565,4.459999999999127
-0.2144,1.0128,-0.0479,0.2125,0.2199,0.048,-0.84,0.6562,-6.4575,-2.7243339180451147,-11.936475190548567,-2.6241787999767565,4.459999999999127
-0.2134,1.0139,-0.0508,0.2125,0.2199,0.048,-0.84,0.6562,-6.4575,-2.8204012844199475,-11.887675533920936,-2.6136795999746174,4.4760000000023865
-0.2114,1.0158,-0.0477,0.2125,0.2198,0.0507,-1.0588,0.6388,-6.405,-2.7358624632003132,-11.780170905694996,-2.6136795999746174,4.4760000000023865
-0.2083,1.0137,-0.045,0.2142,0.2198,0.0507,-1.2163,0.3588,-6.5363,-2.615632258523561,-11.644810745827918,-2.608297599977437,4.4909999999945285
-0.2115,1.0136,-0.0493,0.2142,0.2198,0.0507,-1.2862,1.2425,-6.6413,-2.7185487547533023,-11.742131845505169,-2.608297599977437,4.4909999999945285
-0.2186,1.0111,-0.0485,0.2134,0.2198,0.0548,-1.2862,1.2425,-6.6413,-2.7354126887163384,-12.079594023008944,-2.5884175999733867,4.506999999997788
-0.2186,1.0111,-0.0485,0.2134,0.2198,0.0548,-1.1025,1.1025,-6.5975,-2.742287546789437,-12.160220668856955,-2.5884175999733867,4.506999999997788
-0.2259,1.0086,-0.0507,0.2137,0.221,0.0519,-0.5775,1.3212,-6.9475,-2.836256391932154,-12.508773064713033,-2.568599599964543,4.522000000004482
-0.2305,1.0074,-0.0542,0.2137,0.221,0.0519,-0.3588,0.5512,-7.0175,-3.009826792619748,-12.790433755730044,-2.568599599964543,4.522000000004482
-0.2282,1.0122,-0.0538,0.2137,0.221,0.0519,-0.3588,0.5512,-7.0175,-3.033124430982283,-12.710186786425592,-2.5597803999667565,4.538000000000466
-0.2248,1.0173,-0.0483,0.213,0.222,0.0386,0.5688,0.6037,-7.1663,-2.789620273412054,-12.503214414954686,-2.5597803999667565,4.538000000000466
-0.2248,1.0173,-0.0483,0.213,0.222,0.0386,1.2163,0.84,-6.8162,-2.732378861113171,-12.460105124341228,-2.54634039997013,4.553999999996449
-0.225,1.0227,-0.0548,0.2145,0.2195,0.051,1.4,0.7525,-6.9563,-3.003346155835852,-12.40602542163287,-2.54634039997013,4.553999999996449
-0.2259,1.0149,-0.0512,0.2145,0.2195,0.051,1.4,0.7525,-6.9563,-2.9100153919976766,-12.504774734488088,-2.535052899970568,4.568999999995867
-0.2271,1.0155,-0.0539,0.2145,0.2195,0.051,1.925,0.1925,-6.72,-3.016027850393072,-12.568950239579127,-2.535052899970568,4.568999999995867
-0.2228,1.0249,-0.0492,0.2138,0.2208,0.0495,1.3913,-0.245,-6.4837,-2.799478022258574,-12.330108006551619,-2.5389728999713665,4.584999999999127
-0.2212,1.0232,-0.0489,0.2138,0.2208,0.0495,1.3913,-0.245,-6.16,-2.7482486678158153,-12.224499340979865,-2.5389728999713665,4.584999999999127
-0.2212,1.0232,-0.0489,0.2141,0.2202,0.0501,0.7,-0.6737,-6.16,-2.738815830698945,-12.195880564491578,-2.550425799971249,4.601999999998952
-0.2222,1.0192,-0.0514,0.2141,0.2202,0.0501,-0.2713,-0.7437,-5.6788,-2.845586875831361,-12.256338816691905,-2.550425799971249,4.601999999998952
-0.2237,1.0172,-0.0528,0.2141,0.2202,0.0501,-0.1225,-0.7962,-5.5125,-2.9375960926873934,-12.343886292349511,-2.563164999968051,4.617999999994936
-0.2265,1.0103,-0.0533,0.2137,0.2217,0.0539,-0.1225,-0.7962,-5.5125,-2.997810817280428,-12.528757967712128,-2.563164999968051,4.617999999994936
-0.229,1.0119,-0.0501,0.2137,0.2217,0.0539,0.0613,-0.3762,-5.425,-2.8762712162575363,-12.66623335311661,-2.5691841999692775,4.633999999998196
-0.229,1.0119,-0.0501,0.2156,0.2214,0.0533,-0.525,-0.5425,-5.39,-2.847045746004627,-12.712468193442396,-2.5691841999692775,4.633999999998196
-0.2279,1.011,-0.0514,0.2156,0.2214,0.0533,-0.5863,-1.3475,-5.4338,-2.8909940723245096,-12.695891693923539,-2.589396699968493,4.6489999999976135
-0.2275,1.0102,-0.0519,0.2156,0.2214,0.0554,-0.5863,-1.3475,-5.4338,-2.9256807513288297,-12.682229955065633,-2.589396699968493,4.6489999999976135
-0.2242,1.0113,-0.0519,0.2143,0.2222,0.0554,-0.6037,-1.1287,-4.97,-2.9340929175829134,-12.563344220547332,-2.607455899972172,4.665000000000873
-0.2217,1.0117,-0.0495,0.2143,0.2222,0.0554,-0.6125,-0.9363,-5.1275,-2.842252791025906,-12.427706304694208,-2.607455899972172,4.665000000000873
-0.2212,1.0113,-0.0474,0.2139,0.2201,0.0503,0.07,-1.19,-4.97,-2.724061265777014,-12.365952469652473,-2.6253058999714796,4.680000000000291
-0.2212,1.0113,-0.0474,0.2139,0.2201,0.0503,0.07,-1.19,-4.97,-2.6938690215893373,-12.341252793051458,-2.6253058999714796,4.680000000000291
-0.2234,1.0125,-0.0532,0.2152,0.2205,0.0542,-0.0088,-1.4525,-4.4275,-2.925912688436947,-12.382657180834663,-2.648545899965646,4.695999999996275
-0.2219,1.0095,-0.0512,0.2152,0.2205,0.0542,-0.28,-1.2163,-4.6025,-2.909751302567797,-12.38215373965696,-2.648545899965646,4.695999999996275
-0.2189,1.0093,-0.0489,0.2152,0.2205,0.0542,-0.525,-0.8313,-4.7775,-2.814738581752005,-12.291997935571013,-2.661846699968356,4.711999999999534
-0.2187,1.015,-0.0498,0.2155,0.2229,0.0487,-0.525,-0.8313,-4.7775,-2.8106657111095754,-12.208886783782798,-2.661846699968356,4.711999999999534
-0.2187,1.015,-0.0498,0.2155,0.2229,0.0487,-0.4375,-1.4438,-5.1625,-2.8094252233811803,-12.168934092176265,-2.6835036999675155,4.726999999998952
-0.2183,1.0171,-0.0509,0.2161,0.2217,0.0557,-1.1113,-1.4438,-4.9175,-2.8446258130372946,-12.127519732368356,-2.6835036999675155,4.726999999998952
-0.2163,1.0171,-0.0494,0.2161,0.2217,0.0557,-0.8838,-0.9538,-4.1825,-2.8022507991650145,-12.071182376226439,-2.698764499963685,4.742999999994936
-0.2188,1.0158,-0.0493,0.2161,0.2217,0.0557,-0.8838,-0.9538,-4.1825,-2.7865653072005414,-12.100542385728422,-2.698764499963685,4.742999999994936
-0.2188,1.012,-0.0499,0.2144,0.2214,0.0477,-1.4787,-0.7788,-4.5237,-2.807525936904573,-12.144147400452537,-2.710446499968898,4.75800000000163
-0.2188,1.0093,-0.052,0.2144,0.2214,0.0477,-1.0588,-0.7613,-4.655,-2.8984216509712537,-12.183023014338696,-2.710446499968898,4.75800000000163
-0.2236,1.0093,-0.052,0.2139,0.2217,0.052,-1.0588,-0.7613,-4.7425,-2.9310495029259584,-12.346812626144903,-2.7226272999658403,4.7739999999976135
-0.2229,1.0103,-0.0555,0.2139,0.2217,0.052,-0.3237,-1.1725,-4.7425,-3.0837593809807817,-12.389790925230818,-2.7226272999658403,4.7739999999976135
-0.2215,1.0108,-0.0524,0.2139,0.2217,0.052,-0.5075,-1.68,-5.0575,-3.002382952325825,-12.36168410666252,-2.7495072999713166,4.790000000000873
-0.2229,1.0125,-0.0525,0.2155,0.2225,0.0512,0.1488,-1.365,-5.1712,-2.9767853016735417,-12.385421653031914,-2.7495072999713166,4.790000000000873
-0.2206,1.0152,-0.0526,0.2155,0.2225,0.0512,0.1488,-1.365,-5.1712,-2.9686876884965505,-12.296157462768672,-2.7699822999605903,4.804999999993015
-0.2206,1.0152,-0.0526,0.2159,0.2213,0.0465,0.315,-1.5137,-5.4687,-2.966632890078346,-12.261186940466152,-2.7942014999655242,4.820999999996275
-0.2167,1.0174,-0.0519,0.2159,0.2213,0.0465,0.3675,-1.2862,-5.4338,-2.9312716453332044,-12.093959035911075,-2.7942014999655242,4.820999999996275
-0.2192,1.0165,-0.0532,0.2159,0.2213,0.0465,0.4375,-1.3125,-5.46,-2.9808260083266465,-12.133183178156756,-2.81388899997431,4.836000000002969
-0.2212,1.0162,-0.0525,0.2135,0.2187,0.0517,0.4375,-1.3125,-5.46,-2.9629057952882447,-12.22049203971357,-2.81388899997431,4.836000000002969
-0.2225,1.016,-0.0573,0.2135,0.2187,0.0517,0.5075,-1.5838,-5.5037,-3.1670325607033574,-12.296280490295633,-2.8392297999679488,4.851999999998952
-0.2225,1.0142,-0.0513,0.2154,0.2214,0.0539,-0.4988,-1.8025,-5.32,-2.976762279404102,-12.336654763259506,-2.8392297999679488,4.851999999998952
-0.2225,1.0142,-0.0513,0.2154,0.2214,0.0539,-0.595,-1.8813,-5.6525,-2.9206120736141346,-12.35162009847103,-2.8693305999740812,4.868000000002212
-0.2211,1.0121,-0.0522,0.2144,0.222,0.0484,-0.595,-1.8813,-5.6525,-2.9426644496003953,-12.321149103952468,-2.8693305999740812,4.868000000002212
-0.2235,1.0111,-0.0544,0.2144,0.222,0.0484,-0.7875,-1.96,-5.705,-3.034877403516609,-12.408203871938573,-2.8987305999586797,4.882999999994354
-0.2214,1.0118,-0.0537,0.2144,0.222,0.0484,-0.2362,-1.8463,-5.8713,-3.0371710159880383,-12.350157245550678,-2.8987305999586797,4.882999999994354
-0.2214,1.0119,-0.051,0.2154,0.2235,0.0498,-0.245,-1.68,-5.075,-2.927475888600708,-12.335552230768304,-2.925610599964156,4.8989999999976135
-0.2214,1.0119,-0.051,0.2154,0.2235,0.0498,-0.245,-1.68,-5.075,-2.8970019047636573,-12.329946103770034,-2.925610599964156,4.8989999999976135
-0.222,1.0132,-0.0522,0.2152,0.2211,0.0517,0.2537,-1.4262,-4.6988,-2.936514506174435,-12.337023195759683,-2.9470035999633257,4.913999999997031
-0.2239,1.013,-0.053,0.2152,0.2211,0.0517,0.1575,-1.4262,-5.2937,-2.9803679212929053,-12.408068395670526,-2.9470035999633257,4.913999999997031
-0.2212,1.0157,-0.0564,0.2152,0.2211,0.0517,-0.0088,-1.5925,-5.0225,-3.1266755148376553,-12.322724165674096,-2.9724835999685166,4.930000000000291
-0.2199,1.0156,-0.0514,0.2158,0.2206,0.05,-0.0088,-1.5925,-5.0225,-2.957094167901692,-12.249335927977434,-2.9724835999685166,4.930000000000291
-0.2043,1.0131,-0.0542,0.2158,0.2206,0.05,-0.1838,-1.61,-4.9963,-3.0336029867901413,-11.727354675928465,-2.9982435999737644,4.946000000003551
-0.2183,1.0131,-0.0542,0.2151,0.2207,0.0506,0.1225,-1.225,-5.1625,-3.055108720250173,-11.988742829236134,-2.9982435999737644,4.946000000003551
-0.2165,1.0124,-0.0585,0.2151,0.2207,0.0506,0.1225,-1.225,-5.1625,-3.2435595802599995,-12.028054471797144,-3.016618599964138,4.960999999995693
-0.2189,1.0127,-0.057,0.2151,0.2207,0.0506,0.0962,-1.4,-5.2238,-3.227100755878056,-12.123814419996064,-3.016618599964138,4.960999999995693
-0.2181,1.0142,-0.0533,0.215,0.2226,0.0406,0.28,-1.2862,-5.1013,-3.0613774813379773,-12.12156592109155,-3.0371977999683306,4.976999999998952
-0.2194,1.0151,-0.0563,0.215,0.2226,0.0406,-0.1138,-1.4262,-5.3987,-3.1441905178465537,-12.15869275276105,-3.0371977999683306,4.976999999998952
-0.2194,1.0151,-0.0563,0.2162,0.2223,0.0456,-0.1138,-1.4262,-5.3987,-3.1663874531437144,-12.171368837223648,-3.0585907999675004,4.99199999999837
-0.2169,1.0114,-0.0572,0.2162,0.2223,0.0456,0.0263,-0.84,-5.3025,-3.2187064213181618,-12.115683437678564,-3.0585907999675004,4.99199999999837
-0.2223,1.0113,-0.0579,0.2162,0.2223,0.0456,0.3675,-1.1113,-5.4687,-3.2629930772725424,-12.29034411525972,-3.076371599971123,5.00800000000163
-0.225,1.0129,-0.0559,0.2139,0.2214,0.0535,-0.1225,-1.0762,-6.0813,-3.1868216103445155,-12.445986990692594,-3.076371599971123,5.00800000000163
-0.225,1.0117,-0.0573,0.2139,0.2214,0.0535,-0.1225,-1.0762,-6.0813,-3.226895888893254,-12.498763304852027,-3.0935907999668006,5.0239999999976135
-0.225,1.0121,-0.0633,0.2162,0.2206,0.051,-0.1663,-1.26,-5.8975,-3.4831315778388414,-12.506673016678246,-3.0935907999668006,5.0239999999976135
-0.2236,1.0121,-0.0633,0.2162,0.2206,0.051,0.2975,-0.9538,-5.0662,-3.5557046820265406,-12.462309748533388,-3.1078977999662456,5.038999999997031
-0.2241,1.0144,-0.0552,0.215,0.222,0.053,0.175,-1.6013,-5.0662,-3.224456481836445,-12.448463496259087,-3.1078977999662456,5.038999999997031
-0.2194,1.0135,-0.0559,0.215,0.222,0.053,0.175,-1.6013,-5.0662,-3.17376151296676,-12.29372275139436,-3.1335185999714654,5.055000000000291
-0.2195,1.0164,-0.0597,0.215,0.222,0.053,-0.2013,-1.5488,-5.0662,-3.3099734567105648,-12.215197050131414,-3.1335185999714654,5.055000000000291
-0.2208,1.0167,-0.0574,0.215,0.2224,0.0474,-0.735,-1.5313,-5.39,-3.2566182565194874,-12.227526442708243,-3.1564880999594322,5.069999999992433
-0.2208,1.0167,-0.0574,0.215,0.2224,0.0474,-0.735,-1.7062,-5.425,-3.2394602133198167,-12.231774607333962,-3.1564880999594322,5.069999999992433
-0.2217,1.0142,-0.0523,0.2159,0.2227,0.0514,-0.735,-1.7062,-5.425,-3.0444411447435686,-12.286705324463119,-3.183787299964994,5.085999999995693
-0.2214,1.0114,-0.0582,0.2159,0.2227,0.0514,-1.6013,-1.7413,-5.9237,-3.18242067973224,-12.315877586767204,-3.183787299964994,5.085999999995693
-0.2236,1.0112,-0.0564,0.2159,0.2227,0.0514,-1.645,-1.8813,-5.67,-3.1878536948325573,-12.408126339547854,-3.2138880999711263,5.101999999998952
-0.223,1.0113,-0.0556,0.2148,0.223,0.0491,-1.645,-1.8813,-5.9325,-3.1655084372089544,-12.414453703896672,-3.2138880999711263,5.101999999998952
-0.223,1.0113,-0.0533,0.2148,0.223,0.0491,-1.505,-1.82,-5.9325,-3.0804468279049257,-12.417325869626954,-3.241188099970067,5.11699999999837
-0.2203,1.0114,-0.0533,0.2152,0.2221,0.0509,-1.0588,-1.7587,-6.0287,-3.039552274228004,-12.312506726743287,-3.241188099970067,5.11699999999837
-0.2211,1.0087,-0.0524,0.2152,0.2221,0.0509,-1.2687,-1.715,-6.1687,-2.9992834618705175,-12.337800156625864,-3.268628099975657,5.13300000000163
-0.2234,1.0152,-0.0526,0.2152,0.2221,0.0509,-1.2687,-1.715,-6.1687,-2.9789102710257347,-12.379041680351369,-3.268628099975657,5.13300000000163
-0.2216,1.013,-0.0511,0.2164,0.2217,0.0518,-1.0412,-1.6712,-6.4138,-2.9202953093098016,-12.338130610310369,-3.2936960999625247,5.147999999993772
-0.2234,1.0121,-0.0523,0.2164,0.2217,0.0518,-0.6562,-1.6538,-6.7638,-2.946252190648661,-12.409520110030247,-3.2936960999625247,5.147999999993772
-0.2234,1.0121,-0.0523,0.2171,0.2222,0.0525,-0.6737,-1.26,-6.9913,-2.9543726154081287,-12.42639951590192,-3.3138560999666318,5.163999999997031
-0.2243,1.0136,-0.0534,0.2171,0.2222,0.0525,-0.6737,-1.26,-6.9913,-2.996396740967471,-12.453490016011166,-3.3138560999666318,5.163999999997031
-0.2293,1.0146,-0.0523,0.2171,0.2222,0.0525,-1.0237,-1.4787,-6.6062,-2.9669877101865376,-12.654501993148052,-3.337515299971452,5.180000000000291
-0.2297,1.0091,-0.0483,0.2142,0.2246,0.0554,-1.05,-1.5575,-6.6062,-2.8214401974682093,-12.7720067353332,-3.3608777999705453,5.194999999999709
-0.2321,1.0096,-0.0489,0.2142,0.2246,0.0554,-1.0412,-1.5225,-6.6062,-2.790250195008363,-12.893542985766052,-3.3608777999705453,5.194999999999709
-0.2321,1.0096,-0.0486,0.2161,0.2236,0.0561,-1.0412,-1.5225,-6.6062,-2.7681977483269913,-12.923060853254773,-3.385237799975508,5.211000000002969
-0.2345,1.0104,-0.0486,0.2161,0.2236,0.0561,-1.1463,-1.9688,-6.4837,-2.7591301197642455,-13.01962993921365,-3.385237799975508,5.211000000002969
-0.2369,1.0127,-0.0477,0.2166,0.2242,0.0531,-0.5163,-2.3187,-5.9062,-2.7154862926172005,-13.1137042844842,-3.4200182999572877,5.225999999995111
-0.2399,1.0116,-0.048,0.2166,0.2242,0.0531,-0.2275,-3.1675,-5.81,-2.716309018268452,-13.262950435186175,-3.4200182999572877,5.225999999995111
-0.2387,1.0097,-0.0503,0.2166,0.2242,0.0531,-0.2275,-3.1675,-5.81,-2.814438409756655,-13.278416968315364,-3.4706982999676126,5.24199999999837
-0.2355,1.0069,-0.0472,0.2162,0.2246,0.0572,-0.6825,-4.27,-6.0025,-2.7251570709404205,-13.186438221159065,-3.4706982999676126,5.24199999999837
-0.2355,1.0069,-0.0472,0.2162,0.2246,0.0572,0.1138,-4.62,-5.7137,-2.6942955807877786,-13.161316978305713,-3.544618299982672,5.25800000000163
-0.2314,1.0031,-0.0457,0.2152,0.2219,0.0531,0.35,-5.04,-5.845,-2.6289699314724277,-13.031626069478788,-3.544618299982672,5.25800000000163
-0.2248,1.0085,-0.0476,0.2152,0.2219,0.0531,0.35,-5.04,-5.845,-2.6848083335815383,-12.69450308613944,-3.6202182999797383,5.273000000001048
-0.2236,1.0161,-0.0468,0.2152,0.2219,0.0531,0.5163,-4.935,-5.5475,-2.6480334624356976,-12.494205747279585,-3.6202182999797383,5.273000000001048
-0.2188,1.0168,-0.0478,0.2166,0.223,0.0486,0.1138,-4.9963,-5.5213,-2.6805238326019327,-12.25002959500099,-3.7001590999960245,5.289000000004307
-0.2188,1.0168,-0.0452,0.2166,0.223,0.0486,0.1138,-4.9963,-5.425,-2.579464152510328,-12.172190825684476,-3.7001590999960245,5.289000000004307
-0.2229,1.0151,-0.0452,0.217,0.2273,0.0536,-0.105,-4.7337,-5.425,-2.557557505109169,-12.304926451093168,-3.771164599958827,5.303999999996449
-0.2286,1.0135,-0.0521,0.217,0.2273,0.0536,0.1575,-4.7075,-5.2675,-2.8465088645992607,-12.555206287041965,-3.771164599958827,5.303999999996449
-0.2303,1.0116,-0.0536,0.217,0.2273,0.0536,0.175,-5.075,-5.67,-2.986606312292962,-12.728968790632198,-3.8523645999753695,5.319999999999709
-0.2289,1.0108,-0.0555,0.2172,0.2254,0.0515,0.175,-5.075,-5.67,-3.10393018485741,-12.737312679058109,-3.8523645999753695,5.319999999999709
-0.2282,1.0145,-0.0516,0.2172,0.2254,0.0515,1.2163,-4.4713,-6.1687,-2.9496808443358185,-12.681766758834426,-3.9239053999899443,5.336000000002969
-0.2282,1.0145,-0.0516,0.2167,0.2234,0.0533,1.5925,-3.6925,-6.4225,-2.9186831015246444,-12.666392565875203,-3.9239053999899443,5.336000000002969
-0.2241,1.0174,-0.0547,0.2167,0.2234,0.0533,1.75,-3.71,-6.4837,-3.04912558734892,-12.469873187107344,-3.979555399960791,5.350999999995111
-0.2255,1.021,-0.0567,0.2167,0.2234,0.0533,1.75,-3.71,-6.4837,-3.1554466301217268,-12.444401023376853,-3.979555399960791,5.350999999995111
-0.2225,1.0218,-0.055,0.2163,0.2228,0.0512,0.84,-3.5525,-6.0988,-3.0969409064630606,-12.316131114879637,-4.0363953999723705,5.36699999999837
-0.2225,1.021,-0.0518,0.2163,0.2228,0.0512,0.7,-2.6075,-5.9237,-2.9467563003098154,-12.289452401057972,-4.0363953999723705,5.36699999999837
-0.2225,1.021,-0.0523,0.2168,0.2243,0.0479,0.2013,-2.275,-5.3025,-2.9359277278551645,-12.282226632576412,-4.070520399971047,5.381999999997788
-0.2253,1.0171,-0.0523,0.2168,0.2243,0.0479,0.2013,-2.275,-5.3025,-2.9417013572318598,-12.406344069345444,-4.070520399971047,5.381999999997788
-0.2284,1.0142,-0.0543,0.2157,0.2219,0.0576,0.035,-2.0038,-4.9525,-3.03297762944625,-12.566096650408317,-4.102581199977578,5.398000000001048
-0.2256,1.0149,-0.0534,0.2157,0.2219,0.0576,0.665,-1.3125,-5.0575,-3.0165728062163253,-12.53513156900208,-4.102581199977578,5.398000000001048
-0.228,1.013,-0.0532,0.2157,0.2219,0.0576,0.0613,-1.645,-4.83,-3.008897649799697,-12.611432640836313,-4.128901199970971,5.413999999997031
-0.2277,1.0116,-0.0519,0.2167,0.2232,0.0578,0.0613,-1.645,-4.83,-2.955390233769305,-12.64467315803268,-4.128901199970971,5.413999999997031
-0.2277,1.0116,-0.0519,0.2167,0.2232,0.0578,-0.2187,-1.3475,-4.375,-2.9420552542921388,-12.656284162279606,-4.1491136999701865,5.428999999996449
-0.2289,1.013,-0.0555,0.2155,0.2238,0.0564,-0.21,-1.015,-4.5937,-3.082619580680278,-12.687044958494422,-4.165353699973495,5.444999999999709
-0.2272,1.0128,-0.0534,0.2155,0.2238,0.0564,-0.21,-0.2275,-4.2438,-3.035874601480027,-12.660754938857814,-4.165353699973495,5.444999999999709
-0.2244,1.0102,-0.0504,0.2155,0.2238,0.0564,-0.2013,-0.2275,-4.2438,-2.905502844080861,-12.594516349467018,-4.168766199973362,5.459999999999127
-0.2267,1.0095,-0.0526,0.2166,0.2238,0.0561,-0.2275,-0.385,-4.2787,-2.961357483488272,-12.61492338575522,-4.168766199973362,5.459999999999127
-0.2267,1.0095,-0.0544,0.2166,0.2238,0.0561,-0.5863,-0.5425,-4.4713,-3.04675894837612,-12.626970200374679,-4.1774461999751304,5.4760000000023865
-0.2285,1.0098,-0.0544,0.216,0.2218,0.0514,-0.5863,-0.5425,-4.4713,-3.0723352071471632,-12.679745350603703,-4.1774461999751304,5.4760000000023865
-0.2281,1.0124,-0.0508,0.216,0.2218,0.0514,-0.8575,0.2887,-4.4713,-2.9394430271529917,-12.680694956892461,-4.17282699997629,5.49199999999837
-0.2302,1.0119,-0.0542,0.216,0.2218,0.0514,-0.91,-0.0088,-4.445,-3.0228624045093424,-12.738865839121923,-4.17282699997629,5.49199999999837
-0.2294,1.0108,-0.0532,0.2167,0.2222,0.0565,-0.6737,0.1575,-4.3137,-3.0159647720421288,-12.752900529683393,-4.170464499976382,5.506999999997788
-0.2278,1.0149,-0.0562,0.2167,0.2222,0.0565,-0.6737,0.1575,-4.3137,-3.121088524007636,-12.697550804129149,-4.170464499976382,5.506999999997788
-0.2278,1.0149,-0.0562,0.2166,0.2229,0.0536,-0.6212,0.315,-4.5325,-3.1544895626141205,-12.663759660135378,-4.165424499975355,5.523000000001048
-0.2257,1.0158,-0.0533,0.2166,0.2229,0.0536,-1.1638,-0.1138,-4.7688,-3.0598908691452196,-12.577078636555616,-4.165424499975355,5.523000000001048
-0.2246,1.0147,-0.0501,0.2166,0.2229,0.0536,-0.8313,-0.5337,-4.8038,-2.9040448192701076,-12.51373962992365,-4.173429999975045,5.538000000000466
-0.2252,1.0122,-0.0525,0.2161,0.2244,0.0572,-0.8313,-0.5337,-4.8038,-2.947519028714983,-12.52125294672218,-4.173429999975045,5.538000000000466
-0.2292,1.0099,-0.054,0.2161,0.2244,0.0572,-1.1638,-0.1838,-4.9262,-3.018498500936542,-12.668267733530516,-4.176370799975643,5.554000000003725
-0.2292,1.0099,-0.0481,0.2155,0.2233,0.0633,-1.0762,0.2537,-4.6813,-2.8321979626212923,-12.725560117855702,-4.176370799975643,5.554000000003725
-0.2266,1.0073,-0.0481,0.2155,0.2233,0.0633,-0.7262,-0.175,-4.6725,-2.7654065594584285,-12.692012473778954,-4.179170799974941,5.569999999999709
-0.2294,1.0062,-0.0488,0.2155,0.2242,0.0561,-0.7262,-0.175,-4.6725,-2.7730307741141935,-12.7665729159617,-4.179170799974941,5.569999999999709
-0.2261,1.0092,-0.0509,0.2185,0.2242,0.0561,-0.2362,-0.56,-4.48,-2.8556491377652042,-12.68911505672733,-4.187570799974615,5.584999999999127
-0.2291,1.0122,-0.0503,0.2185,0.2242,0.0561,0.0787,-0.7088,-4.7337,-2.8476406238226697,-12.716497061712651,-4.187570799974615,5.584999999999127
-0.2243,1.0134,-0.0506,0.2152,0.2219,0.0453,-0.07,-1.085,-5.3113,-2.8555917570146265,-12.553681437189852,-4.204930799978151,5.6010000000023865
-0.2243,1.0134,-0.0506,0.2152,0.2219,0.0453,-0.07,-1.085,-5.3113,-2.8576982228083674,-12.496382013605162,-4.204930799978151,5.6010000000023865
-0.2252,1.0169,-0.0481,0.2168,0.2226,0.0502,0.035,-1.155,-5.5213,-2.7466654008953286,-12.481019881178193,-4.223410799973513,5.61699999999837
-0.2253,1.0133,-0.0545,0.2168,0.2226,0.0502,-0.1838,-0.8313,-6.0025,-2.987977441852277,-12.507440230319617,-4.223410799973513,5.61699999999837
-0.2261,1.0158,-0.0518,0.2168,0.2226,0.0502,-0.1838,-0.8313,-6.0725,-2.938008426348292,-12.525721486020394,-4.236711599976222,5.63300000000163
-0.2256,1.012,-0.0523,0.217,0.221,0.0497,-0.6388,-0.8313,-6.0725,-2.95204261416842,-12.543947481403228,-4.236711599976222,5.63300000000163
-0.2256,1.012,-0.0523,0.217,0.221,0.0497,-0.2975,-0.525,-5.775,-2.956611275371688,-12.548831522717721,-4.245111599974114,5.6489999999976135
-0.2262,1.0121,-0.0505,0.2171,0.2234,0.0541,-0.4812,-0.9013,-5.7137,-2.8862476753806923,-12.572581427934853,-4.245111599974114,5.6489999999976135
-0.2248,1.0101,-0.0514,0.2171,0.2234,0.0541,-0.4812,-0.9013,-5.7137,-2.9050765845954287,-12.543904081567751,-4.258631099973589,5.663999999997031
-0.2284,1.0133,-0.0508,0.2171,0.2234,0.0541,-0.9363,-0.9887,-6.6588,-2.882073547264732,-12.652761054365827,-4.258631099973589,5.663999999997031
-0.2228,1.0103,-0.0482,0.2181,0.2217,0.0587,-1.3737,-0.525,-6.4138,-2.792396534580884,-12.48096570386699,-4.2670310999753,5.680000000000291
-0.2228,1.0128,-0.0505,0.2181,0.2217,0.0587,-1.2775,-0.49,-6.3525,-2.830311215537426,-12.414644026168954,-4.2670310999753,5.680000000000291
-0.2228,1.0128,-0.0505,0.2167,0.2242,0.0526,-1.2775,-0.49,-6.3525,-2.845080491506305,-12.397562643967234,-4.274381099975015,5.694999999999709
-0.2243,1.0097,-0.052,0.2167,0.2242,0.0526,-0.7613,-0.385,-6.545,-2.914724444091449,-12.481313087933744,-4.274381099975015,5.694999999999709
-0.2278,1.0074,-0.0501,0.2167,0.2242,0.0526,-0.9275,-0.2975,-5.9588,-2.8702733421726205,-12.656293885908418,-4.279141099975985,5.711000000002969
-0.2291,1.0099,-0.0486,0.2188,0.2225,0.0501,-0.2625,-0.28,-5.8625,-2.78728986205965,-12.734488316082379,-4.279141099975985,5.711000000002969
-0.2283,1.0108,-0.0501,0.2188,0.2225,0.0501,-0.2625,-0.28,-5.8625,-2.823501984149325,-12.718780861816953,-4.2836210999748605,5.726999999998952
-0.2283,1.0108,-0.0501,0.2167,0.223,0.0483,-0.2187,-0.4638,-5.705,-2.8336583738521792,-12.714245266830572,-4.2836210999748605,5.726999999998952
-0.2283,1.0125,-0.0511,0.2167,0.223,0.0483,-0.0263,0.0088,-5.3113,-2.8746665531136353,-12.69918708349312,-4.283489099974866,5.74199999999837
-0.23,1.0164,-0.0503,0.2167,0.223,0.0546,0.0613,-0.2362,-5.355,-2.8437898991216204,-12.72296336500524,-4.283489099974866,5.74199999999837
-0.2282,1.0186,-0.05,0.2174,0.2214,0.0546,0.0613,-0.2362,-5.355,-2.8188155222106888,-12.651071770078245,-4.287268299973918,5.757999999994354
-0.2307,1.0185,-0.0545,0.2174,0.2214,0.0546,-0.1663,-0.9013,-5.3288,-2.996600585977282,-12.71217528233525,-4.287268299973918,5.757999999994354
-0.2304,1.0185,-0.0525,0.2178,0.2252,0.049,-0.2187,-0.595,-5.2675,-2.963416267389611,-12.72380744064689,-4.296193299977901,5.773000000001048
-0.2304,1.0185,-0.0525,0.2178,0.2252,0.049,-0.385,-0.4025,-5.6613,-2.954431855420784,-12.728250599759539,-4.296193299977901,5.773000000001048
-0.2323,1.0189,-0.0558,0.2169,0.2244,0.0476,-0.385,-0.4025,-5.6613,-3.082571618266249,-12.794554884552731,-4.302633299979213,5.789000000004307
-0.2326,1.0168,-0.0545,0.2169,0.2244,0.0476,-0.105,-0.9013,-5.7488,-3.071963106032496,-12.845076883564563,-4.302633299979213,5.789000000004307
-0.2331,1.0134,-0.0575,0.2169,0.2244,0.0476,-0.5163,-1.3563,-5.6175,-3.1947337060265104,-12.905497053099776,-4.324334099973766,5.805000000000291
-0.2349,1.0124,-0.0546,0.2167,0.2245,0.0501,-0.5163,-1.3563,-5.6175,-3.1193984073647996,-13.00033281650635,-4.324334099973766,5.805000000000291
-0.2349,1.0124,-0.0546,0.2167,0.2245,0.0501,-0.0175,-0.7962,-5.425,-3.0954968470984054,-13.029547713705332,-4.3362770999733025,5.819999999999709
-0.2363,1.0147,-0.053,0.2183,0.2231,0.051,-0.5337,-1.4,-5.2238,-3.0218399867421315,-13.069308656112897,-4.3362770999733025,5.819999999999709
-0.2342,1.0144,-0.0511,0.2183,0.2231,0.051,-1.2862,-1.7763,-4.7512,-2.937763825789212,-13.021666571761854,-4.364697899966168,5.835999999995693
-0.2369,1.0165,-0.0569,0.2183,0.2231,0.051,-1.2862,-1.7763,-4.7512,-3.0998569730129404,-13.065146493416202,-4.364697899966168,5.835999999995693
-0.2344,1.0154,-0.0486,0.2189,0.2237,0.0454,-1.1988,-1.9162,-4.6813,-2.8761654932092457,-13.020900321527405,-4.3934408999789945,5.8510000000023865
-0.2342,1.0137,-0.0486,0.2189,0.2237,0.0454,-1.19,-2.2487,-4.76,-2.7943103321295704,-13.0061095135651,-4.3934408999789945,5.8510000000023865
-0.2342,1.0137,-0.0486,0.2176,0.2234,0.053,-1.4088,-2.4675,-4.7775,-2.7651494307040005,-12.999613215443302,-4.432920899969084,5.86699999999837
-0.2352,1.0083,-0.0542,0.2176,0.2234,0.053,-1.4088,-2.4675,-4.7775,-2.9489189185577005,-13.063285153398363,-4.432920899969084,5.86699999999837
-0.2351,1.0085,-0.0542,0.2176,0.2234,0.053,-1.2163,-2.4413,-4.7688,-3.027834183670205,-13.086341518224048,-4.471981699959279,5.882999999994354
-0.2311,1.0053,-0.0497,0.2182,0.224,0.0637,-0.6037,-2.5463,-4.8038,-2.8912381809151864,-12.997591572399386,-4.510176199976324,5.898000000001048
-0.2272,1.0019,-0.0457,0.2182,0.224,0.0637,-0.5688,-2.4938,-5.0575,-2.6969927310195456,-12.854264742641696,-4.510176199976324,5.898000000001048
-0.2272,1.0019,-0.0457,0.2188,0.2253,0.0582,-0.5688,-2.4938,-5.0575,-2.6376962072980485,-12.798876755466395,-4.550076999966308,5.913999999997031
-0.2284,1.0024,-0.0456,0.2188,0.2253,0.0582,-0.5688,-2.6775,-4.6463,-2.614728439391362,-12.811950174223709,-4.550076999966308,5.913999999997031
-0.2272,1.0072,-0.0499,0.2188,0.2253,0.0553,0.0175,-2.5375,-4.0775,-2.778931387108945,-12.768393240558652,-4.58813949996483,5.928999999996449
-0.2246,1.0094,-0.0459,0.217,0.2243,0.0553,0.2275,-1.82,-3.9813,-2.6466504611094175,-12.688361489587175,-4.58813949996483,5.928999999996449
-0.2229,1.0091,-0.0494,0.217,0.2243,0.0553,0.2275,-1.82,-3.9813,-2.7643406207789876,-12.60486018489575,-4.617259499970763,5.944999999999709
-0.2197,1.0101,-0.0498,0.217,0.2232,0.0563,0.6475,-1.4262,-4.2088,-2.809563892810836,-12.45680667536342,-4.617259499970763,5.944999999999709
-0.2197,1.0101,-0.0498,0.217,0.2232,0.0563,0.8487,-0.945,-4.5325,-2.8197546957205657,-12.35358912333375,-4.632379499966968,5.960999999995693
-0.2225,1.0127,-0.0506,0.2188,0.2234,0.0574,0.8487,-0.4288,-4.8212,-2.851763350710201,-12.366807432995875,-4.632379499966968,5.960999999995693
-0.2253,1.0119,-0.0495,0.2188,0.2234,0.0574,0.805,-0.4288,-4.8212,-2.811568782988474,-12.46500537168601,-4.6388114999698375,5.9760000000023865
-0.2259,1.0136,-0.0535,0.2188,0.2234,0.0574,0.5688,-0.245,-5.005,-2.973849581175331,-12.514780898234653,-4.6388114999698375,5.9760000000023865
-0.2302,1.0171,-0.0545,0.2178,0.225,0.0382,0.5863,0.035,-5.39,-3.0461225338847924,-12.659724556299535,-4.638251499969978,5.99199999999837
-0.2302,1.0171,-0.0545,0.2178,0.225,0.0382,0.5863,0.035,-5.39,-3.0624335385920323,-12.709359599681978,-4.638251499969978,5.99199999999837
-0.2323,1.0174,-0.0551,0.2194,0.224,0.0505,0.455,-0.035,-5.5125,-3.0912450086160757,-12.799414755780539,-4.638776499969957,6.006999999997788
-0.2313,1.0141,-0.0562,0.2194,0.224,0.0505,0.4025,0.0,-5.5563,-3.152991424655357,-12.819702305992019,-4.638776499969957,6.006999999997788
-0.2344,1.0158,-0.0564,0.2194,0.224,0.0505,0.2537,-0.3413,-5.4775,-3.1718644109993344,-12.92302415202193,-4.644237299968586,6.022999999993772
-0.2348,1.015,-0.0542,0.2167,0.2255,0.0474,0.2537,-0.3413,-5.4775,-3.0847512463701396,-12.979227003087,-4.644237299968586,6.022999999993772
-0.2348,1.0182,-0.0534,0.2167,0.2255,0.0474,-0.4638,-0.77,-5.7225,-3.026585646503017,-12.97169821398999,-4.656557299971096,6.038999999997031
-0.2365,1.0182,-0.0534,0.2182,0.2241,0.0513,-1.015,-0.63,-5.8538,-3.010788769035598,-13.033231380583285,-4.656557299971096,6.038999999997031
-0.2395,1.0188,-0.0563,0.2182,0.2241,0.0513,-0.9187,-1.3125,-5.8012,-3.1109852683964756,-13.156571312715897,-4.676244799979882,6.054000000003725
-0.2367,1.0174,-0.0514,0.2182,0.2241,0.0513,-0.9187,-1.3125,-5.8012,-2.9669597041565474,-13.103599886239978,-4.676244799979882,6.054000000003725
-0.2359,1.0121,-0.0542,0.2193,0.2246,0.0504,-1.47,-2.0738,-5.88,-3.02393153413082,-13.10255175281757,-4.709425599971553,6.069999999999709
-0.2317,1.0166,-0.05,0.2193,0.2246,0.0504,-1.6275,-1.8375,-5.775,-2.909641843793018,-12.908522101979615,-4.709425599971553,6.069999999999709
-0.2317,1.0166,-0.05,0.2178,0.2243,0.0489,-2.2313,-2.0912,-5.5125,-2.8739440602821285,-12.85201456629939,-4.740793599970336,6.084999999999127
-0.2338,1.0188,-0.0487,0.2178,0.2243,0.0489,-2.2313,-2.0912,-5.5125,-2.8217807029913704,-12.891295888376126,-4.740793599970336,6.084999999999127
-0.2326,1.0157,-0.049,0.2178,0.2243,0.0489,-2.1788,-2.03,-6.0813,-2.7978686176756153,-12.886095498379689,-4.773273599962183,6.100999999995111
-0.2363,1.0152,-0.05,0.2181,0.2248,0.0476,-2.45,-1.7675,-5.9237,-2.8040228685896262,-13.029299746413178,-4.773273599962183,6.100999999995111
-0.2386,1.011,-0.0457,0.2181,0.2248,0.0476,-2.5725,-2.1613,-6.1075,-2.75784720571795,-13.200919879011666,-4.807854399969227,6.11699999999837
-0.2386,1.0065,-0.0476,0.2193,0.2246,0.0583,-2.5725,-2.1613,-6.1075,-2.7471088697893364,-13.288676099432463,-4.807854399969227,6.11699999999837
-0.2407,1.0065,-0.0476,0.2193,0.2246,0.0583,-2.0738,-2.45,-6.1163,-2.7299321691543366,-13.394846418320395,-4.844604399985627,6.132000000005064
-0.2409,1.0066,-0.0478,0.2191,0.2274,0.0607,-1.0675,-3.1063,-5.6438,-2.722769330202773,-13.428729925055174,-4.844604399985627,6.132000000005064
-0.2363,1.0095,-0.046,0.2191,0.2274,0.0607,-1.0675,-3.1063,-5.3025,-2.649965512745392,-13.255646842398596,-4.940899699971343,6.163000000000466
-0.2333,1.0103,-0.043,0.2191,0.2274,0.0607,-0.21,-2.8612,-5.3025,-2.4956876704250863,-13.084774166644584,-4.940899699971343,6.163000000000466
-0.2319,1.012,-0.0439,0.219,0.2254,0.0508,0.3325,-2.5025,-4.865,-2.4867234300171717,-12.974109802236288,-4.940899699971343,6.163000000000466
-0.2319,1.012,-0.0439,0.219,0.2254,0.0508,0.6212,-2.5638,-4.7162,-2.4845337363503193,-12.930100594503484,-4.940899699971343,6.163000000000466
-0.2291,1.0152,-0.0456,0.2201,0.2257,0.0604,0.6212,-2.5638,-4.7162,-2.552290640117173,-12.804935665396432,-4.981920499961046,6.178999999996449
-0.2286,1.0145,-0.0453,0.2201,0.2257,0.0604,0.3063,-2.555,-4.3663,-2.5556405193783323,-12.748852337212602,-4.981920499961046,6.178999999996449
-0.2294,1.0133,-0.0442,0.2201,0.2257,0.0604,0.5425,-1.9512,-4.3313,-2.5108686017974944,-12.746786790654344,-5.013139699967406,6.194999999999709
-0.2305,1.0121,-0.0477,0.2184,0.2242,0.0566,0.3938,-1.4963,-4.5325,-2.6541071285827016,-12.78254811663734,-5.035584199966535,6.209999999999127
-0.2305,1.0114,-0.0485,0.2184,0.2242,0.0566,0.3938,-1.4963,-4.5325,-2.7238763158913506,-12.804054605328963,-5.035584199966535,6.209999999999127
-0.2322,1.0114,-0.0485,0.2171,0.2253,0.0531,0.3588,-1.5137,-4.6463,-2.740295076298527,-12.864411619043167,-5.0598033999604555,6.225999999995111
-0.232,1.0093,-0.0473,0.2171,0.2253,0.0531,0.2713,-1.96,-4.9612,-2.6970381290347953,-12.904604916906857,-5.0598033999604555,6.225999999995111
-0.232,1.0111,-0.0463,0.2171,0.2253,0.0531,0.42,-1.6712,-4.7688,-2.6394731963594804,-12.907610560246816,-5.084871399971642,6.241000000001804
-0.2276,1.0097,-0.0461,0.2182,0.2245,0.0514,0.42,-1.6712,-4.7688,-2.6200842562907276,-12.78473403123152,-5.084871399971642,6.241000000001804
-0.2328,1.0089,-0.0526,0.2182,0.2245,0.0514,-0.2975,-2.0387,-5.0487,-2.8817431632926764,-12.902045918934313,-5.117490599963454,6.256999999997788
-0.2328,1.0089,-0.0526,0.2191,0.2239,0.0514,0.07,-1.5925,-4.7688,-2.958228266630433,-12.944027533199064,-5.117490599963454,6.256999999997788
-0.2314,1.0086,-0.0473,0.2191,0.2239,0.0514,-0.2713,-0.9712,-4.5763,-2.761474031385067,-12.92503236278858,-5.13302979996662,6.273000000001048
-0.2298,1.0085,-0.0489,0.2191,0.2239,0.0514,-0.2713,-0.9712,-4.5763,-2.771917039378303,-12.87084095473926,-5.13302979996662,6.273000000001048
-0.2275,1.0102,-0.0459,0.2186,0.2239,0.0539,-0.9712,-1.225,-4.6025,-2.660829421819347,-12.768842441678988,-5.151404799956993,6.28799999999319
-0.2279,1.0131,-0.0512,0.2186,0.2239,0.0539,-0.2275,-1.3825,-4.655,-2.82892213057407,-12.710996290539567,-5.151404799956993,6.28799999999319
-0.2279,1.0146,-0.05,0.2175,0.2236,0.0536,-0.595,-0.9712,-4.69,-2.823633430514738,-12.67463605209074,-5.166943999960159,6.303999999996449
-0.2283,1.0146,-0.05,0.2175,0.2236,0.0536,-0.595,-0.9712,-4.69,-2.8220059539083615,-12.670063106481269,-5.166943999960159,6.303999999996449
-0.23,1.0133,-0.0498,0.2176,0.2245,0.055,-0.5688,-0.8925,-5.1013,-2.8161763265676254,-12.734173507095795,-5.180331499966133,6.319000000003143
-0.2261,1.0115,-0.0453,0.2176,0.2245,0.055,-0.7175,-0.9013,-5.4338,-2.644829460343448,-12.637280097305016,-5.180331499966133,6.319000000003143
-0.2225,1.0086,-0.046,0.2176,0.2245,0.055,-0.7175,-0.9013,-5.4338,-2.622037988679069,-12.498502908400338,-5.194752299962513,6.334999999999127
-0.2245,1.0115,-0.0458,0.2191,0.2247,0.0566,-0.3237,-0.5337,-5.7575,-2.600918841034439,-12.50052387776939,-5.194752299962513,6.334999999999127
-0.2245,1.0115,-0.0458,0.2191,0.2247,0.0566,-0.7962,-0.4462,-5.705,-2.5952894645444444,-12.501134225692667,-5.201891499963967,6.3510000000023865
-0.2245,1.0104,-0.0481,0.2183,0.2255,0.0528,-0.7175,-0.3675,-5.53,-2.68386290014958,-12.509312762260405,-5.201891499963967,6.3510000000023865
-0.227,1.0085,-0.0459,0.2183,0.2255,0.0528,-0.7175,-0.3675,-5.53,-2.6308395509097164,-12.6191208975726,-5.2074039999610795,6.3659999999945285
-0.2301,1.0076,-0.0468,0.2183,0.2255,0.0528,-0.2187,-0.1925,-5.5738,-2.6514552055602674,-12.775846806045466,-5.2074039999610795,6.3659999999945285
-0.2298,1.0013,-0.05,0.218,0.2241,0.0526,-0.4375,-0.035,-5.6262,-2.7978697791698055,-12.867564059701667,-5.207963999961193,6.381999999997788
-0.2298,1.0013,-0.0494,0.218,0.2241,0.0526,0.1575,0.0962,-5.7663,-2.817805965901452,-12.897452316093784,-5.207963999961193,6.381999999997788
-0.2321,1.0063,-0.0494,0.219,0.2244,0.0515,0.1575,0.0962,-5.7663,-2.81227704322094,-12.949992110349289,-5.206520999960549,6.397000000004482
-0.2305,1.0087,-0.0467,0.219,0.2244,0.0515,0.6562,0.735,-5.18,-2.6866321689514536,-12.892225734054378,-5.206520999960549,6.397000000004482
-0.2248,1.0091,-0.0495,0.219,0.2244,0.0515,0.3938,-0.0962,-5.5213,-2.7796047464800515,-12.658290596561216,-5.208060199960163,6.413000000000466
-0.2287,1.0093,-0.052,0.2196,0.2226,0.0656,0.805,0.8313,-5.565,-2.912819125434221,-12.720947868269027,-5.208060199960163,6.413000000000466
-0.229,1.0122,-0.0509,0.2196,0.2226,0.0656,0.805,0.8313,-5.565,-2.886100477702921,-12.728712935651389,-5.193928099960308,6.430000000000291
-0.229,1.0122,-0.0509,0.2178,0.2251,0.05,0.6562,1.2775,-5.2675,-2.8804061315254637,-12.731094362633895,-5.193928099960308,6.430000000000291
-0.2276,1.0133,-0.0489,0.2178,0.2251,0.05,0.8662,1.7062,-5.3637,-2.787801153629013,-12.674760954429592,-5.168335099961301,6.444999999999709
-0.2276,1.0149,-0.05,0.2178,0.2251,0.05,0.6475,2.205,-5.25,-2.813181915879498,-12.642976267353857,-5.168335099961301,6.444999999999709
-0.2327,1.0166,-0.0554,0.2178,0.2268,0.0441,0.6475,2.205,-5.25,-3.051131070593363,-12.791185560614412,-5.133055099970157,6.460999999995693
-0.2373,1.0155,-0.0567,0.2178,0.2268,0.0441,0.6737,2.38,-5.6,-3.1637558590021393,-13.023803471206183,-5.133055099970157,6.460999999995693
-0.2373,1.0155,-0.0568,0.2198,0.2262,0.0472,0.6562,2.5025,-5.565,-3.1930293880994056,-13.097676259620956,-5.095517599953406,6.4760000000023865
-0.2386,1.0188,-0.0568,0.2198,0.2262,0.0472,0.6562,2.5025,-6.125,-3.191484406941504,-13.143837228262544,-5.095517599953406,6.4760000000023865
-0.2389,1.02,-0.0561,0.2198,0.2257,0.045,0.175,2.1788,-6.125,-3.158890198967567,-13.157581716377377,-5.060656799962157,6.49199999999837
-0.2411,1.0167,-0.0559,0.2178,0.2257,0.045,-0.28,1.8112,-5.8888,-3.150376383998094,-13.273399384414482,-5.060656799962157,6.49199999999837
-0.2444,1.0174,-0.0565,0.2178,0.2257,0.045,-0.0613,1.33,-6.0813,-3.1711271399519467,-13.428317649812305,-5.039376799957822,6.50800000000163
-0.2458,1.0133,-0.0594,0.2204,0.2261,0.0506,-0.0613,1.33,-6.0813,-3.306295722396624,-13.561565484248975,-5.039376799957822,6.50800000000163
-0.2458,1.0133,-0.0594,0.2204,0.2261,0.0506,-0.525,0.1312,-5.81,-3.340230100574815,-13.597313501725532,-5.037408799958852,6.522999999993772
-0.2454,1.0142,-0.0539,0.219,0.2256,0.056,-0.5512,-0.6737,-5.67,-3.132651534254221,-13.587908724197694,-5.037408799958852,6.522999999993772
-0.2442,1.0129,-0.0523,0.219,0.2256,0.056,-0.8925,-1.5225,-4.8562,-3.015693769407075,-13.558563986079696,-5.061768799963815,6.538999999997031
-0.2436,1.0137,-0.051,0.219,0.2256,0.056,-0.8925,-1.5225,-4.8562,-2.926073646616213,-13.522195185792869,-5.061768799963815,6.538999999997031
-0.242,1.0135,-0.0481,0.2186,0.2252,0.0471,-1.0938,-2.2138,-4.1213,-2.793117547454446,-13.47986082747956,-5.094975799978634,6.554000000003725
-0.242,1.0135,-0.0481,0.2186,0.2252,0.0471,-0.5075,-2.415,-4.3225,-2.7399344478179133,-13.44995371919399,-5.094975799978634,6.554000000003725
-0.2361,1.0135,-0.0479,0.2202,0.2273,0.0511,-0.14,-2.415,-4.2438,-2.7150851901577924,-13.29698674188459,-5.1336157999689345,6.569999999999709
-0.2355,1.0107,-0.0494,0.2202,0.2273,0.0511,-0.14,-2.415,-4.2438,-2.7757791271760186,-13.211556647297206,-5.1336157999689345,6.569999999999709
-0.233,1.0117,-0.0481,0.2202,0.2273,0.0511,-0.5775,-2.6163,-4.2263,-2.7384647005712512,-13.10116760454319,-5.175476599977463,6.586000000002969
-0.2311,1.0112,-0.0472,0.217,0.224,0.0491,-0.0175,-2.4675,-4.5937,-2.6897121804552913,-12.973430388779537,-5.2124890999580735,6.600999999995111
-0.2283,1.0083,-0.0526,0.217,0.224,0.0491,0.4025,-2.205,-4.4538,-2.9164237473158603,-12.858192683308923,-5.2124890999580735,6.600999999995111
-0.2283,1.0083,-0.0526,0.2183,0.2239,0.0494,0.4025,-2.205,-4.4538,-2.96980366742679,-12.800108811092654,-5.247769099965261,6.61699999999837
-0.2298,1.01,-0.0511,0.2183,0.2239,0.0494,0.4725,-2.17,-4.6725,-2.9133694018969094,-12.801229817957989,-5.247769099965261,6.61699999999837
-0.2306,1.0106,-0.0565,0.2183,0.2239,0.0494,0.7,-2.0213,-4.97,-3.1368720279218207,-12.821120196588483,-5.280109899971849,6.63300000000163
-0.2286,1.0099,-0.0551,0.2216,0.2234,0.049,0.7,-2.1175,-4.9437,-3.1260159252178794,-12.77049936342005,-5.280109899971849,6.63300000000163
-0.2296,1.0085,-0.0567,0.2216,0.2234,0.049,0.7613,-2.1175,-4.9437,-3.1979525490510348,-12.791693036542396,-5.313989899963345,6.6489999999976135
-0.2296,1.0085,-0.0567,0.2198,0.2246,0.0578,1.1025,-2.0475,-5.18,-3.213869529055721,-12.800766773508371,-5.313989899963345,6.6489999999976135
-0.231,1.0083,-0.0594,0.2198,0.2246,0.0578,0.4288,-2.1613,-5.2063,-3.3345810943835614,-12.852384254320262,-5.34857069997039,6.665000000000873
-0.2293,1.0114,-0.0597,0.2198,0.245,0.0536,0.4288,-2.1613,-5.2063,-3.3679037922202406,-12.788957532704972,-5.34857069997039,6.665000000000873
-0.2277,1.0152,-0.0553,0.2194,0.2254,0.0536,0.42,-1.925,-4.655,-3.176549949967438,-12.699264901337738,-5.377445699955263,6.679999999993015
-0.2314,1.0144,-0.057,0.2194,0.2254,0.0536,-0.0175,-2.1263,-4.3313,-3.205778161493265,-12.760039463008704,-5.377445699955263,6.679999999993015
-0.2293,1.0162,-0.0537,0.2199,0.2249,0.0569,-0.1312,-2.0825,-4.76,-3.0736241301208653,-12.725307605668847,-5.4107656999620515,6.695999999996275
-0.2293,1.0162,-0.0537,0.2199,0.2249,0.0569,-0.1312,-2.0825,-4.76,-3.0380360188070186,-12.710142100767133,-5.4107656999620515,6.695999999996275
-0.2286,1.0152,-0.0536,0.2186,0.2265,0.0447,-0.455,-2.24,-5.6788,-3.0269187791766012,-12.684555498099837,-5.444365699977046,6.711000000002969
-0.2283,1.0136,-0.0558,0.2186,0.2265,0.0447,-0.9887,-2.1263,-5.7225,-3.10757046618153,-12.67774741490985,-5.444365699977046,6.711000000002969
-0.2297,1.0108,-0.0546,0.2186,0.2265,0.0447,-1.2775,-1.6013,-5.6875,-3.0980161849007306,-12.751510528425849,-5.469986499970614,6.726999999998952
-0.2295,1.0096,-0.0536,0.2199,0.2243,0.0474,-1.2775,-1.6013,-5.6875,-3.0619884925408725,-12.777556602571714,-5.469986499970614,6.726999999998952
-0.2295,1.0096,-0.0536,0.2199,0.2243,0.0474,-1.4525,-1.5137,-6.16,-3.0486094158690378,-12.786118617188464,-5.494205699975548,6.743000000002212
-0.2293,1.0102,-0.052,0.2202,0.2239,0.0508,-1.3388,-1.7062,-6.4313,-2.987367056324296,-12.775729722436306,-5.494205699975548,6.743000000002212
-0.2298,1.0089,-0.0575,0.2202,0.2239,0.0508,-1.3825,-1.715,-6.5625,-3.1504074731455916,-12.802689520492072,-5.519930699962071,6.757999999994354
-0.2352,1.0066,-0.0536,0.2202,0.2239,0.0508,-1.3825,-1.715,-6.5625,-3.089616218774811,-13.0528174457615,-5.519930699962071,6.757999999994354
-0.2356,1.0086,-0.0539,0.2197,0.2242,0.0418,-1.2425,-1.6187,-6.6588,-3.070765980788882,-13.111532093752768,-5.545829899967347,6.7739999999976135
-0.2369,1.0104,-0.0534,0.2197,0.2242,0.0418,-0.8487,-1.0938,-6.125,-3.040467745647579,-13.159500439920045,-5.545829899967347,6.7739999999976135
-0.2369,1.0104,-0.0534,0.2203,0.2253,0.0528,-0.28,-1.2075,-6.1425,-3.029546254299843,-13.172647350117767,-5.563942399966645,6.788999999997031
-0.233,1.0102,-0.0521,0.2203,0.2253,0.0528,-0.28,-1.2075,-6.1425,-2.974008790602864,-13.026147306904829,-5.563942399966645,6.788999999997031
-0.2362,1.0128,-0.0526,0.2203,0.2253,0.0528,-0.3325,-0.9538,-6.125,-2.973286058932711,-13.087441500338974,-5.579203199969753,6.805000000000291
-0.2372,1.0158,-0.0548,0.2182,0.2267,0.0519,-0.3762,-0.7875,-5.7488,-3.0549106221276667,-13.113703502436497,-5.579203199969753,6.805000000000291
-0.2366,1.0125,-0.0562,0.2182,0.2267,0.0519,-0.3762,-0.7875,-5.425,-3.141806522837798,-13.126662550249048,-5.59180319997232,6.821000000003551
-0.2366,1.0125,-0.0562,0.2203,0.2267,0.0497,-0.7875,-0.4375,-5.425,-3.1654943971683265,-13.131047735832011,-5.59180319997232,6.821000000003551
-0.235,1.0125,-0.051,0.2203,0.2267,0.0497,-0.4725,-0.1575,-5.6962,-2.967176010299351,-13.075770614241822,-5.594165699971082,6.835999999995693
-0.233,1.0128,-0.0523,0.2203,0.2267,0.0472,-0.5688,0.0613,-5.5738,-2.959461855656859,-12.983140467749864,-5.594165699971082,6.835999999995693
-0.2346,1.014,-0.0565,0.2196,0.2247,0.0472,-0.5688,0.0613,-5.5738,-3.1190816242209154,-12.999525153944695,-5.593184899970883,6.851999999998952
-0.2389,1.0149,-0.0589,0.2196,0.2247,0.0472,-0.2187,0.385,-5.6525,-3.265639057583891,-13.153745124598503,-5.593184899970883,6.851999999998952
-0.2405,1.0149,-0.0521,0.22,0.2254,0.0552,-0.3237,0.2975,-5.6262,-3.031559643283199,-13.2635818583313,-5.588722399971056,6.86699999999837
-0.2405,1.0149,-0.0521,0.22,0.2254,0.0552,-0.9887,0.1138,-5.4513,-2.971218117381299,-13.297433449256971,-5.588722399971056,6.86699999999837
-0.2405,1.0092,-0.0536,0.2202,0.2254,0.0478,-0.9887,0.1138,-5.4513,-3.0160468717316498,-13.356177875767315,-5.586901599970685,6.88300000000163
-0.2399,1.0132,-0.0551,0.2202,0.2254,0.0478,-0.84,0.245,-5.1537,-3.080599870614038,-13.322131494480994,-5.586901599970685,6.88300000000163
-0.2403,1.0207,-0.052,0.2202,0.2254,0.0478,-1.3038,0.0613,-4.6287,-2.981046708080152,-13.273298859728978,-5.585920799970931,6.8989999999976135
