AcclX,AcclY,AcclZ,MagX,MagY,MagZ,GyroX,GyroY,GyroZ,Roll,Pitch,Yaw,Time Elapsed(s)
-0.2028,1.0157,-0.0527,0.1998,0.2113,0.1041,-4.8738,-21.91,-3.6837,0,0,0,0.0
-0.2048,1.0064,-0.0546,0.1986,0.2138,0.1002,-5.2238,-20.5012,-3.7625,0,0,0,0.0
-0.2048,1.0064,-0.0546,0.1986,0.2138,0.1002,-5.2238,-20.5012,-3.7625,0,0,0,0.014999999999417923
-0.2054,1.008,-0.0507,0.197,0.2125,0.1044,-5.1625,-19.4513,-3.8675,0,0,0,0.030999999995401595
-0.2039,1.0112,-0.0488,0.197,0.2125,0.1044,-4.515,-18.55,-4.305,0,0,0,0.030999999995401595
-0.2003,1.0086,-0.0432,0.197,0.2125,0.1044,-4.2613,-17.6575,-4.935,0,0,0,0.046999999998661224
-0.1929,1.0063,-0.0366,0.198,0.211,0.1105,-4.2613,-17.6575,-4.935,0,0,0,0.046999999998661224
-0.1929,1.0006,-0.0353,0.198,0.211,0.1105,-3.5612,-16.0912,-5.0138,0,0,0,0.06199999999807915
-0.1925,1.0006,-0.0353,0.197,0.212,0.1042,-3.4388,-14.8138,-5.1625,0,0,0,0.06199999999807915
-0.1921,0.9972,-0.03,0.197,0.212,0.1042,-2.3888,-13.5363,-4.83,0,0,0,0.07899999999790452
-0.1947,0.997,-0.0328,0.197,0.212,0.1042,-2.3888,-13.5363,-4.83,0,0,0,0.07899999999790452
-0.1912,0.9977,-0.0291,0.1974,0.2138,0.1071,-1.9425,-12.4775,-4.3225,0,0,0,0.09399999999732245
-0.1925,1.002,-0.0318,0.1974,0.2138,0.1071,-0.9275,-11.06,-4.1475,0,0,0,0.09399999999732245
-0.1925,1.002,-0.0318,0.1951,0.213,0.1052,-0.1225,-10.3863,-3.6312,0,0,0,0.10999999999330612
-0.2005,1.0061,-0.0356,0.1951,0.213,0.1052,-0.1225,-10.3863,-3.6312,0,0,0,0.10999999999330612
-0.2033,1.0208,-0.0402,0.1951,0.213,0.1052,0.9275,-9.7913,-3.955,0,0,0,0.12599999999656575
-0.206,1.0326,-0.0466,0.1954,0.2121,0.1182,1.365,-9.6337,-4.4713,0,0,0,0.12599999999656575
-0.2104,1.0334,-0.0489,0.1954,0.2121,0.1182,1.365,-10.1675,-5.1275,0,0,0,0.14099999999598367
-0.2104,1.0178,-0.0509,0.1962,0.2108,0.114,1.33,-10.1675,-5.1275,0,0,0,0.14099999999598367
-0.212,1.0275,-0.0509,0.1962,0.2108,0.114,1.575,-9.7825,-5.9588,0,0,0,0.1569999999992433
-0.2123,1.0224,-0.0536,0.1968,0.2112,0.1147,1.1725,-10.6225,-6.3,0,0,0,0.1569999999992433
-0.214,1.0142,-0.0487,0.1968,0.2112,0.1147,1.1725,-10.6225,-6.3,0,0,0,0.17199999999866122
-0.2159,1.0089,-0.0542,0.1968,0.2112,0.1147,0.7788,-11.48,-6.2825,0,0,0,0.17199999999866122
-0.2169,1.0108,-0.0589,0.1965,0.2125,0.1078,0.9712,-11.2875,-5.8275,0,0,0,0.1879999999946449
-0.2169,1.0108,-0.0589,0.1965,0.2125,0.1078,0.8487,-11.655,-5.5825,0,0,0,0.1879999999946449
-0.2161,1.0209,-0.0619,0.1958,0.21,0.108,0.8487,-11.655,-5.5825,0,0,0,0.20399999999790452
-0.2151,1.0347,-0.0592,0.1958,0.21,0.108,0.0437,-13.0813,-5.4075,0,0,0,0.20399999999790452
-0.2189,1.048,-0.0564,0.1958,0.21,0.108,-0.9013,-13.4312,-5.4163,0,0,0,0.21899999999732245
-0.2188,1.0559,-0.0546,0.1959,0.2119,0.1148,-2.4413,-14.07,-6.9475,0,0,0,0.21899999999732245
-0.2188,1.0559,-0.0523,0.1959,0.2119,0.1148,-2.4413,-14.07,-6.9475,0,0,0,0.23500000000058208
-0.216,1.0572,-0.0523,0.1974,0.2116,0.1148,-3.8325,-13.9738,-8.5225,0,0,0,0.23500000000058208
-0.2128,1.0534,-0.0431,0.1974,0.2116,0.1148,-6.1425,-13.79,-9.5725,0,0,0,0.25
-0.2088,1.0544,-0.0426,0.1974,0.2116,0.1148,-7.6825,-12.8188,-9.2837,0,0,0,0.25
-0.2077,1.0516,-0.0334,0.196,0.2113,0.1218,-7.6825,-12.8188,-9.2837,0,0,0,0.26599999999598367
-0.2015,1.043,-0.0232,0.196,0.2113,0.1218,-8.8375,-12.425,-9.3975,0,0,0,0.26599999999598367
-0.2015,1.043,-0.0232,0.1968,0.2134,0.1135,-9.8,-12.0487,-9.3275,0,0,0,0.2819999999992433
-0.2,1.0363,-0.0219,0.1968,0.2134,0.1135,-10.605,-11.0162,-8.6975,0,0,0,0.2819999999992433
-0.2003,1.0324,-0.0151,0.1968,0.2134,0.1135,-10.605,-11.0162,-8.6975,0,0,0,0.2969999999986612
-0.1917,1.0337,-0.0019,0.1974,0.2125,0.1151,-10.675,-10.1237,-8.3825,0,0,0,0.2969999999986612
-0.1886,1.0398,0.0057,0.1974,0.2125,0.1151,-11.5763,-9.59,-7.4113,0,0,0,0.31300000000192085
-0.1886,1.0398,0.0065,0.1945,0.2142,0.1194,-11.5763,-8.8375,-6.6675,0,0,0,0.31300000000192085
-0.1837,1.044,0.0065,0.1945,0.2142,0.1194,-12.88,-8.8375,-6.6675,0,0,0,0.3279999999940628
-0.1825,1.0349,0.0118,0.197,0.2144,0.1264,-14.7875,-7.4988,-6.0025,0,0,0,0.3279999999940628
-0.1861,1.0114,0.0096,0.197,0.2144,0.1264,-14.56,-6.8075,-6.685,0,0,0,0.34399999999732245
-0.1881,0.9869,0.0122,0.197,0.2144,0.1264,-14.56,-6.8075,-6.685,0,0,0,0.34399999999732245
-0.1871,0.9658,0.0075,0.1989,0.2166,0.1247,-13.5975,-7.0963,-6.3612,0,0,0,0.3600000000005821
-0.1871,0.9658,0.0075,0.1989,0.2166,0.1247,-11.3488,-6.93,-4.4975,0,0,0,0.37499999999272404
-0.1912,0.9537,-0.0023,0.1955,0.2158,0.1286,-9.0562,-7.7438,-1.7763,0,0,0,0.37499999999272404
-0.1807,0.9481,-0.0041,0.1955,0.2158,0.1286,-9.0562,-7.7438,-1.7763,0,0,0,0.39099999999598367
-0.1618,0.9574,-0.0132,0.1955,0.2158,0.1286,-5.5037,-8.2513,0.56,0,0,0,0.39099999999598367
-0.1475,0.9706,-0.0206,0.1958,0.2148,0.1284,-1.715,-9.1613,3.465,0,0,0,0.4059999999954016
-0.1475,0.9862,-0.0228,0.1958,0.2148,0.1284,0.1225,-8.5225,5.7838,0,0,0,0.4059999999954016
-0.1393,0.9848,-0.0228,0.195,0.2117,0.1281,0.1225,-8.5225,5.7838,0,0,0,0.4219999999986612
-0.1368,0.9991,-0.0293,0.195,0.2117,0.1281,1.9512,-7.8138,6.7812,0,0,0,0.4219999999986612
-0.1338,1.0131,-0.034,0.195,0.2117,0.1281,3.1762,-7.245,6.405,0,0,0,0.43800000000192085
-0.1311,1.0092,-0.0327,0.1915,0.2116,0.1294,4.2613,-7.0437,5.0487,0,0,0,0.43800000000192085
-0.1285,1.0045,-0.0289,0.1915,0.2116,0.1294,4.2613,-7.0437,5.0487,0,0,0,0.4529999999940628
-0.1285,1.0045,-0.0289,0.1898,0.2102,0.1282,4.3925,-6.475,2.87,0,0,0,0.4529999999940628
-0.1281,1.0103,-0.027,0.1898,0.2102,0.1282,4.2525,-5.4425,0.8225,0,0,0,0.46899999999732245
-0.1287,1.0241,-0.0226,0.1898,0.2102,0.1282,4.0338,-4.1562,-1.1025,0,0,0,0.46899999999732245
-0.1315,1.0265,-0.021,0.1888,0.212,0.1246,4.0338,-4.1562,-1.1025,0,0,0,0.48399999999674037
-0.1344,1.0202,-0.0188,0.1888,0.212,0.1246,2.9225,-2.6163,-3.2287,0,0,0,0.48399999999674037
-0.1344,1.0046,-0.011,0.1916,0.2122,0.1344,1.7938,-1.6275,-5.3025,0,0,0,0.5
-0.1399,1.0101,-0.011,0.1916,0.2122,0.1344,1.7938,-0.4638,-6.9825,0,0,0,0.5
-0.1438,0.9974,-0.014,0.1926,0.2111,0.1326,0.5337,-0.4638,-6.9825,0,0,0,0.5160000000032596
-0.152,0.9969,-0.0166,0.1926,0.2111,0.1326,-0.3413,0.8225,-7.8488,0,0,0,0.5160000000032596
-0.1665,1.002,-0.0174,0.1926,0.2111,0.1326,-0.665,1.7763,-8.6187,0,0,0,0.5309999999954016
-0.1785,1.0046,-0.0186,0.1918,0.2104,0.1275,-0.665,1.7763,-10.8588,0,0,0,0.5309999999954016
-0.1785,1.0046,-0.0186,0.1918,0.2104,0.1275,-0.735,1.7062,-9.9488,0,0,0,0.5469999999986612
-0.1907,1.0016,-0.0178,0.1946,0.2112,0.1295,-0.245,1.96,-11.3138,0,0,0,0.5469999999986612
-0.1987,1.0033,-0.0151,0.1946,0.2112,0.1295,0.1488,1.6013,-12.2413,0,0,0,0.5619999999980791
-0.2035,1.0127,-0.0141,0.1946,0.2112,0.1295,0.1488,1.6013,-12.2413,0,0,0,0.5619999999980791
-0.1945,1.0244,-0.0084,0.1946,0.2142,0.1322,0.1488,0.56,-12.5738,0,0,0,0.5789999999979045
-0.1945,1.0401,-0.0009,0.1946,0.2142,0.1322,-0.4988,-0.14,-12.18,0,0,0,0.5789999999979045
-0.1893,1.0314,-0.0009,0.194,0.2135,0.1294,-0.315,-0.945,-11.8737,0,0,0,0.5950000000011642
-0.1841,1.0325,-0.0009,0.194,0.2135,0.1294,-0.315,-0.945,-11.8737,0,0,0,0.5950000000011642
-0.1826,1.0345,0.0019,0.194,0.2135,0.1294,-1.8637,-1.2337,-11.025,0,0,0,0.6099999999933061
-0.1839,1.0398,0.0052,0.1946,0.213,0.1374,-3.5525,-1.0063,-9.555,0,0,0,0.6099999999933061
-0.1851,1.0337,0.0138,0.1946,0.213,0.1374,-4.8212,-1.4,-8.7325,0,0,0,0.6259999999965657
-0.1851,1.0337,0.0138,0.1949,0.2149,0.1339,-4.8212,-1.4,-8.7325,0,0,0,0.6259999999965657
-0.1843,1.0246,0.012,0.1949,0.2149,0.1339,-5.5125,-1.4088,-7.7875,0,0,0,0.6409999999959837
-0.1918,1.0209,0.0107,0.1949,0.2149,0.1339,-6.1775,-1.4963,-7.4637,0,0,0,0.6409999999959837
-0.1957,1.0134,0.0073,0.195,0.2133,0.1279,-6.6062,-1.8813,-7.7263,0,0,0,0.6569999999992433
-0.2014,0.9989,0.0048,0.195,0.2133,0.1279,-6.6062,-1.8813,-7.7263,0,0,0,0.6569999999992433
-0.2014,0.9989,-0.0006,0.1966,0.215,0.1232,-5.9763,-2.7475,-7.49,0,0,0,0.6730000000025029
-0.2036,0.9916,-0.0006,0.1966,0.215,0.1232,-4.4012,-4.0512,-7.91,0,0,0,0.6730000000025029
-0.2043,0.9983,-0.0079,0.1966,0.216,0.1366,-4.4012,-5.565,-8.0063,0,0,0,0.6879999999946449
-0.1994,1.0035,-0.0117,0.1966,0.216,0.1366,-2.5988,-5.565,-8.0063,0,0,0,0.6879999999946449
-0.192,1.016,-0.0043,0.1966,0.216,0.1366,-0.7262,-5.8012,-7.8138,0,0,0,0.7039999999979045
-0.1845,1.0189,0.0024,0.1973,0.2163,0.1313,0.77,-5.6788,-8.5837,0,0,0,0.7039999999979045
-0.1845,1.0189,0.0024,0.1973,0.2163,0.1313,0.77,-5.6788,-8.5837,0,0,0,0.7189999999973224
-0.1764,1.0276,0.003,0.1971,0.2145,0.1283,0.8925,-5.4163,-8.8988,0,0,0,0.7350000000005821
-0.1741,1.0303,0.0096,0.1971,0.2145,0.1283,0.1925,-4.8738,-9.1525,0,0,0,0.7350000000005821
-0.1762,1.028,0.0103,0.1971,0.2145,0.1283,-0.4725,-3.8063,-9.5113,0,0,0,0.7510000000038417
-0.1828,1.0185,0.0056,0.1972,0.2165,0.1285,-0.4725,-3.8063,-9.5113,0,0,0,0.7510000000038417
-0.1828,1.0185,0.0032,0.1972,0.2165,0.1285,-0.875,-2.38,-9.4937,0,0,0,0.7659999999959837
-0.1931,1.0124,0.0032,0.1983,0.2168,0.1314,-1.365,-1.2425,-8.7325,0,0,0,0.7659999999959837
-0.1994,1.0002,0.0004,0.1983,0.2168,0.1314,-2.2225,-1.155,-8.4,0,0,0,0.7819999999992433
-0.1985,0.9852,0.0001,0.1983,0.2168,0.1314,-2.2225,-1.155,-8.4,0,0,0,0.7819999999992433
-0.2062,0.9983,-0.0118,0.198,0.2182,0.1328,0.0263,-0.245,-7.2537,0,0,0,0.7969999999986612
-0.2092,1.0045,-0.0152,0.198,0.2182,0.1328,2.5725,-0.0175,-6.475,-0.7245479952412703,-5.234739378405552,0.0,0.7969999999986612
-0.2092,1.0045,-0.0152,0.1997,0.2185,0.1331,1.7763,-0.1312,-5.7925,-0.8400265844908219,-5.93079653657823,-0.006166399999824353,0.8439999999973224
-0.2065,0.9905,-0.0184,0.1997,0.2185,0.1331,1.7763,-0.1312,-5.7925,-1.0218695747736568,-6.553843694760979,-0.006166399999824353,0.8439999999973224
-0.2033,1.0003,-0.014,0.1997,0.2185,0.1331,2.6775,-0.3237,-4.095,-0.8373707217362557,-9.573659987669686,-0.006166399999824353,0.8439999999973224
-0.2022,1.0066,-0.0165,0.1988,0.2167,0.1392,4.0775,0.2713,-3.2113,-0.9257016515524149,-10.841576659150071,-0.006166399999824353,0.8439999999973224
-0.1947,1.0164,-0.0192,0.1988,0.2167,0.1392,4.5937,0.7875,-3.99,-1.0629031543799465,-10.841989609886836,-0.006166399999824353,0.8439999999973224
-0.1947,1.0164,-0.0142,0.1978,0.2182,0.1299,4.5937,0.7875,-3.99,-0.8327854889035762,-10.842680093032474,-0.006166399999824353,0.8439999999973224
-0.1932,1.0074,-0.0142,0.1978,0.2182,0.1299,4.2175,2.0475,-3.57,-0.8108305659510363,-10.851274278598824,0.026593600006849738,0.8600000000005821
-0.1952,1.006,-0.0187,0.1984,0.215,0.1254,4.97,3.115,-3.6575,-1.0349773579991763,-10.936730762211935,0.026593600006849738,0.8600000000005821
-0.194,1.0056,-0.0167,0.1984,0.215,0.1254,4.97,3.115,-3.1937,-0.9612692914230071,-10.92328783762466,0.07331860000503657,0.875
-0.1942,1.0035,-0.0207,0.1984,0.215,0.1254,4.7863,4.41,-3.1937,-1.1551667027764159,-10.942586015406407,0.07331860000503657,0.875
-0.1956,1.0065,-0.0227,0.1982,0.2155,0.1226,6.0375,5.7225,-3.36,-1.2776738534575602,-10.979089734791533,0.16487859998205312,0.8909999999959837
-0.1956,1.0065,-0.0227,0.1982,0.2155,0.1226,6.8513,6.405,-4.0775,-1.2906143605397224,-10.988790911417688,0.16487859998205312,0.8909999999959837
-0.1907,1.0097,-0.0243,0.1985,0.217,0.1286,6.8513,6.405,-4.0775,-1.370154866556586,-10.806543934802509,0.26735859995632855,0.9069999999919673
-0.1903,1.0116,-0.0236,0.1985,0.217,0.1286,6.0287,7.4637,-3.8675,-1.339965519973655,-10.706450187901646,0.26735859995632855,0.9069999999919673
-0.1878,1.0108,-0.0256,0.1985,0.217,0.1286,5.8713,8.3912,-3.9025,-1.4389845612802707,-10.588489152599267,0.3932266000124982,0.9219999999986612
-0.1915,1.0178,-0.0258,0.1982,0.2164,0.1174,6.685,9.2487,-4.3575,-1.4507853037658687,-10.624763902763387,0.3932266000124982,0.9219999999986612
-0.1915,1.0178,-0.0237,0.1982,0.2164,0.1174,6.685,9.2487,-4.3575,-1.3453766493856227,-10.64072544767599,0.5412058000426455,0.9380000000019209
-0.1952,1.0254,-0.0237,0.1974,0.2166,0.1217,6.755,10.5875,-5.0312,-1.326115219770028,-10.693349856185531,0.5412058000426455,0.9380000000019209
-0.1945,1.0233,-0.026,0.1974,0.2166,0.1217,6.055,11.2963,-5.6438,-1.4419441275017864,-10.69520839622088,0.7106502999538789,0.9529999999940628
-0.1988,1.0233,-0.0238,0.1974,0.2166,0.1217,4.9875,11.1562,-5.6613,-1.3452376233933676,-10.698676254523022,0.7106502999538789,0.9529999999940628
-0.2013,1.0263,-0.0254,0.1999,0.215,0.1268,4.9875,11.1562,-5.6613,-1.40920486959957,-10.703306606701116,0.889149499990244,0.9689999999973224
-0.2009,1.0287,-0.0256,0.1999,0.215,0.1268,3.8937,11.9263,-6.125,-1.423349225138398,-10.810320130534077,0.889149499990244,0.9689999999973224
-0.2009,1.0287,-0.0256,0.2013,0.2146,0.1187,2.9838,12.1538,-6.3263,-1.4252163540009133,-10.903892546531997,1.0836102999414303,0.9849999999933061
-0.1981,1.0329,-0.0218,0.2013,0.2146,0.1187,1.8813,12.3287,-5.7663,-1.2491258983730098,-10.899689561980281,1.0836102999414303,0.9849999999933061
-0.2015,1.0293,-0.0256,0.2013,0.2146,0.1187,1.8813,12.3287,-5.7663,-1.3921924871698796,-10.914460450223972,1.268540800023957,1.0
-0.2107,1.0194,-0.0279,0.2013,0.2138,0.1142,1.1988,12.495,-5.5125,-1.5305086062406936,-11.019563609315762,1.268540800023957,1.0
-0.2206,1.0178,-0.0278,0.2013,0.2138,0.1142,-0.1138,12.25,-4.9262,-1.5545645084827433,-11.53490282526242,1.4645408000638875,1.0160000000032596
-0.2206,1.0178,-0.0267,0.2002,0.2141,0.113,0.3938,10.9375,-4.305,-1.5159630417878478,-11.933688638083503,1.4645408000638875,1.0160000000032596
-0.2267,1.019,-0.0267,0.2002,0.2141,0.113,0.3938,10.9375,-4.305,-1.5047744194380306,-12.283009911703509,1.6286032999779403,1.0309999999954016
-0.2272,1.0219,-0.0259,0.2006,0.2167,0.1194,0.2625,9.415,-4.8825,-1.4658537582776123,-12.392441294179276,1.6286032999779403,1.0309999999954016
-0.2253,1.0279,-0.0168,0.2006,0.2167,0.1194,-0.6125,7.8575,-5.2325,-1.1187028840481639,-12.382902780831373,1.7543233000035527,1.0469999999986612
-0.2244,1.0235,-0.0102,0.2006,0.2167,0.1194,-0.6125,7.8575,-5.3113,-0.759600902707816,-12.378332420525336,1.8800432999719945,1.062999999994645
-0.2321,1.0186,-0.0073,0.2018,0.2169,0.1142,-2.0125,6.8863,-5.3113,-0.6426803668686688,-12.499947488581688,1.8800432999719945,1.062999999994645
-0.2321,1.0186,-0.0073,0.2018,0.2169,0.1142,-3.675,5.95,-6.3437,-0.5181183997483788,-12.634850784033459,1.9692933000118231,1.0780000000013388
-0.2417,1.0148,-0.0054,0.2024,0.2162,0.116,-5.635,5.1537,-7.3325,-0.356655084554454,-13.110182682554258,1.9692933000118231,1.0780000000013388
-0.2529,1.0031,-0.0095,0.2024,0.2162,0.116,-5.635,5.1537,-7.3325,-0.4974619554444515,-13.758879368893455,2.051752499991124,1.0939999999973224
-0.2624,1.0036,-0.0126,0.2024,0.2162,0.116,-6.3875,4.4713,-8.26,-0.673758564450324,-14.402547598522666,2.051752499991124,1.0939999999973224
-0.2627,1.011,-0.0189,0.202,0.2154,0.1143,-6.58,1.9688,-10.2638,-0.9925373569495686,-14.53453476624968,2.081284499989978,1.1089999999967404
-0.2627,1.011,-0.0198,0.202,0.2154,0.1143,-7.0437,-0.035,-11.8387,-1.0985531451263646,-14.55906930983599,2.081284499989978,1.1089999999967404
-0.2534,1.0017,-0.0198,0.2022,0.218,0.1166,-7.0437,-0.035,-11.8387,-1.1262631280565771,-14.24462665426044,2.0807244999898638,1.125
-0.2369,1.0015,-0.0183,0.2022,0.218,0.1166,-7.4637,-1.75,-12.04,-1.0601825494777415,-13.433653579676891,2.0807244999898638,1.125
-0.2294,1.0076,-0.0233,0.2022,0.218,0.1166,-6.5887,-2.5638,-11.5763,-1.272540258116142,-12.911099323641011,2.0397037000001608,1.1409999999959837
-0.2167,1.007,-0.0246,0.2039,0.2186,0.1226,-6.615,-3.29,-11.0513,-1.3745191532046162,-12.261714930271694,2.0397037000001608,1.1409999999959837
-0.2084,1.0028,-0.0306,0.2039,0.2186,0.1226,-6.615,-3.29,-11.0513,-1.6745991929955248,-11.817314209228432,1.990353699978138,1.1560000000026776
-0.2084,1.0028,-0.0306,0.2035,0.2199,0.1174,-6.2562,-2.8875,-9.2837,-1.7323667263957345,-11.752605498806576,1.990353699978138,1.1560000000026776
-0.1985,1.0068,-0.0327,0.2035,0.2199,0.1174,-6.44,-2.4588,-6.9475,-1.834287867249902,-11.413622727285425,1.9510129000059033,1.1719999999913853
-0.1903,1.0114,-0.0385,0.2035,0.2199,0.1174,-6.1863,-2.38,-4.6725,-2.1059487573614524,-11.03087180362407,1.9510129000059033,1.1719999999913853
-0.1914,1.0139,-0.0526,0.2036,0.2196,0.1263,-6.1863,-2.38,-4.6725,-2.7848033984901717,-10.853497519546893,1.915312899989972,1.1869999999980791
-0.1868,1.0032,-0.0663,0.2036,0.2196,0.1263,-7.9012,-2.0825,-2.5725,-3.625055331101133,-10.60546160960324,1.915312899989972,1.1869999999980791
-0.1868,1.0032,-0.0663,0.2042,0.219,0.1171,-10.4475,-4.5237,-0.5512,-3.7636232923100215,-10.538533780149042,1.8429336999752264,1.2030000000013388
-0.1845,1.0,-0.0778,0.2042,0.219,0.1171,-12.6875,-7.07,2.3275,-4.3873294746999,-10.435581202172713,1.8429336999752264,1.2030000000013388
-0.169,0.9872,-0.078,0.2042,0.2162,0.1231,-13.16,-7.07,2.3275,-4.506440550443663,-9.768178421329335,1.7298137000036218,1.2189999999973224
-0.1538,1.0273,-0.0728,0.2016,0.2162,0.1231,-13.8162,-9.9312,5.4513,-4.090334488076443,-8.59880279089582,1.7298137000036218,1.2189999999973224
-0.1408,1.0017,-0.0614,0.2016,0.2162,0.1231,-16.9837,-12.1187,8.4788,-3.545276925132733,-8.02676189305507,1.5480332000106758,1.2339999999967404
-0.1298,1.0147,-0.0468,0.1993,0.2178,0.1289,-16.9837,-12.1187,12.9587,-2.6992061810264856,-7.319941133308776,1.5480332000106758,1.2339999999967404
-0.1298,1.0147,-0.0468,0.1993,0.2178,0.1289,-16.4587,-11.5763,11.97,-2.6446386797306167,-7.284039844453886,1.36281240005717,1.249999999992724
-0.1341,1.0253,-0.0433,0.1966,0.2161,0.1301,-13.5013,-9.3013,11.6287,-2.437141343069839,-7.436123187721857,1.36281240005717,1.249999999992724
-0.1255,1.0428,-0.0317,0.1966,0.2161,0.1301,-14.0963,-7.7263,10.2113,-1.7965157915002399,-6.893509979792688,1.246917900005451,1.264999999999418
-0.1158,1.0494,-0.0131,0.1966,0.2161,0.1301,-14.0963,-7.7263,10.2113,-0.801159572909027,-6.331910563517121,1.246917900005451,1.264999999999418
-0.1128,1.0283,-0.0054,0.1961,0.2179,0.1327,-14.91,-4.5763,7.7962,-0.3382314424190537,-6.2649519472962005,1.173697099990534,1.2810000000026776
-0.1128,1.0283,0.0102,0.1961,0.2179,0.1327,-13.4925,-0.7525,4.2438,0.4926187032775993,-6.2602363958162695,1.173697099990534,1.2810000000026776
-0.1293,1.0249,0.0024,0.1937,0.2163,0.1302,-10.92,3.1237,0.9538,0.1722868801624811,-7.068400812597849,1.2236762999779882,1.2969999999986612
-0.137,1.0284,0.0028,0.1937,0.2163,0.1302,-10.92,3.1237,0.9538,0.15772969837985992,-7.519913826409552,1.2236762999779882,1.2969999999986612
-0.136,1.0238,0.0137,0.1937,0.2163,0.1302,-11.1475,5.2675,-2.45,0.7034340470777599,-7.555172974333659,1.3026887999749222,1.3119999999980791
-0.1394,1.0127,0.0231,0.1955,0.2158,0.1224,-12.8013,6.8162,-4.4187,1.2532496979728558,-7.711212499283131,1.3026887999749222,1.3119999999980791
-0.1495,0.9987,0.0285,0.1955,0.2158,0.1224,-13.6237,8.6975,-6.2038,1.6031133410873963,-7.988219235214452,1.44184879993999,1.3279999999940628
-0.1495,0.9987,0.0285,0.1962,0.2162,0.1299,-13.6237,8.6975,-6.2038,1.632010079076807,-8.169193096515619,1.44184879993999,1.3279999999940628
-0.1529,1.0039,0.0384,0.1962,0.2162,0.1299,-13.4575,10.3425,-7.4025,2.14376904669553,-8.47618630979137,1.5969863000092215,1.3430000000007567
-0.1581,1.0075,0.0451,0.1962,0.2162,0.1299,-13.0638,11.1125,-10.1412,2.5267795314619295,-8.830273139882829,1.5969863000092215,1.3430000000007567
-0.1666,1.0077,0.0552,0.1954,0.2189,0.1354,-13.3787,12.7225,-13.1075,3.084117481404292,-9.309374683066505,1.8005462999581237,1.3589999999967404
-0.1786,1.0041,0.0619,0.1954,0.2189,0.1354,-13.3787,12.7225,-13.1075,3.4902717966731167,-9.97721021833871,1.8005462999581237,1.3589999999967404
-0.1786,1.0041,0.0619,0.1986,0.2211,0.1324,-12.9675,13.7638,-14.9625,3.524397479356176,-10.058310838663656,2.0207671000029883,1.375
-0.1914,0.9966,0.0606,0.1986,0.2211,0.1324,-10.6225,14.1313,-17.255,3.484595385813709,-10.78881336164677,2.0207671000029883,1.375
-0.205,0.9955,0.0629,0.1986,0.2218,0.1351,-8.33,14.595,-18.445,3.59619353083009,-11.553656707801666,2.239692099994493,1.389999999999418
-0.2092,0.9967,0.0709,0.2014,0.2218,0.1351,-8.33,14.595,-18.445,3.9994955787039568,-11.805160156254807,2.239692099994493,1.389999999999418
-0.2127,0.9967,0.0671,0.2014,0.2218,0.1351,-6.4837,14.8925,-19.7313,3.881264926593668,-12.005775783685,2.47797209993468,1.4059999999954016
-0.2226,0.9861,0.0645,0.203,0.2246,0.1274,-3.9813,14.9625,-20.7113,3.7986992383902516,-12.651431236462471,2.47797209993468,1.4059999999954016
-0.2226,0.9861,0.0645,0.203,0.2246,0.1274,-3.9813,14.9625,-20.37,3.7652036904826995,-12.69163051873983,2.702409600034837,1.4210000000020955
-0.2271,0.978,0.062,0.2053,0.2243,0.1287,-0.8575,15.1375,-20.37,3.679224811016532,-13.024920413854128,2.94460959997404,1.4369999999980791
-0.2244,0.9828,0.061,0.2053,0.2243,0.1287,1.6538,16.1875,-18.2087,3.576328005056938,-12.851643289229408,2.94460959997404,1.4369999999980791
-0.223,1.0005,0.0634,0.2053,0.2243,0.1287,4.3225,16.3975,-16.3275,3.619566439215511,-12.567497642494688,3.206969599908182,1.4529999999940628
-0.2159,1.0072,0.0576,0.2068,0.2265,0.1232,4.3225,16.3975,-16.3275,3.3172812925554895,-12.121359921700028,3.206969599908182,1.4529999999940628
-0.2159,1.0072,0.0552,0.2068,0.2265,0.1232,6.125,17.29,-14.3238,3.1556808045012352,-12.085223141201427,3.4663196000239194,1.4680000000007567
-0.2215,1.02,0.0552,0.2102,0.2272,0.1221,6.7112,18.2175,-13.0988,3.1033610124370936,-12.216857433387599,3.4663196000239194,1.4680000000007567
-0.2303,1.0262,0.049,0.2102,0.2272,0.1221,6.8513,18.4538,-12.4163,2.769390108639271,-12.580848010467731,3.761580399949803,1.4839999999967404
-0.2463,1.0213,0.0448,0.2102,0.2272,0.1221,6.8513,18.4538,-12.4163,2.5365616701829325,-13.421518401104398,3.761580399949803,1.4839999999967404
-0.264,1.0258,0.044,0.2098,0.227,0.1233,6.9125,17.92,-12.7837,2.4638175499621777,-14.296665407825568,4.030380399939372,1.4989999999961583
-0.2747,1.0176,0.0393,0.2098,0.227,0.1233,6.0725,16.45,-14.245,2.237974994958987,-15.012586384786715,4.030380399939372,1.4989999999961583
-0.2747,1.0176,0.0393,0.2123,0.2286,0.1177,6.2913,15.2688,-15.225,2.214361134747193,-15.088191232292651,4.274681199878048,1.514999999992142
-0.2807,1.0114,0.0349,0.2123,0.2286,0.1177,6.2913,15.2688,-15.225,2.000572885924621,-15.463210380581835,4.274681199878048,1.514999999992142
-0.2807,1.0059,0.0303,0.2123,0.2286,0.1177,5.67,13.5275,-16.7388,1.7553169449846098,-15.57511283735499,4.4911211999221425,1.5309999999954016
-0.274,1.0008,0.0328,0.2133,0.2295,0.1066,5.2325,11.8038,-18.0163,1.8632043654169093,-15.32382414095402,4.4911211999221425,1.5309999999954016
-0.264,1.0052,0.0289,0.2133,0.2295,0.1066,4.2787,10.5262,-18.48,1.674586708512662,-14.754168627594845,4.649014199992604,1.5460000000020955
-0.264,1.0052,0.0309,0.2146,0.2298,0.1144,4.2787,10.5262,-18.48,1.7496758558055943,-14.712137920048372,4.649014199992604,1.5460000000020955
-0.2554,1.0101,0.0309,0.2146,0.2298,0.1144,3.5087,9.7825,-18.48,1.7518325508193013,-14.22156443630877,4.805534199953314,1.5619999999980791
-0.2569,1.0224,0.0297,0.2181,0.2308,0.1171,3.64,9.3013,-18.2612,1.676216730793879,-14.108094003612718,4.805534199953314,1.5619999999980791
-0.2622,1.0241,0.0332,0.2181,0.2308,0.1171,2.87,9.2837,-18.13,1.8285275844037885,-14.335452166592468,4.94478969994791,1.576999999997497
-0.2624,1.0141,0.0287,0.2181,0.2308,0.1171,2.87,9.2837,-18.13,1.6535737659156966,-14.4892863064489,4.94478969994791,1.576999999997497
-0.2658,1.0083,0.0265,0.2202,0.2324,0.116,1.6275,10.2463,-17.6313,1.534281160092537,-14.741894955973365,5.14971569998966,1.5970000000015716
-0.2658,1.0083,0.0265,0.2202,0.2324,0.116,1.9775,10.0538,-17.0187,1.510733191176997,-14.761308261866809,5.230146099932894,1.6049999999959255
-0.2711,1.0081,0.0256,0.2194,0.235,0.1158,1.9775,10.0538,-16.8438,1.4648779759353823,-15.023843970096015,5.31057649994928,1.6129999999975553
-0.2693,1.0088,0.0256,0.2194,0.235,0.1158,2.1788,10.2725,-16.8438,1.4556338479430149,-14.94874449155376,5.320848999914002,1.613999999994121
-0.265,1.0079,0.0242,0.2194,0.235,0.1158,2.135,10.535,-16.5812,1.3896184592600573,-14.745539503482108,5.320848999914002,1.613999999994121
-0.263,1.0,0.0211,0.2223,0.2361,0.1039,1.4963,10.8413,-15.8638,1.2448418569804098,-14.733178346080857,5.494309799949341,1.6299999999973807
-0.263,1.0,0.0223,0.2223,0.2361,0.1039,1.4963,10.8413,-15.8638,1.2709721351843881,-14.731739764516862,5.494309799949341,1.6299999999973807
-0.2598,1.0001,0.0223,0.2267,0.2364,0.1052,1.5575,11.5937,-15.75,1.276098171922055,-14.574251594071873,5.668215300026947,1.6450000000040745
-0.2601,1.0003,0.0218,0.2267,0.2364,0.1052,1.26,12.3025,-15.1725,1.2542589533902269,-14.572290215791933,5.865055299888024,1.6609999999927823
-0.2648,1.0017,0.0237,0.2267,0.2364,0.1052,0.9538,13.4488,-13.9388,1.3327371892534106,-14.778541612599444,5.865055299888024,1.6609999999927823
-0.265,1.0049,0.0237,0.2264,0.2389,0.1075,0.9538,13.4488,-13.9388,1.3469441310781018,-14.770118859688298,6.080236099931862,1.6769999999960419
-0.2688,1.0161,0.0253,0.2264,0.2389,0.1075,0.4812,13.8863,-13.4838,1.4064637590925513,-14.808360117707528,6.080236099931862,1.6769999999960419
-0.2688,1.0161,0.0253,0.2273,0.2383,0.1019,-0.2537,14.4812,-12.5387,1.4202340405188751,-14.812633694079759,6.311935299979066,1.6929999999993015
-0.2735,1.012,0.0198,0.2273,0.2383,0.1019,-1.5137,14.7262,-12.1538,1.2703515021231544,-15.079373592662941,6.311935299979066,1.6929999999993015
-0.2888,0.9996,0.0179,0.2273,0.2383,0.1019,-1.5137,14.7262,-12.1538,1.1479631408324882,-15.974289376806801,6.5475544999199204,1.7089999999952852
-0.302,0.9957,0.0171,0.2274,0.239,0.1041,-0.5688,15.26,-12.6438,1.0395562087409,-16.75799551378344,6.5475544999199204,1.7089999999952852
-0.3106,0.9981,0.0121,0.2274,0.239,0.1041,0.315,15.0763,-12.8013,0.7846096197276755,-17.21971661112801,6.773699000020839,1.724000000001979
-0.3106,0.9981,0.013,0.2284,0.2412,0.0995,0.49,14.6737,-12.8625,0.7558028818534318,-17.276419623265753,6.773699000020839,1.724000000001979
-0.3098,1.0035,0.013,0.2284,0.2412,0.0995,0.49,14.6737,-12.8625,0.7455996665675396,-17.169932996253085,7.008478199961905,1.7399999999979627
-0.301,1.0124,0.0148,0.2284,0.2414,0.0978,0.4812,14.6213,-12.39,0.8145344955460813,-16.635768536584077,7.008478199961905,1.7399999999979627
-0.2989,1.0225,0.0171,0.2312,0.2414,0.0978,0.0525,14.9012,-12.25,0.9178788475955042,-16.337964923304526,7.231996199953231,1.7549999999973807
-0.2982,1.0273,0.0201,0.2312,0.2414,0.0978,-1.2513,14.9713,-11.3488,1.0312656615559725,-16.206878360507584,7.231996199953231,1.7549999999973807
-0.3039,1.0228,0.0176,0.2315,0.2417,0.099,-1.2513,14.9713,-11.3488,1.0058892813638434,-16.49495661866819,7.471536999893102,1.7709999999933643
-0.3039,1.0228,0.0176,0.2315,0.2417,0.099,-2.8612,15.19,-10.7362,1.0007451700590881,-16.537342015623395,7.471536999893102,1.7709999999933643
-0.317,1.0175,0.0106,0.2322,0.2408,0.0987,-3.57,15.0675,-9.8525,0.7935287554668679,-17.155518603211096,7.712616999942217,1.786999999996624
-0.3266,1.018,0.0101,0.2322,0.2408,0.0987,-3.57,15.0675,-7.6125,0.6780411288306101,-17.57198246787491,7.712616999942217,1.786999999996624
-0.3312,1.0128,0.0142,0.2322,0.2408,0.0987,-3.99,14.6737,-8.3825,0.7526423790975698,-17.962631471828942,7.932722500040441,1.8020000000033178
-0.3357,1.0027,0.0135,0.2337,0.243,0.0967,-4.095,13.9475,-7.9713,0.7641035903206636,-18.343186881949123,7.932722500040441,1.8020000000033178
-0.3357,1.0027,0.0135,0.2337,0.243,0.0967,-3.0625,13.1775,-7.4113,0.7666681390485143,-18.448303174373223,8.143562499987516,1.8179999999993015
-0.3381,0.996,0.0131,0.2342,0.2426,0.0926,-3.0625,13.1775,-7.4113,0.7620327044289035,-18.638976136424525,8.143562499987516,1.8179999999993015
-0.3396,0.9941,0.017,0.2342,0.2426,0.0926,-2.2313,12.39,-5.6875,0.8103154272575704,-18.642079279877244,8.329412499980304,1.8329999999987194
-0.3396,0.9971,0.0184,0.2342,0.2426,0.0926,-2.3537,11.2788,-4.2175,0.8448474053305497,-18.73879418943921,8.329412499980304,1.8329999999987194
-0.3411,0.9842,0.0176,0.2356,0.2439,0.0956,-2.3625,9.6163,-3.6312,0.8687962454850718,-18.98948138507032,8.483273299941681,1.848999999994703
-0.3547,0.9884,0.0044,0.2356,0.2439,0.0956,-2.3625,9.6163,-3.6312,0.7869742902115843,-19.493944873946916,8.483273299941681,1.848999999994703
-0.3547,0.9884,0.0044,0.2339,0.2417,0.0894,-0.9887,8.6888,-3.3512,0.4654994089087821,-19.666625504488703,8.622294099970004,1.8649999999979627
-0.3577,0.9761,0.0035,0.2339,0.2417,0.0894,-0.5863,6.1163,-2.9225,0.2941996791881701,-20.003274234788318,8.622294099970004,1.8649999999979627
-0.3568,0.9866,0.0023,0.2339,0.2417,0.0894,0.9187,5.18,-2.6075,0.16978835360575248,-19.912035817485815,8.699994100004679,1.8800000000046566
-0.3495,0.9997,0.0001,0.2347,0.243,0.083,0.9187,5.18,-2.6075,0.04272253328609781,-19.427823147476452,8.699994100004679,1.8800000000046566
-0.3442,1.0015,-0.0006,0.2347,0.243,0.083,1.8988,2.975,-3.0275,-0.020097585090873796,-19.09343744621054,8.747594099971083,1.8959999999933643
-0.3442,1.0015,-0.0006,0.2341,0.2438,0.0845,2.2838,1.8988,-3.43,-0.03187285689116639,-19.00601839948727,8.747594099971083,1.8959999999933643
-0.3417,1.0109,-0.003,0.2341,0.2438,0.0845,3.9462,0.805,-5.215,-0.15151954626069689,-18.902319853646972,8.759669099976472,1.9110000000000582
-0.3452,1.0084,-0.0035,0.2341,0.243,0.0903,3.9462,0.805,-5.215,-0.1925196761608873,-18.90071897880466,8.759669099976472,1.9110000000000582
-0.3481,1.0074,-0.0024,0.2342,0.243,0.0903,4.2,-0.1312,-7.5512,-0.14375946792747135,-19.006079720751934,8.757569899977,1.9269999999960419
-0.3385,1.016,0.0021,0.2342,0.243,0.0903,4.0425,-0.8487,-9.4062,0.08374011932836084,-18.548916558469777,8.757569899977,1.9269999999960419
-0.3213,1.021,0.0027,0.235,0.2441,0.0874,4.0425,-0.8487,-10.4475,0.14254988962757217,-17.65543043295698,8.743990699974233,1.9429999999993015
-0.3213,1.021,0.0027,0.235,0.2441,0.0874,3.675,-0.9712,-10.4475,0.1502695487800492,-17.50069667085707,8.743990699974233,1.9429999999993015
-0.3184,1.0207,-0.001,0.2354,0.2455,0.0819,2.7825,-0.5512,-10.9025,-0.023365245103473993,-17.353142979992956,8.735722699974554,1.9579999999987194
-0.315,1.0194,-0.0001,0.2354,0.2455,0.0819,1.3212,-0.2975,-10.0013,-0.009288676714350623,-17.2055311062984,8.735722699974554,1.9579999999987194
-0.3146,1.0111,-0.0051,0.2354,0.2455,0.0819,1.3212,-0.2975,-10.0013,-0.23117734393012107,-17.26856490714326,8.730962699975748,1.973999999994703
-0.3111,0.9984,-0.0026,0.2352,0.2438,0.086,0.7875,1.05,-7.3675,-0.16825325250119105,-17.292674307381365,8.730962699975748,1.973999999994703
-0.3111,0.9984,-0.0026,0.2352,0.2438,0.086,0.2625,0.5688,-4.0425,-0.15424756810443044,-17.301494595097214,8.739494699979556,1.989000000001397
-0.3121,0.9891,-0.0132,0.2366,0.2422,0.0877,-0.2625,-0.1663,-0.4988,-0.5770154912935885,-17.47713003308161,8.736833899980224,2.0049999999973807
-0.3169,0.9856,-0.026,0.2366,0.2422,0.0877,-0.2625,-0.1663,-0.4988,-1.224030543580879,-17.763086846844647,8.736833899980224,2.0049999999973807
-0.3292,0.9931,-0.0358,0.2366,0.2422,0.0877,0.9887,0.0088,2.5988,-1.8779734810145763,-18.26760150327471,8.736974699980253,2.0210000000006403
-0.3316,0.9936,-0.0312,0.2358,0.2433,0.0885,1.8988,-1.82,3.255,-1.8132184824564241,-18.4291363501949,8.736974699980253,2.0210000000006403
-0.3425,1.0047,-0.0382,0.2358,0.2433,0.0885,2.765,-3.8763,2.4938,-2.119430948409143,-18.769783677291183,8.678830200010713,2.0359999999927823
-0.3425,1.0047,-0.0382,0.2332,0.2428,0.0876,2.765,-3.8763,2.4938,-2.168180609659392,-18.806944035021345,8.678830200010713,2.0359999999927823
-0.3322,1.0155,-0.0346,0.2332,0.2428,0.0876,1.575,-5.915,0.21,-1.993994786390389,-18.206661577235874,8.584190199991433,2.051999999996042
-0.3088,1.0142,-0.0202,0.2332,0.2428,0.0876,0.2713,-8.505,-1.4787,-1.3662198931561147,-17.176654982456558,8.584190199991433,2.051999999996042
-0.2883,1.0411,-0.02,0.2335,0.2411,0.0915,0.2975,-7.91,-3.5087,-1.1702040650264756,-16.013208032958904,8.465540199938484,2.0670000000027358
-0.2717,1.0371,-0.012,0.2335,0.2411,0.0915,0.2975,-7.91,-3.5087,-0.7959349766738892,-15.100975584655268,8.465540199938484,2.0670000000027358
-0.2717,1.0371,-0.012,0.2326,0.2404,0.0926,-1.8463,-7.7,-4.2962,-0.7425701736984558,-14.856826138959349,8.34234019996941,2.0829999999987194
-0.2668,1.0508,-0.0073,0.2326,0.2404,0.0926,-4.2263,-7.0087,-4.0775,-0.5251692923337506,-14.481403518418107,8.34234019996941,2.0829999999987194
-0.2566,1.0329,-0.0046,0.2326,0.2404,0.0825,-6.7812,-4.865,-3.6575,-0.3064482330627747,-14.127044764672117,8.264500199953552,2.099000000001979
-0.257,1.0083,-0.0082,0.2329,0.2406,0.0825,-6.7812,-4.865,-3.6575,-0.4356526599699342,-14.241900537535788,8.264500199953552,2.099000000001979
-0.2535,1.0116,-0.0037,0.2329,0.2406,0.0825,-8.4875,-2.9925,-2.0738,-0.24199465696142305,-14.105913758809503,8.219612699977068,2.113999999994121
-0.2535,1.0046,-0.0034,0.2326,0.2407,0.087,-8.155,-2.0738,-2.4675,-0.20115557982241186,-14.148847437270186,8.219612699977068,2.113999999994121
-0.2519,1.0046,-0.0034,0.2326,0.2407,0.087,-8.155,-2.0738,-2.31,-0.19500388883904377,-14.093018140904158,8.186431899970309,2.1299999999973807
-0.2496,1.0035,-0.0006,0.2334,0.2387,0.0886,-8.7413,-0.9538,-2.31,-0.05650626566112721,-13.996426133235376,8.186431899970309,2.1299999999973807
-0.2411,0.9937,0.0082,0.2334,0.2387,0.0886,-9.6075,-0.56,-2.3712,0.40737642536803675,-13.721013158016241,8.17803189996656,2.1450000000040745
-0.2364,0.994,0.0123,0.2334,0.2387,0.0886,-9.66,0.3413,-2.4588,0.6719235051908828,-13.458600758824149,8.17803189996656,2.1450000000040745
-0.232,0.9934,0.0187,0.2322,0.2416,0.0982,-9.66,0.3413,-2.4588,1.0285062643825622,-13.217946988307856,8.18349269996519,2.161000000000058
-0.232,0.9934,0.0187,0.2322,0.2416,0.0982,-9.2925,1.7763,-2.45,1.0720030576811594,-13.160806624560937,8.18349269996519,2.161000000000058
-0.2407,0.9787,0.0162,0.2332,0.2421,0.0888,-8.4788,2.66,-2.4062,0.9660720632673218,-13.661834131280672,8.226052699954506,2.176999999996042
-0.2525,0.9682,0.0148,0.2332,0.2421,0.0888,-7.6388,3.29,-2.2662,0.8905114836433949,-14.398824835868869,8.226052699954506,2.176999999996042
-0.2631,0.9556,0.0143,0.2332,0.2421,0.0888,-7.6388,3.29,-2.2662,0.8627530765446133,-15.166548330069768,8.275402699952592,2.19199999999546
-0.2674,0.9561,0.0109,0.2341,0.2415,0.0925,-5.3637,3.3688,-2.4588,0.7076451597583582,-15.515578854140015,8.275402699952592,2.19199999999546
-0.2517,0.9759,0.0111,0.2341,0.2415,0.0925,-1.47,3.01,-2.1088,0.6790192648734239,-14.692364656078842,8.326572699952067,2.208999999995285
-0.2651,0.9759,0.0111,0.2328,0.2402,0.0913,-0.3237,2.5025,-2.5812,0.6602300375167698,-15.073327575093328,8.326572699952067,2.208999999995285
-0.2509,0.9876,0.016,0.2328,0.2402,0.0913,-0.3237,2.5025,-2.5812,0.8442394920787826,-14.453209111840726,8.364110199968819,2.224000000001979
-0.2438,1.001,0.0187,0.2328,0.2402,0.0913,0.8575,3.1762,-3.0013,1.0185659529693976,-13.894907110318359,8.364110199968819,2.224000000001979
-0.2423,1.0081,0.0215,0.2338,0.2399,0.0958,1.5488,3.4037,-3.045,1.1816566689599368,-13.617467627789134,8.418569399955148,2.2399999999979627
-0.241,1.015,0.022,0.2338,0.2399,0.0958,0.91,3.8937,-3.43,1.2281229812014305,-13.435137531315794,8.418569399955148,2.2399999999979627
-0.241,1.015,0.022,0.233,0.2394,0.0937,0.91,3.8937,-3.43,1.238620699340404,-13.37891755525133,8.48086859996784,2.2560000000012224
-0.2378,1.0141,0.0226,0.233,0.2394,0.0937,0.4375,4.8387,-3.5,1.267046041811301,-13.252202173528175,8.48086859996784,2.2560000000012224
-0.2417,1.0093,0.022,0.233,0.2394,0.0937,0.455,5.6525,-4.0862,1.2533156723953927,-13.382185271556875,8.565656099923423,2.2709999999933643
-0.2416,0.9969,0.0172,0.2337,0.2384,0.095,0.455,5.6525,-4.0512,1.055147410951381,-13.52997619247729,8.565656099923423,2.2709999999933643
-0.2473,0.9836,0.0176,0.2337,0.2384,0.095,-0.2275,5.7838,-4.0512,1.0342431186488554,-13.88927903573587,8.658196899942276,2.286999999996624
-0.2473,0.9781,0.0106,0.2338,0.239,0.0888,0.6913,6.3525,-3.85,0.7191438506794559,-14.082405412017483,8.658196899942276,2.286999999996624
-0.2542,0.9781,0.0106,0.2338,0.239,0.0888,0.9363,6.5363,-3.3863,0.6429715461450288,-14.4199699963655,8.756241399938471,2.301999999996042
-0.2576,0.9647,0.0063,0.2342,0.2378,0.0826,0.9363,6.5363,-3.3863,0.4345364019455945,-14.788974436104024,8.756241399938471,2.301999999996042
-0.2638,0.9661,-0.0014,0.2342,0.2378,0.0826,2.7037,5.5825,-3.2113,0.000180781984807761,-15.1329454623703,8.845561399956669,2.3179999999993015
-0.2754,0.9755,-0.0146,0.2342,0.2378,0.0826,5.04,4.3575,-2.9225,-0.7572286353956373,-15.595443769220278,8.845561399956669,2.3179999999993015
-0.2841,0.9734,-0.0229,0.2318,0.2387,0.0828,7.5338,2.94,-3.92,-1.2942457722941603,-16.022656499594525,8.892601399966251,2.334000000002561
-0.2841,0.9734,-0.0229,0.2318,0.2387,0.0828,7.5338,2.94,-3.92,-1.34284405845821,-16.177828558695534,8.892601399966251,2.334000000002561
-0.2977,0.9677,-0.0292,0.2336,0.2381,0.0846,8.6625,0.7262,-4.4625,-1.696700928665849,-16.67873898264812,8.903494399960545,2.348999999994703
-0.2938,0.9911,-0.0349,0.2336,0.2381,0.0846,9.8088,-1.2862,-5.6087,-1.9927277019312273,-16.66804732608411,8.903494399960545,2.348999999994703
-0.2779,1.0204,-0.0321,0.2336,0.2381,0.0846,9.5463,-2.5988,-6.1775,-1.816444805854594,-16.185092321065298,8.861913599952073,2.3649999999979627
-0.2604,1.0408,-0.0318,0.2326,0.2388,0.0843,9.5463,-2.5988,-6.1775,-1.7551213719575844,-15.466035958578804,8.861913599952073,2.3649999999979627
-0.2604,1.0591,-0.0296,0.2326,0.2388,0.0843,8.8988,-3.9638,-6.2562,-1.613322504653523,-14.855402220499334,8.80245659995438,2.3799999999973807
-0.2471,1.0591,-0.0296,0.2311,0.2391,0.0848,6.4662,-4.1562,-5.8275,-1.6021448646501175,-14.62441847765004,8.735957399971074,2.3959999999933643
-0.2303,1.0684,-0.0215,0.2311,0.2391,0.0848,4.2175,-3.535,-5.0487,-1.2109350632218532,-13.677817897255167,8.735957399971074,2.3959999999933643
-0.2185,1.0641,-0.0257,0.2311,0.2391,0.0848,4.2175,-3.535,-5.0487,-1.3612139681093731,-12.879243858903886,8.679397399959552,2.411999999996624
-0.2229,1.0455,-0.0292,0.2336,0.2381,0.0942,1.6625,-2.1962,-3.605,-1.5537390006652225,-12.307252765796251,8.679397399959552,2.411999999996624
-0.2417,1.0139,-0.0351,0.2336,0.2381,0.0942,-0.2275,-0.8575,-2.1962,-1.852283524960419,-13.156342778335537,8.66653489996005,2.426999999996042
-0.2417,1.0139,-0.0351,0.2314,0.2376,0.0847,-0.0525,-0.21,-1.7938,-1.9450626850902992,-13.350499204671838,8.66653489996005,2.426999999996042
-0.2605,0.9941,-0.0403,0.2314,0.2376,0.0847,-0.0525,-0.21,-1.7938,-2.2127896782714456,-14.401513618262417,8.663174899959365,2.4429999999993015
-0.2653,0.9829,-0.0467,0.2314,0.2376,0.0847,0.665,-1.1638,-1.7587,-2.5988620851462922,-14.948967129083535,8.663174899959365,2.4429999999993015
-0.2654,0.9991,-0.0531,0.2342,0.2377,0.0805,1.6187,-2.1788,-2.835,-2.955931703944256,-14.88051526656858,8.630492899976486,2.4579999999914435
-0.2494,1.0002,-0.0432,0.2342,0.2377,0.0805,1.6187,-4.4187,-3.8412,-2.567163876658678,-14.303588617461488,8.630492899976486,2.4579999999914435
-0.2494,1.0214,-0.0407,0.2305,0.2355,0.0883,1.19,-4.0687,-3.8412,-2.3424916845774857,-13.920387645608912,8.565393699963224,2.473999999994703
-0.236,1.0214,-0.0407,0.2305,0.2355,0.0883,1.61,-4.4275,-4.095,-2.293698055713824,-13.35712807042308,8.565393699963224,2.473999999994703
-0.227,1.0449,-0.0372,0.2321,0.2352,0.0886,0.8138,-3.535,-5.9412,-2.0977847601743513,-13.122946206105475,8.508833699951701,2.4899999999979627
-0.2207,1.0454,-0.0274,0.2321,0.2352,0.0886,0.8138,-3.535,-5.9412,-1.6391155826457466,-12.86802712595784,8.508833699951701,2.4899999999979627
-0.2212,1.036,-0.0156,0.2321,0.2352,0.0886,-2.5638,-3.115,-7.315,-1.603925420730325,-12.360340118342807,8.462108699953514,2.5049999999973807
-0.2244,1.0166,-0.0131,0.2325,0.2382,0.0834,-5.2325,-1.925,-8.4,-0.9712182597151139,-12.423470825404907,8.462108699953514,2.5049999999973807
-0.2244,1.0166,-0.0131,0.2325,0.2382,0.0834,-7.07,0.07,-9.0125,-0.7802212480603892,-12.441287116950752,8.463228699953742,2.5210000000006403
-0.2324,0.9928,-0.0173,0.2328,0.2371,0.0822,-7.07,0.07,-9.0125,-0.9590361972632172,-13.004339869633146,8.463228699953742,2.5210000000006403
-0.2423,0.9781,-0.0138,0.2328,0.2371,0.0822,-7.3763,1.435,-9.3013,-0.8340493536961884,-13.716020908860749,8.484753699942466,2.5359999999927823
-0.2511,0.9762,-0.0157,0.2328,0.2371,0.0822,-6.86,1.8637,-9.8525,-0.9050497146280457,-14.286687953941623,8.484753699942466,2.5359999999927823
-0.2527,0.9729,-0.0125,0.2298,0.2394,0.0831,-6.51,1.8288,-9.8962,-0.7699377958452512,-14.506906540653778,8.514014499948427,2.551999999996042
-0.2527,0.9778,-0.019,0.2298,0.2394,0.0831,-6.51,1.8288,-9.8962,-1.044457224803507,-14.49137589947239,8.514014499948427,2.551999999996042
-0.2599,0.9778,-0.019,0.2346,0.2373,0.084,-5.6,1.2337,-9.7475,-1.0963632526810578,-14.805344545462296,8.533753699952449,2.5679999999993015
-0.2544,0.9833,-0.0076,0.2346,0.2373,0.084,-4.69,0.35,-9.8175,-0.6487563259793353,-14.563479375335499,8.533753699952449,2.5679999999993015
-0.2609,0.9982,-0.0104,0.2346,0.2373,0.084,-4.7688,0.035,-10.1763,-0.6128637482663944,-14.63180743571094,8.534278699952429,2.5829999999987194
-0.2627,1.0002,-0.0073,0.2358,0.2391,0.0926,-4.7688,0.035,-10.1763,-0.4780288880551874,-14.700564710877611,8.534278699952429,2.5829999999987194
-0.2677,1.0037,-0.0064,0.2358,0.2391,0.0926,-4.6638,-0.2187,-10.22,-0.40114040788812444,-14.89159942813112,8.530342099953218,2.6009999999951106
-0.2677,1.0037,-0.0064,0.234,0.2411,0.081,-4.5675,-0.4112,-10.4738,-0.37707081431360684,-14.926371090559439,8.530342099953218,2.6009999999951106
-0.2734,1.0095,-0.0065,0.234,0.2411,0.081,-5.4775,0.0,-11.1912,-0.37097225552225077,-15.118601248857873,8.530342099953218,2.6159999999945285
-0.2766,1.0139,-0.0006,0.234,0.2411,0.081,-5.4775,0.0,-11.1912,-0.1189986184482941,-15.237815167319699,8.530342099953218,2.6159999999945285
-0.2784,1.0155,0.002,0.2347,0.2426,0.0832,-5.8975,0.0962,-11.9438,0.05992482133232404,-15.31815856769885,8.531881299953533,2.631999999997788
-0.2803,1.0102,0.0015,0.2347,0.2426,0.0832,-5.9325,0.1925,-12.4775,0.0793806300279648,-15.483423849040388,8.531881299953533,2.631999999997788
-0.2803,1.0102,0.0022,0.238,0.2432,0.0903,-5.9325,0.1925,-12.4775,0.11449803741673263,-15.504583577836602,8.53496129995416,2.6480000000010477
-0.2819,1.0117,0.0022,0.238,0.2432,0.0903,-5.8713,0.805,-12.7662,0.12227480109027417,-15.561850376030169,8.53496129995416,2.6480000000010477
-0.2882,1.0095,0.0027,0.2392,0.2437,0.0922,-5.7663,1.3913,-13.02,0.14595588828318004,-15.888839782378412,8.555830799943227,2.6629999999931897
-0.2909,1.0036,0.0102,0.2392,0.2437,0.0922,-5.4513,1.6363,-13.1775,0.4714117469030278,-16.131454393079107,8.555830799943227,2.6629999999931897
-0.2906,1.0028,0.0104,0.2392,0.2437,0.0922,-5.4513,1.6363,-13.1775,0.562988965975561,-16.156785984834755,8.58201159994856,2.6789999999964493
-0.2921,0.9999,0.0124,0.2384,0.2449,0.0844,-4.7863,2.6862,-12.0662,0.6653908427005719,-16.26630861121189,8.58201159994856,2.6789999999964493
-0.2921,0.9999,0.0124,0.2384,0.2449,0.0844,-4.235,3.64,-11.9087,0.6939091213399886,-16.2810724487379,8.636611599946441,2.6939999999958673
-0.2987,0.9999,0.0175,0.2392,0.2466,0.0827,-3.7362,4.6112,-11.4012,0.8635829174775843,-16.578181472142976,8.636611599946441,2.6939999999958673
-0.3013,0.9992,0.0156,0.2392,0.2466,0.0827,-3.7362,4.6112,-11.4012,0.880549035354879,-16.748551671042236,8.710390799961472,2.709999999999127
-0.3023,0.9986,0.0198,0.2392,0.2466,0.0827,-3.7538,5.2762,-10.5962,1.021774315736498,-16.823888485284005,8.710390799961472,2.709999999999127
-0.3084,0.999,0.0139,0.2398,0.2462,0.0914,-3.5875,6.5275,-9.6687,0.9056062750073676,-17.088198522483395,8.814830799982749,2.7260000000023865
-0.3084,0.999,0.0151,0.2398,0.2462,0.0914,-3.1675,7.3763,-8.6888,0.8899734544817803,-17.13766496875803,8.814830799982749,2.7260000000023865
-0.3126,0.9958,0.0151,0.24,0.2471,0.085,-3.1675,7.3763,-8.6888,0.8816030388569005,-17.354312517568626,8.925475299924786,2.7409999999945285
-0.3196,0.996,0.0112,0.24,0.2471,0.085,-2.4325,7.98,-8.5662,0.8632467074067763,-17.67773385300382,8.925475299924786,2.7409999999945285
-0.319,0.9947,0.0115,0.24,0.2471,0.085,-3.36,8.1462,-7.77,0.7713303397683604,-17.746921295066837,9.055814499951339,2.756999999997788
-0.3207,0.9917,0.0099,0.2404,0.2462,0.0835,-3.325,8.1025,-6.9475,0.6821885389617338,-17.843645252441043,9.055814499951339,2.756999999997788
-0.3255,0.9994,0.0089,0.2404,0.2462,0.0835,-3.325,8.1025,-6.9475,0.6053021224194676,-17.953398232602193,9.177351999946623,2.771999999997206
-0.3255,0.9994,0.0089,0.2421,0.2468,0.0832,-2.8087,7.9713,-6.1512,0.5837927722728747,-17.9812536984478,9.177351999946623,2.771999999997206
-0.3182,0.9988,0.0093,0.2421,0.2468,0.0832,-3.29,7.2013,-4.9175,0.5618444453806564,-17.84738961234224,9.292572799970097,2.7880000000004657
-0.3172,1.0029,0.0085,0.2421,0.2468,0.0832,-3.29,4.9612,-4.5325,0.5285841940946389,-17.689283962668014,9.292572799970097,2.7880000000004657
-0.3121,1.0009,0.0086,0.2414,0.2466,0.0779,-3.535,6.6675,-4.5325,0.5102684686374319,-17.49138474436073,9.39925279999183,2.8040000000037253
-0.3115,1.0084,0.012,0.2414,0.2466,0.0779,-3.6925,6.2562,-3.6925,0.6029720338126155,-17.27453195627569,9.39925279999183,2.8040000000037253
-0.3115,1.0084,0.0107,0.2404,0.2448,0.089,-4.3225,5.985,-3.045,0.6061665272772779,-17.19539296314227,9.4890277999448,2.8189999999958673
-0.3102,1.0106,0.0107,0.2404,0.2448,0.089,-4.3225,5.985,-3.045,0.6064531550988603,-17.099329034218638,9.584787799964309,2.834999999999127
-0.3176,1.0144,0.0096,0.2404,0.2471,0.0846,-4.095,4.8913,-2.52,0.5671264043047477,-17.315579888339144,9.584787799964309,2.834999999999127
-0.3176,1.0108,0.0066,0.2395,0.2471,0.0846,-5.5475,3.7538,-2.5025,0.4219882382982998,-17.412229487066142,9.641094799962124,2.849999999998545
-0.3132,1.006,0.0106,0.2395,0.2471,0.0846,-6.3875,2.66,-2.1437,0.5663890884860735,-17.318648755691726,9.641094799962124,2.849999999998545
-0.3105,1.0124,0.0095,0.2398,0.2467,0.0794,-6.3875,2.66,-2.1437,0.5435318273853484,-17.109241544663853,9.68365479995144,2.8659999999945285
-0.3105,1.0124,0.0095,0.2398,0.2467,0.0794,-5.32,1.4438,-2.8175,0.5391796593810081,-17.065298357295124,9.68365479995144,2.8659999999945285
-0.3102,1.0187,0.0068,0.2407,0.2458,0.089,-4.6287,0.6388,-3.115,0.4328093975003638,-16.971934474874743,9.693875599953524,2.881999999997788
-0.3081,1.0189,0.0075,0.2407,0.2458,0.089,-5.1712,-0.1838,-3.885,0.4247684522911445,-16.877119248809592,9.693875599953524,2.881999999997788
-0.3071,1.0187,0.0131,0.2407,0.2458,0.089,-5.1712,-0.1838,-3.885,0.6513939740189749,-16.811490295313906,9.691118599953631,2.896999999997206
-0.3011,1.0149,0.0162,0.2417,0.2466,0.0851,-5.5475,-1.7587,-4.655,0.8492223641726658,-16.665721523176565,9.691118599953631,2.896999999997206
-0.3011,1.0149,0.0162,0.2417,0.2466,0.0851,-5.7838,-2.625,-5.1275,0.8991934624222292,-16.615179086780454,9.649118599945075,2.9130000000004657
-0.2933,1.0102,0.0164,0.2406,0.2446,0.0846,-4.9788,-2.2575,-5.25,0.9211606432647408,-16.48817193102649,9.649118599945075,2.9130000000004657
-0.2885,1.0116,0.0244,0.2406,0.2446,0.0846,-4.9788,-2.2575,-5.25,1.2487041346000904,-16.31724783689893,9.615256099962814,2.9279999999926076
-0.2851,1.008,0.0266,0.2406,0.2446,0.0846,-3.9638,-2.3712,-5.5912,1.4041973644481187,-16.27713307379707,9.615256099962814,2.9279999999926076
-0.2812,1.0018,0.027,0.2406,0.2471,0.0871,-3.815,-1.4438,-5.39,1.4830867139240342,-16.143981859274575,9.592155299958108,2.9439999999958673
-0.2808,0.9954,0.0306,0.2406,0.2471,0.0871,-3.325,-0.7962,-5.8975,1.6072541930041617,-16.07116047432637,9.592155299958108,2.9439999999958673
-0.2808,0.9954,0.0306,0.241,0.247,0.0853,-3.325,-0.7962,-5.8975,1.675905265795088,-16.011682643365152,9.579416099955512,2.959999999999127
-0.2808,0.9878,0.0289,0.241,0.247,0.0853,-3.3425,-0.0175,-5.7925,1.67586706800055,-15.995756767665684,9.579416099955512,2.959999999999127
-0.2826,0.982,0.0319,0.241,0.247,0.0853,-2.9925,0.6737,-6.3,1.7354516578656043,-16.015398953235696,9.58952159995512,2.974999999998545
-0.2891,0.9736,0.0287,0.2404,0.2476,0.0894,-2.9925,0.6737,-6.8338,1.7203027217216695,-16.292597576417105,9.58952159995512,2.974999999998545
-0.2928,0.9757,0.0323,0.2404,0.2476,0.0894,-2.135,1.4525,-6.8338,1.7688196516422512,-16.509003335382058,9.612761599959855,2.9910000000018044
-0.2928,0.9757,0.0323,0.2423,0.2462,0.0874,-1.575,1.8988,-6.6325,1.8305131472220617,-16.600295459614728,9.612761599959855,2.9910000000018044
-0.2954,0.975,0.03,0.2423,0.2462,0.0874,-1.7062,1.8637,-5.9763,1.800024956986415,-16.657904294323025,9.64071709994521,3.0059999999939464
-0.2999,0.9778,0.0281,0.2423,0.2462,0.08,-1.7062,1.8637,-5.9763,1.7311409515646092,-16.747863364481233,9.64071709994521,3.0059999999939464
-0.3022,0.9834,0.0239,0.241,0.2462,0.08,-0.4288,2.5725,-5.8625,1.50198452623321,-16.800342944237208,9.681877099953596,3.021999999997206
-0.3014,0.9877,0.0251,0.241,0.2462,0.08,0.1138,3.1325,-5.9412,1.4684645818158217,-16.835060885931625,9.681877099953596,3.021999999997206
-0.3072,0.9894,0.021,0.2406,0.2488,0.0875,-0.595,2.8263,-5.5738,1.3023683028302206,-16.872150597077024,9.727097899962809,3.0380000000004657
-0.3072,0.9894,0.021,0.2406,0.2488,0.0875,-0.595,2.8263,-5.5738,1.245511815111257,-16.905888298861612,9.727097899962809,3.0380000000004657
-0.3088,0.9847,0.0222,0.2412,0.2469,0.0857,-0.945,2.0038,-4.8562,1.2736216992614382,-17.131277601997382,9.757154899961643,3.0529999999998836
-0.3098,0.9808,0.0239,0.2412,0.2469,0.0857,-0.07,1.4175,-4.3837,1.3604188333523066,-17.352801903527475,9.757154899961643,3.0529999999998836
-0.3123,0.9962,0.0181,0.2412,0.2469,0.0857,1.5488,2.0738,-4.1562,1.1039780426639576,-17.383088365571172,9.790335699968402,3.069000000003143
-0.3136,1.0056,0.0113,0.2408,0.2471,0.0972,1.5488,2.0738,-4.1562,0.7346600627764621,-17.344613608349604,9.790335699968402,3.069000000003143
-0.3136,1.0056,0.0113,0.2408,0.2471,0.0972,1.6975,1.4088,-4.6112,0.6612346169407489,-17.331550993516803,9.811467699957332,3.083999999995285
-0.3143,1.0019,0.0082,0.2408,0.2465,0.0829,0.77,0.1138,-4.8212,0.5137900428347039,-17.370538005944642,9.811467699957332,3.083999999995285
-0.312,1.0017,0.0131,0.2408,0.2465,0.0829,0.3237,-1.2775,-5.0575,0.687938757247011,-17.34323222283527,9.791027699953167,3.099999999998545
-0.3052,1.0006,0.014,0.2408,0.2465,0.0829,0.3237,-1.2775,-5.0575,0.7720065397582043,-17.197592421798145,9.791027699953167,3.099999999998545
-0.3046,1.0016,0.0114,0.2428,0.2482,0.0927,0.0263,-1.1025,-5.1712,0.6859470374778022,-17.102878117564945,9.771182699949124,3.118000000002212
-0.3013,1.006,0.0133,0.2428,0.2482,0.0927,-0.9013,-1.8725,-5.0575,0.7301036643005114,-16.93858993317019,9.771182699949124,3.118000000002212
-0.3013,1.006,0.0133,0.2418,0.248,0.0826,-0.9013,-2.8612,-5.3725,0.7469894022275712,-16.876905548742965,9.728264699971607,3.132999999994354
-0.2967,1.0122,0.0114,0.2418,0.248,0.0826,-1.6363,-2.8612,-5.3725,0.6993762598486754,-16.7519041489444,9.728264699971607,3.132999999994354
-0.2923,1.0139,0.0174,0.2418,0.248,0.0826,-2.765,-2.765,-5.39,0.7558965793042952,-16.603555372453403,9.684024699962594,3.1489999999976135
-0.2939,1.0148,0.0158,0.2398,0.247,0.0907,-3.4213,-2.52,-5.0225,0.8205530312199385,-16.424728099952926,9.684024699962594,3.1489999999976135
-0.2959,1.0114,0.0199,0.2398,0.247,0.0907,-3.4213,-2.52,-5.0225,0.9662231043974038,-16.37738706569976,9.64622469996406,3.1639999999970314
-0.2959,1.0114,0.0199,0.2408,0.2457,0.0782,-4.0338,-2.555,-5.635,1.0632495528756603,-16.37471297441797,9.64622469996406,3.1639999999970314
-0.3006,1.0097,0.0207,0.2408,0.2457,0.0782,-4.9612,-2.415,-6.0287,1.1421801224175552,-16.427408309324743,9.607584699956188,3.180000000000291
-0.3057,1.0,0.0199,0.2408,0.2457,0.0874,-4.9437,-2.4762,-6.3,1.1406612613488334,-16.646194281666098,9.607584699956188,3.180000000000291
-0.3028,0.9979,0.0247,0.2407,0.2473,0.0874,-4.9437,-2.4762,-6.3,1.337006525703467,-16.734308156570165,9.567965499948118,3.1960000000035507
-0.3013,0.9985,0.0271,0.2407,0.2473,0.0874,-4.165,-2.3537,-6.4313,1.4724895971812244,-16.75638013867954,9.567965499948118,3.1960000000035507
-0.2857,0.9978,0.0271,0.2421,0.2494,0.0821,-3.6312,-1.9425,-6.65,1.516384568865,-16.36898774896448,9.538827999963383,3.2109999999956926
-0.2951,0.9978,0.0271,0.2421,0.2494,0.0821,-3.5263,-1.5225,-5.6788,1.5361683165405535,-16.369554049109837,9.538827999963383,3.2109999999956926
-0.2962,1.0016,0.0337,0.2422,0.2482,0.0857,-3.5263,-1.5225,-5.6788,1.732582273561929,-16.37009290418995,9.51446799995842,3.2269999999989523
-0.2956,1.003,0.0317,0.2422,0.2482,0.0857,-3.6662,-0.9538,-5.425,1.7741186141191625,-16.3786885727541,9.51446799995842,3.2269999999989523
-0.2912,0.9901,0.0388,0.2422,0.2482,0.0857,-4.165,-0.9363,-5.04,2.0666949518801143,-16.37816221091674,9.500423499958965,3.24199999999837
-0.2915,1.0039,0.0369,0.241,0.2489,0.0774,-2.9225,-0.1225,-4.6813,2.077774765937304,-16.280098045307493,9.498463499958564,3.25800000000163
-0.2915,1.0039,0.0369,0.241,0.2489,0.0774,-2.9225,-0.1225,-4.6813,2.0856541650570364,-16.23086546281065,9.498463499958564,3.25800000000163
-0.2902,1.0009,0.0375,0.2405,0.247,0.0851,-2.1525,1.0412,-4.97,2.1016607791074438,-16.200862445117373,9.515122699954382,3.2739999999976135
-0.2958,0.9994,0.0366,0.2405,0.247,0.0851,-2.695,1.435,-5.1975,2.1010068854659343,-16.28991210671252,9.515122699954382,3.2739999999976135
-0.3002,0.9941,0.038,0.2405,0.247,0.0851,-3.3163,1.3737,-5.6438,2.1401568170090335,-16.30422436923615,9.535728199953583,3.2889999999970314
-0.2973,0.9959,0.0376,0.2407,0.2487,0.0882,-3.3163,1.3737,-5.6438,2.1499373716012045,-16.312957057477952,9.535728199953583,3.2889999999970314
-0.2973,1.0003,0.0334,0.2407,0.2487,0.0882,-3.3425,1.8988,-6.4662,2.0424712800257208,-16.415058416228156,9.566108999959773,3.305000000000291
-0.3029,1.0003,0.0334,0.243,0.2482,0.0874,-3.7013,1.33,-6.0813,1.9719269487525892,-16.53762912718665,9.566108999959773,3.305000000000291
-0.3051,0.999,0.0322,0.243,0.2482,0.0874,-3.7013,1.33,-6.1163,1.9037045671383914,-16.67182358543028,9.586058999958999,3.319999999999709
-0.3062,0.9894,0.0379,0.243,0.2482,0.0874,-5.635,0.5775,-6.1163,2.123291702123651,-16.82922486774348,9.586058999958999,3.319999999999709
-0.3015,0.9934,0.0371,0.2422,0.2496,0.0922,-5.7575,0.35,-4.4713,2.1351449791175683,-16.852635521711935,9.591658999957593,3.3359999999956926
-0.3063,1.0092,0.0391,0.2422,0.2496,0.0922,-4.9175,0.6562,-3.465,2.1941565834326044,-16.865627624474577,9.591658999957593,3.3359999999956926
-0.3063,1.0092,0.0391,0.2428,0.248,0.0952,-4.9175,0.6562,-3.465,2.211506941563261,-16.869677336150808,9.602158199959732,3.3519999999989523
-0.3048,1.0166,0.0419,0.2428,0.248,0.0952,-3.5963,0.4025,-3.78,2.288689537896206,-16.743313098853157,9.602158199959732,3.3519999999989523
-0.312,1.0205,0.0379,0.2428,0.248,0.0952,-4.2088,-0.4812,-4.3313,2.1869963265142283,-16.88412162123638,9.594940199960012,3.36699999999837
-0.3118,1.0122,0.0411,0.2418,0.2475,0.0866,-6.0113,-1.5838,-3.9113,2.294450818887504,-17.026780389095233,9.594940199960012,3.36699999999837
-0.3112,1.0113,0.0423,0.2418,0.2475,0.0866,-6.0113,-1.5838,-3.9113,2.3727353699896954,-17.067269096613323,9.568015599960288,3.3839999999981956
-0.3112,1.0069,0.0483,0.241,0.248,0.0821,-5.8713,-2.6862,-4.305,2.660534181118884,-17.118594576525023,9.568015599960288,3.3839999999981956
-0.3079,1.0069,0.0483,0.241,0.248,0.0821,-4.9525,-3.64,-4.865,2.7213522905390706,-17.058753417462402,9.513415599962407,3.3989999999976135
-0.3093,0.9972,0.0483,0.2427,0.2487,0.0869,-4.0687,-4.3225,-4.445,2.75275843076449,-17.14391563968856,9.513415599962407,3.3989999999976135
-0.3113,0.9928,0.0466,0.2427,0.2487,0.0869,-4.0687,-4.3225,-4.445,2.7129912140647288,-17.280230823212708,9.444255599948317,3.415000000000873
-0.3064,0.9922,0.0499,0.2427,0.2487,0.0869,-3.36,-5.1188,-3.815,2.7890078356835613,-17.189552244723533,9.444255599948317,3.415000000000873
-0.3062,0.9974,0.0471,0.2415,0.2512,0.0976,-2.485,-5.67,-2.765,2.786415440982266,-17.084589326119175,9.353535599971089,3.430999999996857
-0.3062,0.9974,0.0471,0.2415,0.2512,0.0976,-1.82,-6.475,-2.7562,2.752444078089564,-17.057711168566726,9.353535599971089,3.430999999996857
-0.3013,0.9907,0.0516,0.2411,0.2498,0.087,-1.82,-6.475,-2.7562,2.846478061437456,-16.936102839818254,9.256410599974858,3.4459999999962747
-0.2955,0.9918,0.0515,0.2411,0.2498,0.087,-0.8138,-7.105,-1.9425,2.9258430402328526,-16.647363272918813,9.256410599974858,3.4459999999962747
-0.2875,0.9977,0.0496,0.2411,0.2498,0.087,-0.0525,-6.7112,-1.9688,2.869106640064171,-16.181868125349208,9.149031399952982,3.4619999999995343
-0.285,1.0017,0.0471,0.2425,0.2462,0.0916,-0.455,-6.8775,-2.8875,2.749899089528584,-15.94890327093911,9.149031399952982,3.4619999999995343
-0.285,0.9964,0.0429,0.2425,0.2462,0.0916,-0.455,-6.8775,-2.8875,2.558297670628046,-15.948297731434232,9.045868899956986,3.4769999999989523
-0.285,0.9964,0.0429,0.2418,0.2467,0.0898,-0.6737,-7.315,-3.8588,2.498045924371473,-15.948157592587009,9.045868899956986,3.4769999999989523
-0.2793,0.9922,0.0466,0.2418,0.2467,0.0898,-1.75,-7.4812,-3.6837,2.5808905403228546,-15.786487741411754,8.9261696999326,3.493000000002212
-0.2763,0.9905,0.0479,0.2418,0.2467,0.0898,-1.75,-7.4812,-3.6837,2.662343308856904,-15.641841529628795,8.9261696999326,3.493000000002212
-0.2741,0.9906,0.0408,0.2395,0.2471,0.0902,-1.0412,-7.2888,-3.4125,2.4812691146474464,-15.511846690191858,8.809548900014908,3.5089999999909196
-0.2777,0.9909,0.0417,0.2395,0.2471,0.0902,-0.0088,-5.845,-3.43,2.43014293746669,-15.602128746703148,8.809548900014908,3.5089999999909196
-0.2777,0.9909,0.0417,0.2395,0.2474,0.093,1.575,-5.7225,-4.0075,2.4137585123401224,-15.627277894404406,8.723711399976603,3.5239999999976135
-0.2825,0.9984,0.0381,0.2395,0.2474,0.093,1.575,-5.7225,-4.0075,2.2302581889864963,-15.727760742958386,8.723711399976603,3.5239999999976135
-0.2779,0.9902,0.0426,0.2395,0.2474,0.093,1.0675,-5.74,-4.4275,2.412567633385677,-15.691848741822106,8.631871399957893,3.540000000000873
-0.2769,0.9904,0.041,0.2384,0.248,0.0936,1.0063,-4.8825,-4.7775,2.379835572804718,-15.651961175590564,8.631871399957893,3.540000000000873
-0.2808,0.986,0.0376,0.2384,0.248,0.0936,1.295,-4.4887,-5.25,2.224585709893442,-15.72134187550976,8.564540899993165,3.554999999993015
-0.2808,0.986,0.0379,0.2402,0.2455,0.0944,1.295,-4.4887,-5.25,2.206107416865269,-15.77004103855131,8.564540899993165,3.554999999993015
-0.2815,0.99,0.0379,0.2402,0.2455,0.0944,1.8463,-4.69,-5.6262,2.194934850609198,-15.774152744777286,8.489500899977878,3.5709999999962747
-0.2821,0.9896,0.0418,0.2411,0.2459,0.0895,1.8025,-4.445,-5.53,2.3766256970214483,-15.78960187551245,8.489500899977878,3.5709999999962747
-0.2742,0.9892,0.0426,0.2411,0.2459,0.0895,1.8813,-3.3688,-4.2525,2.4493807900266376,-15.60753583939916,8.435600099991408,3.5869999999922584
-0.278,1.0002,0.0388,0.2411,0.2459,0.0895,1.8813,-3.3688,-4.2525,2.263733236608035,-15.557255429476449,8.435600099991408,3.5869999999922584
-0.2797,1.0008,0.0423,0.2386,0.2456,0.0945,2.4762,-2.4325,-4.3313,2.394117692417432,-15.582420729301333,8.399112599975124,3.6019999999989523
-0.2797,1.0008,0.0423,0.2386,0.2456,0.0945,2.7037,-1.61,-4.83,2.4160349404838772,-15.590999836239286,8.373352599969877,3.618000000002212
-0.2846,1.0063,0.0403,0.2393,0.2458,0.0934,1.4,-1.05,-5.4687,2.3182955630560618,-15.623057427260948,8.373352599969877,3.618000000002212
-0.2862,0.9999,0.0406,0.2393,0.2458,0.0934,1.4,-1.05,-5.4687,2.3237669557860197,-15.680279698753278,8.357602599978128,3.632999999994354
-0.2873,1.0013,0.0354,0.2393,0.2458,0.0934,1.0588,-1.0325,-6.6675,2.0901414516627637,-15.839751521118432,8.357602599978128,3.632999999994354
-0.2881,0.9972,0.0384,0.2393,0.2478,0.091,1.33,-0.4462,-6.5012,2.1814951746919293,-15.959068477120425,8.350463399976674,3.6489999999976135
-0.2881,0.9972,0.0376,0.2393,0.2478,0.091,1.33,-0.4462,-6.3437,2.1639174239250294,-16.017094193675803,8.350463399976674,3.6489999999976135
-0.2956,1.0027,0.0376,0.241,0.2478,0.0913,1.1025,0.2275,-6.3437,2.1510655075922545,-16.176736144627984,8.35410339997576,3.664999999993597
-0.3003,0.999,0.0328,0.241,0.2478,0.0913,1.4875,0.385,-6.8162,1.9345775130876142,-16.467726989803968,8.35410339997576,3.664999999993597
-0.3025,0.9995,0.0323,0.241,0.2478,0.0913,1.505,-0.0613,-7.105,1.8675927114186266,-16.681159279609055,8.353183899975349,3.680000000000291
-0.3014,1.0021,0.0336,0.2377,0.2479,0.0936,1.505,-0.0613,-7.105,1.9098709310007778,-16.710357607511405,8.353183899975349,3.680000000000291
-0.2987,1.0039,0.0337,0.2377,0.2479,0.0936,1.0938,-0.3762,-6.8425,1.9198738595582994,-16.629853834887054,8.34716469997686,3.6959999999962747
-0.2987,1.0039,0.0337,0.2402,0.2471,0.0895,0.8662,-0.3413,-6.3088,1.922012420055435,-16.603099192226463,8.34716469997686,3.6959999999962747
-0.3015,1.0084,0.0324,0.2402,0.2471,0.0895,0.6125,0.1312,-6.5625,1.8600804420671184,-16.619503527469547,8.349132699976783,3.7109999999956926
-0.303,1.0092,0.0317,0.2402,0.2471,0.0895,0.6125,0.1312,-6.5625,1.8138900914766511,-16.65926079896398,8.349132699976783,3.7109999999956926
-0.3055,1.0065,0.0306,0.2418,0.2476,0.083,0.0613,-0.56,-6.8775,1.7616562533367754,-16.778282709192386,8.340172699974957,3.7269999999989523
-0.3055,1.0061,0.0331,0.2418,0.2476,0.083,-0.0962,-0.7175,-6.9212,1.8484492059096158,-16.835963804353536,8.340172699974957,3.7269999999989523
-0.3055,1.0061,0.0331,0.2391,0.2487,0.0914,-0.2537,-0.8313,-7.0788,1.8733201394192018,-16.862969002352575,8.326871899978295,3.742999999994936
-0.3081,1.0035,0.0323,0.2391,0.2487,0.0914,-0.2537,-0.8313,-7.0788,1.8526832651088736,-16.977801514204607,8.326871899978295,3.742999999994936
-0.3077,0.9995,0.0348,0.2391,0.2498,0.094,-0.63,-0.8313,-6.7025,1.945094802613786,-17.04050982387708,8.31440239997273,3.75800000000163
-0.308,0.9978,0.0358,0.2407,0.2498,0.094,-0.7875,-0.7,-5.915,2.0146166795681406,-17.060660213911227,8.31440239997273,3.75800000000163
-0.3085,0.9988,0.0364,0.2407,0.2498,0.094,-0.5075,-1.3125,-5.1537,2.0630420562416143,-17.092455600557816,8.293402399978001,3.7739999999976135
-0.3095,1.001,0.0346,0.2387,0.2485,0.0853,-0.5075,-1.3125,-5.1537,2.0073760725372694,-17.119470549333133,8.293402399978001,3.7739999999976135
-0.3095,1.001,0.0346,0.2387,0.2485,0.0853,-0.35,-1.6888,-4.8038,1.9884170516414998,-17.143656412405377,8.268070399978985,3.7889999999970314
-0.3051,0.9988,0.0387,0.2406,0.2474,0.0825,-0.5863,-1.6363,-4.0425,2.1402380224763315,-17.038588633264453,8.268070399978985,3.7889999999970314
-0.3035,0.9965,0.0376,0.2406,0.2474,0.0825,-0.5863,-1.7763,-3.0538,2.1538237045219026,-16.958262332762892,8.239649599973195,3.805000000000291
-0.3048,1.0003,0.0337,0.2406,0.2474,0.0825,-0.5688,-1.7763,-3.0538,2.005644690206504,-16.943142535815806,8.239649599973195,3.805000000000291
-0.3001,0.998,0.0357,0.2392,0.2462,0.0775,-1.085,-1.9338,-2.7825,2.030982537233842,-16.781816091235083,8.208708799980961,3.8209999999962747
-0.3001,0.998,0.0357,0.2392,0.2462,0.0775,-0.4725,-1.855,-2.2838,2.0428690778960155,-16.738721213475856,8.208708799980961,3.8209999999962747
-0.2945,0.9981,0.0389,0.2402,0.2475,0.0923,-0.4725,-1.855,-2.2838,2.169809669838839,-16.49836923435982,8.180883799982041,3.8359999999956926
-0.2935,1.0023,0.0349,0.2402,0.2475,0.0923,0.175,-1.9162,-2.9925,2.0417943456986207,-16.36268547547077,8.180883799982041,3.8359999999956926
-0.293,1.0004,0.0339,0.2402,0.2475,0.0923,-0.4375,-2.205,-3.185,1.9736080594119683,-16.3290532506822,8.145603799990898,3.8519999999916763
-0.2923,0.9958,0.0345,0.2401,0.2477,0.0945,-0.7962,-2.73,-3.7013,1.9803363841452,-16.342560942314392,8.145603799990898,3.8519999999916763
-0.2913,0.9938,0.0385,0.2401,0.2477,0.0945,-0.7962,-2.73,-3.7013,2.1309691136055293,-16.331029933905423,8.104653799972624,3.86699999999837
-0.2913,0.9938,0.0385,0.2406,0.2466,0.0923,-0.1488,-2.2925,-3.7887,2.192535417658634,-16.327209485702166,8.104653799972624,3.86699999999837
-0.2898,0.9892,0.0346,0.2406,0.2466,0.0923,0.35,-1.855,-3.745,2.0522158440822897,-16.32195985310459,8.074973799966578,3.88300000000163
-0.288,0.9917,0.0343,0.2406,0.2466,0.0923,0.6125,-2.275,-3.4913,1.9981754373093172,-16.22782213633712,8.074973799966578,3.88300000000163
-0.2882,0.9941,0.0323,0.2393,0.2461,0.0914,0.6125,-2.275,-3.4913,1.8942106857974115,-16.18086620187025,8.038573799975715,3.8989999999976135
-0.291,0.9941,0.0312,0.2393,0.2461,0.0914,0.5512,-2.835,-3.3338,1.8213877871793178,-16.27033489205454,7.996048799977365,3.9139999999970314
-0.291,0.9941,0.0312,0.2401,0.2468,0.0926,1.1812,-2.31,-3.4475,1.8027015494557,-16.2967234025602,7.996048799977365,3.9139999999970314
-0.2921,0.9959,0.0289,0.2401,0.2468,0.0926,1.9688,-2.485,-4.0425,1.687813769741811,-16.32357120753615,7.9562887999873455,3.929999999993015
-0.2904,0.9961,0.0269,0.2401,0.2468,0.0917,1.9688,-2.485,-4.0425,1.572602372114053,-16.27656993091885,7.9562887999873455,3.929999999993015
-0.2862,0.9957,0.0283,0.2384,0.2459,0.0917,1.4963,-2.625,-3.9638,1.6169761579588835,-16.12126816242721,7.916913799969774,3.944999999999709
-0.2866,1.0013,0.0255,0.2384,0.2459,0.0917,1.61,-1.9775,-5.0662,1.4896799415614794,-16.063259492774474,7.916913799969774,3.944999999999709
-0.2844,1.0039,0.0262,0.2387,0.2469,0.0934,1.4175,-1.54,-5.6875,1.4939044374182455,-16.059706912494132,7.89227379997596,3.9609999999956926
-0.2844,1.0039,0.0262,0.2387,0.2469,0.0934,1.4175,-1.54,-5.6875,1.4947606688120967,-16.056204573269962,7.89227379997596,3.9609999999956926
-0.2848,1.0074,0.0217,0.2389,0.2455,0.0963,1.295,-1.5575,-6.335,1.288192997921741,-15.947215695924571,7.867353799970883,3.9769999999989523
-0.2858,1.0026,0.0251,0.2389,0.2455,0.0963,0.1225,-1.68,-6.79,1.3939991509847245,-15.92543805739744,7.867353799970883,3.9769999999989523
-0.2906,0.9982,0.0239,0.2389,0.2455,0.0963,0.1225,-1.68,-6.965,1.3777384741006626,-16.095499115452764,7.842153799971861,3.99199999999837
-0.2974,0.9975,0.0209,0.2415,0.2498,0.0815,0.4288,-1.19,-6.965,1.2452821466827977,-16.37889232615662,7.842153799971861,3.99199999999837
-0.2974,0.9975,0.0209,0.2415,0.2498,0.0815,0.3413,-1.12,-6.8075,1.2119660429123398,-16.495481861909614,7.823113799972057,4.008999999998196
-0.3007,0.9966,0.0198,0.2409,0.2464,0.089,0.1663,-1.295,-7.3063,1.1582140830590488,-16.676161790116957,7.823113799972057,4.008999999998196
-0.3009,0.9971,0.0231,0.2409,0.2464,0.089,0.1663,-1.295,-7.3063,1.2812722269633636,-16.745686761009875,7.803688799972811,4.0239999999976135
-0.3015,1.0035,0.0185,0.2409,0.2464,0.089,0.3413,-1.1812,-7.5862,1.114511667099014,-16.728903596467806,7.803688799972811,4.0239999999976135
-0.3004,1.0047,0.0216,0.2413,0.247,0.0854,0.35,-0.91,-7.4988,1.2013230139789681,-16.673242746633548,7.789128799969845,4.040000000000873
-0.3004,1.0066,0.0243,0.2413,0.247,0.0854,0.2975,-1.435,-7.4725,1.3352824185757786,-16.63395952555135,7.789128799969845,4.040000000000873
-0.2982,1.0066,0.0243,0.2409,0.2471,0.0911,0.2975,-1.435,-7.4725,1.3704071043169468,-16.545991882144733,7.766168799975608,4.055999999996857
-0.2976,1.0077,0.0294,0.2409,0.2471,0.0911,-0.2013,-0.945,-7.0875,1.5804290937343166,-16.4877791718645,7.766168799975608,4.055999999996857
-0.2966,1.0083,0.0234,0.2409,0.2471,0.0911,-0.9363,-1.0412,-7.28,1.4267254600363386,-16.425978880727186,7.750550799976214,4.070999999996275
-0.3001,1.0085,0.0264,0.2405,0.2478,0.0974,-0.91,-0.875,-6.8513,1.471588389193929,-16.501767602817484,7.750550799976214,4.070999999996275
-0.2983,1.0051,0.0276,0.2405,0.2478,0.0974,-0.91,-0.875,-6.8513,1.5340558015864312,-16.513946008316914,7.736550799979728,4.086999999992258
-0.2983,1.0051,0.0276,0.2406,0.2497,0.0892,-1.6712,-0.5863,-6.825,1.5518679068727823,-16.51947918759847,7.736550799979728,4.086999999992258
-0.3005,1.0011,0.0262,0.2406,0.2497,0.0892,-2.5113,-0.77,-6.5012,1.5516043627037313,-16.602503786919588,7.725000799974573,4.101999999998952
-0.3018,0.9985,0.0253,0.2406,0.2497,0.0892,-2.555,-0.2625,-6.125,1.5478751322659245,-16.667867764930534,7.725000799974573,4.101999999998952
-0.3054,0.9985,0.0293,0.2414,0.2477,0.0845,-2.555,-0.2625,-6.125,1.552824803181956,-16.771177434945816,7.720800799973718,4.118000000002212
-0.3057,0.9948,0.0325,0.2414,0.2477,0.0845,-1.89,0.0263,-5.9237,1.675429071894645,-16.831748732317504,7.720800799973718,4.118000000002212
-0.3057,0.995,0.0311,0.2411,0.2486,0.0831,-1.9338,-0.3325,-5.6613,1.7177018966739006,-16.834551828661045,7.715480799975054,4.133999999998196
-0.3057,0.995,0.0311,0.2411,0.2486,0.0831,-1.9338,-0.3325,-5.2937,1.7444141601637384,-16.89959312801174,7.715480799975054,4.133999999998196
-0.3066,0.9964,0.0287,0.2434,0.2486,0.0859,-1.5925,-0.3675,-5.2937,1.6990157128799017,-16.953856534954006,7.709600799973856,4.150000000001455
-0.304,0.9965,0.0364,0.2434,0.2486,0.0859,-1.9775,-0.3938,-5.3025,1.8366070315549046,-16.954057160670924,7.709600799973856,4.150000000001455
-0.3033,0.9955,0.0375,0.2434,0.2486,0.0859,-2.0738,0.1838,-4.9612,1.9349814916547383,-16.94535723759666,7.712541599973118,4.165999999997439
-0.3029,0.9962,0.0381,0.2401,0.2481,0.0843,-2.0738,0.1838,-4.9612,2.0132839479242004,-16.9267136952189,7.712541599973118,4.165999999997439
-0.3029,0.9962,0.0381,0.2401,0.2481,0.0843,-1.9425,0.1663,-4.3225,2.077798932906961,-16.911667335963514,7.715036099973021,4.180999999996857
-0.3074,0.9995,0.0347,0.2422,0.2486,0.0888,-2.2487,0.2537,-3.8937,2.0589162035505355,-17.0231400161903,7.715036099973021,4.180999999996857
-0.3059,0.9948,0.0332,0.2422,0.2486,0.0888,-1.9425,0.595,-4.2613,2.0051505813864816,-17.058563397797325,7.7245560999749605,4.197000000000116
-0.3037,0.9981,0.0408,0.2422,0.2486,0.0888,-1.9425,0.595,-4.2613,2.127535470613556,-16.971914636461996,7.7245560999749605,4.197000000000116
-0.3004,0.9967,0.0381,0.24,0.2497,0.0875,-1.575,0.35,-4.2875,2.157402389463961,-16.849391555784287,7.730156099973555,4.2129999999961
-0.3004,0.9949,0.0361,0.24,0.2497,0.0875,-1.61,0.7437,-3.7887,2.1196847652785498,-16.81106894786888,7.730156099973555,4.2129999999961
-0.3021,0.9949,0.0361,0.2406,0.2498,0.0894,-1.0588,0.5512,-4.1562,2.09500287386298,-16.852832432439794,7.7384240999772445,4.228000000002794
-0.3013,0.9961,0.0364,0.2406,0.2498,0.0894,-1.0588,0.5512,-4.1562,2.0936968036723336,-16.832386018966563,7.7384240999772445,4.228000000002794
-0.3043,0.9969,0.0378,0.2406,0.2498,0.0894,-1.3038,0.8487,-3.745,2.1363214043248604,-16.91847589524179,7.752003299973836,4.243999999998778
-0.3043,0.9967,0.0378,0.2411,0.2467,0.0934,-1.0938,0.595,-3.9288,2.157219475930736,-16.948891746693455,7.752003299973836,4.243999999998778
-0.3051,0.993,0.0379,0.2411,0.2467,0.0934,-0.5512,0.1225,-4.2088,2.17613249263715,-17.019614602557954,7.753840799973765,4.258999999998196
-0.3051,0.993,0.0379,0.2419,0.2484,0.0906,-0.5512,0.1225,-4.2088,2.182510981471993,-17.048312925593592,7.753840799973765,4.258999999998196
-0.3069,0.9922,0.0387,0.2419,0.2484,0.0906,-0.5075,-0.0263,-4.2875,2.216650780515157,-17.122017579010308,7.753419999973871,4.274999999994179
-0.3076,0.998,0.0369,0.2419,0.2484,0.0906,-0.1138,-0.245,-4.4275,2.1466308904056772,-17.120424078084785,7.753419999973871,4.274999999994179
-0.3029,0.9972,0.0393,0.24,0.2481,0.083,-0.2013,-0.63,-4.13,2.223621697267783,-16.976858583045296,7.743339999971817,4.290999999997439
-0.3002,1.0019,0.035,0.24,0.2481,0.083,-0.2013,-0.63,-4.13,2.067970810569029,-16.790797790524056,7.743339999971817,4.290999999997439
-0.3002,1.0019,0.0329,0.2417,0.2486,0.0864,-0.1575,-0.3938,-4.0687,1.9365114280961755,-16.717208661412002,7.737432999972047,4.305999999996857
-0.3009,1.0022,0.0329,0.2417,0.2486,0.0864,0.0,-0.56,-4.1737,1.896227137478657,-16.708885691641317,7.737432999972047,4.305999999996857
-0.2987,1.0014,0.0355,0.2417,0.2494,0.088,0.0,-0.56,-4.1737,1.9921758362267459,-16.64300198766396,7.728472999974295,4.3219999999928405
-0.2961,1.0017,0.0356,0.2413,0.2494,0.088,-0.1138,-0.7262,-4.305,2.022704517839721,-16.535958483378984,7.728472999974295,4.3219999999928405
-0.2977,1.0001,0.0323,0.2413,0.2494,0.088,-0.4638,-1.4438,-4.6988,1.9064603513778944,-16.552036079542496,7.706815999964631,4.336999999999534
-0.296,0.9951,0.0314,0.2417,0.2494,0.0911,-0.3063,-1.5225,-4.9525,1.8382229992674473,-16.554415453003244,7.706815999964631,4.336999999999534
-0.296,0.9951,0.0314,0.2417,0.2494,0.0911,-0.3063,-1.5225,-4.9525,1.8169654227344143,-16.55579828306548,7.682455999970745,4.352999999995518
-0.2974,0.9961,0.0346,0.2418,0.2486,0.0945,-0.0263,-1.9075,-5.3637,1.9399892318726535,-16.569620089956647,7.682455999970745,4.352999999995518
-0.2969,0.9913,0.036,0.2418,0.2486,0.0945,-0.14,-1.7413,-5.4163,2.0384165930059415,-16.58867961657698,7.654595199965069,4.368999999998778
-0.2995,0.9969,0.0326,0.2418,0.2486,0.0945,-0.1138,-2.17,-5.18,1.9216040259769736,-16.629898083122757,7.622045199966332,4.383999999998196
-0.2998,0.9991,0.0328,0.2429,0.2485,0.0836,-0.1138,-2.17,-5.18,1.8924527384291387,-16.651212771377207,7.622045199966332,4.383999999998196
-0.2998,0.9991,0.0328,0.2429,0.2485,0.0836,-0.42,-2.4762,-5.3288,1.884237845636278,-16.662283799931654,7.5824259999762775,4.399999999994179
-0.2958,0.9991,0.0403,0.24,0.2491,0.0902,-0.2362,-1.96,-5.2063,2.180093561450024,-16.604135317485497,7.5824259999762775,4.399999999994179
-0.2987,0.9993,0.0353,0.24,0.2491,0.0902,-0.2013,-2.2838,-5.495,2.070469748490769,-16.60836261549319,7.54816899996099,4.415000000000873
-0.2985,0.999,0.0336,0.24,0.2491,0.0902,-0.2013,-2.2838,-5.495,1.9698171001956715,-16.61121109996233,7.54816899996099,4.415000000000873
-0.2965,0.9977,0.0329,0.2412,0.2485,0.0856,-0.4638,-2.4062,-5.705,1.9152686061250026,-16.60909304741663,7.509669799970654,4.430999999996857
-0.2959,0.9981,0.0329,0.2412,0.2485,0.0856,-0.525,-2.1962,-5.8888,1.8970732585132475,-16.590571134033592,7.509669799970654,4.430999999996857
-0.2959,0.9981,0.0329,0.241,0.25,0.0907,-0.4288,-2.415,-5.915,1.8908953792950793,-16.573844206479155,7.471029799962782,4.447000000000116
-0.2927,0.997,0.0349,0.241,0.25,0.0907,-0.4288,-2.415,-5.915,1.9679223267899821,-16.530590829474477,7.471029799962782,4.447000000000116
-0.2953,0.9976,0.0318,0.241,0.25,0.0907,-0.4375,-2.2925,-6.0025,1.8719415706053022,-16.518400364038534,7.436642299964117,4.461999999999534
-0.2924,0.9986,0.0368,0.2401,0.2492,0.087,-0.4112,-1.8637,-5.6087,2.03366296867867,-16.50578569632073,7.436642299964117,4.461999999999534
-0.292,0.9988,0.0349,0.2401,0.2492,0.087,-0.4112,-1.8637,-5.8275,2.011662063946442,-16.476520520181055,7.406823099971602,4.477999999995518
-0.292,0.9988,0.0349,0.2403,0.2481,0.0923,-0.2362,-1.7237,-5.8275,2.004397142651484,-16.45116832812437,7.406823099971602,4.477999999995518
-0.2939,0.9989,0.034,0.2403,0.2481,0.0923,-0.4988,-1.4525,-6.16,1.9676587494145665,-16.429879072871874,7.385035599961879,4.493000000002212
-0.2968,0.9973,0.0342,0.2403,0.2481,0.0902,-0.2187,-1.4875,-5.9325,1.9651450590063886,-16.45749704958432,7.385035599961879,4.493000000002212
-0.2963,0.9971,0.0344,0.2414,0.2481,0.0902,-0.2187,-1.4875,-5.9325,1.972654998713445,-16.47461794277093,7.361235599967853,4.508999999998196
-0.2991,0.9959,0.0348,0.2414,0.2481,0.0902,-0.3413,-1.3038,-5.53,1.9922694356761141,-16.503722740255693,7.361235599967853,4.508999999998196
-0.301,0.9954,0.0369,0.2413,0.249,0.0893,-0.35,-0.6913,-5.1363,2.081720727994528,-16.612090555958833,7.3501747999655995,4.525000000001455
-0.301,0.9954,0.0369,0.2413,0.249,0.0893,0.0263,-0.5775,-5.355,2.111356765613104,-16.660811488118043,7.3501747999655995,4.525000000001455
-0.2998,0.9988,0.0381,0.2419,0.249,0.0916,0.0263,-0.5775,-5.355,2.163876884289501,-16.669352508704723,7.341512299970137,4.539999999993597
-0.2988,0.9988,0.0353,0.2419,0.249,0.0916,0.0962,-0.9187,-5.1975,2.0628129005943125,-16.661570361158944,7.341512299970137,4.539999999993597
-0.2982,1.0002,0.0364,0.2419,0.249,0.0916,0.3325,-0.7175,-4.7863,2.078665071116232,-16.628431195183264,7.330032299967798,4.555999999996857
-0.2981,1.001,0.035,0.2412,0.2503,0.0842,0.35,-0.7525,-5.3113,2.0222241664112364,-16.613988346782143,7.330032299967798,4.555999999996857
-0.2981,1.001,0.035,0.2412,0.2503,0.0842,0.35,-0.7525,-5.3113,2.0076260907955037,-16.603383070595527,7.3187447999627615,4.571000000003551
-0.298,1.0009,0.0378,0.2424,0.2494,0.0846,0.1225,-0.7962,-5.1188,2.12015977975547,-16.591046101535326,7.3187447999627615,4.571000000003551
-0.2996,0.9989,0.0332,0.2424,0.2494,0.0846,-0.1138,-0.6913,-4.6287,1.9672565849772636,-16.63999426206089,7.307683999970568,4.586999999992258
-0.2999,0.9956,0.033,0.2424,0.2494,0.0846,0.2887,-1.2337,-5.0312,1.9165123020905939,-16.684938431266428,7.307683999970568,4.586999999992258
-0.3021,0.9954,0.0343,0.2414,0.2505,0.0846,0.2887,-1.2337,-5.0312,1.9585571500393724,-16.758618555139428,7.287944799966546,4.602999999995518
-0.3021,0.9976,0.0369,0.2414,0.2505,0.0846,0.0263,-1.225,-4.62,2.0732333557228384,-16.798750207719156,7.287944799966546,4.602999999995518
-0.2996,0.9976,0.0369,0.2412,0.2456,0.0888,0.1138,-1.6538,-4.445,2.1059106291168908,-16.747250081880168,7.263137799967509,4.617999999994936
-0.2975,0.9966,0.0345,0.2412,0.2456,0.0888,0.1138,-1.4612,-4.41,2.016609545361745,-16.67162163837656,7.263137799967509,4.617999999994936
-0.2991,0.998,0.0329,0.2412,0.2456,0.0888,0.7613,-1.4612,-4.41,1.9181614107729128,-16.673444075129616,7.239758599962745,4.633999999998196
-0.2988,0.9992,0.0315,0.24,0.2483,0.0934,0.7525,-1.4175,-4.5062,1.832017282290125,-16.655928281651533,7.239758599962745,4.633999999998196
-0.2967,1.0012,0.0345,0.24,0.2483,0.0934,0.4988,-1.4525,-4.5062,1.9383033430219636,-16.570683917766985,7.217971099963591,4.6489999999976135
-0.2967,1.0012,0.0345,0.2415,0.2482,0.0943,0.4988,-1.4525,-4.5062,1.9647747631475732,-16.53134560022714,7.217971099963591,4.6489999999976135
-0.2979,0.9994,0.0335,0.2415,0.2482,0.0943,0.0525,-2.0125,-4.34,1.9324324398933104,-16.56451811500605,7.1857710999716735,4.664999999993597
-0.2971,0.9985,0.0295,0.2415,0.2482,0.0943,-0.21,-2.2225,-4.3837,1.7649089364426083,-16.563859501176537,7.1857710999716735,4.664999999993597
-0.299,0.9991,0.0331,0.2412,0.2523,0.0934,0.3237,-2.0213,-4.8387,1.8629747482414656,-16.60404359838455,7.153430299965085,4.680999999996857
-0.2987,1.0001,0.0328,0.2412,0.2523,0.0934,0.3237,-2.0213,-4.8387,1.8744128762710757,-16.611698092873596,7.153430299965085,4.680999999996857
-0.2987,0.9959,0.0326,0.2412,0.2488,0.0862,0.28,-1.8725,-4.7863,1.8747441582179063,-16.647142453359553,7.125342799966175,4.695999999996275
-0.2976,0.9959,0.0326,0.2412,0.2488,0.0862,-0.2187,-2.0912,-4.9525,1.8748267026920935,-16.639567140735355,7.125342799966175,4.695999999996275
-0.2946,0.9956,0.0312,0.2414,0.2462,0.0854,0.0175,-1.9425,-4.9963,1.817547172361831,-16.573519741097265,7.094262799959843,4.711999999999534
-0.2943,0.9969,0.0303,0.2414,0.2462,0.0854,0.0175,-1.9425,-4.9963,1.7626072777958137,-16.519713039794304,7.094262799959843,4.711999999999534
-0.2963,0.9964,0.0327,0.2414,0.2462,0.0854,0.2362,-1.8112,-5.3025,1.848471779862967,-16.52858024097945,7.0670947999608975,4.726999999998952
-0.2941,0.9958,0.0286,0.2418,0.2497,0.0908,-0.175,-1.7237,-5.2762,1.7059785381178798,-16.505565056947496,7.03951559996782,4.742999999994936
-0.2941,0.9958,0.0286,0.2418,0.2497,0.0908,-0.0875,-1.61,-5.285,1.6628679975381209,-16.489352914969054,7.03951559996782,4.742999999994936
-0.2944,1.0006,0.0279,0.2414,0.248,0.0942,-0.0875,-1.61,-5.285,1.616337479411901,-16.461318190231,7.013755599962572,4.758999999998196
-0.2947,0.999,0.0254,0.2414,0.248,0.0942,-0.5775,-1.6013,-5.5563,1.510859053377356,-16.458122176039275,7.013755599962572,4.758999999998196
-0.293,0.998,0.0332,0.2414,0.248,0.0942,-1.0325,-1.1988,-5.8012,1.746513663610648,-16.446189694672686,6.99577359996327,4.7739999999976135
-0.2911,1.0019,0.03,0.2411,0.2523,0.0999,-1.6625,-0.9363,-5.9938,1.7320459039389358,-16.38501714013724,6.99577359996327,4.7739999999976135
-0.2911,1.0022,0.0359,0.2411,0.2523,0.0999,-1.6625,-0.9363,-5.9938,1.8791903810724704,-16.336862511337856,6.980792799960218,4.790000000000873
-0.2913,1.0022,0.0359,0.2421,0.2474,0.0912,-1.4438,-0.945,-5.7838,1.968373518272231,-16.322951017237916,6.980792799960218,4.790000000000873
-0.2959,0.998,0.0331,0.2421,0.2474,0.0912,-1.4963,-0.6388,-5.2675,1.9336431310211097,-16.37581689113989,6.971210799965238,4.804999999993015
-0.2984,0.9958,0.0342,0.2421,0.2474,0.0912,-1.4963,-0.6388,-5.355,1.9504905387638252,-16.447307551903908,6.971210799965238,4.804999999993015
-0.3041,0.9948,0.0331,0.2427,0.2486,0.0945,-0.9975,-0.3063,-5.355,1.9234826433024204,-16.57804938273409,6.96630999996424,4.820999999996275
-0.3061,0.9947,0.0338,0.2427,0.2486,0.0945,-0.8225,-0.7875,-5.6875,1.937746245518975,-16.585366695974532,6.96630999996424,4.820999999996275
-0.3061,0.9947,0.0338,0.2423,0.2464,0.0881,0.0263,-0.595,-5.6087,1.9437901530319082,-16.616254028286672,6.956789999962301,4.836999999999534
-0.3051,0.9925,0.0295,0.2423,0.2464,0.0881,0.0263,-0.595,-5.6087,1.7706082150145694,-16.64437202504808,6.956789999962301,4.836999999999534
-0.3056,0.9984,0.0309,0.2423,0.2464,0.0881,0.5075,-0.56,-5.6525,1.7721883892518475,-16.65179426144233,6.948389999962627,4.851999999998952
-0.3005,1.0028,0.0317,0.2436,0.2478,0.0838,0.2537,-1.0063,-5.7225,1.8004127033881725,-16.65281751753053,6.948389999962627,4.851999999998952
-0.2968,1.0063,0.0323,0.2436,0.2478,0.0838,-0.1488,-1.5662,-5.4338,1.8271450871533592,-16.608817938824032,6.923330799968918,4.867999999994936
-0.2968,1.0063,0.0321,0.2418,0.2486,0.0851,-0.1488,-1.5662,-5.4338,1.8270856873758998,-16.573335007731615,6.923330799968918,4.867999999994936
-0.2965,1.0053,0.0321,0.2418,0.2486,0.0851,-0.42,-1.1375,-5.95,1.8282983309469372,-16.541131928942693,6.90626829996958,4.882999999994354
-0.299,1.0045,0.0324,0.2421,0.2492,0.0932,-0.8138,-1.0325,-5.6175,1.8403485869637088,-16.54255093523062,6.90626829996958,4.882999999994354
-0.3007,0.9982,0.0301,0.2421,0.2492,0.0932,-1.0762,-0.8838,-5.4075,1.7735637835895488,-16.587632124532842,6.892127499966699,4.8989999999976135
-0.3051,0.9961,0.0361,0.2421,0.2492,0.0932,-1.0762,-0.8838,-5.4075,1.9518018296239157,-16.6781771781982,6.892127499966699,4.8989999999976135
-0.3042,0.991,0.0332,0.241,0.2496,0.0889,-1.5662,-0.875,-5.95,1.9357120679754454,-16.759992173250435,6.878127499963846,4.915000000000873
-0.3042,0.991,0.0332,0.241,0.2496,0.0889,-1.8375,-1.0938,-5.9675,1.9288647378691588,-16.82719736687891,6.878127499963846,4.915000000000873
-0.3056,0.9917,0.0356,0.243,0.249,0.0866,-1.1812,-0.9275,-6.3875,2.001508595304864,-16.94783129400814,6.864214999971135,4.929999999993015
-0.3051,0.9939,0.0394,0.243,0.249,0.0866,-1.1812,-0.9275,-6.3875,2.155089181987418,-16.991417192527837,6.864214999971135,4.929999999993015
-0.3043,0.9938,0.0389,0.243,0.249,0.0866,-1.1113,-1.1463,-6.6588,2.2056094470239653,-17.0017490481162,6.845874199967398,4.945999999996275
-0.3057,0.9939,0.0381,0.2427,0.2482,0.0918,-1.12,-0.7788,-6.4925,2.1995976133561874,-17.039167189939878,6.845874199967398,4.945999999996275
-0.3057,0.9939,0.038,0.2427,0.2482,0.0918,-1.12,-0.805,-6.1425,2.193734674054834,-17.05377455698143,6.833799199967867,4.960999999995693
-0.3086,0.9934,0.038,0.2433,0.2495,0.0906,-0.9712,-0.805,-6.1425,2.1918539833594717,-17.115035051545554,6.833799199967867,4.960999999995693
-0.3079,0.9942,0.0365,0.2433,0.2495,0.0906,-0.7962,-0.5688,-6.1337,2.135382061939529,-17.140771841144502,6.824698399966013,4.976999999998952
-0.3068,0.9974,0.0386,0.2433,0.2495,0.0906,-0.7613,-0.7,-6.2125,2.186913839579754,-17.121525279295593,6.824698399966013,4.976999999998952
-0.3061,0.9953,0.0404,0.2421,0.2503,0.0891,-0.7613,-0.7,-6.2125,2.274498882015371,-17.107605293857887,6.8134983999637315,4.993000000002212
-0.3063,0.9989,0.0404,0.2421,0.2503,0.0891,-0.8313,-0.63,-6.055,2.300566236579085,-17.087369271075396,6.8134983999637315,4.993000000002212
-0.3063,0.9989,0.0404,0.2423,0.2516,0.0902,-0.56,-0.1488,-5.5738,2.3108033953596103,-17.082579774983653,6.811266399964901,5.007999999994354
-0.3057,0.9956,0.0397,0.2423,0.2516,0.0902,-0.105,-0.2013,-5.1013,2.2914933821674746,-17.073051913808584,6.811266399964901,5.007999999994354
-0.3081,0.9983,0.0385,0.2423,0.2516,0.0902,-0.105,-0.2013,-5.1013,2.23286370982802,-17.09723444545874,6.808045599964245,5.0239999999976135
-0.3055,1.002,0.0426,0.2441,0.2502,0.0971,-0.805,-0.2625,-5.145,2.3601080145409816,-17.043418600220654,6.808045599964245,5.0239999999976135
-0.304,1.0006,0.0422,0.2441,0.2502,0.0971,-1.1463,-0.42,-4.5763,2.391839564296653,-16.960840952446826,6.80174559996449,5.038999999997031
-0.304,1.0006,0.0422,0.243,0.249,0.0914,-1.1287,0.3762,-4.6725,2.4053002997570583,-16.923185709456913,6.80174559996449,5.038999999997031
-0.301,0.9981,0.0431,0.243,0.249,0.0914,-1.1287,0.3762,-4.6725,2.4444205928325657,-16.845139841175452,6.8077647999657165,5.055000000000291
-0.306,0.9964,0.0363,0.243,0.249,0.0884,-1.1287,0.5163,-4.3137,2.2363650001824404,-16.96971656644575,6.8077647999657165,5.055000000000291
-0.3087,0.9969,0.0387,0.243,0.2499,0.0884,-1.0412,0.3762,-4.27,2.228474523494488,-17.100363464132787,6.813783999966943,5.071000000003551
-0.3084,0.9947,0.0398,0.243,0.2499,0.0884,-1.1463,-0.1925,-4.7775,2.2647917269862687,-17.153457769850334,6.810896499968456,5.085999999995693
-0.3074,0.9944,0.0405,0.2431,0.251,0.0958,-1.1463,-0.1925,-4.7775,2.3037914827648325,-17.158729006037948,6.810896499968456,5.085999999995693
-0.3074,0.9944,0.0405,0.2431,0.251,0.0958,-0.455,0.035,-4.4713,2.3229592014837457,-17.16194144644656,6.811456499968569,5.101999999998952
-0.3086,0.9961,0.0376,0.2409,0.2507,0.0922,-0.4375,-0.3237,-4.4713,2.2140969408010713,-17.18374443395538,6.811456499968569,5.101999999998952
-0.3057,0.9987,0.0396,0.2409,0.2507,0.0922,-0.245,-0.6562,-4.4363,2.2533810803686882,-17.085820626626365,6.801613499968951,5.11699999999837
-0.3054,1.0008,0.0398,0.2409,0.2507,0.0922,-0.245,-0.6562,-4.4363,2.2700224283908255,-17.01472425068513,6.801613499968951,5.11699999999837
-0.3046,0.9996,0.0375,0.2457,0.2516,0.0878,-0.245,-0.455,-4.7337,2.1856088890834586,-16.976540292582897,6.794333499967468,5.13300000000163
-0.3046,0.9996,0.0375,0.2457,0.2516,0.0878,-0.5425,-0.9275,-4.8825,2.1609413363128356,-16.958593780130574,6.794333499967468,5.13300000000163
-0.3059,0.9988,0.0345,0.2442,0.2482,0.0896,-0.5425,-0.9275,-4.8825,2.0397114997313532,-16.985072742393843,6.779493499971194,5.1489999999976135
-0.301,0.9975,0.0378,0.2442,0.2482,0.0896,-1.3913,-1.2775,-5.1625,2.1087785335312383,-16.91576866614988,6.779493499971194,5.1489999999976135
-0.303,0.9974,0.039,0.2442,0.2482,0.0896,-1.3563,-0.9975,-5.215,2.178830911964711,-16.906440563395517,6.7635334999752,5.164999999993597
-0.3024,0.9886,0.0386,0.2427,0.2498,0.0926,-1.2862,-1.3475,-5.8187,2.210356499143208,-16.917818493907415,6.7635334999752,5.164999999993597
-0.3052,0.9911,0.0377,0.2427,0.2498,0.0926,-1.2862,-1.3475,-5.8187,2.1927282056965285,-16.941483647136035,6.741973499970808,5.180999999996857
-0.3052,0.9911,0.0377,0.2423,0.249,0.091,-0.8925,-1.19,-6.0287,2.183859395017848,-16.984131057642376,6.741973499970808,5.180999999996857
-0.3065,0.9892,0.0405,0.2423,0.249,0.091,-0.4988,-1.2862,-5.845,2.2912670892201152,-17.016057510577493,6.722680499971556,5.195999999996275
-0.3038,0.9905,0.0423,0.2423,0.249,0.091,-0.385,-1.3475,-6.195,2.3961571730163747,-17.02319421177489,6.722680499971556,5.195999999996275
-0.3007,0.9907,0.0428,0.2429,0.2507,0.0858,-0.385,-1.3475,-6.195,2.448964483894019,-16.97045695580713,6.701120499967164,5.211999999999534
-0.3018,0.9948,0.0414,0.2429,0.2507,0.0858,0.1838,-1.2775,-5.845,2.4008781721590795,-16.954677436579082,6.701120499967164,5.211999999999534
-0.3018,0.9948,0.0414,0.2426,0.251,0.0925,0.6212,-1.085,-5.6875,2.3873734963914743,-16.953378847559474,6.683760499963627,5.228000000002794
-0.3015,0.9962,0.0411,0.2426,0.251,0.0925,0.4812,-0.9887,-5.67,2.3687217098664606,-16.952974897282633,6.683760499963627,5.228000000002794
-0.3014,0.9974,0.0404,0.2426,0.251,0.0925,0.4812,-0.9887,-5.67,2.3318247108224517,-16.952497130523096,6.668929999971397,5.242999999994936
-0.3032,0.9984,0.0367,0.243,0.2501,0.0946,0.5163,-1.0938,-5.5037,2.16138057065465,-16.942288343583915,6.668929999971397,5.242999999994936
-0.3041,1.0013,0.0345,0.243,0.2501,0.0946,0.315,-0.8838,-5.3987,2.022432606565327,-16.92981322406974,6.654789199968516,5.258999999998196
-0.3041,0.9988,0.039,0.2448,0.2506,0.0892,0.3938,-1.19,-5.67,2.181443525857669,-16.92978713770748,6.654789199968516,5.258999999998196
-0.3009,0.9988,0.039,0.2448,0.2506,0.0892,0.3938,-1.19,-5.67,2.2221099800739266,-16.929232644154364,6.636939199969208,5.2739999999976135
-0.3023,0.9969,0.034,0.2433,0.2507,0.0933,0.945,-1.1812,-5.845,2.013597704717433,-16.919103252256896,6.636939199969208,5.2739999999976135
-0.3041,0.9958,0.0352,0.2433,0.2507,0.0933,0.3938,-1.645,-5.7663,2.0216930611952613,-16.9235908656631,6.610619199963846,5.290000000000873
-0.305,0.9992,0.0336,0.2433,0.2507,0.0933,0.3938,-1.645,-5.81,1.950438775226552,-16.92863166552882,6.610619199963846,5.290000000000873
-0.3066,1.001,0.0337,0.2449,0.25,0.0915,0.035,-1.5838,-5.81,1.9344696919955024,-16.939679462496652,6.585278399970207,5.305999999996857
-0.3066,1.001,0.0337,0.2449,0.25,0.0915,-0.0175,-1.96,-6.1775,1.929999483072927,-16.966745646078422,6.585278399970207,5.305999999996857
-0.3073,0.9995,0.0308,0.2438,0.2494,0.0901,-0.0437,-1.82,-5.9763,1.812538734363015,-16.99369733908985,6.557978399971266,5.320999999996275
-0.3045,1.0008,0.0334,0.2438,0.2494,0.0901,-0.0437,-1.82,-5.9763,1.8829596591120903,-16.975122895133378,6.557978399971266,5.320999999996275
-0.3079,1.0006,0.0327,0.2438,0.2494,0.0901,-0.42,-1.8375,-6.16,1.875392213782371,-17.014486843700496,6.5285783999652764,5.336999999999534
-0.3071,0.9969,0.0362,0.2457,0.2521,0.0961,-0.6388,-1.6975,-6.0375,2.0086617135767026,-17.040284648141782,6.5285783999652764,5.336999999999534
-0.3071,0.9969,0.0346,0.2457,0.2521,0.0961,-0.7875,-2.0213,-5.7488,1.9954453894879904,-17.045328592365056,6.498258899966453,5.351999999998952
-0.3057,0.9968,0.0346,0.2453,0.2502,0.0901,-0.7875,-2.0213,-5.7488,1.990728399015695,-17.04496329385586,6.498258899966453,5.351999999998952
-0.3077,0.9955,0.0332,0.2453,0.2502,0.0901,-0.7437,-1.7237,-5.81,1.93918695326774,-17.059643657514215,6.470679699960835,5.368000000002212
-0.3081,0.9956,0.0344,0.2453,0.2502,0.0901,-0.5425,-1.5838,-5.8713,1.965544597028243,-17.080480372103203,6.470679699960835,5.368000000002212
-0.3059,0.9931,0.0349,0.2448,0.2502,0.0931,-0.7962,-1.4088,-5.5213,1.995356464070348,-17.084400491513726,6.448138899976743,5.38399999999092
-0.3049,0.9905,0.0344,0.2448,0.2502,0.0931,-0.7962,-1.4088,-5.5213,1.9913869104535384,-17.086447983079907,6.448138899976743,5.38399999999092
-0.3049,0.9905,0.0344,0.243,0.249,0.0884,-0.84,-1.2775,-5.355,1.9899414672363833,-17.089702340858967,6.4289763999681915,5.3989999999976135
-0.3039,0.9922,0.0378,0.243,0.249,0.0884,-0.9363,-0.6737,-4.6813,2.1074070853323916,-17.05380954714399,6.4289763999681915,5.3989999999976135
-0.304,0.996,0.0372,0.243,0.249,0.0884,-0.7437,-0.4638,-4.7512,2.1275853481278046,-17.009834389145155,6.42155559996668,5.415000000000873
-0.3032,0.9966,0.038,0.2446,0.2514,0.0968,-0.7437,-0.4638,-4.7512,2.1634034335284635,-16.961934005979643,6.42155559996668,5.415000000000873
-0.3021,0.9957,0.0388,0.2446,0.2514,0.0968,-0.945,-0.665,-4.6988,2.205046083793315,-16.9145742168427,6.411580599971905,5.429999999993015
-0.3021,0.9957,0.0356,0.244,0.2506,0.0881,-0.8313,-0.315,-4.69,2.106280156343057,-16.89142317650127,6.406540599970878,5.445999999996275
-0.3038,0.9978,0.0356,0.244,0.2506,0.0881,-0.8313,-0.315,-4.4625,2.0667939260518917,-16.90913152762611,6.406540599970878,5.445999999996275
-0.3033,0.999,0.0384,0.244,0.2511,0.0956,-0.7962,-0.2975,-4.4625,2.1518367009804837,-16.891384281778574,6.4017805999720725,5.461999999992258
-0.3047,0.9974,0.0394,0.2449,0.2511,0.0956,-0.5075,-0.035,-5.0662,2.2254949018200336,-16.923017416713762,6.4017805999720725,5.461999999992258
-0.304,0.9978,0.0378,0.2449,0.2511,0.0956,-0.0175,-0.4288,-5.1887,2.185516932447009,-16.926265354041167,6.395348599969203,5.476999999998952
-0.3078,0.9967,0.0354,0.2442,0.2518,0.0932,-0.0175,-0.4288,-5.1887,2.0773986513918725,-16.99977368456355,6.395348599969203,5.476999999998952
-0.3078,0.9967,0.0354,0.2442,0.2518,0.0932,-0.245,-0.6913,-5.39,2.0473573405817773,-17.033256982800875,6.384287799966949,5.493000000002212
-0.3075,0.9967,0.0351,0.245,0.2528,0.0856,-0.2887,-0.6562,-5.2675,2.026341219916551,-17.06289063325061,6.384287799966949,5.493000000002212
-0.3069,0.9963,0.035,0.245,0.2528,0.0856,-0.455,-0.7088,-5.5037,2.016665956088682,-17.069857975310608,6.373655799972519,5.507999999994354
-0.3054,0.9945,0.0418,0.245,0.2528,0.0856,-0.455,-0.7088,-5.5037,2.2793550795642723,-17.06798918693455,6.373655799972519,5.507999999994354
-0.306,0.9943,0.0407,0.2452,0.2501,0.086,-0.1312,-0.8487,-5.2413,2.324901764382615,-17.075378756740946,6.360076599969752,5.5239999999976135
-0.306,0.9943,0.0407,0.2452,0.2501,0.086,-0.5075,-0.7437,-5.1188,2.3376511953800674,-17.081481413702043,6.360076599969752,5.5239999999976135
-0.3063,0.9951,0.0364,0.2452,0.2508,0.0893,-0.2187,-0.6388,-5.32,2.168515306011702,-17.08580042280348,6.349855799972318,5.539999999993597
-0.3084,0.9961,0.0332,0.2452,0.2508,0.0893,-0.2187,-0.6388,-5.32,1.9876704057120531,-17.114021073297526,6.349855799972318,5.539999999993597
-0.3128,1.0,0.0361,0.2452,0.2508,0.0893,-0.1575,-0.7262,-5.5563,2.0437187173762497,-17.13965865750856,6.338962799967457,5.555000000000291
-0.3113,1.0006,0.035,0.2439,0.2523,0.0888,-0.3588,-1.12,-5.7488,2.0161233166418,-17.14894311321406,6.338962799967457,5.555000000000291
-0.307,0.9978,0.0359,0.2439,0.2523,0.0888,-0.49,-1.2425,-5.5738,2.0458798702485685,-17.143752383326888,6.319082799972447,5.570999999996275
-0.307,0.9978,0.0359,0.2426,0.2539,0.0892,-0.49,-1.2425,-5.5738,2.055712440645591,-17.139030769392193,6.319082799972447,5.570999999996275
-0.3064,0.9973,0.037,0.2426,0.2539,0.0892,-0.6737,-1.1463,-5.32,2.1004366846199605,-17.120347690810995,6.300741999968711,5.586999999999534
-0.3051,0.9998,0.0348,0.2426,0.2539,0.0892,-0.91,-1.2075,-5.425,2.0345217879887656,-17.088560398942224,6.300741999968711,5.586999999999534
-0.3031,0.9988,0.0359,0.2461,0.2526,0.0922,-0.91,-1.2425,-5.5388,2.0493022048539915,-17.062778955694792,6.280861999964661,5.603000000002794
-0.301,0.9984,0.0394,0.2461,0.2526,0.0922,-1.1463,-1.2425,-5.5388,2.1710403975353616,-17.02748781366696,6.280861999964661,5.603000000002794
-0.301,0.9984,0.0394,0.2444,0.2513,0.0995,-1.8637,-0.8575,-5.0662,2.206130751233348,-16.928275710245433,6.267141999974344,5.618999999991502
-0.3061,0.9932,0.0371,0.2444,0.2513,0.0995,-1.3913,-1.0412,-4.7863,2.1707135858636937,-17.01737184692436,6.267141999974344,5.618999999991502
-0.3132,0.9919,0.0377,0.2444,0.2513,0.0938,-1.3913,-1.0412,-4.7863,2.1738524329847584,-17.249874079141332,6.251523999967374,5.633999999998196
-0.3118,0.9919,0.0361,0.2451,0.2506,0.0938,-1.0063,-0.9887,-4.8038,2.1200069874191003,-17.3380594325166,6.251523999967374,5.633999999998196
-0.313,0.995,0.0346,0.2451,0.2506,0.0938,0.0437,-0.9712,-4.6463,2.0276644151186662,-17.39591274605369,6.234042399963813,5.652000000001863
-0.3071,0.9965,0.0393,0.2443,0.2514,0.0898,0.245,-1.6187,-5.2762,2.197101601574603,-17.316274783038573,6.234042399963813,5.652000000001863
-0.3071,0.9965,0.0393,0.2443,0.2514,0.0898,0.245,-1.6187,-5.2762,2.242148808730575,-17.259266530793425,6.209761899976533,5.666999999994005
-0.304,0.9994,0.0367,0.2443,0.2514,0.0845,-0.0525,-1.4262,-5.0225,2.143223593812126,-17.12084296972819,6.209761899976533,5.666999999994005
-0.3035,1.003,0.04,0.2443,0.2514,0.0845,0.6913,-0.5075,-5.3288,2.2503641866517605,-17.044497195713166,6.201641899974878,5.682999999997264
-0.3048,1.0047,0.0382,0.2443,0.2514,0.0845,0.0787,-0.6913,-5.495,2.1977039501914875,-17.017346523145388,6.201641899974878,5.682999999997264
-0.3073,1.0011,0.0398,0.245,0.2523,0.0864,0.0787,-0.6913,-5.495,2.2547027590072606,-17.022560382683853,6.190581099972625,5.699000000000524
-0.3073,1.0011,0.0398,0.245,0.2523,0.0864,-0.4462,-1.0237,-5.425,2.2695130893543585,-17.028378946753833,6.190581099972625,5.699000000000524
-0.3096,1.0,0.0321,0.2444,0.2531,0.0964,-0.5512,-0.5863,-5.6438,1.9839027381914913,-17.033107557257978,6.181786599972966,5.713999999999942
-0.3106,0.9945,0.0365,0.2444,0.2531,0.0964,-0.4988,-0.9712,-5.8888,2.062808214133647,-17.08640174064948,6.181786599972966,5.713999999999942
-0.3131,0.9938,0.0345,0.2444,0.2531,0.0964,-0.4988,-0.9712,-5.8888,2.012950355747793,-17.155747367162643,6.166247399969801,5.730000000003201
-0.3117,0.9937,0.0369,0.2442,0.253,0.0918,-0.6825,-1.47,-6.3525,2.086521931053707,-17.25622442297994,6.166247399969801,5.730000000003201
-0.3117,0.9896,0.0376,0.2442,0.253,0.0918,-1.26,-1.855,-6.3175,2.1362961431439076,-17.340512488855406,6.138422399984377,5.744999999995343
-0.3081,0.9896,0.0376,0.2477,0.2538,0.088,-1.155,-1.8112,-5.67,2.1591367925188325,-17.340327265676954,6.138422399984377,5.744999999995343
-0.3085,0.9909,0.0412,0.2477,0.2538,0.088,-1.155,-1.8112,-5.67,2.286981438102686,-17.340134564676482,6.1094431999784735,5.760999999998603
-0.3065,0.9889,0.0383,0.2477,0.2538,0.088,-0.84,-1.295,-5.5738,2.2437442358669655,-17.328208972683804,6.1094431999784735,5.760999999998603
-0.3104,0.9923,0.0398,0.2456,0.2526,0.0866,-0.5512,-0.875,-5.3725,2.278930604923723,-17.334868032823728,6.095443199975621,5.777000000001863
-0.3076,0.9913,0.0415,0.2456,0.2526,0.0866,-0.5512,-0.875,-5.4775,2.35734182695694,-17.316873407833267,6.095443199975621,5.777000000001863
-0.3076,0.9913,0.0415,0.2466,0.2528,0.0942,-0.5775,-1.1812,-5.4775,2.3836658902937975,-17.301823393414004,6.077725199984903,5.791999999994005
-0.3053,0.9931,0.0413,0.2466,0.2528,0.0942,-1.05,-1.2513,-5.145,2.3823095160557632,-17.223304829096197,6.077725199984903,5.791999999994005
-0.3065,0.9925,0.0405,0.2466,0.2528,0.0942,-1.0938,-0.9975,-4.9,2.355537697867515,-17.190512278663757,6.061765199981652,5.807999999997264
-0.3088,0.9954,0.0401,0.2441,0.2517,0.0862,-1.0938,-0.9975,-4.9,2.3269954426483066,-17.204312423658596,6.061765199981652,5.807999999997264
-0.3121,0.9923,0.0402,0.2441,0.2517,0.0862,-0.98,-0.6212,-5.2675,2.322694317521897,-17.274077266230723,6.052447199982014,5.822999999996682
-0.3121,0.992,0.0407,0.2453,0.2517,0.0916,-1.225,-0.56,-5.3025,2.337759805797904,-17.321831608000284,6.052447199982014,5.822999999996682
-0.3081,0.992,0.0407,0.2453,0.2517,0.0916,-0.56,-0.9712,-5.1363,2.345480146771602,-17.293368425215906,6.036907999978848,5.838999999999942
-0.3047,0.9955,0.0423,0.2459,0.2503,0.087,-0.56,-0.9712,-5.1363,2.4034641536594137,-17.192183379779543,6.036907999978848,5.838999999999942
-0.3033,0.9959,0.0401,0.2459,0.2503,0.087,-0.5863,-1.0237,-5.4425,2.339115049911197,-17.14212795095664,6.0205287999829595,5.8549999999959255
-0.306,0.9972,0.0423,0.2459,0.2503,0.087,-1.2425,-1.6625,-5.8362,2.389447579148014,-17.128466294610135,6.0205287999829595,5.8549999999959255
-0.3056,0.9952,0.0369,0.2464,0.2521,0.0867,-0.9975,-1.4875,-5.3113,2.2290470276983134,-17.110092917561648,5.9982162999838256,5.869999999995343
-0.3056,0.9952,0.0369,0.2464,0.2521,0.0867,-0.9975,-1.4875,-5.3113,2.165366322826121,-17.09660148341595,5.9982162999838256,5.869999999995343
-0.3106,0.9959,0.0411,0.2452,0.2539,0.0852,-0.6037,-1.0325,-5.11,2.2952838707330407,-17.172666806750772,5.98169629998046,5.885999999998603
-0.311,0.9927,0.0357,0.2452,0.2539,0.0852,-0.5688,-1.505,-5.5125,2.139568769909219,-17.201993061680053,5.98169629998046,5.885999999998603
-0.3079,0.994,0.0455,0.2452,0.2539,0.0852,-0.4112,-2.2138,-6.0113,2.465864157852456,-17.199941264513782,5.948489299981749,5.900999999998021
-0.3073,0.9942,0.0413,0.2446,0.252,0.0924,-0.4112,-2.2138,-6.0113,2.4068068064249726,-17.19037091562108,5.948489299981749,5.900999999998021
-0.3073,0.9942,0.0392,0.2446,0.252,0.0924,-0.4288,-1.7675,-6.2737,2.3061472846009643,-17.18026893487861,5.920209299975988,5.917000000001281
-0.3089,0.9974,0.0392,0.2455,0.2552,0.09,-0.3413,-1.7763,-7.1312,2.2681574020098663,-17.189324351567873,5.920209299975988,5.917000000001281
-0.3095,0.9987,0.0361,0.2455,0.2552,0.09,0.0613,-1.4612,-7.1575,2.1255095306831127,-17.200354278230755,5.896830099981856,5.932999999997264
-0.3066,0.9988,0.0416,0.2455,0.2552,0.09,0.0613,-1.4612,-7.1575,2.3124610247096995,-17.111061559330352,5.896830099981856,5.932999999997264
-0.3065,0.9976,0.0389,0.2447,0.253,0.087,-0.5163,-1.5575,-6.7112,2.2595111258180287,-17.088466070944715,5.873467599982763,5.947999999996682
-0.3096,0.9981,0.0456,0.2447,0.253,0.087,-0.6388,-1.2075,-6.615,2.4920096565444507,-17.150536098484032,5.854147599978827,5.963999999999942
-0.3096,0.9981,0.0456,0.2463,0.2508,0.0899,-0.6388,-1.2075,-6.615,2.5728077489073056,-17.182500558849984,5.854147599978827,5.963999999999942
-0.3101,0.9951,0.0415,0.2463,0.2508,0.0899,-1.3212,-1.2075,-6.3612,2.47224422845922,-17.228072881911192,5.836035099979529,5.97899999999936
-0.3148,0.995,0.0408,0.2463,0.2508,0.0899,-0.7875,-0.8313,-6.1075,2.393593294050677,-17.323314953880185,5.836035099979529,5.97899999999936
-0.3167,0.9943,0.0429,0.2486,0.2517,0.082,-0.5688,-0.9975,-6.51,2.4444394392381255,-17.473098175253032,5.820075099976278,5.995000000002619
-0.3163,0.9936,0.0435,0.2486,0.2517,0.082,-0.5688,-0.9975,-6.51,2.4856559642105656,-17.55021479440691,5.820075099976278,5.995000000002619
-0.3163,0.9936,0.0429,0.2463,0.2524,0.0943,-0.5863,-0.91,-6.5975,2.476849013962224,-17.59468745088215,5.8055150999799325,6.010999999998603
-0.3167,0.9946,0.0429,0.2463,0.2524,0.0943,-0.6913,-1.1113,-6.9212,2.472297308386734,-17.623784795718617,5.8055150999799325,6.010999999998603
-0.314,0.9951,0.0406,0.2258,0.253,0.0864,-0.9712,-0.9625,-6.7288,2.389775334350963,-17.55981771996773,5.791077599980492,6.025999999998021
-0.3163,0.9949,0.0391,0.2448,0.253,0.0864,-0.9712,-0.9625,-6.7288,2.305277444473151,-17.592681007286522,5.791077599980492,6.025999999998021
-0.3177,0.9953,0.0447,0.2448,0.253,0.0864,-0.6388,-0.6737,-6.5538,2.4789739390165386,-17.636557421663188,5.780298399978296,6.042000000001281
-0.3159,0.9908,0.0457,0.2486,0.2555,0.0922,-0.63,-0.77,-6.7025,2.5847717817747817,-17.651694038205193,5.780298399978296,6.042000000001281
-0.3159,0.9908,0.0457,0.2486,0.2555,0.0922,-0.07,-0.7,-6.5188,2.6245841685824343,-17.658431677619085,5.769798399978703,6.0570000000006985
-0.3188,0.9922,0.0421,0.2465,0.251,0.0859,-0.07,-0.7,-6.5188,2.4862183086626684,-17.722164728321587,5.769798399978703,6.0570000000006985
-0.3177,0.9917,0.0463,0.2465,0.251,0.0859,-0.1488,-0.7788,-6.6937,2.617573815748307,-17.733805673561925,5.757337599981831,6.072999999996682
-0.3172,0.9903,0.0497,0.2465,0.251,0.0859,-0.245,-0.8138,-5.9412,2.7949765735127077,-17.73505176187946,5.757337599981831,6.072999999996682
-0.3177,0.9883,0.0497,0.2475,0.2532,0.0878,0.1138,-1.6275,-5.8625,2.855771538975698,-17.7453131483926,5.731297599988368,6.088999999992666
-0.3177,0.9883,0.0341,0.2475,0.2532,0.0878,0.1138,-1.6275,-5.8625,2.2184486332216915,-17.755714753621515,5.731297599988368,6.088999999992666
-0.318,0.9909,0.0463,0.2496,0.2534,0.0896,0.4112,-0.3413,-5.2937,2.558913215950997,-17.76083375212397,5.726178099986083,6.10399999999936
-0.3189,0.9875,0.0486,0.2496,0.2534,0.0896,1.0412,-0.1312,-5.1363,2.7608000645473973,-17.801383398856935,5.726178099986083,6.10399999999936
-0.3223,0.9917,0.0442,0.2496,0.2534,0.0896,1.0412,-0.1312,-5.32,2.5977987289918354,-17.849911897657133,5.72407889998661,6.119999999995343
-0.319,0.9903,0.039,0.2473,0.2555,0.0903,1.2513,-0.4988,-5.32,2.32710466050281,-17.847866412957035,5.72407889998661,6.119999999995343
-0.3203,0.9945,0.0411,0.2473,0.2555,0.0903,1.8813,-0.2013,-5.74,2.359228395241839,-17.847248478401315,5.721059399986728,6.134999999994761
-0.3203,0.9945,0.0411,0.2478,0.2559,0.0901,1.6975,-0.1225,-5.9412,2.365132144220515,-17.845294379236353,5.721059399986728,6.134999999994761
-0.3185,0.9963,0.0378,0.2478,0.2559,0.0901,1.6975,-0.1225,-5.9412,2.209673891894276,-17.818013623892742,5.719099399986328,6.150999999998021
-0.3178,0.9958,0.0369,0.2478,0.2559,0.0901,1.7413,-0.4988,-5.8187,2.1388054975499933,-17.801571327411647,5.719099399986328,6.150999999998021
-0.3148,0.9977,0.0366,0.2481,0.2536,0.0884,1.3475,-0.3675,-5.5388,2.1087074232283034,-17.76594420351496,5.713219399987804,6.166999999994005
-0.317,1.0005,0.032,0.2481,0.2536,0.0884,1.1725,-0.8575,-5.4775,1.8909545768694194,-17.734196775373015,5.713219399987804,6.166999999994005
-0.317,1.0005,0.032,0.2487,0.2544,0.0863,1.1725,-0.8575,-5.4775,1.8445137635827464,-17.707644443687087,5.700356899982064,6.1820000000006985
-0.3165,1.0008,0.0337,0.2487,0.2544,0.0863,1.1638,-0.8313,-5.5388,1.9106298767404084,-17.687796788526168,5.700356899982064,6.1820000000006985
-0.3169,1.0,0.0304,0.2487,0.2531,0.0923,0.6388,-1.2513,-5.4687,1.7820182099562443,-17.668783611837817,5.68033609998709,6.197999999996682
-0.319,0.9964,0.0298,0.2469,0.2531,0.0923,-0.5425,-1.4088,-6.0375,1.7362566769419105,-17.689180646820734,5.68033609998709,6.197999999996682
-0.3211,0.9973,0.0339,0.2469,0.2531,0.0923,-0.5425,-1.4088,-6.0375,1.8760249468100565,-17.72874011640699,5.65920409998791,6.2129999999961
-0.3172,0.9915,0.0362,0.2477,0.2538,0.0898,-0.4812,-1.75,-6.1687,2.020143791239041,-17.72896064319503,5.65920409998791,6.2129999999961
-0.3172,0.9915,0.0362,0.2477,0.2538,0.0898,-0.4462,-1.9425,-6.3787,2.067893441389416,-17.729144737260853,5.628124099981578,6.22899999999936
-0.3197,0.9934,0.0321,0.2494,0.2549,0.087,-0.07,-1.6275,-5.8012,1.9137713518427397,-17.7406730821205,5.628124099981578,6.22899999999936
-0.3166,0.9955,0.0373,0.2494,0.2549,0.087,-0.07,-1.6275,-5.8012,2.078466053126026,-17.728187695253833,5.602084099988115,6.244999999995343
-0.3154,0.9963,0.0346,0.2494,0.2549,0.087,-0.28,-1.6187,-5.4687,2.016642159971031,-17.699020129765938,5.602084099988115,6.244999999995343
-0.3137,0.995,0.0389,0.247,0.256,0.1036,-0.385,-1.4088,-5.8187,2.16789777040496,-17.671991974123532,5.580952099978685,6.260000000002037
-0.3137,0.995,0.0389,0.247,0.256,0.1036,-0.385,-1.68,-5.7575,2.216201798391173,-17.657547192450547,5.580952099978685,6.260000000002037
-0.3176,0.9944,0.034,0.2484,0.2562,0.0881,-0.4375,-1.68,-5.7575,2.042042124361508,-17.661097448165297,5.554072099985432,6.275999999998021
-0.3172,0.9969,0.0348,0.2484,0.2562,0.0881,-0.455,-1.0675,-5.8625,2.01324956802135,-17.657783837830916,5.554072099985432,6.275999999998021
-0.3223,0.9967,0.0361,0.2484,0.2562,0.0881,-0.7175,-1.4,-6.3963,2.0524994188949184,-17.763004705200053,5.533072099986247,6.290999999997439
-0.3215,0.9947,0.0382,0.2484,0.2549,0.0863,-0.7175,-1.4,-6.3963,2.1468363078481936,-17.82014313373092,5.510672099981683,6.3070000000006985
-0.3245,0.9948,0.0368,0.2484,0.2549,0.0863,-1.2862,-1.68,-6.7025,2.1312282761889216,-17.939058369717937,5.510672099981683,6.3070000000006985
-0.3245,0.9948,0.0368,0.249,0.2542,0.0875,-1.295,-1.6625,-7.0788,2.1242520904493114,-18.006560993796,5.48407209998836,6.322999999996682
-0.324,0.9929,0.0354,0.249,0.2542,0.0875,-0.7175,-1.54,-7.4462,2.0713298477971227,-18.041782284236017,5.388592099991318,6.384999999994761
-0.3271,0.9959,0.0379,0.249,0.2542,0.0875,-0.7175,-1.54,-7.4462,2.140786144676539,-18.123957273146207,5.388592099991318,6.384999999994761
-0.326,0.9923,0.0389,0.2494,0.2557,0.0836,-1.12,-1.68,-7.0525,2.2014825714647928,-18.152878575463674,5.388592099991318,6.384999999994761
-0.3266,0.9945,0.0338,0.2494,0.2557,0.0836,-0.9187,-1.9863,-7.28,2.044695724639878,-18.16386425197043,5.356811299984844,6.400999999998021
-0.3266,0.9945,0.0338,0.2489,0.255,0.0822,-1.1375,-2.2487,-6.5975,1.9878128634301375,-18.16714825826703,5.356811299984844,6.400999999998021
-0.3268,0.9954,0.0375,0.2489,0.255,0.0822,-1.1375,-2.2487,-6.5975,2.0861680247131207,-18.16539542439312,5.356811299984844,6.400999999998021
-0.3265,0.9941,0.0373,0.2489,0.255,0.0954,-0.91,-2.7387,-6.2038,2.1247744576739485,-18.16705734858184,5.356811299984844,6.400999999998021
-0.3224,0.9922,0.037,0.2485,0.256,0.0954,-0.8925,-2.2487,-5.635,2.131486406167856,-18.160515815129394,5.356811299984844,6.400999999998021
-0.3215,0.9956,0.0351,0.2485,0.256,0.0954,-0.665,-2.205,-5.0575,2.0585372282993353,-18.05588959687201,5.356811299984844,6.400999999998021
-0.3217,0.9927,0.0353,0.2491,0.255,0.0853,-0.665,-2.205,-5.0575,2.044265148216579,-18.013678567985064,5.323736299986127,6.415999999997439
-0.3217,0.9927,0.0353,0.2491,0.255,0.0853,-1.1812,-1.9075,-4.7162,2.0398574038125403,-17.980151219855735,5.323736299986127,6.415999999997439
-0.3231,0.9929,0.0367,0.2495,0.2549,0.0837,-0.8138,-1.8725,-4.6638,2.088346855411946,-17.99711510227666,5.323736299986127,6.415999999997439
-0.3171,0.9942,0.04,0.2495,0.2549,0.0837,-0.5512,-1.785,-5.0312,2.231242780735198,-17.871830028577072,5.323736299986127,6.415999999997439
-0.3152,0.9929,0.0365,0.2495,0.2549,0.0837,-0.5512,-1.785,-5.0312,2.147776234580165,-17.765979165428895,5.295176299993296,6.4319999999934225
-0.3134,0.9921,0.0405,0.25,0.2544,0.0903,-0.9187,-1.3125,-4.1737,2.2645603050495993,-17.61685299084812,5.295176299993296,6.4319999999934225
-0.3134,0.9921,0.0405,0.25,0.2544,0.0903,-1.2862,-0.875,-4.6112,2.304881073371349,-17.5656320712102,5.2820512999874385,6.447000000000116
-0.3128,0.9959,0.0395,0.2493,0.2548,0.089,-1.2862,1.365,-4.1912,2.2863634632027092,-17.481062259138543,5.2820512999874385,6.447000000000116
-0.3107,0.9971,0.043,0.2493,0.2548,0.089,-1.1025,0.1838,-4.1912,2.3935446542825023,-17.36824170539087,5.284992099986701,6.4629999999961
-0.3115,0.9949,0.0376,0.2493,0.2548,0.089,-1.2775,0.7525,-3.8763,2.2667142362646224,-17.371629750311453,5.284992099986701,6.4629999999961
-0.3167,0.9916,0.0384,0.2482,0.2566,0.0903,-1.4088,1.1988,-4.2787,2.2409503000398763,-17.562949866326825,5.304172899990609,6.47899999999936
-0.3229,0.9909,0.0402,0.2482,0.2566,0.0903,-1.4088,1.1988,-4.2787,2.2841569200852634,-17.837928008746662,5.304172899990609,6.47899999999936
-0.3229,0.9909,0.0402,0.2498,0.2558,0.0898,-1.33,1.3563,-4.4012,2.3053252071928862,-17.948327149090588,5.324517399989819,6.493999999998778
-0.3241,0.9909,0.04,0.2498,0.2558,0.0898,-1.1287,1.3737,-4.62,2.3089854963292726,-18.02506081563534,5.324517399989819,6.493999999998778
-0.328,0.9923,0.0378,0.2498,0.2558,0.0898,-0.14,0.8313,-5.4513,2.219280884136743,-18.07111106344537,5.33781819998648,6.509999999994761
-0.327,0.9944,0.0357,0.2492,0.2562,0.0925,-0.14,0.8313,-5.4513,2.1044276474453762,-18.093072778834696,5.33781819998648,6.509999999994761
-0.3249,0.9987,0.039,0.2492,0.2562,0.0925,0.2713,1.05,-5.6,2.2014890910581966,-18.087277340001798,5.353568199993509,6.525000000001455
-0.3249,0.9987,0.039,0.2489,0.2545,0.091,0.0613,0.6388,-5.5563,2.2265754316465944,-18.078988517899095,5.353568199993509,6.525000000001455
-0.324,0.9997,0.0349,0.2489,0.2545,0.091,-0.105,0.0613,-5.4425,2.066002105624788,-18.054275825504813,5.354548999993263,6.540999999997439
-0.3266,1.0003,0.0376,0.2489,0.2545,0.091,-0.105,0.0613,-5.4425,2.1272582341545037,-18.05722960819108,5.354548999993263,6.540999999997439
-0.3272,0.9991,0.0366,0.2501,0.2542,0.0896,-0.5075,-0.4725,-5.39,2.1077083911183667,-18.07152019488613,5.346988999991723,6.5570000000006985
-0.3268,0.9959,0.0368,0.2501,0.2542,0.0896,-1.2425,-0.8925,-5.0312,2.1124667561245816,-18.10432820852191,5.346988999991723,6.5570000000006985
-0.3268,0.9934,0.0363,0.2483,0.2569,0.0881,-0.9887,-0.9887,-5.18,2.1005346775573943,-18.135388950935997,5.332158499992298,6.572000000000116
-0.3299,0.9934,0.0363,0.2483,0.2569,0.0881,-0.9887,-0.9887,-5.18,2.0958140095124165,-18.20939891930152,5.332158499992298,6.572000000000116
-0.3277,0.9917,0.0354,0.248,0.2572,0.0925,-1.12,-1.61,-5.18,2.0658425967352487,-18.231030518035247,5.306398499998764,6.5879999999961
-0.3251,0.9909,0.0403,0.248,0.2572,0.0925,-0.945,-1.7938,-5.3113,2.2266211142917447,-18.20947301132533,5.279491499986756,6.603000000002794
-0.3239,0.9895,0.0412,0.248,0.2572,0.0925,-1.1025,-2.0387,-5.1712,2.3189522090294536,-18.176403583075718,5.279491499986756,6.603000000002794
-0.321,0.9876,0.0442,0.2472,0.2558,0.0922,-1.1025,-2.0387,-5.1712,2.4616383277236435,-18.11373657162536,5.246872299994944,6.618999999998778
-0.321,0.9876,0.0442,0.2472,0.2558,0.0922,-1.6712,-2.3363,-4.8562,2.5078637857901596,-18.057602290786544,5.246872299994944,6.618999999998778
-0.3203,0.9884,0.0409,0.2499,0.256,0.0839,-1.1463,-2.1962,-4.7863,2.4279084604014303,-18.002806374707514,5.211733100003765,6.634999999994761
-0.3184,0.9888,0.0413,0.2499,0.256,0.0839,-1.1463,-2.1962,-4.8125,2.406994110189652,-17.924877360436774,5.211733100003765,6.634999999994761
-0.3181,0.9903,0.043,0.2499,0.256,0.0839,-0.8575,-2.0912,-4.8125,2.4564656587321703,-17.86347550737277,5.180365100004982,6.649999999994179
-0.3142,0.9912,0.0432,0.249,0.2547,0.0882,-0.7262,-1.7237,-5.0312,2.481556841593281,-17.74967962607921,5.180365100004982,6.649999999994179
-0.3142,0.9906,0.0379,0.249,0.2547,0.0882,-0.525,-1.3825,-4.5413,2.2881646217163176,-17.662773695169513,5.158245100000475,6.665999999997439
-0.3193,0.9906,0.0379,0.2457,0.2547,0.0894,-0.525,-1.3825,-4.5413,2.2235135992172697,-17.764009060816694,5.158245100000475,6.665999999997439
-0.3188,0.9919,0.0384,0.2457,0.2547,0.0894,-0.4725,-1.3212,-4.5763,2.2191517615968115,-17.785495977705153,5.138427099991631,6.681000000004133
-0.3172,0.9914,0.04,0.2457,0.2547,0.0894,-0.8313,-0.6388,-4.7512,2.2764527274407187,-17.758220095498483,5.138427099991631,6.681000000004133
-0.321,0.9903,0.0392,0.2495,0.2555,0.0862,-0.5775,-0.6913,-4.725,2.2700915768893397,-17.84992715458779,5.127366299999437,6.6969999999928405
-0.3241,0.9946,0.04,0.2495,0.2555,0.0862,-0.5775,-0.6913,-4.725,2.2918240459382497,-17.940032450685166,5.127366299999437,6.6969999999928405
-0.3241,0.9946,0.04,0.2487,0.2567,0.0831,-0.665,-0.6562,-4.8475,2.29910195127784,-17.983010913956715,5.1168670999972985,6.7129999999961
-0.3188,0.9975,0.042,0.2487,0.2567,0.0831,-0.42,-0.5512,-4.6375,2.3748811526059534,-17.843665983798005,5.1168670999972985,6.7129999999961
-0.3182,0.9971,0.0413,0.2487,0.2567,0.0831,-0.7,-0.5163,-4.69,2.3729212423902983,-17.7650015889997,5.109122599997599,6.727999999995518
-0.3195,0.9972,0.0415,0.2481,0.2563,0.0898,-0.7,-0.5163,-4.69,2.379470433142562,-17.758015244199736,5.109122599997599,6.727999999995518
-0.3236,0.9966,0.039,0.2481,0.2563,0.0898,-0.3675,0.0,-4.69,2.2849856760686644,-17.86605602507862,5.109122599997599,6.743999999998778
-0.3236,0.9966,0.0429,0.2493,0.2542,0.0849,-0.5512,-0.0437,-4.4625,2.40419198736518,-17.924759317429405,5.109122599997599,6.743999999998778
-0.3251,0.9935,0.0429,0.2493,0.2542,0.0849,-0.455,-0.4725,-4.1213,2.4502099608092425,-18.033593089533014,5.102035099997875,6.758999999998196
-0.324,0.9912,0.0406,0.2486,0.2537,0.086,-0.455,-0.4725,-4.1213,2.3797377011503484,-18.066177747455562,5.102035099997875,6.758999999998196
-0.3253,0.9925,0.0382,0.2486,0.2537,0.086,-0.2625,-0.7525,-4.5237,2.258113543257014,-18.10267846395941,5.089995100000897,6.774999999994179
-0.3233,0.9935,0.0389,0.2486,0.2537,0.086,-0.2713,-1.0063,-4.2175,2.2471333639867166,-18.049380357636664,5.089995100000897,6.774999999994179
-0.3198,0.9967,0.0384,0.2496,0.2548,0.0898,-0.2713,-1.0063,-4.585,2.2189188422227075,-17.907409280336825,5.073894299997617,6.790999999997439
-0.3198,0.9967,0.0384,0.2496,0.2548,0.0898,-0.1575,-1.2862,-4.585,2.2100929248601875,-17.839420516428095,5.073894299997617,6.790999999997439
-0.3188,0.9979,0.0379,0.2475,0.2565,0.0927,-0.6475,-1.645,-4.5237,2.1872549246440585,-17.767644322210217,5.049219299998574,6.805999999996857
-0.3202,0.9986,0.0353,0.2475,0.2565,0.0927,-0.595,-1.1638,-4.2263,2.0802347716405674,-17.767849982139357,5.049219299998574,6.805999999996857
-0.3195,0.9975,0.0394,0.2475,0.2565,0.0927,-0.595,-1.1638,-4.2263,2.1997375519215847,-17.75571736972581,5.030598499994781,6.822000000000116
-0.3194,0.9945,0.0404,0.2494,0.2562,0.0832,-0.9363,-1.085,-4.795,2.277228073945921,-17.77246014731047,5.030598499994781,6.822000000000116
-0.3194,0.9945,0.0396,0.2494,0.2562,0.0832,-1.4175,-1.7938,-4.7775,2.278813457796268,-17.78172276364834,5.003691499995825,6.836999999999534
-0.3196,0.992,0.0396,0.2471,0.2553,0.0873,-0.98,-1.8375,-4.76,2.2831646036272746,-17.811666710442758,5.003691499995825,6.836999999999534
-0.3165,0.9931,0.0412,0.2471,0.2553,0.0873,-0.98,-1.8375,-4.76,2.3391705552323097,-17.740603506114557,4.974291500003205,6.852999999995518
-0.3165,0.9899,0.0411,0.2471,0.2553,0.0873,-1.61,-1.1725,-4.2175,2.3574019661114614,-17.72619189556459,4.974291500003205,6.852999999995518
-0.3152,0.9916,0.0418,0.2482,0.2547,0.0887,-1.5575,-0.8138,-4.06,2.385019301474892,-17.66016007208802,4.9612707000005525,6.868999999998778
-0.3172,0.9922,0.0414,0.2482,0.2547,0.0887,-1.575,-0.9712,-4.0862,2.3870982151899063,-17.693370162421992,4.9612707000005525,6.868999999998778
-0.3172,0.9922,0.0414,0.2473,0.2567,0.086,-1.575,-0.9712,-4.0862,2.3881690888020097,-17.706207683884085,4.946702700001118,6.883999999998196
-0.3135,0.994,0.0442,0.2473,0.2567,0.086,-1.1375,-1.3038,-4.4275,2.479699715505718,-17.585529081068707,4.946702700001118,6.883999999998196
-0.3143,0.9929,0.042,0.2473,0.2567,0.086,-1.6275,-1.0938,-4.445,2.452635711047977,-17.566123294449067,4.929201899997552,6.900000000001455
-0.3171,0.9939,0.0392,0.2484,0.2542,0.0912,-1.2425,-0.5512,-4.235,2.3439392927433556,-17.634588213946614,4.929201899997552,6.900000000001455
-0.3174,0.9927,0.0429,0.2484,0.2542,0.0912,-1.2425,-0.5512,-4.235,2.4170947592317105,-17.682225334812188,4.9209339000018835,6.914999999993597
-0.3174,0.9927,0.044,0.2497,0.255,0.089,-1.1638,-0.8225,-4.025,2.486544057839742,-17.702340516716657,4.9209339000018835,6.914999999993597
-0.3162,0.9919,0.044,0.2497,0.255,0.089,-0.9187,-1.2775,-4.34,2.5193819587951674,-17.68103990360096,4.900493899997719,6.930999999996857
-0.3179,0.9917,0.0408,0.2467,0.2562,0.0874,-0.42,-0.805,-4.34,2.40870156385906,-17.726001560790444,4.900493899997719,6.930999999996857
-0.3203,0.993,0.0438,0.2467,0.2562,0.0874,-0.42,-0.805,-4.34,2.4878520185624082,-17.803284594571345,4.887613899995095,6.947000000000116
-0.3205,0.9958,0.0428,0.2467,0.2562,0.0874,0.0875,-0.6562,-4.0512,2.4685142427626996,-17.816995801396843,4.887613899995095,6.947000000000116
-0.3178,0.9961,0.0401,0.2478,0.2546,0.0853,0.14,-0.7613,-4.305,2.3499472439436664,-17.73874842120631,4.876194399995539,6.961999999999534
-0.3178,0.9961,0.0401,0.2478,0.2546,0.0853,0.14,-0.7613,-4.2438,2.3175193282580993,-17.705098532942714,4.8640135999985965,6.977999999995518
-0.3201,0.997,0.0375,0.2483,0.2547,0.0868,-0.35,-1.3212,-4.2438,2.2056716430530083,-17.753950305607425,4.8640135999985965,6.977999999995518
-0.3207,0.997,0.0417,0.2483,0.2547,0.0868,-0.525,-1.4175,-4.3663,2.3317257203535258,-17.78942760202339,4.842751099999422,6.992999999994936
-0.3203,0.9963,0.0424,0.2483,0.2547,0.0868,-1.155,-1.05,-4.0862,2.392355322746749,-17.800179502601573,4.842751099999422,6.992999999994936
-0.3182,0.995,0.043,0.2476,0.2545,0.0838,-1.155,-1.05,-4.0862,2.439746628754274,-17.75020951475222,4.825951099995999,7.008999999998196
-0.3182,0.995,0.043,0.2476,0.2545,0.0838,-0.7262,-1.75,-4.0425,2.4620821737676395,-17.730691177288847,4.825951099995999,7.008999999998196
-0.3188,0.9955,0.0399,0.2472,0.2543,0.0891,-0.875,-1.75,-3.7275,2.358385618143974,-17.73938209815946,4.797951099990295,7.025000000001455
-0.318,0.9948,0.047,0.2472,0.2543,0.0891,-1.1287,-0.9625,-3.08,2.559809323838168,-17.717165704485073,4.797951099990295,7.025000000001455
