AcclX,AcclY,AcclZ,MagX,MagY,MagZ,GyroX,GyroY,GyroZ,Roll,Pitch,Yaw,Time Elapsed(s)
-0.4357,0.9625,0.0457,0.2858,0.2965,0.0894,0.2013,-4.235,-6.5887,0,0,0,0.0
-0.4339,0.9638,0.0425,0.2858,0.2965,0.0894,0.2013,-4.235,-6.5887,0,0,0,0.0
-0.4339,0.9638,0.0425,0.2855,0.2951,0.093,0.4812,-4.1562,-5.985,0,0,0,0.01600000000325963
-0.4329,0.9654,0.0489,0.2855,0.2951,0.093,0.315,-4.5937,-5.8538,0,0,0,0.031000000002677552
-0.4282,0.9651,0.0487,0.2855,0.2951,0.093,0.5075,-4.375,-5.565,0,0,0,0.031000000002677552
-0.4249,0.9638,0.0426,0.2852,0.2966,0.0957,0.5075,-4.375,-5.565,0,0,0,0.04700000000593718
-0.4263,0.9631,0.0449,0.2852,0.2966,0.0957,0.56,-4.0862,-5.1013,0,0,0,0.04700000000593718
-0.4263,0.9694,0.0438,0.2862,0.2964,0.0905,0.6913,-4.0775,-4.935,0,0,0,0.062000000005355105
-0.4223,0.9694,0.0438,0.2862,0.2964,0.0905,0.1663,-4.2263,-5.3463,0,0,0,0.06900000000314321
-0.4218,0.9701,0.0411,0.2854,0.2976,0.0938,0.1663,-4.2263,-5.3463,0,0,0,0.06900000000314321
-0.4189,0.9669,0.0456,0.2854,0.2976,0.0938,0.8838,-3.29,-5.775,0,0,0,0.08500000000640284
-0.418,0.9667,0.044,0.2854,0.2976,0.0938,-0.0175,-3.1063,-5.7225,0,0,0,0.08500000000640284
-0.4184,0.9675,0.0451,0.2862,0.2954,0.0863,-0.0175,-2.7912,-5.7575,0,0,0,0.10100000000966247
-0.4184,0.9675,0.0451,0.2862,0.2954,0.0863,-0.6913,-2.7912,-5.7575,0,0,0,0.10100000000966247
-0.4189,0.9694,0.0439,0.287,0.2958,0.0967,-0.35,-2.5375,-6.1775,0,0,0,0.11600000000180444
-0.4172,0.9646,0.045,0.287,0.2958,0.0967,-0.3938,-1.8813,-6.1163,0,0,0,0.11600000000180444
-0.428,0.9605,0.0426,0.287,0.2958,0.0967,-0.3938,-1.8813,-6.1163,0,0,0,0.13200000000506407
-0.4308,0.9586,0.0434,0.2853,0.2957,0.0951,-0.0962,-1.4963,-6.2387,0,0,0,0.13200000000506407
-0.4308,0.961,0.0431,0.2853,0.2957,0.0951,0.28,-1.5313,-6.4138,0,0,0,0.147000000004482
-0.4295,0.961,0.0431,0.2858,0.2962,0.0954,0.7175,-1.0063,-6.8425,0,0,0,0.147000000004482
-0.4324,0.9642,0.0416,0.2858,0.2962,0.0954,0.7175,-1.0063,-6.8425,0,0,0,0.16300000000774162
-0.4301,0.9668,0.0427,0.2858,0.2962,0.0954,1.0588,-0.385,-7.1838,0,0,0,0.16300000000774162
-0.4281,0.9651,0.0463,0.2864,0.2965,0.091,0.4375,-0.5337,-7.0875,0,0,0,0.1790000000037253
-0.4297,0.9676,0.0381,0.2864,0.2965,0.091,-0.3063,-0.6913,-6.3963,0,0,0,0.1790000000037253
-0.4297,0.9676,0.0381,0.2885,0.2957,0.101,-0.3063,-0.6913,-6.3963,0,0,0,0.1940000000031432
-0.4327,0.9683,0.039,0.2885,0.2957,0.101,-0.4375,-0.7,-6.1687,0,0,0,0.1940000000031432
-0.4322,0.9672,0.0443,0.2885,0.2957,0.101,-0.63,-1.155,-5.8975,0,0,0,0.21000000000640284
-0.4355,0.9647,0.0389,0.2855,0.295,0.0833,-1.0938,-0.9363,-5.7137,0,0,0,0.21000000000640284
-0.4365,0.9647,0.0448,0.2855,0.295,0.0833,-1.0938,-0.9363,-5.7137,0,0,0,0.22500000000582077
-0.4365,0.96,0.0429,0.2871,0.2967,0.093,-0.7613,-1.1812,-5.3025,0,0,0,0.22500000000582077
-0.4369,0.96,0.0429,0.2871,0.2967,0.093,-0.9187,-1.295,-5.5037,0,0,0,0.2410000000090804
-0.4383,0.9591,0.0434,0.2866,0.2974,0.1023,-1.0675,-1.5225,-5.5388,0,0,0,0.2410000000090804
-0.4371,0.9572,0.0491,0.2866,0.2974,0.1023,-1.0675,-1.5225,-5.5388,0,0,0,0.25700000000506407
-0.4344,0.9596,0.0485,0.2866,0.2974,0.1023,-0.9363,-1.3125,-5.18,0,0,0,0.25700000000506407
-0.4299,0.959,0.0475,0.288,0.2987,0.091,-1.1375,-1.4438,-5.1887,0,0,0,0.272000000004482
-0.4299,0.959,0.0475,0.288,0.2987,0.091,-1.1375,-0.9975,-5.1013,0,0,0,0.272000000004482
-0.431,0.9584,0.0465,0.2876,0.2963,0.096,-0.9712,-0.9975,-5.1013,0,0,0,0.2880000000077416
-0.431,0.9586,0.0515,0.2876,0.2963,0.096,-0.6212,-1.26,-4.8387,0,0,0,0.2880000000077416
-0.4339,0.96,0.0472,0.2876,0.2963,0.096,-0.8662,-1.3475,-4.235,0,0,0,0.30300000000715954
-0.434,0.9573,0.0501,0.2861,0.2943,0.0888,-0.8662,-1.3475,-4.235,0,0,0,0.30300000000715954
-0.434,0.9582,0.0489,0.2861,0.2943,0.0888,-0.175,-1.0325,-3.99,0,0,0,0.31900000001041917
-0.4346,0.9582,0.0489,0.2869,0.2952,0.0935,-0.3413,-1.2775,-3.57,0,0,0,0.31900000001041917
-0.4322,0.9604,0.0465,0.2869,0.2952,0.0935,-0.4112,-1.6625,-3.3775,0,0,0,0.3349999999991269
-0.4324,0.9673,0.0437,0.2869,0.2952,0.0935,-0.4112,-1.6625,-3.3775,0,0,0,0.3349999999991269
-0.43,0.9689,0.0461,0.2866,0.2954,0.0967,-0.42,-1.575,-3.4388,0,0,0,0.35000000000582077
-0.4284,0.9658,0.0441,0.2866,0.2954,0.0967,-0.6825,-1.6975,-3.5438,0,0,0,0.35000000000582077
-0.4284,0.9658,0.0441,0.2855,0.2966,0.0862,-0.2187,-1.8637,-3.7975,0,0,0,0.3660000000090804
-0.4321,0.9644,0.0411,0.2855,0.2966,0.0862,-0.2187,-1.8637,-3.7975,0,0,0,0.38100000000122236
-0.4326,0.9629,0.044,0.2855,0.2966,0.0862,-0.2187,-2.3625,-4.5413,0,0,0,0.38100000000122236
-0.4329,0.9607,0.0437,0.2847,0.2966,0.0931,-0.5163,-2.5375,-5.11,0,0,0,0.397000000004482
-0.4316,0.9615,0.0395,0.2847,0.2966,0.0931,-0.245,-2.94,-5.4425,0,0,0,0.397000000004482
-0.4316,0.9568,0.0458,0.2868,0.2954,0.0958,-0.245,-2.94,-5.4425,0,0,0,0.41300000000046566
-0.4275,0.9568,0.0458,0.2868,0.2954,0.0958,0.2013,-2.9838,-5.1537,0,0,0,0.41300000000046566
-0.4216,0.9562,0.0454,0.285,0.295,0.0968,0.3237,-2.38,-5.0925,0,0,0,0.42800000000715954
-0.4145,0.9554,0.047,0.285,0.295,0.0968,0.385,-1.5488,-4.7337,0,0,0,0.42800000000715954
-0.4097,0.9582,0.0476,0.285,0.295,0.0968,0.385,-1.5488,-4.7337,0,0,0,0.4440000000031432
-0.4055,0.9626,0.0522,0.2867,0.2943,0.0963,0.2013,-1.085,-4.3488,0,0,0,0.4440000000031432
-0.4055,0.9626,0.0522,0.2867,0.2943,0.0963,0.0613,0.2713,-3.7275,0,0,0,0.45900000000256114
-0.4101,0.9662,0.0476,0.2848,0.2955,0.0982,0.0613,0.2713,-3.57,0,0,0,0.45900000000256114
-0.4196,0.9619,0.0455,0.2848,0.2955,0.0982,-0.7875,0.7613,-3.57,0,0,0,0.47500000000582077
-0.4251,0.954,0.0522,0.2848,0.2955,0.0982,-0.9187,1.2513,-3.8763,0,0,0,0.47500000000582077
-0.4286,0.949,0.054,0.285,0.2974,0.0927,-1.0675,1.1812,-4.69,0,0,0,0.49100000000180444
-0.4286,0.9502,0.0523,0.285,0.2974,0.0927,-1.0675,1.1812,-4.69,0,0,0,0.49100000000180444
-0.4304,0.9502,0.0523,0.285,0.2947,0.0936,-1.0588,0.9887,-5.0662,0,0,0,0.5060000000084983
-0.4369,0.9544,0.0587,0.285,0.2947,0.0936,-1.0063,0.245,-5.1712,0,0,0,0.5060000000084983
-0.4444,0.9547,0.0485,0.285,0.2947,0.0936,-1.1988,-0.4025,-5.4862,0,0,0,0.522000000004482
-0.4571,0.9576,0.0492,0.2865,0.2942,0.0894,-1.1988,-0.4025,-5.4862,0,0,0,0.522000000004482
-0.4638,0.9602,0.0472,0.2865,0.2942,0.0894,-1.0325,-1.3388,-5.6262,0,0,0,0.5370000000038999
-0.4638,0.9602,0.0472,0.2862,0.2943,0.0882,-1.1375,-3.0625,-6.8075,0,0,0,0.5370000000038999
-0.4621,0.964,0.0456,0.2862,0.2943,0.0882,-0.8225,-4.2787,-7.3938,0,0,0,0.5530000000071595
-0.4606,0.9692,0.0486,0.2862,0.2943,0.0882,-0.8225,-4.2787,-7.3938,0,0,0,0.5530000000071595
-0.4498,0.9761,0.0514,0.2862,0.2956,0.094,-1.12,-5.1887,-7.7263,0,0,0,0.5690000000031432
-0.4332,0.9753,0.0559,0.2862,0.2956,0.094,-1.3737,-5.5738,-7.0525,0,0,0,0.5690000000031432
-0.4332,0.975,0.0524,0.2856,0.297,0.0917,-2.0563,-5.6262,-5.3375,0,0,0,0.5840000000098371
-0.4244,0.975,0.0524,0.2856,0.297,0.0917,-2.0563,-5.6262,-5.3375,0,0,0,0.5840000000098371
-0.4187,0.9726,0.0544,0.2852,0.2967,0.0952,-2.3537,-4.9262,-3.29,0,0,0,0.6000000000058208
-0.4189,0.9714,0.0514,0.2852,0.2967,0.0952,-2.8875,-4.2263,-1.9075,0,0,0,0.6000000000058208
-0.4208,0.9718,0.0496,0.2852,0.2967,0.0952,-2.7387,-3.9025,-1.3038,0,0,0,0.6150000000052387
-0.4221,0.9716,0.0487,0.2875,0.2946,0.0957,-2.7387,-3.9025,-1.3038,0,0,0,0.6150000000052387
-0.4221,0.9716,0.0487,0.2875,0.2946,0.0957,-2.7912,-3.5612,-1.8463,0,0,0,0.6310000000084983
-0.4215,0.9715,0.0506,0.2849,0.2946,0.0985,-2.8525,-3.7538,-3.22,0,0,0,0.6310000000084983
-0.4144,0.9764,0.0522,0.2849,0.2946,0.0985,-2.8525,-3.7538,-4.62,0,0,0,0.647000000004482
-0.4087,0.9784,0.0475,0.2849,0.2946,0.0985,-1.925,-3.1675,-4.62,0,0,0,0.647000000004482
-0.3994,0.9783,0.0504,0.2854,0.2943,0.0969,-1.7062,-2.5375,-5.8888,0,0,0,0.6630000000077416
-0.3994,0.98,0.0459,0.2854,0.2943,0.0969,-1.4175,-1.225,-6.7638,0,0,0,0.6630000000077416
-0.3977,0.98,0.0459,0.2847,0.2958,0.0977,-1.4175,-1.225,-6.7638,0,0,0,0.6790000000037253
-0.3902,0.9769,0.0447,0.2847,0.2958,0.0977,-1.645,-0.0962,-6.6762,0,0,0,0.6790000000037253
-0.3881,0.9815,0.0469,0.2847,0.2958,0.0977,-1.61,1.5225,-5.4775,0,0,0,0.6940000000031432
-0.3856,0.9775,0.0488,0.2875,0.2957,0.0957,-1.1988,3.7275,-5.2762,0,0,0,0.6940000000031432
-0.3933,0.9729,0.0473,0.2875,0.2957,0.0957,-1.1988,3.7275,-5.2762,0,0,0,0.7100000000064028
-0.3933,0.9729,0.0473,0.2864,0.2958,0.0885,-1.7763,5.4687,-4.4538,0,0,0,0.7100000000064028
-0.4006,0.964,0.045,0.2864,0.2958,0.0885,-1.5225,6.65,-3.8937,0,0,0,0.7260000000023865
-0.4122,0.961,0.0385,0.2864,0.2958,0.0885,-0.105,7.6213,-3.3512,0,0,0,0.7260000000023865
-0.4186,0.9596,0.0387,0.2862,0.2951,0.0898,-0.105,7.6213,-3.3512,0,0,0,0.7410000000090804
-0.4165,0.9617,0.0379,0.2862,0.2951,0.0898,0.315,8.1462,-3.4125,0,0,0,0.7410000000090804
-0.4165,0.9649,0.0317,0.2853,0.2954,0.0902,1.0237,7.63,-3.2987,0,0,0,0.7570000000050641
-0.411,0.9649,0.0317,0.2853,0.2954,0.0902,0.8313,7.455,-2.6337,0,0,0,0.772000000004482
-0.4112,0.9678,0.0326,0.2854,0.2942,0.093,0.8313,7.455,-2.6337,0,0,0,0.772000000004482
-0.4124,0.9689,0.0323,0.2854,0.2942,0.093,1.1113,8.1287,-2.485,0,0,0,0.7880000000004657
-0.4146,0.9712,0.031,0.2854,0.2942,0.093,1.0675,8.1375,-1.61,0,0,0,0.7880000000004657
-0.4161,0.9731,0.0282,0.2875,0.2941,0.094,0.8138,7.525,-0.8662,0.9777141253875055,-18.311488120671974,0.0,0.8040000000037253
-0.4161,0.9731,0.0282,0.2875,0.2941,0.094,0.8138,7.525,-0.8662,1.379549515155423,-22.134324217560774,0.11287500005037146,0.8190000000104192
-0.4126,0.9708,0.0339,0.2872,0.2942,0.0874,0.2537,6.9825,-0.2625,1.6687136879073095,-22.85044082710655,0.11287500005037146,0.8190000000104192
-0.4085,0.9667,0.0348,0.2872,0.2942,0.0874,0.3938,6.475,0.385,1.8664808215876703,-22.886990754413265,0.21647500002436573,0.8350000000064028
-0.4168,0.9709,0.0341,0.2872,0.2942,0.0874,0.3938,6.475,0.385,1.9394723166519592,-23.16544564519905,0.21647500002436573,0.8350000000064028
-0.4265,0.9769,0.0395,0.2859,0.2939,0.096,-0.0263,5.9412,0.6475,2.0794299151700226,-23.50431656593826,0.21647500002436573,0.8350000000064028
-0.4265,0.9735,0.045,0.2859,0.2939,0.096,-0.98,4.445,0.14,2.229774256906221,-23.61347560349411,0.2831500000217784,0.8500000000058208
-0.4258,0.9735,0.045,0.2822,0.2929,0.0875,-1.015,3.3425,-0.3325,2.347948733780104,-23.6039008347694,0.2831500000217784,0.8500000000058208
-0.425,0.9654,0.049,0.2822,0.2929,0.0875,-1.015,3.3425,-0.3325,2.5060502816083012,-23.70912595382992,0.33663000000835386,0.8660000000018044
-0.4286,0.9565,0.0479,0.2822,0.2929,0.0875,-1.7413,2.3975,-0.2013,2.6968395358417308,-24.036515216101428,0.33663000000835386,0.8660000000018044
-0.432,0.9502,0.0536,0.2854,0.2912,0.0922,-1.085,1.33,-0.6562,2.865787350890793,-24.338683620917607,0.3579100000126892,0.8820000000050641
-0.4294,0.9447,0.0507,0.2854,0.2912,0.0922,-0.7262,0.7525,-0.63,2.8856983498383246,-24.397792987728806,0.3579100000126892,0.8820000000050641
-0.4294,0.9447,0.0507,0.2845,0.2899,0.0846,-0.7262,0.7525,-0.63,2.9036867649654807,-24.409553174208877,0.36919750001225116,0.897000000004482
-0.4315,0.9493,0.0469,0.2845,0.2899,0.0846,0.4288,0.3413,-0.9712,2.8651529166875447,-24.41592638888775,0.36919750001225116,0.897000000004482
-0.4308,0.9457,0.0517,0.2845,0.2899,0.0846,0.5863,-0.2013,-0.8225,3.0094623120642643,-24.44986499813046,0.36597670001305965,0.9130000000004657
-0.4274,0.9467,0.051,0.2823,0.2911,0.0909,1.1375,-1.0325,-0.8487,3.056720198044761,-24.30447845878108,0.36597670001305965,0.9130000000004657
-0.4276,0.9529,0.0508,0.2823,0.2911,0.0909,1.1375,-1.0325,-0.8487,3.0534594662074817,-24.17192361684101,0.35048920000614825,0.9280000000071595
-0.4276,0.9573,0.0561,0.2825,0.2912,0.0895,1.8637,-2.31,-1.6363,3.267591337498881,-24.067161015415266,0.35048920000614825,0.9280000000071595
-0.4238,0.9573,0.0561,0.2825,0.2912,0.0895,1.8375,-3.5175,-2.4325,3.328882455557399,-23.91239865937349,0.2942092000202757,0.9440000000031432
-0.4197,0.9623,0.0536,0.2823,0.2899,0.08,2.135,-4.3575,-3.605,3.2255797906412926,-23.717225954062865,0.2942092000202757,0.9440000000031432
-0.4182,0.9629,0.0523,0.2823,0.2899,0.08,2.135,-4.3575,-3.605,3.1400305395586052,-23.57777188463667,0.22448920000607184,0.9600000000064028
-0.4191,0.9667,0.0515,0.2823,0.2899,0.08,1.3475,-5.1188,-4.1912,3.080010365165079,-23.524165550250665,0.22448920000607184,0.9600000000064028
-0.4184,0.9617,0.0544,0.2813,0.292,0.0798,0.9887,-6.09,-5.3025,3.17715732500395,-23.50628165866795,0.1209592000071353,0.9770000000062282
-0.4184,0.9617,0.0544,0.2813,0.292,0.0798,0.9887,-6.09,-6.3263,3.2144066262323028,-23.488973202374996,0.1209592000071353,0.9770000000062282
-0.4198,0.959,0.0539,0.2817,0.2912,0.0877,0.2362,-6.3088,-6.3263,3.2155512961005863,-23.5634921583149,0.020018400032473516,0.9930000000022119
-0.4189,0.9589,0.0519,0.2817,0.2912,0.0877,0.0175,-7.2888,-7.245,3.1698493362669384,-23.56646423235598,0.020018400032473516,0.9930000000022119
-0.4177,0.9593,0.0509,0.2817,0.2912,0.0877,0.0787,-7.6562,-8.225,3.1153358231611614,-23.514459189219743,-0.09482460001877618,1.0080000000089058
-0.4147,0.9598,0.0496,0.2822,0.2916,0.0914,0.0787,-7.6562,-8.225,3.050768214856155,-23.37809061681578,-0.09482460001877618,1.0080000000089058
-0.4147,0.9581,0.0481,0.2822,0.2916,0.0914,0.6825,-7.6912,-9.1175,2.950816046367732,-23.378353746169175,-0.21788379998788582,1.0240000000048894
-0.4119,0.9581,0.0481,0.2815,0.2928,0.0903,1.1812,-7.8837,-9.5375,2.9014531873796616,-23.261334011732597,-0.21788379998788582,1.0240000000048894
-0.4141,0.962,0.0483,0.2815,0.2928,0.0903,1.6013,-7.8837,-9.3888,2.8827222166423123,-23.26323405851034,-0.3440229999562223,1.0400000000008731
-0.4136,0.9626,0.0465,0.2815,0.2928,0.0903,1.6013,-7.8837,-9.3888,2.801979029949105,-23.233749373646557,-0.3440229999562223,1.0400000000008731
-0.4108,0.9639,0.0464,0.2824,0.293,0.089,1.61,-7.0175,-9.4062,2.7702130172382597,-23.089460540732773,-0.4492855000031966,1.055000000007567
-0.4086,0.9653,0.042,0.2824,0.293,0.089,2.2662,-6.5275,-9.3188,2.563124228769916,-22.952329721861272,-0.4492855000031966,1.055000000007567
-0.4086,0.9653,0.042,0.2821,0.293,0.0964,2.3275,-5.9938,-8.9338,2.5095397915462567,-22.928491568714087,-0.5451862999791235,1.0710000000035507
-0.409,0.9681,0.0405,0.2821,0.293,0.0964,2.3275,-5.9938,-8.9338,2.4244274271128283,-22.893230914122025,-0.5451862999791235,1.0710000000035507
-0.408,0.9731,0.0393,0.2821,0.293,0.0964,1.9688,-4.585,-9.0913,2.343847578576601,-22.760536488987743,-0.6139612999764547,1.0860000000029686
-0.4092,0.9703,0.0393,0.2818,0.2922,0.0853,1.6013,-3.605,-8.6538,2.326976893582384,-22.831756471033973,-0.6139612999764547,1.0860000000029686
-0.4128,0.9692,0.035,0.2818,0.2922,0.0853,1.5488,-2.5025,-8.9425,2.14986865535519,-23.01405404778203,-0.6540012999664038,1.1019999999989523
-0.4128,0.9703,0.0337,0.285,0.2949,0.0811,1.5488,-2.5025,-8.9425,2.039893854007968,-23.030374082656845,-0.6540012999664038,1.1019999999989523
-0.4171,0.9703,0.0337,0.285,0.2949,0.0811,1.4525,-1.54,-8.9775,2.0056828361284613,-23.20770988498526,-0.6786412999714236,1.118000000002212
-0.418,0.9695,0.0339,0.2843,0.2937,0.0965,1.1463,-0.77,-8.7238,2.0037247135298903,-23.2902719055633,-0.6786412999714236,1.118000000002212
-0.4148,0.9717,0.0358,0.2843,0.2937,0.0965,0.8838,0.1575,-9.0562,2.0675271798224437,-23.137414176010836,-0.6762787999703693,1.1330000000089058
-0.4169,0.9742,0.0317,0.2843,0.2937,0.0965,0.8838,0.1575,-9.0562,1.9451409524650738,-23.15345273039239,-0.6762787999703693,1.1330000000089058
-0.4148,0.9753,0.0321,0.2851,0.2926,0.0909,0.0962,0.6212,-8.225,1.9200955962481867,-23.056337506359576,-0.6663395999728643,1.1490000000048894
-0.4148,0.9753,0.0321,0.2851,0.2926,0.0909,-0.2537,1.3388,-7.2625,1.9107241682227694,-23.036670887717154,-0.6663395999728643,1.1490000000048894
-0.4141,0.9762,0.0323,0.285,0.2975,0.086,-0.2537,1.3388,-6.265,1.9065361758755286,-22.998756302969095,-0.6462575999736436,1.1640000000043074
-0.4143,0.9746,0.0335,0.285,0.2975,0.086,-0.0613,2.0125,-6.265,1.9287854165590486,-23.010651611815973,-0.6462575999736436,1.1640000000043074
-0.4166,0.9762,0.0308,0.285,0.2975,0.086,-0.5512,2.2838,-6.3437,1.9210269551470482,-23.067009885779758,-0.6097167999828161,1.180000000000291
-0.4168,0.9751,0.035,0.2834,0.2964,0.0978,-0.9363,2.415,-5.5563,1.953435667698223,-23.097149519280293,-0.5710767999749441,1.1960000000035507
-0.4168,0.9751,0.0365,0.2834,0.2964,0.0978,-0.9363,2.415,-5.5563,1.9992292593354235,-23.112459651404063,-0.5710767999749441,1.1960000000035507
-0.4152,0.9722,0.0365,0.285,0.2928,0.0894,-1.8375,3.15,-5.2413,2.082077061261898,-23.11207957963179,-0.5238267999538584,1.2110000000102445
-0.4123,0.9698,0.0362,0.285,0.2928,0.0894,-1.89,3.1325,-4.9963,2.1132057113135154,-23.088176543721794,-0.5238267999538584,1.2110000000102445
-0.4142,0.9715,0.0376,0.285,0.2928,0.0894,-2.3712,3.2812,-4.7512,2.1789096037308457,-23.08708210186322,-0.47132759996703677,1.2270000000062282
-0.4123,0.9684,0.0447,0.2858,0.2926,0.0876,-2.3712,3.2812,-4.7512,2.474239085911549,-23.083006847518778,-0.47132759996703677,1.2270000000062282
-0.4149,0.9637,0.0433,0.2858,0.2926,0.0876,-2.835,3.1937,-5.0487,2.542030082775951,-23.136349129071515,-0.42342209996889574,1.2420000000056461
-0.4149,0.9637,0.0433,0.2867,0.2932,0.0863,-2.66,2.555,-5.3637,2.5625638814352585,-23.192663317215423,-0.42342209996889574,1.2420000000056461
-0.4172,0.9632,0.0436,0.2867,0.2932,0.0863,-2.695,2.205,-5.53,2.582273489141692,-23.288398885062026,-0.38814209997775173,1.2580000000016298
-0.4177,0.9637,0.0449,0.2867,0.2932,0.0863,-2.695,2.205,-5.53,2.639826383814871,-23.345510730048023,-0.38814209997775173,1.2580000000016298
-0.4173,0.96,0.044,0.2853,0.2938,0.0933,-2.135,1.645,-6.3525,2.6304236634735796,-23.425094405268602,-0.3618220999723896,1.2740000000048894
-0.4197,0.9572,0.0433,0.2853,0.2938,0.0933,-1.3388,0.7875,-6.7638,2.613539455713415,-23.5805460932408,-0.3618220999723896,1.2740000000048894
-0.4197,0.9572,0.0431,0.2858,0.2954,0.0934,-0.6037,0.1575,-7.0262,2.6129947550070582,-23.63255706927755,-0.3594595999724813,1.2890000000043074
-0.4232,0.9548,0.0431,0.2858,0.2954,0.0934,-0.6037,0.1575,-7.0262,2.6125579707645548,-23.80865759644979,-0.3594595999724813,1.2890000000043074
-0.4265,0.9597,0.0441,0.2861,0.2956,0.0858,-0.2537,-0.42,-7.245,2.6174946510180392,-23.90225436138507,-0.3661795999707944,1.305000000000291
-0.4264,0.9597,0.0414,0.2861,0.2956,0.0858,0.1575,-1.2075,-7.5512,2.553063493347789,-23.927398787487572,-0.3661795999707944,1.305000000000291
-0.4336,0.9617,0.0383,0.2861,0.2956,0.0858,0.1575,-2.1437,-7.3763,2.4339506419076464,-24.16481240594006,-0.3983350999851441,1.320000000006985
-0.4343,0.9651,0.0373,0.2865,0.2954,0.0873,0.28,-2.1437,-7.3763,2.3294801042335647,-24.199311173107382,-0.3983350999851441,1.320000000006985
-0.4343,0.9651,0.0373,0.2865,0.2954,0.0873,0.7088,-2.6513,-7.525,2.2632109862047423,-24.20871589489185,-0.4407558999744956,1.3360000000029686
-0.4366,0.9653,0.0372,0.286,0.2948,0.0876,0.9975,-3.1063,-7.8925,2.2284369271504922,-24.294513305662502,-0.4407558999744956,1.3360000000029686
-0.4339,0.9645,0.0312,0.286,0.2948,0.0876,0.9975,-3.1063,-7.8925,1.9963339642219344,-24.230226168941325,-0.490456699984621,1.3520000000062282
-0.4337,0.9669,0.0329,0.286,0.2948,0.0876,0.6913,-3.7887,-8.2163,1.969377482732643,-24.16454499555254,-0.490456699984621,1.3520000000062282
-0.4308,0.9683,0.034,0.2878,0.2978,0.095,1.1287,-4.165,-8.8375,1.9958570489074068,-24.00862809774485,-0.5529316999518923,1.3669999999983702
-0.4308,0.9526,0.0304,0.2878,0.2978,0.095,0.77,-4.4275,-8.8112,1.8981602325826088,-24.26221576274667,-0.5529316999518923,1.3669999999983702
-0.4285,0.9667,0.0304,0.2867,0.2956,0.0898,0.77,-4.4275,-8.8112,1.8417793587163154,-23.966503897937503,-0.6237716999663243,1.3830000000016298
-0.4308,0.9697,0.0292,0.2867,0.2956,0.0898,0.245,-5.3987,-8.4438,1.7875429176041817,-23.948767334065842,-0.6237716999663243,1.3830000000016298
-0.4277,0.9694,0.0343,0.2867,0.2956,0.0898,0.4638,-4.76,-8.6187,1.9117549209106064,-23.82508631227329,-0.6951716999981872,1.3980000000083237
-0.4257,0.9669,0.0364,0.2871,0.2957,0.0927,0.5163,-4.0163,-7.875,2.0416028262889307,-23.76599819958295,-0.6951716999981872,1.3980000000083237
-0.4298,0.9659,0.0342,0.2871,0.2957,0.0927,0.5163,-4.0163,-7.875,2.034288129138081,-23.92505664095186,-0.7594324999820564,1.4140000000043074
-0.4298,0.9659,0.0342,0.2874,0.2971,0.0829,0.245,-4.0075,-7.4812,2.0313019400216232,-23.96155323191778,-0.7594324999820564,1.4140000000043074
-0.4317,0.9657,0.0325,0.2874,0.2971,0.0829,0.7788,-2.8963,-6.8863,1.9707989096824574,-24.039291604104992,-0.8057732999914973,1.430000000007567
-0.4344,0.9661,0.0338,0.2874,0.2971,0.0829,0.1138,-2.9488,-6.5712,1.9847308178171328,-24.14330657471866,-0.8057732999914973,1.430000000007567
-0.4374,0.9681,0.0341,0.2882,0.295,0.0986,0.1138,-2.9488,-6.5712,1.9985211245210206,-24.246729745859678,-0.8500052999683255,1.444999999999709
-0.4393,0.9684,0.0299,0.2882,0.295,0.0986,-0.3762,-3.045,-6.685,1.9535320215391623,-24.342986666540536,-0.8500052999683255,1.444999999999709
-0.4393,0.9528,0.0301,0.2866,0.2961,0.0902,-0.315,-2.835,-6.0813,1.9199116362416713,-24.577330364117046,-0.8953652999775665,1.4610000000029686
-0.4398,0.966,0.0301,0.2866,0.2961,0.0902,0.4638,-2.1175,-5.8975,1.8496216268871555,-24.51695709521255,-0.8953652999775665,1.4610000000029686
-0.4366,0.9667,0.0356,0.2866,0.2967,0.093,0.4638,-2.1175,-5.8975,1.9845061945943112,-24.39195967704015,-0.9292452999844688,1.4770000000062282
-0.4325,0.965,0.035,0.2866,0.2967,0.093,0.21,-2.2487,-5.6262,2.0265174061927356,-24.26161103714003,-0.9292452999844688,1.4770000000062282
-0.4332,0.9626,0.033,0.2866,0.2967,0.093,-0.1138,-2.1962,-5.3288,2.0053419934634196,-24.243527315548313,-0.9643844999756481,1.493000000002212
-0.4304,0.9623,0.035,0.2867,0.2993,0.0923,-0.1138,-1.9512,-5.2587,2.031417089871121,-24.183186231921116,-0.9643844999756481,1.493000000002212
-0.4304,0.9623,0.035,0.2867,0.2993,0.0923,-0.595,-1.9512,-5.2587,2.0326417965116477,-24.145531255127622,-0.9956036999820083,1.5090000000054715
-0.4333,0.9557,0.0362,0.2848,0.2967,0.0867,-0.5163,-1.5838,-4.76,2.0453973318446046,-24.16695296035692,-0.9956036999820083,1.5090000000054715
-0.4352,0.9574,0.0363,0.2848,0.2967,0.0867,0.0525,-1.2163,-4.3663,2.096007418137404,-24.225931446743672,-1.0138481999813003,1.5240000000048894
-0.4392,0.9574,0.032,0.2848,0.2967,0.0867,0.0525,-1.2163,-4.3663,2.0230016802903408,-24.316933319792255,-1.0138481999813003,1.5240000000048894
-0.4365,0.9647,0.031,0.2878,0.2964,0.0883,0.5425,-1.3388,-4.6988,1.9249358495622408,-24.31764371544395,-1.0352689999759233,1.5400000000008731
-0.4365,0.9647,0.0298,0.2878,0.2964,0.0883,0.595,-1.82,-4.8913,1.8396018114537172,-24.320980019849404,-1.0352689999759233,1.5400000000008731
-0.4361,0.964,0.0298,0.2864,0.2954,0.0888,0.3588,-1.7413,-4.2525,1.8054887965141402,-24.323876489460133,-1.0613884999875793,1.555000000007567
-0.4282,0.9671,0.0331,0.2864,0.2954,0.0888,0.3588,-1.7413,-4.2525,1.8820097044269652,-24.19327057476947,-1.0613884999875793,1.555000000007567
-0.4271,0.9698,0.0301,0.2864,0.2954,0.0888,-0.0263,-2.2575,-4.7162,1.8431930129636775,-24.16867271298004,-1.0975084999785125,1.5710000000035507
-0.4267,0.969,0.0296,0.2884,0.2971,0.094,-0.5775,-2.4588,-4.5937,1.8394386941550187,-24.144416337330316,-1.1368492999865274,1.5870000000068103
-0.4254,0.9683,0.032,0.2884,0.2971,0.094,-1.015,-1.9775,-4.305,1.8545666813737605,-24.030367212073333,-1.1368492999865274,1.5870000000068103
-0.4254,0.9683,0.032,0.2865,0.2959,0.0874,-1.015,-1.9775,-4.305,1.8654058408214138,-23.94596309251608,-1.1665117999709882,1.6019999999989523
-0.4261,0.962,0.0313,0.2865,0.2959,0.0874,-1.4262,-1.82,-4.5763,1.864572629309271,-23.94099482295819,-1.1737917999857135,1.6060000000070431
-0.4278,0.9576,0.0288,0.2865,0.2959,0.0874,-1.1287,-2.03,-4.8125,1.816681239563041,-23.957439537199125,-1.1737917999857135,1.6060000000070431
-0.4273,0.9608,0.034,0.2856,0.2958,0.0961,-0.7437,-1.61,-4.4887,1.83991246914268,-23.9582389935089,-1.199551799979247,1.6220000000030268
-0.4299,0.9632,0.0315,0.2856,0.2958,0.0961,-0.7437,-1.61,-4.4887,1.8435841526200127,-23.970113395331676,-1.199551799979247,1.6220000000030268
-0.4299,0.9632,0.0317,0.2858,0.2959,0.0879,-0.3325,-1.9075,-4.3137,1.8528128035383655,-23.98816056133518,-1.2281642999781368,1.6370000000024447
-0.4303,0.9645,0.0317,0.2858,0.2959,0.0879,0.315,-1.3475,-4.83,1.8671280494707896,-23.994644163994412,-1.2281642999781368,1.6370000000024447
-0.428,0.9656,0.0302,0.2878,0.2954,0.0846,0.0875,-1.2513,-4.6112,1.8357648207681625,-23.99034355526148,-1.2481850999822155,1.6530000000057044
-0.4274,0.9682,0.032,0.2878,0.2954,0.0846,0.0875,-1.2513,-4.6112,1.8594647304987548,-23.98244035579271,-1.2481850999822155,1.6530000000057044
-0.4261,0.9721,0.034,0.2878,0.2954,0.0846,-0.4025,-1.9075,-4.7512,1.8850676092732745,-23.954159063873682,-1.290150099976886,1.6750000000029104
-0.4237,0.9745,0.0335,0.287,0.2932,0.0906,-0.6388,-1.9075,-4.6813,1.8866685954880809,-23.942718078714318,-1.2977800999784403,1.6790000000037253
-0.4237,0.9745,0.0335,0.287,0.2932,0.0906,-0.6388,-1.9075,-4.83,1.8882389919502016,-23.87516341987737,-1.2977800999784403,1.6790000000037253
-0.4196,0.9701,0.0338,0.2875,0.2963,0.0892,-1.435,-1.4612,-4.83,1.9364157366867187,-23.80147141028178,-1.3196980999775898,1.6940000000031432
-0.4208,0.9669,0.0329,0.2875,0.2963,0.0892,-1.4963,-1.505,-5.11,1.9422065864625897,-23.709495341278483,-1.3196980999775898,1.6940000000031432
-0.4204,0.9664,0.0388,0.2875,0.2963,0.0892,-2.1525,-1.19,-4.7425,2.1582328976637,-23.692298199991242,-1.3387380999728105,1.7099999999991269
-0.4188,0.9622,0.0368,0.2853,0.2964,0.0953,-2.1525,-1.19,-4.7425,2.1776102633617556,-23.677493264375922,-1.3387380999728105,1.7099999999991269
-0.4188,0.9622,0.0384,0.2853,0.2964,0.0953,-2.4588,-0.735,-4.725,2.247424839010388,-23.666363361652763,-1.3497630999777304,1.7250000000058208
-0.4191,0.9595,0.0384,0.2877,0.2968,0.0916,-2.38,-0.945,-4.795,2.275727539647433,-23.65564536045703,-1.3497630999777304,1.7250000000058208
-0.4187,0.9581,0.0381,0.2877,0.2968,0.0916,-2.1437,-0.5425,-5.1275,2.276638315829828,-23.634374518833543,-1.3584430999794987,1.7410000000090804
-0.4191,0.9579,0.0406,0.2877,0.2968,0.0916,-2.1437,-0.5425,-5.1275,2.3674323148080374,-23.62702914260567,-1.3584430999794987,1.7410000000090804
-0.4174,0.9584,0.0414,0.2854,0.2958,0.103,-2.0912,-0.2362,-5.1363,2.43057107740888,-23.590505018392573,-1.36222229997855,1.757000000005064
-0.42,0.959,0.0379,0.2854,0.2958,0.103,-1.5488,-0.6037,-5.4163,2.34993000271727,-23.609671586128805,-1.36222229997855,1.757000000005064
-0.42,0.959,0.0379,0.2873,0.2945,0.0898,-1.2862,-0.1312,-5.3375,2.31521959689296,-23.61988972925977,-1.3641902999784736,1.772000000004482
-0.4219,0.9603,0.0397,0.2873,0.2945,0.0898,-1.2862,-0.1312,-5.3375,2.3360681209230916,-23.652304774176127,-1.3641902999784736,1.772000000004482
-0.4232,0.9598,0.042,0.2873,0.2945,0.0898,-0.9712,-0.1663,-5.4075,2.380199072411471,-23.7043671914859,-1.3668510999778056,1.7880000000004657
-0.4224,0.9637,0.0428,0.2878,0.2938,0.0869,-0.8487,0.0175,-5.1712,2.4105668915922016,-23.685072057614207,-1.3668510999778056,1.7880000000004657
-0.4243,0.9671,0.0383,0.2878,0.2938,0.0869,-1.0063,-0.0613,-5.2325,2.370760484432816,-23.680365690614504,-1.367770599978216,1.8030000000071595
-0.4243,0.9671,0.0446,0.2871,0.2954,0.092,-1.0063,-0.0613,-5.2325,2.446007110277335,-23.675233506451317,-1.367770599978216,1.8030000000071595
-0.4227,0.9706,0.0446,0.2871,0.2954,0.092,-1.7413,-0.0437,-4.76,2.5437916463662367,-23.659811310067358,-1.3684697999780404,1.8190000000031432
-0.4228,0.9667,0.0447,0.2871,0.2973,0.0915,-1.9162,-0.4375,-4.7688,2.602324841230255,-23.65379913093387,-1.3684697999780404,1.8190000000031432
-0.4224,0.9609,0.0434,0.2874,0.2973,0.0915,-2.1788,-0.2887,-4.9262,2.5924166225586105,-23.665365633044036,-1.3730889999789815,1.8350000000064028
-0.4305,0.9584,0.0408,0.2874,0.2973,0.0915,-2.1788,-0.2887,-4.9262,2.4981265393335383,-23.772550969800488,-1.3774194999788134,1.8500000000058208
-0.4329,0.9607,0.0461,0.2869,0.297,0.093,-1.2513,-0.56,-5.3025,2.594610065350403,-23.952948033099453,-1.381899499979726,1.8580000000074506
-0.4329,0.9607,0.0461,0.2869,0.297,0.093,-1.05,-0.9975,-5.3113,2.640568159726327,-24.06342862611596,-1.389879499974094,1.8660000000018044
-0.4321,0.9624,0.0454,0.2866,0.2961,0.0871,-1.05,-0.9975,-5.5912,2.6587159262306796,-24.107879593445716,-1.3978594999757197,1.8740000000034343
-0.434,0.9643,0.0453,0.2866,0.2961,0.0871,-0.84,-1.0762,-5.5912,2.6643012853362102,-24.155933991546927,-1.4064690999774736,1.882000000005064
-0.4358,0.9681,0.0437,0.2866,0.2961,0.0871,-1.0325,-1.1463,-5.88,2.640991259426075,-24.18764277906511,-1.4110542999784077,1.886000000005879
-0.4337,0.9688,0.0478,0.287,0.2963,0.0821,-0.84,-1.575,-5.4163,2.6741934519930832,-24.145706217706646,-1.4110542999784077,1.886000000005879
-0.4337,0.9688,0.0321,0.287,0.2963,0.0821,-0.84,-1.575,-5.4163,2.5338216344742066,-24.128031397557496,-1.436254299972082,1.9020000000018626
-0.4334,0.966,0.0453,0.2862,0.2953,0.0893,-1.0938,-1.2687,-5.0138,2.582432915394363,-24.1312094275432,-1.436254299972082,1.9020000000018626
-0.435,0.9644,0.0426,0.2862,0.2953,0.0893,-1.4787,-1.3125,-4.9175,2.5578553211729544,-24.157307563378865,-1.455941799971318,1.9170000000012806
-0.4361,0.9628,0.0461,0.2862,0.2953,0.0893,-0.8138,-1.3737,-4.8125,2.5877221839133377,-24.18247047929432,-1.455941799971318,1.9170000000012806
-0.4319,0.9615,0.0487,0.2874,0.2979,0.0898,-0.8138,-1.3737,-4.8125,2.638493199580702,-24.179691025438625,-1.4779209999757958,1.9330000000045402
-0.4269,0.9606,0.0468,0.2874,0.2979,0.0898,-0.4988,-1.8988,-4.8562,2.6547049849755986,-24.139019329885635,-1.4779209999757958,1.9330000000045402
-0.4269,0.9606,0.0468,0.2867,0.2946,0.0929,-0.9275,-2.1263,-5.2937,2.68639365323493,-24.059840594079354,-1.5119417999827267,1.9490000000077998
-0.4296,0.9604,0.0464,0.2867,0.2946,0.0929,-1.1463,-1.3475,-5.0575,2.7138639614332694,-24.06410511240583,-1.5119417999827267,1.9490000000077998
-0.4314,0.9594,0.0467,0.2867,0.2946,0.0929,-1.1463,-1.3475,-5.0575,2.7390159100202243,-24.09901300858042,-1.5335017999773146,1.9650000000037835
-0.4282,0.9611,0.0508,0.2868,0.297,0.093,-1.4525,-1.645,-4.8562,2.8692755450952054,-24.079973776330583,-1.5335017999773146,1.9650000000037835
-0.4253,0.9606,0.0511,0.2868,0.297,0.093,-1.1375,-1.1812,-5.0138,2.9292639033298555,-24.01969896355457,-1.552400999981165,1.9810000000070431
-0.4253,0.9606,0.0355,0.2874,0.2959,0.0891,-1.0762,-1.3125,-4.8825,2.674368759981417,-23.991451816155234,-1.552400999981165,1.9810000000070431
-0.4237,0.9614,0.0466,0.2874,0.2959,0.0891,-1.0762,-1.3125,-4.8825,2.7059301916841636,-23.948529713922223,-1.572088499980401,1.996000000006461
-0.4232,0.9645,0.0481,0.267,0.297,0.0938,-0.91,-0.7437,-4.9612,2.739502377326634,-23.882167806868527,-1.572088499980401,1.996000000006461
-0.4211,0.9621,0.0464,0.2865,0.297,0.0938,-0.4638,-0.6475,-5.46,2.7424108072682154,-23.762670220132094,-1.5824484999778003,2.0120000000024447
-0.42,0.9656,0.0455,0.2865,0.297,0.0938,1.7763,-0.0787,-5.3288,2.7109635895711666,-23.650616756682304,-1.5824484999778003,2.0120000000024447
-0.4202,0.9667,0.0489,0.288,0.2954,0.0969,0.175,-0.0787,-5.3288,2.7927916353439053,-23.576624281334126,-1.5837076999780568,2.0280000000057044
-0.4202,0.9667,0.0489,0.288,0.2954,0.0969,-0.5863,-0.3588,-5.2675,2.796084601035261,-23.53488795578575,-1.5837076999780568,2.0280000000057044
-0.4207,0.9639,0.0452,0.288,0.296,0.0889,-0.7962,0.1925,-5.11,2.7793582688290144,-23.541506973513716,-1.5808201999781688,2.0430000000051223
-0.4237,0.9651,0.046,0.288,0.296,0.0889,-0.7962,0.1925,-5.11,2.7717670640973058,-23.584300174421408,-1.5808201999781688,2.0430000000051223
-0.425,0.9676,0.0481,0.288,0.296,0.0889,-0.4988,0.4812,-4.9525,2.7797370324364907,-23.60767048897681,-1.5731209999766003,2.059000000008382
-0.4236,0.9661,0.0454,0.2873,0.2958,0.0931,-0.5688,0.7175,-4.9525,2.7754466988226723,-23.617913300099488,-1.5731209999766003,2.059000000008382
-0.4236,0.9661,0.0454,0.2873,0.2958,0.0931,-0.42,0.5425,-5.25,2.761333133265917,-23.6307934545141,-1.564983499976916,2.0740000000078
-0.4245,0.9656,0.0435,0.2863,0.2967,0.0893,-0.42,0.5425,-5.25,2.731099146537511,-23.66030459905317,-1.564983499976916,2.0740000000078
-0.4288,0.9643,0.0468,0.2863,0.2967,0.0893,-0.595,0.56,-5.1887,2.7322254129506263,-23.760441384888555,-1.5213034999802408,2.1520000000018626
-0.4321,0.9628,0.0494,0.2863,0.2967,0.0893,-1.3737,0.07,-5.2587,2.8203620123859507,-23.903965227754266,-1.5201834999800126,2.1680000000051223
-0.4377,0.959,0.0472,0.2879,0.2952,0.0776,-1.0588,0.2187,-5.5388,2.8195511911535016,-24.186393085517636,-1.5201834999800126,2.1680000000051223
-0.4398,0.9622,0.0438,0.2879,0.2952,0.0776,-1.0588,0.2187,-5.5388,2.7544580493603177,-24.352947450863166,-1.5201834999800126,2.1680000000051223
-0.4398,0.9622,0.0438,0.2866,0.2959,0.0888,-1.2862,-0.6913,-5.6,2.695200993156935,-24.444575277632488,-1.531244299982266,2.184000000008382
-0.4358,0.9595,0.0503,0.2866,0.2959,0.0888,-1.7587,-1.295,-5.6,2.8579965616160004,-24.421823791243842,-1.531244299982266,2.184000000008382
-0.4377,0.9579,0.0473,0.2866,0.2959,0.0888,-0.8925,-2.3012,-5.9325,2.8513251127809642,-24.48306814561487,-1.531244299982266,2.184000000008382
-0.4361,0.9588,0.0468,0.2877,0.2965,0.0949,-0.8925,-2.3012,-5.9325,2.839121136845153,-24.4545627868195,-1.531244299982266,2.184000000008382
-0.4327,0.9591,0.0493,0.2877,0.2965,0.0949,-0.7788,-2.5638,-6.2475,2.853346888478408,-24.331579102144367,-1.531244299982266,2.184000000008382
-0.4327,0.9591,0.0493,0.287,0.2986,0.093,-0.8575,-2.695,-5.8975,2.870505879694053,-24.28877598909571,-1.531244299982266,2.184000000008382
-0.4303,0.9584,0.0505,0.287,0.2986,0.093,-0.8575,-3.2638,-5.6262,2.8985394499403676,-24.22012073412571,-1.531244299982266,2.184000000008382
-0.4296,0.9575,0.0499,0.287,0.297,0.0958,-0.8575,-3.2638,-5.6262,2.914837254520544,-24.17833707781357,-1.5802012999566188,2.199000000000524
-0.4276,0.9571,0.0496,0.2865,0.297,0.0958,-0.8487,-2.7562,-5.635,2.92449478229686,-24.112323436517386,-1.5802012999566188,2.199000000000524
-0.4249,0.9574,0.054,0.2865,0.297,0.0958,-0.6125,-2.6862,-5.5825,2.926552453728362,-24.009370238168785,-1.5802012999566188,2.199000000000524
-0.4243,0.9558,0.0531,0.2874,0.2988,0.0945,-0.6125,-0.4462,-5.5475,2.92826835651616,-23.96005946912219,-1.5802012999566188,2.199000000000524
-0.4243,0.9558,0.0531,0.2874,0.2988,0.0945,-0.665,-2.1437,-5.5475,2.939257474388831,-23.93398667632781,-1.6145004999636066,2.2150000000037835
-0.4239,0.9562,0.0512,0.2863,0.2954,0.0923,0.1925,-1.61,-5.4687,2.9955951306082813,-23.908963454679682,-1.6145004999636066,2.2150000000037835
-0.4245,0.9598,0.0537,0.2863,0.2954,0.0923,-0.35,-1.6013,-5.705,3.0394557172316343,-23.8663544889393,-1.6385199999626745,2.2300000000032014
-0.4246,0.9578,0.0498,0.2863,0.2954,0.0923,-0.35,-1.6013,-5.705,3.0260693845647277,-23.87304831627952,-1.6385199999626745,2.2300000000032014
-0.4302,0.9571,0.043,0.288,0.2971,0.0882,0.5688,-0.8575,-5.7312,2.779743546235495,-24.03284887018562,-1.6522399999654696,2.246000000006461
-0.4302,0.9571,0.043,0.288,0.2971,0.0882,0.9275,-1.1025,-5.915,2.653824642291245,-24.115691820132685,-1.6522399999654696,2.246000000006461
-0.433,0.9659,0.0462,0.2893,0.2965,0.0902,0.9275,-1.61,-6.3263,2.705209752471986,-24.119403205335033,-1.6779999999707176,2.2620000000097207
-0.4285,0.9693,0.044,0.2893,0.2965,0.0902,0.9275,-1.61,-6.3263,2.6407493374229962,-23.936549181709566,-1.6779999999707176,2.2620000000097207
-0.4291,0.9659,0.0418,0.2893,0.2965,0.0902,0.7262,-1.3212,-6.3,2.547369455147165,-23.934498366628564,-1.6978179999603356,2.2770000000018626
-0.4295,0.9721,0.0448,0.2884,0.298,0.0938,0.0962,-1.0675,-6.4225,2.5854432121175215,-23.8579902982014,-1.6978179999603356,2.2770000000018626
-0.4291,0.9737,0.0436,0.2884,0.298,0.0938,-0.035,-1.1287,-5.88,2.5774822158441903,-23.804861015252797,-1.7158771999640148,2.2930000000051223
-0.4291,0.9737,0.0436,0.2886,0.2992,0.092,-0.035,-1.1287,-5.88,2.572457352654641,-23.780969510612433,-1.7158771999640148,2.2930000000051223
-0.4276,0.972,0.0429,0.2886,0.2992,0.092,-0.4638,-1.6888,-6.0287,2.566360147353432,-23.748591957507564,-1.7412091999630317,2.30800000000454
-0.4272,0.9679,0.0428,0.2886,0.2992,0.092,-0.6125,-1.6625,-6.5887,2.566126945236039,-23.778817594879285,-1.7412091999630317,2.30800000000454
-0.4297,0.9603,0.0479,0.2873,0.2972,0.0937,-0.315,-1.3125,-6.6937,2.6336569669581125,-23.98103491127222,-1.76220919996731,2.3240000000078
-0.4324,0.9568,0.0456,0.2873,0.2972,0.0937,-0.315,-1.3125,-6.6937,2.6558058285419226,-24.19158653926783,-1.76220919996731,2.3240000000078
-0.4324,0.9568,0.0456,0.2886,0.2986,0.0915,-0.42,-1.225,-6.7463,2.6679016984107604,-24.26148368749733,-1.781809199971303,2.3400000000110595
-0.4344,0.9555,0.0458,0.2886,0.2986,0.0915,-0.315,-1.2687,-6.6675,2.68571726381705,-24.369536423360348,-1.781809199971303,2.3400000000110595
-0.4357,0.9593,0.0448,0.2886,0.2986,0.088,0.4988,-1.0412,-6.0637,2.679432366621355,-24.389311772589085,-1.7974271999631213,2.3550000000032014
-0.4344,0.9642,0.0467,0.2899,0.2972,0.088,0.4988,-1.0412,-6.0637,2.72876876526705,-24.29489548862474,-1.7974271999631213,2.3550000000032014
-0.4329,0.9634,0.046,0.2899,0.2972,0.088,0.8313,-0.91,-6.0375,2.7316626324165436,-24.223724558836004,-1.8119871999660875,2.371000000006461
-0.4371,0.9675,0.0466,0.2885,0.297,0.0945,0.5075,-0.875,-6.5363,2.7453736870010355,-24.265515214295313,-1.8119871999660875,2.371000000006461
-0.4371,0.9675,0.0466,0.2885,0.297,0.0945,0.5075,-0.875,-6.4662,2.7518204235080064,-24.279832952584215,-1.8251121999655782,2.386000000005879
-0.4386,0.9671,0.0485,0.289,0.2981,0.0875,0.2275,-0.8925,-6.4662,2.8064559117024577,-24.33676879971657,-1.8251121999655782,2.386000000005879
-0.4374,0.9637,0.0456,0.289,0.2981,0.0875,-0.1925,-1.1287,-6.0988,2.7773267192726654,-24.367048986106983,-1.8431713999692574,2.4020000000091386
-0.4443,0.9622,0.0399,0.289,0.2981,0.0875,-0.2187,-1.6975,-6.265,2.662120273142866,-24.613447949779694,-1.8431713999692574,2.4020000000091386
-0.4416,0.9619,0.0423,0.2886,0.299,0.0819,-0.2187,-1.6975,-6.265,2.6208934817995857,-24.628877184235044,-1.8703313999624396,2.4180000000051223
-0.4416,0.9619,0.0423,0.2886,0.299,0.0819,-0.5337,-2.0387,-6.4488,2.612777372542711,-24.635033514718454,-1.9009118999612529,2.43300000000454
-0.4397,0.9584,0.0462,0.2884,0.2974,0.09,-0.35,-2.4413,-6.2387,2.6439777972405394,-24.625685052234818,-1.9009118999612529,2.43300000000454
-0.4398,0.9584,0.0395,0.2884,0.2974,0.09,-0.0875,-2.7213,-6.0813,2.545414431314611,-24.629092009187953,-1.9444526999701233,2.4490000000078
-0.4368,0.9595,0.0419,0.2884,0.2974,0.09,-0.0875,-2.7213,-6.0813,2.529798925253168,-24.527502192526608,-1.9444526999701233,2.4490000000078
-0.434,0.9585,0.0495,0.2907,0.2985,0.0878,-0.3413,-2.5638,-5.1188,2.6225823914966897,-24.4656455736038,-1.982909699949977,2.463999999999942
-0.4324,0.9581,0.041,0.2907,0.2985,0.0878,-0.455,-2.345,-4.6988,2.5982772784489647,-24.457676119230083,-1.982909699949977,2.463999999999942
-0.4324,0.9581,0.041,0.2882,0.2993,0.089,-0.5163,-3.0013,-4.445,2.584462416275774,-24.42503100283526,-2.03093049995976,2.4800000000032014
-0.4291,0.9614,0.0439,0.2882,0.2993,0.089,-0.5163,-3.0013,-4.445,2.5872638557296623,-24.356203374981046,-2.03093049995976,2.4800000000032014
-0.4277,0.9631,0.0443,0.2882,0.2993,0.089,-0.1225,-2.2138,-4.305,2.6026419320411933,-24.243580273166625,-2.0663512999508686,2.495999999999185
-0.426,0.9624,0.0412,0.29,0.2982,0.0844,-0.5163,-1.8463,-4.3137,2.5885081645270396,-24.144911875138593,-2.0663512999508686,2.495999999999185
-0.4283,0.96,0.0398,0.29,0.2982,0.0844,-0.42,-1.6187,-4.2962,2.55286266004684,-24.113311699802544,-2.090631799961704,2.511000000005879
-0.4283,0.96,0.0398,0.2882,0.2976,0.0834,-0.42,-1.6187,-4.2962,2.523141255618668,-24.09007673804366,-2.090631799961704,2.511000000005879
-0.4263,0.9626,0.0407,0.2882,0.2976,0.0834,0.2013,-0.84,-4.6287,2.477147146510998,-24.084123246749346,-2.104071799964442,2.5270000000091386
-0.4252,0.9636,0.0415,0.2882,0.2976,0.0834,-0.1925,-0.9275,-4.9525,2.4738339231393693,-24.016999892547023,-2.104071799964442,2.5270000000091386
-0.4235,0.9622,0.041,0.2877,0.301,0.093,-0.1925,-1.3038,-4.9963,2.4636937624496493,-23.945924514030978,-2.1236287999541967,2.5420000000012806
-0.4266,0.9659,0.0396,0.2877,0.301,0.093,-0.2362,-1.3038,-4.9963,2.431563640003444,-23.91178193907191,-2.1236287999541967,2.5420000000012806
-0.4266,0.9614,0.0397,0.2893,0.2987,0.0937,-0.77,-1.19,-5.5563,2.4227982192042536,-23.910988492342952,-2.142668799958076,2.55800000000454
-0.4298,0.9614,0.0397,0.2893,0.2987,0.0937,-1.0412,-0.9712,-6.0025,2.405538039680288,-24.001743201196703,-2.142668799958076,2.55800000000454
-0.4348,0.959,0.0404,0.2883,0.2977,0.0925,-1.0412,-0.9712,-6.0025,2.4075399921895566,-24.212998009380875,-2.158207999954175,2.574000000000524
-0.434,0.9581,0.0413,0.2883,0.2977,0.0925,-0.7262,-1.0063,-5.4338,2.4134042346451423,-24.27274633708903,-2.158207999954175,2.574000000000524
-0.4338,0.9623,0.043,0.2883,0.2977,0.0925,-0.7262,-1.47,-5.5213,2.4274181470556684,-24.259510170531513,-2.180257999964015,2.5890000000072177
-0.4294,0.9621,0.0418,0.2889,0.2979,0.0942,-0.6737,-1.2425,-5.4338,2.4305294116405824,-24.159919047284458,-2.180257999964015,2.5890000000072177
-0.4294,0.9621,0.0418,0.2889,0.2979,0.0942,-0.6737,-1.2425,-5.4338,2.433480214515937,-24.10389258691008,-2.200137999968065,2.6050000000104774
-0.4305,0.9645,0.0387,0.2896,0.2978,0.0891,-0.98,-1.3212,-5.7312,2.397495776022807,-24.068834218130114,-2.200137999968065,2.6050000000104774
-0.428,0.9658,0.0456,0.2896,0.2978,0.0891,-1.0588,-1.4088,-5.3463,2.4908279778617257,-23.990584207037088,-2.2212699999569945,2.6200000000026193
-0.4293,0.9651,0.0479,0.2896,0.2978,0.0891,-0.7962,-1.435,-5.565,2.543514464970168,-23.973404920859274,-2.2212699999569945,2.6200000000026193
-0.429,0.9637,0.04,0.2887,0.2994,0.0936,-0.7962,-1.435,-5.565,2.518457222298833,-23.975766599158224,-2.244229999961672,2.636000000005879
-0.429,0.9618,0.0452,0.2887,0.2994,0.0936,-1.6275,-1.12,-5.5388,2.604903245819793,-23.994261106081506,-2.244229999961672,2.636000000005879
-0.4299,0.9618,0.0452,0.289,0.2994,0.0911,-1.575,-1.2513,-5.7225,2.646804000418801,-24.02812570925414,-2.2642507999566464,2.6520000000018626
-0.4295,0.9589,0.0507,0.289,0.2994,0.0911,-1.05,-1.26,-6.0287,2.7611303205552176,-24.068674036197322,-2.2642507999566464,2.6520000000018626
-0.4323,0.9557,0.0478,0.289,0.2994,0.0911,-1.05,-1.26,-6.0287,2.791887260149585,-24.209559136839285,-2.283150799965081,2.6670000000085565
-0.4315,0.9559,0.0447,0.288,0.2986,0.0952,-0.8575,-1.2775,-6.5188,2.7698502024934766,-24.249728325771994,-2.283150799965081,2.6670000000085565
-0.435,0.9576,0.0461,0.288,0.2986,0.0952,-0.5688,-1.4438,-6.5538,2.7691917693750487,-24.35171900049105,-2.306251599959282,2.68300000000454
-0.435,0.9576,0.0461,0.2909,0.2959,0.0932,-0.175,-1.7062,-6.4488,2.7651824297796948,-24.386220207472597,-2.306251599959282,2.68300000000454
-0.4346,0.9595,0.0464,0.2909,0.2959,0.0932,-0.175,-1.7062,-6.4488,2.766228340831723,-24.358307128609226,-2.3318445999582886,2.698000000003958
-0.4349,0.9612,0.0459,0.2909,0.2959,0.0932,-0.07,-1.5838,-6.3963,2.7547865458517355,-24.33406077710426,-2.3318445999582886,2.698000000003958
-0.4334,0.9625,0.0449,0.2879,0.2983,0.0862,-0.385,-2.2575,-6.1512,2.7388568745186626,-24.264548693577026,-2.367964599965647,2.7140000000072177
-0.4318,0.9647,0.0497,0.2879,0.2983,0.0862,-0.385,-2.2575,-5.88,2.778786348617337,-24.165740508005268,-2.367964599965647,2.7140000000072177
-0.4318,0.9631,0.0468,0.2898,0.2993,0.0905,-0.2013,-2.1263,-5.88,2.779730864395798,-24.142535960153765,-2.4019853999571072,2.7300000000032014
-0.4333,0.9631,0.0468,0.2898,0.2993,0.0905,0.1225,-1.9075,-5.8362,2.7806931560488835,-24.17243522093579,-2.4019853999571072,2.7300000000032014
-0.4343,0.9612,0.0426,0.291,0.3004,0.0947,-0.3762,-2.1613,-6.0287,2.733163471920461,-24.242669376310133,-2.434404899955849,2.7450000000026193
-0.4328,0.9606,0.0457,0.291,0.3004,0.0947,-0.3762,-2.1613,-6.0287,2.7313245081091173,-24.235213596271784,-2.434404899955849,2.7450000000026193
-0.4329,0.959,0.0473,0.291,0.3004,0.0947,-0.2013,-2.24,-5.9588,2.758546112549408,-24.254152497171354,-2.4702448999468527,2.760999999998603
-0.4311,0.9585,0.0448,0.2886,0.3003,0.0886,-0.315,-2.17,-5.7838,2.7392959502914143,-24.22183897184616,-2.5027948999613785,2.776000000005297
-0.4311,0.9585,0.0448,0.2886,0.3003,0.0886,-0.8313,-2.4237,-6.2213,2.7282322547424647,-24.20435361326903,-2.5027948999613785,2.776000000005297
-0.4351,0.9582,0.0474,0.2895,0.2994,0.0938,-0.8313,-2.4237,-6.2213,2.7463789253702307,-24.320998044509707,-2.541574099969279,2.7920000000085565
-0.4349,0.9601,0.0497,0.2895,0.2994,0.0938,-0.2887,-2.0125,-6.4575,2.8002766492758293,-24.333520097946057,-2.541574099969279,2.7920000000085565
-0.4384,0.9609,0.0431,0.2895,0.2994,0.0938,-0.35,-1.6712,-6.6588,2.7510376229273734,-24.44627660333813,-2.5683132999625666,2.80800000000454
-0.4385,0.9603,0.0464,0.2886,0.2984,0.0919,-0.1225,-2.1,-6.9825,2.7560966503463122,-24.496116187434627,-2.5683132999625666,2.80800000000454
-0.4385,0.962,0.0451,0.2886,0.2984,0.0919,-0.1225,-2.1,-6.9825,2.7322151692861527,-24.48538779407152,-2.5998132999613444,2.823000000003958
-0.4399,0.962,0.0451,0.2909,0.2983,0.0914,-0.28,-2.345,-6.9212,2.7200368495487197,-24.530020925188587,-2.5998132999613444,2.823000000003958
-0.4402,0.9616,0.0469,0.2909,0.2983,0.0914,0.0263,-2.1263,-6.37,2.748374829011636,-24.55624505781998,-2.6338340999528045,2.838999999999942
-0.4418,0.9623,0.0418,0.2909,0.2983,0.0914,-0.6388,-2.0563,-6.0287,2.743385133876039,-24.60457078932999,-2.6338340999528045,2.838999999999942
-0.4407,0.9622,0.042,0.2897,0.301,0.0903,-0.6388,-2.0563,-6.0287,2.7387228274290996,-24.594840712231512,-2.664678599966569,2.8540000000066357
-0.4361,0.9633,0.0464,0.2897,0.301,0.0903,-0.7525,-2.3012,-5.5388,2.7409505413515656,-24.47162918992967,-2.664678599966569,2.8540000000066357
-0.4361,0.9633,0.0464,0.2888,0.3,0.092,-0.5425,-1.925,-5.355,2.7421438701160388,-24.414204130639156,-2.695478599972844,2.8700000000098953
-0.4361,0.9614,0.0462,0.2888,0.3,0.092,-0.5425,-1.8375,-5.5475,2.7427919096286657,-24.395557934146442,-2.695478599972844,2.8700000000098953
-0.4366,0.9601,0.0473,0.2888,0.3,0.092,-0.8138,-1.8375,-5.5475,2.75543359243726,-24.410487032967712,-2.724878599965464,2.886000000005879
-0.4365,0.9581,0.047,0.289,0.3004,0.0826,-1.5225,-2.0825,-5.5475,2.780577737174358,-24.437368301244412,-2.724878599965464,2.886000000005879
-0.4363,0.9561,0.0458,0.289,0.3004,0.0826,-1.3825,-1.5838,-5.4513,2.7641132770321573,-24.466876090240287,-2.7502193999706264,2.9020000000091386
-0.4363,0.9569,0.0517,0.2892,0.3006,0.0922,-1.3825,-1.5838,-5.4513,2.9062988577953375,-24.472325711095955,-2.7502193999706264,2.9020000000091386
-0.4387,0.9569,0.0517,0.2892,0.3006,0.0922,-1.0325,-1.3212,-5.915,2.9607704675331736,-24.542319575098237,-2.77135859996532,2.9180000000051223
-0.4382,0.9557,0.0486,0.2897,0.2993,0.0942,-0.63,-1.2163,-6.4313,2.9602460837287476,-24.58177885296567,-2.77135859996532,2.9180000000051223
-0.4385,0.9545,0.0472,0.2897,0.2993,0.0942,-0.7962,-1.3825,-6.055,2.9408163540499648,-24.62019141893336,-2.7920960999645152,2.93300000000454
-0.4399,0.9554,0.0451,0.2897,0.2993,0.0942,-0.7962,-1.3825,-6.055,2.90502288295684,-24.66603063164146,-2.7920960999645152,2.93300000000454
-0.4381,0.9595,0.0481,0.2907,0.3006,0.096,-0.8662,-1.1725,-5.8187,2.898058904089808,-24.584251896516065,-2.810856099968337,2.9490000000078
-0.4381,0.9595,0.0481,0.2907,0.3006,0.096,-0.9538,-1.2425,-6.0813,2.8909887251235324,-24.542911959567235,-2.810856099968337,2.9490000000078
-0.4383,0.9606,0.0495,0.2889,0.3002,0.089,-0.7437,-1.225,-5.0487,2.897500986641976,-24.530101437872457,-2.830456099963417,2.9650000000037835
-0.4411,0.9572,0.047,0.2889,0.3002,0.089,-0.7437,-1.225,-5.0487,2.8879381727642177,-24.5822542173585,-2.830456099963417,2.9650000000037835
-0.4421,0.9588,0.0454,0.2889,0.3002,0.089,-0.14,-1.085,-4.9,2.830600977538812,-24.611193346675535,-2.8467310999627853,2.9800000000032014
-0.4438,0.9637,0.0479,0.2896,0.3007,0.0935,-0.1138,-1.4088,-5.0925,2.835604701665541,-24.638173612099816,-2.8467310999627853,2.9800000000032014
-0.4438,0.9637,0.0464,0.2896,0.3007,0.0935,-0.9013,-1.3388,-5.0312,2.818212823246166,-24.655489566355374,-2.8681518999574083,2.995999999999185
-0.4364,0.9644,0.0464,0.2894,0.2998,0.0921,-0.9013,-1.3388,-5.0312,2.804206982575981,-24.564631510672392,-2.8681518999574083,2.995999999999185
-0.4321,0.9587,0.0531,0.2894,0.2998,0.0921,-1.9688,-1.505,-5.11,3.0144415643018436,-24.459845732412173,-2.8907268999674827,3.011000000005879
-0.4373,0.9617,0.0503,0.2894,0.2998,0.0921,-2.38,-1.4438,-5.2325,3.0014205976983708,-24.446213391467374,-2.8907268999674827,3.011000000005879
-0.4357,0.9632,0.0528,0.2917,0.3014,0.092,-1.435,-1.0762,-5.4075,3.0626242490617805,-24.38657100611316,-2.9079460999709905,3.0270000000091386
-0.4347,0.9603,0.0539,0.2917,0.3014,0.092,-1.435,-1.0762,-5.4075,3.1299742783167974,-24.358463336510475,-2.9079460999709905,3.0270000000091386
-0.4347,0.9603,0.0539,0.2906,0.2989,0.091,-1.8988,-0.63,-5.4075,3.176320685622953,-24.342413486142952,-2.9180260999684604,3.0430000000051223
-0.4353,0.9543,0.0526,0.2906,0.2989,0.091,-1.9775,-1.0325,-5.95,3.1639778094370703,-24.424026254921422,-2.9180260999684604,3.0430000000051223
-0.4402,0.9514,0.0537,0.2906,0.2989,0.091,-1.9775,-1.0325,-6.2737,3.2023057106677597,-24.653046400144316,-2.9335135999678594,3.05800000000454
-0.4427,0.955,0.0525,0.2896,0.2989,0.0926,-1.6275,-1.015,-6.2737,3.1743397821770447,-24.76708759639038,-2.9335135999678594,3.05800000000454
-0.4477,0.9568,0.0548,0.2896,0.2989,0.0926,-0.56,-1.05,-6.8863,3.180144181636028,-24.95519828221647,-2.9503135999636423,3.074000000000524
-0.4477,0.9568,0.0514,0.2899,0.3003,0.0982,-0.2275,-1.6187,-7.0175,3.150548726475056,-25.017489572702534,-2.9503135999636423,3.074000000000524
-0.4421,0.959,0.0514,0.2899,0.3003,0.0982,-0.2275,-1.6187,-7.0175,3.127302794964866,-24.807466143301433,-2.9745940999744778,3.0890000000072177
-0.4436,0.9628,0.0475,0.2899,0.3024,0.1002,-0.07,-1.2687,-7.0788,3.019911357980794,-24.73913794686014,-2.9745940999744778,3.0890000000072177
-0.4425,0.9655,0.0507,0.291,0.3024,0.1002,-0.1138,-1.2425,-6.8775,3.015218447973421,-24.638144259841837,-2.994474099978528,3.1050000000104774
-0.4433,0.9684,0.0497,0.291,0.3024,0.1002,-0.49,-1.365,-6.3175,3.0063694761357733,-24.59445716319703,-2.994474099978528,3.1050000000104774
-0.444,0.9656,0.0545,0.2905,0.3011,0.0928,-0.49,-1.365,-6.3175,3.0320279915817525,-24.634899181808326,-3.016314099973046,3.121000000006461
-0.444,0.9656,0.0545,0.2905,0.3011,0.0928,-0.8925,-1.8112,-6.37,3.0745996251456664,-24.650272640920104,-3.016314099973046,3.121000000006461
-0.4452,0.9611,0.0534,0.2915,0.3012,0.0895,-1.3825,-1.7938,-6.1512,3.1202907805539786,-24.75246309364782,-3.0432210999720017,3.136000000005879
-0.4475,0.9594,0.0523,0.2915,0.3012,0.0895,-1.1375,-2.1613,-5.7838,3.1202905245074817,-24.869637020033274,-3.0432210999720017,3.136000000005879
-0.443,0.9565,0.0553,0.2915,0.3012,0.0895,-1.1375,-2.1613,-5.7838,3.1846554775303764,-24.840484606251813,-3.077801899963321,3.1520000000018626
-0.4411,0.9554,0.0531,0.2914,0.3012,0.0976,-1.2337,-2.3012,-5.705,3.183324718127356,-24.793528798053003,-3.112319899978725,3.1670000000085565
-0.4411,0.9554,0.0531,0.2914,0.3012,0.0976,-1.1025,-2.0213,-5.4338,3.1826190871085074,-24.773943889469088,-3.112319899978725,3.1670000000085565
-0.4406,0.9518,0.0556,0.2892,0.3022,0.0927,-0.3675,-1.68,-5.6525,3.214916106802118,-24.78835443583192,-3.139199899971978,3.18300000000454
-0.4389,0.9543,0.0552,0.2892,0.3022,0.0927,-0.3675,-1.68,-5.6525,3.2341434022416964,-24.725423990859486,-3.139199899971978,3.18300000000454
-0.4386,0.9556,0.0559,0.2892,0.3022,0.0927,-0.4638,-1.3825,-5.46,3.2494446950959235,-24.677123707468294,-3.161319899976484,3.1990000000078
-0.4349,0.9565,0.056,0.2903,0.3028,0.1002,-0.245,-0.7788,-5.2238,3.277012175570629,-24.581621637797024,-3.161319899976484,3.1990000000078
-0.4343,0.9565,0.059,0.2903,0.3028,0.1002,-0.245,-1.0063,-5.0838,3.345840617291198,-24.521100070339273,-3.1764143999758985,3.2140000000072177
-0.4343,0.9565,0.059,0.2912,0.3003,0.0924,-0.6475,-1.0063,-5.0838,3.3508800377233072,-24.47870534344423,-3.1764143999758985,3.2140000000072177
-0.4374,0.9561,0.0534,0.2912,0.3003,0.0924,-0.0962,-0.4112,-4.69,3.297945892487339,-24.481020679602334,-3.182993599974247,3.2300000000032014
-0.4403,0.9559,0.0515,0.2912,0.3003,0.0924,-0.3325,-0.4462,-4.3488,3.25023291366855,-24.532482164985876,-3.182993599974247,3.2300000000032014
-0.4385,0.953,0.0516,0.2908,0.3022,0.0938,-0.3325,-0.4462,-4.3488,3.2165785063659458,-24.5663591396381,-3.1896865999772337,3.2450000000098953
-0.4404,0.9578,0.0536,0.2908,0.3022,0.0938,-0.2537,-0.3325,-4.1213,3.2129488363707597,-24.598702395657913,-3.1896865999772337,3.2450000000098953
-0.4404,0.9578,0.0536,0.2905,0.301,0.0902,0.0088,0.1488,-4.585,3.2091188904243,-24.602722639188492,-3.187305799978914,3.260999999998603
-0.4371,0.9609,0.0509,0.2905,0.301,0.0902,-0.1225,-0.4988,-5.1275,3.150393339741112,-24.54735995984354,-3.187305799978914,3.260999999998603
-0.436,0.9601,0.0516,0.2905,0.301,0.0944,-0.1225,-0.4988,-5.1275,3.125822930184301,-24.497795865890158,-3.1952865999805398,3.2770000000018626
-0.4323,0.9585,0.0542,0.2925,0.3004,0.0944,-0.4988,-0.6825,-5.075,3.137720674949005,-24.422274939539605,-3.1952865999805398,3.2770000000018626
-0.4322,0.9548,0.0508,0.2925,0.3004,0.0944,-0.7962,-0.6825,-4.7512,3.1238667349619105,-24.41374784260416,-3.2055240999851082,3.2920000000085565
-0.4376,0.9556,0.0536,0.2902,0.3026,0.0936,-0.4725,-1.0237,-5.075,3.134942547918531,-24.460021703353576,-3.2055240999851082,3.2920000000085565
-0.4376,0.9556,0.0536,0.2902,0.3026,0.0936,-0.4725,-1.0237,-5.075,3.1446003872470927,-24.49263711170249,-3.2219032999809967,3.30800000000454
-0.4419,0.9548,0.0554,0.2901,0.3022,0.093,-0.1225,-0.525,-5.4425,3.203060273618402,-24.62746218361614,-3.2219032999809967,3.30800000000454
-0.441,0.955,0.0512,0.2901,0.3022,0.093,-0.1925,-0.4988,-5.0575,3.162908174599808,-24.664062138032428,-3.2293852999807062,3.323000000003958
-0.4407,0.9575,0.049,0.2901,0.3022,0.093,0.5425,-0.8838,-5.4075,3.0374963620163857,-24.673615018754617,-3.2293852999807062,3.323000000003958
-0.4399,0.96,0.0548,0.2914,0.3022,0.0904,0.5425,-0.8838,-5.4075,3.160885404753731,-24.634895210817664,-3.2435260999771565,3.338999999999942
-0.4399,0.96,0.0548,0.2914,0.3022,0.0904,0.1925,-1.0675,-5.6613,3.2084717515319143,-24.60906054602649,-3.2435260999771565,3.338999999999942
-0.4419,0.9607,0.053,0.2926,0.302,0.0904,-0.3938,-1.6275,-5.46,3.199128479840077,-24.63546337046046,-3.2695660999824616,3.3550000000032014
-0.4415,0.9617,0.0514,0.2926,0.302,0.0904,-0.805,-2.345,-5.915,3.1772433294682667,-24.63134543932448,-3.2695660999824616,3.3550000000032014
-0.4477,0.9617,0.0482,0.2926,0.302,0.0904,-0.805,-2.345,-5.915,3.12900950002708,-24.801064074008554,-3.3047410999981586,3.3700000000098953
-0.446,0.959,0.0508,0.2924,0.3035,0.095,-0.2537,-2.2138,-6.3525,3.103098263123567,-24.870189226807092,-3.3047410999981586,3.3700000000098953
-0.446,0.9597,0.0509,0.2924,0.3035,0.095,-0.595,-2.6775,-6.6588,3.101504520645192,-24.886668402670697,-3.347581099987405,3.386000000005879
-0.444,0.9597,0.0509,0.2926,0.301,0.0929,-0.595,-2.6775,-8.8988,3.0999486192447767,-24.813871252472982,-3.347581099987405,3.386000000005879
-0.4417,0.955,0.0534,0.2926,0.301,0.0929,-0.4988,-2.9313,-6.7987,3.110756332058905,-24.79562067362052,-3.3915505999856985,3.401000000005297
-0.4394,0.9542,0.0547,0.2926,0.301,0.0929,-0.7175,-2.0825,-6.4575,3.1259691435246877,-24.727659403210595,-3.3915505999856985,3.401000000005297
-0.4407,0.9549,0.0511,0.291,0.3018,0.101,-0.77,-2.3888,-5.4775,3.117746181128485,-24.73450685869962,-3.4297713999761044,3.4170000000012806
-0.4427,0.9564,0.0545,0.291,0.3018,0.101,-0.77,-2.3888,-5.4775,3.136563321203454,-24.76546747176129,-3.4297713999761044,3.4170000000012806
-0.4427,0.9564,0.0545,0.2906,0.3038,0.0855,-0.35,-1.9338,-5.8187,3.1630605003301437,-24.785732825426575,-3.460712199982408,3.43300000000454
-0.4417,0.9547,0.0556,0.2906,0.3038,0.0855,-0.3237,-1.8025,-6.02,3.2018440848882217,-24.788814041468772,-3.460712199982408,3.43300000000454
-0.4411,0.9547,0.0575,0.2906,0.3038,0.0855,-0.35,-1.4525,-5.775,3.25378980297204,-24.773007567238217,-3.4824996999815627,3.448000000003958
-0.4409,0.9544,0.0548,0.2906,0.3029,0.0908,-0.35,-1.4525,-5.775,3.260670008907239,-24.76584072495932,-3.4824996999815627,3.448000000003958
-0.4458,0.9579,0.0537,0.2906,0.3029,0.0908,0.2975,-1.5925,-5.67,3.235788895669334,-24.844742075488046,-3.5079796999867536,3.4640000000072177
-0.4458,0.9579,0.0574,0.2916,0.303,0.0907,-0.07,-1.085,-5.5825,3.304371042747403,-24.879816979244165,-3.5079796999867536,3.4640000000072177
-0.4423,0.9559,0.0574,0.2916,0.303,0.0907,0.42,-0.2625,-5.495,3.3716469900297983,-24.83928249339042,-3.511917199986601,3.4790000000066357
-0.4455,0.9582,0.0541,0.289,0.302,0.095,0.42,-0.2625,-5.495,3.3002175818515584,-24.86720360506678,-3.511917199986601,3.4790000000066357
-0.4484,0.9571,0.0503,0.289,0.302,0.095,0.3938,-0.5775,-5.4775,3.1533520804138186,-24.959860384928326,-3.5211571999842817,3.4950000000026193
-0.4511,0.9587,0.0491,0.289,0.302,0.095,-0.0437,-1.0675,-5.4775,3.072431709092313,-25.0544547853522,-3.5382371999877615,3.511000000005879
-0.4505,0.9584,0.0516,0.2922,0.3007,0.0918,0.3325,-1.2337,-5.6962,3.077007054880461,-25.10018693168213,-3.5382371999877615,3.511000000005879
-0.4505,0.9584,0.0516,0.2922,0.3007,0.0918,0.3325,-1.2337,-5.6962,3.0793511969857823,-25.122604947180346,-3.5567426999870433,3.526000000005297
-0.4505,0.9578,0.0517,0.2913,0.3034,0.0924,0.0,-1.505,-5.6175,3.0833112753612224,-25.139855674098982,-3.5567426999870433,3.526000000005297
-0.4513,0.9582,0.0485,0.2913,0.3034,0.0924,0.0875,-1.6187,-5.0838,3.0064034324752824,-25.155351932336714,-3.5826418999805423,3.5420000000012806
-0.4502,0.9622,0.0513,0.2913,0.3034,0.0924,0.0875,-1.6187,-5.005,3.0252249260539896,-25.126309838655814,-3.5826418999805423,3.5420000000012806
-0.4471,0.9584,0.0561,0.2909,0.3022,0.0898,-0.2975,-2.1788,-5.005,3.104294608258364,-25.086367129013937,-3.615323899995127,3.5570000000079744
-0.4471,0.9584,0.0492,0.2909,0.3022,0.0898,-0.5863,-2.4325,-5.0838,3.0990022956901657,-25.0546561121493,-3.615323899995127,3.5570000000079744
-0.4471,0.9554,0.0492,0.2916,0.3033,0.0926,-0.1925,-2.59,-5.5475,3.0538141347313923,-25.052057262456497,-3.6567638999847247,3.573000000003958
-0.449,0.9581,0.0515,0.2916,0.3033,0.0926,-0.1925,-2.59,-5.5475,3.0606944104706804,-25.064154545839276,-3.6567638999847247,3.573000000003958
-0.4451,0.9559,0.0528,0.2916,0.3033,0.0926,-0.2975,-2.4762,-5.3463,3.0852547271864426,-25.011391279388423,-3.6963830999927962,3.5890000000072177
-0.4432,0.9549,0.0482,0.2909,0.303,0.1003,0.0525,-2.1613,-4.585,3.006645912765687,-25.001971018744243,-3.6963830999927962,3.5890000000072177
-0.4413,0.9565,0.0492,0.2909,0.303,0.1003,-0.2275,-1.4875,-4.62,2.9891672449246185,-24.99275575929293,-3.7186955999811073,3.6039999999993597
-0.4413,0.9565,0.0492,0.2921,0.3024,0.0925,-0.2275,-1.4875,-4.62,2.976609115796615,-24.983862669794863,-3.7186955999811073,3.6039999999993597
-0.4388,0.9553,0.0553,0.2921,0.3024,0.0925,-0.8225,-1.4612,-4.6287,3.03341770061559,-24.97450361117674,-3.74207479998587,3.6200000000026193
-0.4385,0.9553,0.0515,0.2921,0.3024,0.0925,-0.28,-1.6187,-5.0662,3.046692717772933,-24.872726848406465,-3.74207479998587,3.6200000000026193
-0.4436,0.9532,0.0497,0.2922,0.3022,0.089,-0.28,-1.0588,-5.5388,3.030988779138094,-24.897972487967373,-3.7579567999929577,3.6350000000093132
-0.4443,0.9547,0.0523,0.2922,0.3022,0.089,-0.28,-1.0588,-5.5388,3.0574975853118245,-24.90998173548603,-3.7579567999929577,3.6350000000093132
-0.4443,0.9547,0.0523,0.2915,0.3024,0.0884,-0.6913,-0.7,-5.3288,3.0627432311122047,-24.915453400559414,-3.7691567999901463,3.651000000005297
-0.4453,0.9551,0.0517,0.2915,0.3024,0.0884,-0.1663,-0.875,-4.8562,3.073867387272268,-24.923617371057663,-3.7691567999901463,3.651000000005297
-0.4449,0.9587,0.0493,0.2915,0.3027,0.0942,-0.0525,-1.0325,-5.3725,3.0268041036056332,-24.899375874122644,-3.785676799993512,3.6670000000085565
-0.4476,0.9573,0.049,0.2914,0.3027,0.0942,-0.0525,-1.0325,-5.3725,2.991842793482359,-24.954056891634572,-3.785676799993512,3.6670000000085565
-0.4487,0.9598,0.0508,0.2914,0.3027,0.0942,-0.6475,-1.26,-5.4513,2.9928805122572903,-24.985496079455913,-3.804576799983611,3.6820000000006985
-0.444,0.9597,0.0512,0.2912,0.303,0.0931,-0.56,-1.3388,-5.32,2.9962939092435357,-24.910035353782764,-3.804576799983611,3.6820000000006985
-0.444,0.9597,0.0512,0.2912,0.303,0.0931,-0.56,-1.3388,-5.4338,2.9995161591434676,-24.860305735985246,-3.825997599987975,3.698000000003958
-0.4446,0.958,0.0467,0.2905,0.3033,0.0977,-0.3762,-1.4875,-5.4338,2.9586989554515783,-24.86440489676156,-3.825997599987975,3.698000000003958
-0.4421,0.9599,0.0502,0.2905,0.3033,0.0977,-0.4112,-1.435,-5.0662,2.964724512316895,-24.816486806350195,-3.8475225999871396,3.713000000003376
-0.4396,0.9597,0.0522,0.2905,0.3033,0.0977,-0.3675,-1.1025,-4.7075,2.9946253942311833,-24.804883816683205,-3.8475225999871396,3.713000000003376
-0.4427,0.9523,0.0466,0.2916,0.3018,0.0814,-0.3675,-1.1025,-4.7075,2.9557727771101905,-24.809831793005515,-3.8651625999907333,3.7290000000066357
-0.4427,0.9523,0.0466,0.2916,0.3018,0.0814,-0.4025,-1.4963,-4.795,2.9282809894428015,-24.821591776148626,-3.8651625999907333,3.7290000000066357
-0.4458,0.953,0.0472,0.2926,0.3027,0.0932,-0.0787,-1.7938,-5.1887,2.895694122288479,-24.898384896851095,-3.8938633999965804,3.7450000000098953
-0.444,0.9596,0.0481,0.2926,0.3027,0.0932,-0.6037,-1.8637,-5.3812,2.8952920413454635,-24.85798311619996,-3.8938633999965804,3.7450000000098953
-0.4386,0.9553,0.0491,0.2926,0.3027,0.0932,-0.6037,-1.8637,-5.3812,2.8960145798060224,-24.763127348082154,-3.9218188999819352,3.7600000000020373
-0.4356,0.954,0.047,0.2901,0.3012,0.0923,-0.7437,-1.6888,-5.2587,2.887657560980398,-24.66998630635922,-3.9218188999819352,3.7600000000020373
-0.4401,0.9593,0.0501,0.2901,0.3012,0.0923,-0.3938,-1.8375,-5.6087,2.9064150935700286,-24.643051161788627,-3.951218899987925,3.776000000005297
-0.4401,0.9593,0.0501,0.2897,0.3019,0.0924,-0.735,-1.6888,-5.285,2.915038999054579,-24.632134245994273,-3.951218899987925,3.776000000005297
-0.4395,0.9609,0.0545,0.2897,0.3019,0.0924,-0.735,-1.6888,-5.285,2.9493758575558404,-24.598033565049487,-3.976550899986942,3.791000000004715
-0.4398,0.9584,0.0531,0.2897,0.3019,0.0924,-1.0762,-1.1812,-5.1625,3.0189468645546373,-24.604287615424887,-3.976550899986942,3.791000000004715
-0.443,0.9521,0.0525,0.2907,0.3033,0.0813,-1.0938,-1.2687,-5.075,3.0631030807268664,-24.69709407252134,-3.9968500999910774,3.8070000000079744
-0.4496,0.9498,0.0484,0.2907,0.3033,0.0813,-0.2975,-1.6013,-5.4425,3.027570764785728,-24.96354145609758,-3.9968500999910774,3.8070000000079744
-0.4496,0.9498,0.0484,0.2916,0.3023,0.097,-0.2975,-1.6013,-5.4425,3.0006894276446636,-25.112705320510372,-4.022470899984646,3.823000000003958
-0.4488,0.9508,0.0495,0.2916,0.3023,0.097,0.0962,-1.6625,-5.6,2.9921473910394973,-25.173780712262076,-4.022470899984646,3.823000000003958
-0.4478,0.9547,0.0533,0.2916,0.3023,0.097,0.5337,-1.4,-6.0725,3.1010244528732884,-25.127350021129814,-4.043470899983832,3.838000000003376
-0.4455,0.959,0.0528,0.2911,0.301,0.0948,0.5337,-1.05,-6.0375,3.1279874868056248,-24.98615878258103,-4.043470899983832,3.838000000003376
-0.4466,0.9623,0.048,0.2911,0.301,0.0948,0.6125,-1.05,-6.0375,2.97763345373046,-24.918010772116197,-4.0602708999872545,3.8540000000066357
-0.4466,0.9668,0.0529,0.2919,0.3009,0.0845,0.8575,-1.0938,-5.8538,3.0696198856333194,-24.832633065999342,-4.07667789997866,3.8689999999987776
-0.4448,0.9668,0.0529,0.2919,0.3009,0.0845,0.4812,-1.2425,-5.2937,3.10225365352246,-24.770662463160022,-4.07667789997866,3.8689999999987776
-0.4485,0.9652,0.0487,0.2914,0.303,0.0925,0.4812,-1.2425,-5.2937,2.9902405085082644,-24.8190986949388,-4.0965578999827095,3.8850000000020373
-0.4488,0.9637,0.0487,0.2914,0.303,0.0925,-0.6737,-1.61,-5.5912,2.985222642717854,-24.8792981152052,-4.0965578999827095,3.8850000000020373
-0.4501,0.9607,0.0443,0.2914,0.303,0.0925,-0.9187,-1.4088,-5.3987,2.9057207582393283,-24.964949788129452,-4.119098699987302,3.901000000005297
-0.4489,0.9567,0.0488,0.2917,0.3052,0.0927,-0.9275,-1.6538,-5.32,2.909096666850764,-25.022083555937737,-4.119098699987302,3.901000000005297
-0.4489,0.9567,0.0488,0.2917,0.3052,0.0927,-0.9275,-1.6538,-5.32,2.911677283579389,-25.056423437525112,-4.143905699986339,3.916000000004715
-0.4477,0.9551,0.0498,0.2922,0.3012,0.0927,-0.945,-2.2313,-5.2238,2.9296325055060652,-25.066698912102197,-4.143905699986339,3.916000000004715
-0.4452,0.9533,0.0492,0.2922,0.3012,0.0927,-0.7788,-1.5313,-4.8913,2.933042574506433,-25.054729121869062,-4.168406499991331,3.9320000000079744
-0.4425,0.9547,0.0528,0.2922,0.3012,0.0927,-0.56,-1.505,-5.1887,2.9460620623478566,-24.978100006260526,-4.168406499991331,3.9320000000079744
-0.4396,0.9521,0.0532,0.2918,0.3037,0.0897,-0.56,-1.505,-5.1887,2.9601793725934136,-24.898693244752856,-4.190981499979505,3.9470000000001164
-0.4396,0.9528,0.0539,0.2918,0.3037,0.0897,-0.4725,-1.015,-4.8913,2.995718704959823,-24.867101921501362,-4.190981499979505,3.9470000000001164
-0.4403,0.9528,0.0539,0.2937,0.3026,0.0934,-0.5512,-0.6562,-4.6988,3.011156371233253,-24.863029531538512,-4.201480699981643,3.963000000003376
-0.4418,0.9561,0.0515,0.2937,0.3026,0.0934,-0.2975,-0.5688,-4.5675,3.0287059342980327,-24.855398052967274,-4.201480699981643,3.963000000003376
-0.4427,0.9554,0.0574,0.2937,0.3026,0.0934,-0.2975,-0.5688,-4.5675,3.128397721066678,-24.852680895622445,-4.210581499983498,3.9790000000066357
-0.4436,0.9561,0.0504,0.2917,0.3031,0.0954,-0.5863,-0.1663,-4.6725,3.1248529979622117,-24.85278951772278,-4.210581499983498,3.9790000000066357
-0.4498,0.9552,0.0489,0.2917,0.3031,0.0954,-0.4638,-0.4725,-4.3575,3.098710097160275,-24.929588827854335,-4.217668999983222,3.9940000000060536
-0.4498,0.9552,0.0489,0.2906,0.304,0.0889,-0.3237,0.0962,-4.4887,3.0603550926624026,-24.966478153831545,-4.217668999983222,3.9940000000060536
-0.4475,0.9545,0.0517,0.2906,0.304,0.0889,-0.3237,0.0962,-4.4887,3.0694845286039243,-24.983691115875573,-4.216129799982909,4.010000000009313
-0.4488,0.9562,0.0514,0.2906,0.304,0.0889,-0.2537,-0.3413,-4.9525,3.071480985839682,-25.012926624634005,-4.216129799982909,4.010000000009313
-0.4469,0.957,0.0476,0.289,0.3017,0.0913,-0.42,-1.0412,-4.5413,3.034252307797202,-25.012059436212407,-4.231747799974727,4.025000000001455
-0.4478,0.9592,0.0527,0.289,0.3017,0.0913,-0.42,-1.0412,-4.8913,3.0526183083117884,-25.008301283298046,-4.231747799974727,4.025000000001455
-0.4478,0.9577,0.0516,0.2904,0.3032,0.099,-0.3588,-0.9887,-4.8913,3.0591170450554017,-25.012038201548755,-4.247566999977949,4.041000000004715
-0.4472,0.9577,0.0516,0.2904,0.3032,0.099,-0.8838,-1.6363,-5.04,3.0643345849808377,-25.00828338792524,-4.247566999977949,4.041000000004715
-0.4479,0.9564,0.0528,0.2915,0.3022,0.0931,-0.8313,-1.855,-4.9525,3.081053116663798,-25.02035574248992,-4.277246999970499,4.0570000000006985
-0.4457,0.9557,0.054,0.2915,0.3022,0.0931,-0.8313,-1.855,-4.9525,3.107795227623387,-25.008272969547427,-4.277246999970499,4.0570000000006985
-0.4455,0.955,0.0517,0.2915,0.3022,0.0931,-0.805,-2.03,-5.1275,3.1063782146773287,-24.998120446139136,-4.3076969999840875,4.072000000007392
-0.4435,0.9543,0.0533,0.293,0.302,0.093,-0.7875,-2.45,-5.3463,3.1193943256938073,-24.95480051920581,-4.3076969999840875,4.072000000007392
-0.4435,0.9543,0.0533,0.293,0.302,0.093,-0.3588,-2.3187,-5.285,3.1353899844121615,-24.930566469012337,-4.344796199991646,4.088000000010652
-0.4418,0.9568,0.0562,0.291,0.3024,0.0925,-0.3588,-2.3187,-5.285,3.182131311416456,-24.85988807845927,-4.344796199991646,4.088000000010652
-0.4415,0.9566,0.0549,0.291,0.3024,0.0925,-0.4375,-2.0475,-5.355,3.197902888972326,-24.81013623601293,-4.375508699975557,4.103000000002794
-0.4438,0.9585,0.0554,0.291,0.3024,0.0925,-0.6825,-1.5575,-4.9262,3.204441684649412,-24.80977593423999,-4.375508699975557,4.103000000002794
-0.4443,0.9574,0.0594,0.2908,0.3049,0.097,-0.6388,-1.54,-5.0575,3.211049043259625,-24.822030430199373,-4.400148699980576,4.119000000006054
-0.4443,0.9574,0.0508,0.2908,0.3049,0.097,-0.6388,-1.54,-5.0575,3.2077290055164416,-24.834000241272083,-4.400148699980576,4.119000000006054
-0.4447,0.957,0.0508,0.2908,0.3032,0.0932,-0.6825,-1.4612,-5.2413,3.1976758601659405,-24.855637636313244,-4.423527899974708,4.135000000002037
-0.4437,0.9573,0.0565,0.2908,0.3032,0.0932,-0.5075,-1.7062,-5.4513,3.2157805005168165,-24.843979161019448,-4.423527899974708,4.135000000002037
-0.4432,0.957,0.0576,0.2908,0.3032,0.0932,-0.6913,-1.8637,-5.5825,3.231129229826563,-24.827654533139782,-4.4514833999871835,4.150000000008731
-0.4419,0.9551,0.058,0.2938,0.3025,0.0921,-0.6913,-1.8637,-5.5825,3.247511659416645,-24.808871636786947,-4.4514833999871835,4.150000000008731
-0.443,0.957,0.0554,0.2938,0.3025,0.0921,-0.6475,-1.5925,-5.6613,3.2493095307689677,-24.805994888781232,-4.476963399980788,4.166000000004715
-0.443,0.957,0.0554,0.2922,0.304,0.093,-0.7613,-1.3563,-5.5912,3.257241828936762,-24.804611869055226,-4.497307899979998,4.181000000004133
-0.4441,0.9552,0.0559,0.2922,0.304,0.093,-0.7613,-1.1375,-5.8187,3.2686785502859257,-24.85462636887102,-4.497307899979998,4.181000000004133
-0.4421,0.9542,0.052,0.2922,0.304,0.093,-0.7437,-1.1375,-5.8187,3.2521543069885928,-24.839693098983386,-4.497307899979998,4.181000000004133
-0.4458,0.9567,0.0564,0.2922,0.303,0.0971,-0.6037,-1.3737,-5.4862,3.254025817279178,-24.888087807821943,-4.519287099984476,4.197000000007392
-0.446,0.9551,0.0565,0.2922,0.303,0.0971,-0.3237,-1.26,-5.6962,3.2840127894338638,-24.941402792330052,-4.539447099979416,4.213000000003376
-0.446,0.9551,0.0571,0.2918,0.3034,0.0946,-0.3237,-1.26,-5.6962,3.3153413416929993,-24.967121531077424,-4.539447099979416,4.213000000003376
-0.4479,0.9549,0.0571,0.2918,0.3034,0.0946,-0.49,-1.5488,-5.46,3.3275586765854053,-25.02180551463246,-4.5626790999785145,4.228000000002794
-0.4495,0.9576,0.0542,0.293,0.3036,0.0887,-0.4638,-1.6275,-5.53,3.3157035695274244,-25.06305310454313,-4.5626790999785145,4.228000000002794
-0.4462,0.954,0.0572,0.293,0.3036,0.0887,-0.1138,-1.6625,-5.1188,3.3544970442339515,-25.05157523254096,-4.5892790999839335,4.244000000006054
-0.4466,0.9522,0.0536,0.293,0.3036,0.0887,-0.1138,-1.6625,-5.1188,3.3099467288827205,-25.064565935754597,-4.5892790999839335,4.244000000006054
-0.4469,0.9547,0.0524,0.2908,0.3029,0.0904,0.2187,-1.6712,-5.2675,3.233193181423653,-25.05959583434328,-4.614347099982961,4.2590000000054715
-0.4469,0.9547,0.0524,0.2908,0.3029,0.0904,0.5775,-1.6538,-5.1625,3.183295762070872,-25.0568630138097,-4.614347099982961,4.2590000000054715
-0.446,0.9543,0.0525,0.2926,0.3042,0.0914,-0.0613,-2.0738,-5.075,3.170978071843309,-25.044870466644564,-4.647527899989721,4.275000000008731
-0.4448,0.9543,0.0517,0.2926,0.3042,0.0914,-0.0613,-2.0738,-5.075,3.1459201819033513,-25.0192678009985,-4.647527899989721,4.275000000008731
-0.4471,0.9578,0.0477,0.2926,0.3042,0.0914,-0.3588,-1.96,-5.25,3.0849808687852898,-25.01057190169186,-4.6788878999818495,4.291000000004715
-0.4439,0.9584,0.0515,0.2924,0.3028,0.0881,0.2887,-1.8025,-5.5125,3.080636929438018,-24.922924922770243,-4.6788878999818495,4.291000000004715
-0.4439,0.9584,0.0526,0.2924,0.3028,0.0881,-0.0437,-2.135,-5.39,3.102842997703777,-24.879030165959204,-4.713047899988809,4.3070000000079744
-0.4412,0.959,0.0526,0.292,0.3005,0.0939,-0.0437,-2.135,-5.39,3.116219936905167,-24.79171918753809,-4.713047899988809,4.3070000000079744
-0.4438,0.9565,0.049,0.292,0.3005,0.0939,-0.28,-2.5287,-5.285,3.069701712351596,-24.818795379886105,-4.756035799988368,4.3240000000078
-0.4458,0.9579,0.0506,0.292,0.3005,0.0939,-0.21,-1.925,-5.1975,3.05636292070464,-24.856590917893318,-4.757960799981757,4.325000000004366
-0.4405,0.9558,0.0508,0.2924,0.3041,0.0934,-0.7525,-2.1,-5.4513,3.0547174305084357,-24.792936761037215,-4.789460799980534,4.3400000000037835
-0.4429,0.9555,0.048,0.2924,0.3041,0.0934,-0.7525,-2.1,-5.4513,3.0336972688732717,-24.81442663381531,-4.789460799980534,4.3400000000037835
-0.4429,0.9555,0.048,0.2925,0.3052,0.0935,-0.2537,-1.6625,-5.2238,2.991440017276223,-24.82421298489838,-4.816060799985953,4.356000000007043
-0.4388,0.9558,0.0497,0.2925,0.3052,0.0935,-0.07,-1.7587,-5.1537,2.986179752987891,-24.759744359206284,-4.816060799985953,4.356000000007043
-0.4397,0.9572,0.0537,0.2925,0.3052,0.0935,-0.07,-1.7587,-5.1537,3.065888278949857,-24.719319054294715,-4.844199999991686,4.372000000010303
-0.4382,0.9559,0.0492,0.2917,0.3038,0.0924,-0.4638,-1.5662,-5.1537,3.0498068713517426,-24.679277516114198,-4.844199999991686,4.372000000010303
-0.441,0.9575,0.0525,0.2917,0.3038,0.0924,-1.1287,-1.3825,-5.5475,3.0797054241153874,-24.687595195016897,-4.8649374999808215,4.387000000002445
-0.441,0.9575,0.0525,0.2922,0.3017,0.0951,-1.61,-1.6625,-5.565,3.1089160493211994,-24.692038360952,-4.8649374999808215,4.387000000002445
-0.4387,0.9543,0.0527,0.2922,0.3017,0.0951,-1.61,-1.6625,-5.565,3.1347742466149393,-24.67467254285611,-4.89153749998624,4.403000000005704
-0.4428,0.9531,0.0542,0.2922,0.3018,0.1006,-0.595,-1.8025,-6.2737,3.13762259578716,-24.803871774922907,-4.89153749998624,4.403000000005704
-0.4448,0.955,0.0536,0.2923,0.3018,0.1006,-0.1138,-1.3825,-6.1425,3.1627288084008804,-24.88507693539199,-4.912274999985436,4.418000000005122
-0.4436,0.9544,0.0537,0.2923,0.3018,0.1006,-0.5775,-1.75,-6.4575,3.1650435587833767,-24.890917070688783,-4.912274999985436,4.418000000005122
-0.4446,0.9535,0.054,0.2942,0.3038,0.0893,-0.5775,-1.75,-6.4575,3.168108495481689,-24.9377051445494,-4.94027499999114,4.434000000008382
-0.4446,0.9535,0.054,0.2942,0.3038,0.0893,-0.4988,-1.7413,-6.37,3.1759911015322158,-24.954108602387354,-4.94027499999114,4.434000000008382
-0.4465,0.9542,0.0508,0.2926,0.3036,0.0888,-0.7088,-1.6888,-6.8688,3.165434319841266,-25.01688051287857,-4.967295799996645,4.4500000000116415
-0.4448,0.9566,0.0513,0.2926,0.3036,0.0888,-1.1025,-1.7763,-6.2825,3.1342418143780746,-24.94825250537174,-4.967295799996645,4.4500000000116415
-0.4457,0.9561,0.0561,0.2926,0.3036,0.0888,-1.1025,-1.7763,-6.2825,3.207145713007587,-24.95279220919592,-4.9957165999765865,4.466000000000349
-0.4492,0.9532,0.05,0.2912,0.3043,0.0819,-1.015,-1.4262,-6.16,3.149182435513089,-25.10248979490292,-4.9957165999765865,4.466000000000349
-0.4492,0.9532,0.05,0.2912,0.3043,0.0819,-0.9275,-1.6187,-6.1863,3.1146723685995283,-25.162691891028757,-5.021615799981863,4.482000000003609
-0.4519,0.9567,0.0522,0.293,0.3046,0.0943,-0.4025,-1.9162,-6.2562,3.116175404511109,-25.217017015107228,-5.021615799981863,4.482000000003609
-0.4519,0.9561,0.0545,0.293,0.3046,0.0943,-0.4025,-1.9162,-6.2562,3.142242541894503,-25.244601108600335,-5.0503587999807475,4.497000000003027
-0.451,0.9517,0.0515,0.293,0.3046,0.0943,-0.8138,-2.4325,-6.2913,3.134952099071788,-25.293464594311114,-5.0503587999807475,4.497000000003027
-0.454,0.9531,0.0504,0.2928,0.3048,0.0975,-1.085,-1.89,-5.915,3.100648789121891,-25.374736250968255,-5.080598799986908,4.513000000006286
-0.4529,0.959,0.0529,0.2928,0.3048,0.0975,-1.085,-2.2487,-6.09,3.118657237992395,-25.298913092737546,-5.080598799986908,4.513000000006286
-0.4529,0.959,0.0529,0.2938,0.3041,0.0938,-0.7613,-2.2487,-6.09,3.12346514045703,-25.267758519886787,-5.116577999994238,4.529000000009546
-0.4502,0.9593,0.0561,0.2938,0.3041,0.0938,-0.5075,-2.5463,-6.3263,3.1459323399654746,-25.164764894797607,-5.116577999994238,4.529000000009546
-0.4482,0.9568,0.0537,0.2938,0.3041,0.0938,-0.735,-2.4413,-6.2387,3.152816935248988,-25.103944917196042,-5.153197499975054,4.544000000001688
-0.4498,0.9591,0.0552,0.2928,0.3041,0.096,-0.735,-2.4413,-6.2387,3.1674518486750416,-25.09497088791375,-5.153197499975054,4.544000000001688
-0.4496,0.9586,0.0567,0.2928,0.3041,0.096,-1.1375,-2.5287,-5.81,3.2417148907883444,-25.09174410570845,-5.193656699983296,4.560000000004948
-0.4496,0.9586,0.0567,0.2923,0.306,0.0963,-1.75,-1.855,-5.1363,3.3177675191548897,-25.090836967568688,-5.193656699983296,4.560000000004948
-0.4466,0.9544,0.0575,0.2923,0.306,0.0963,-1.47,-1.7413,-4.62,3.377513686259342,-25.088949778923226,-5.219776199982283,4.575000000004366
-0.4495,0.9537,0.0574,0.2923,0.306,0.0981,-1.47,-1.7413,-4.62,3.408205940819725,-25.09267894453737,-5.219776199982283,4.575000000004366
-0.4488,0.9509,0.0575,0.2918,0.3043,0.0981,-1.225,-1.1988,-4.7425,3.427896583605507,-25.103247802793632,-5.238956999986191,4.591000000007625
-0.4489,0.9519,0.0604,0.2918,0.3043,0.0981,-0.7437,-1.6275,-4.7425,3.450327076822156,-25.111201654744004,-5.238956999986191,4.591000000007625
-0.4509,0.953,0.0556,0.295,0.3053,0.0901,-0.6125,-1.26,-5.2238,3.4495726551351944,-25.173394636983698,-5.2591169999811305,4.607000000003609
-0.4509,0.953,0.0556,0.295,0.3053,0.0901,-0.6125,-1.26,-5.2238,3.4488233444961023,-25.21306933298809,-5.2591169999811305,4.607000000003609
-0.4485,0.9565,0.0546,0.2938,0.305,0.0973,-0.0175,-1.365,-5.4338,3.3805389964663886,-25.15745668115076,-5.279591999980336,4.622000000003027
-0.4503,0.9585,0.0584,0.2938,0.305,0.0973,-0.4638,-1.6888,-5.7925,3.39481876269976,-25.13920766935878,-5.279591999980336,4.622000000003027
-0.4534,0.9584,0.0582,0.2938,0.305,0.0973,-0.2362,-1.4525,-5.5825,3.417053161997831,-25.2055446031091,-5.30283199998507,4.638000000006286
-0.4513,0.9598,0.0551,0.2932,0.3053,0.1035,-0.2362,-1.4525,-5.5825,3.380645959796637,-25.17726409383866,-5.30283199998507,4.638000000006286
-0.4513,0.9598,0.0551,0.2932,0.3053,0.1035,-0.1488,-1.1812,-5.5825,3.3502399711735236,-25.162582629025287,-5.320549999984383,4.653000000005704
-0.4552,0.9581,0.057,0.2934,0.304,0.094,-0.6562,-1.4612,-5.565,3.352175909232255,-25.263004921099444,-5.320549999984383,4.653000000005704
-0.4572,0.9581,0.0547,0.2934,0.304,0.094,-0.9538,-1.8288,-5.67,3.3309756516769014,-25.369224080546164,-5.349810799990344,4.669000000008964
-0.4554,0.957,0.0606,0.2934,0.304,0.094,-0.9538,-1.8288,-5.67,3.4042440306978565,-25.386505210468194,-5.349810799990344,4.669000000008964
-0.4541,0.952,0.0557,0.2922,0.3054,0.094,-1.3388,-1.6888,-5.6087,3.3809054152425575,-25.423784369687816,-5.376831599983561,4.685000000004948
-0.4541,0.9496,0.0569,0.2922,0.3054,0.094,-1.8025,-1.6712,-5.3463,3.407003554227099,-25.46194794989005,-5.376831599983561,4.685000000004948
-0.454,0.9496,0.0569,0.2925,0.3053,0.0946,-1.8025,-1.6712,-5.5037,3.418957745333069,-25.48506666322104,-5.401899599982588,4.700000000004366
-0.4516,0.9461,0.062,0.2925,0.3053,0.0946,-1.1287,-1.8288,-5.5037,3.530459380957866,-25.477584590654015,-5.401899599982588,4.700000000004366
-0.4513,0.947,0.063,0.2925,0.3053,0.0946,-0.6562,-1.7675,-5.3463,3.5402611663965504,-25.458723276163077,-5.4301795999883495,4.716000000007625
-0.4543,0.9465,0.0632,0.2934,0.3047,0.09,-0.7088,-1.715,-4.8913,3.5632444714200915,-25.48377400539209,-5.455904599987352,4.731000000007043
-0.4523,0.9501,0.0612,0.2934,0.3047,0.09,-0.7088,-1.715,-4.8913,3.5732914197492947,-25.46992626946322,-5.455904599987352,4.731000000007043
-0.4523,0.9501,0.0612,0.2923,0.304,0.0845,-0.9975,-1.785,-4.83,3.604102351211904,-25.461205110415982,-5.484464599980183,4.747000000003027
-0.4479,0.9521,0.0609,0.2923,0.304,0.0845,-0.8313,-1.0588,-4.4363,3.6138569700270478,-25.40489440763429,-5.484464599980183,4.747000000003027
-0.4469,0.9515,0.0612,0.2923,0.304,0.0845,-0.56,-1.3475,-4.1125,3.6175702300015375,-25.30208400153619,-5.506024599974771,4.7629999999990105
-0.4459,0.9517,0.0571,0.293,0.3048,0.0978,-0.56,-1.3475,-4.1125,3.6072630483826815,-25.21856968156906,-5.506024599974771,4.7629999999990105
-0.4486,0.9527,0.0609,0.293,0.3048,0.0978,-0.91,-0.8925,-3.9375,3.6185940481852263,-25.198028541259667,-5.5194120999807454,4.778000000005704
-0.4486,0.9536,0.0613,0.2924,0.3054,0.0969,-0.28,-0.9625,-4.2438,3.6336618920143806,-25.183456851157533,-5.5194120999807454,4.778000000005704
-0.4501,0.9536,0.0613,0.2924,0.3054,0.0969,-0.665,-1.0588,-4.2438,3.635601699243833,-25.194646670916025,-5.536352899984196,4.794000000008964
-0.4472,0.9584,0.0583,0.2926,0.3066,0.0886,-0.665,-1.0588,-4.2438,3.6288500817133538,-25.13014629392157,-5.536352899984196,4.794000000008964
-0.4451,0.9557,0.0578,0.2926,0.3066,0.0886,-0.7175,-1.3475,-4.76,3.613843020243566,-25.11160107807495,-5.556565399973608,4.809000000001106
-0.4469,0.9565,0.0624,0.2926,0.3066,0.0886,-0.8838,-1.1375,-5.0662,3.6386747582216556,-25.078131875323937,-5.556565399973608,4.809000000001106
-0.446,0.951,0.0589,0.2914,0.3055,0.0886,-1.1287,-1.0325,-5.0225,3.606749955029717,-25.079571090823617,-5.573085399976973,4.825000000004366
-0.446,0.951,0.0589,0.2914,0.3055,0.0886,-1.1287,-1.0325,-5.0225,3.585599002756009,-25.080624478762687,-5.573085399976973,4.825000000004366
-0.4484,0.9541,0.0575,0.294,0.3041,0.0875,-0.9363,-1.26,-5.2587,3.5526802339733274,-25.100029539595358,-5.593245399971913,4.841000000000349
-0.4485,0.9516,0.0632,0.294,0.3041,0.0875,-0.7613,-1.4612,-5.5563,3.583390025128511,-25.140967240860657,-5.593245399971913,4.841000000000349
-0.4479,0.9564,0.0595,0.294,0.3041,0.0875,-0.7613,-1.54,-5.7312,3.5804725052800372,-25.09492474019605,-5.6163453999822215,4.856000000007043
-0.4477,0.9553,0.0595,0.2934,0.305,0.0914,-0.6562,-1.54,-5.7312,3.579887054317313,-25.080704706124475,-5.6163453999822215,4.856000000007043
-0.4477,0.9566,0.0602,0.2934,0.305,0.0914,-0.1225,-1.7763,-6.0113,3.5868763416926943,-25.055385138603572,-5.644766199975087,4.872000000003027
-0.4505,0.9566,0.0602,0.2942,0.3059,0.0946,0.0787,-1.54,-6.3175,3.592659410831314,-25.129395063078128,-5.644766199975087,4.872000000003027
-0.4514,0.958,0.0656,0.2942,0.3059,0.0946,0.0787,-1.54,-6.3175,3.726100179077567,-25.159554091044775,-5.66786619997419,4.887000000002445
-0.4534,0.9563,0.0625,0.2942,0.3059,0.0946,0.0,-2.0213,-6.3,3.7311517578142475,-25.25886600684707,-5.66786619997419,4.887000000002445
-0.4478,0.9501,0.0578,0.2927,0.3039,0.0922,-0.0088,-2.4938,-6.405,3.636451773442468,-25.21797635169705,-5.707766999982319,4.903000000005704
-0.4526,0.9523,0.0628,0.2927,0.3039,0.0922,0.3237,-1.61,-6.615,3.7026955575083833,-25.320071913918515,-5.707766999982319,4.903000000005704
-0.4526,0.9523,0.0628,0.293,0.3061,0.0938,0.3237,-1.61,-6.615,3.7367887474769512,-25.35457796160161,-5.733526999975853,4.919000000001688
-0.4515,0.9532,0.0575,0.293,0.3061,0.0938,0.2013,-1.5137,-6.6413,3.6084587255544753,-25.321720005189693,-5.733526999975853,4.919000000001688
-0.4529,0.9503,0.0567,0.293,0.3061,0.0938,0.6212,-2.2138,-6.545,3.501082867943956,-25.40056905750075,-5.768947799983069,4.935000000004948
-0.4504,0.9497,0.0567,0.2932,0.3061,0.0953,0.9013,-1.8988,-6.2737,3.450163693498197,-25.35908566273049,-5.768947799983069,4.935000000004948
-0.448,0.9513,0.0597,0.2932,0.3061,0.0953,0.9013,-1.8988,-6.2737,3.5351008989851533,-25.244704565461877,-5.799328599989258,4.951000000008207
-0.448,0.9513,0.056,0.294,0.304,0.0982,0.9013,-1.7325,-5.6262,3.434855866213301,-25.21244497397595,-5.799328599989258,4.951000000008207
-0.4498,0.9523,0.056,0.294,0.304,0.0982,-0.035,-2.0125,-5.1537,3.409240466360836,-25.223129984046444,-5.829516099988087,4.966000000007625
-0.4497,0.9548,0.055,0.2929,0.3047,0.091,0.3063,-1.6363,-4.7775,3.3551941407921673,-25.218826651398608,-5.829516099988087,4.966000000007625
-0.4464,0.955,0.0593,0.2929,0.3047,0.091,0.3063,-1.6363,-4.7775,3.4503614313389788,-25.196321353134586,-5.855696899981515,4.982000000003609
-0.451,0.9552,0.055,0.2929,0.3047,0.091,0.3325,-1.9425,-4.7863,3.374806598113811,-25.201102778272872,-5.855696899981515,4.982000000003609
-0.4491,0.9559,0.0544,0.293,0.3054,0.0946,0.7875,-1.8463,-4.9175,3.30604830665493,-25.18624908242526,-5.9443192999861365,5.030000000006112
-0.4491,0.9559,0.0544,0.293,0.3054,0.0946,0.5337,-1.9688,-4.795,3.2798740000511764,-25.179321083522304,-5.9443192999861365,5.030000000006112
-0.4498,0.9553,0.0561,0.2916,0.3063,0.0972,0.5337,-1.9688,-4.795,3.3232316794076957,-25.178826647070856,-5.9443192999861365,5.030000000006112
-0.4476,0.9531,0.0556,0.2916,0.3063,0.0972,0.2187,-1.7938,-4.6463,3.3302479244242504,-25.178233833910177,-5.9443192999861365,5.030000000006112
-0.4473,0.9531,0.052,0.2916,0.3063,0.0972,0.0875,-1.6363,-4.725,3.244379161954019,-25.173742357903645,-5.9443192999861365,5.030000000006112
-0.4471,0.9542,0.0558,0.2905,0.3054,0.0978,0.0875,-1.6363,-4.9612,3.28677195259607,-25.149113577701012,-5.9443192999861365,5.030000000006112
-0.4471,0.9542,0.0558,0.2905,0.3054,0.0978,0.4375,-1.4175,-4.9612,3.3175887496969323,-25.130240558716995,-5.965581799985311,5.04500000000553
-0.4474,0.9543,0.0558,0.2934,0.3052,0.0953,0.7175,-0.8138,-4.9788,3.334070033255728,-25.118184988262882,-5.965581799985311,5.04500000000553
-0.4458,0.9549,0.0502,0.2934,0.3052,0.0953,-0.1138,-1.5488,-4.7512,3.22502718711084,-25.1075411264959,-5.99036259999036,5.061000000008789
-0.4466,0.9568,0.0537,0.2934,0.3052,0.0953,-0.1138,-1.5488,-4.7512,3.2207642821282674,-25.09708324675851,-5.99036259999036,5.061000000008789
-0.4496,0.9573,0.0545,0.2908,0.3058,0.0829,-0.28,-1.1812,-5.2675,3.2302958579192986,-25.106401155813,-6.009261799985616,5.077000000004773
-0.4496,0.9576,0.0538,0.2908,0.3058,0.0829,-0.105,-1.3038,-5.4075,3.225310707393463,-25.11037916223592,-6.009261799985616,5.077000000004773
-0.4496,0.9576,0.0538,0.2925,0.304,0.0896,-0.6825,-1.2513,-5.3375,3.2247347234499433,-25.11252477151089,-6.028031299984888,5.092000000004191
-0.4502,0.955,0.0553,0.2925,0.304,0.0896,-0.6825,-1.2513,-5.3375,3.230042535694095,-25.14912973349458,-6.028031299984888,5.092000000004191
-0.4509,0.958,0.0565,0.2925,0.304,0.0896,-1.0412,-1.1812,-5.6875,3.2731190889980115,-25.15797961876543,-6.046930499988738,5.108000000007451
-0.4501,0.9547,0.0597,0.2932,0.3065,0.1063,-0.5163,-0.9887,-5.0487,3.301613560667461,-25.169474631130875,-6.046930499988738,5.108000000007451
-0.4529,0.9533,0.0575,0.2932,0.3065,0.1063,-0.6037,-0.9187,-5.1975,3.303922245134399,-25.240409881972088,-6.060710999988204,5.1230000000068685
-0.4529,0.9533,0.0568,0.2935,0.3061,0.0944,-0.6037,-0.9187,-5.1975,3.305550642375291,-25.28677539264337,-6.060710999988204,5.1230000000068685
-0.4511,0.9534,0.0568,0.2935,0.3061,0.0944,-0.8313,-1.015,-4.9875,3.323720864493553,-25.28556078379515,-6.076950999991512,5.139000000010128
-0.4529,0.9523,0.0583,0.2942,0.305,0.0909,-0.6212,-1.5662,-5.0575,3.3240576364443517,-25.316481342016022,-6.102010199973826,5.154999999998836
-0.4527,0.9526,0.0517,0.2942,0.305,0.0909,-0.6913,-1.82,-4.97,3.309452115093851,-25.332993619561158,-6.102010199973826,5.154999999998836
-0.4527,0.9546,0.0528,0.2942,0.305,0.0909,-0.6913,-1.82,-4.97,3.299811042392748,-25.334153385381544,-6.1293101999860085,5.17000000000553
-0.4477,0.9556,0.0617,0.2923,0.3042,0.0911,-0.6475,-1.2075,-4.9963,3.3106220041261403,-25.263921862936797,-6.1293101999860085,5.17000000000553
-0.4477,0.9556,0.0617,0.2923,0.3042,0.0911,-0.5863,-1.6538,-4.7775,3.3228856562884093,-25.241585488215055,-6.155770999979366,5.186000000001513
-0.4465,0.955,0.0556,0.2933,0.3048,0.0951,-0.5863,-1.6538,-4.4975,3.323176777474524,-25.21133627064388,-6.155770999979366,5.186000000001513
-0.4446,0.9538,0.0538,0.2933,0.3048,0.0951,-0.2887,-2.135,-4.4975,3.2996280257102106,-25.176505252804933,-6.187795999993658,5.201000000008207
-0.4452,0.9553,0.0594,0.2933,0.3048,0.0951,-0.2537,-1.26,-4.4012,3.368812644653899,-25.12940295776037,-6.187795999993658,5.201000000008207
-0.4415,0.9531,0.0606,0.295,0.3055,0.093,-0.4112,-1.4612,-4.5937,3.4151993591754284,-25.11064879546093,-6.21117519998779,5.217000000004191
-0.4415,0.9531,0.0551,0.295,0.3055,0.093,-0.4112,-1.4612,-4.5937,3.396846648614579,-25.093446484103907,-6.21117519998779,5.217000000004191
-0.4445,0.9514,0.0551,0.2925,0.3045,0.0932,-0.2625,-1.0762,-4.41,3.3752073461918233,-25.07607139228036,-6.2283943999834674,5.233000000000175
-0.444,0.9532,0.0594,0.2925,0.3045,0.0932,0.175,-0.4112,-4.4713,3.4596049174866494,-25.05383704692856,-6.2283943999834674,5.233000000000175
-0.4449,0.9518,0.0582,0.2925,0.3045,0.0932,-0.1225,-0.455,-5.0575,3.4727224823141114,-25.04180327052703,-6.235219399986513,5.2480000000068685
-0.4486,0.9511,0.0525,0.2914,0.3065,0.0971,-0.1225,-0.455,-5.0575,3.3687509515850733,-25.092251394253225,-6.235219399986513,5.2480000000068685
-0.4517,0.9548,0.055,0.2914,0.3065,0.0971,-0.2275,-0.56,-5.2762,3.348496923554663,-25.16463427136577,-6.244179399984264,5.264000000002852
-0.4517,0.9548,0.055,0.293,0.3052,0.0941,-0.1575,-1.26,-5.8187,3.332166284543894,-25.22739605051584,-6.244179399984264,5.264000000002852
-0.4471,0.9582,0.0565,0.293,0.3052,0.0941,-0.0787,-1.3125,-6.2125,3.347029600186425,-25.074264740796057,-6.2638668999835,5.27900000000227
-0.4443,0.9589,0.0569,0.293,0.3052,0.0941,-0.0787,-1.3125,-6.2125,3.364172543570751,-24.920653531023852,-6.2638668999835,5.27900000000227
-0.4447,0.9559,0.0575,0.2931,0.3042,0.0958,-0.4988,-1.4787,-5.53,3.3725811545281763,-24.915244825168347,-6.2875260999883205,5.29500000000553
-0.4494,0.9601,0.0554,0.2931,0.3042,0.0958,-0.5425,-1.015,-5.25,3.3675770739814412,-24.964195050073396,-6.2875260999883205,5.29500000000553
-0.4494,0.9601,0.0554,0.2936,0.3048,0.0954,-1.505,-1.0412,-5.2238,3.3369819006300485,-24.994043940996487,-6.304185299984138,5.311000000001513
-0.4508,0.9573,0.057,0.2936,0.3048,0.0954,-1.505,-1.0412,-5.2238,3.3701074510517075,-25.06030674207339,-6.304185299984138,5.311000000001513
-0.4516,0.9574,0.0612,0.2936,0.3058,0.0951,-0.9275,-1.0412,-5.6613,3.4378225139501675,-25.134306552552598,-6.319803299991108,5.326000000008207
-0.4526,0.9517,0.0578,0.2929,0.3058,0.0951,-0.7788,-0.805,-5.8012,3.443004800656295,-25.27264930188906,-6.319803299991108,5.326000000008207
-0.4528,0.9465,0.0617,0.2929,0.3058,0.0951,-1.0063,-1.5838,-5.8538,3.5229933955474872,-25.40685324391008,-6.345144099984747,5.342000000004191
-0.4532,0.9465,0.0599,0.2937,0.3053,0.0975,-1.0063,-1.5838,-5.8538,3.5503881369343646,-25.4801219335352,-6.345144099984747,5.342000000004191
-0.4532,0.9465,0.0599,0.2937,0.3053,0.0975,-0.1575,-1.5488,-6.2737,3.5727526418059883,-25.51792885000742,-6.368376099983846,5.357000000003609
-0.4523,0.9498,0.0572,0.2939,0.3061,0.0984,0.1138,-1.7587,-6.0813,3.519293271279804,-25.4626215229652,-6.368376099983846,5.357000000003609
-0.449,0.9531,0.0628,0.2939,0.3061,0.0984,0.1138,-1.7587,-6.755,3.6252524821813354,-25.269202574245373,-6.396515299989578,5.3730000000068685
-0.449,0.9544,0.0596,0.2939,0.3061,0.0984,0.5075,-1.8813,-6.755,3.5977508073214635,-25.189713536175134,-6.396515299989578,5.3730000000068685
-0.4512,0.958,0.055,0.2933,0.3048,0.1001,0.4638,-1.4088,-6.4138,3.4355603635439658,-25.185584367910188,-6.41905609998392,5.389000000002852
-0.4512,0.958,0.055,0.2933,0.3048,0.1001,0.0875,-1.1025,-5.845,3.3735492182555573,-25.18430837747642,-6.41905609998392,5.389000000002852
-0.4523,0.9601,0.0595,0.2938,0.306,0.0932,0.0875,-1.1025,-5.845,3.4450629456076904,-25.183413799779647,-6.4355935999913,5.404000000009546
-0.4541,0.9576,0.0576,0.2938,0.306,0.0932,-0.2537,-1.4612,-5.565,3.4443005348136673,-25.253476476148617,-6.4355935999913,5.404000000009546
-0.456,0.9561,0.058,0.2938,0.306,0.0932,-0.21,-1.2687,-5.775,3.4521962409443265,-25.361134525913645,-6.455892799986205,5.42000000000553
-0.4571,0.9563,0.0575,0.2929,0.3046,0.0988,-0.455,-1.4262,-5.5213,3.4506039178521317,-25.42880971679962,-6.455892799986205,5.42000000000553
-0.4562,0.9539,0.0626,0.2929,0.3046,0.0988,-0.455,-1.4262,-5.5213,3.493516921524777,-25.467136682376037,-6.477285799985375,5.435000000004948
-0.4562,0.9539,0.0626,0.294,0.3044,0.0945,-0.805,-1.4438,-5.3812,3.534413926572136,-25.485757176870408,-6.477285799985375,5.435000000004948
-0.4537,0.9509,0.0576,0.294,0.3044,0.0945,-0.0088,-1.4963,-5.5213,3.508634818895492,-25.476737662988715,-6.501226599979366,5.451000000000931
-0.4543,0.952,0.0576,0.294,0.3044,0.0945,-0.3588,-1.5225,-5.5125,3.499082129902251,-25.473669155608388,-6.5255865999843286,5.467000000004191
-0.4523,0.9532,0.059,0.2929,0.3061,0.0881,-0.3588,-1.5225,-5.5125,3.5079326358327068,-25.413052535205907,-6.5255865999843286,5.467000000004191
-0.4484,0.9515,0.0609,0.2929,0.3061,0.0881,-0.3413,-1.4787,-4.9175,3.541486656974519,-25.36628820766201,-6.547767099994227,5.482000000010885
-0.4484,0.9515,0.0609,0.2935,0.3072,0.0998,-0.1225,-1.2513,-4.9788,3.581545375284737,-25.322633757499354,-6.547767099994227,5.482000000010885
-0.4496,0.9543,0.0586,0.2935,0.3072,0.0998,-0.0088,-0.7262,-4.2,3.555905075095904,-25.27951941119982,-6.559386299986026,5.4979999999995925
-0.448,0.9543,0.0602,0.2935,0.3072,0.0922,-0.0088,-0.7262,-4.2,3.576259993295149,-25.22457999666339,-6.559386299986026,5.4979999999995925
-0.4469,0.9534,0.0624,0.2933,0.3071,0.0922,-0.2187,-0.8662,-4.235,3.62442934418809,-25.17802376237737,-6.572379299991824,5.513000000006286
-0.4492,0.9515,0.0575,0.2933,0.3071,0.0922,-0.735,-0.7788,-4.0075,3.6071969746626498,-25.199084471863348,-6.572379299991824,5.513000000006286
-0.4515,0.95,0.0624,0.2932,0.3064,0.098,-0.735,-0.7788,-4.025,3.6228360398353314,-25.26608803817426,-6.584840099988696,5.52900000000227
-0.4515,0.95,0.0624,0.2932,0.3064,0.098,-0.56,-0.56,-4.025,3.6304067591594724,-25.30716360050305,-6.584840099988696,5.52900000000227
-0.4519,0.9532,0.0626,0.294,0.3057,0.0946,0.2537,-0.9013,-4.8038,3.689607954020668,-25.308472590678512,-6.599260899991634,5.54500000000553
-0.4524,0.9551,0.0618,0.294,0.3057,0.0946,-0.3063,-0.6825,-4.97,3.692604553747696,-25.306240763902675,-6.599260899991634,5.54500000000553
-0.4536,0.9531,0.0581,0.294,0.3057,0.0946,-0.3063,-0.6825,-4.97,3.6439168197423517,-25.3309110082269,-6.609498399991237,5.560000000004948
-0.4532,0.9522,0.0594,0.2934,0.3047,0.0939,-0.3063,-0.5863,-4.585,3.6261978009582694,-25.336102057265585,-6.609498399991237,5.560000000004948
-0.4532,0.9522,0.0594,0.2934,0.3047,0.0939,-0.1488,-0.84,-5.25,3.6080854854634223,-25.363254221953973,-6.622938399987863,5.576000000000931
-0.4548,0.9525,0.0574,0.2959,0.3065,0.0935,-0.0088,-1.4,-5.5475,3.5476327384205564,-25.419779546963383,-6.622938399987863,5.576000000000931
-0.456,0.9514,0.057,0.2959,0.3065,0.0935,-0.0088,-1.4,-5.5475,3.5025055877656186,-25.48968635367139,-6.643938399997234,5.591000000007625
-0.4571,0.9539,0.0585,0.2959,0.3065,0.0935,0.4638,-1.75,-5.845,3.5060869809101765,-25.528647350750287,-6.643938399997234,5.591000000007625
-0.4534,0.9507,0.0599,0.2921,0.3086,0.1022,0.0787,-2.03,-5.9325,3.5468401706835935,-25.486205300930635,-6.676418399989081,5.607000000003609
-0.4534,0.9507,0.0579,0.2921,0.3086,0.1022,0.105,-2.2313,-5.53,3.520926969949964,-25.47204426606793,-6.676418399989081,5.607000000003609
-0.4533,0.9507,0.0579,0.293,0.305,0.094,0.105,-2.2313,-5.53,3.505898909203949,-25.462199748025963,-6.712119199996354,5.6230000000068685
-0.4557,0.9537,0.058,0.293,0.305,0.094,0.315,-2.4588,-5.8275,3.4934860452347274,-25.481747158503545,-6.712119199996354,5.6230000000068685
-0.454,0.9536,0.0593,0.293,0.305,0.094,0.105,-2.8788,-5.635,3.520745108276482,-25.4491237239788,-6.755301199994679,5.638000000006286
-0.4509,0.9518,0.0605,0.2927,0.3054,0.1008,0.0175,-2.2575,-5.2937,3.5659918969661324,-25.392564506558426,-6.755301199994679,5.638000000006286
-0.4514,0.9523,0.0548,0.2927,0.3054,0.1008,0.0175,-2.2575,-5.2937,3.459955787093416,-25.36618198952159,-6.791421199985612,5.65400000000227
-0.4514,0.9523,0.0548,0.295,0.3048,0.0882,0.42,-1.925,-4.8738,3.3750962768094146,-25.358786542618915,-6.791421199985612,5.65400000000227
-0.4524,0.9539,0.0561,0.295,0.3048,0.0882,-0.0175,-1.7413,-4.655,3.3715872076292377,-25.358757396923867,-6.817540699997267,5.669000000008964
-0.4504,0.9549,0.0567,0.295,0.3048,0.0882,-0.0175,-1.5313,-5.1013,3.3815542739697273,-25.31388929590964,-6.817540699997267,5.669000000008964
-0.4479,0.9536,0.0563,0.2932,0.3053,0.0933,0.455,-1.5313,-5.1013,3.380121589304216,-25.25442394493971,-6.842041499991117,5.685000000004948
-0.4485,0.956,0.0512,0.2932,0.3053,0.0933,0.315,-1.6975,-5.0575,3.2282158586033707,-25.21069578390061,-6.842041499991117,5.685000000004948
-0.4485,0.956,0.0556,0.2923,0.3073,0.0974,0.4812,-1.8637,-5.39,3.2807656195532524,-25.162188406493556,-6.871860699997192,5.701000000008207
-0.4471,0.9558,0.0556,0.2923,0.3073,0.0974,0.4812,-1.8637,-5.39,3.3061471970496275,-25.107058894631436,-6.871860699997192,5.701000000008207
-0.4458,0.9565,0.0544,0.2936,0.307,0.0932,0.2713,-1.4875,-5.3637,3.282116516994252,-25.04347784962263,-6.894173199985503,5.716000000000349
-0.4465,0.9532,0.0503,0.2936,0.307,0.0932,0.0263,-1.3125,-5.2587,3.1795459054384767,-25.053014998153646,-6.894173199985503,5.716000000000349
-0.4493,0.9554,0.0536,0.2936,0.307,0.0932,-0.2975,-0.91,-4.585,3.1872163161116918,-25.059579351131287,-6.908733199988469,5.732000000003609
-0.4498,0.9546,0.0558,0.2938,0.3057,0.0967,-0.2975,-0.91,-4.585,3.2257166652212685,-25.06836989854423,-6.908733199988469,5.732000000003609
-0.4498,0.9546,0.0558,0.2938,0.3057,0.0967,-0.105,-0.9712,-4.5062,3.266348515519035,-25.084470149900568,-6.92330119999497,5.747000000010303
-0.4492,0.9551,0.0583,0.2938,0.3034,0.0933,-0.3762,-0.63,-4.6287,3.310683679918028,-25.086156078735325,-6.92330119999497,5.747000000010303
-0.4496,0.9519,0.0528,0.2938,0.3034,0.0933,0.1225,-0.9712,-5.145,3.2528250377589907,-25.139377394779252,-6.9388403999910695,5.763000000006286
-0.4515,0.9536,0.052,0.2938,0.3034,0.0933,0.1225,-0.9712,-5.145,3.1967926622539307,-25.19316777523904,-6.9388403999910695,5.763000000006286
-0.4513,0.9536,0.0536,0.2946,0.3052,0.1023,0.315,-1.1463,-5.1275,3.2066011452764345,-25.224621018060024,-6.957181199986466,5.77900000000227
-0.4513,0.9536,0.0547,0.2946,0.3052,0.1023,-0.2887,-0.6737,-5.2762,3.2255787720476135,-25.249610184896554,-6.957181199986466,5.77900000000227
-0.4519,0.954,0.0547,0.2938,0.3051,0.0936,-0.4638,-1.085,-5.4862,3.233119343126211,-25.277033798248976,-6.973456199985835,5.794000000001688
-0.4538,0.955,0.0548,0.2938,0.3051,0.0936,-0.4638,-1.085,-5.4862,3.2399883926636583,-25.323640959552428,-6.973456199985835,5.794000000001688
-0.4578,0.9539,0.0524,0.2938,0.3051,0.0936,-0.1488,-1.365,-5.53,3.20934983354509,-25.454300987199982,-6.995296199990284,5.810000000004948
-0.4579,0.9546,0.0558,0.2922,0.3058,0.0941,-0.1925,-1.3475,-5.4513,3.2500329333546993,-25.513471916554458,-7.015508699989499,5.825000000004366
-0.457,0.9537,0.0581,0.2922,0.3058,0.0941,0.3063,-0.9712,-5.7663,3.3635487250141733,-25.538880984844997,-7.015508699989499,5.825000000004366
-0.457,0.9537,0.0581,0.2926,0.3058,0.0952,0.3063,-0.9712,-5.7663,3.4224989502451373,-25.550922780693075,-7.031047899985598,5.841000000000349
-0.4563,0.9526,0.0558,0.2926,0.3058,0.0952,-0.0263,-1.4,-5.1275,3.3963878081110743,-25.552688270756544,-7.031047899985598,5.841000000000349
-0.4532,0.9541,0.054,0.2926,0.3058,0.0952,-0.0613,-1.89,-4.9088,3.3401472325535866,-25.51632422102696,-7.0612878999917585,5.857000000003609
-0.4534,0.9548,0.0578,0.2925,0.307,0.0854,-0.0613,-1.89,-4.6813,3.3845935100496027,-25.512519424026227,-7.0612878999917585,5.857000000003609
-0.4507,0.9531,0.061,0.2925,0.307,0.0854,-0.5163,-2.0738,-4.6813,3.410505913807855,-25.50642132286729,-7.092394899990551,5.872000000003027
-0.4507,0.9531,0.061,0.2908,0.3043,0.0945,-0.14,-2.135,-4.4713,3.492003730683721,-25.46846387077443,-7.092394899990551,5.872000000003027
-0.453,0.9534,0.057,0.2908,0.3043,0.0945,0.49,-1.26,-4.8475,3.4548799043411895,-25.453415022228715,-7.112554899994659,5.888000000006286
-0.4523,0.9535,0.0555,0.2908,0.3039,0.0943,0.49,-1.26,-4.8475,3.38985294622547,-25.43523390806942,-7.112554899994659,5.888000000006286
-0.4496,0.9518,0.0575,0.2944,0.3039,0.0943,-0.035,-1.8463,-4.8038,3.414670318466497,-25.410677663268228,-7.140249399993584,5.903000000005704
-0.4471,0.9532,0.0595,0.2944,0.3039,0.0943,-0.4112,-2.17,-4.585,3.441746321078693,-25.389102523584437,-7.140249399993584,5.903000000005704
-0.4482,0.9503,0.059,0.293,0.305,0.1009,0.21,-1.6275,-4.3488,3.492040742988962,-25.34651074784689,-7.166289399987047,5.919000000001688
-0.4482,0.9503,0.059,0.293,0.305,0.1009,0.21,-1.6275,-4.3488,3.5195342347874328,-25.313933957144577,-7.166289399987047,5.919000000001688
-0.4511,0.9521,0.0576,0.293,0.3061,0.0975,-0.3413,-1.3038,-4.2787,3.5070294741674943,-25.313095998971033,-7.187150199991297,5.935000000004948
-0.4524,0.9523,0.0587,0.293,0.3061,0.0975,-0.6037,-1.2513,-4.5588,3.507340677386731,-25.318010869243032,-7.187150199991297,5.935000000004948
-0.4534,0.952,0.0579,0.293,0.3061,0.0975,-0.3675,-1.4088,-4.9788,3.501921932076456,-25.34424626016895,-7.209690999985639,5.951000000000931
-0.4572,0.9531,0.0544,0.293,0.3066,0.0882,-0.3675,-1.4088,-4.9788,3.454608140228227,-25.40433536671536,-7.209690999985639,5.951000000000931
-0.4572,0.9531,0.0544,0.293,0.3066,0.0882,-0.455,-1.785,-5.3025,3.4280916432941835,-25.477463062656383,-7.2382509999914575,5.967000000004191
-0.4623,0.9556,0.0506,0.2926,0.3068,0.0955,-0.2625,-2.1525,-5.6,3.3236736582010686,-25.626943310844204,-7.2382509999914575,5.967000000004191
-0.4589,0.9529,0.0523,0.2926,0.3068,0.0955,-0.245,-2.1175,-5.6875,3.2740640856951657,-25.65438009757787,-7.270013500005632,5.982000000010885
-0.454,0.9512,0.0554,0.2926,0.3068,0.0955,-0.245,-2.1175,-5.6875,3.290189288606976,-25.56436007966051,-7.270013500005632,5.982000000010885
-0.4518,0.9534,0.0553,0.2938,0.3056,0.0946,-0.3237,-2.9225,-5.2675,3.2969008368562336,-25.470996393504166,-7.316773499993895,5.9980000000068685
-0.4526,0.9518,0.0511,0.2938,0.3056,0.0946,0.1138,-2.2838,-5.1013,3.2022448361980542,-25.449148988711826,-7.316773499993895,5.9980000000068685
-0.4526,0.9518,0.0511,0.2934,0.3056,0.0954,0.1138,-0.0437,-5.04,3.1476289145987093,-25.435535226171186,-7.317472699993719,6.014000000002852
-0.4512,0.9515,0.0552,0.2934,0.3056,0.0954,0.2013,-2.03,-5.04,3.2254205181172804,-25.407098108504787,-7.317472699993719,6.014000000002852
-0.4481,0.9559,0.06,0.2934,0.3056,0.0954,0.2713,-2.135,-5.04,3.397933778507121,-25.31434151083477,-7.349497699992477,6.02900000000227
-0.4412,0.9572,0.0579,0.2926,0.3069,0.1002,0.525,-1.9775,-4.6725,3.4318786708972877,-25.30460902317512,-7.349497699992477,6.02900000000227
-0.4408,0.9523,0.0573,0.2926,0.3069,0.1002,0.525,-1.9775,-4.6725,3.437996173842163,-25.296513000794754,-7.381137699998923,6.04500000000553
-0.4408,0.9523,0.0573,0.2914,0.3081,0.1026,0.3063,-1.4612,-4.7512,3.4405659110019573,-25.25336101144951,-7.381137699998923,6.04500000000553
-0.4418,0.9562,0.0591,0.2914,0.3081,0.1026,-0.6913,-1.1025,-4.1038,3.4470269610698354,-25.076778852405276,-7.397675199998281,6.060000000004948
-0.4449,0.9578,0.0597,0.2914,0.3081,0.0821,-1.1638,-0.9363,-4.2787,3.4891984305429737,-25.020806824425545,-7.397675199998281,6.060000000004948
-0.4426,0.955,0.0567,0.2895,0.3068,0.0981,-1.1638,-0.9363,-4.2787,3.4569636955641836,-24.96774313738513,-7.41265599999452,6.076000000000931
-0.4469,0.9525,0.056,0.2895,0.3068,0.0981,-1.0237,-0.3413,-4.41,3.4303964439794474,-24.993348073432255,-7.41265599999452,6.076000000000931
-0.4626,0.9478,0.0586,0.2944,0.3059,0.0932,-1.2513,-0.35,-4.9262,3.4720443001812935,-25.201585096547134,-7.418255999995661,6.092000000004191
-0.453,0.9478,0.0586,0.2944,0.3059,0.0932,-0.35,-0.5775,-5.25,3.486026926681283,-25.31384885121479,-7.418255999995661,6.092000000004191
-0.4557,0.9487,0.0576,0.2928,0.3034,0.0881,-0.35,-0.5775,-5.25,3.483566080635274,-25.4263396294809,-7.426918499995325,6.107000000003609
-0.4562,0.9481,0.0569,0.2928,0.3034,0.0881,0.4462,-0.7613,-6.02,3.4582410871778566,-25.558482629210374,-7.426918499995325,6.107000000003609
-0.455,0.9538,0.0548,0.2928,0.3034,0.0881,0.3237,-1.2513,-6.5625,3.3757522053508753,-25.4980201812401,-7.4469392999994035,6.1230000000068685
-0.4551,0.959,0.0542,0.2932,0.3062,0.094,0.3675,-1.3125,-6.3,3.3057217922553646,-25.40700057760204,-7.4469392999994035,6.1230000000068685
-0.4551,0.959,0.0542,0.2932,0.3062,0.094,0.3675,-1.3125,-6.3,3.2704743225056934,-25.372572658246607,-7.4666267999986395,6.138000000006286
-0.4525,0.9644,0.055,0.2937,0.3074,0.0909,0.6212,-1.2163,-6.3263,3.266922073563005,-25.20232666187979,-7.4666267999986395,6.138000000006286
-0.4497,0.9652,0.054,0.2937,0.3074,0.0909,-0.56,-1.4262,-6.2038,3.263296919335113,-25.0473482228157,-7.4894459999929115,6.15400000000227
-0.4527,0.9611,0.0553,0.2937,0.3074,0.0909,-0.56,-1.6975,-6.16,3.26496403352548,-25.130035527813124,-7.4894459999929115,6.15400000000227
-0.4538,0.9563,0.0581,0.2933,0.3075,0.083,-1.3475,-1.6975,-6.16,3.354193434305706,-25.259279142624347,-7.516605999998445,6.17000000000553
-0.4538,0.9499,0.0591,0.2933,0.3075,0.083,-1.5925,-1.645,-6.055,3.4557900981712004,-25.39521137270929,-7.516605999998445,6.17000000000553
-0.4537,0.9499,0.0591,0.2954,0.3074,0.0952,-1.7938,-1.3913,-6.2387,3.512176808294817,-25.451754775128457,-7.538866799992857,6.186000000001513
-0.4532,0.9461,0.0592,0.2954,0.3074,0.0952,-1.7938,-1.3913,-6.2387,3.5490696023556643,-25.513012451281227,-7.538866799992857,6.186000000001513
-0.4572,0.9464,0.0606,0.2954,0.3074,0.0952,-1.2862,-1.9775,-6.5712,3.594957929208253,-25.66148528702871,-7.570506799999303,6.202000000004773
-0.4524,0.9444,0.0618,0.2931,0.3058,0.0995,-0.875,-1.3212,-6.58,3.625306521163185,-25.58704904067068,-7.570506799999303,6.202000000004773
-0.449,0.9467,0.0647,0.2931,0.3058,0.0995,-1.0237,-0.9538,-6.5188,3.7071856427539003,-25.414823880686768,-7.584813799998748,6.217000000004191
-0.449,0.9467,0.0647,0.2945,0.3066,0.0865,-1.0237,-0.9538,-6.5188,3.7654883670118933,-25.354659420257672,-7.584813799998748,6.217000000004191
-0.4512,0.9509,0.0622,0.2945,0.3066,0.0865,-0.7875,-0.6212,-6.4488,3.7621764504581745,-25.343258634173736,-7.594752999996253,6.233000000000175
-0.4532,0.9518,0.0636,0.2945,0.3066,0.0865,-0.6562,-0.4725,-6.1163,3.7643349653676093,-25.384040291867574,-7.594752999996253,6.233000000000175
-0.4509,0.9512,0.0663,0.2954,0.307,0.097,-0.9887,0.4375,-5.7925,3.824437314466863,-25.344013623375556,-7.5877529999948266,6.249000000003434
-0.4527,0.9517,0.0627,0.2954,0.307,0.097,-0.9887,0.4375,-5.7925,3.809569694832798,-25.369097580216305,-7.581190499995081,6.264000000002852
-0.4527,0.9521,0.063,0.293,0.3065,0.0974,-0.7088,0.875,-5.32,3.807610550534141,-25.374017131964624,-7.581190499995081,6.264000000002852
-0.4557,0.9521,0.063,0.293,0.3065,0.0974,-0.7525,1.0675,-4.8475,3.8050372972555566,-25.39878786168985,-7.564110499991601,6.280000000006112
-0.4557,0.9503,0.0647,0.2945,0.308,0.0931,-0.7088,0.9013,-4.5413,3.8124178561409705,-25.4161919642224,-7.564110499991601,6.280000000006112
-0.4563,0.9473,0.0619,0.2945,0.308,0.0931,-0.7088,0.9013,-4.5413,3.8063550256280236,-25.442531780743398,-7.5505909999986836,6.294999999998254
-0.4567,0.9499,0.0569,0.2945,0.308,0.0931,-0.1838,0.7175,-4.2787,3.6915605228518733,-25.495996753276692,-7.5505909999986836,6.294999999998254
-0.4521,0.9548,0.0601,0.2934,0.3065,0.0922,0.1312,1.0938,-4.0075,3.6530498354350316,-25.416467618740572,-7.533090199995118,6.311000000001513
-0.4521,0.9548,0.0601,0.2934,0.3065,0.0922,0.0525,0.8138,-3.9288,3.6324301411887,-25.364843340115492,-7.533090199995118,6.311000000001513
-0.4532,0.9534,0.0558,0.2934,0.3061,0.0968,0.0525,0.8138,-3.9288,3.5187550127579725,-25.373827437906947,-7.520069399992465,6.327000000004773
-0.4536,0.9556,0.0569,0.2934,0.3061,0.0968,-0.7,0.0088,-4.3137,3.5104552813027072,-25.368588955871303,-7.520069399992465,6.327000000004773
-0.4505,0.9541,0.0591,0.2934,0.3061,0.0968,-0.63,-0.315,-4.4713,3.5108155812883735,-25.347439138268935,-7.524794399992282,6.342000000004191
-0.4524,0.9542,0.0598,0.2962,0.3055,0.1059,-0.63,-0.315,-4.7863,3.511610560226674,-25.344610359186106,-7.524794399992282,6.342000000004191
-0.4524,0.9542,0.0575,0.2962,0.3055,0.1059,-0.8225,-0.7262,-4.7863,3.5009477882897273,-25.342483521973485,-7.536413599994649,6.358000000007451
-0.4563,0.955,0.0575,0.294,0.3057,0.095,-0.4725,-0.7525,-5.425,3.4938601686842667,-25.41017103693949,-7.536413599994649,6.358000000007451
-0.4559,0.9547,0.0595,0.294,0.3057,0.095,-0.6562,-1.0237,-5.845,3.496434746560025,-25.449627579929103,-7.551769099986605,6.3729999999995925
-0.4606,0.9538,0.0607,0.294,0.3057,0.095,-0.6562,-1.0237,-5.845,3.501590871307134,-25.602484549243663,-7.551769099986605,6.3729999999995925
-0.4639,0.9518,0.0538,0.2934,0.3098,0.0839,-0.0437,-1.5925,-6.4488,3.404260021580146,-25.82445003376434,-7.577249099991796,6.389000000002852
-0.4659,0.9527,0.0589,0.2934,0.3098,0.0839,-0.28,-2.0825,-6.965,3.438084670543597,-25.958784222086166,-7.577249099991796,6.389000000002852
-0.4659,0.9527,0.0589,0.2941,0.3079,0.0948,-0.4112,-2.7912,-6.9913,3.4552569532809434,-25.999522290990253,-7.621908300000895,6.405000000006112
-0.4648,0.9501,0.0612,0.2941,0.3079,0.0948,-0.4112,-2.7912,-6.9913,3.494933318263243,-26.014997826566656,-7.621908300000895,6.405000000006112
-0.4658,0.949,0.0564,0.2941,0.3079,0.0948,-0.21,-3.3075,-6.6238,3.467693225630861,-26.07359206248132,-7.671520799998969,6.42000000000553
-0.4643,0.9504,0.0575,0.2935,0.3079,0.091,-0.1663,-3.5175,-6.5275,3.465987628206584,-26.022822146759168,-7.671520799998969,6.42000000000553
-0.4629,0.9508,0.0608,0.2935,0.3079,0.091,-0.385,-3.5525,-6.02,3.50260266194099,-25.959634073023718,-7.728360800010549,6.436000000008789
-0.4629,0.9508,0.0583,0.295,0.3061,0.0882,-0.385,-3.5525,-6.02,3.503779160013775,-25.93503375212755,-7.728360800010549,6.436000000008789
-0.4595,0.9499,0.0583,0.295,0.3061,0.0882,-0.1838,-3.7187,-5.5912,3.506308524828392,-25.856491565356297,-7.784141299981327,6.451000000000931
-0.4569,0.9508,0.0595,0.2943,0.3065,0.0999,-0.14,-4.06,-4.9525,3.5304565857038903,-25.803030902583778,-7.784141299981327,6.451000000000931
-0.4501,0.9506,0.0605,0.2943,0.3065,0.0999,0.0,-3.3863,-4.5763,3.5729725395952205,-25.765234256756607,-7.838322099992365,6.467000000004191
-0.4505,0.9481,0.0588,0.2943,0.3065,0.0999,0.0,-3.3863,-4.5763,3.56375383029846,-25.73617710804769,-7.838322099992365,6.467000000004191
-0.4468,0.9495,0.0575,0.2939,0.3088,0.092,0.0875,-3.08,-4.2787,3.5230639157399826,-25.578155107101974,-7.887602100002405,6.483000000007451
-0.4468,0.9495,0.0575,0.2939,0.3088,0.092,-0.1925,-3.0975,-3.9288,3.5058431039569213,-25.401892880035337,-7.887602100002405,6.483000000007451
-0.4466,0.9541,0.0614,0.2931,0.307,0.0941,-0.1925,-0.8575,-4.34,3.558576597065532,-25.3145061186364,-7.900464600001905,6.4980000000068685
-0.444,0.9513,0.0595,0.2931,0.307,0.0941,-0.1925,-2.1175,-4.34,3.564673853230741,-25.23342445058767,-7.900464600001905,6.4980000000068685
-0.4458,0.9512,0.0567,0.2931,0.307,0.0941,-0.035,-1.645,-4.41,3.508108306097089,-25.20155169589168,-7.926784599995298,6.514000000002852
-0.4459,0.9522,0.0594,0.2932,0.3077,0.1006,-0.1575,-1.2075,-4.3488,3.5275321238823976,-25.16597074549975,-7.926784599995298,6.514000000002852
-0.4459,0.9522,0.0594,0.2932,0.3077,0.1006,-0.1575,-1.2075,-4.3488,3.540819535805819,-25.13875626209691,-7.944897099994596,6.52900000000227
-0.4468,0.9521,0.0616,0.2954,0.306,0.0932,-0.2537,-0.735,-4.9262,3.5839259399861145,-25.12916977206429,-7.944897099994596,6.52900000000227
-0.4504,0.9525,0.0598,0.2954,0.306,0.0932,0.4462,-0.0613,-5.2238,3.5883166262409905,-25.1780281868259,-7.945877899994795,6.54500000000553
-0.4541,0.9543,0.0561,0.2954,0.306,0.0932,0.7613,0.2625,-5.0487,3.4584284515347514,-25.2431104848317,-7.945877899994795,6.54500000000553
-0.4523,0.9539,0.0548,0.2947,0.3073,0.0922,0.7613,0.2625,-5.0487,3.359552354162884,-25.268123345044636,-7.94167789999394,6.561000000008789
-0.4537,0.9579,0.0553,0.2947,0.3073,0.0922,0.4638,-0.28,-5.4862,3.330690688979459,-25.285875222092518,-7.94167789999394,6.561000000008789
-0.4537,0.9579,0.0553,0.295,0.3078,0.0956,0.3588,-0.1925,-5.8625,3.3175146722451916,-25.297569318601944,-7.9445653999924275,6.576000000000931
-0.4551,0.9579,0.0561,0.295,0.3078,0.0956,0.2537,-0.2975,-5.6,3.3334643319732824,-25.334909977883278,-7.9445653999924275,6.576000000000931
-0.453,0.9557,0.0594,0.295,0.3078,0.0956,0.2537,-0.2975,-5.6,3.43744631071906,-25.326767193694316,-7.9493253999933975,6.592000000004191
-0.4518,0.9554,0.0615,0.2944,0.3094,0.096,0.28,-0.4025,-5.5388,3.553763266141234,-25.297009004948183,-7.955362899993164,6.607000000003609
-0.4531,0.9536,0.0568,0.2944,0.3094,0.096,-0.07,-0.735,-6.0113,3.502338931421829,-25.342041678062976,-7.955362899993164,6.607000000003609
-0.4531,0.9536,0.0568,0.2957,0.308,0.0905,-0.4375,-0.8138,-5.845,3.4879365330573795,-25.36009109782311,-7.968383699995816,6.6230000000068685
-0.4488,0.9514,0.0636,0.2957,0.308,0.0905,-0.4375,-0.8138,-5.845,3.53971114603606,-25.275972306903817,-7.968383699995816,6.6230000000068685
-0.449,0.9463,0.0595,0.2957,0.308,0.0983,-0.455,-0.455,-5.67,3.5479120486899713,-25.308020563769723,-7.975663699997299,6.639000000010128
-0.4515,0.947,0.0623,0.2943,0.3086,0.0983,0.0088,-0.56,-5.5388,3.6312299980098492,-25.370981564447273,-7.975663699997299,6.639000000010128
-0.4543,0.9468,0.0631,0.2943,0.3086,0.0983,0.0088,-0.4112,-4.9963,3.70130576445452,-25.424901340531047,-7.981831699994068,6.65400000000227
-0.4552,0.9458,0.0636,0.294,0.306,0.0947,0.5512,-0.4112,-4.9963,3.779899452415963,-25.482120201259526,-7.981831699994068,6.65400000000227
-0.4552,0.9458,0.0636,0.294,0.306,0.0947,0.385,-0.7,-4.9262,3.8135439250732985,-25.517888056444814,-7.993031699996349,6.67000000000553
-0.4586,0.9474,0.06,0.2951,0.3063,0.0912,1.2775,-0.6737,-5.2937,3.689282489760449,-25.62183674557052,-7.993031699996349,6.67000000000553
-0.4575,0.9473,0.054,0.2951,0.3063,0.0912,1.2775,-0.6737,-5.2937,3.4098701158235416,-25.66858306315934,-8.003137199995956,6.685000000004948
-0.4598,0.9491,0.057,0.2951,0.3063,0.0912,1.8637,-0.6737,-5.075,3.429124243593049,-25.709685913994385,-8.003137199995956,6.685000000004948
-0.4578,0.9512,0.0543,0.2958,0.3074,0.0946,1.5662,-1.2513,-5.2413,3.3180509719666276,-25.693005015653775,-8.023158000000036,6.701000000008207
-0.4578,0.9512,0.0543,0.2958,0.3074,0.0946,1.7062,-1.75,-5.4775,3.2825111579153368,-25.68014854168311,-8.023158000000036,6.701000000008207
-0.4581,0.9527,0.0509,0.2947,0.3081,0.0922,1.7062,-1.75,-5.4775,3.1256792609266006,-25.665838632455728,-8.051157999993007,6.717000000004191
-0.4558,0.9568,0.0512,0.2947,0.3081,0.0922,1.505,-2.2138,-5.5825,3.083111638418824,-25.557427039463825,-8.051157999993007,6.717000000004191
-0.4549,0.9578,0.0489,0.2947,0.3081,0.0922,1.1638,-2.8087,-6.3088,2.980317945567332,-25.4444872610167,-8.093288499991372,6.732000000003609
-0.4521,0.9542,0.05,0.2942,0.3091,0.0906,0.6562,-3.4562,-6.405,2.9910986832566615,-25.366060982586944,-8.093288499991372,6.732000000003609
-0.4677,0.9526,0.0478,0.2942,0.3091,0.0906,0.6562,-3.4562,-6.405,2.924677975581109,-25.846519564729906,-8.148587700002638,6.7480000000068685
-0.4548,0.9526,0.0478,0.2946,0.3075,0.093,0.665,-3.0275,-6.1863,2.895400587007719,-25.63285956565021,-8.148587700002638,6.7480000000068685
-0.4504,0.953,0.0492,0.2946,0.3075,0.093,0.525,-3.01,-6.3,2.927394586217529,-25.40511909595676,-8.193737700000886,6.763000000006286
-0.4505,0.9547,0.0514,0.2946,0.3075,0.093,0.5688,-2.8,-6.195,3.011216532670201,-25.298682025915074,-8.193737700000886,6.763000000006286
-0.4519,0.9498,0.0508,0.2945,0.3071,0.0917,0.5688,-2.8,-6.195,3.038543941890014,-25.367753513215256,-8.238537700010014,6.779000000009546
-0.4555,0.9515,0.0481,0.2945,0.3071,0.0917,0.4288,-2.73,-6.2562,2.9645427407503027,-25.48163007102253,-8.238537700010014,6.779000000009546
-0.4555,0.9515,0.0481,0.2953,0.3062,0.0947,0.0525,-2.6425,-6.6675,2.93617066273864,-25.52916825319513,-8.2808176999994,6.79500000000553
-0.4526,0.958,0.0487,0.2953,0.3062,0.0947,-0.3938,-2.625,-7.0175,2.931378660062586,-25.339728113339614,-8.2808176999994,6.79500000000553
-0.451,0.955,0.0539,0.2953,0.3062,0.0947,-0.3938,-2.625,-7.0175,2.9863926998677037,-25.272424488391863,-8.320192699997872,6.810000000004948
-0.4505,0.9537,0.0482,0.2957,0.3079,0.0973,-0.49,-2.0738,-7.1225,2.9757286824946374,-25.261071658911657,-8.320192699997872,6.810000000004948
-0.4583,0.959,0.0475,0.2957,0.3079,0.0973,-1.225,-1.4438,-6.8513,2.9228654813278943,-25.435896121788648,-8.343293500002577,6.826000000008207
-0.4583,0.962,0.0511,0.2938,0.31,0.0943,-1.225,-1.4438,-6.6588,2.9672793566962112,-25.43993914563541,-8.343293500002577,6.826000000008207
-0.4559,0.962,0.0511,0.2938,0.31,0.0943,-1.3563,-1.0588,-6.6588,2.998391984848111,-25.363579277451525,-8.35917550000196,6.841000000007625
-0.4565,0.9551,0.0535,0.2961,0.3106,0.099,-2.0213,-0.8225,-6.6062,3.1196129180483996,-25.4610609348963,-8.35917550000196,6.841000000007625
-0.4621,0.948,0.0492,0.2961,0.3106,0.099,-2.3625,-0.8575,-6.51,3.025120138253423,-25.782861575079178,-8.372895499998517,6.857000000003609
-0.4683,0.9454,0.0544,0.2961,0.3106,0.099,-2.3625,-0.8575,-6.51,3.1955182975804597,-26.127672873951013,-8.372895499998517,6.857000000003609
-0.4687,0.9462,0.0534,0.2953,0.3094,0.0938,-1.1375,-0.7437,-6.1775,3.207333089317002,-26.240875503460423,-8.38479469999553,6.8729999999995925
-0.4687,0.9462,0.0534,0.2953,0.3094,0.0938,-0.9625,-0.6475,-6.2213,3.2131585875281776,-26.286278469766227,-8.38479469999553,6.8729999999995925
-0.4648,0.9504,0.0539,0.2955,0.3067,0.0923,-0.945,-0.4025,-5.9325,3.2212110909562104,-26.139778448077955,-8.390832199998224,6.888000000006286
-0.4659,0.9555,0.0545,0.2955,0.3067,0.0923,-0.945,-0.4025,-5.9325,3.231848557739035,-26.037374469147164,-8.390832199998224,6.888000000006286
-0.4619,0.9586,0.0575,0.2955,0.3067,0.0923,-0.945,-0.28,-5.8012,3.2811861112048284,-25.850245759439957,-8.395312199999136,6.904000000009546
-0.4634,0.9582,0.0545,0.2949,0.3097,0.0933,-1.12,0.175,-5.2063,3.2725603128109575,-25.822785640170874,-8.395312199999136,6.904000000009546
-0.4634,0.9582,0.0559,0.2949,0.3097,0.0933,-1.3212,0.1312,-5.04,3.2998655092076454,-25.80841873478727,-8.393344200000167,6.919000000001688
-0.4656,0.9601,0.0559,0.2953,0.309,0.0961,-1.3212,0.1312,-5.04,3.3131908618011763,-25.815235456690658,-8.393344200000167,6.919000000001688
-0.467,0.9574,0.059,0.2953,0.309,0.0961,-1.5488,-0.0525,-5.2937,3.4159021721420406,-25.87136087874367,-8.394184200000337,6.935000000004948
-0.4693,0.953,0.0593,0.2953,0.309,0.0961,-1.9512,0.0263,-5.0138,3.4985557499571005,-25.951035152737216,-8.394184200000337,6.935000000004948
-0.4674,0.9498,0.0617,0.2948,0.3093,0.0883,-2.38,-0.7788,-5.0662,3.6377271844871117,-26.010109569104635,-8.406644999997209,6.951000000000931
-0.4681,0.9453,0.0572,0.2948,0.3093,0.0883,-2.38,-0.7788,-5.0662,3.526125102038423,-26.09509438546958,-8.418327000002423,6.966000000007625
-0.4681,0.9453,0.0572,0.2962,0.3094,0.089,-2.0213,-0.9013,-5.1712,3.489128280351691,-26.165558119091234,-8.421932199996599,6.970000000001164
-0.4662,0.9439,0.0634,0.2962,0.3094,0.089,-1.2163,-0.875,-4.7688,3.621291646738636,-26.172481154635353,-8.421932199996599,6.970000000001164
-0.4645,0.9428,0.063,0.2962,0.3094,0.089,-1.2163,-0.875,-4.3225,3.696674553399502,-26.17387283172856,-8.435932199999451,6.986000000004424
-0.4609,0.9435,0.0622,0.2958,0.3094,0.0982,-1.3475,-1.155,-4.3225,3.728308927990794,-26.127002405814324,-8.435932199999451,6.986000000004424
