AcclX,AcclY,AcclZ,MagX,MagY,MagZ,GyroX,GyroY,GyroZ,Roll,Pitch,Yaw,Time Elapsed(s)
-0.2542,1.0463,-0.1227,0.2303,0.2304,0.0522,1.4963,-6.2387,-4.6725,0,0,0,0.0
-0.2596,1.0376,-0.1174,0.229,0.2318,0.0539,-0.8925,-7.5512,-6.335,0,0,0,0.01600000000325963
-0.2596,1.0376,-0.1157,0.229,0.2318,0.0539,-3.2638,-8.2863,-7.49,0,0,0,0.01600000000325963
-0.2655,1.0192,-0.1157,0.2288,0.2332,0.0502,-4.7425,-8.4263,-8.5575,0,0,0,0.031000000002677552
-0.2718,1.0113,-0.1109,0.2288,0.2332,0.0502,-4.7425,-8.4263,-8.5575,0,0,0,0.031000000002677552
-0.2754,1.0102,-0.1092,0.2288,0.2332,0.0502,-6.4138,-8.5487,-9.1525,0,0,0,0.046999999998661224
-0.2749,1.0028,-0.1031,0.229,0.2335,0.0573,-7.0262,-8.505,-9.1525,0,0,0,0.046999999998661224
-0.2776,0.9956,-0.1049,0.229,0.2335,0.0573,-7.2625,-8.5487,-8.6012,0,0,0,0.06300000000192085
-0.2776,0.9956,-0.1049,0.2306,0.2337,0.0522,-7.2625,-8.5487,-8.6012,0,0,0,0.06300000000192085
-0.2792,0.9905,-0.1003,0.2306,0.2337,0.0522,-7.1225,-8.9075,-7.8138,0,0,0,0.07800000000133878
-0.2761,0.9808,-0.0961,0.2306,0.2337,0.0522,-6.5887,-8.68,-7.2013,0,0,0,0.07800000000133878
-0.2671,0.9739,-0.097,0.2284,0.2282,0.0418,-6.5887,-8.68,-6.5712,0,0,0,0.0940000000045984
-0.2598,0.9779,-0.0917,0.2284,0.2282,0.0418,-5.5125,-8.68,-6.5712,0,0,0,0.0940000000045984
-0.2598,0.9779,-0.0828,0.2318,0.2321,0.0517,-4.6025,-7.8925,-5.6087,0,0,0,0.10899999999674037
-0.2497,0.9914,-0.0828,0.2318,0.2321,0.0517,-4.1125,-7.6038,-4.9175,0,0,0,0.10899999999674037
-0.2419,1.0034,-0.085,0.2303,0.2323,0.0533,-4.1125,-7.6038,-4.9175,0,0,0,0.125
-0.2384,1.0099,-0.0839,0.2303,0.2323,0.0533,-4.7075,-6.0287,-4.0075,0,0,0,0.125
-0.2398,1.0095,-0.0813,0.2303,0.2323,0.0533,-4.8038,-4.8825,-3.6662,0,0,0,0.14100000000325963
-0.2419,1.0069,-0.08,0.2294,0.2332,0.055,-5.4163,-3.4125,-4.0775,0,0,0,0.14100000000325963
-0.2419,1.0069,-0.08,0.2294,0.2332,0.055,-5.4163,-3.4125,-4.0775,0,0,0,0.15600000000267755
-0.2477,1.0028,-0.079,0.2306,0.233,0.055,-6.02,-2.1788,-4.2088,0,0,0,0.15600000000267755
-0.2509,1.0041,-0.0769,0.2306,0.233,0.055,-6.2737,-1.0325,-4.7863,0,0,0,0.17200000000593718
-0.2546,1.0009,-0.0755,0.2306,0.233,0.055,-5.6613,-0.6212,-4.9875,0,0,0,0.17200000000593718
-0.2557,0.9981,-0.0732,0.2314,0.2334,0.0527,-5.6613,-0.6212,-4.9875,0,0,0,0.18699999999807915
-0.2557,0.9981,-0.0726,0.2314,0.2334,0.0527,-5.3637,-0.4288,-6.195,0,0,0,0.18699999999807915
-0.2626,0.9982,-0.0726,0.2299,0.232,0.0565,-5.53,0.2625,-6.2125,0,0,0,0.20300000000133878
-0.2611,1.001,-0.0694,0.2299,0.232,0.0565,-5.0487,0.07,-5.9938,0,0,0,0.20300000000133878
-0.2611,1.0037,-0.0693,0.2299,0.232,0.0565,-5.0487,0.07,-5.9938,0,0,0,0.2190000000045984
-0.261,1.0033,-0.0671,0.2307,0.2328,0.0642,-4.725,1.1812,-6.1337,0,0,0,0.2190000000045984
-0.2675,1.0079,-0.0655,0.2307,0.2328,0.0642,-4.4887,1.3825,-6.0725,0,0,0,0.23400000000401633
-0.2675,1.0079,-0.0655,0.2308,0.2337,0.0589,-2.2487,1.47,-6.265,0,0,0,0.23400000000401633
-0.2674,1.0083,-0.0643,0.2308,0.2337,0.0589,-4.4012,1.47,-6.265,0,0,0,0.25
-0.2706,1.0052,-0.0642,0.2308,0.2337,0.0589,-4.1388,1.2163,-6.1075,0,0,0,0.25
-0.2733,1.0019,-0.0632,0.2279,0.233,0.0673,-3.2287,1.4438,-6.1512,0,0,0,0.2649999999994179
-0.273,1.0016,-0.0622,0.2279,0.233,0.0673,-3.2287,1.4438,-6.1512,0,0,0,0.2649999999994179
-0.273,1.0016,-0.0632,0.2286,0.2355,0.0602,-2.7912,1.6712,-5.7838,0,0,0,0.28100000000267755
-0.273,1.0033,-0.0632,0.2286,0.2355,0.0602,-1.9863,1.2337,-5.67,0,0,0,0.2970000000059372
-0.2737,1.0069,-0.0636,0.2286,0.2321,0.0594,-2.2138,0.6388,-5.9325,0,0,0,0.29800000000250293
-0.274,1.0062,-0.0659,0.2285,0.2321,0.0594,-2.2138,0.6388,-5.9325,0,0,0,0.29800000000250293
-0.2796,1.0049,-0.0654,0.2285,0.2321,0.0594,-2.5638,0.4988,-5.9412,0,0,0,0.31300000000192085
-0.2815,1.0063,-0.0658,0.231,0.2335,0.061,-1.5925,0.105,-6.2387,0,0,0,0.3290000000051805
-0.2815,1.0063,-0.0658,0.231,0.2335,0.061,-1.5488,-0.5512,-6.2213,0,0,0,0.3290000000051805
-0.281,1.0083,-0.0697,0.2308,0.2331,0.0615,-1.5488,-0.5512,-6.2213,0,0,0,0.34399999999732245
-0.2794,1.0091,-0.0725,0.2308,0.2331,0.0615,-1.19,-1.3038,-6.65,0,0,0,0.34399999999732245
-0.2793,1.0124,-0.0784,0.2308,0.2331,0.0615,-0.9887,-2.0038,-6.37,0,0,0,0.3600000000005821
-0.276,1.0142,-0.077,0.2305,0.2358,0.0545,-1.12,-1.96,-5.74,0,0,0,0.3600000000005821
-0.276,1.0142,-0.077,0.2305,0.2358,0.0545,-1.12,-1.96,-5.74,0,0,0,0.3760000000038417
-0.2712,1.017,-0.0753,0.2307,0.2335,0.0583,-0.9625,-2.5725,-5.4425,0,0,0,0.3760000000038417
-0.2668,1.0161,-0.078,0.2307,0.2335,0.0583,-1.26,-2.6775,-5.5388,0,0,0,0.39100000000325963
-0.2681,1.0152,-0.0777,0.2307,0.2335,0.0583,-1.61,-2.8087,-4.2175,0,0,0,0.39100000000325963
-0.2633,1.0145,-0.0741,0.2298,0.235,0.0626,-1.61,-2.8087,-4.2175,0,0,0,0.40700000000651926
-0.2598,1.0135,-0.0748,0.2298,0.235,0.0626,-1.89,-2.8525,-4.0425,0,0,0,0.40700000000651926
-0.2598,1.0135,-0.0748,0.2303,0.2346,0.0578,-1.995,-2.5988,-3.7975,0,0,0,0.4219999999986612
-0.2561,1.0136,-0.0741,0.2303,0.2346,0.0578,-1.995,-0.3588,-4.0425,0,0,0,0.4219999999986612
-0.2528,1.013,-0.0714,0.2303,0.2346,0.0578,-2.2838,-2.0825,-4.0425,0,0,0,0.43800000000192085
-0.252,1.0094,-0.0676,0.2308,0.2345,0.0616,-2.0738,-1.8112,-4.305,0,0,0,0.43800000000192085
-0.2493,1.0073,-0.067,0.2308,0.2345,0.0616,-1.82,-1.47,-5.0925,0,0,0,0.4540000000051805
-0.2493,1.0073,-0.067,0.2304,0.2341,0.0602,-1.82,-1.47,-5.0925,0,0,0,0.4540000000051805
-0.2473,1.004,-0.0704,0.2304,0.2341,0.0602,-2.625,-0.6562,-5.3025,0,0,0,0.4690000000045984
-0.251,1.0015,-0.0636,0.2304,0.2358,0.0604,-2.2225,-0.2013,-5.32,0,0,0,0.4690000000045984
-0.2501,1.0006,-0.0558,0.2299,0.2358,0.0604,-2.5113,0.0875,-5.6262,0,0,0,0.4850000000005821
-0.2519,0.9997,-0.0594,0.2299,0.2358,0.0604,-2.5113,0.0875,-5.6262,0,0,0,0.4850000000005821
-0.2576,0.9989,-0.0605,0.2298,0.2345,0.0584,-2.4938,0.9013,-5.9763,0,0,0,0.5
-0.2576,0.9989,-0.0605,0.2298,0.2345,0.0584,-2.3537,0.9538,-7.07,0,0,0,0.5
-0.2592,1.0006,-0.0561,0.2307,0.2347,0.0623,-1.6888,0.6475,-7.385,0,0,0,0.5160000000032596
-0.2609,1.0027,-0.0574,0.2307,0.2347,0.0623,-1.6888,0.6475,-7.385,0,0,0,0.5160000000032596
-0.2652,1.0069,-0.0553,0.2307,0.2347,0.0623,-1.505,0.8575,-6.895,0,0,0,0.5320000000065193
-0.2694,1.0077,-0.0622,0.2298,0.2347,0.0494,-0.5337,0.665,-7.4025,0,0,0,0.5320000000065193
-0.2694,1.0077,-0.0622,0.2298,0.2347,0.0494,-0.14,0.2713,-7.56,0,0,0,0.5469999999986612
-0.275,1.0121,-0.0628,0.2311,0.2345,0.0598,-0.14,0.2713,-7.56,0,0,0,0.5469999999986612
-0.275,1.0106,-0.0587,0.2311,0.2345,0.0598,-0.21,-0.1225,-7.4025,0,0,0,0.5630000000019209
-0.2772,1.0124,-0.0613,0.2311,0.2345,0.0598,-0.7175,-0.7088,-7.8313,0,0,0,0.5630000000019209
-0.2796,1.0157,-0.0637,0.2314,0.2356,0.0533,-0.7175,-1.19,-7.5075,0,0,0,0.5780000000013388
-0.2844,1.0204,-0.0665,0.2314,0.2356,0.0533,-0.9625,-1.19,-7.5075,0,0,0,0.5780000000013388
-0.2844,1.0204,-0.0665,0.234,0.2361,0.0604,-0.7262,-1.7413,-7.4113,0,0,0,0.5940000000045984
-0.289,1.024,-0.0675,0.234,0.2361,0.0604,-0.875,-2.8875,-7.7,0,0,0,0.5940000000045984
-0.291,1.0208,-0.0644,0.234,0.2361,0.0604,-0.875,-2.8875,-7.7,0,0,0,0.6100000000005821
-0.2916,1.0147,-0.0687,0.2311,0.2355,0.0629,-1.19,-4.0862,-7.5075,0,0,0,0.6100000000005821
-0.2941,1.0129,-0.0672,0.2311,0.2355,0.0629,-0.91,-4.9875,-7.875,0,0,0,0.625
-0.2941,1.0129,-0.0672,0.2326,0.235,0.049,-1.3212,-5.9325,-6.86,0,0,0,0.6410000000032596
-0.295,1.0095,-0.0647,0.2326,0.235,0.049,-1.3212,-5.9325,-6.86,0,0,0,0.6410000000032596
-0.2907,1.0106,-0.0672,0.2326,0.235,0.0694,-1.0762,-6.3875,-6.0375,0,0,0,0.6560000000026776
-0.2868,1.012,-0.0658,0.2322,0.2353,0.0646,-1.0412,-7.0525,-5.1013,0,0,0,0.6560000000026776
-0.2872,1.0111,-0.0673,0.2322,0.2353,0.0646,-0.8925,-7.3238,-4.3313,0,0,0,0.6720000000059372
-0.2872,1.0075,-0.0642,0.2328,0.2353,0.0612,-0.8925,-7.3238,-4.3313,0,0,0,0.6720000000059372
-0.2825,1.0075,-0.0642,0.2328,0.2353,0.0612,-0.3588,-7.98,-4.6375,0,0,0,0.6880000000019209
-0.2733,1.0068,-0.0631,0.2339,0.2386,0.063,-0.5163,-7.8488,-4.2787,0,0,0,0.6880000000019209
-0.2689,1.0028,-0.0645,0.2339,0.2386,0.063,-0.5775,-7.63,-3.7625,0,0,0,0.7030000000013388
-0.2674,1.0022,-0.0681,0.2339,0.2386,0.063,-0.5775,-7.63,-3.7625,0,0,0,0.7030000000013388
-0.2653,1.0009,-0.061,0.2322,0.2353,0.0689,-0.4112,-7.1312,-4.1038,0,0,0,0.7190000000045984
-0.2653,1.0009,-0.061,0.2322,0.2353,0.0689,-0.6737,-6.3525,-3.5263,0,0,0,0.7190000000045984
-0.2611,0.9999,-0.0637,0.2324,0.2369,0.0636,-0.14,-5.8275,-4.1737,0,0,0,0.7340000000040163
-0.2602,0.9975,-0.0643,0.2324,0.2369,0.0636,-0.14,-5.8275,-4.1737,0,0,0,0.7340000000040163
-0.26,0.9984,-0.0696,0.2324,0.2369,0.0636,-0.2625,-5.635,-3.92,0,0,0,0.750000000007276
-0.2595,1.0004,-0.0678,0.2312,0.2358,0.0685,0.175,-5.1537,-4.1825,0,0,0,0.750000000007276
-0.2595,1.0066,-0.0713,0.2312,0.2358,0.0685,0.175,-5.1537,-4.025,0,0,0,0.7659999999959837
-0.2615,1.0066,-0.0713,0.2324,0.2355,0.065,0.0613,-4.795,-4.025,0,0,0,0.7659999999959837
-0.2614,1.0079,-0.0677,0.2324,0.2355,0.065,-0.49,-4.9262,-4.0687,0,0,0,0.7810000000026776
-0.2587,1.0095,-0.0689,0.2324,0.2355,0.065,0.2275,-4.2263,-4.375,0,0,0,0.7810000000026776
-0.2614,1.0081,-0.0711,0.2314,0.2346,0.0686,0.2275,-4.2263,-4.375,0,0,0,0.7970000000059372
-0.2615,1.0136,-0.0703,0.2314,0.2346,0.0686,-1.3125,-3.9987,-4.2175,-2.028489297494024,-7.87437619976426,0.0,0.7970000000059372
-0.2615,1.0136,-0.0703,0.2322,0.239,0.0729,-1.645,-3.78,-4.6287,-2.8359882471970206,-10.767774092244961,-0.11717999998261802,0.8280000000013388
-0.2647,1.0157,-0.072,0.2322,0.239,0.0729,-1.5488,-4.0075,-4.935,-3.3813436711552467,-12.006884030620716,-0.11717999998261802,0.8280000000013388
-0.27,1.009,-0.0763,0.2322,0.239,0.0729,-1.5488,-4.0075,-4.935,-3.8033504543739722,-12.962338951447219,-0.18129999996652257,0.8439999999973224
-0.2732,1.0067,-0.0765,0.2297,0.2366,0.0619,-1.5838,-4.1475,-5.2587,-4.0400829440358565,-13.261948067108088,-0.18129999996652257,0.8439999999973224
-0.2763,1.0079,-0.0725,0.2297,0.2366,0.0619,-1.4,-4.865,-5.7925,-4.076407450859805,-13.815096164557298,-0.18129999996652257,0.8439999999973224
-0.2763,1.0108,-0.0725,0.2316,0.236,0.0724,-1.3212,-4.5588,-5.8187,-4.0897114344028145,-14.22576258452976,-0.18129999996652257,0.8439999999973224
-0.2758,1.0108,-0.0725,0.2316,0.236,0.0724,-1.3212,-4.5588,-5.8187,-4.096241160321356,-14.511440373050647,-0.24968199999703863,0.8590000000040163
-0.2722,1.0145,-0.075,0.2314,0.2358,0.066,-1.015,-4.865,-5.3637,-4.171822568183408,-14.53562144919121,-0.24968199999703863,0.8590000000040163
-0.2697,1.0195,-0.0694,0.2314,0.2358,0.066,-0.6475,-4.4538,-5.355,-3.996640750612993,-14.550418358440483,-0.3209427999791507,0.875
-0.2687,1.0219,-0.0686,0.2314,0.2358,0.066,-1.435,-4.6813,-5.4338,-3.921666832740207,-14.55273722424902,-0.3209427999791507,0.875
-0.266,1.0225,-0.0655,0.2318,0.2364,0.0704,-1.435,-4.6813,-5.4338,-3.7985633998729615,-14.552749480246167,-0.39584359999441,0.8910000000032596
-0.266,1.0225,-0.0655,0.2318,0.2364,0.0704,-1.9775,-4.2438,-5.5475,-3.761782914945563,-14.552838860036601,-0.39584359999441,0.8910000000032596
-0.2665,1.0237,-0.0651,0.2322,0.2346,0.0675,-2.4675,-3.5788,-6.1075,-3.7497006183249373,-14.55729979548781,-0.45310440000607555,0.9070000000065193
-0.2669,1.0214,-0.0634,0.2322,0.2346,0.0675,-3.0275,-3.4825,-6.615,-3.6704200249482293,-14.590080018456629,-0.45310440000607555,0.9070000000065193
-0.2663,1.014,-0.0572,0.2322,0.2346,0.0675,-3.0275,-3.4825,-6.615,-3.4933642255671002,-14.645916094553476,-0.5088243999920887,0.9230000000025029
-0.2657,1.0102,-0.0572,0.2324,0.2384,0.0742,-2.8612,-2.9137,-6.65,-3.408879252254898,-14.683209368488447,-0.5088243999920887,0.9230000000025029
-0.2657,1.0078,-0.0562,0.2324,0.2384,0.0742,-3.5263,-2.415,-6.685,-3.2919423472667297,-14.719236312695061,-0.545049399990683,0.9380000000019209
-0.2683,1.0078,-0.0562,0.2309,0.2366,0.0671,-3.5263,-0.175,-6.0725,-3.2379959762927264,-14.785045657833967,-0.545049399990683,0.9380000000019209
-0.2687,1.0077,-0.0522,0.2309,0.2366,0.0671,-3.3863,-1.3563,-6.0725,-3.0998067297109815,-14.834968510220543,-0.566750199995104,0.9540000000051805
-0.268,1.0077,-0.0496,0.2309,0.2366,0.0671,-3.1063,-0.525,-5.2238,-2.9791980795254616,-14.841640496816277,-0.566750199995104,0.9540000000051805
-0.2629,1.0042,-0.0479,0.2326,0.237,0.0668,-3.1762,0.49,-4.0512,-2.8675200480365572,-14.733771347445371,-0.5594001999953893,0.9690000000045984
-0.2652,1.0055,-0.048,0.2326,0.237,0.0668,-3.1762,0.49,-4.0512,-2.8070473406818675,-14.748445076862094,-0.5594001999953893,0.9690000000045984
-0.2652,1.0055,-0.048,0.2318,0.2366,0.0682,-3.08,1.715,-3.0888,-2.7760501910141073,-14.755955759294647,-0.531960199989799,0.985000000007858
-0.265,1.0067,-0.0464,0.2318,0.2366,0.0682,-2.5812,2.7475,-2.765,-2.7510950702348795,-14.739142695154642,-0.531960199989799,0.985000000007858
-0.2668,1.0056,-0.0443,0.2318,0.2366,0.0682,-2.3363,3.7013,-2.8263,-2.7460965112970097,-14.81573545597071,-0.4727394000315952,1.0009999999965657
-0.2705,1.0053,-0.0482,0.2322,0.2353,0.0693,-2.3363,3.7013,-2.8263,-2.746072428300591,-14.980167624034978,-0.4727394000315952,1.0009999999965657
-0.2772,1.0038,-0.0485,0.2322,0.2353,0.0693,-1.8112,3.5175,-3.22,-2.7531840368005014,-15.282740323058043,-0.4199769000080495,1.0160000000032596
-0.2772,0.9981,-0.0486,0.233,0.2365,0.0705,-1.68,3.1762,-3.465,-2.7671276904270394,-15.42905045583163,-0.4199769000080495,1.0160000000032596
-0.279,0.9981,-0.0486,0.233,0.2365,0.0705,-0.9187,2.765,-4.725,-2.7792531367730224,-15.498928688737978,-0.3757368999990366,1.0320000000065193
-0.2796,0.9985,-0.0514,0.2311,0.2357,0.0596,-0.9187,2.765,-4.725,-2.878147226095604,-15.54997927913679,-0.3757368999990366,1.0320000000065193
-0.2803,0.9997,-0.0562,0.2311,0.2357,0.0596,-0.6475,2.3537,-4.8913,-3.092395267317685,-15.580752987726889,-0.340431400017532,1.0469999999986612
-0.2789,1.0011,-0.0551,0.2311,0.2357,0.0596,-0.4988,1.6538,-5.3725,-3.130085020109207,-15.579198771099632,-0.340431400017532,1.0469999999986612
-0.2748,1.0021,-0.0569,0.2314,0.2381,0.065,-0.21,1.1025,-5.95,-3.2117846740828617,-15.486217591659353,-0.3227914000139383,1.0630000000019209
-0.2748,1.0021,-0.0569,0.2314,0.2381,0.065,-0.21,1.1025,-5.95,-3.2377322007756284,-15.425521429320865,-0.3051514000183663,1.0789999999979045
-0.2772,1.0004,-0.0547,0.2312,0.2349,0.0629,0.4025,0.7613,-6.1775,-3.158430186976663,-15.44276997264886,-0.3051514000183663,1.0789999999979045
-0.2779,0.9988,-0.0547,0.2312,0.2349,0.0629,0.4288,0.0787,-5.9763,-3.1409751145373264,-15.472667645026956,-0.3039709000178395,1.0940000000045984
-0.2794,1.0002,-0.0574,0.2312,0.2349,0.0629,0.42,-0.805,-5.9412,-3.2465297406275333,-15.510562236569246,-0.3039709000178395,1.0940000000045984
-0.2773,1.0,-0.0575,0.2317,0.2352,0.0642,0.42,-0.805,-5.9412,-3.2791456428037455,-15.498129284036033,-0.31685090001460636,1.110000000000582
-0.2773,1.0,-0.0603,0.2317,0.2352,0.0642,0.2187,-1.9863,-5.985,-3.4027854380433573,-15.488654252552427,-0.31685090001460636,1.110000000000582
-0.2785,1.002,-0.0603,0.2317,0.2347,0.0656,0.5163,-2.5463,-5.9325,-3.433279253793535,-15.494633934587084,-0.35504540001312423,1.125
-0.2774,1.0,-0.0595,0.2317,0.2347,0.0656,0.5163,-2.5463,-5.9325,-3.4123605753479973,-15.488968981372679,-0.35504540001312423,1.125
-0.2801,1.002,-0.0592,0.2317,0.2347,0.0656,0.3675,-3.4037,-6.0025,-3.389569481001784,-15.52696793143619,-0.40950460002421907,1.1410000000032596
-0.2768,1.0041,-0.0565,0.2318,0.2382,0.0667,0.5337,-4.1912,-6.195,-3.2640084277547747,-15.466528821722877,-0.40950460002421907,1.1410000000032596
-0.2768,1.0034,-0.0604,0.2318,0.2382,0.0667,0.4812,-4.6463,-6.615,-3.3977037020382883,-15.427896174098976,-0.483845400005558,1.1569999999992433
-0.2768,1.0034,-0.0604,0.2308,0.2384,0.0649,0.4812,-4.6463,-6.615,-3.432521548855575,-15.410311196810902,-0.483845400005558,1.1569999999992433
-0.2764,1.0052,-0.0606,0.2308,0.2384,0.0649,0.2625,-5.1537,-6.7025,-3.4451638344460846,-15.375340292580077,-0.5611509000400562,1.1720000000059372
-0.2775,1.005,-0.0623,0.2308,0.2384,0.0649,-0.42,-5.7838,-6.8863,-3.5124970928758,-15.39458666244122,-0.5611509000400562,1.1720000000059372
-0.2783,1.0052,-0.0589,0.2316,0.2364,0.0761,-0.3237,-6.1775,-6.7463,-3.4058412823475286,-15.426237702750068,-0.6599909000152453,1.1880000000019209
-0.2782,1.0024,-0.0616,0.2316,0.2364,0.0761,-0.3237,-6.1775,-6.7463,-3.4800703713531473,-15.458811404046665,-0.6599909000152453,1.1880000000019209
-0.2782,1.0024,-0.0654,0.2315,0.2374,0.0695,-0.4112,-6.2737,-6.51,-3.647108822512377,-15.469772288848842,-0.7540964000115935,1.2030000000013388
-0.2782,1.0038,-0.0654,0.2315,0.2374,0.0695,-0.4725,-6.4138,-6.8513,-3.699770175348133,-15.463628126815253,-0.7540964000115935,1.2030000000013388
-0.2778,1.0043,-0.0684,0.232,0.2354,0.0694,0.0613,-6.44,-6.4925,-3.838788100747672,-15.445161982844827,-0.8571364000325855,1.2190000000045984
-0.2776,1.0048,-0.0694,0.232,0.2354,0.0694,0.0613,-6.44,-6.4925,-3.918229417166417,-15.426497555588682,-0.8571364000325855,1.2190000000045984
-0.2769,1.0052,-0.0662,0.232,0.2354,0.0694,0.105,-6.2387,-6.4488,-3.811314837396292,-15.39753700413013,-0.9569556000075289,1.235000000000582
-0.2744,1.0061,-0.0659,0.2314,0.2373,0.0704,-0.1312,-6.2213,-6.055,-3.7673042281806066,-15.330207591395796,-0.9569556000075289,1.235000000000582
-0.2744,1.0061,-0.0659,0.2314,0.2373,0.0704,0.8662,-5.705,-6.0637,-3.752222614786817,-15.288734200660027,-1.0425306000457175,1.250000000007276
-0.2724,1.0099,-0.0678,0.2321,0.2374,0.0645,0.8662,-5.705,-6.0637,-3.819841305618461,-15.200085874900193,-1.0425306000457175,1.250000000007276
-0.273,1.008,-0.0681,0.2321,0.2374,0.0645,0.7,-5.3375,-5.8625,-3.8538752680940758,-15.17580902318592,-1.1279306000242804,1.2660000000032596
-0.2767,1.008,-0.0661,0.2321,0.2374,0.0645,0.07,-5.1537,-5.7838,-3.781586759401617,-15.214012401088747,-1.1279306000242804,1.2660000000032596
-0.2734,1.0077,-0.067,0.2318,0.2381,0.0721,0.07,-5.1537,-5.3375,-3.7973818928171155,-15.209063613677841,-1.2052361000212806,1.2810000000026776
-0.2734,1.0077,-0.0655,0.2318,0.2381,0.0721,-0.0263,-4.4713,-5.3375,-3.7424974814352803,-15.20458892003124,-1.2052361000212806,1.2810000000026776
-0.2731,1.007,-0.0655,0.2323,0.2371,0.0702,-0.2713,-3.9025,-5.4425,-3.7283306013482425,-15.203125948342654,-1.2676761000340013,1.2970000000059372
-0.2738,1.0068,-0.067,0.2323,0.2371,0.0702,-0.42,-3.3075,-5.6525,-3.7804114401989932,-15.199052219169085,-1.2676761000340013,1.2970000000059372
-0.2755,1.009,-0.0691,0.2323,0.2371,0.0702,-0.42,-3.3075,-5.6525,-3.87098629166476,-15.206430847214975,-1.3205961000207174,1.3130000000019209
-0.2732,1.0111,-0.0652,0.2313,0.2366,0.0657,-0.6475,-2.4938,-4.9,-3.756482132526984,-15.166828123291305,-1.3205961000207174,1.3130000000019209
-0.2713,1.0104,-0.0645,0.2313,0.2366,0.0657,-0.56,-1.5575,-4.5937,-3.6897079159730994,-15.091755071812118,-1.3439586000198107,1.3280000000013388
-0.2713,1.0104,-0.0645,0.2331,0.2369,0.0698,-0.6825,-1.3563,-4.4887,-3.666455680467653,-15.047888883862253,-1.3439586000198107,1.3280000000013388
-0.27,1.0062,-0.0605,0.2331,0.2369,0.0698,-0.6825,-1.3563,-4.4887,-3.525179188497948,-15.022332627758752,-1.3656594000143634,1.3439999999973224
-0.2711,1.0072,-0.0666,0.2331,0.2369,0.0698,-0.6388,-0.7262,-4.3575,-3.6882794658674296,-15.02806848155646,-1.3656594000143634,1.3439999999973224
-0.2708,1.0097,-0.0638,0.2338,0.2358,0.0744,-1.1113,0.3063,-4.2263,-3.6479104491486627,-15.00453511722177,-1.361064900012313,1.3590000000040163
-0.2683,1.0083,-0.0646,0.2338,0.2358,0.0744,-0.8662,0.9887,-4.1737,-3.65863993228026,-14.930778620831413,-1.361064900012313,1.3590000000040163
-0.2683,1.0083,-0.049,0.233,0.2368,0.0667,-0.8662,0.9887,-4.1737,-3.133834480663553,-14.904764315811327,-1.3452457000162839,1.375
-0.2675,1.0085,-0.0586,0.233,0.2368,0.0667,-1.015,1.0063,-3.8325,-3.2437162688658794,-14.859807031682026,-1.3452457000162839,1.375
-0.2679,1.0094,-0.0561,0.233,0.237,0.0696,-1.7763,2.0475,-3.22,-3.2206671619926985,-14.847585648719111,-1.3124857000096097,1.3910000000032596
-0.2644,1.0103,-0.0573,0.233,0.237,0.0696,-1.5575,2.31,-3.5612,-3.2319796313929334,-14.714698095024417,-1.3124857000096097,1.3910000000032596
-0.2646,1.0114,-0.0577,0.233,0.237,0.0696,-1.5575,2.31,-3.5612,-3.246739998633353,-14.664986917082718,-1.2778357000109544,1.4060000000026776
-0.2644,1.0118,-0.0597,0.2324,0.2364,0.0667,-1.3913,2.6513,-3.7625,-3.310666713670562,-14.637258113544414,-1.2354149000216028,1.4219999999986612
-0.2644,1.0118,-0.0597,0.2324,0.2364,0.0667,-0.7788,3.4475,-3.8588,-3.3511355292199836,-14.62705374730755,-1.2354149000216028,1.4219999999986612
-0.263,1.0111,-0.0537,0.2328,0.236,0.0635,-1.5838,3.3163,-4.2,-3.2153678757648736,-14.590570730215575,-1.1856703999994038,1.437000000005355
-0.2643,1.0066,-0.0545,0.2328,0.236,0.0635,-1.5838,3.3163,-4.2,-3.1646172905034464,-14.645894769434939,-1.1856703999994038,1.437000000005355
-0.2664,1.0066,-0.0566,0.2328,0.236,0.0635,-1.4525,3.5087,-4.375,-3.1901319324474477,-14.72524245221954,-1.1295312000134958,1.4530000000013388
-0.2685,1.0053,-0.0569,0.231,0.237,0.0646,-1.4262,3.4037,-4.165,-3.2139463095320844,-14.839641803922767,-1.1295312000134958,1.4530000000013388
-0.2685,1.0053,-0.0569,0.231,0.237,0.0646,-1.4262,3.4037,-3.78,-3.2262697276841985,-14.8963296482964,-1.075072000002401,1.4690000000045984
-0.2671,1.0039,-0.0557,0.2314,0.2366,0.0678,-1.3212,3.395,-3.78,-3.200530727740842,-14.884464920986783,-1.075072000002401,1.4690000000045984
-0.2664,1.0036,-0.0544,0.2314,0.2366,0.0678,-0.7525,3.4825,-3.9987,-3.1402220946177013,-14.861421903221265,-1.022834500004428,1.4840000000040163
-0.2686,1.0041,-0.0559,0.2314,0.2366,0.0678,-0.77,4.0338,-3.7013,-3.168602386876944,-14.919949783316149,-1.022834500004428,1.4840000000040163
-0.2679,1.0031,-0.0565,0.2325,0.2372,0.0686,-0.77,4.0338,-3.7013,-3.2024775835796837,-14.926613669692857,-0.9582937000206292,1.5
-0.2658,1.0032,-0.0539,0.2325,0.2372,0.0686,-0.5688,3.4037,-3.8675,-3.1209722134160818,-14.861333972593867,-0.9582937000206292,1.5
-0.2658,1.0032,-0.0539,0.2342,0.2366,0.0664,-0.3237,3.5087,-3.7275,-3.090439038714342,-14.834881133330013,-0.9056631999971424,1.5150000000066939
-0.2642,1.0017,-0.053,0.2342,0.2366,0.0664,-0.2187,3.64,-3.5263,-3.04836146470395,-14.783039383494675,-0.9056631999971424,1.5150000000066939
-0.2638,1.0038,-0.0498,0.2342,0.2366,0.0664,-0.2187,3.64,-3.5263,-2.9064942280858115,-14.733395215901982,-0.8474232000117619,1.5310000000026776
-0.2621,1.0014,-0.0537,0.2314,0.2366,0.0694,0.1838,3.5788,-3.7713,-3.023515038974552,-14.67968887209771,-0.8474232000117619,1.5310000000026776
-0.2686,1.0027,-0.0545,0.2314,0.2366,0.0694,0.2713,2.555,-4.0862,-3.0870080087026848,-14.848369693476487,-0.8065432000034335,1.5470000000059372
-0.2686,1.0027,-0.0545,0.2318,0.235,0.0635,0.7962,2.7738,-3.955,-3.1053396624920557,-14.923599253349476,-0.8065432000034335,1.5470000000059372
-0.2694,1.006,-0.057,0.2318,0.235,0.0635,0.7962,2.7738,-3.955,-3.209802097495616,-14.95040993509135,-0.764936200005048,1.562000000005355
-0.2668,1.0007,-0.0553,0.2318,0.235,0.0634,0.525,2.45,-4.1562,-3.175068211842565,-14.926100961244185,-0.764936200005048,1.562000000005355
-0.2658,1.0024,-0.0594,0.2319,0.2339,0.0634,0.0,1.2775,-3.9813,-3.3268878388062166,-14.867153332959719,-0.7444962000101789,1.5780000000013388
-0.2657,1.0106,-0.06,0.2319,0.2339,0.0634,0.0263,1.3038,-4.0687,-3.3767806084951553,-14.774407642798803,-0.7444962000101789,1.5780000000013388
-0.2613,1.0144,-0.0595,0.2314,0.2356,0.067,0.0263,1.3038,-4.0687,-3.3627440363777414,-14.571476068623651,-0.7249392000014514,1.5930000000080327
-0.2613,1.0144,-0.0595,0.2314,0.2356,0.067,-0.3413,0.84,-4.4538,-3.358809102338742,-14.497649211699676,-0.7249392000014514,1.5930000000080327
-0.2589,1.0137,-0.0586,0.2293,0.2356,0.0634,0.2013,0.3938,-4.5325,-3.322613300848398,-14.406805084091395,-0.7186384000058983,1.6089999999967404
-0.2627,1.0077,-0.0615,0.2293,0.2356,0.0634,0.2013,0.56,-4.3137,-3.4447305795816114,-14.500535561492024,-0.7186384000058983,1.6089999999967404
-0.2682,1.0066,-0.0601,0.2293,0.2356,0.0634,-0.8225,0.56,-4.3137,-3.427838520355859,-14.70704213562233,-0.7096784000040729,1.625
-0.2696,1.0067,-0.0583,0.232,0.2357,0.0652,-0.7525,-0.2713,-4.5062,-3.35793379749626,-14.831688016267492,-0.7096784000040729,1.625
-0.2696,1.0067,-0.0583,0.232,0.2357,0.0652,0.0088,-0.875,-4.48,-3.327335286598272,-14.897849695230038,-0.7228034000035636,1.639999999999418
-0.2668,1.0055,-0.0617,0.2314,0.2355,0.064,0.0088,-0.875,-4.48,-3.4567469083454267,-14.86684487746818,-0.7228034000035636,1.639999999999418
-0.2654,1.0108,-0.0637,0.2314,0.2355,0.064,0.3413,-1.6013,-4.9437,-3.5656436283899224,-14.80797673969816,-0.7484242000087832,1.6560000000026776
-0.2622,1.0116,-0.0602,0.2314,0.2355,0.064,0.42,-1.4875,-5.4775,-3.447982287434468,-14.79106082904998,-0.7484242000087832,1.6560000000026776
-0.2588,1.0127,-0.0587,0.233,0.233,0.063,-0.4375,-2.4762,-5.4687,-3.3620843257820585,-14.767999136150507,-0.7855672000073418,1.6710000000020955
-0.2588,1.012,-0.0599,0.233,0.233,0.063,-0.4375,-2.4762,-5.4687,-3.3787134219420203,-14.746458373558623,-0.7855672000073418,1.6710000000020955
-0.2591,1.012,-0.0599,0.2325,0.2334,0.0642,-0.2537,-3.045,-6.09,-3.384581484058708,-14.581811538408479,-0.8342871999951121,1.6869999999980791
-0.2613,1.0124,-0.0597,0.2325,0.2334,0.0642,-0.7613,-3.1063,-6.5363,-3.378537993402785,-14.51124131444301,-0.8342871999951121,1.6869999999980791
-0.2591,1.0102,-0.0573,0.2325,0.2334,0.0642,-1.4175,-2.9925,-6.0988,-3.3144820303129507,-14.45129146289909,-0.8821672000048666,1.7030000000013388
-0.2571,1.0056,-0.0581,0.2307,0.235,0.073,-1.4175,-2.9925,-6.0988,-3.310694806647566,-14.397550469089255,-0.9270547000031247,1.7180000000007567
-0.26,1.0045,-0.0589,0.2307,0.235,0.073,-1.33,-3.1237,-6.72,-3.3335460174014484,-14.448623953174007,-0.9270547000031247,1.7180000000007567
-0.26,1.0045,-0.0589,0.2314,0.2351,0.0567,-1.6275,-3.1412,-6.8338,-3.34292840669447,-14.471614198828433,-0.9773139000133639,1.7340000000040163
-0.26,1.0023,-0.057,0.2314,0.2351,0.0567,-1.8288,-2.6775,-6.0375,-3.312426509864804,-14.490016378665917,-0.9773139000133639,1.7340000000040163
-0.2586,1.0053,-0.0545,0.2314,0.2351,0.0567,-1.8288,-2.6775,-6.0375,-3.23993503613536,-14.457705617911236,-1.0174764000118055,1.7490000000034343
-0.2586,1.0028,-0.0528,0.233,0.2357,0.0598,-1.8463,-2.8875,-6.5012,-3.163389060044411,-14.44907449892143,-1.0174764000118055,1.7490000000034343
-0.2605,1.0049,-0.0586,0.233,0.2357,0.0598,-1.5838,-2.6425,-6.4225,-3.23934922180908,-14.479236562228106,-1.0597564000011923,1.764999999999418
-0.2605,1.0042,-0.0571,0.2338,0.2369,0.0632,-1.19,-1.9425,-6.23,-3.247460620315753,-14.497552995886595,-1.0597564000011923,1.764999999999418
-0.2596,1.0042,-0.0571,0.2338,0.2369,0.0632,-1.19,-1.9425,-6.23,-3.2512009206163883,-14.486128408211949,-1.0908364000075241,1.7810000000026776
-0.2597,1.0066,-0.0548,0.2337,0.2347,0.0654,-1.3563,-1.8288,-6.2125,-3.1835941170527664,-14.468444478561885,-1.0908364000075241,1.7810000000026776
-0.2601,1.0039,-0.0538,0.2337,0.2347,0.0654,-0.9538,-1.3388,-6.6062,-3.1158354005305795,-14.488515442432846,-1.110918400006745,1.7960000000020955
-0.2652,1.006,-0.0556,0.2337,0.2347,0.0654,-0.9538,-1.3388,-6.1337,-3.1436372041026064,-14.59621202422859,-1.110918400006745,1.7960000000020955
-0.2666,1.0042,-0.0565,0.2341,0.2346,0.0627,-1.0675,-0.7613,-6.1337,-3.186826592154688,-14.700297422093833,-1.1230992000092264,1.812000000005355
-0.2666,1.0042,-0.0565,0.2341,0.2346,0.0627,-0.6475,-0.35,-6.2125,-3.2079388717583437,-14.764690001609551,-1.1230992000092264,1.812000000005355
-0.2673,1.0035,-0.0584,0.2333,0.2362,0.0698,-0.8662,-0.3237,-6.195,-3.2814146969055673,-14.820069348103015,-1.127954700009038,1.827000000004773
-0.2663,1.0075,-0.0545,0.2333,0.2362,0.0698,-0.8662,-0.3237,-6.195,-3.170604244256983,-14.804745517101388,-1.127954700009038,1.827000000004773
-0.2618,1.011,-0.0556,0.2333,0.2362,0.0698,-0.8487,-0.5775,-6.0287,-3.1568937177276677,-14.68805537166591,-1.1371947000067186,1.8430000000007567
-0.2641,1.0127,-0.0576,0.2325,0.237,0.0622,-0.6037,-0.315,-6.16,-3.2196070094481177,-14.647961482821149,-1.1371947000067186,1.8430000000007567
-0.2641,1.0118,-0.0566,0.2325,0.237,0.0622,-0.7175,-0.1138,-6.2213,-3.2085320329032867,-14.629753198245,-1.1390155000070896,1.8590000000040163
-0.2669,1.0118,-0.0566,0.2342,0.2373,0.0659,-0.7175,-0.1138,-6.2213,-3.204338791043463,-14.68564259130508,-1.1390155000070896,1.8590000000040163
-0.2692,1.008,-0.0562,0.2342,0.2373,0.0659,-1.5225,-0.245,-6.1075,-3.1983388774778168,-14.785560313146691,-1.142690500006947,1.8740000000034343
-0.2729,1.0053,-0.0557,0.2342,0.2373,0.0659,-1.68,-0.0787,-6.405,-3.187410473258164,-14.974226641263863,-1.142690500006947,1.8740000000034343
-0.2736,1.0049,-0.0555,0.2338,0.2373,0.0633,-1.295,-0.1138,-6.7812,-3.1739003002244437,-15.109310138275113,-1.14451130000649,1.889999999999418
-0.2764,1.0076,-0.055,0.2338,0.2373,0.0633,-1.295,-0.1138,-6.7812,-3.1483858831764273,-15.22971024658043,-1.14451130000649,1.889999999999418
-0.2764,1.0076,-0.055,0.2334,0.2367,0.0694,-1.4088,-0.56,-6.8688,-3.13670055527325,-15.281996107416449,-1.152911300006164,1.9049999999988358
-0.2713,1.0056,-0.0545,0.2334,0.2367,0.0694,-1.4875,-0.595,-6.4662,-3.1206361860305343,-15.177192170150112,-1.152911300006164,1.9049999999988358
-0.2727,1.0081,-0.0578,0.2334,0.2367,0.0694,-1.4175,-0.595,-6.86,-3.198626764014092,-15.13932569695535,-1.1624313000081035,1.9210000000020955
-0.2724,1.0097,-0.0546,0.2343,0.237,0.0728,-1.4175,-0.595,-6.86,-3.148520678899208,-15.102504999653734,-1.1624313000081035,1.9210000000020955
-0.2725,1.0092,-0.0529,0.2343,0.237,0.0728,-1.7062,-0.6475,-7.2013,-3.0901042249053257,-15.09491013663204,-1.1727913000102141,1.937000000005355
-0.2725,1.0095,-0.054,0.2366,0.2377,0.0646,-1.7325,-0.7175,-7.7263,-3.0792587126026407,-15.088382336111396,-1.1727913000102141,1.937000000005355
-0.2723,1.0095,-0.054,0.2366,0.2377,0.0646,-1.7325,-1.0325,-7.2625,-3.0725892669966814,-15.079695971914939,-1.1882788000021007,1.951999999997497
-0.2732,1.0061,-0.0561,0.2342,0.2383,0.066,-2.1263,-1.0325,-7.2625,-3.0950088870643726,-15.137927235626028,-1.1882788000021007,1.951999999997497
-0.2756,1.0036,-0.0532,0.2342,0.2383,0.066,-1.8637,-1.1988,-7.1663,-3.0749297027761093,-15.263312577093929,-1.2074596000060083,1.9680000000007567
-0.2753,1.0019,-0.051,0.2342,0.2383,0.066,-2.2138,-1.575,-7.5862,-3.0545720608009024,-15.319551784047336,-1.2074596000060083,1.9680000000007567
-0.2762,0.9998,-0.05,0.2349,0.2397,0.0748,-2.2138,-1.575,-6.65,-3.0303309845378847,-15.377609024916971,-1.2310846000050915,1.9830000000001746
-0.2762,0.9998,-0.05,0.2349,0.2397,0.0748,-1.3825,-0.8925,-6.65,-2.9476638615611663,-15.40362135912622,-1.2310846000050915,1.9830000000001746
-0.2772,1.0016,-0.0509,0.2355,0.2383,0.0721,-1.6275,-0.8838,-5.8275,-2.9314160774462605,-15.417333601590133,-1.2452254000079723,1.9990000000034343
-0.2753,1.0034,-0.05,0.2355,0.2383,0.0721,-1.2687,-0.9363,-6.055,-2.890375626194224,-15.381180323400388,-1.2452254000079723,1.9990000000034343
-0.2738,1.0047,-0.0513,0.2355,0.2383,0.0721,-1.2687,-0.9363,-6.055,-2.9073820980214413,-15.32045355965153,-1.2602062000110243,2.015000000006694
-0.2781,1.0051,-0.0507,0.234,0.2373,0.0523,-0.77,-0.9187,-5.845,-2.8953085430041767,-15.358456400165387,-1.2602062000110243,2.015000000006694
-0.2781,1.0059,-0.0487,0.234,0.2373,0.0523,-0.9187,-0.665,-5.495,-2.822403937289552,-15.36408342129875,-1.2701812000057988,2.029999999998836
-0.2789,1.0059,-0.0487,0.2382,0.2365,0.0664,-1.2862,-0.56,-5.8975,-2.7962039758830772,-15.401493326911796,-1.2701812000057988,2.029999999998836
-0.2793,1.0047,-0.0476,0.2382,0.2365,0.0664,-1.2862,-0.56,-5.8975,-2.75288507631082,-15.439576664607246,-1.279141200007624,2.0460000000020955
-0.2832,1.0036,-0.0511,0.2382,0.2365,0.0664,-0.5425,-0.7437,-6.0988,-2.8573015366855286,-15.560785874869453,-1.2902967000071912,2.0610000000015134
-0.2838,1.0024,-0.0562,0.236,0.2395,0.0736,-0.2713,-0.525,-6.3263,-3.0950527591774772,-15.667193603326877,-1.2902967000071912,2.0610000000015134
-0.2829,1.006,-0.0515,0.236,0.2395,0.0736,0.2537,-1.1375,-6.0113,-2.976107489810226,-15.674616491812603,-1.3084967000108991,2.077000000004773
-0.2829,1.006,-0.0515,0.2351,0.2402,0.0706,0.2537,-1.1375,-6.0113,-2.9431800873451666,-15.679275563226652,-1.3084967000108991,2.077000000004773
-0.2815,1.0074,-0.055,0.2351,0.2402,0.0706,0.21,-1.4963,-5.8362,-3.0740632346375234,-15.65295049923712,-1.3324375000157764,2.0930000000080327
-0.281,1.0102,-0.0547,0.2351,0.2402,0.0706,0.2187,-1.7413,-5.8713,-3.0923228846535715,-15.61240570472912,-1.3324375000157764,2.0930000000080327
-0.2789,1.0099,-0.0568,0.2362,0.2381,0.0718,-0.3938,-1.7325,-5.8538,-3.1763439712075563,-15.552539064179289,-1.3601575000088182,2.1090000000040163
-0.2772,1.0075,-0.0544,0.2362,0.2381,0.0718,-0.3938,-1.7325,-5.8538,-3.119577495658851,-15.494775413269188,-1.372285000004986,2.1160000000018044
-0.2772,1.008,-0.0592,0.2347,0.2386,0.0695,-0.1225,-1.9162,-5.8975,-3.2864875809198084,-15.44820044764257,-1.387614600008109,2.1240000000034343
-0.2771,1.008,-0.0592,0.2347,0.2386,0.0695,0.0263,-1.9863,-5.8012,-3.3390782634881404,-15.419828918424468,-1.3955598000097278,2.128000000004249
-0.2784,1.0094,-0.0598,0.2346,0.2391,0.0721,0.0263,-2.0038,-5.7663,-3.375250684248185,-15.413040219847058,-1.3955598000097278,2.128000000004249
-0.2765,1.0086,-0.0542,0.2346,0.2391,0.0721,-0.0263,-2.0038,-5.7663,-3.165797264903779,-15.386300048095404,-1.4276206000016798,2.144000000000233
-0.2749,1.0072,-0.0561,0.2346,0.2391,0.0721,-0.0263,-1.785,-5.845,-3.181352377198112,-15.34362513251198,-1.4276206000016798,2.144000000000233
-0.2773,1.0064,-0.0593,0.2352,0.2392,0.0647,-0.1225,-1.6275,-6.0025,-3.3131808095842583,-15.356828119628018,-1.4520331000007325,2.1589999999996508
-0.2773,1.0064,-0.0593,0.2352,0.2392,0.0647,-0.1225,-1.6275,-6.0025,-3.3539170156075744,-15.365161171331769,-1.4520331000007325,2.1589999999996508
-0.2765,1.0088,-0.0592,0.2339,0.2405,0.0703,-0.63,-1.75,-6.195,-3.3568014092186136,-15.337795577451248,-1.4800331000064368,2.1750000000029104
-0.2771,1.0105,-0.0556,0.2339,0.2405,0.0703,-0.8313,-1.1025,-6.2125,-3.2314434967169965,-15.326667120425808,-1.4800331000064368,2.1750000000029104
-0.2768,1.0105,-0.0556,0.2339,0.2405,0.0703,-1.0762,-0.7613,-6.2125,-3.1853274057049914,-15.31347001280649,-1.4922139000089183,2.19100000000617
-0.2757,1.0078,-0.0559,0.2362,0.2394,0.0652,-1.0762,-0.7613,-6.2125,-3.1794078924717297,-15.297529567253944,-1.4922139000089183,2.19100000000617
-0.2757,1.0078,-0.058,0.2362,0.2394,0.0652,-1.26,-0.5512,-5.915,-3.239293508640067,-15.290301166708126,-1.500481900004587,2.205999999998312
-0.2821,1.0069,-0.058,0.2369,0.2415,0.0672,-1.6625,-0.8487,-6.5975,-3.2628710349717505,-15.472225781076565,-1.500481900004587,2.205999999998312
-0.2835,1.0051,-0.0528,0.2369,0.2415,0.0672,-2.0387,-0.7262,-6.4837,-3.200874080725462,-15.60577439077021,-1.5121011000069542,2.2220000000015716
-0.2822,1.0037,-0.0526,0.2369,0.2415,0.0672,-2.0387,-0.7262,-6.4837,-3.152159919870399,-15.645811315026076,-1.5121011000069542,2.2220000000015716
-0.2843,1.0006,-0.0549,0.2366,0.2396,0.0726,-2.3275,-1.3388,-7.0963,-3.1518077944071967,-15.766734063872526,-1.532183100006175,2.2370000000009895
-0.2822,1.0022,-0.055,0.2366,0.2396,0.0726,-1.9512,-1.3563,-6.895,-3.1487367049602235,-15.729162948578454,-1.532183100006175,2.2370000000009895
-0.2822,1.0022,-0.055,0.2378,0.2398,0.0633,-1.3125,-1.2163,-6.58,-3.144883026301442,-15.715490865366602,-1.5516439000101396,2.253000000004249
-0.2843,1.0044,-0.049,0.2378,0.2398,0.0633,-1.3125,-1.2163,-6.58,-2.9649630751951648,-15.753691990365548,-1.5711047000052545,2.269000000000233
-0.2826,1.0054,-0.0491,0.2378,0.2398,0.0633,-1.8725,-1.085,-6.4488,-2.9096564402167426,-15.717282160667825,-1.5711047000052545,2.269000000000233
-0.2849,1.0054,-0.05,0.2355,0.2396,0.0695,-1.5313,-1.295,-6.1075,-2.8813137981405803,-15.752088633439215,-1.5918247000094756,2.2850000000034925
-0.2895,1.0055,-0.0509,0.2355,0.2396,0.0695,-1.4612,-1.1375,-6.2737,-2.889172538423242,-15.885994564682719,-1.5997872000069595,2.2920000000012806
-0.2895,1.0055,-0.0521,0.2334,0.2404,0.0668,-1.4612,-1.1375,-6.2737,-2.925571252028548,-15.95772948627891,-1.6088872000088135,2.3000000000029104
-0.2919,1.0052,-0.0521,0.2334,0.2404,0.0668,-1.4963,-1.2337,-6.16,-2.9447605376566557,-16.049074783908434,-1.6187568000108241,2.30800000000454
-0.2904,1.0064,-0.0546,0.236,0.2406,0.0651,-1.4787,-1.9863,-5.985,-3.019956331102785,-16.05782276364551,-1.6346471999996093,2.315999999998894
-0.2891,1.008,-0.0534,0.236,0.2406,0.0651,-1.4787,-4.2263,-6.0287,-3.0258170715327717,-16.02904724007364,-1.6388735000158454,2.3170000000027358
-0.2899,1.0058,-0.0519,0.236,0.2406,0.0651,-1.435,-2.5725,-6.0287,-2.991277782008861,-16.04010577109325,-1.6800335000055133,2.3329999999987194
-0.288,1.009,-0.0517,0.2366,0.2394,0.0688,-1.1375,-2.345,-5.7225,-2.9593502150460713,-16.00987850835752,-1.6800335000055133,2.3329999999987194
-0.288,1.009,-0.0517,0.2366,0.2394,0.0688,-0.9975,-2.5025,-6.1337,-2.944277918137963,-15.968459891508768,-1.7175710000222648,2.3480000000054133
-0.284,1.0055,-0.0482,0.2357,0.2391,0.0666,-0.9975,-2.5025,-6.1337,-2.829081458035037,-15.879404473149863,-1.7175710000222648,2.3480000000054133
-0.2818,1.0005,-0.0487,0.2357,0.2391,0.0666,-1.2425,-2.5025,-6.6238,-2.806733186240833,-15.788266453756172,-1.757611000012214,2.364000000001397
-0.2819,1.001,-0.05,0.2357,0.2391,0.0666,-1.5137,-2.1088,-6.1863,-2.8309224057757856,-15.754079950785579,-1.757611000012214,2.364000000001397
-0.2816,0.9989,-0.0471,0.2366,0.2388,0.0702,-1.4525,-2.3625,-5.9325,-2.7684957508911485,-15.744906298801467,-1.7954110000199148,2.3800000000046566
-0.2816,1.0146,-0.0462,0.2366,0.2388,0.0702,-1.4525,-2.3625,-5.9325,-2.6918058305723447,-15.66055978999978,-1.7954110000199148,2.3800000000046566
-0.2822,1.0,-0.0462,0.2358,0.2412,0.0674,-1.1463,-2.0825,-5.4775,-2.666257500239164,-15.665189092181116,-1.8266485000035504,2.3949999999967986
-0.2801,1.0044,-0.0434,0.2358,0.2412,0.0674,-0.8662,-1.6013,-5.1712,-2.5512584147381476,-15.646049711154992,-1.8266485000035504,2.3949999999967986
-0.2765,1.004,-0.0442,0.2358,0.2412,0.0674,-0.84,-1.4,-4.4975,-2.532866784376332,-15.520096346095128,-1.8490485000081138,2.411000000000058
-0.275,1.0049,-0.0435,0.2367,0.2415,0.0767,-0.84,-1.4,-4.4975,-2.5001857409243375,-15.410356507868435,-1.8490485000081138,2.411000000000058
-0.2747,1.0091,-0.0404,0.2367,0.2415,0.0767,-0.6388,-0.7525,-4.5413,-2.3689546603484897,-15.319832004670376,-1.860336000013151,2.426000000006752
-0.2747,1.0091,-0.0404,0.2353,0.2376,0.0674,-1.0325,0.3063,-4.3837,-2.3254534661840154,-15.267336605675794,-1.860336000013151,2.426000000006752
-0.2774,1.0093,-0.0438,0.2353,0.2376,0.0674,-1.7675,0.6388,-4.0862,-2.384681261073332,-15.316932871961095,-1.8501152000157166,2.4420000000027358
-0.2788,1.0064,-0.0474,0.2353,0.2376,0.0674,-1.7675,0.6388,-4.0862,-2.5005501971597908,-15.40312861616504,-1.8501152000157166,2.4420000000027358
-0.2874,0.9989,-0.0427,0.2373,0.241,0.0688,-1.0237,0.805,-4.235,-2.4703536996743716,-15.746919655958513,-1.8372352000130927,2.4580000000059954
-0.2937,0.9989,-0.0439,0.2373,0.241,0.0688,-0.4025,1.015,-4.7162,-2.5008469015068377,-16.003731054704836,-1.8372352000130927,2.4580000000059954
-0.2937,0.9989,-0.0475,0.239,0.2397,0.0682,0.3675,0.315,-4.8212,-2.6630110213328617,-16.139540086414595,-1.832510200015568,2.4729999999981374
-0.2953,1.0005,-0.0475,0.239,0.2397,0.0682,0.3675,0.315,-4.8212,-2.7033510031407784,-16.246834019016788,-1.832510200015568,2.4729999999981374
-0.2904,1.0025,-0.0494,0.2369,0.2398,0.0627,0.9187,0.5863,-5.0575,-2.7935494520815345,-16.2175836518062,-1.8231294000136569,2.489000000001397
-0.2861,1.0075,-0.0467,0.2369,0.2398,0.0627,0.8838,0.1225,-5.32,-2.686813254399386,-16.18357131224885,-1.8231294000136569,2.489000000001397
-0.282,1.0127,-0.0461,0.2369,0.2398,0.0627,0.8838,0.1225,-5.32,-2.6253634430012047,-16.126553497486576,-1.8212919000137282,2.504000000000815
-0.2819,1.0128,-0.0495,0.2362,0.2395,0.0646,0.8225,0.5075,-5.0662,-2.7567645847150177,-15.972893425979953,-1.8212919000137282,2.504000000000815
-0.2819,1.0128,-0.0495,0.2362,0.2395,0.0646,0.3938,0.8138,-4.5325,-2.787062978778555,-15.76780483965426,-1.8082711000110756,2.5200000000040745
-0.2847,1.0118,-0.0499,0.2352,0.2411,0.0664,0.28,-0.0962,-4.025,-2.8134341317028957,-15.726813488902547,-1.8082711000110756,2.5200000000040745
-0.2882,1.0084,-0.0508,0.2352,0.2411,0.0664,0.28,-0.0962,-4.025,-2.86456452093582,-15.845515621747479,-1.8098103000113892,2.536000000007334
-0.2899,1.0003,-0.05,0.2352,0.2411,0.0664,0.2362,-0.0613,-4.165,-2.862387259640844,-16.011063657004218,-1.8098103000113892,2.536000000007334
-0.2911,1.0068,-0.0488,0.2358,0.2398,0.0685,0.2187,-0.2013,-4.7688,-2.799411817776304,-16.049400446954348,-1.8128298000098073,2.550999999999476
-0.2911,1.0068,-0.0488,0.2358,0.2398,0.0685,0.035,-0.8838,-5.005,-2.782177601543618,-16.06666088207419,-1.8128298000098073,2.550999999999476
-0.2843,1.0089,-0.0489,0.2362,0.2404,0.0652,0.035,-0.8838,-5.005,-2.77702778225708,-15.965284775845593,-1.8269706000126882,2.5670000000027358
-0.2803,1.0094,-0.045,0.2362,0.2404,0.0652,-0.0962,-1.19,-5.3987,-2.621397779056074,-15.956526105287413,-1.8269706000126882,2.5670000000027358
-0.2791,1.0044,-0.0466,0.2362,0.2404,0.0652,-0.525,-0.9538,-5.1887,-2.6440359612925004,-15.873867538641191,-1.841277600012133,2.5820000000021537
-0.2808,1.0036,-0.0465,0.2387,0.2401,0.0622,-0.9887,-1.1025,-5.3463,-2.649101789154854,-15.856548820279864,-1.841277600012133,2.5820000000021537
-0.2797,1.0042,-0.0493,0.2387,0.2401,0.0622,-0.9887,-1.1025,-5.3463,-2.7424623533810064,-15.835768978512524,-1.8589176000157266,2.5980000000054133
-0.2797,1.0042,-0.0493,0.2361,0.24,0.0663,-0.6475,-0.6388,-5.1975,-2.7854747369007513,-15.783456756293468,-1.8589176000157266,2.5980000000054133
-0.2766,0.9989,-0.0426,0.2361,0.24,0.0663,-0.5688,-0.8313,-5.0662,-2.5651212042568,-15.700374902820121,-1.8722184000123878,2.614000000001397
-0.2778,0.9981,-0.0448,0.2361,0.24,0.0663,-0.2625,-0.4725,-4.795,-2.5684325135971187,-15.638244204913349,-1.8722184000123878,2.614000000001397
-0.2768,0.9983,-0.0463,0.2361,0.2418,0.0636,-0.2625,-0.4725,-4.795,-2.62731729811564,-15.57800582340886,-1.8793059000121128,2.629000000000815
-0.2816,0.9999,-0.0465,0.2361,0.2418,0.0636,0.0613,0.0787,-4.83,-2.652284576383356,-15.627837734465091,-1.8780467000118564,2.6450000000040745
-0.2816,0.9999,-0.0465,0.2368,0.2411,0.065,-0.1925,-0.2887,-4.41,-2.6593432315455003,-15.670376112768196,-1.8780467000118564,2.6450000000040745
-0.2821,0.9999,-0.0445,0.2368,0.2411,0.065,-0.1925,-0.2887,-4.55,-2.5833280141925057,-15.702938708414099,-1.8823772000095877,2.6599999999962165
-0.2807,0.9999,-0.0411,0.2368,0.2411,0.0657,-0.0787,-0.56,-4.55,-2.4237562323538553,-15.686861794747045,-1.8823772000095877,2.6599999999962165
-0.2787,1.002,-0.0448,0.2399,0.2412,0.0657,0.6212,-0.77,-5.1537,-2.5257834578059515,-15.653812583880649,-1.8946972000120976,2.675999999999476
-0.2756,1.007,-0.0442,0.2399,0.2412,0.0657,0.0613,-0.9363,-5.67,-2.5169191999326164,-15.581029257870302,-1.8946972000120976,2.675999999999476
-0.2743,1.0061,-0.0439,0.2354,0.2405,0.0669,0.0613,-0.9363,-5.67,-2.503850222897309,-15.511697852084472,-1.9096780000151496,2.6920000000027358
-0.2743,1.0061,-0.0439,0.2354,0.2405,0.0669,0.1138,-0.9013,-5.74,-2.500004952828121,-15.444676100838405,-1.9096780000151496,2.6920000000027358
-0.2743,1.0059,-0.0447,0.2378,0.2406,0.061,-0.035,-1.0325,-6.1163,-2.5310604344263945,-15.360052573929051,-1.9251655000145487,2.7070000000021537
-0.2804,1.0055,-0.0482,0.2378,0.2406,0.061,0.0787,-1.4963,-6.055,-2.6823700815404927,-15.439790947313323,-1.9251655000145487,2.7070000000021537
-0.285,1.0053,-0.0468,0.2378,0.2406,0.061,0.0787,-1.4963,-6.055,-2.670323775245646,-15.584471933469185,-1.949106300019426,2.7230000000054133
-0.2874,1.0025,-0.0451,0.2362,0.2393,0.0735,0.4725,-1.2513,-5.8538,-2.6005159333941195,-15.704924701808746,-1.949106300019426,2.7230000000054133
-0.2874,1.0025,-0.0451,0.2362,0.2393,0.0735,0.5775,-1.19,-5.7663,-2.582123125016042,-15.77632545777223,-1.966956300010075,2.7379999999975553
-0.2872,1.0029,-0.0515,0.2375,0.2399,0.0647,1.0237,-1.9075,-5.7925,-2.8580420840892984,-15.826400351041883,-1.966956300010075,2.7379999999975553
-0.285,1.0058,-0.0525,0.2375,0.2399,0.0647,1.0237,-1.9075,-5.7925,-2.958322614688115,-15.81920603976332,-1.9974763000162927,2.754000000000815
-0.2826,1.0077,-0.0479,0.2375,0.2399,0.0647,1.3038,-2.2138,-5.74,-2.772253123824249,-15.777721258827697,-1.9974763000162927,2.754000000000815
-0.2786,1.01,-0.0489,0.2362,0.2405,0.0654,1.1025,-2.0912,-5.3725,-2.771947271472081,-15.761421890003136,-2.030935500023109,2.7700000000040745
-0.2793,1.0116,-0.0535,0.2362,0.2405,0.0654,0.9363,-2.6425,-5.6875,-2.9678870796369963,-15.687723045077695,-2.030935500023109,2.7700000000040745
-0.2793,1.0116,-0.0535,0.2367,0.2397,0.0658,0.9363,-2.6425,-5.6875,-3.013508065628894,-15.629665578372292,-2.0705730000215707,2.7850000000034925
-0.2777,1.0078,-0.0538,0.2367,0.2397,0.0658,0.8138,-1.9775,-5.2762,-3.045629676865785,-15.59922873027189,-2.0705730000215707,2.7850000000034925
-0.2819,1.0086,-0.0516,0.2367,0.2397,0.0658,0.1575,-1.9162,-5.74,-2.961955098841501,-15.598462088795666,-2.101232200027817,2.801000000006752
-0.2816,1.0064,-0.0514,0.237,0.2388,0.0664,-0.5775,-2.4938,-6.16,-2.9374772500290276,-15.604549575195108,-2.101232200027817,2.801000000006752
-0.2822,1.0031,-0.0539,0.237,0.2388,0.0664,-0.5775,-2.4938,-6.16,-3.0260261615098503,-15.641478600975539,-2.1386392000082206,2.815999999998894
-0.2822,1.0031,-0.0539,0.2381,0.2419,0.0701,-0.1663,-2.5725,-6.3,-3.0601676382571723,-15.664804661362274,-2.1386392000082206,2.815999999998894
-0.2814,1.0012,-0.0523,0.2381,0.2419,0.0701,0.2625,-1.96,-5.9237,-3.0095652255909955,-15.669360336833103,-2.1699992000146096,2.8320000000021537
-0.2805,1.002,-0.0482,0.2381,0.2419,0.0659,0.2625,-1.96,-5.9237,-2.8245911801276358,-15.653417096535684,-2.1699992000146096,2.8320000000021537
-0.2789,1.0028,-0.0523,0.2375,0.2395,0.0659,-0.3588,-2.3888,-5.7137,-2.9318592772379892,-15.623501492125333,-2.2082200000050154,2.8479999999981374
-0.2825,1.0019,-0.0526,0.2375,0.2395,0.0659,0.0875,-2.1962,-5.5388,-2.983977417141121,-15.634538521906448,-2.2082200000050154,2.8479999999981374
-0.2829,1.002,-0.0487,0.2374,0.2415,0.0613,-0.0175,-1.3212,-5.1188,-2.842833622919344,-15.66080813873273,-2.2280380000138593,2.8630000000048312
-0.2829,1.002,-0.0487,0.2374,0.2415,0.0613,-0.0175,-1.3212,-5.1188,-2.8005895343672385,-15.68102660979248,-2.2280380000138593,2.8630000000048312
-0.2836,1.0029,-0.0492,0.237,0.241,0.0691,-0.0613,-1.2775,-4.6813,-2.8061353786112693,-15.719542007661376,-2.2484780000180233,2.879000000008091
-0.2848,1.0056,-0.0528,0.237,0.241,0.0691,-0.1488,-1.225,-4.48,-2.9434656429814052,-15.754709643403627,-2.2484780000180233,2.879000000008091
-0.2876,1.007,-0.0508,0.237,0.241,0.0691,0.1225,-1.26,-4.9875,-2.90389371292553,-15.804510153568904,-2.2673780000081223,2.894000000000233
-0.288,1.0064,-0.0525,0.2377,0.2407,0.0654,0.1225,-1.26,-4.9875,-2.962551335583923,-15.847961623791944,-2.2673780000081223,2.894000000000233
-0.288,1.0064,-0.0525,0.2377,0.2407,0.0654,0.455,-1.54,-5.3288,-2.979993517487026,-15.856233288638826,-2.2935580000078533,2.911000000000058
-0.2894,1.0077,-0.0561,0.2377,0.2402,0.0676,0.4638,-1.8288,-5.635,-3.132433330145455,-15.881852343320253,-2.2935580000078533,2.911000000000058
-0.2883,1.0066,-0.0575,0.2377,0.2402,0.0676,0.1225,-2.5988,-5.775,-3.2300214138332572,-15.901760623214761,-2.3351388000163245,2.927000000003318
-0.2872,1.0093,-0.0531,0.2377,0.2402,0.0676,0.1225,-2.5988,-5.775,-3.074340987185829,-15.891582203979489,-2.3351388000163245,2.927000000003318
-0.284,1.008,-0.0533,0.2381,0.2405,0.0648,-0.4812,-3.1762,-5.7488,-3.0433279001262155,-15.847475207661267,-2.3827818000144756,2.9420000000027358
-0.284,1.0055,-0.0587,0.2381,0.2405,0.0648,-0.7613,-2.975,-5.67,-3.2264390000010668,-15.827191439351592,-2.3827818000144756,2.9420000000027358
-0.286,1.0055,-0.0587,0.2384,0.2418,0.065,-0.2275,-2.7387,-5.775,-3.3044624117839168,-15.83371933936015,-2.426601000023403,2.9580000000059954
-0.2878,1.0045,-0.0547,0.2384,0.2418,0.065,-0.2275,-2.7387,-5.775,-3.176843244474693,-15.868284332098677,-2.426601000023403,2.9580000000059954
-0.2872,1.0048,-0.0559,0.2384,0.2418,0.065,0.2013,-2.7475,-5.6087,-3.18217050295624,-15.877851460426275,-2.467813500001813,2.9729999999981374
-0.2815,1.0049,-0.0544,0.2378,0.2402,0.0604,-0.5163,-3.2638,-5.3375,-3.1280456810156503,-15.859162310244372,-2.467813500001813,2.9729999999981374
-0.2846,1.0045,-0.0578,0.2378,0.2402,0.0604,-0.5163,-3.2638,-5.4775,-3.2351137911407983,-15.85550437434969,-2.5200343000124517,2.989000000001397
-0.2846,1.0045,-0.0578,0.2359,0.2417,0.0597,-0.735,-3.5,-5.4775,-3.2710783427495427,-15.852051576104362,-2.5200343000124517,2.989000000001397
-0.2806,1.0046,-0.0517,0.2359,0.2417,0.0597,-0.5163,-2.8263,-5.3725,-3.0603884864980135,-15.840461750285442,-2.5652551000216643,3.0050000000046566
-0.2779,1.002,-0.052,0.2359,0.2417,0.0597,-0.8138,-2.8263,-5.7575,-3.005984793777946,-15.749441926168574,-2.5652551000216643,3.0050000000046566
-0.2792,1.0016,-0.0539,0.238,0.2416,0.067,-0.8138,-2.8263,-5.7575,-3.0511208776560093,-15.70007075587895,-2.6076496000200193,3.0200000000040745
-0.2823,1.0009,-0.0565,0.238,0.2416,0.067,-0.63,-2.45,-5.5825,-3.164996400630037,-15.703888056488301,-2.6076496000200193,3.0200000000040745
-0.2823,1.0025,-0.0536,0.237,0.2414,0.0658,-0.9538,-1.8288,-5.6175,-3.1039414118533517,-15.704186735354353,-2.6369104000259806,3.036000000007334
-0.2836,1.0025,-0.0536,0.237,0.2414,0.0658,-1.33,-1.995,-6.2125,-3.081904445626655,-15.735278918149474,-2.6369104000259806,3.036000000007334
-0.2851,0.9991,-0.0501,0.2387,0.2406,0.067,-1.33,-1.995,-6.2125,-2.974810785662654,-15.811516784180638,-2.666835400010304,3.050999999999476
-0.286,1.0011,-0.0534,0.2387,0.2406,0.067,-0.7088,-1.785,-6.8338,-3.023704071821247,-15.876498005040018,-2.666835400010304,3.050999999999476
-0.2874,1.0022,-0.0538,0.2387,0.2406,0.067,-1.0412,-1.6275,-6.3,-3.051612897566855,-15.924732298193902,-2.692875400015609,3.0670000000027358
-0.2864,1.003,-0.0514,0.2374,0.2421,0.0649,-1.47,-1.6975,-6.3175,-2.9960986214620537,-15.920841575967334,-2.720035400008791,3.0829999999987194
-0.2864,1.003,-0.0514,0.2374,0.2421,0.0649,-1.47,-1.6975,-6.3175,-2.9667049775902696,-15.91879319350657,-2.720035400008791,3.0829999999987194
-0.2877,1.003,-0.0515,0.2375,0.2434,0.0641,-1.4088,-1.4963,-6.7812,-2.953367418453359,-15.956984217839112,-2.7424799000188074,3.0980000000054133
-0.291,1.0017,-0.0503,0.2375,0.2434,0.0641,-1.225,-1.47,-6.8863,-2.9115550802172367,-16.089399844549085,-2.7424799000188074,3.0980000000054133
-0.2908,1.0024,-0.0525,0.2375,0.2434,0.0641,-1.2425,-1.6363,-6.7375,-2.9571958432961387,-16.12765868648834,-2.768660700024141,3.114000000008673
-0.291,1.0025,-0.0495,0.2378,0.242,0.0582,-1.2425,-1.6363,-6.7375,-2.8884049749710092,-16.15060110049458,-2.768660700024141,3.114000000008673
-0.291,1.0015,-0.0511,0.2378,0.242,0.0582,-0.9013,-1.8463,-6.7463,-2.9076741355911713,-16.16852737105185,-2.7963552000096326,3.129000000000815
-0.2908,1.0015,-0.0511,0.2384,0.2425,0.0661,-0.6737,-1.085,-6.0813,-2.915971686945171,-16.169706236620485,-2.7963552000096326,3.129000000000815
-0.2889,1.0042,-0.0497,0.2384,0.2425,0.0661,-0.8313,-1.4438,-6.2913,-2.8660582259642435,-16.105268799437777,-2.819456000014339,3.1450000000040745
-0.2916,1.0064,-0.0523,0.2384,0.2425,0.0661,-0.8313,-1.4438,-6.2913,-2.9317964287450766,-16.12056091614009,-2.819456000014339,3.1450000000040745
-0.2916,1.0051,-0.0505,0.2391,0.2406,0.0705,-0.7613,-1.6275,-6.3612,-2.8976889923343925,-16.13931653288346,-2.8454960000078025,3.161000000000058
-0.2906,1.0061,-0.0494,0.2391,0.2406,0.0705,-0.4112,-1.6712,-6.4837,-2.8404070138845814,-16.115087588391216,-2.8454960000078025,3.161000000000058
-0.2906,1.0061,-0.0494,0.2386,0.2433,0.0626,-0.4112,-1.6712,-6.2475,-2.820972588233854,-16.10477911905382,-2.8705640000068295,3.175999999999476
-0.2893,1.005,-0.0495,0.2386,0.2433,0.0626,-0.7788,-1.9512,-6.2475,-2.8202252650937307,-16.075675991301395,-2.8705640000068295,3.175999999999476
-0.2937,1.0044,-0.0519,0.2386,0.2433,0.0626,-0.6825,-1.8637,-6.2125,-2.906513410258389,-16.165716949971877,-2.9003832000129046,3.1920000000027358
-0.293,1.0054,-0.0508,0.2382,0.2427,0.0676,-0.385,-1.4612,-6.4488,-2.897234282388978,-16.197279354597786,-2.9003832000129046,3.1920000000027358
-0.2918,1.0055,-0.0504,0.2382,0.2427,0.0676,-0.385,-1.4612,-6.4488,-2.8788334640896998,-16.180237106297444,-2.922301200012054,3.2070000000021537
-0.2918,1.0078,-0.049,0.2392,0.2436,0.0642,-0.4988,-1.5225,-6.7812,-2.816882080968486,-16.151181770266437,-2.922301200012054,3.2070000000021537
-0.2957,1.0078,-0.049,0.2392,0.2436,0.0642,-0.56,-1.7237,-6.2825,-2.7954743169806187,-16.23595460848518,-2.9498804000176726,3.2230000000054133
-0.3004,1.0069,-0.0539,0.2412,0.2425,0.0661,-0.5775,-2.0825,-5.9412,-2.9675472591649212,-16.357406605408304,-2.9498804000176726,3.2230000000054133
-0.3014,1.007,-0.0516,0.2412,0.2425,0.0661,-0.5775,-2.0825,-5.9412,-2.9456430852949316,-16.455175222948665,-2.9832004000093084,3.239000000001397
-0.3002,1.0096,-0.0512,0.2412,0.2425,0.0661,-0.4988,-1.5225,-5.9325,-2.9180166819892857,-16.48382411821969,-2.9832004000093084,3.239000000001397
-0.3041,1.0058,-0.052,0.2395,0.2442,0.0638,-0.7875,-1.8988,-5.5125,-2.9434054263666467,-16.511214494807856,-3.011682400008203,3.254000000000815
-0.3041,1.0058,-0.052,0.2395,0.2442,0.0638,-1.0325,-2.0213,-5.1712,-2.952617950574204,-16.56865831867143,-3.011682400008203,3.254000000000815
-0.3054,1.0055,-0.0529,0.24,0.2406,0.0668,-1.0325,-2.0213,-5.1712,-2.9862388835202975,-16.628934052090983,-3.0440232000147915,3.2700000000040745
-0.3023,1.0096,-0.0528,0.24,0.2406,0.0668,-0.9363,-2.38,-5.6525,-2.990633894837454,-16.63246965129963,-3.0440232000147915,3.2700000000040745
-0.2969,1.0102,-0.045,0.24,0.2406,0.0668,-1.5925,-2.6862,-5.6525,-2.7997447556335224,-16.581263977321683,-3.084316200013228,3.2850000000034925
-0.2942,1.0049,-0.0398,0.2395,0.2436,0.0698,-2.0213,-2.59,-5.6875,-2.6656280288004113,-16.522865606361893,-3.084316200013228,3.2850000000034925
-0.2942,1.0049,-0.0397,0.2395,0.2436,0.0698,-2.0213,-2.59,-5.6875,-2.563906515220887,-16.476874216092458,-3.1257562000216703,3.301000000006752
-0.2933,1.0033,-0.0397,0.2376,0.2423,0.0689,-2.205,-2.6688,-5.1712,-2.5242269279558305,-16.43857309214742,-3.1257562000216703,3.301000000006752
-0.2923,1.005,-0.0359,0.2376,0.2423,0.0689,-2.4938,-2.5638,-4.9963,-2.4672672592742804,-16.36989085400478,-3.171904600012418,3.319000000003143
-0.2934,0.9985,-0.0398,0.2376,0.2423,0.0689,-2.4938,-1.9512,-4.305,-2.4452795226508055,-16.366071609964557,-3.171904600012418,3.319000000003143
-0.2987,0.9962,-0.0392,0.2379,0.245,0.0691,-2.73,-1.9512,-4.305,-2.393319884303037,-16.530704848011734,-3.201172600011282,3.334000000002561
-0.3005,0.9973,-0.0414,0.2379,0.245,0.0691,-2.24,-2.5375,-4.025,-2.3915997746696935,-16.661067302694697,-3.201172600011282,3.334000000002561
-0.3005,0.9973,-0.0414,0.2398,0.2433,0.0658,-1.295,-2.3625,-4.0775,-2.3841274703533846,-16.71466477786013,-3.238972600018983,3.3500000000058208
-0.3029,0.9927,-0.045,0.2398,0.2433,0.0658,-1.295,-2.3625,-4.0775,-2.4930699588851173,-16.850586933977787,-3.238972600018983,3.3500000000058208
-0.2996,0.9971,-0.0492,0.2398,0.2433,0.0658,-0.0875,-2.7213,-4.27,-2.723430778756942,-16.77268374200419,-3.2797920999975987,3.3649999999979627
-0.2977,1.0004,-0.0452,0.2411,0.2434,0.0686,0.7437,-3.115,-4.1562,-2.6202373427156314,-16.651819593749337,-3.2797920999975987,3.3649999999979627
-0.2919,1.0033,-0.0445,0.2411,0.2434,0.0686,1.155,-2.87,-4.6287,-2.557474177991254,-16.455466321703,-3.3257121000069536,3.3810000000012224
-0.2919,1.0033,-0.0497,0.2398,0.2411,0.0702,1.155,-2.87,-4.6287,-2.7742270950649757,-16.34408978081059,-3.3257121000069536,3.3810000000012224
-0.2891,1.0056,-0.0497,0.2398,0.2411,0.0702,1.2862,-3.0013,-4.8562,-2.817553246235291,-16.227810784276528,-3.3737328999948994,3.396999999997206
-0.2861,1.0121,-0.0488,0.2388,0.2418,0.0677,0.6825,-2.9488,-4.795,-2.774594454172075,-16.05095179416955,-3.3737328999948994,3.396999999997206
-0.2853,1.0092,-0.0501,0.2388,0.2418,0.0677,0.595,-2.5725,-4.4975,-2.824964043188917,-15.914896116003625,-3.4123204000121197,3.4120000000039
-0.284,1.0074,-0.0451,0.2388,0.2418,0.0677,0.595,-2.5725,-4.4975,-2.6295177510523056,-15.825745792982833,-3.4123204000121197,3.4120000000039
-0.2849,1.003,-0.0476,0.2388,0.244,0.0757,0.0263,-2.6513,-4.8913,-2.6912140938042817,-15.830716366071178,-3.454741200020762,3.4280000000071595
-0.2849,1.003,-0.0476,0.2388,0.244,0.0757,-0.91,-2.4675,-4.7162,-2.706518516750637,-15.834607780027527,-3.454741200020762,3.4280000000071595
-0.2894,1.0022,-0.0472,0.2398,0.2434,0.0729,-0.4725,-2.1,-4.7863,-2.6999266788173633,-15.933466693253223,-3.48624120000426,3.4429999999993015
-0.2883,1.0008,-0.0505,0.2398,0.2434,0.0729,-0.4725,-2.1,-4.7863,-2.823276324571328,-15.978861388751724,-3.48624120000426,3.4429999999993015
-0.2892,1.0025,-0.043,0.2398,0.2434,0.0729,-0.7437,-2.1525,-5.3288,-2.596495254083024,-15.986964040583432,-3.520681200011276,3.459000000002561
-0.2893,1.0022,-0.0458,0.2408,0.243,0.064,-1.0938,-1.7763,-5.0925,-2.607704013724762,-16.011204503592275,-3.549102000004142,3.474999999998545
-0.2893,1.0022,-0.0478,0.2408,0.243,0.064,-1.0938,-1.5313,-5.3463,-2.676369464472334,-16.01609623013341,-3.549102000004142,3.474999999998545
-0.2886,1.0035,-0.0478,0.2398,0.242,0.0686,-1.0938,-1.5313,-5.3463,-2.7047147717527116,-16.01687006763227,-3.5720715000143923,3.4900000000052387
-0.2876,1.0024,-0.0453,0.2398,0.242,0.0686,-1.1812,-1.3913,-5.39,-2.6413442189026446,-16.016226186095647,-3.5720715000143923,3.4900000000052387
-0.2897,1.0031,-0.0478,0.2398,0.242,0.0686,-1.7325,-0.98,-5.2762,-2.674792151982598,-16.025598567974527,-3.587751500017587,3.5060000000084983
-0.2876,1.0003,-0.044,0.2397,0.2426,0.0677,-1.7325,-0.98,-5.8888,-2.6146636837236135,-16.025717826493434,-3.587751500017587,3.5060000000084983
-0.2891,1.0017,-0.0437,0.2397,0.2426,0.0677,-1.3388,-0.9712,-5.8888,-2.555754754328012,-16.04441271682479,-3.6023195000099553,3.5210000000006403
-0.2891,1.0017,-0.0437,0.239,0.243,0.0702,-1.1725,-0.7,-5.5475,-2.524414339246853,-16.04896353834402,-3.6023195000099553,3.5210000000006403
-0.2907,1.0011,-0.0442,0.239,0.243,0.0702,-1.3563,-0.7613,-5.2587,-2.5262337837238364,-16.066611748367926,-3.6145003000124367,3.5370000000039
-0.2924,0.9983,-0.0432,0.239,0.243,0.0702,-1.3563,-0.7613,-5.2587,-2.5020118803699596,-16.100174376451818,-3.6145003000124367,3.5370000000039
-0.291,0.9992,-0.042,0.2386,0.245,0.0772,-1.4175,-0.595,-5.495,-2.455913500787972,-16.108998644487283,-3.624020300010047,3.5529999999998836
-0.2885,1.0039,-0.0409,0.2386,0.245,0.0772,-1.2163,-0.0787,-4.9963,-2.390375054518071,-16.082876191505875,-3.624020300010047,3.5529999999998836
-0.2885,1.0039,-0.0409,0.2382,0.2431,0.071,-0.805,0.1138,-5.005,-2.3554699420104694,-16.064771417538804,-3.622313300009285,3.5680000000065775
-0.2882,1.0064,-0.0405,0.2382,0.2431,0.071,-0.805,0.1138,-5.005,-2.3244468642692713,-16.03639857151988,-3.622313300009285,3.5680000000065775
-0.2899,1.0072,-0.0419,0.2382,0.2435,0.0685,-1.0325,0.0613,-4.375,-2.3573483691971115,-16.040340233027774,-3.6213325000095313,3.584000000002561
-0.2904,1.0044,-0.04,0.2383,0.2435,0.0685,-1.1725,0.4025,-4.2175,-2.3156991246060796,-16.08049664177778,-3.6213325000095313,3.584000000002561
-0.2938,1.0003,-0.0429,0.2383,0.2435,0.0685,-1.3212,-0.14,-4.165,-2.3870100647090955,-16.232560561717495,-3.62343250000945,3.599000000001979
-0.2938,0.9979,-0.0447,0.2399,0.2413,0.0638,-1.3212,-0.14,-4.165,-2.4775371725509734,-16.320034304733127,-3.62343250000945,3.599000000001979
-0.2938,0.9979,-0.0447,0.2399,0.2413,0.0638,-0.7525,0.0875,-4.1125,-2.5313144088344823,-16.35956373782903,-3.6220325000091647,3.6150000000052387
-0.2943,0.9974,-0.0468,0.239,0.2419,0.0748,-0.5425,-0.14,-4.3663,-2.631369883732697,-16.39182935625379,-3.6220325000091647,3.6150000000052387
-0.2896,1.0038,-0.0453,0.239,0.2419,0.0748,-0.1225,-0.4025,-4.4363,-2.5985825107062657,-16.2361234162499,-3.628472500007548,3.6310000000012224
-0.2872,1.0056,-0.0397,0.239,0.2419,0.0748,-0.1225,-0.4025,-4.4363,-2.3651788363331416,-16.083278438163767,-3.628472500007548,3.6310000000012224
-0.287,1.0052,-0.0448,0.2388,0.243,0.0784,0.105,-0.2187,-4.3225,-2.4979795439052355,-15.997839355340044,-3.631753000007421,3.6460000000006403
-0.287,1.0052,-0.0448,0.2388,0.243,0.0784,-0.1138,-0.3675,-4.7337,-2.535271416996262,-15.966153199184385,-3.631753000007421,3.6460000000006403
-0.2882,1.0071,-0.0448,0.2392,0.2441,0.0692,-0.2625,-0.0525,-5.0487,-2.54326303810396,-15.963000119992504,-3.63259300000721,3.661999999996624
-0.2858,1.008,-0.0413,0.2392,0.2441,0.0692,-0.2625,-0.0525,-5.0487,-2.4098634359111357,-15.923646980164573,-3.63259300000721,3.661999999996624
-0.2878,1.0069,-0.0431,0.2392,0.2441,0.0692,0.0,0.1138,-5.1625,-2.4387727278423585,-15.92647836887666,-3.6308860000064485,3.677000000003318
-0.291,1.0048,-0.045,0.2379,0.2439,0.0678,-0.6737,0.1575,-5.1537,-2.5175351455333965,-15.970333391071344,-3.6308860000064485,3.677000000003318
-0.2929,1.0041,-0.0418,0.2379,0.2439,0.0678,-0.6737,0.1575,-5.1537,-2.4336141623831207,-16.028571500511685,-3.628366000005935,3.6930000000065775
-0.2929,1.0041,-0.0418,0.2391,0.2422,0.0682,-1.0762,-0.1838,-4.795,-2.4056293226641317,-16.11313303379081,-3.628366000005935,3.6930000000065775
-0.2905,1.0026,-0.0414,0.2391,0.2422,0.0682,-1.0938,-0.3675,-4.865,-2.3826881331718828,-16.124740625132052,-3.634246000004459,3.709000000002561
-0.2901,1.002,-0.0434,0.2391,0.2422,0.0682,-1.4175,-0.3413,-5.005,-2.4299287232835516,-16.12700898884576,-3.634246000004459,3.709000000002561
-0.2907,1.0013,-0.0423,0.2391,0.2427,0.0728,-1.4175,-0.3413,-5.005,-2.424642884672169,-16.14119439259102,-3.6393655000042604,3.724000000001979
-0.2912,1.0006,-0.0432,0.2391,0.2427,0.0728,-1.6712,-0.6388,-4.9612,-2.4440001191103247,-16.163408352029826,-3.6393655000042604,3.724000000001979
-0.2912,1.0006,-0.0432,0.2392,0.2429,0.07,-1.4963,-0.98,-4.9612,-2.457038534688305,-16.178655892979307,-3.6550455000003246,3.7399999999979627
-0.2931,0.9994,-0.0398,0.2392,0.2429,0.07,-1.2687,-1.2425,-5.5738,-2.364989023408878,-16.19943616560606,-3.6550455000003246,3.7399999999979627
-0.2922,1.0012,-0.0381,0.2392,0.2429,0.0718,-1.2687,-1.2425,-5.5738,-2.2681492217038124,-16.207424633336522,-3.6736830000086416,3.7550000000046566
-0.2916,1.0005,-0.0426,0.2394,0.2442,0.0718,-0.9975,-1.61,-5.3025,-2.366126465137944,-16.210287433103705,-3.6994430000138894,3.7710000000079162
-0.2909,1.0031,-0.0374,0.2394,0.2442,0.0718,-0.525,-1.435,-5.11,-2.2167272210528335,-16.198813024608235,-3.6994430000138894,3.7710000000079162
-0.2889,1.0025,-0.0346,0.2386,0.2445,0.073,-0.7175,-1.3475,-5.1975,-2.067583336346705,-16.174960192114707,-3.7210030000084773,3.7870000000039
-0.2889,1.0025,-0.0346,0.2386,0.2445,0.073,-0.7175,-1.3475,-5.1975,-2.0111140176122726,-16.155418108714304,-3.7210030000084773,3.7870000000039
-0.2876,1.0033,-0.0317,0.2391,0.2441,0.0635,-0.805,-1.8637,-4.9262,-1.8885731277778137,-16.100085009200487,-3.7489585000073924,3.802000000003318
-0.2844,0.9965,-0.0282,0.2391,0.2441,0.0635,-0.3237,-1.33,-5.25,-1.7091527754306233,-16.074550182658744,-3.7489585000073924,3.802000000003318
-0.2866,0.9954,-0.0289,0.2391,0.2441,0.0635,0.0613,-1.2163,-4.9788,-1.6765184805118918,-16.06888434483493,-3.7684193000025075,3.8179999999993015
-0.2927,0.9965,-0.0336,0.24,0.2426,0.0674,0.0613,-1.2163,-4.9788,-1.8567081155426475,-16.15779533587362,-3.7684193000025075,3.8179999999993015
-0.2927,0.9965,-0.0336,0.24,0.2426,0.0674,0.9187,-1.0412,-4.8038,-1.91376021052096,-16.23481420266796,-3.7840373000094774,3.8330000000059954
-0.296,0.9952,-0.0336,0.2397,0.2421,0.0704,1.5488,-0.6037,-5.1975,-1.9296280138673032,-16.292682214485545,-3.7840373000094774,3.8330000000059954
-0.2899,0.9977,-0.0332,0.2397,0.2421,0.0704,1.5488,-0.6037,-5.6175,-1.910736529156523,-16.276225084908038,-3.793696500007053,3.849000000001979
-0.2877,0.9945,-0.0366,0.2397,0.2421,0.0704,2.9838,-1.05,-5.6175,-2.076621401291349,-16.25097259995206,-3.793696500007053,3.849000000001979
-0.2941,1.0021,-0.0418,0.2393,0.2426,0.0706,3.5788,-0.9538,-5.8362,-2.3435955788852856,-16.27800284110136,-3.808957300003222,3.8649999999979627
-0.2941,0.9955,-0.039,0.2393,0.2426,0.0706,3.3863,-2.0387,-5.775,-2.258330691623519,-16.32239084195448,-3.808957300003222,3.8649999999979627
-0.2938,0.9955,-0.039,0.2389,0.243,0.0682,3.3863,-2.0387,-5.775,-2.2456893970397096,-16.350928636186215,-3.839537800016869,3.8800000000046566
-0.2941,1.0043,-0.0451,0.2389,0.243,0.0682,3.8675,-1.7675,-5.6525,-2.526195469131314,-16.342515187251298,-3.839537800016869,3.8800000000046566
-0.2921,1.003,-0.0448,0.2389,0.243,0.0682,4.445,-2.1613,-6.1163,-2.553465407621034,-16.29281311558847,-3.8741186000081886,3.8960000000006403
-0.2933,1.0036,-0.0501,0.2394,0.2443,0.0651,3.4475,-2.03,-5.7225,-2.813127469190746,-16.287886702684357,-3.8741186000081886,3.8960000000006403
-0.2955,1.0063,-0.0486,0.2394,0.2443,0.0651,3.4475,-2.03,-5.7225,-2.7720655987603813,-16.301645222969558,-3.9045686000217774,3.911000000007334
-0.2955,1.0063,-0.0486,0.2386,0.2435,0.0603,3.0275,-2.1,-5.3725,-2.7661008814217682,-16.30361582946225,-3.9045686000217774,3.911000000007334
-0.2944,1.0083,-0.0486,0.2386,0.2435,0.0603,2.905,-2.8963,-5.4687,-2.7605685318898785,-16.30145167649228,-3.9538057000001983,3.9279999999998836
-0.2944,1.0105,-0.0517,0.2386,0.2435,0.0808,3.0975,-2.9925,-5.5912,-2.9027916284595072,-16.28986033927497,-3.9538057000001983,3.9279999999998836
-0.2955,1.0081,-0.052,0.2391,0.2415,0.0699,3.0975,-2.9925,-5.5912,-2.9450747970741635,-16.293817943400125,-4.001685700009952,3.944000000003143
-0.2961,1.0085,-0.0564,0.2391,0.2415,0.0699,2.1437,-3.7625,-6.1163,-3.1544157026443975,-16.312108195927223,-4.001685700009952,3.944000000003143
-0.2961,1.0068,-0.0554,0.2399,0.2438,0.0698,1.7938,-3.8238,-6.3963,-3.150511484499768,-16.33835511780973,-4.059042700007726,3.959000000002561
-0.2956,1.0068,-0.0554,0.2399,0.2438,0.0698,1.4438,-3.6575,-6.3525,-3.149767043292783,-16.33867978549879,-4.059042700007726,3.959000000002561
-0.2914,1.0067,-0.0529,0.2406,0.243,0.0666,1.4438,-3.6575,-6.3525,-3.0375260158231736,-16.234284563298377,-4.117562699993036,3.974999999998545
-0.2872,1.0053,-0.0542,0.2406,0.243,0.0666,1.1725,-4.1562,-5.9763,-3.0753577026586347,-16.12239107453543,-4.117562699993036,3.974999999998545
-0.2851,1.0052,-0.054,0.2406,0.243,0.0666,0.2537,-4.3837,-6.1425,-3.0751068854906545,-15.99242322888155,-4.183318200022381,3.9900000000052387
-0.2844,1.0022,-0.0482,0.239,0.2432,0.0757,0.21,-3.78,-5.2587,-2.8436003434878914,-15.969444919880996,-4.183318200022381,3.9900000000052387
-0.2844,1.0022,-0.0482,0.239,0.2432,0.0757,0.21,-3.78,-5.2587,-2.778728022897449,-15.949625576399301,-4.243798200007199,4.006000000001222
-0.2849,1.0019,-0.051,0.2395,0.2438,0.0693,0.3938,-3.2287,-5.5037,-2.87797167838677,-15.942094223755825,-4.243798200007199,4.006000000001222
-0.2852,1.0035,-0.0512,0.2395,0.2438,0.0693,-0.4988,-3.0275,-5.7925,-2.905811025035144,-15.915877174502295,-4.292238200017068,4.022000000004482
-0.2841,1.0041,-0.0482,0.2395,0.2438,0.0693,-0.4988,-3.0275,-5.7575,-2.8033574158406602,-15.88171457061452,-4.292238200017068,4.022000000004482
-0.2868,1.0053,-0.0535,0.2387,0.2434,0.0671,-0.5163,-3.01,-5.7575,-2.9608210214472246,-15.886715418984341,-4.337388200015316,4.0370000000039
-0.2868,1.0031,-0.0499,0.2387,0.2434,0.0671,-0.56,-2.415,-5.7312,-2.8882330397673313,-15.898765943128952,-4.337388200015316,4.0370000000039
-0.2876,1.0031,-0.0499,0.2409,0.2429,0.0666,-0.7,-2.38,-6.0988,-2.8630555871764884,-15.93144044003572,-4.375468200005757,4.052999999999884
-0.2907,0.9992,-0.052,0.2409,0.2429,0.0666,-0.7,-2.38,-6.0988,-2.9354386635957646,-16.040482968512944,-4.375468200005757,4.052999999999884
-0.292,1.0031,-0.0506,0.2409,0.2429,0.0666,-0.4638,-1.54,-5.53,-2.904229586430232,-16.057607382027495,-4.398568200016066,4.0680000000065775
-0.2921,1.0031,-0.0505,0.2405,0.243,0.0641,-0.105,-1.1463,-5.67,-2.8888749395417572,-16.089471590546086,-4.398568200016066,4.0680000000065775
-0.2951,1.0053,-0.0583,0.2405,0.243,0.0641,-0.0875,-0.7,-5.6,-3.187520603064359,-16.12700309515964,-4.4097682000132545,4.084000000002561
-0.2951,1.0053,-0.0583,0.2405,0.2434,0.0687,-0.0875,-0.7,-5.6,-3.2788174726116046,-16.158758001289332,-4.4097682000132545,4.084000000002561
-0.2959,1.0058,-0.0581,0.2405,0.2434,0.0687,0.2187,-0.665,-5.495,-3.29841208087321,-16.173682457180483,-4.420408200010583,4.099999999998545
-0.2965,1.0086,-0.0568,0.2405,0.2434,0.0687,0.0787,-0.5163,-5.4687,-3.2451138058211177,-16.18252907620973,-4.420408200010583,4.099999999998545
-0.2984,1.0054,-0.0534,0.2413,0.2439,0.0718,0.0437,-0.6913,-5.7488,-3.100501147372146,-16.263601372777156,-4.430777700015211,4.115000000005239
-0.3012,1.0046,-0.0567,0.2413,0.2439,0.0718,0.0437,-0.6913,-5.7488,-3.1921982516145735,-16.36330270625956,-4.430777700015211,4.115000000005239
-0.3012,1.0046,-0.0586,0.238,0.2466,0.0683,0.0525,-0.7,-5.9237,-3.2955229303938243,-16.46397164442297,-4.4419777000124,4.131000000001222
-0.2998,1.0061,-0.0586,0.238,0.2466,0.0683,-0.6125,-1.47,-5.4513,-3.3196134617443316,-16.467270293666296,-4.4419777000124,4.131000000001222
-0.302,1.0044,-0.0574,0.2402,0.2426,0.0704,-0.8225,-1.7413,-5.2937,-3.290054852188845,-16.494021601390873,-4.468097200011386,4.14600000000064
-0.2999,1.0034,-0.0576,0.2402,0.2426,0.0704,-0.8225,-1.7413,-5.2937,-3.287264730151595,-16.507373191426865,-4.468097200011386,4.14600000000064
-0.3012,1.005,-0.0575,0.2402,0.2426,0.0704,-1.1025,-1.7763,-5.5037,-3.280183834678933,-16.519237741530358,-4.496518000004252,4.161999999996624
-0.2944,1.0029,-0.0503,0.2401,0.2435,0.0657,-0.7613,-1.89,-5.2762,-3.02868554354671,-16.496977592894247,-4.496518000004252,4.161999999996624
-0.2944,1.0029,-0.0503,0.2401,0.2435,0.0657,-0.7613,-1.89,-4.9175,-2.9318567033976874,-16.444641492697475,-4.526758000010412,4.177999999999884
-0.2925,0.9999,-0.0468,0.2414,0.2427,0.0674,-1.2075,-1.715,-4.9175,-2.7969489580682216,-16.39267255784527,-4.552483000009414,4.1929999999993015
-0.2896,1.0035,-0.0497,0.2414,0.2427,0.0674,-1.26,-1.4,-4.8125,-2.817052880863465,-16.27433288631768,-4.552483000009414,4.1929999999993015
-0.2892,1.0015,-0.0478,0.2414,0.2427,0.0674,-1.82,-1.225,-5.0575,-2.7874746050209787,-16.225373772456507,-4.572083000013407,4.209000000002561
-0.2874,0.9984,-0.0476,0.2401,0.2438,0.068,-1.82,-1.225,-5.0575,-2.7672079086725545,-16.17670683796068,-4.572083000013407,4.209000000002561
-0.2874,0.9984,-0.0425,0.2401,0.2438,0.068,-1.8463,-0.8138,-4.6025,-2.655510942742196,-16.117650876166465,-4.584290000012934,4.224000000001979
-0.2908,0.9941,-0.0425,0.2398,0.2446,0.0677,-1.4,-0.5337,-4.27,-2.5539616551654056,-16.21055396404868,-4.584290000012934,4.224000000001979
-0.2961,0.9921,-0.0431,0.2398,0.2446,0.0677,-1.2075,-0.3413,-4.2438,-2.518421542332984,-16.422693843872754,-4.589750800011563,4.239999999997963
-0.2996,0.9966,-0.05,0.2398,0.2446,0.0677,-1.2075,-0.3413,-4.2438,-2.7077153059562873,-16.578993180054116,-4.589750800011563,4.239999999997963
-0.2994,0.9993,-0.0463,0.2415,0.244,0.0669,-0.3762,0.0787,-4.06,-2.6711833868905113,-16.62670999920713,-4.588491600011307,4.256000000001222
-0.3013,1.0069,-0.0466,0.2415,0.244,0.0669,0.5775,0.6562,-4.5763,-2.6552295076037233,-16.63379487157128,-4.588491600011307,4.256000000001222
-0.3013,1.0069,-0.0466,0.2424,0.2441,0.067,0.8925,0.5688,-4.6638,-2.65107405093987,-16.637413680108597,-4.579959600011638,4.27100000000064
-0.299,1.0085,-0.0501,0.2424,0.2441,0.067,0.8925,0.5688,-4.6638,-2.7986078281133526,-16.576093908393826,-4.579959600011638,4.27100000000064
-0.2979,1.0139,-0.0509,0.2424,0.2441,0.067,0.7262,0.5337,-3.9375,-2.8555138799691058,-16.443614476335387,-4.571420400009899,4.2870000000039
-0.3001,1.0157,-0.0537,0.2408,0.245,0.0663,-0.07,0.2887,-4.1737,-2.974442323463483,-16.440862753520694,-4.571420400009899,4.2870000000039
-0.3026,1.013,-0.0519,0.2408,0.245,0.0663,-0.91,-0.63,-3.9638,-2.9498802882007493,-16.54178330210177,-4.580870400009532,4.302000000003318
-0.3026,1.013,-0.0519,0.2402,0.2437,0.0691,-0.91,-0.63,-3.9638,-2.939849436387062,-16.582903394194087,-4.580870400009532,4.302000000003318
-0.3012,1.0094,-0.0495,0.2402,0.2437,0.0691,-1.1113,-0.6475,-4.1388,-2.866380573096108,-16.59025426276656,-4.591230400006932,4.3179999999993015
-0.302,1.008,-0.0522,0.2402,0.2441,0.0614,-1.4612,-1.2425,-3.9462,-2.9127673766147177,-16.630177480922494,-4.591230400006932,4.3179999999993015
-0.3006,1.0044,-0.0525,0.2408,0.2441,0.0614,-2.0738,-1.3563,-4.1125,-2.930361518952801,-16.63579522610035,-4.612931200011353,4.334000000002561
-0.2988,1.002,-0.0451,0.2408,0.2441,0.0614,-2.0738,-1.3563,-4.1125,-2.8520534161500253,-16.609239063795297,-4.612931200011353,4.334000000002561
-0.2935,0.9989,-0.05,0.2394,0.2432,0.0643,-1.7763,-1.3737,-4.1562,-2.8570213077285116,-16.46719630495146,-4.633536700010553,4.349000000001979
-0.2935,0.9989,-0.05,0.2394,0.2432,0.0643,-1.2862,-1.6538,-3.9725,-2.8614358082412625,-16.40065986990018,-4.633536700010553,4.349000000001979
-0.2972,0.9978,-0.0462,0.2403,0.2437,0.0652,-1.2862,-1.6538,-4.1388,-2.7525438264195063,-16.49551600014416,-4.663305100004584,4.36699999999837
-0.2899,0.9958,-0.0486,0.2403,0.2437,0.0652,-1.5488,-1.61,-4.1388,-2.771139939638777,-16.337058952287077,-4.663305100004584,4.36699999999837
-0.2891,0.9956,-0.0418,0.2403,0.2437,0.0652,-1.3212,-1.2163,-4.375,-2.584265169076376,-16.25616389830169,-4.681549600012726,4.382000000005064
-0.2872,0.9956,-0.0471,0.2399,0.2443,0.0707,-0.5775,-1.085,-4.69,-2.6638541700866183,-16.17948838262234,-4.681549600012726,4.382000000005064
-0.2872,0.9956,-0.0315,0.2399,0.2443,0.0707,-0.5775,-1.085,-4.69,-2.1184166928724317,-16.139085335528925,-4.698909600008369,4.398000000001048
-0.2908,0.9983,-0.045,0.24,0.2418,0.0669,-1.0063,-1.4,-4.4887,-2.38432588987885,-16.18046115279879,-4.698909600008369,4.398000000001048
-0.2893,0.9973,-0.0425,0.24,0.2418,0.0669,-0.5425,-0.665,-5.1275,-2.420350796586198,-16.17645191832414,-4.709549600010536,4.414000000004307
-0.2919,0.9984,-0.0489,0.24,0.2418,0.0669,0.21,-0.6913,-5.1887,-2.696503833683312,-16.195537743642348,-4.709549600010536,4.414000000004307
-0.2953,0.9981,-0.0494,0.2402,0.2429,0.063,0.21,-0.6913,-5.1887,-2.795102085991044,-16.245336831226098,-4.719919100010134,4.429000000003725
-0.2946,1.0006,-0.0486,0.2402,0.2429,0.063,0.1838,-0.5512,-5.1363,-2.7847798009254103,-16.276563422218878,-4.719919100010134,4.429000000003725
-0.2946,1.0006,-0.0486,0.2398,0.2447,0.0675,0.2975,-0.6037,-5.1887,-2.781830275488276,-16.29724024499766,-4.729578300007709,4.444999999999709
-0.2933,1.0035,-0.0474,0.2398,0.2447,0.0675,0.105,-1.12,-5.3113,-2.7267108012827284,-16.295118048224758,-4.729578300007709,4.444999999999709
-0.2943,1.006,-0.0517,0.2398,0.2447,0.0675,0.105,-1.12,-5.3113,-2.879798066421496,-16.29425832420787,-4.746378300015206,4.460000000006403
-0.292,1.0089,-0.0504,0.2365,0.2446,0.0696,0.4462,-1.1375,-5.4163,-2.86509724469023,-16.2939520546763,-4.746378300015206,4.460000000006403
-0.2905,1.0056,-0.0478,0.2365,0.2446,0.0696,-0.0962,-1.3737,-5.25,-2.7654723850509018,-16.265443219943126,-4.76835750000969,4.4760000000023865
-0.2905,1.0056,-0.0478,0.241,0.245,0.0653,-0.525,-1.1988,-5.2762,-2.7369780139226054,-16.244368349441757,-4.76835750000969,4.4760000000023865
-0.2962,1.0035,-0.0522,0.241,0.245,0.0653,-0.525,-1.1988,-5.2762,-2.892764567459976,-16.2666702950896,-4.787538300013598,4.492000000005646
-0.2987,1.0047,-0.0512,0.241,0.245,0.0674,-0.2362,-1.75,-5.2238,-2.9094402903605188,-16.310659130035145,-4.787538300013598,4.492000000005646
-0.2961,1.0025,-0.0526,0.2391,0.2427,0.0674,0.1838,-1.7938,-5.3113,-2.976939387823295,-16.322533886554996,-4.814445299999502,4.506999999997788
-0.2964,1.0031,-0.0546,0.2391,0.2427,0.0674,0.1838,-1.7938,-5.3025,-3.0764625398335292,-16.334554458674354,-4.814445299999502,4.506999999997788
-0.2928,1.0042,-0.0503,0.2396,0.2419,0.0621,-0.1488,-2.135,-5.3025,-2.9326193253426385,-16.324353785448714,-4.8486053000064615,4.523000000001048
-0.2928,1.0042,-0.0503,0.2396,0.2419,0.0621,-0.0613,-2.2313,-5.5125,-2.887268119407777,-16.316740669618635,-4.8486053000064615,4.523000000001048
-0.2926,1.0041,-0.0493,0.2398,0.244,0.0728,0.3588,-2.17,-5.4687,-2.8314363917128547,-16.312459984327944,-4.881155300020987,4.538000000007742
-0.2904,1.0032,-0.0578,0.2398,0.244,0.0728,0.3588,-2.17,-5.4687,-3.172118548417185,-16.303140205080584,-4.881155300020987,4.538000000007742
-0.2892,1.0038,-0.0507,0.2398,0.244,0.0728,0.1138,-1.82,-5.74,-2.972271653971412,-16.242118853825698,-4.910275300013677,4.554000000003725
-0.289,1.0014,-0.0492,0.2414,0.2425,0.064,-0.2887,-1.61,-5.0312,-2.8647120316449555,-16.196764368758856,-4.910275300013677,4.554000000003725
-0.289,1.0014,-0.0492,0.2414,0.2425,0.064,-0.2187,-1.575,-4.5413,-2.8292984010868545,-16.141997947790852,-4.935475300007352,4.569999999999709
-0.2891,1.0015,-0.052,0.2391,0.2449,0.0686,-0.2187,-1.575,-4.5413,-2.926722664791203,-16.11356824524918,-4.935475300007352,4.569999999999709
-0.2889,1.0021,-0.051,0.2391,0.2449,0.0686,-0.3325,-1.155,-4.3925,-2.9178343770345334,-16.08759557147642,-4.95280030000668,4.584999999999127
-0.2869,1.0016,-0.0472,0.2391,0.2449,0.0686,-0.8225,-1.1113,-4.3663,-2.7847074628028006,-16.0258299927178,-4.95280030000668,4.584999999999127
-0.2902,1.0009,-0.0472,0.241,0.2434,0.0722,-0.4375,-0.9975,-4.9262,-2.728951197032641,-16.067404821922135,-4.968760300009931,4.6010000000023865
-0.291,1.002,-0.0481,0.241,0.2434,0.0722,-0.4375,-0.9975,-4.9262,-2.741687076547406,-16.10342638356805,-4.968760300009931,4.6010000000023865
-0.291,1.002,-0.0481,0.2402,0.2423,0.0668,-0.4462,-1.2775,-5.2762,-2.7460401843874265,-16.112525903219716,-4.987922800009188,4.616000000001804
-0.2931,1.0027,-0.0424,0.2402,0.2423,0.0668,-0.56,-1.4787,-5.4862,-2.5373712427552335,-16.123233040413876,-5.011582000003249,4.631999999997788
-0.2937,0.9981,-0.0414,0.2402,0.2423,0.0668,-0.9013,-1.54,-5.8187,-2.441193908273525,-16.19772416936281,-5.011582000003249,4.631999999997788
-0.2957,0.998,-0.0436,0.2408,0.2437,0.0703,-0.9013,-1.54,-5.8187,-2.476965731687636,-16.28112058158773,-5.0362220000082685,4.648000000001048
-0.2957,0.9977,-0.0443,0.2408,0.2437,0.0703,-0.4725,-2.0213,-5.9062,-2.5197179942922934,-16.350779961344923,-5.0362220000082685,4.648000000001048
-0.2957,0.9977,-0.0443,0.2393,0.243,0.0706,0.385,-2.3275,-5.4163,-2.536329788178118,-16.35103467475361,-5.071134500006914,4.663000000000466
-0.2979,0.998,-0.0462,0.2393,0.243,0.0706,0.875,-2.4237,-5.4075,-2.6235154888720955,-16.353678780654995,-5.071134500006914,4.663000000000466
-0.2968,0.998,-0.0471,0.2393,0.243,0.0741,0.875,-2.4237,-5.4075,-2.683488004138491,-16.355681137955138,-5.109913700014815,4.679000000003725
-0.2969,0.9984,-0.0499,0.2394,0.243,0.0741,0.7613,-2.9225,-5.5475,-2.8181111770272627,-16.376994304086523,-5.109913700014815,4.679000000003725
-0.293,0.9994,-0.0447,0.2394,0.243,0.0741,1.1113,-3.325,-4.97,-2.618482774582731,-16.360724721880615,-5.1597887000128795,4.694000000003143
-0.2904,1.0004,-0.0537,0.2389,0.2436,0.0666,1.1113,-3.325,-5.3637,-2.97100994655673,-16.350634280118808,-5.1597887000128795,4.694000000003143
-0.2904,1.0004,-0.0537,0.2389,0.2436,0.0666,1.3388,-3.815,-5.3637,-3.0509767293566883,-16.341064328865748,-5.220828699997557,4.709999999999127
-0.2941,1.0027,-0.0545,0.2397,0.2442,0.0676,1.4438,-4.5675,-5.7838,-3.098620524676512,-16.3365026274523,-5.220828699997557,4.709999999999127
-0.2916,1.0055,-0.0527,0.2397,0.2442,0.0676,1.3212,-4.445,-5.95,-3.0212511895963265,-16.27223502871784,-5.291948700012046,4.7260000000023865
-0.2902,1.0085,-0.0539,0.2397,0.2442,0.0676,1.3212,-4.445,-5.95,-3.051172013261306,-16.18871162823572,-5.291948700012046,4.7260000000023865
-0.2913,1.0087,-0.0572,0.242,0.2435,0.0637,0.5775,-4.2875,-6.2213,-3.1961865700628413,-16.141873234709408,-5.35626120000955,4.741000000001804
-0.2913,1.0087,-0.0572,0.242,0.2435,0.0637,0.2187,-3.8238,-5.915,-3.2317698050039265,-16.122515478427555,-5.35626120000955,4.741000000001804
-0.2897,1.0084,-0.0561,0.2418,0.2438,0.0688,0.455,-4.1038,-6.125,-3.196699920614838,-16.073921695789956,-5.421922000022927,4.757000000005064
-0.2883,1.0063,-0.0531,0.2418,0.2438,0.0688,0.455,-4.1038,-6.125,-3.0667447342338825,-16.029089422334657,-5.421922000022927,4.757000000005064
-0.2902,1.0051,-0.0545,0.2418,0.2438,0.0688,0.4288,-3.6925,-6.0988,-3.0939691673557905,-16.05071391489218,-5.477309499993911,4.771999999997206
-0.2922,1.0055,-0.0586,0.2406,0.2435,0.0707,0.2713,-3.7625,-5.8713,-3.2688851775593117,-16.090392544073463,-5.477309499993911,4.771999999997206
-0.2922,1.0073,-0.0544,0.2406,0.2435,0.0707,0.1312,-3.3688,-5.8625,-3.1421854585873,-16.110025672245083,-5.531210300004892,4.788000000000466
-0.2891,1.0073,-0.0544,0.2399,0.2435,0.0693,0.1312,-3.3688,-5.8625,-3.105880243384003,-16.073597075796435,-5.531210300004892,4.788000000000466
-0.2855,1.0056,-0.0536,0.2399,0.2435,0.0693,-0.6125,-2.6688,-5.7312,-3.071025404678156,-16.015139149977667,-5.573911100013591,4.804000000003725
-0.2888,1.0028,-0.0534,0.2399,0.2435,0.0693,-0.8575,-2.415,-5.95,-3.0573095615108206,-16.025334838901657,-5.573911100013591,4.804000000003725
-0.2905,1.0028,-0.0551,0.241,0.2437,0.0765,-0.7613,-1.7675,-5.8625,-3.111250822672361,-16.058352686944247,-5.6004236000125625,4.819000000003143
-0.2922,1.0031,-0.0525,0.241,0.2437,0.0765,-0.7613,-1.7675,-5.8625,-3.0403717213576034,-16.10798064646846,-5.6004236000125625,4.819000000003143
-0.2922,1.0031,-0.0525,0.2415,0.2432,0.0626,-1.47,-1.47,-5.8275,-3.0194933128041717,-16.140419331815345,-5.623943600017354,4.835000000006403
-0.2915,1.0068,-0.0487,0.2415,0.2432,0.0626,-1.3475,-1.2862,-5.5475,-2.8937031994119136,-16.13916843675292,-5.623943600017354,4.835000000006403
-0.2925,1.0043,-0.0507,0.2415,0.2432,0.0626,-1.3475,-1.0588,-5.5475,-2.8918438653069347,-16.148259664593198,-5.639825600009034,4.849999999998545
-0.2938,1.0021,-0.0474,0.2382,0.2435,0.0728,-1.8813,-1.0588,-5.5475,-2.832477342012708,-16.16828575781061,-5.639825600009034,4.849999999998545
-0.2957,1.0025,-0.0473,0.2382,0.2435,0.0728,-2.3363,-0.8575,-5.4775,-2.829610375137702,-16.18222300629289,-5.653545600011829,4.866000000001804
-0.2977,0.9989,-0.0432,0.2411,0.2448,0.069,-2.065,-0.2537,-5.7925,-2.749425142305943,-16.29082206303973,-5.653545600011829,4.866000000001804
-0.2977,0.9989,-0.0432,0.2411,0.2448,0.069,-2.065,-0.2537,-5.7925,-2.687441379452373,-16.369836984873096,-5.657604800012656,4.882000000005064
-0.3004,0.9975,-0.0446,0.2407,0.2454,0.073,-1.75,-0.4288,-5.74,-2.6392571092032124,-16.460961751127375,-5.657604800012656,4.882000000005064
-0.3022,0.9984,-0.0475,0.2407,0.2454,0.073,-1.6625,-0.9013,-5.6962,-2.6739794056405275,-16.539584950567132,-5.671124300005574,4.896999999997206
-0.3049,1.003,-0.0421,0.2407,0.2454,0.073,-1.1638,-0.84,-5.1887,-2.52674822066307,-16.60582930215844,-5.671124300005574,4.896999999997206
-0.304,1.0017,-0.0428,0.2411,0.2455,0.0684,-1.1638,-0.84,-5.1887,-2.483121655260878,-16.654689789530646,-5.684564300008312,4.913000000000466
-0.304,1.0017,-0.0428,0.2411,0.2455,0.0684,-0.595,-1.365,-5.2937,-2.4598210463049255,-16.678253809537306,-5.705039300007518,4.927999999999884
-0.3037,1.0017,-0.0447,0.2411,0.2443,0.0658,-0.6212,-1.4963,-4.8562,-2.5202813942286233,-16.740283019038397,-5.705039300007518,4.927999999999884
-0.3021,1.0025,-0.0465,0.2411,0.2443,0.0658,-0.07,-1.225,-4.6638,-2.614526769272141,-16.745751873221494,-5.724639300011511,4.944000000003143
-0.3013,1.0031,-0.0418,0.2411,0.2443,0.0658,-0.07,-1.225,-4.6638,-2.4556159476312516,-16.728205125754606,-5.734439300013507,4.952000000004773
-0.2996,1.0053,-0.0436,0.2413,0.2458,0.0661,-0.175,-1.54,-4.3313,-2.474652048435337,-16.651231833082303,-5.746759300016017,4.960000000006403
-0.2996,1.0032,-0.0461,0.2413,0.2458,0.0661,-0.5512,-1.8813,-4.5675,-2.5753477060694627,-16.63292161746386,-5.7636910000126225,4.969000000004598
-0.2956,1.0032,-0.0461,0.241,0.2452,0.0687,-0.07,-2.0912,-4.375,-2.6141186486345913,-16.51482505061519,-5.778329400007997,4.9760000000023865
-0.2986,1.0049,-0.0425,0.241,0.2452,0.0687,-0.07,-2.0912,-4.375,-2.4802473365967743,-16.525139342206533,-5.795059000011405,4.984000000004016
-0.2958,1.0061,-0.0443,0.241,0.2452,0.0687,-0.0962,-2.0912,-4.2875,-2.5086371250857735,-16.442110787286424,-5.811788600014814,4.992000000005646
-0.2932,1.0045,-0.0448,0.2426,0.2428,0.0731,-0.385,-1.9338,-4.795,-2.53851910382334,-16.370859405449107,-5.827259000017966,5.000000000007276
-0.2949,1.0035,-0.047,0.2426,0.2428,0.0731,-0.1663,-1.7938,-4.8825,-2.6367455386947642,-16.366926522586407,-5.841609400007838,5.00800000000163
-0.2949,1.0035,-0.047,0.2391,0.245,0.069,-0.1663,-1.7938,-4.8825,-2.6675148671332987,-16.364365364995503,-5.850578400003139,5.0129999999990105
-0.2974,1.004,-0.0476,0.2391,0.245,0.069,0.1312,-1.8637,-5.565,-2.700951674691651,-16.379507762634255,-5.850578400003139,5.0129999999990105
-0.2967,1.0036,-0.0478,0.2391,0.245,0.069,-0.4462,-1.8813,-5.3987,-2.717960000717755,-16.380885011009678,-5.880679200009271,5.02900000000227
-0.2965,1.0015,-0.0478,0.2406,0.2454,0.0697,-0.4462,-1.8813,-6.02,-2.7275487695054235,-16.41585920967746,-5.880679200009271,5.02900000000227
-0.2962,1.0021,-0.0487,0.2406,0.2454,0.0697,-1.0325,-2.135,-6.02,-2.7587445464562204,-16.428021145269305,-5.9127042000080285,5.044000000001688
-0.2962,1.0017,-0.0492,0.2398,0.2433,0.0654,-0.7175,-2.0912,-5.4687,-2.7917794247601773,-16.429274872938212,-5.9127042000080285,5.044000000001688
-0.2987,1.0017,-0.0492,0.2398,0.2433,0.0654,-0.4462,-1.6275,-5.0487,-2.8049971351567407,-16.471368277763,-5.938744200013334,5.060000000004948
-0.2976,1.0008,-0.0473,0.2415,0.2448,0.0684,-0.4462,-1.6275,-5.0487,-2.7399322491625266,-16.490698322713644,-5.938744200013334,5.060000000004948
-0.2992,1.0035,-0.0471,0.2415,0.2448,0.0684,-0.735,-1.4262,-5.3463,-2.707327785730801,-16.497017001499408,-5.960137200002126,5.07499999999709
-0.2965,1.0039,-0.0457,0.2415,0.2448,0.0684,-0.6825,-1.3038,-4.6463,-2.644142325313346,-16.471441807528272,-5.960137200002126,5.07499999999709
-0.2938,1.002,-0.0426,0.2411,0.2429,0.0655,-1.6625,-1.0588,-4.025,-2.558083519528673,-16.387876043642805,-5.977078000005577,5.091000000000349
-0.2938,1.002,-0.0426,0.2411,0.2429,0.0655,-1.6625,-1.0588,-4.025,-2.507345756640699,-16.3529564068031,-5.977078000005577,5.091000000000349
-0.2937,1.0032,-0.0431,0.243,0.2451,0.0698,-1.4963,-0.7437,-4.1562,-2.4854495692395706,-16.32555850343195,-5.9889772000080015,5.107000000003609
-0.2914,1.0053,-0.0403,0.243,0.2451,0.0698,-1.785,-0.4375,-4.69,-2.416249258586208,-16.252711960165968,-5.9889772000080015,5.107000000003609
-0.2917,1.0032,-0.0427,0.243,0.2451,0.0698,-2.7125,-0.2887,-4.6638,-2.4217393814630572,-16.22958513663025,-5.993307700007834,5.122000000003027
-0.2934,0.9991,-0.0396,0.24,0.2462,0.0675,-2.7125,-0.2887,-4.6638,-2.382019352828424,-16.282854621336007,-5.993307700007834,5.122000000003027
-0.2934,0.9941,-0.0392,0.24,0.2462,0.0675,-2.3537,0.0088,-4.76,-2.381409365142226,-16.34182277188294,-5.993166900007805,5.138000000006286
-0.2993,0.9941,-0.0392,0.24,0.2454,0.0688,-1.6363,0.0787,-5.0662,-2.329716627512349,-16.446382660085696,-5.993166900007805,5.138000000006286
-0.301,0.9936,-0.038,0.24,0.2454,0.0688,-0.7175,0.105,-5.1537,-2.2430219092687325,-16.529103990169254,-5.99159190000863,5.152999999998428
-0.299,0.9966,-0.044,0.24,0.2454,0.0688,-0.7175,0.105,-5.1537,-2.420084127657368,-16.561691997182844,-5.99159190000863,5.152999999998428
-0.2982,1.0005,-0.0378,0.2413,0.2451,0.0666,-0.2887,-0.1225,-5.1188,-2.24719324765907,-16.567189165318762,-5.993551900009029,5.169000000001688
-0.2977,1.0044,-0.0401,0.2413,0.2451,0.0666,0.3063,0.2975,-5.1363,-2.2756161088417644,-16.551797912335378,-5.993551900009029,5.169000000001688
-0.2977,1.0044,-0.0401,0.2407,0.243,0.0671,0.4288,-0.2713,-4.8387,-2.2834655552444416,-16.531760937898685,-5.997892700009913,5.185000000004948
-0.2935,1.0072,-0.0409,0.2407,0.243,0.0671,0.4288,-0.2713,-4.8387,-2.3143044511909894,-16.422364193493355,-5.997892700009913,5.185000000004948
-0.2952,1.0092,-0.0436,0.2407,0.243,0.0671,0.665,-0.0088,-5.0487,-2.4341489798250326,-16.386734917486862,-5.998024700009908,5.200000000004366
-0.2968,1.0101,-0.0422,0.2413,0.245,0.071,0.1138,0.07,-4.795,-2.404361876151175,-16.37684920186876,-5.998024700009908,5.200000000004366
-0.2979,1.0074,-0.042,0.2413,0.245,0.071,0.1138,0.07,-4.795,-2.3922586679740268,-16.408786249971296,-5.99683470000992,5.217000000004191
-0.2979,1.0074,-0.0442,0.241,0.245,0.0694,-0.4112,-0.0437,-5.1887,-2.471546089456453,-16.418079060515996,-5.99683470000992,5.217000000004191
-0.3001,1.005,-0.0442,0.241,0.245,0.0694,-0.175,-0.5688,-5.4075,-2.5035809463733307,-16.420098424266328,-6.0053667000054505,5.231999999996333
-0.299,1.0011,-0.0421,0.241,0.2456,0.0696,-0.5863,-1.155,-5.6175,-2.442529553371182,-16.45258700367646,-6.0053667000054505,5.231999999996333
-0.2995,1.0016,-0.04,0.2402,0.2456,0.0696,-0.5863,-1.155,-5.6175,-2.3430713892929615,-16.48295989822647,-6.023846700009216,5.2479999999995925
-0.2996,1.0009,-0.0394,0.2402,0.2456,0.0696,-0.8138,-0.8575,-5.495,-2.2891584510664487,-16.495023229079678,-6.023846700009216,5.2479999999995925
-0.2969,0.9991,-0.0367,0.2426,0.2453,0.0654,-0.84,-0.7437,-5.145,-2.177336176475381,-16.50460479100132,-6.03574590001164,5.264000000002852
-0.2969,0.9991,-0.0367,0.2426,0.2453,0.0654,-0.7962,-0.9363,-4.9788,-2.1324387411523404,-16.51531345591236,-6.049790400011095,5.27900000000227
-0.3009,0.9989,-0.0416,0.242,0.2443,0.0693,-0.7962,-0.9363,-4.9788,-2.2862857952758917,-16.587016865127183,-6.049790400011095,5.27900000000227
-0.3016,1.0016,-0.0419,0.242,0.2443,0.0693,-0.4288,-0.84,-4.8825,-2.3581982357891884,-16.64183304656365,-6.0632304000138335,5.29500000000553
-0.2999,1.0019,-0.0401,0.242,0.2443,0.0693,-0.8487,-0.805,-4.9525,-2.318362507735403,-16.64490187389409,-6.0632304000138335,5.29500000000553
-0.2992,0.9983,-0.0385,0.2407,0.2422,0.0646,-1.1463,-1.47,-4.9788,-2.2581858376615656,-16.65325435978703,-6.085280400002282,5.309999999997672
-0.2992,0.9983,-0.0385,0.2407,0.2422,0.0646,-1.1463,-1.47,-4.9788,-2.230985486327378,-16.65905756657605,-6.085280400002282,5.309999999997672
-0.3009,1.0002,-0.042,0.241,0.2453,0.0694,-0.6913,-1.5313,-4.8738,-2.339466778614776,-16.683871614000008,-6.109781200007274,5.326000000000931
-0.299,1.0014,-0.0401,0.241,0.2453,0.0694,-0.4025,-1.7763,-5.39,-2.3088004132105096,-16.681910721558264,-6.109781200007274,5.326000000000931
-0.3002,1.0013,-0.0415,0.241,0.2453,0.0694,-0.1575,-1.82,-5.2238,-2.3531713463867154,-16.68090827732831,-6.138901200013207,5.342000000004191
-0.2965,1.0001,-0.0394,0.2403,0.2461,0.0666,-0.1575,-1.82,-5.2238,-2.2863972967707014,-16.651709785281675,-6.138901200013207,5.342000000004191
-0.2941,1.0033,-0.0425,0.2403,0.2461,0.0666,0.455,-1.0762,-4.6287,-2.3891070732218704,-16.507019696811163,-6.15504420001258,5.357000000003609
-0.2941,1.0033,-0.0425,0.2412,0.2458,0.0701,0.21,-1.085,-4.5675,-2.415382077410875,-16.422772051407904,-6.15504420001258,5.357000000003609
-0.2926,1.0051,-0.0483,0.2412,0.2458,0.0701,0.21,-1.085,-4.2613,-2.657117622331554,-16.310455227946733,-6.172404200016117,5.3730000000068685
-0.2901,1.007,-0.0405,0.2412,0.2458,0.0701,-0.3063,-1.2775,-4.2613,-2.4190869931890755,-16.175320472454768,-6.172404200016117,5.3730000000068685
-0.2905,1.0044,-0.0432,0.2408,0.2444,0.0723,-0.1925,-1.3825,-4.4713,-2.4490050445856077,-16.147050496490042,-6.193141700005253,5.3879999999990105
-0.2944,1.0006,-0.0413,0.2408,0.2444,0.0723,0.0962,-0.8838,-4.2438,-2.388288469272725,-16.273898999469594,-6.193141700005253,5.3879999999990105
-0.2944,1.0006,-0.0413,0.2418,0.2438,0.0718,0.0962,-0.8838,-4.2438,-2.3707141627508244,-16.332239248314064,-6.207282500008134,5.40400000000227
-0.2994,0.9965,-0.0434,0.2418,0.2438,0.0718,-0.2713,-0.805,-4.2962,-2.453928588072097,-16.53092476259212,-6.207282500008134,5.40400000000227
-0.3002,1.0008,-0.0422,0.2418,0.2438,0.0667,-0.4988,-1.3475,-4.095,-2.4282991828156626,-16.61761917377593,-6.228842500002722,5.419999999998254
-0.2979,0.9998,-0.0436,0.2435,0.243,0.0667,-0.035,-1.2425,-4.4538,-2.476339233119631,-16.597698943436612,-6.228842500002722,5.419999999998254
-0.2969,1.0013,-0.0441,0.2435,0.243,0.0667,-0.035,-1.2425,-4.4538,-2.5081455428895136,-16.550096233891452,-6.2474800000110395,5.435000000004948
-0.2945,1.003,-0.0488,0.2421,0.2448,0.0606,0.0,-0.9975,-4.55,-2.7029029006732617,-16.45476513952913,-6.2474800000110395,5.435000000004948
-0.2945,1.003,-0.0488,0.2421,0.2448,0.0606,0.595,-0.9363,-4.585,-2.7645895713015305,-16.40485619446143,-6.262460800014091,5.451000000008207
-0.2934,1.0047,-0.0519,0.2411,0.2448,0.0664,0.6037,-1.1113,-4.8475,-2.9085238433521745,-16.351766809128076,-6.262460800014091,5.451000000008207
-0.2946,1.0051,-0.0496,0.2411,0.2448,0.0664,0.6037,-1.1113,-4.8475,-2.8461981161004473,-16.339257950552454,-6.279130300005359,5.466000000000349
-0.2949,1.0071,-0.0475,0.2411,0.2448,0.0664,0.2713,-1.4438,-4.7162,-2.7405374953718282,-16.3247075515463,-6.279130300005359,5.466000000000349
-0.293,1.006,-0.0509,0.2397,0.2467,0.0667,0.3325,-1.2163,-4.6375,-2.8542406422637527,-16.27822544596423,-6.2985911000093235,5.482000000003609
-0.293,1.006,-0.0509,0.2397,0.2467,0.0667,-0.245,-1.6975,-4.55,-2.8829218843997917,-16.25055409616644,-6.2985911000093235,5.482000000003609
-0.2954,1.005,-0.0504,0.241,0.2429,0.0673,-0.245,-1.6975,-4.55,-2.874785089237196,-16.301507945183722,-6.325751100002506,5.4979999999995925
-0.2936,1.0017,-0.0504,0.241,0.2429,0.0673,-0.5775,-1.6275,-3.9987,-2.8783667063915517,-16.310251820023744,-6.325751100002506,5.4979999999995925
-0.2911,1.0003,-0.0457,0.241,0.2429,0.0673,-1.2862,-1.82,-4.2263,-2.742500607117053,-16.25554823950161,-6.353051100001447,5.5129999999990105
-0.2908,0.999,-0.0493,0.2406,0.2441,0.0625,-1.2862,-1.575,-4.76,-2.7853048452524707,-16.237913832578723,-6.353051100001447,5.5129999999990105
-0.2908,0.9997,-0.0448,0.2406,0.2441,0.0625,-0.9625,-1.575,-4.76,-2.6574682162529477,-16.224307941907572,-6.3782511000065805,5.52900000000227
-0.2885,0.9997,-0.0448,0.2398,0.244,0.0683,-0.3938,-1.8288,-5.2675,-2.596787577893684,-16.205699190143225,-6.3782511000065805,5.52900000000227
-0.2905,1.0013,-0.0428,0.2398,0.244,0.0683,-0.2887,-1.9338,-5.145,-2.496186427342633,-16.196896480315324,-6.407258100005455,5.544000000001688
-0.2918,1.0029,-0.0455,0.2398,0.244,0.0683,-0.2887,-1.9338,-5.145,-2.5645916011463687,-16.19904002678324,-6.407258100005455,5.544000000001688
-0.2896,1.0019,-0.0436,0.241,0.2443,0.0642,-0.2713,-1.4787,-5.2675,-2.515368221131907,-16.187062919403104,-6.430917300010275,5.560000000004948
-0.2902,1.0005,-0.0468,0.241,0.2443,0.0642,-0.2275,-1.2862,-5.075,-2.6261623020467564,-16.17972056837601,-6.430917300010275,5.560000000004948
-0.2902,1.0005,-0.0468,0.2403,0.243,0.0755,-0.7088,-1.1988,-5.3288,-2.658531043656236,-16.177966364803133,-6.4500981000054605,5.576000000000931
-0.2933,0.9977,-0.0495,0.2403,0.243,0.0755,-0.7088,-1.1988,-5.3288,-2.771735295145521,-16.193135846935565,-6.4500981000054605,5.576000000000931
-0.2929,1.0019,-0.0459,0.2403,0.243,0.0755,-0.6475,-1.1463,-5.3375,-2.677895265348616,-16.199600799887065,-6.467292600004793,5.591000000000349
-0.2962,1.0019,-0.0414,0.2402,0.2442,0.0633,-0.5688,-1.3825,-5.0925,-2.477925299471443,-16.26267868212694,-6.467292600004793,5.591000000000349
-0.2941,1.0016,-0.0453,0.2402,0.2442,0.0633,0.1225,-0.6475,-4.9525,-2.557511542807227,-16.28978781530557,-6.477652600006904,5.607000000003609
-0.2941,1.002,-0.0503,0.2405,0.244,0.0647,0.1225,-0.6475,-4.9525,-2.7829516883883136,-16.305159242796737,-6.477652600006904,5.607000000003609
-0.2955,1.002,-0.0503,0.2405,0.244,0.0647,0.175,-0.98,-5.1887,-2.8480997429765362,-16.325051983315856,-6.492352600006333,5.622000000003027
-0.2961,1.002,-0.048,0.2405,0.2437,0.0619,0.1138,-1.2513,-4.9525,-2.772990028412384,-16.363171503753133,-6.512373400010412,5.638000000006286
-0.2982,1.0033,-0.0511,0.2405,0.2437,0.0619,-0.245,-0.8138,-4.27,-2.8698425191333565,-16.453780014336086,-6.512373400010412,5.638000000006286
-0.2955,1.0037,-0.0491,0.2405,0.2437,0.0619,-0.245,-0.8138,-4.27,-2.8228517016516457,-16.417793971855374,-6.525394200007143,5.65400000000227
-0.2927,1.0038,-0.0502,0.241,0.2442,0.0675,-0.1663,-1.2513,-4.7688,-2.8504061378386356,-16.34663460493195,-6.525394200007143,5.65400000000227
-0.2927,1.0038,-0.0502,0.241,0.2442,0.0675,-0.6562,-1.9338,-4.655,-2.858323826897283,-16.2991999949769,-6.5544012000060174,5.669000000001688
-0.2935,1.0042,-0.0465,0.2408,0.244,0.0678,-0.5075,-1.5225,-5.2937,-2.7238566799779615,-16.296597176589632,-6.5544012000060174,5.669000000001688
-0.2924,1.0036,-0.047,0.2408,0.244,0.0678,-0.5075,-1.5225,-5.2937,-2.696215069062908,-16.288864092861527,-6.578761199999903,5.684999999997672
-0.2978,1.0053,-0.0488,0.2408,0.244,0.0678,-0.49,-1.9863,-5.5213,-2.7502142277634856,-16.306981286300797,-6.578761199999903,5.684999999997672
-0.298,1.0041,-0.046,0.241,0.2439,0.0692,-0.8662,-1.8637,-5.11,-2.674045842566657,-16.355651896201174,-6.606716700012378,5.700000000004366
-0.298,1.0041,-0.0488,0.241,0.2439,0.0692,-0.8662,-1.8637,-5.0487,-2.7389436541125325,-16.39771232051073,-6.606716700012378,5.700000000004366
-0.2962,1.0027,-0.0488,0.2411,0.2441,0.0678,-0.8138,-1.7675,-5.0487,-2.7676952721446266,-16.408812434100604,-6.63499670001814,5.716000000007625
-0.2942,1.0005,-0.0459,0.2411,0.2441,0.0678,-0.6737,-1.61,-4.9,-2.6792258848794708,-16.395510400048497,-6.63499670001814,5.716000000007625
-0.2917,1.0022,-0.0441,0.2411,0.2441,0.0678,-0.4112,-1.2687,-4.6025,-2.573738723326554,-16.313651656234136,-6.655295900013044,5.732000000003609
-0.2947,1.0016,-0.0491,0.2409,0.2437,0.0652,-0.4112,-1.2687,-4.6025,-2.7275177878101706,-16.34202517099993,-6.655295900013044,5.732000000003609
-0.294,1.0024,-0.0421,0.2409,0.2437,0.0652,-0.8225,-1.19,-4.0687,-2.5321462721434163,-16.33659831234035,-6.673145900012352,5.747000000003027
-0.294,1.0024,-0.0421,0.2412,0.2433,0.0676,-1.0762,-0.8925,-4.1125,-2.460685628389324,-16.33432092913483,-6.673145900012352,5.747000000003027
-0.2963,1.0024,-0.0453,0.2412,0.2433,0.0676,-0.9975,-0.9712,-3.99,-2.533805086046694,-16.403123557124673,-6.688685100008451,5.7629999999990105
-0.298,1.0005,-0.0454,0.2412,0.2433,0.0676,-0.9975,-0.9712,-3.99,-2.5708962385094924,-16.50133408926745,-6.688685100008451,5.7629999999990105
-0.2954,1.0003,-0.0447,0.2414,0.2428,0.0589,-1.0412,-0.7088,-4.025,-2.5639349459603906,-16.463857102036602,-6.699317100013196,5.778000000005704
-0.2935,1.0029,-0.0409,0.2414,0.2428,0.0589,-0.77,-0.7613,-4.27,-2.4236387355734936,-16.37593595481444,-6.699317100013196,5.778000000005704
-0.2935,1.0029,-0.0428,0.2423,0.2414,0.0711,-1.3125,-0.805,-3.78,-2.4338882189669513,-16.32762794938845,-6.712197100009963,5.794000000001688
-0.2953,1.0036,-0.0428,0.2423,0.2414,0.0711,-1.3125,-0.805,-3.78,-2.4380269891358832,-16.36135234151335,-6.712197100009963,5.794000000001688
-0.2945,1.0048,-0.0422,0.2423,0.2448,0.064,-1.1375,-0.2713,-3.605,-2.419824345262241,-16.3359104190254,-6.716537900008873,5.809999999997672
-0.2949,1.0042,-0.0457,0.2418,0.2448,0.064,-1.1287,-0.8662,-3.92,-2.5223280943778987,-16.344201025371447,-6.716537900008873,5.809999999997672
-0.2949,1.0033,-0.0494,0.2418,0.2448,0.064,-1.12,-0.4638,-4.095,-2.6863806610400816,-16.35370475643878,-6.723494900011978,5.825000000004366
-0.2964,1.0031,-0.0486,0.2392,0.2426,0.0637,-1.12,-0.4638,-4.095,-2.734750148216808,-16.404745407645166,-6.723494900011978,5.825000000004366
-0.2964,1.0031,-0.0486,0.2392,0.2426,0.0637,-0.6562,-0.56,-4.2438,-2.759350415765915,-16.42558000108052,-6.73245490000973,5.841000000000349
-0.2964,1.0061,-0.0456,0.241,0.2421,0.0679,-1.3212,-0.8575,-3.9288,-2.6757008516392706,-16.409796284241455,-6.73245490000973,5.841000000000349
-0.2938,1.0027,-0.0491,0.241,0.2421,0.0679,-1.3212,-0.8575,-4.1388,-2.740728200661047,-16.355214125114617,-6.74531740000923,5.855999999999767
-0.2966,0.9994,-0.0465,0.241,0.2421,0.0679,-1.6975,-0.77,-4.1388,-2.710162784998972,-16.443686417741453,-6.74531740000923,5.855999999999767
-0.294,1.0009,-0.0462,0.2393,0.2435,0.0748,-1.0675,-0.735,-4.5325,-2.672206347462546,-16.40105389094828,-6.757077400011626,5.872000000003027
-0.294,1.0009,-0.0462,0.2393,0.2435,0.0748,-1.6275,-1.3913,-4.1825,-2.6597903812474177,-16.37444717564572,-6.757077400011626,5.872000000003027
-0.2937,1.0005,-0.0398,0.2406,0.2426,0.0687,-1.6275,-1.3913,-4.1825,-2.498554819979759,-16.35957200786405,-6.7793382000060385,5.8879999999990105
-0.2922,0.9994,-0.0414,0.2406,0.2426,0.0687,-1.26,-1.1025,-4.1213,-2.432362208545002,-16.317127770428137,-6.7793382000060385,5.8879999999990105
-0.2907,0.9994,-0.0398,0.2406,0.2426,0.0687,-0.8225,-1.26,-4.1038,-2.340400848759063,-16.254129879140134,-6.798238200014473,5.903000000005704
-0.2889,1.0013,-0.0434,0.2406,0.2441,0.0654,-0.595,-0.665,-3.9813,-2.4306711536534045,-16.15137196022939,-6.798238200014473,5.903000000005704
-0.2918,1.0011,-0.0443,0.2406,0.2441,0.0654,-0.595,-0.665,-3.9813,-2.4964589787589135,-16.200836947075068,-6.808878200011802,5.919000000001688
-0.2918,1.0011,-0.0443,0.2396,0.2433,0.0689,-0.2187,-0.0437,-4.0687,-2.5218812414350564,-16.22061061804543,-6.809533700011777,5.934000000001106
-0.2924,1.0006,-0.0435,0.2396,0.2433,0.0689,-0.5075,-0.3413,-3.8325,-2.5007302830711895,-16.254029964933427,-6.809533700011777,5.934000000001106
-0.2885,1.0018,-0.0441,0.2396,0.2433,0.0689,-0.4725,-0.1138,-3.885,-2.513700200895229,-16.130961275252712,-6.811354500011319,5.94999999999709
-0.2877,1.0017,-0.0442,0.2387,0.2438,0.0673,-0.4725,-0.1138,-3.885,-2.5220890599319894,-16.057696947413596,-6.811354500011319,5.94999999999709
-0.2893,1.002,-0.0475,0.2387,0.2438,0.0673,-0.2625,-0.3413,-4.1562,-2.6520740838169425,-16.074319167452956,-6.816815300012432,5.966000000000349
-0.2893,1.002,-0.0475,0.2391,0.2422,0.0681,-0.4462,-0.35,-3.99,-2.692793608644239,-16.08206661712805,-6.816815300012432,5.966000000000349
-0.2876,1.0025,-0.0447,0.2391,0.2422,0.0681,0.0613,-0.1488,-4.4363,-2.593906693527693,-16.03754555099366,-6.819047300013428,5.981000000007043
-0.2886,1.0017,-0.0493,0.2391,0.2422,0.0661,0.0613,-0.1488,-4.4363,-2.752201956915021,-16.0455995314435,-6.819047300013428,5.981000000007043
-0.2897,1.0014,-0.049,0.2391,0.2412,0.0661,-0.4112,0.2713,-4.305,-2.784664582646371,-16.083005867751822,-6.814706500014517,5.997000000003027
-0.2899,1.0035,-0.0504,0.2391,0.2412,0.0661,0.1138,-0.1312,-4.5763,-2.849141482109141,-16.08811513448679,-6.814706500014517,5.997000000003027
-0.289,1.0068,-0.0473,0.2388,0.2419,0.0746,-0.105,0.2362,-4.13,-2.738779003826437,-16.03810589594804,-6.811163500014654,6.012000000002445
-0.289,1.0068,-0.0473,0.2388,0.2419,0.0746,-0.105,0.2362,-4.13,-2.7048594020861434,-16.01624955190063,-6.811163500014654,6.012000000002445
-0.2827,1.0044,-0.0466,0.2395,0.2425,0.0739,-0.2362,0.28,-4.1125,-2.6719073981742696,-15.83932549248902,-6.806683500015779,6.027999999998428
-0.2827,1.0059,-0.0469,0.2395,0.2425,0.0739,-0.5775,0.2187,-4.9,-2.6703511896000767,-15.785425575190375,-6.806683500015779,6.027999999998428
-0.2823,1.0107,-0.0448,0.2395,0.2425,0.0739,-0.5775,0.2187,-4.6638,-2.5855983115867653,-15.701867199114172,-6.803184300015066,6.044000000001688
-0.2838,1.0083,-0.0466,0.2425,0.2428,0.0622,-1.4525,0.14,-4.6638,-2.6143701654454663,-15.702808889012276,-6.803184300015066,6.044000000001688
-0.2838,1.0083,-0.0466,0.2425,0.2428,0.0622,-2.1613,0.3588,-4.7512,-2.619603547061612,-15.703308367968763,-6.797802300012664,6.059000000008382
-0.2899,1.0044,-0.0465,0.2402,0.2436,0.0674,-1.995,-0.0175,-5.4425,-2.6278933946699436,-15.71236588964697,-6.797802300012664,6.059000000008382
-0.2962,1.0012,-0.0494,0.2402,0.2436,0.0674,-1.995,-0.0175,-5.4425,-2.680384038063791,-15.730221454428255,-6.798082300012466,6.07499999999709
-0.2987,1.002,-0.0443,0.2402,0.2436,0.0674,-2.0738,-0.0175,-5.4775,-2.6473740686093543,-15.778113213018065,-6.798082300012466,6.07499999999709
-0.3021,1.0022,-0.047,0.2394,0.243,0.065,-1.4875,-0.595,-6.4575,-2.6649022493262575,-16.277197900818944,-6.8070073000164495,6.0900000000037835
-0.3015,1.0032,-0.047,0.2394,0.243,0.065,-1.6888,-1.1638,-6.5275,-2.6719014859903334,-16.50494384048442,-6.8070073000164495,6.0900000000037835
-0.3015,1.0032,-0.047,0.2398,0.2433,0.0672,-1.6888,-1.1638,-6.5275,-2.6760930246648327,-16.61291039214216,-6.825628100011775,6.105999999999767
-0.2959,1.006,-0.0469,0.2398,0.2433,0.0672,-1.2425,-1.715,-6.8513,-2.672463940606961,-16.471972489638016,-6.825628100011775,6.105999999999767
-0.2933,1.0099,-0.042,0.2398,0.2433,0.0672,-1.4525,-2.0563,-6.5887,-2.5341260597983326,-16.315241106524944,-6.858528900018477,6.122000000003027
-0.2896,1.0106,-0.0495,0.2408,0.2434,0.0744,-1.75,-1.5313,-5.915,-2.6362932643079344,-16.201347286253046,-6.858528900018477,6.122000000003027
-0.2894,1.01,-0.0514,0.2408,0.2434,0.0744,-1.75,-1.5313,-5.915,-2.7411134627253917,-16.12429484947299,-6.881498400017586,6.137000000002445
-0.2894,1.01,-0.0514,0.2401,0.2427,0.0642,-1.9162,-1.5488,-5.9412,-2.793938622046392,-16.07103870329137,-6.881498400017586,6.137000000002445
-0.2933,1.0051,-0.0442,0.2401,0.2427,0.0642,-2.0125,-2.0213,-5.9412,-2.72298398535463,-16.133529182884363,-6.913839200009468,6.152999999998428
-0.2921,1.0028,-0.0407,0.2401,0.2427,0.0628,-2.45,-1.855,-5.7312,-2.6895999024799324,-16.155903598848997,-6.913839200009468,6.152999999998428
-0.2905,1.0031,-0.0448,0.2384,0.2437,0.0628,-2.45,-1.855,-5.7312,-2.6785190175714115,-16.151130853437824,-6.941664200021885,6.168000000005122
-0.2923,0.9986,-0.0424,0.2384,0.2437,0.0628,-2.1437,-1.61,-5.6788,-2.6347786047731665,-16.182198621297434,-6.941664200021885,6.168000000005122
-0.291,0.9978,-0.0422,0.2394,0.2422,0.0664,-1.75,-1.435,-5.2762,-2.5541844849677515,-16.190017835129574,-6.964624200016122,6.184000000001106
-0.291,0.9978,-0.0422,0.2394,0.2422,0.0664,-1.75,-1.12,-5.1188,-2.5040839846066314,-16.202711917133488,-6.964624200016122,6.184000000001106
-0.2904,0.9988,-0.0365,0.2394,0.2436,0.0702,-1.435,-1.12,-5.1188,-2.306641141102744,-16.202429170803352,-6.982544200019772,6.200000000004366
-0.2915,0.9983,-0.0356,0.2394,0.2436,0.0702,-1.155,-1.365,-4.83,-2.1622767232428584,-16.226644507271264,-6.982544200019772,6.200000000004366
-0.293,0.9983,-0.0395,0.2394,0.2436,0.0702,-1.26,-0.8838,-5.2762,-2.216500414925157,-16.241326491110527,-6.995801200012827,6.2149999999965075
-0.2921,0.9981,-0.0379,0.2395,0.243,0.0685,-1.26,-0.8838,-5.2762,-2.194564896909914,-16.248779905156436,-6.995801200012827,6.2149999999965075
-0.2921,0.9981,-0.0379,0.2395,0.243,0.0685,-1.2775,-0.98,-5.6438,-2.184192686782603,-16.258453230427317,-7.011481200016021,6.230999999999767
-0.2944,1.0007,-0.0373,0.2404,0.2435,0.0705,-0.8925,-0.7437,-5.3987,-2.154738736991056,-16.260818288082163,-7.011481200016021,6.230999999999767
-0.2943,1.0014,-0.0386,0.2404,0.2435,0.0705,-0.9363,-0.3675,-5.0312,-2.1856792278983286,-16.290147640964037,-7.016993700018482,6.246000000006461
-0.2904,1.0008,-0.0391,0.2404,0.2435,0.0705,-0.9363,-0.3675,-5.0312,-2.2160111199323773,-16.256447076130428,-7.016993700018482,6.246000000006461
-0.2929,1.0031,-0.0348,0.2395,0.2442,0.0789,-0.98,0.0,-4.865,-2.0832397208184874,-16.26065452598218,-7.016993700018482,6.262000000002445
-0.2929,1.0013,-0.0386,0.2395,0.2442,0.0789,-0.7613,0.1488,-4.6112,-2.159752628500433,-16.275446759156868,-7.016993700018482,6.262000000002445
-0.2963,1.0013,-0.0386,0.2389,0.2439,0.068,-1.1988,-0.035,-4.8913,-2.1854751154199348,-16.343512175006353,-7.0175537000185955,6.278000000005704
-0.2915,1.0052,-0.0372,0.2389,0.2439,0.068,-1.1988,-0.035,-4.8913,-2.1499977527684044,-16.280627379883516,-7.018078700018321,6.292999999997846
-0.2948,1.0083,-0.0343,0.2389,0.2439,0.068,-0.7088,0.0962,-4.5675,-2.024427078144468,-16.284286640689047,-7.018078700018321,6.292999999997846
-0.2923,1.0059,-0.0372,0.2406,0.2434,0.0656,-0.9275,-0.35,-4.935,-2.079473323384781,-16.25442544304842,-7.023678700019461,6.309000000001106
-0.2923,1.0051,-0.0368,0.2406,0.2434,0.0656,-1.0675,-0.1575,-5.0925,-2.089265369536369,-16.242293641450683,-7.023678700019461,6.309000000001106
-0.2923,1.0051,-0.0368,0.2401,0.2414,0.0593,-1.0675,-0.1575,-5.0925,-2.093539227828252,-16.233141626195767,-7.026041200020516,6.3240000000078
-0.2955,1.0024,-0.0348,0.2401,0.2414,0.0593,-1.295,-0.5863,-4.8738,-2.039307334976997,-16.297507570581462,-7.026041200020516,6.3240000000078
-0.2983,1.0011,-0.0376,0.2401,0.2414,0.0593,-1.3212,-0.5337,-4.9262,-2.0961511830113793,-16.391157606586148,-7.034580400018372,6.3400000000037835
-0.2964,1.0021,-0.0391,0.241,0.2427,0.0674,-1.2425,-0.9538,-4.9088,-2.1690890475816316,-16.41616041841138,-7.034580400018372,6.3400000000037835
-0.2945,1.0021,-0.0394,0.241,0.2427,0.0674,-1.2425,-0.9538,-4.9088,-2.2125895395110744,-16.398961363561952,-7.049841200014542,6.355999999999767
-0.2945,1.0038,-0.0393,0.2379,0.2434,0.0744,-0.91,-1.4525,-5.5475,-2.230021579913977,-16.39209711069289,-7.049841200014542,6.355999999999767
-0.2954,1.0038,-0.0393,0.2379,0.2434,0.0744,-0.77,-1.4787,-5.0662,-2.2374063986361796,-16.39059154710775,-7.072021700013681,6.370999999999185
-0.2955,1.0014,-0.0345,0.2397,0.2444,0.0706,-0.77,-1.4787,-4.9612,-2.0752391647110295,-16.403394336365913,-7.072021700013681,6.370999999999185
-0.2917,1.0053,-0.0334,0.2397,0.2444,0.0706,-0.1488,-1.2163,-4.9612,-1.9565838956366097,-16.330912960856406,-7.091482500017646,6.387000000002445
-0.289,1.0039,-0.0378,0.2397,0.2444,0.0706,-0.6212,-1.5662,-4.9,-2.0833734891387237,-16.234743869692323,-7.091482500017646,6.387000000002445
-0.2917,1.0036,-0.041,0.2402,0.2437,0.0697,-0.3588,-1.5925,-4.6025,-2.2540532412622643,-16.216396130847155,-7.1153700000167195,6.402000000001863
-0.2917,1.0036,-0.041,0.2402,0.2437,0.0697,-0.3588,-1.5925,-4.6025,-2.3109493557412066,-16.20629045772904,-7.1153700000167195,6.402000000001863
-0.2929,1.001,-0.0384,0.2392,0.2455,0.0667,-0.2713,-1.33,-4.865,-2.2338292001406934,-16.239133547153344,-7.136650000011378,6.417999999997846
-0.2918,1.0008,-0.0354,0.2392,0.2455,0.0667,-0.21,-1.5488,-4.6638,-2.0918725529605187,-16.241787138343707,-7.136650000011378,6.417999999997846
-0.2922,1.0028,-0.0366,0.2392,0.2455,0.0667,-0.5163,-1.855,-4.2787,-2.090815957298651,-16.23819617949138,-7.166330000017425,6.434000000001106
-0.293,1.0009,-0.0365,0.2398,0.2442,0.0589,-0.5163,-1.855,-4.2787,-2.0893083286600804,-16.274530108075936,-7.166330000017425,6.434000000001106
-0.293,1.0009,-0.0404,0.2398,0.2442,0.0589,-0.5425,-1.7237,-4.4713,-2.232545010521023,-16.288916528022213,-7.192185500016421,6.449000000000524
-0.2929,0.9996,-0.0404,0.2401,0.2408,0.069,-0.1138,-1.4088,-4.4713,-2.2891850320299603,-16.303488483113064,-7.192185500016421,6.449000000000524
-0.2902,1.0031,-0.0346,0.2401,0.2408,0.069,0.6125,-0.7875,-4.375,-2.0545091005053036,-16.21299109740218,-7.204785500018988,6.4650000000037835
-0.2903,1.0016,-0.0365,0.2401,0.2408,0.069,0.6125,-0.7875,-4.375,-2.078841974878389,-16.182537765212956,-7.204785500018988,6.4650000000037835
-0.2866,0.9998,-0.0358,0.24,0.2424,0.0744,0.245,-1.5838,-4.3663,-2.058525974374434,-16.081592326088412,-7.228542500006543,6.4799999999959255
-0.2877,1.0003,-0.0391,0.24,0.2424,0.0744,0.315,-1.3563,-4.2875,-2.1894756427334063,-16.05652150754498,-7.228542500006543,6.4799999999959255
-0.2877,1.0003,-0.0391,0.2381,0.245,0.069,0.77,-1.4438,-4.8475,-2.2265905937019235,-16.048465413992428,-7.251643300011249,6.495999999999185
-0.2891,1.0003,-0.0397,0.2381,0.245,0.069,0.77,-1.4438,-4.8475,-2.2615829520641393,-16.070084705307103,-7.251643300011249,6.495999999999185
-0.2918,1.0027,-0.0376,0.2381,0.245,0.069,0.6475,-1.3038,-5.0575,-2.1759875435123925,-16.10847803067508,-7.2725041000154995,6.512000000002445
-0.2882,1.0023,-0.0418,0.239,0.2432,0.0706,0.42,-1.4875,-5.005,-2.331953745245031,-16.085177861980824,-7.2725041000154995,6.512000000002445
-0.2896,1.0025,-0.0406,0.239,0.2432,0.0706,0.42,-0.9013,-4.5325,-2.322531291244697,-16.092288945965308,-7.286023600014975,6.527000000001863
-0.2896,1.0025,-0.0406,0.2395,0.2428,0.069,0.5688,-0.9013,-4.5325,-2.3200036867465674,-16.09606022791263,-7.286023600014975,6.527000000001863
-0.2932,1.0043,-0.042,0.2395,0.2428,0.069,0.4375,-1.5925,-4.2438,-2.3750408202535755,-16.18536749342983,-7.311503600020166,6.543000000005122
-0.2935,1.0056,-0.0411,0.2395,0.2424,0.0657,0.63,-1.1988,-4.585,-2.349114944505164,-16.21830906075196,-7.311503600020166,6.543000000005122
-0.2938,1.0067,-0.0448,0.24,0.2424,0.0657,0.63,-1.1988,-4.585,-2.498201886144385,-16.234695624741065,-7.329485600010746,6.557999999997264
-0.2909,1.0059,-0.0434,0.24,0.2424,0.0657,0.1663,-1.6538,-5.0312,-2.478372776082462,-16.20139606473593,-7.329485600010746,6.557999999997264
-0.2898,1.0057,-0.0423,0.2405,0.2435,0.0675,-0.14,-1.6625,-5.0925,-2.4301781337000405,-16.166977630613015,-7.356085600016165,6.574000000000524
-0.2898,1.0057,-0.0423,0.2405,0.2435,0.0675,0.2275,-1.785,-5.0662,-2.4145129542354034,-16.139461557045152,-7.356085600016165,6.574000000000524
-0.2894,1.0049,-0.0434,0.2391,0.2434,0.0714,0.2275,-1.785,-5.0662,-2.4566727674994424,-16.116596830391856,-7.384645600021983,6.5900000000037835
-0.2901,1.0058,-0.0428,0.2391,0.2434,0.0714,-0.315,-1.82,-5.04,-2.4432273630910526,-16.105239513277112,-7.384645600021983,6.5900000000037835
-0.2894,1.0028,-0.0443,0.2391,0.2434,0.0714,-0.455,-1.8463,-4.6638,-2.4997693868607804,-16.09560859086668,-7.412340100020908,6.605000000003201
-0.2898,1.0022,-0.0393,0.2408,0.2441,0.0756,-0.4375,-1.9863,-5.3025,-2.3326302236541228,-16.097743620505117,-7.412340100020908,6.605000000003201
-0.2898,1.0022,-0.0393,0.2408,0.2441,0.0756,-0.4375,-1.9863,-5.3025,-2.2754132986678735,-16.09965743603418,-7.444120900027383,6.621000000006461
-0.2877,1.0025,-0.0435,0.2411,0.2418,0.0671,-0.7175,-2.0387,-4.97,-2.405392401206683,-16.06828545488552,-7.444120900027383,6.621000000006461
-0.2882,1.0022,-0.0434,0.2411,0.2418,0.0671,-0.7875,-1.995,-4.5237,-2.450756070834504,-16.04985938718348,-7.474045900011706,6.635999999998603
-0.2894,1.0031,-0.0406,0.2411,0.2418,0.0671,-0.49,-1.7062,-4.8387,-2.364118401302638,-16.061159798991223,-7.501345100017268,6.652000000001863
-0.2869,1.0007,-0.0439,0.2397,0.2453,0.0666,-0.49,-1.7062,-4.8387,-2.4603934618733856,-16.03247804179279,-7.501345100017268,6.652000000001863
-0.2861,0.9999,-0.0392,0.2397,0.2453,0.0666,-0.3762,-1.2513,-5.075,-2.317266507599446,-16.012867564946667,-7.521365900021347,6.668000000005122
-0.2861,0.9999,-0.0392,0.241,0.241,0.0671,-0.3063,-1.12,-5.0487,-2.268722410076713,-15.99744917977327,-7.521365900021347,6.668000000005122
-0.2877,1.0028,-0.0397,0.241,0.241,0.0671,-0.7,-0.84,-5.0838,-2.2677148007558956,-15.99711651807901,-7.533965900020858,6.68300000000454
-0.2871,1.0033,-0.0409,0.241,0.241,0.0671,-0.7,-0.84,-5.0838,-2.3093158028612732,-15.986864834435918,-7.533965900020858,6.68300000000454
-0.2908,1.0025,-0.0379,0.2394,0.2427,0.0729,-0.5688,-0.7262,-5.3725,-2.21676977615695,-15.994638943503377,-7.5455851000179415,6.699000000000524
-0.2912,1.0034,-0.0388,0.2394,0.2427,0.0729,-0.3675,-0.6125,-5.5388,-2.21521896976094,-16.01373998839741,-7.5455851000179415,6.699000000000524
-0.2912,1.0034,-0.0388,0.2407,0.2438,0.0722,-0.3675,-0.6125,-5.4687,-2.2147005046507067,-16.021362846265177,-7.554772600017585,6.713999999999942
-0.2917,1.0049,-0.0398,0.2407,0.2438,0.0722,-0.84,-0.4638,-5.4687,-2.2468786183816483,-16.028755180722484,-7.554772600017585,6.713999999999942
-0.2935,1.0033,-0.0401,0.2407,0.2438,0.0678,-0.455,-0.7262,-5.9763,-2.2743530276928032,-16.123671545450375,-7.566391800019952,6.730000000003201
-0.2944,1.0016,-0.0393,0.2402,0.2441,0.0678,-0.6125,-0.1663,-5.6962,-2.2569442816564536,-16.176773204988034,-7.566391800019952,6.730000000003201
-0.2949,1.0021,-0.0398,0.2402,0.2441,0.0678,-0.6125,-0.1663,-5.6962,-2.2680422274931757,-16.22229629966169,-7.569052600020494,6.746000000006461
-0.2968,1.0039,-0.0397,0.2413,0.2429,0.0641,-0.7437,-0.8313,-5.3288,-2.265932280587097,-16.241615692847013,-7.569052600020494,6.746000000006461
-0.2968,1.0039,-0.0397,0.2413,0.2429,0.0641,-1.0675,-1.1025,-5.1887,-2.265196012893238,-16.281987864521312,-7.585590100011831,6.760999999998603
-0.299,1.0046,-0.0408,0.2402,0.2433,0.0714,-0.4988,-1.05,-5.1188,-2.304534308709983,-16.34642516824744,-7.585590100011831,6.760999999998603
-0.2967,1.004,-0.0383,0.2402,0.2433,0.0714,-0.4988,-1.05,-5.1188,-2.2265544014357896,-16.37075239466778,-7.602390100015254,6.777000000001863
-0.296,1.0048,-0.0393,0.2402,0.2433,0.0714,-0.2187,-1.4175,-5.005,-2.2355991834143887,-16.37999467514557,-7.602390100015254,6.777000000001863
-0.2949,1.0047,-0.0414,0.2395,0.2427,0.0768,-0.9275,-2.0387,-4.9788,-2.308603160212133,-16.36928747253168,-7.632970600014067,6.792000000001281
-0.2949,1.0047,-0.0414,0.2395,0.2427,0.0768,-0.6212,-1.6888,-5.4513,-2.3409794959951995,-16.368503984676554,-7.632970600014067,6.792000000001281
-0.2948,1.0055,-0.0401,0.2394,0.2434,0.069,-0.6212,-1.6888,-5.4513,-2.304677116954965,-16.367208069929916,-7.659991400019572,6.80800000000454
-0.2927,1.0027,-0.0397,0.2394,0.2434,0.069,-0.3325,-1.785,-5.53,-2.279673593854115,-16.356526790290776,-7.659991400019572,6.80800000000454
-0.2929,1.0001,-0.0414,0.2394,0.2434,0.069,-0.595,-1.715,-5.6962,-2.3376064184327086,-16.34651953994751,-7.6874314000251625,6.8240000000078
-0.2946,0.9997,-0.0407,0.2395,0.2446,0.0602,-0.7175,-1.6363,-5.4425,-2.3337191522120566,-16.347955430949423,-7.6874314000251625,6.8240000000078
-0.2933,1.0001,-0.0395,0.2395,0.2446,0.0602,-0.7175,-1.6363,-5.4425,-2.28901869683205,-16.347594537690874,-7.7119759000123045,6.838999999999942
-0.2933,1.0001,-0.0395,0.2406,0.2435,0.0687,-0.0175,-1.33,-5.8012,-2.2699334779019162,-16.343499632846115,-7.7119759000123045,6.838999999999942
-0.2919,1.0016,-0.0365,0.2406,0.2435,0.0687,-0.455,-1.8112,-5.6438,-2.150022015144697,-16.32401557957271,-7.740955100018208,6.855000000003201
-0.2916,1.0016,-0.0398,0.2406,0.2435,0.0687,-0.455,-1.61,-5.32,-2.2323071401504553,-16.314720419841613,-7.740955100018208,6.855000000003201
-0.2898,1.0036,-0.0432,0.2394,0.2442,0.0723,-0.1312,-1.61,-5.32,-2.392748324665379,-16.294870063929846,-7.765105100017271,6.870000000002619
-0.2913,1.0035,-0.0429,0.2394,0.2442,0.0723,0.4025,-1.5137,-5.3463,-2.433255158011024,-16.286718561109385,-7.765105100017271,6.870000000002619
-0.2913,1.0035,-0.0429,0.2409,0.245,0.0789,0.21,-1.2163,-5.3113,-2.4438145613424567,-16.27576276755472,-7.784565900021236,6.886000000005879
-0.2891,1.0016,-0.0394,0.2409,0.245,0.0789,0.21,-1.2163,-5.3113,-2.306243749901154,-16.257681375053853,-7.784565900021236,6.886000000005879
-0.2919,1.0033,-0.0432,0.2409,0.245,0.0789,0.3675,-0.8575,-5.215,-2.42276972914962,-16.2492262038057,-7.798285900017792,6.902000000001863
-0.2926,1.0019,-0.0429,0.2412,0.2434,0.0738,-0.4375,-1.155,-5.3288,-2.441881718247774,-16.250606926015728,-7.798285900017792,6.902000000001863
