AcclX,AcclY,AcclZ,MagX,MagY,MagZ,GyroX,GyroY,GyroZ,Roll,Pitch,Yaw
-0.2724,-0.1966,0.911,-0.1794,0.7354,0.3362,-3.2025,1.1987,-10.7712,0,0,0
-0.2747,-0.1919,0.876,-0.18,0.7331,0.3433,-2.9663,1.6187,-10.8762,0,0,0
-0.2748,-0.1968,0.9118,-0.18,0.7331,0.3433,-3.535,1.1287,-10.5962,0,0,0
-0.2754,-0.1983,0.9125,-0.1817,0.7345,0.3363,-2.975,0.98,-10.4212,0,0,0
-0.2745,-0.1966,0.9153,-0.1793,0.7339,0.338,-3.045,1.365,-10.4912,0,0,0
-0.2733,-0.1978,0.9123,-0.1793,0.7339,0.338,-3.815,1.0587,-10.605,0,0,0
-0.2745,-0.1979,0.9137,-0.181,0.7342,0.3378,-3.185,0.8138,-10.3687,0,0,0
-0.2732,-0.1994,0.9147,-0.181,0.7342,0.3378,-3.6663,0.8487,-9.9837,0,0,0
-0.2753,-0.1979,0.918,-0.1807,0.7324,0.3357,-3.745,1.47,-10.2462,0,0,0
-0.276,-0.1979,0.9138,-0.1807,0.7324,0.3357,-3.5263,1.3387,-10.5612,0,0,0
-0.2725,-0.1968,0.9115,-0.1834,0.7329,0.3376,-3.3775,1.2163,-10.535,0,0,0
-0.2753,-0.1981,0.909,-0.1785,0.7338,0.3369,-3.5088,1.4875,-10.2025,0,0,0
-0.2714,-0.1981,0.9142,-0.1785,0.7338,0.3369,-4.0163,1.3912,-10.2462,0,0,0
-0.2738,-0.1983,0.9153,-0.1771,0.7334,0.3379,-3.3338,1.1725,-10.8062,0,0,0
-0.2749,-0.1984,0.9168,-0.1771,0.7334,0.3379,-3.0975,1.1725,-10.5437,0,0,0
-0.2723,-0.1966,0.9126,-0.1783,0.7325,0.34,-3.8588,1.4875,-10.2287,0,0,0
-0.2774,-0.1986,0.9057,-0.1818,0.7334,0.3373,-3.92,1.6013,-10.7975,0,0,0
-0.2722,-0.1975,0.9159,-0.1818,0.7334,0.3373,-3.2025,1.365,-10.6487,0,0,0
-0.2716,-0.1968,0.911,-0.1787,0.7334,0.3378,-2.4675,1.2687,-10.395,0,0,0
-0.2761,-0.1979,0.9192,-0.1787,0.7334,0.3378,-3.6138,1.6013,-10.01,0,0,0
-0.2727,-0.1986,0.9112,-0.1802,0.7339,0.3461,-2.9663,1.2337,-10.4038,0,0,0
-0.2772,-0.1978,0.9126,-0.1788,0.7346,0.3374,-3.1325,1.0937,-10.5612,0,0,0
-0.2722,-0.197,0.9101,-0.1788,0.7346,0.3374,-2.8525,0.9363,-10.5612,0,0,0
-0.2745,-0.1978,0.909,-0.1796,0.7349,0.3369,-3.08,1.155,-10.6225,0,0,0
-0.274,-0.1997,0.9126,-0.1796,0.7349,0.3369,-3.3163,0.98,-10.3162,0,0,0
-0.2756,-0.1979,0.9119,-0.1805,0.7325,0.3356,-3.3513,1.0412,-10.5612,0,0,0
-0.2741,-0.1967,0.9134,-0.1763,0.7323,0.3378,-3.7538,1.33,-10.4212,0,0,0
-0.2725,-0.1979,0.9095,-0.1763,0.7323,0.3378,-3.3513,1.2337,-10.5262,0,0,0
-0.2772,-0.1984,0.9094,-0.1846,0.7325,0.3415,-3.3338,1.2075,-10.08,0,0,0
-0.275,-0.1989,0.9141,-0.1846,0.7325,0.3415,-3.4213,1.505,-10.0362,0,0,0
-0.2734,-0.1992,0.9172,-0.1802,0.7339,0.3461,-3.5963,1.7587,-10.8413,0,0,0
-0.2734,-0.1975,0.9154,-0.1786,0.7322,0.3363,-3.36,0.9275,-10.1237,0,0,0
-0.274,-0.1986,0.9108,-0.1786,0.7322,0.3363,-3.36,1.61,-10.1763,0,0,0
-0.2752,-0.1971,0.9066,-0.1802,0.7334,0.3398,-3.6837,1.6975,-10.5525,0,0,0
-0.2768,-0.1957,0.9138,-0.1802,0.7334,0.3398,-3.8325,1.3562,-10.0712,0,0,0
-0.2729,-0.1975,0.9149,-0.1816,0.7334,0.336,-3.9725,1.295,-10.5,0,0,0
-0.2736,-0.199,0.914,-0.1797,0.7326,0.3388,-3.9025,1.3912,-10.465,0,0,0
-0.2736,-0.1994,0.9101,-0.1797,0.7326,0.3388,-4.305,1.7062,-10.1763,0,0,0
-0.275,-0.1989,0.9096,-0.1798,0.7346,0.3429,-3.57,1.4175,-10.5087,0,0,0
-0.2738,-0.1978,0.913,-0.1798,0.7346,0.3429,-3.255,1.1287,-10.7712,0,0,0
-0.2743,-0.1989,0.9159,-0.1791,0.735,0.3358,-3.7188,1.3475,-10.465,0,0,0
-0.2739,-0.1962,0.9077,-0.1774,0.7326,0.3364,-3.8413,0.91,-10.8238,0,0,0
-0.2782,-0.1984,0.9113,-0.1774,0.7326,0.3364,-3.29,0.8925,-10.9287,0,0,0
-0.2766,-0.197,0.913,-0.1793,0.7331,0.3362,-3.675,1.2862,-9.94,0,0,0
-0.2727,-0.1976,0.9152,-0.1793,0.7331,0.3362,-3.3775,1.1725,-10.5875,0,0,0
-0.2745,-0.1991,0.9085,-0.1806,0.7325,0.3368,-3.5438,1.2512,-10.5,0,0,0
-0.2773,-0.1958,0.9103,-0.183,0.7337,0.3374,-4.1213,1.4088,-10.535,0,0,0
-0.2736,-0.1975,0.9091,-0.183,0.7337,0.3374,-3.29,0.9013,-9.9925,0,0,0
-0.2713,-0.198,0.9104,-0.1799,0.733,0.3394,-3.2113,0.805,-10.2812,0,0,0
-0.275,-0.1972,0.9132,-0.1799,0.733,0.3394,-3.255,0.7175,-10.43,0,0,0
-0.273,-0.1976,0.9104,-0.1795,0.7334,0.333,-3.78,1.0237,-10.4825,0,0,0
-0.2761,-0.1984,0.9134,-0.1812,0.7318,0.3386,-3.71,1.4787,-10.3075,0,0,0
-0.2702,-0.1982,0.9159,-0.1812,0.7318,0.3386,-3.0363,1.12,-10.9462,0,0,0
-0.2731,-0.1974,0.9109,-0.1802,0.7318,0.3357,-2.94,0.8575,-10.7887,0,0,0
-0.2758,-0.1987,0.9113,-0.1802,0.7318,0.3421,-3.64,1.295,-10.2637,0,0,0
-0.2732,-0.1988,0.9151,-0.1794,0.7339,0.3421,-3.255,1.3562,-10.1937,0,0,0
-0.2729,-0.1974,0.9119,-0.1822,0.7326,0.3374,-2.8963,1.0675,-10.4387,0,0,0
-0.2716,-0.1981,0.9126,-0.1822,0.7326,0.3374,-3.2987,1.3912,-10.1237,0,0,0
-0.2713,-0.1973,0.9138,-0.1794,0.7342,0.3375,-2.9925,0.84,-10.6662,0,0,0
-0.2757,-0.1993,0.9096,-0.1794,0.7349,0.3382,-3.3338,0.9275,-10.4825,0,0,0
-0.2743,-0.1969,0.9124,-0.1808,0.7349,0.3382,-3.22,1.015,-9.8875,0,0,0
-0.273,-0.197,0.911,-0.1797,0.7326,0.3366,-3.4125,1.4175,-10.1237,0,0,0
-0.2747,-0.1976,0.9052,-0.1797,0.7326,0.3366,-3.045,1.19,-10.7275,0,0,0
-0.2772,-0.1993,0.9137,-0.1788,0.7331,0.3378,-3.6312,1.4262,-11.1212,0,0,0
-0.2786,-0.1993,0.9107,-0.1818,0.7332,0.3396,-4.2263,0.665,-10.4912,0,0,0
-0.2789,-0.1994,0.9105,-0.1818,0.7332,0.3396,-3.5875,0.945,-10.4912,0,0,0
-0.2605,-0.1943,0.9185,-0.1806,0.7335,0.3373,-3.1325,1.1025,-11.1912,0,0,0
-0.2685,-0.1929,0.9101,-0.1806,0.7335,0.3373,-3.3425,1.365,-10.1937,0,0,0
-0.2823,-0.199,0.9082,-0.1794,0.7347,0.3394,-3.0975,1.7062,-10.2637,0,0,0
-0.28,-0.2058,0.9135,-0.1776,0.7324,0.3367,-3.7713,1.7675,-10.2112,0,0,0
-0.2752,-0.1976,0.9191,-0.1776,0.7324,0.3367,-3.3775,1.365,-10.8762,0,0,0
-0.279,-0.1985,0.9064,-0.1807,0.7336,0.3383,-3.3075,0.9363,-10.7362,0,0,0
-0.2826,-0.2055,0.9041,-0.1807,0.7336,0.3383,-3.3425,1.0062,-10.185,0,0,0
-0.276,-0.1992,0.92,-0.1798,0.7328,0.3427,-3.1238,1.4175,-10.7625,0,0,0
-0.2642,-0.1913,0.9119,-0.1783,0.7338,0.3344,-2.5813,1.2775,-10.6575,0,0,0
-0.2669,-0.1936,0.9165,-0.1783,0.7338,0.3344,-3.5,1.4262,-10.045,0,0,0
-0.2772,-0.2011,0.909,-0.1786,0.7342,0.3366,-3.1588,1.7762,-10.7712,0,0,0
-0.2767,-0.1944,0.9105,-0.1786,0.7342,0.3366,-2.975,0.98,-9.905,0,0,0
-0.2716,-0.1948,0.9153,-0.1805,0.7324,0.3415,-3.3425,1.6187,-10.4475,0,0,0
-0.2729,-0.1994,0.9121,-0.1809,0.7351,0.3406,-3.6925,1.6187,-10.2637,0,0,0
-0.2761,-0.2012,0.9123,-0.1809,0.7351,0.3406,-2.625,1.6362,-10.1587,0,0,0
-0.275,-0.1968,0.9157,-0.1801,0.7334,0.3385,-3.4825,1.3475,-10.7012,0,0,0
-0.2733,-0.1986,0.9128,-0.1801,0.7334,0.3385,-3.2987,0.9713,-10.8762,0,0,0
-0.2708,-0.1994,0.917,-0.1817,0.7338,0.3352,-3.0888,1.05,-10.6225,0,0,0
-0.2686,-0.195,0.9135,-0.1826,0.735,0.3415,-3.1675,1.4175,-10.4562,0,0,0
-0.2769,-0.1976,0.9134,-0.1826,0.735,0.3415,-3.395,1.645,-9.9663,0,0,0
-0.2761,-0.2004,0.9121,-0.1794,0.7339,0.3381,-3.4388,0.9625,-10.0275,0,0,0
-0.275,-0.1959,0.9157,-0.1794,0.7339,0.3381,-3.4825,1.47,-10.7537,0,0,0
-0.2718,-0.1952,0.911,-0.181,0.7342,0.3382,-2.9838,1.4875,-10.4912,0,0,0
-0.2757,-0.1993,0.9118,-0.1824,0.7321,0.3402,-3.1412,1.575,-10.99,0,0,0
-0.2777,-0.2002,0.9072,-0.1824,0.7321,0.3402,-3.43,1.0412,-10.255,0,0,0
-0.2696,-0.1954,0.9171,-0.1802,0.7331,0.3385,-3.0188,1.1287,-10.9987,0,0,0
-0.2757,-0.1978,0.9135,-0.1802,0.7331,0.3385,-3.045,1.19,-10.5262,0,0,0
-0.2777,-0.2004,0.9137,-0.1802,0.733,0.3381,-3.6925,1.2337,-10.7187,0,0,0
-0.2752,-0.1995,0.913,-0.1775,0.7336,0.3378,-3.92,1.4962,-10.2287,0,0,0
-0.2742,-0.1968,0.909,-0.1775,0.7336,0.3378,-3.5525,1.2512,-10.1937,0,0,0
-0.2725,-0.1979,0.9181,-0.1802,0.7334,0.3368,-3.0363,0.945,-10.4212,0,0,0
-0.2765,-0.2,0.9099,-0.1802,0.7334,0.3368,-3.2375,1.2775,-10.3687,0,0,0
-0.2741,-0.1973,0.9065,-0.1786,0.7314,0.3379,-3.5088,1.19,-10.3162,0,0,0
-0.2721,-0.1965,0.9157,-0.1785,0.733,0.3375,-3.4475,1.0675,-10.9375,0,0,0
-0.2712,-0.197,0.9108,-0.1785,0.733,0.3375,-3.7362,1.295,-10.3863,0,0,0
-0.2749,-0.1973,0.9147,-0.1771,0.7328,0.3371,-3.15,1.2862,-10.5787,-12.1432256618559,-15.485181536492453,-98.61598729719003
-0.2746,-0.197,0.9074,-0.1771,0.7328,0.3371,-2.5988,0.7788,-10.5262,-12.248792845435624,-16.422567262128013,-98.69791626360474
-0.2773,-0.1962,0.909,-0.1794,0.7364,0.3374,-3.6575,1.2512,-9.765,-12.180124789080184,-16.59442064611277,-98.77287493888144
-0.2749,-0.1972,0.9123,-0.1786,0.7324,0.3366,-2.8438,1.2862,-10.1412,-12.197184888177707,-16.42091119460067,-98.81837214929458
-0.2717,-0.1988,0.9106,-0.1786,0.7324,0.3366,-3.1325,1.9162,-11.0687,-12.31516030829124,-16.261332063653004,-98.88960300514407
-0.2708,-0.1972,0.913,-0.177,0.7326,0.337,-3.5088,1.5312,-10.8062,-12.188455725449831,-16.173006664909295,-98.76270181804587
-0.2744,-0.1976,0.9138,-0.177,0.7326,0.337,-4.0425,1.1287,-9.835,-12.201732157375407,-16.347132713005834,-98.71491716818798
-0.2747,-0.1979,0.9103,-0.1798,0.7323,0.3394,-3.2462,0.8663,-10.1763,-12.26514520217266,-16.425390844901834,-98.8506104491071
-0.2736,-0.1967,0.9153,-0.1794,0.7343,0.3374,-2.9225,1.1025,-11.095,-12.128849701733982,-16.29801543276685,-98.85884876853808
-0.2724,-0.1969,0.912,-0.1794,0.7343,0.3374,-3.2025,1.0675,-10.9462,-12.182981882571017,-16.276751678720544,-98.87605848377753
-0.2743,-0.1975,0.9121,-0.1806,0.735,0.3374,-2.9663,0.9538,-10.115,-12.217739595639305,-16.373820113264003,-98.933339758164
-0.2744,-0.1988,0.9104,-0.1806,0.735,0.3374,-3.9813,1.4612,-9.94,-12.31782536307237,-16.406100753241127,-98.94989689704798
-0.2747,-0.1976,0.9126,-0.1778,0.7354,0.3298,-2.8087,0.735,-10.4125,-12.217565345088332,-16.39406881689148,-98.90294226141141
-0.2718,-0.196,0.9155,-0.1811,0.7341,0.3373,-2.73,1.3387,-10.675,-12.084388589578479,-16.19962081014065,-98.99517271748078
-0.2719,-0.1978,0.9137,-0.1811,0.7341,0.3373,-3.0888,1.19,-10.5962,-12.214729304662304,-16.215839134879843,-99.01872375424767
-0.2714,-0.1973,0.9172,-0.1802,0.7331,0.3398,-2.7913,1.61,-10.5262,-12.140147833242477,-16.138767624182925,-98.91474873448149
-0.2739,-0.1954,0.9121,-0.1802,0.7331,0.3398,-3.115,0.875,-10.7712,-12.091869099895057,-16.352073762037776,-98.84013928894802
-0.278,-0.1981,0.908,-0.1806,0.7343,0.3361,-3.5438,1.3387,-10.8762,-12.306955215568804,-16.63718300658713,-98.91478912893206
-0.2776,-0.2001,0.9116,-0.1796,0.7332,0.3388,-3.85,1.3387,-10.5262,-12.380143482198802,-16.568437378214064,-98.83609993115341
-0.2754,-0.1989,0.9087,-0.1796,0.7332,0.3388,-3.6925,1.4962,-10.9725,-12.346500941033565,-16.49616098884654,-98.84729398805781
-0.2758,-0.1972,0.918,-0.1773,0.7349,0.3375,-3.5175,1.4088,-10.9112,-12.124268281546016,-16.376266933568132,-98.68757664087354
-0.2732,-0.1991,0.9124,-0.1773,0.7349,0.3375,-3.6138,1.0412,-10.6225,-12.30942688450857,-16.31033938308551,-98.74922897272869
-0.2719,-0.1986,0.9119,-0.1814,0.7334,0.3304,-4.0163,1.1638,-10.7537,-12.286477430983851,-16.2465494165408,-99.20393601442224
-0.2717,-0.1973,0.9141,-0.1793,0.7315,0.3383,-3.2462,0.8487,-10.8587,-12.18016691166601,-16.203196454345676,-98.88811894815719
-0.2713,-0.1987,0.9135,-0.1793,0.7315,0.3383,-3.0363,0.9975,-10.5525,-12.271326645972826,-16.18400806567978,-98.91445809283728
-0.2772,-0.1977,0.913,-0.179,0.7328,0.3388,-3.6312,1.61,-10.5,-12.21825591612543,-16.508649569501262,-98.76824404100071
-0.2741,-0.1985,0.912,-0.179,0.7328,0.3388,-3.0713,1.2337,-10.3775,-12.278973551130049,-16.37376953138925,-98.826725294145
-0.2756,-0.1977,0.91,-0.177,0.7345,0.338,-2.765,1.1112,-10.4038,-12.257244750587667,-16.480260212759298,-98.6596878751204
-0.2749,-0.1979,0.9069,-0.1781,0.7326,0.3378,-3.5088,1.1025,-10.3425,-12.309754597447352,-16.49584734715299,-98.7608189375397
-0.2697,-0.1988,0.9095,-0.1781,0.7326,0.3378,-3.535,0.91,-10.4475,-12.329833164387557,-16.174158558783077,-98.85716580846936
-0.2704,-0.1973,0.9124,-0.1797,0.7334,0.3371,-3.0538,1.3125,-10.4387,-12.202231986181937,-16.155575115637937,-98.94607887399452
-0.2735,-0.1981,0.9123,-0.1797,0.7334,0.3371,-2.625,1.6712,-10.6575,-12.251098394478692,-16.319134585967504,-98.91107393017037
-0.2726,-0.1989,0.9096,-0.179,0.7349,0.3356,-3.3863,1.4525,-10.7275,-12.334380115976904,-16.318701006707922,-98.90900985587172
-0.274,-0.198,0.9118,-0.1803,0.7338,0.3378,-4.48,1.4875,-10.5612,-12.2519261810114,-16.36286781870928,-98.9241254509252
-0.2749,-0.1967,0.9127,-0.1803,0.7338,0.3378,-3.15,0.9625,-9.9663,-12.16226203895961,-16.403921922629046,-98.89147401790875
-0.277,-0.1984,0.9168,-0.1781,0.7341,0.3385,-3.7538,1.3737,-9.9488,-12.210680003454453,-16.449377544794768,-98.72401868899495
-0.2758,-0.1979,0.913,-0.1781,0.7341,0.3385,-4.5938,1.2862,-9.9225,-12.23007134525186,-16.448008181804592,-98.72966041766591
-0.2734,-0.1979,0.9121,-0.1786,0.733,0.341,-4.6025,1.2425,-10.0275,-12.241793793028677,-16.333532701748705,-98.75178823417089
-0.2733,-0.1972,0.9141,-0.1801,0.7337,0.3361,-3.9638,1.19,-10.1937,-12.17408605466593,-16.2937463986923,-98.9493709330122
-0.2697,-0.2,0.9126,-0.1801,0.7337,0.3361,-3.675,1.33,-10.0537,-12.360734087576985,-16.112666643629197,-99.04464440800716
-0.2728,-0.1995,0.9072,-0.1804,0.7337,0.3386,-3.36,1.1112,-9.7475,-12.40225917855163,-16.353246293489484,-98.95011624461523
-0.2742,-0.1961,0.9135,-0.1804,0.7337,0.3386,-3.185,0.63,-10.0712,-12.116425255540195,-16.355680926175452,-98.88402962439392
-0.2757,-0.1961,0.9141,-0.1794,0.7337,0.3366,-3.325,1.1462,-10.3162,-12.10804620610489,-16.42667816187465,-98.83748901749173
-0.2777,-0.1989,0.9138,-0.1809,0.7316,0.3383,-3.2638,1.225,-10.2812,-12.27920254995558,-16.53239195400535,-98.92835955609283
-0.2719,-0.1997,0.9135,-0.1809,0.7316,0.3383,-2.4413,0.9625,-10.64,-12.331293964808095,-16.23031603741083,-99.0289084485948
-0.2745,-0.1981,0.911,-0.1802,0.732,0.3372,-2.9225,1.2337,-10.0625,-12.268318092086124,-16.396837421158875,-98.93546131212396
-0.2744,-0.1987,0.9108,-0.1802,0.732,0.3372,-2.7475,1.2163,-11.025,-12.306723410007432,-16.401545483963115,-98.94592773913898
-0.2705,-0.1988,0.9164,-0.1788,0.7344,0.339,-3.5088,1.1462,-10.1412,-12.240011695439902,-16.107789635689432,-98.86331794034882
-0.2725,-0.198,0.9123,-0.179,0.734,0.3382,-3.5875,1.2862,-10.3775,-12.245204598844385,-16.263600882977684,-98.84915452250556
-0.2743,-0.1967,0.9143,-0.179,0.734,0.3382,-3.6837,1.715,-10.255,-12.141644190583758,-16.341829750204045,-98.80420795486252
-0.2748,-0.1959,0.9104,-0.1786,0.7323,0.3379,-3.0538,1.5837,-10.7187,-12.143740085757303,-16.435401786331212,-98.76945795052707
-0.2777,-0.1981,0.9122,-0.1786,0.7323,0.3379,-3.7275,1.225,-10.6925,-12.252258215660852,-16.560325731476713,-98.76155114958425
-0.2718,-0.1974,0.9131,-0.1769,0.7352,0.3375,-4.1563,1.015,-10.4475,-12.198975824859824,-16.240190674283337,-98.7160916396925
-0.2748,-0.1999,0.9107,-0.1786,0.7338,0.338,-2.905,1.0587,-10.2112,-12.379740845945197,-16.412074755033693,-98.81998053448812
-0.2731,-0.1979,0.9119,-0.1786,0.7338,0.338,-3.22,1.3212,-10.5,-12.244747470208507,-16.318627818325485,-98.81640495917287
-0.2749,-0.1961,0.9145,-0.1794,0.733,0.3372,-3.0013,1.2075,-9.9575,-12.103223508617285,-16.3758483542527,-98.84165365355695
-0.271,-0.1984,0.9171,-0.1794,0.733,0.3372,-2.8612,0.84,-10.4737,-12.20667462351724,-16.123622494273256,-98.939455347482
-0.2711,-0.1976,0.912,-0.1796,0.7345,0.3408,-2.94,1.0325,-10.64,-12.22507884131804,-16.195471145374416,-98.84533244574911
-0.2744,-0.1981,0.9119,-0.1797,0.7331,0.3379,-3.0363,1.8987,-11.0425,-12.25635171116413,-16.375384926016366,-98.88127600563669
-0.2743,-0.1975,0.9113,-0.1797,0.7331,0.3379,-2.8525,1.5575,-10.6662,-12.228292215546457,-16.39134247276078,-98.87282276322489
-0.2769,-0.1962,0.9141,-0.181,0.7343,0.3377,-2.9663,1.4262,-10.57,-12.114289863137268,-16.492176172273773,-98.9012996204289
-0.2755,-0.1978,0.9176,-0.181,0.7343,0.3377,-3.2987,1.085,-10.6138,-12.164552759092333,-16.364115432219688,-98.95189415515249
-0.2745,-0.1986,0.9093,-0.1786,0.7314,0.338,-2.7738,0.7525,-10.815,-12.320111832807992,-16.428680788475106,-98.8184114770205
-0.2744,-0.1976,0.9102,-0.1778,0.7334,0.3378,-4.375,1.1025,-9.8087,-12.24874030009722,-16.416187926447154,-98.74239820692158
-0.2735,-0.199,0.9129,-0.1778,0.7334,0.3378,-3.43,1.26,-10.01,-12.297224817712545,-16.32126841127904,-98.78090751251966
-0.2719,-0.1972,0.9136,-0.186,0.7342,0.3373,-2.835,1.1112,-10.5175,-12.180665675368704,-16.22586100762924,-99.34134225690964
-0.2724,-0.1984,0.9185,-0.186,0.7342,0.3373,-3.5,1.4437,-10.3425,-12.188852073937186,-16.169339995324464,-99.35858970775008
-0.2693,-0.1984,0.9132,-0.1778,0.7338,0.34,-3.1325,0.8925,-10.5262,-12.257316937455196,-16.080596398849003,-98.78645966807355
-0.2734,-0.1989,0.9095,-0.181,0.735,0.3378,-3.7625,1.2425,-9.9312,-12.335706284586898,-16.35023495624826,-98.98377318191204
-0.2729,-0.198,0.9179,-0.181,0.735,0.3378,-3.0363,1.365,-10.29,-12.173131980987721,-16.213046820702427,-98.98804390388236
-0.2746,-0.1981,0.9157,-0.1802,0.7324,0.3376,-3.465,0.9975,-10.4387,-12.207011592047046,-16.32928847501231,-98.92834618925076
-0.2766,-0.1993,0.9077,-0.1802,0.7324,0.3376,-3.92,1.2512,-10.2812,-12.38327366984514,-16.561639144327614,-98.90662490285266
-0.2732,-0.1972,0.9153,-0.179,0.7347,0.34,-2.66,1.54,-10.9287,-12.158972847688977,-16.282715323108107,-98.78637748337393
-0.2741,-0.1981,0.9079,-0.181,0.7353,0.3372,-2.835,1.2337,-10.3863,-12.308426637068443,-16.42606242265383,-98.96999922854744
-0.2758,-0.1982,0.9156,-0.181,0.7353,0.3372,-3.2638,1.19,-10.6575,-12.214587067257838,-16.405814510362507,-98.9552721601
-0.2749,-0.1972,0.9128,-0.181,0.7321,0.3367,-3.8413,1.1812,-9.9837,-12.190800947493432,-16.403010857180455,-98.9824478080792
-0.2752,-0.1976,0.911,-0.181,0.7321,0.3367,-3.5438,1.3825,-10.325,-12.23802525155364,-16.445260697136646,-98.98179357554648
-0.2744,-0.1981,0.9052,-0.1801,0.734,0.3366,-3.2375,1.4875,-10.5525,-12.344119804406658,-16.492795228193593,-98.9231459592122
-0.2743,-0.1968,0.9137,-0.1805,0.7321,0.3393,-2.975,1.365,-10.5175,-12.155575194321663,-16.36323387367978,-98.89561664788584
-0.2747,-0.1978,0.9125,-0.1805,0.7321,0.3393,-3.2725,1.5925,-10.8238,-12.230441761955824,-16.39260956417379,-98.90321695263562
-0.2787,-0.1957,0.9093,-0.1797,0.735,0.3386,-3.5438,1.8112,-11.0162,-12.146156149412523,-16.664207068641986,-98.74685336134567
-0.2758,-0.1978,0.9162,-0.1797,0.735,0.3386,-2.5288,1.4437,-10.2987,-12.182619238273045,-16.410977838798562,-98.8328311008274
-0.2741,-0.2003,0.9119,-0.1794,0.7342,0.3435,-3.5875,1.4175,-10.64,-12.387869600264919,-16.364021056172238,-98.76996317254886
-0.2722,-0.1982,0.9125,-0.179,0.735,0.3366,-3.4913,1.4262,-10.605,-12.254923874101832,-16.257762446387314,-98.88508069403605
-0.2702,-0.1985,0.9118,-0.179,0.735,0.3366,-3.675,1.4962,-10.1675,-12.281666044234173,-16.154603870237306,-98.91910889875489
-0.2765,-0.1992,0.9106,-0.1794,0.7333,0.3415,-2.7738,1.435,-10.7537,-12.339325298786553,-16.50194933984745,-98.76387221498037
-0.2746,-0.1993,0.911,-0.1794,0.7333,0.3415,-3.3338,1.33,-10.5,-12.340210560055333,-16.412852372859238,-98.79505723894356
-0.2717,-0.1973,0.9147,-0.1804,0.7318,0.3365,-2.8612,1.155,-10.5787,-12.172561600847141,-16.203073112020217,-99.00062786525847
-0.2743,-0.1982,0.9084,-0.179,0.733,0.337,-3.185,1.19,-10.7975,-12.307912191868118,-16.424452902062075,-98.8530129329492
-0.2764,-0.1982,0.9117,-0.179,0.733,0.337,-3.6925,1.68,-10.3775,-12.26513670030017,-16.497644974757836,-98.8249470608642
-0.2726,-0.1979,0.9132,-0.1803,0.7342,0.3404,-3.5788,1.3387,-10.29,-12.22760930967936,-16.276700526390453,-98.88643097007913
-0.2744,-0.1982,0.9119,-0.1803,0.7342,0.3372,-3.6575,0.9887,-10.0012,-12.262343173352507,-16.37989726297037,-98.93169531668036
-0.2737,-0.1987,0.9132,-0.1782,0.7336,0.3372,-2.835,0.805,-10.6225,-12.275421842852362,-16.326330352569798,-98.81279768776281
-0.2719,-0.1979,0.9096,-0.1805,0.7336,0.3367,-3.0975,1.2862,-10.5787,-12.274451597820283,-16.284894914841484,-98.99071332673445
-0.2769,-0.1968,0.908,-0.1805,0.7336,0.3367,-3.0713,1.1987,-10.4825,-12.229248422055392,-16.579185797791737,-98.8956582646944
-0.2735,-0.1967,0.9163,-0.1794,0.733,0.3334,-3.5438,1.1812,-10.4387,-12.115950181849712,-16.285767676658377,-98.95745215233399
-0.2747,-0.1979,0.9123,-0.1794,0.7314,0.3399,-3.3163,1.1462,-10.395,-12.238925843424907,-16.391227885523424,-98.8210729327711
-0.2737,-0.1972,0.9145,-0.1786,0.7314,0.3399,-3.9813,1.1025,-10.3425,-12.168925412797302,-16.31208554186799,-98.773987652428
-0.2736,-0.1973,0.9143,-0.1829,0.733,0.3382,-3.8937,0.91,-10.1675,-12.177308713435718,-16.305223117957645,-99.09598463262186
-0.2719,-0.1971,0.9139,-0.1829,0.733,0.3382,-2.8,0.9975,-10.9287,-12.170534619497122,-16.220737546219972,-99.118852411464
-0.2741,-0.1967,0.9133,-0.1829,0.7322,0.3377,-3.5613,1.19,-10.64,-12.15433468287378,-16.344284515134486,-99.0945810958599
-0.2708,-0.1956,0.9198,-0.178,0.7329,0.335,-3.8413,1.0762,-10.7712,-12.005746736555698,-16.0798994918907,-98.85671744969301
-0.2742,-0.1988,0.9105,-0.178,0.7329,0.335,-2.9488,0.84,-10.6575,-12.316013746781213,-16.378363182397162,-98.84264218409577
-0.2741,-0.1972,0.9159,-0.1794,0.7325,0.3372,-3.2987,1.26,-10.3337,-12.151103914522603,-16.311406746499966,-98.87591138569958
-0.2722,-0.1979,0.9157,-0.1794,0.7325,0.3372,-3.1238,1.5662,-10.22,-12.19503257597636,-16.207327466061983,-98.91532069196646
-0.2713,-0.1969,0.914,-0.1777,0.7337,0.34,-4.0687,1.2775,-10.4737,-12.157335846067792,-16.18257466454301,-98.72744460174212
-0.2757,-0.1979,0.9113,-0.1792,0.733,0.3356,-3.78,1.1725,-10.4825,-12.252018050095835,-16.454526480080354,-98.87472455993682
-0.2745,-0.1967,0.9101,-0.1792,0.733,0.3356,-3.1412,1.2163,-10.9112,-12.195888422339287,-16.427491709983897,-98.87295673188066
-0.2731,-0.1971,0.913,-0.1805,0.7329,0.3373,-3.5263,1.365,-10.5525,-12.182190240095261,-16.30531254053849,-98.95605500968027
-0.2727,-0.1974,0.918,-0.1805,0.7329,0.3373,-3.15,1.5225,-10.0625,-12.13578043391684,-16.20045587144028,-98.9731983687453
-0.2734,-0.1978,0.9109,-0.1796,0.733,0.3371,-3.1937,1.4,-10.8325,-12.251179999155331,-16.338818780059064,-98.90214001338097
-0.2755,-0.1981,0.9074,-0.1771,0.7335,0.3392,-3.325,1.2075,-11.0075,-12.315205397141769,-16.511967008315015,-98.65109221522397
-0.2747,-0.1979,0.913,-0.1771,0.7335,0.3392,-3.2638,1.2775,-10.5612,-12.230320045923385,-16.3926798854187,-98.66688460412907
-0.2737,-0.1976,0.9101,-0.1809,0.7348,0.3391,-3.8588,1.4437,-10.5175,-12.249828372332765,-16.378306746546524,-98.92590443862136
-0.274,-0.1989,0.9132,-0.1809,0.7348,0.3391,-3.3775,1.3475,-11.095,-12.287344113468226,-16.34168367138713,-98.94542508103599
-0.2715,-0.2003,0.9154,-0.1822,0.7323,0.3416,-3.3075,1.33,-10.1412,-12.342316153277597,-16.168197854026484,-99.05856951198746
-0.2755,-0.1978,0.9079,-0.1835,0.7338,0.3394,-3.6138,1.295,-10.5962,-12.290832076875544,-16.49592536351661,-99.07535199099999
-0.2719,-0.198,0.9121,-0.1835,0.7338,0.3394,-3.4913,1.4262,-10.395,-12.247923335223538,-16.255668281208298,-99.13928969434475
-0.2708,-0.1977,0.9139,-0.1792,0.7346,0.337,-3.3163,1.6887,-10.1937,-12.20655657700036,-16.157483238325643,-98.90825263906362
-0.2763,-0.1986,0.9126,-0.1792,0.7346,0.337,-3.115,1.0325,-10.4912,-12.277116279809917,-16.462939084928166,-98.83704122026481
-0.2733,-0.1976,0.911,-0.1774,0.7318,0.3378,-3.4563,0.8925,-10.395,-12.23823062078023,-16.346720725152856,-98.74323318754101
-0.2742,-0.1965,0.9107,-0.1787,0.7324,0.3414,-2.7213,1.1025,-10.6837,-12.176085399803165,-16.39704278931596,-98.71784386143729
-0.2198,-0.1139,0.8755,-0.1787,0.7324,0.3414,-4.3925,1.2512,-11.3312,-7.423740546041055,-14.11069723557998,-98.45077777541427
-0.093,-0.7357,0.9959,-0.1796,0.7361,0.3382,-35.1575,-4.3313,-25.2962,-36.37965135497412,-4.702983276831283,-103.56985591691726
-0.0825,-0.2533,0.839,-0.1796,0.7361,0.3382,-15.6538,12.6,-34.7988,-16.847408375321155,-5.283366397883012,-101.85416063881034
-0.3415,-0.2832,0.5353,-0.1799,0.7398,0.3383,-3.8937,16.9837,-38.8325,-27.85476323596899,-20.70603034526796,-102.4798189012778
-0.3143,-0.4344,0.6936,-0.1804,0.7399,0.3358,2.4675,8.61,-42.7262,-32.04895160970089,-20.981635931525435,-104.42547516727225
-0.3177,-0.1478,1.072,-0.1804,0.7399,0.3358,11.3575,5.2937,-37.9313,-7.90566757819262,-16.680945839834678,-97.89053425903224
-0.6576,0.0465,0.9212,-0.1815,0.7362,0.3358,26.5387,5.215,-28.91,2.8657311694400454,-34.19324430567461,-84.56941362323585
-0.4814,0.0157,0.7702,-0.1815,0.7362,0.3358,26.8975,-4.655,-20.3087,1.171540953747465,-32.091170225408014,-87.48851684713051
-0.4792,0.0637,0.8942,-0.1804,0.7339,0.336,17.71,-8.8112,-13.7812,4.0681125895112995,-28.265234855441374,-88.1001358047029
-0.3214,0.0875,0.8578,-0.184,0.7279,0.3409,11.935,-5.565,-10.535,5.820287916922497,-20.75166072949291,-92.3347436193578
-0.1802,0.0084,0.9662,-0.184,0.7279,0.3409,6.7025,-3.1063,-10.22,0.5104712701420565,-11.009764551338991,-99.17940724832062
-0.1864,-0.1057,0.9278,-0.1802,0.732,0.3399,-6.0637,1.5225,-7.49,-6.48264268656086,-11.273375128058163,-99.40360415033831
-0.2078,-0.1751,0.9369,-0.1802,0.732,0.3399,-12.145,3.8763,-5.5825,-10.576083018383097,-12.234576705069884,-99.69054270030843
-0.2569,-0.2472,0.9613,-0.1827,0.7338,0.347,-20.6063,4.2788,-5.1275,-14.41171548513596,-14.3638604362292,-99.85385111364737
-0.289,-0.4193,1.0291,-0.1823,0.7339,0.3382,-17.4037,2.6688,-6.8338,-22.14902841067176,-14.56540579807768,-101.70668031752511
-0.2095,-0.2341,0.881,-0.1823,0.7339,0.3382,-2.5988,1.3562,-10.5087,-14.898063582410284,-13.031296769302683,-100.43968890026692
-0.3163,-0.2181,0.937,-0.182,0.7338,0.3393,-9.5288,0.2713,-4.6287,-13.107422840476046,-17.934428338308415,-98.73722966862884
-0.3647,-0.2257,0.8629,-0.182,0.7338,0.3393,0.3413,5.0925,-8.0325,-14.654242874173413,-21.94551165611522,-98.18844257733491
-0.3508,-0.187,0.8921,-0.1823,0.7331,0.3381,-0.3063,1.3912,-11.0687,-11.845449738224293,-21.098736321214176,-97.62264303941762
-0.3239,-0.1914,0.8793,-0.1831,0.7318,0.3406,0.3063,1.0937,-13.1337,-12.27916753084748,-19.865309481070334,-98.11419358375136
-0.3223,-0.2094,0.8611,-0.1831,0.7318,0.3406,1.1462,0.77,-13.3525,-13.664473900583841,-19.979458646448204,-98.48259549152483
-0.2394,-0.23,0.9545,-0.1833,0.7322,0.339,-5.635,0.7525,-12.53,-13.548217671184299,-14.033507913061689,-100.07761654324064
-0.1998,-0.2415,0.9256,-0.1833,0.7322,0.339,-4.1038,0.7613,-13.125,-14.62058064110581,-11.915352990743328,-100.70751279911528
-0.2258,-0.4363,0.9735,-0.1837,0.7351,0.3396,-9.8262,1.54,-14.8662,-24.11781273391799,-11.948959018673131,-102.38340149025568
-0.2434,-0.2838,0.9699,-0.1832,0.7326,0.3405,-0.945,-0.42,-16.9487,-16.328335847260348,-13.463053357023586,-100.6209905290321
-0.1376,-0.3287,0.9231,-0.1832,0.7326,0.3405,0.4638,-3.9638,-17.6662,-19.59222677275004,-8.22415239821263,-101.99960371870003
-0.0041,-0.134,1.1235,-0.1838,0.7321,0.3405,3.1763,-0.7525,-15.8812,-6.8315020580069605,-0.5985479889050717,-103.4055852380179
-0.1234,-0.1832,0.9131,-0.1838,0.7321,0.3405,7.735,4.375,-16.8787,-11.334463580615425,-7.096037353163871,-101.33408613661366
-0.2442,-0.1038,0.8525,-0.1844,0.7316,0.3392,5.0662,10.4038,-8.2775,-6.95237698722379,-14.93445181533694,-98.12245423629552
-0.6627,0.0051,0.9126,-0.1826,0.7302,0.3408,-14.7788,12.005,-0.63,0.30240952758606005,-33.26880585747517,-85.70133392127298
-0.5721,-0.0447,0.9444,-0.1826,0.7302,0.3408,-20.545,15.7762,2.5288,-2.7024107516118914,-31.703870534627846,-89.8319158220057
-0.4352,-0.1285,1.0701,-0.1794,0.7319,0.3379,-20.65,21.6737,1.435,-6.837136607399863,-24.46687648375711,-95.46218892273332
-0.2894,-0.1645,1.0929,-0.1794,0.7319,0.3379,-20.9212,33.4775,-1.0325,-8.555456258817195,-15.296327786604156,-98.55669261859907
-0.3704,-0.1489,1.0018,-0.1722,0.7346,0.3341,-25.2962,51.0737,-2.905,-8.45437456662532,-19.944502849576477,-96.27803817692376
-0.4638,-0.1569,1.0318,-0.167,0.7382,0.3285,-44.0037,55.0462,-3.78,-8.645900846523734,-23.85253982815824,-94.82749552604153
-0.6693,-0.1141,0.8901,-0.167,0.7382,0.3285,-49.0262,57.1637,-6.405,-7.30836372558798,-36.39044526416659,-89.64789370558255
-0.726,-0.2559,0.856,-0.1583,0.7454,0.323,-53.1825,57.8812,-10.0187,-16.618771919884818,-39.02974487342964,-94.41406127814064
-0.7271,-0.2709,1.1548,-0.1583,0.7454,0.323,-56.8838,46.0075,-12.0487,-13.211386161863167,-31.77418853143155,-94.26272633706915
-0.769,-0.243,1.219,-0.153,0.7534,0.325,-48.7462,6.8863,-12.3638,-11.278938575797202,-31.746283597317692,-92.84897752446439
-0.7812,-0.2474,1.2493,-0.1536,0.7607,0.315,-50.12,-5.6438,-15.5487,-11.201616990493076,-31.533597432247245,-93.30493255945939
-0.8309,-0.387,1.1607,-0.1536,0.7607,0.315,-47.3987,-19.0487,-18.7512,-18.420162394603146,-34.11251620105626,-96.55130545809402
-0.7577,-0.479,1.1797,-0.1538,0.7678,0.3162,-45.1063,-33.7313,-19.7138,-22.089180962176055,-30.819502893965005,-98.89992307368601
-0.6579,-0.5591,1.1715,-0.1566,0.7716,0.3149,-36.855,-45.2725,-16.4675,-25.504026499776877,-26.93772582860038,-100.97990769237495
-0.6104,-0.5646,1.1386,-0.1566,0.7716,0.3149,-21.315,-51.9225,-14.4637,-26.373365705050603,-25.67241653661959,-101.38859921806247
-0.5713,-0.519,1.1345,-0.1618,0.7734,0.3158,-10.2112,-57.2425,-11.025,-24.58701484991942,-24.618204745910358,-100.95111795337104
-0.5567,-0.4825,1.0588,-0.1618,0.7734,0.3158,5.0138,-61.145,-8.0062,-24.499176551240215,-25.556890996344347,-100.87377095244602
-0.4951,-0.4918,1.005,-0.1678,0.7699,0.3148,17.5175,-66.115,0.3063,-26.071393466054552,-23.88885771611721,-101.97016449262163
-0.3609,-0.5643,1.0274,-0.1706,0.7638,0.3221,33.81,-72.135,3.3163,-28.771900763593305,-17.18682429277217,-102.85494690585077
-0.2712,-0.524,0.995,-0.1706,0.7638,0.3221,49.9362,-70.35,5.3375,-27.77488756167547,-13.599055100737518,-102.45883894102968
-0.2539,-0.4573,0.9825,-0.1774,0.7515,0.3255,65.4675,-66.7538,8.4263,-24.96515612578904,-13.190637596090946,-102.24980706957619
-0.2508,-0.3596,0.9623,-0.1774,0.7515,0.3255,81.7163,-64.7413,11.1387,-20.498966957688868,-13.713356536186433,-101.23233491998202
-0.2006,-0.2156,0.9848,-0.1796,0.735,0.3325,94.3513,-64.3125,12.8887,-12.364532867219515,-11.283171935237872,-100.30296158584694
-0.1726,-0.1107,0.9922,-0.1853,0.7133,0.3347,103.11,-63.4725,14.105,-6.377560299382181,-9.82629529859007,-100.58384492240162
-0.1383,0.0679,0.9111,-0.1853,0.7133,0.3347,107.8875,-61.4425,15.365,4.242094935296603,-8.6227909464179,-100.34650558836182
-0.2106,-0.3043,0.8891,-0.1246,0.6274,0.3828,-4.6112,-0.8312,-10.2725,-18.838637256490106,-12.43689095681619,-96.90141375371086
-0.2106,-0.3043,0.8891,-0.1246,0.6274,0.3828,-4.6112,-0.8312,-10.2725,-18.893698028227238,-12.622176359313071,-96.89823480006105
-0.221,-0.3064,0.8919,-0.125,0.6264,0.3794,-5.2937,-0.49,-9.5113,-18.959298282884745,-13.160876006407255,-96.87335813302903
-0.2321,-0.307,0.8858,-0.125,0.6264,0.3794,-5.775,-0.14,-9.66,-19.11488764816132,-13.86800220040859,-96.72854115323466
-0.2433,-0.3116,0.8858,-0.1248,0.6256,0.3785,-5.9763,-0.7,-10.1325,-19.379829647529206,-14.49390259060317,-96.64029676066353
-0.2391,-0.3146,0.8879,-0.1248,0.6256,0.3785,-5.3288,-0.9713,-10.395,-19.50990101180525,-14.25446854062942,-96.73721702012277
-0.2307,-0.3143,0.8879,-0.1274,0.6274,0.3868,-4.5675,-1.7587,-10.745,-19.493051451887954,-13.785584699390778,-96.86943480453354
-0.2186,-0.3126,0.8855,-0.1274,0.6259,0.3812,-4.2175,-2.4237,-10.815,-19.444212851143455,-13.135029502399409,-97.13937786934605
-0.1915,-0.3195,0.8989,-0.1274,0.6259,0.3812,-4.7163,-1.6275,-10.0975,-19.566671074580114,-11.433904059350313,-97.57978977160096
-0.1887,-0.3207,0.8915,-0.1284,0.6277,0.3813,-3.6225,-0.945,-9.0825,-19.784700166224034,-11.272434524697543,-97.70275074190126
-0.1913,-0.3178,0.8942,-0.1284,0.6277,0.3813,-3.4825,0.385,-8.8287,-19.565810159625862,-11.390616128346256,-97.635624437682
-0.1882,-0.312,0.8916,-0.1276,0.6259,0.3842,-3.4475,1.89,-8.5575,-19.28727542597922,-11.274653754730759,-97.5153131088318
-0.1948,-0.312,0.8941,-0.1272,0.6253,0.3806,-3.6837,2.8875,-8.7412,-19.23677138736663,-11.60333319371091,-97.45771248309916
-0.2139,-0.3195,0.8883,-0.1272,0.6253,0.3806,-3.64,4.0862,-8.6887,-19.781131074126396,-12.692599178568534,-97.28465464166901
-0.2241,-0.3265,0.8876,-0.1278,0.6268,0.38,-3.5175,4.165,-8.6712,-20.19485066128708,-13.289762632970357,-97.28870660554671
-0.2336,-0.3277,0.883,-0.1278,0.6268,0.38,-3.8675,3.6663,-8.7062,-20.3605609619805,-13.889823544441935,-97.1876377176345
-0.2397,-0.3287,0.8828,-0.1271,0.6262,0.3786,-3.675,3.5613,-9.0738,-20.42206500331378,-14.252434414305295,-97.10115419883368
-0.2347,-0.3307,0.8888,-0.1271,0.6267,0.3799,-2.8175,3.2025,-9.6687,-20.40899216346223,-13.921951086854758,-97.1533594782621
-0.2326,-0.331,0.8824,-0.1271,0.6267,0.3799,-1.9075,3.22,-10.6575,-20.56137560403754,-13.86741419651702,-97.19406702552898
-0.2334,-0.3217,0.8947,-0.1267,0.6262,0.3795,-1.1112,2.9925,-11.0075,-19.778506572041973,-13.796887309662363,-97.02391191290221
-0.2373,-0.3157,0.891,-0.1267,0.6262,0.3795,-1.995,3.43,-10.01,-19.51094044439152,-14.074097174636638,-96.89592225608847
-0.2367,-0.3144,0.8899,-0.1244,0.627,0.382,-1.575,3.2987,-10.4737,-19.458343806083246,-14.078706641420261,-96.65748178201832
-0.2442,-0.3134,0.889,-0.1254,0.6236,0.3799,-0.7175,3.3688,-10.5875,-19.41922329055282,-14.496795425702523,-96.66902232590989
-0.2471,-0.3067,0.8991,-0.1254,0.6236,0.3799,-0.9713,2.0213,-10.85,-18.836859283905568,-14.575576940971397,-96.52477520386066
-0.2456,-0.3067,0.8957,-0.127,0.6232,0.3791,-0.7,1.8112,-12.0487,-18.901755483144385,-14.54452293217638,-96.69011425997327
-0.2386,-0.3052,0.8988,-0.127,0.6232,0.3791,-0.1663,1.2163,-12.8187,-18.755975740956277,-14.133454968076595,-96.76863435499376
-0.2347,-0.3026,0.8971,-0.129,0.6228,0.3854,-0.9538,1.0937,-13.055,-18.63999420581415,-13.934123448701653,-96.81420659644725
-0.2279,-0.3022,0.898,-0.125,0.6235,0.3797,-0.8487,1.365,-13.2737,-18.599500551889868,-13.546792039436967,-96.71878482322994
-0.2213,-0.2996,0.8977,-0.125,0.6235,0.3797,-0.9625,0.945,-13.5712,-18.4563478766014,-13.182015517412474,-96.78353062750534
-0.223,-0.3005,0.9026,-0.1278,0.6251,0.3778,-1.7325,0.595,-13.4925,-18.414098673251303,-13.192173705941904,-97.01616765523349
-0.2222,-0.3012,0.9002,-0.1278,0.6251,0.3778,-1.6625,1.3912,-13.125,-18.499641948737832,-13.175481962475374,-97.0379692421496
-0.2237,-0.2934,0.8982,-0.1263,0.6226,0.3821,-1.5225,1.3912,-12.04,-18.090768261725483,-13.311340426330869,-96.72438415538392
-0.2302,-0.2912,0.8953,-0.1242,0.6254,0.3791,-1.7237,1.9425,-11.9612,-18.01750285459156,-13.715863618506253,-96.48774796149507
-0.2425,-0.2902,0.8955,-0.1242,0.6254,0.3791,-2.3975,1.7762,-12.1887,-17.955829345694987,-14.405231634060748,-96.2858244779807
-0.2402,-0.2919,0.8966,-0.1254,0.6261,0.3802,-2.7388,0.8138,-12.8362,-18.033160882309037,-14.297602289011037,-96.4110229459829
-0.2374,-0.294,0.8936,-0.1254,0.6261,0.3802,-2.275,-0.2275,-13.3525,-18.211106389914704,-14.17012509780823,-96.48379314024288
-0.234,-0.2924,0.8968,-0.1263,0.6254,0.3822,-2.2313,-0.7,-13.3175,-18.058825352702033,-13.943993952230793,-96.5417387668419
-0.2214,-0.2929,0.8992,-0.126,0.6257,0.3793,-2.8087,-0.4987,-12.81,-18.042229574185313,-13.21422867502654,-96.77582094662608
-0.2205,-0.2952,0.8938,-0.126,0.6257,0.3793,-4.1475,-0.56,-12.3638,-18.27654990488772,-13.185509688332047,-96.82038198311115
-0.2216,-0.2984,0.8951,-0.1278,0.625,0.3782,-3.9813,-0.4025,-12.0225,-18.436487236487032,-13.215544302565476,-97.00671467675238
-0.2234,-0.3005,0.8962,-0.1278,0.625,0.3782,-3.7975,-0.175,-11.6025,-18.53630215497995,-13.293320867659085,-97.00608804779344
-0.225,-0.3035,0.8974,-0.1282,0.6261,0.3828,-3.395,-0.175,-11.6287,-18.685143031344428,-13.357324550812914,-96.95311353549442
-0.2277,-0.3043,0.8975,-0.129,0.6239,0.3798,-2.8963,0.0788,-11.2788,-18.72927352999767,-13.502581215852938,-97.05366705669103
-0.2219,-0.303,0.9027,-0.129,0.6239,0.3798,-2.9663,0.2275,-11.1825,-18.555240768017338,-13.137793033555855,-97.1196662902861
-0.2235,-0.3018,0.897,-0.1263,0.6247,0.3726,-2.6688,0.56,-10.3775,-18.595666315430464,-13.279488995961989,-97.0200190425347
-0.2228,-0.2992,0.894,-0.1266,0.6246,0.3775,-2.7475,0.4987,-10.675,-18.50435468873153,-13.295986130948188,-96.92291601259755
-0.2165,-0.2977,0.8956,-0.1266,0.6246,0.3775,-2.8612,1.3825,-10.64,-18.387233282531255,-12.94037287598455,-96.99627652630784
-0.2183,-0.2955,0.8927,-0.1236,0.6237,0.3796,-2.9663,1.225,-10.745,-18.31565693626165,-13.062768866708316,-96.67313084357406
-0.2228,-0.2977,0.8953,-0.1236,0.6237,0.3796,-3.2813,1.1462,-11.0075,-18.39251775772242,-13.27455130106969,-96.6317412126343
-0.2236,-0.3015,0.8962,-0.1279,0.6246,0.3809,-4.3838,1.3825,-10.8062,-18.593511210281076,-13.302953942791719,-96.96950467489557
-0.2238,-0.2995,0.8908,-0.1268,0.6249,0.3846,-3.7362,1.3825,-10.4912,-18.583422211732614,-13.389696020700649,-96.7835319851325
-0.2228,-0.295,0.8894,-0.1268,0.6249,0.3846,-3.9725,1.4,-10.6312,-18.350427763816764,-13.375576607649146,-96.74173749245712
-0.2224,-0.3042,0.894,-0.1268,0.6265,0.3804,-3.535,1.33,-10.36,-18.79076939181881,-13.258881585711766,-96.94170355566678
-0.2189,-0.3073,0.8991,-0.1268,0.6265,0.3804,-5.0313,1.3387,-9.4675,-18.86953320200384,-12.98899134236501,-97.0271469488432
-0.2191,-0.3157,0.8966,-0.1283,0.625,0.3815,-5.74,1.785,-9.4412,-19.396309141492747,-12.980292670856493,-97.22663255058426
-0.2169,-0.3237,0.9004,-0.1295,0.6248,0.3841,-5.0138,2.1788,-10.1937,-19.7729590544154,-12.784271505492471,-97.39023200892383
-0.2156,-0.3238,0.8992,-0.1295,0.6248,0.3841,-3.85,1.5575,-10.57,-19.803766579050965,-12.716408669594818,-97.4104265610467
-0.2189,-0.3111,0.8958,-0.1274,0.6219,0.3801,-2.555,1.9075,-10.605,-19.153015502658832,-12.982571104796266,-97.14438424158502
-0.2178,-0.3016,0.9001,-0.1274,0.6219,0.3801,-2.2575,2.38,-11.235,-18.52614595267654,-12.925539899622942,-97.0423408275501
-0.2187,-0.2949,0.8998,-0.1287,0.6257,0.3814,-2.4325,2.3888,-11.445,-18.14691567841117,-13.00072322141371,-97.00793076092413
-0.2218,-0.2901,0.8983,-0.1271,0.627,0.3791,-2.4938,2.59,-11.4187,-17.89810870641162,-13.209580407174698,-96.81985459362166
-0.2207,-0.29,0.8987,-0.1271,0.627,0.3791,-3.3338,2.7562,-11.3837,-17.884317543299797,-13.157746291002011,-96.83517338448378
-0.232,-0.3022,0.894,-0.1252,0.6257,0.3798,-4.2962,3.255,-11.41,-18.674974495035443,-13.772163452937246,-96.66839455111322
-0.2366,-0.3079,0.8901,-0.1252,0.6257,0.3798,-4.13,3.1238,-11.0513,-19.08036309321839,-14.081564592024769,-96.68130975816179
-0.2375,-0.312,0.8904,-0.1266,0.6267,0.3774,-4.515,2.8175,-10.9375,-19.31013163880909,-14.126535167814803,-96.87938945783328
-0.2376,-0.3124,0.8896,-0.127,0.6259,0.3791,-4.5938,1.3912,-9.8437,-19.349602655990388,-14.143073203487837,-96.88086065272371
-0.2373,-0.311,0.8913,-0.127,0.6259,0.3791,-3.5525,1.645,-9.87,-19.23560887518158,-14.112275938196532,-96.86442563462244
-0.2373,-0.3179,0.8923,-0.1267,0.6249,0.3802,-3.4738,1.225,-10.0187,-19.60858455501569,-14.066761333922766,-96.9122872855236
-0.2356,-0.3217,0.8951,-0.1267,0.6249,0.3802,-3.0538,0.5425,-9.3975,-19.768117244166724,-13.920143746205774,-96.98254092319601
-0.2314,-0.3211,0.8977,-0.1287,0.627,0.382,-3.99,0.5163,-8.855,-19.681923218280787,-13.6569150120047,-97.13760094487468
-0.2336,-0.3224,0.8962,-0.1255,0.6262,0.3825,-3.9025,0.4112,-8.8112,-19.785497523656456,-13.77439562438052,-96.87443137873352
-0.2325,-0.3177,0.8996,-0.1255,0.6262,0.3825,-2.7825,-0.105,-9.03,-19.45182244215959,-13.699838916411002,-96.82461255918827
-0.2354,-0.3093,0.8894,-0.127,0.6273,0.3797,-2.6688,0.2013,-9.6075,-19.176415297556098,-14.018401403383965,-96.85355536705475
-0.2358,-0.3044,0.8944,-0.127,0.6273,0.3797,-3.2462,0.0875,-9.975,-18.79639364414824,-14.013924482376732,-96.77793712165935
-0.2316,-0.3002,0.893,-0.1261,0.627,0.3754,-3.4738,-0.5688,-10.5087,-18.58162339093868,-13.821207889792351,-96.8056577867694
-0.2278,-0.3042,0.8901,-0.1261,0.6258,0.3827,-2.73,-0.9975,-11.2788,-18.867661888309314,-13.623458257362225,-96.76733842810152
-0.2255,-0.3104,0.8884,-0.1269,0.6258,0.3827,-3.2288,-0.4987,-11.2962,-19.25808411596865,-13.4825821184475,-96.94318432123342
-0.2172,-0.3172,0.8921,-0.1283,0.6256,0.3814,-3.4475,-0.1312,-11.5062,-19.57288197169986,-12.948433717428134,-97.27495835981154
-0.2161,-0.3202,0.8927,-0.1283,0.6256,0.3814,-2.4763,0.2888,-12.2325,-19.73187854830117,-12.842027435383628,-97.32582889046411
-0.2169,-0.3174,0.8936,-0.1281,0.6265,0.3818,-3.0538,0.2362,-11.9875,-19.55507694048097,-12.881310252166353,-97.25398456229249
-0.2219,-0.3143,0.8891,-0.128,0.627,0.378,-2.6688,-0.0438,-11.8562,-19.468887024110153,-13.223106535339028,-97.21862090671026
-0.2233,-0.3106,0.8932,-0.128,0.627,0.378,-2.6163,0.105,-12.0925,-19.175228423543615,-13.282728060306653,-97.14911414310987
-0.2255,-0.3026,0.8913,-0.1271,0.6255,0.3795,-2.2838,0.5163,-11.9263,-18.753563077468705,-13.46261832191725,-96.92312912946564
-0.2241,-0.2989,0.8999,-0.1271,0.6255,0.3795,-2.065,0.7437,-12.1012,-18.374705285571938,-13.305588593171846,-96.89174080338664
-0.2161,-0.2976,0.9008,-0.1282,0.6251,0.3785,-1.8463,0.0788,-12.4687,-18.2823797655596,-12.856419898881224,-97.10054797273615
-0.2087,-0.298,0.8999,-0.1284,0.6258,0.3842,-1.9075,0.3325,-11.5062,-18.322086473412362,-12.438700378327926,-97.1186857101383
-0.2092,-0.2996,0.8963,-0.1284,0.6258,0.3842,-2.38,0.9713,-11.5937,-18.482497475665816,-12.479672118156781,-97.13085975810382
-0.2108,-0.3032,0.8994,-0.1294,0.6261,0.3813,-2.975,1.3737,-12.18,-18.629313148019865,-12.519709494736341,-97.2793899662938
-0.2195,-0.3045,0.8988,-0.1294,0.6261,0.3813,-2.8087,1.8112,-11.7163,-18.715406708087432,-12.99546850548258,-97.1679645086339
-0.2214,-0.302,0.8966,-0.1274,0.6254,0.376,-3.1675,1.9512,-11.2525,-18.615205841567388,-13.1611720795717,-97.06619064583273
-0.2246,-0.2997,0.8976,-0.1316,0.6266,0.3804,-2.4763,1.715,-11.48,-18.464028181071996,-13.341115831469052,-97.21910980896907
-0.2207,-0.3001,0.9037,-0.1316,0.6266,0.3804,-2.5288,1.6712,-11.7163,-18.3704777533551,-13.065340976232118,-97.27946252774011
-0.218,-0.299,0.8941,-0.1268,0.6254,0.3802,-2.1263,1.2862,-10.255,-18.490397063461753,-13.022328154130701,-96.94982202481985
-0.2162,-0.2999,0.8999,-0.1268,0.6254,0.3802,-2.7213,1.1987,-9.8175,-18.4312693495969,-12.84964542584357,-96.98444117952597
-0.22,-0.2997,0.8969,-0.129,0.6265,0.3884,-3.8063,1.26,-10.0012,-18.476991481750282,-13.083247990870309,-96.92846586626743
-0.2223,-0.301,0.8966,-0.1297,0.625,0.3809,-3.3688,1.2687,-9.6425,-18.557364003135522,-13.219220399469961,-97.11962742935785
-0.2255,-0.3043,0.9023,-0.1297,0.625,0.3809,-2.905,0.8663,-9.1437,-18.63645174132319,-13.317424101362965,-97.11072976662487
-0.2345,-0.3055,0.8977,-0.1297,0.6247,0.3802,-2.9838,1.3825,-8.9075,-18.793790522263183,-13.859113094728768,-97.01296881989215
-0.235,-0.2968,0.8971,-0.1297,0.6247,0.3802,-2.4237,1.5487,-8.8112,-18.307635348121636,-13.960120222657938,-96.89092806062794
-0.2363,-0.2916,0.9013,-0.1271,0.6249,0.3808,-2.7475,1.1287,-8.8462,-17.928990444500126,-14.003907166176134,-96.58698004633878
-0.2388,-0.2956,0.8928,-0.1278,0.6253,0.3798,-3.7888,0.0875,-9.7912,-18.318426190356348,-14.23491994333886,-96.67995287519456
-0.2381,-0.3006,0.8895,-0.1278,0.6253,0.3798,-3.2025,-0.84,-10.1937,-18.671463567034326,-14.229888239844366,-96.76088038618548
-0.2269,-0.3016,0.8942,-0.1282,0.6254,0.381,-3.3863,-1.4525,-10.8238,-18.63854340186557,-13.552981188125742,-96.94160231523621
-0.2137,-0.3059,0.8908,-0.1282,0.6254,0.381,-4.13,-1.8112,-9.7125,-18.95168218343299,-12.819180494412874,-97.19012180253725
-0.2062,-0.3096,0.8972,-0.1311,0.625,0.382,-4.235,-1.715,-8.6538,-19.037994554109176,-12.283484100429835,-97.5424910982171
-0.2017,-0.3124,0.8966,-0.1286,0.6259,0.3802,-3.8588,-0.8312,-8.715,-19.209327295787034,-12.007443764455777,-97.47631621723629
-0.2015,-0.3129,0.8916,-0.1286,0.6259,0.3802,-4.4975,0.21,-7.84,-19.33781389562764,-12.036318329989275,-97.48825602723198
-0.2143,-0.3067,0.8985,-0.1281,0.6255,0.3806,-4.0075,0.595,-7.8313,-18.848337808670674,-12.684010327500406,-97.18644361471632
-0.2196,-0.3056,0.891,-0.1281,0.6255,0.3806,-3.01,0.9625,-8.6187,-18.931023304227423,-13.099770612874552,-97.10121218962695
-0.2252,-0.3013,0.8899,-0.1293,0.6236,0.3801,-3.2638,0.8225,-9.1612,-18.705474651555217,-13.459220670577164,-97.07471515296227
-0.2297,-0.2954,0.8959,-0.129,0.6254,0.3813,-3.1063,0.49,-9.1087,-18.24972950803754,-13.673232782814338,-96.87431953340162
-0.2247,-0.2949,0.8991,-0.129,0.6254,0.3813,-3.0713,0.315,-9.24,-18.159429434956508,-13.37474025180655,-96.94272907738336
-0.2112,-0.2993,0.8947,-0.1306,0.6244,0.3817,-2.6688,0.0088,-9.7475,-18.49560418107111,-12.656665740480703,-97.32129464991358
-0.206,-0.2979,0.8938,-0.1306,0.6244,0.3817,-3.7188,0.4812,-9.59,-18.433174662429145,-12.350472596443536,-97.38402517746259
-0.2038,-0.3005,0.8964,-0.1291,0.623,0.3838,-3.43,0.805,-10.045,-18.532450394596776,-12.174556562086675,-97.29611286019926
-0.2025,-0.3013,0.9038,-0.1297,0.6246,0.3822,-3.78,1.19,-10.115,-18.437078240141897,-12.009266583475478,-97.39157936749324
-0.2108,-0.3023,0.9038,-0.1297,0.6246,0.3822,-4.515,2.0563,-10.7187,-18.49374981134599,-12.446392917757244,-97.27918311263925
-0.2178,-0.3129,0.9,-0.1287,0.6245,0.3803,-4.9788,2.1088,-11.2437,-19.16924260719904,-12.851127001841695,-97.2650245498939
-0.2151,-0.3142,0.9071,-0.1287,0.6245,0.3803,-4.4363,1.82,-11.1562,-19.105142379302322,-12.64191919356431,-97.31309414345746
-0.2158,-0.3157,0.898,-0.129,0.6249,0.3801,-3.9638,2.03,-11.8212,-19.368954707210822,-12.766168038072887,-97.35340391443036
-0.2175,-0.3145,0.8988,-0.1284,0.6234,0.3867,-4.0513,2.0038,-12.5913,-19.285701693857064,-12.860574001379186,-97.14335046834091
-0.2183,-0.3118,0.8958,-0.1284,0.6234,0.3867,-4.0513,1.6887,-12.39,-19.191635528270055,-12.95535748608116,-97.10106442270543
-0.2101,-0.3051,0.8993,-0.131,0.6244,0.3816,-3.5525,1.6013,-12.6262,-18.74129232899701,-12.50164463761116,-97.43602054097346
-0.2094,-0.3061,0.8973,-0.131,0.6244,0.3816,-3.815,1.2512,-12.1712,-18.836054103356105,-12.457417886154168,-97.45908812892188
-0.2098,-0.3066,0.8987,-0.127,0.6249,0.3807,-3.1675,1.855,-11.0075,-18.837556575458144,-12.458926118243854,-97.16573618450143
-0.2161,-0.3068,0.8979,-0.1283,0.6253,0.3802,-3.08,2.24,-9.905,-18.864523258986093,-12.808808491046264,-97.18580072634163
-0.219,-0.3085,0.8962,-0.1283,0.6253,0.3802,-2.6863,2.835,-9.7475,-18.994751234357135,-12.998444192007788,-97.16592751582074
-0.2292,-0.3016,0.8921,-0.1255,0.6249,0.3814,-2.3538,2.7125,-9.3362,-18.68004803817093,-13.639233486971458,-96.69517846638406
-0.2377,-0.2938,0.8882,-0.1255,0.6249,0.3814,-2.8875,2.485,-9.7388,-18.30414762045898,-14.220348359246435,-96.46442741991214
-0.2303,-0.2898,0.8894,-0.13,0.6243,0.381,-2.8263,1.5225,-9.7388,-18.04816884186807,-13.852428532333294,-96.87990017985643
-0.2262,-0.2912,0.8901,-0.13,0.6244,0.3777,-3.2462,0.595,-10.1412,-18.115567991458768,-13.592972395905209,-97.03015339819574
-0.218,-0.2937,0.8921,-0.1297,0.6244,0.3777,-3.85,0.2538,-9.7562,-18.222487991580316,-13.09456585538904,-97.16250370727926
-0.2139,-0.3002,0.8941,-0.1298,0.6242,0.3812,-4.165,0.315,-9.8525,-18.55901401543624,-12.79439643568707,-97.24100030350651
-0.2038,-0.3172,0.8955,-0.1298,0.6242,0.3812,-4.7163,0.1925,-10.01,-19.502678562186173,-12.142806480064417,-97.58159168447476
-0.2036,-0.3191,0.8946,-0.1304,0.6234,0.386,-4.8913,0.3763,-9.9312,-19.63079379527504,-12.101057775210187,-97.5647971283702
-0.2016,-0.3186,0.8916,-0.1304,0.6234,0.386,-4.2438,0.49,-9.8612,-19.663515398006496,-12.024374591442188,-97.58967155632789
-0.2039,-0.3121,0.8918,-0.1289,0.6244,0.3794,-3.5263,1.0325,-9.17,-19.289221846783587,-12.169745064180912,-97.49047062289988
-0.2118,-0.3112,0.9008,-0.1286,0.6235,0.3807,-2.5988,1.4,-9.7562,-19.059078738995435,-12.509961262302271,-97.31783164738545
-0.227,-0.3057,0.8879,-0.1286,0.6235,0.3807,-2.8963,1.7937,-9.9137,-18.998500794286926,-13.529475960747227,-97.04059090612043
-0.2297,-0.3065,0.8932,-0.1303,0.6251,0.383,-3.0625,1.4262,-9.9488,-18.939706973389423,-13.663540351820906,-97.08504749082475
-0.2299,-0.3096,0.8913,-0.1303,0.6251,0.383,-2.4413,1.6712,-10.3337,-19.154557899693742,-13.692012410543732,-97.12372852495878
-0.2259,-0.3124,0.8881,-0.1276,0.6244,0.3802,-2.205,1.5487,-11.165,-19.37940957262872,-13.503992628076597,-97.07298193348613
-0.2205,-0.3149,0.8918,-0.128,0.6231,0.3811,-2.4588,1.26,-11.8475,-19.448272142499587,-13.144340743342983,-97.19320188050983
-0.2075,-0.3153,0.8971,-0.128,0.6231,0.3811,-1.925,1.085,-11.5237,-19.365030377747157,-12.354548260301927,-97.3755472413417
-0.2028,-0.3089,0.9078,-0.1276,0.6264,0.381,-1.9512,1.7413,-11.7337,-18.79342087176393,-11.964386806660423,-97.32135704426362
-0.2024,-0.3068,0.9025,-0.1276,0.6264,0.381,-1.7413,2.17,-12.1538,-18.775231016897038,-11.986387392967641,-97.30677864192879
-0.2031,-0.306,0.8991,-0.1283,0.6248,0.3799,-1.75,2.7213,-11.8562,-18.795462799633288,-12.065756526923058,-97.37113368901517
-0.2133,-0.3021,0.9015,-0.1286,0.6245,0.3806,-2.17,3.3688,-11.9962,-18.52705885735468,-12.609280706565245,-97.18746871778487
-0.2331,-0.2919,0.8993,-0.1286,0.6245,0.3806,-2.345,4.4363,-12.1975,-17.98398535752396,-13.768519449446476,-96.76207507632435
-0.2354,-0.2925,0.9013,-0.1291,0.625,0.3786,-3.1238,4.375,-12.7487,-17.979875557238735,-13.939328404147984,-96.81278012978518
-0.2341,-0.2941,0.9025,-0.1291,0.625,0.3786,-2.7475,3.57,-12.6962,-18.049203660349086,-13.859415189552244,-96.85326964020786
-0.2363,-0.2973,0.9015,-0.1278,0.6237,0.3756,-2.065,3.0625,-13.3175,-18.251232711247802,-13.971465393667337,-96.8301581498276
-0.2392,-0.2974,0.8971,-0.1291,0.625,0.3794,-2.0125,3.2725,-12.4862,-18.34079911602022,-14.18881504586875,-96.80572949565551
-0.2312,-0.3014,0.8885,-0.1291,0.625,0.3794,-2.9925,2.5813,-12.3375,-18.737194899310627,-13.863247783737982,-96.98289935125467
-0.2292,-0.2999,0.9009,-0.1266,0.6257,0.3802,-3.185,2.0213,-11.2875,-18.412823383646433,-13.587431507685729,-96.77496280978724
-0.2261,-0.2989,0.8992,-0.1266,0.6257,0.3802,-2.0388,2.345,-10.8937,-18.387207462075956,-13.4299297325665,-96.80885948165242
-0.2216,-0.2977,0.8975,-0.1303,0.6245,0.3758,-2.03,2.2488,-10.955,-18.350726364977696,-13.203114976551463,-97.24009747384498
-0.2236,-0.2937,0.8977,-0.1272,0.6239,0.3813,-2.9575,2.4588,-11.2962,-18.11707086313498,-13.311937938012456,-96.81156531750408
-0.2223,-0.2889,0.898,-0.1272,0.6239,0.3813,-2.7125,2.0213,-10.78,-17.834430823517287,-13.263039013689582,-96.770866293231
-0.2266,-0.2866,0.8937,-0.1283,0.625,0.3791,-3.2813,1.7587,-10.0012,-17.780616591331167,-13.556522303162948,-96.80116754914957
-0.2262,-0.2865,0.8959,-0.1283,0.625,0.3754,-3.9988,1.8463,-10.7187,-17.733876158711837,-13.523987163869947,-96.88198165876331
-0.2206,-0.2921,0.9029,-0.1259,0.6258,0.3754,-4.1825,1.4175,-10.955,-17.926614564041483,-13.110501333766978,-96.84727671226611
-0.2187,-0.2931,0.8953,-0.129,0.6231,0.3798,-3.8937,1.1375,-11.41,-18.126742428290328,-13.071989106193865,-97.05184808818782
-0.2223,-0.2949,0.8984,-0.129,0.6231,0.3798,-5.0925,1.5575,-10.3512,-18.17232450224879,-13.221202673651078,-97.01834383344477
-0.2193,-0.3013,0.8946,-0.1265,0.6243,0.3754,-5.0662,1.6625,-10.9287,-18.612398244494177,-13.086565077808576,-97.03549226573385
-0.2169,-0.3043,0.8941,-0.1265,0.6253,0.3818,-5.4775,1.8725,-10.255,-18.795170612405364,-12.942467068007868,-96.97614589796447
-0.2158,-0.308,0.8913,-0.1268,0.6253,0.3818,-4.8125,1.9862,-10.3687,-19.062598665192255,-12.892607285693465,-97.06194799223324
-0.2159,-0.3126,0.8915,-0.1285,0.625,0.3794,-4.5413,2.6513,-10.115,-19.322340325422683,-12.87410930858928,-97.29534899519085
-0.2173,-0.3112,0.8886,-0.1285,0.625,0.3794,-3.8763,2.5375,-9.73,-19.30101039835502,-12.989070588391646,-97.2614611260296
-0.2239,-0.3118,0.8991,-0.129,0.6253,0.3807,-3.5088,2.2838,-9.8437,-19.12651381589353,-13.22542806399609,-97.17841872893162
-0.223,-0.3106,0.899,-0.129,0.6238,0.3762,-3.0363,2.5375,-9.8262,-19.059933567502284,-13.196710771647837,-97.27302065213296
-0.2221,-0.3112,0.8988,-0.1282,0.6238,0.3762,-4.0163,2.485,-9.3537,-19.097780431061146,-13.146528731744507,-97.23161489454452
-0.2214,-0.309,0.8941,-0.1288,0.6244,0.3786,-3.36,2.8263,-10.1237,-19.06517236867034,-13.170921030497006,-97.2133632830764
-0.2211,-0.3022,0.894,-0.1288,0.6244,0.3786,-3.6925,3.1763,-9.2662,-18.677788064993425,-13.185172747646059,-97.13340727836182
-0.2203,-0.3065,0.8967,-0.127,0.6252,0.3782,-3.9113,3.115,-8.505,-18.870422529902882,-13.09316669210228,-97.06302149641496
-0.2212,-0.3103,0.8921,-0.127,0.6252,0.3782,-3.3775,2.7388,-8.3825,-19.178522544772292,-13.175510736626892,-97.10082230009439
-0.2219,-0.3097,0.8939,-0.1274,0.6238,0.3792,-4.2438,3.5263,-8.4612,-19.109286321068517,-13.199075236665587,-97.09728841627353
-0.2256,-0.3052,0.8968,-0.1273,0.6254,0.3787,-3.5438,3.9113,-8.4962,-18.79527401798582,-13.382962840270384,-96.98307201065356
-0.2394,-0.3012,0.8963,-0.1273,0.6254,0.3787,-3.1325,3.395,-8.3212,-18.57535392058513,-14.15741659559118,-96.73064553444237
-0.241,-0.2994,0.8982,-0.1265,0.6252,0.3785,-2.4938,3.1937,-8.7062,-18.435282086149964,-14.2736242819383,-96.62461368172067
-0.2339,-0.3051,0.8974,-0.1265,0.6252,0.3785,-2.835,3.325,-8.575,-18.7763054957552,-13.886988710393723,-96.80488951140124
-0.2353,-0.311,0.8985,-0.1265,0.6258,0.3758,-3.0538,3.4475,-8.9075,-19.091645629728944,-13.899225988401929,-96.9171044047212
-0.235,-0.3098,0.8979,-0.1238,0.6242,0.3787,-2.6775,2.9138,-9.9663,-19.035963959528882,-13.896627827441652,-96.64223010365058
-0.2342,-0.3029,0.8954,-0.1238,0.6242,0.3787,-1.61,3.6488,-9.87,-18.690704431258652,-13.914538582930557,-96.56383791385228
-0.2438,-0.2974,0.8957,-0.1239,0.6242,0.3794,-2.5638,3.2375,-10.4912,-18.368523288735968,-14.449651275104605,-96.33990368340625
-0.2506,-0.2918,0.8899,-0.1239,0.6242,0.3794,-1.9862,3.4388,-12.005,-18.15492890933866,-14.94806304922703,-96.16007087360683
-0.2503,-0.286,0.8975,-0.1242,0.6246,0.3744,-1.5225,3.08,-12.0925,-17.676289581242525,-14.88482739477017,-96.21006240248575
-0.2456,-0.2872,0.8919,-0.1251,0.6246,0.3785,-3.3163,2.1175,-12.1887,-17.848625001366592,-14.698746310476812,-96.28070739687386
-0.243,-0.2916,0.8918,-0.1251,0.6246,0.3785,-3.9375,1.3387,-11.27,-18.106050585826413,-14.529662657780358,-96.38323697542344
-0.2393,-0.2976,0.8931,-0.1259,0.625,0.3772,-3.9375,0.8663,-11.34,-18.428405185399495,-14.276736827263216,-96.61011879424099
-0.2403,-0.3012,0.8916,-0.1259,0.625,0.3772,-4.2175,0.7088,-10.7712,-18.665412722073135,-14.321322034709818,-96.6462536980264
-0.2395,-0.3011,0.8965,-0.1262,0.624,0.3809,-4.5763,0.5513,-10.9725,-18.56546621826106,-14.21699194679604,-96.59952657737828
-0.2401,-0.3028,0.8945,-0.1238,0.6246,0.379,-3.9813,-0.0963,-10.7362,-18.701310865046764,-14.262560344090133,-96.47007696186938
-0.2482,-0.3088,0.892,-0.1238,0.6246,0.379,-4.6375,-0.49,-9.8525,-19.09431705651507,-14.708734770416186,-96.4399007169224
-0.2483,-0.3113,0.8916,-0.1246,0.625,0.3792,-4.1038,-1.05,-9.835,-19.246162923500876,-14.729913137451392,-96.53045575176118
-0.2436,-0.3149,0.8957,-0.1246,0.625,0.3792,-4.3925,-1.3912,-9.6862,-19.36977793312884,-14.406145485706727,-96.64168880651614
-0.2314,-0.3188,0.8959,-0.1246,0.6247,0.3831,-4.655,-2.1263,-9.1612,-19.587239959697886,-13.709907750377923,-96.78030097802313
-0.2238,-0.3156,0.8937,-0.1273,0.6262,0.3788,-4.1125,-2.0913,-9.4937,-19.450421442544403,-13.305230701902648,-97.13673745436157
-0.2158,-0.3132,0.8935,-0.1273,0.6262,0.3788,-2.59,-1.4175,-10.29,-19.31749340308187,-12.86177428156523,-97.2177397066072
-0.2153,-0.3116,0.8952,-0.1262,0.6258,0.3792,-2.7037,-0.665,-9.3712,-19.19221382913153,-12.800118018765989,-97.11321072712252
-0.2189,-0.3105,0.8977,-0.1262,0.6258,0.3792,-2.4675,0.0088,-9.2837,-19.079947438573434,-12.968263955893775,-97.04744193182357
-0.2235,-0.3057,0.8975,-0.128,0.6257,0.3817,-2.3013,0.4638,-9.38,-18.810142282728485,-13.248639873821974,-97.0109458583143
-0.2297,-0.302,0.8988,-0.1274,0.624,0.3798,-2.9663,0.7525,-9.9312,-18.57309642859108,-13.598332178428075,-96.87074857615167
-0.2362,-0.3018,0.9007,-0.1274,0.624,0.3798,-3.5263,1.015,-9.4587,-18.52471100036906,-13.944096710236291,-96.77109511559887
-0.2379,-0.3015,0.8975,-0.1265,0.6229,0.3806,-3.2813,0.8312,-9.9575,-18.56880154866286,-14.096244663352008,-96.6604892172568
-0.2405,-0.3023,0.8955,-0.1265,0.6229,0.3806,-3.9288,0.5163,-10.5875,-18.65328591093138,-14.266994346957848,-96.63394108096769
-0.2326,-0.302,0.8976,-0.1272,0.6232,0.3858,-3.7538,0.8487,-10.6487,-18.595792344246195,-13.823838317113486,-96.68997481046004
-0.2282,-0.3012,0.8951,-0.1262,0.6245,0.3795,-3.3513,0.8138,-10.8325,-18.59801494904908,-13.596683493497048,-96.79667664550561
-0.2142,-0.3036,0.8962,-0.1262,0.6245,0.3795,-3.57,0.35,-11.6287,-18.714235711203564,-12.798577360251686,-97.03074275375766
-0.2106,-0.3097,0.8946,-0.1266,0.625,0.3802,-3.5875,0.4812,-11.2175,-19.094345045883248,-12.5550693296406,-97.17117677002011
-0.2174,-0.3146,0.8954,-0.1266,0.625,0.3802,-3.535,1.47,-10.1412,-19.35836445259578,-12.8831035849521,-97.13362275213575
-0.2237,-0.3088,0.8942,-0.1268,0.6253,0.3734,-2.8963,1.085,-10.1675,-19.052396366712088,-13.281506499159697,-97.12741768105728
-0.2345,-0.3015,0.8964,-0.1278,0.626,0.381,-2.7388,0.9887,-10.0975,-18.591225975901363,-13.891441982659899,-96.79467346112948
-0.2347,-0.2975,0.8938,-0.1278,0.626,0.381,-2.6075,0.7263,-10.1062,-18.41037519387884,-13.985086540251297,-96.7395596723749
-0.2316,-0.2994,0.8972,-0.128,0.6248,0.3809,-2.4588,0.6913,-10.1763,-18.454001096114137,-13.770730907115105,-96.83026763070978
-0.23,-0.2984,0.8953,-0.128,0.6248,0.3809,-2.695,-0.1575,-10.15,-18.433078719098567,-13.700625185587908,-96.84219557497114
-0.2301,-0.2991,0.8934,-0.1254,0.6241,0.382,-3.0363,-0.0788,-9.7475,-18.509768109860364,-13.723547806274699,-96.63007668298671
-0.2207,-0.3015,0.891,-0.1297,0.6232,0.3804,-3.395,-0.5862,-9.45,-18.694547818551225,-13.229989793209667,-97.16888168711861
-0.2121,-0.3051,0.8933,-0.1297,0.6232,0.3804,-3.185,-0.315,-9.205,-18.85683487476091,-12.691726375629285,-97.33829474802373
-0.2124,-0.3026,0.8955,-0.1282,0.6246,0.3813,-2.4938,0.0175,-9.2662,-18.671158583496354,-12.665621748993637,-97.164524626882
-0.209,-0.3021,0.8983,-0.1282,0.6246,0.3813,-2.8,-0.3763,-9.6425,-18.588087935065545,-12.447512901127512,-97.20739430762382
-0.2072,-0.301,0.8983,-0.1274,0.6243,0.3788,-3.3513,0.9625,-9.3013,-18.524985423973312,-12.342610832606328,-97.20890578044396
-0.2069,-0.2977,0.8977,-0.1266,0.6227,0.3813,-2.835,1.2337,-8.82,-18.347248338703277,-12.339917009981363,-97.07237168138067
-0.2097,-0.2944,0.901,-0.1266,0.6227,0.3813,-2.6075,1.785,-8.8025,-18.0953025802164,-12.467178797359052,-96.99050936414902
-0.216,-0.2927,0.8961,-0.1276,0.625,0.3792,-2.5638,2.3975,-8.96,-18.08900222623123,-12.880214873478128,-96.9848237987942
-0.2197,-0.2907,0.9028,-0.1276,0.625,0.3792,-3.43,2.5813,-8.9425,-17.849038748869106,-13.032633260697779,-96.9021279607607
-0.2206,-0.2899,0.8955,-0.1277,0.6221,0.3757,-3.2725,2.5813,-9.625,-17.93809828565843,-13.18104171020367,-96.96892444788125
-0.222,-0.2916,0.8993,-0.1266,0.6229,0.3794,-3.8763,2.8175,-9.2225,-17.96533532872397,-13.21291659322726,-96.80464183264735
-0.2316,-0.3054,0.8958,-0.1266,0.6229,0.3794,-4.095,2.7562,-9.1525,-18.823441950468478,-13.718963261781266,-96.83881680580502
-0.2364,-0.3054,0.8957,-0.1266,0.6223,0.3808,-4.5938,2.7125,-9.275,-18.827435549845273,-14.00778458787415,-96.74116572073572
-0.2285,-0.3055,0.893,-0.1266,0.6223,0.3808,-4.095,2.1875,-9.4412,-18.885947623598856,-13.632304494897305,-96.85976925615812
-0.231,-0.3057,0.8935,-0.1262,0.623,0.3842,-4.1737,1.7237,-9.7737,-18.887744826563743,-13.739109196134201,-96.72202472593732
-0.228,-0.3022,0.8941,-0.127,0.623,0.3791,-4.0338,2.0475,-9.4062,-18.67542670264532,-13.590168862462328,-96.88763070746441
-0.2249,-0.3023,0.8957,-0.127,0.623,0.3791,-3.9025,1.8725,-9.8175,-18.64967201939466,-13.393780304335158,-96.93362752845964
-0.2233,-0.3044,0.8951,-0.1261,0.6234,0.3786,-4.2438,2.0213,-10.01,-18.78150508786927,-13.294815709741076,-96.92336082242969
-0.2296,-0.3013,0.8938,-0.1261,0.6234,0.3786,-4.6813,1.8112,-9.7388,-18.62932665187895,-13.659454397107389,-96.7926404550414
-0.2369,-0.3004,0.9006,-0.1268,0.6245,0.3862,-4.3488,1.575,-9.9663,-18.44683569433543,-13.99164127015045,-96.55964279859774
-0.2369,-0.2987,0.8975,-0.1262,0.6239,0.3838,-3.955,1.5925,-10.71,-18.408224318006397,-14.056672096920876,-96.54412799350264
-0.2341,-0.2992,0.8912,-0.1262,0.6239,0.3838,-4.4713,0.7,-11.1737,-18.55794010394482,-13.987244971513283,-96.59644721417185
-0.2234,-0.3003,0.8957,-0.1266,0.6236,0.38,-4.0513,0.56,-11.445,-18.534735693221993,-13.3402876815963,-96.87908840001276
-0.2178,-0.3075,0.8988,-0.1266,0.6236,0.38,-4.2,0.0963,-10.7712,-18.886148936876527,-12.935086546701223,-97.04821205066087
-0.2145,-0.3121,0.8884,-0.1273,0.6238,0.3908,-4.7688,0.3325,-10.5962,-19.35554397426579,-12.838105006111608,-96.99861208451048
-0.2062,-0.307,0.8906,-0.125,0.6234,0.3803,-4.235,0.805,-10.5087,-19.02045840610574,-12.372641377495457,-97.08605618409413
-0.2057,-0.3068,0.9039,-0.125,0.6234,0.3803,-3.2113,1.3212,-9.5637,-18.74878858960932,-12.172453650809972,-97.08319374521432
-0.2231,-0.3047,0.8932,-0.1256,0.625,0.3797,-3.64,2.1,-9.5987,-18.83599473941621,-13.23661414743603,-96.86552008823942
-0.2337,-0.3047,0.9004,-0.1256,0.625,0.3797,-4.1213,1.68,-9.5025,-18.69641754873424,-13.780660277954361,-96.70698240307284
-0.2407,-0.3066,0.9018,-0.1254,0.6246,0.3795,-4.1125,1.7762,-9.625,-18.777156963290917,-14.159679387688055,-96.61991879538868
-0.2408,-0.3099,0.9018,-0.126,0.6222,0.3841,-3.9725,1.0587,-11.0687,-18.964633070296685,-14.171736216402008,-96.61661056211274
-0.2334,-0.307,0.9018,-0.126,0.6222,0.3841,-3.2813,0.2362,-12.1538,-18.800518640600757,-13.787458486625848,-96.68693309543436
-0.2226,-0.2994,0.899,-0.1276,0.6241,0.3809,-2.275,0.1925,-12.46,-18.420555142576386,-13.24935547519878,-96.93542182958195
-0.2281,-0.2929,0.8943,-0.1276,0.6241,0.3809,-2.1525,0.0175,-11.7687,-18.13526882037337,-13.606126661453715,-96.77138501735612
-0.2342,-0.2838,0.8968,-0.1269,0.6255,0.3765,-2.9925,0.07,-11.2613,-17.56178514392392,-13.962219029035689,-96.58962298770695
-0.2353,-0.2808,0.9013,-0.1272,0.6231,0.3782,-3.8937,-0.0438,-11.4625,-17.30503489782645,-13.994141334489015,-96.5259093903763
-0.2348,-0.2807,0.8994,-0.1272,0.6231,0.3782,-4.1912,0.0263,-11.6025,-17.332917278341803,-13.993553602047243,-96.53251173940734
-0.2233,-0.291,0.8941,-0.1268,0.623,0.3801,-4.8738,-0.4112,-12.1712,-18.026696539530278,-13.390933865339308,-96.77887772476606
-0.2149,-0.2977,0.8927,-0.1268,0.623,0.3801,-5.2675,-0.4288,-12.1012,-18.44165654180422,-12.88996614635852,-96.99096812568122
-0.2128,-0.3048,0.8895,-0.128,0.6249,0.3799,-4.9175,-0.5075,-11.5587,-18.91363356704391,-12.75899904316862,-97.19900391952453
-0.2092,-0.3084,0.8893,-0.1315,0.6244,0.3807,-5.5125,-0.0875,-11.3312,-19.12550674611183,-12.542157736642837,-97.54919376839824
-0.2128,-0.3107,0.9005,-0.1315,0.6244,0.3807,-5.4513,1.2775,-9.94,-19.036211920822012,-12.589829670435838,-97.51748150466527
-0.218,-0.3109,0.9016,-0.1301,0.6258,0.3818,-5.8362,1.19,-9.8,-19.02582679110657,-12.860272215957972,-97.31011065758697
-0.2236,-0.3135,0.8944,-0.1301,0.6258,0.3818,-5.7312,1.3825,-9.8087,-19.315599216705724,-13.252292534596783,-97.26773833988628
-0.2215,-0.3163,0.8971,-0.1271,0.6251,0.3771,-5.3812,1.2163,-9.6425,-19.421405004029037,-13.115911999690198,-97.19662879028958
-0.2219,-0.3185,0.8962,-0.1293,0.6245,0.381,-5.1625,0.9625,-9.205,-19.56433270851043,-13.13162737842447,-97.31095869222955
-0.2232,-0.3197,0.8901,-0.1293,0.6245,0.381,-4.1038,0.6737,-9.1087,-19.756465596175566,-13.270992134306692,-97.31423673784919
-0.2222,-0.3164,0.8901,-0.1287,0.6253,0.381,-3.92,0.4025,-8.9425,-19.56900158331791,-13.238088964976235,-97.2381949287774
-0.218,-0.3184,0.8938,-0.1287,0.6253,0.381,-3.9113,0.7,-8.8375,-19.60742517074943,-12.955331607450017,-97.3167951716646
-0.2155,-0.3201,0.8889,-0.1256,0.6262,0.3802,-3.7713,1.2075,-8.4787,-19.80388524449659,-12.854822597427397,-97.15183477599334
-0.2231,-0.3174,0.8914,-0.1274,0.627,0.3811,-3.5613,1.7237,-7.98,-19.59973044437382,-13.244024470851706,-97.12988258173016
-0.2233,-0.3182,0.8909,-0.1274,0.627,0.3811,-3.0713,2.31,-7.735,-19.65491479545181,-13.278963512873748,-97.13766997192978
-0.2369,-0.317,0.8841,-0.1263,0.6264,0.381,-2.8963,1.96,-7.9975,-19.72546858827934,-14.107240006250521,-96.86421805378873
-0.2372,-0.3146,0.8933,-0.1263,0.6264,0.381,-2.9838,1.925,-9.0825,-19.401878445540994,-14.06335106887448,-96.81710346466261
-0.2388,-0.3119,0.8927,-0.1282,0.6262,0.3801,-2.9838,1.4525,-8.1287,-19.259217969254237,-14.166779724641989,-96.923704815735
-0.2338,-0.3118,0.893,-0.1278,0.6238,0.3794,-2.0913,0.2275,-9.3275,-19.247194307720335,-13.898556282266883,-96.98330366365116
-0.2271,-0.3099,0.8929,-0.1278,0.6238,0.3794,-2.5463,-0.21,-9.45,-19.140675796741295,-13.530285044732068,-97.05342726686685
-0.2202,-0.3094,0.8951,-0.1296,0.6246,0.3813,-2.205,-0.0875,-9.3537,-19.06837716594273,-13.11138791796369,-97.24067462647139
-0.2182,-0.3102,0.8986,-0.1296,0.6246,0.3813,-1.9775,0.4462,-9.5025,-19.04491664514958,-12.936772789878841,-97.27676647675369
-0.2206,-0.3072,0.8923,-0.1276,0.6241,0.3825,-2.4325,0.6737,-9.415,-18.99761367671235,-13.145678937838708,-97.03390158948592
-0.2286,-0.301,0.8924,-0.1286,0.6246,0.3782,-2.4763,0.9187,-8.9775,-18.63972637969507,-13.61699733336646,-97.0014083643701
-0.2333,-0.2948,0.9024,-0.1286,0.6246,0.3782,-3.2462,0.8925,-9.4587,-18.092711102850558,-13.796846069805063,-96.84588354782296
-0.2346,-0.2955,0.8947,-0.1274,0.6238,0.3807,-3.22,0.7525,-9.7562,-18.276829709429492,-13.97163807594799,-96.69574542397744
-0.2287,-0.3001,0.8948,-0.1274,0.6238,0.3807,-3.5263,0.455,-9.9837,-18.539909034943314,-13.639635418128357,-96.84491136389079
-0.2272,-0.3012,0.8981,-0.1286,0.6252,0.3789,-4.0775,0.2975,-10.2987,-18.540148196067594,-13.495379360916205,-97.00452971554509
-0.2256,-0.3049,0.8989,-0.1286,0.6252,0.3789,-4.2788,-0.0613,-10.57,-18.736074814986917,-13.375960260524458,-97.07428576298966
-0.2217,-0.3115,0.8944,-0.1303,0.6245,0.3803,-3.8937,-0.3413,-10.675,-19.20100209690376,-13.18486253679672,-97.3199663613175
-0.2054,-0.3149,0.8948,-0.1295,0.6248,0.3814,-4.2525,-0.28,-10.2812,-19.38765714692558,-12.265983673944346,-97.50478120111418
-0.2127,-0.3182,0.896,-0.1295,0.6248,0.3814,-3.1763,-0.0263,-10.0625,-19.55128681009148,-12.59213360019004,-97.44066553904658
-0.2058,-0.3158,0.8946,-0.129,0.6243,0.3816,-2.5025,0.1488,-10.4912,-19.443640990381756,-12.257392362881154,-97.46949913339787
-0.2053,-0.3141,0.8894,-0.1274,0.6258,0.3836,-2.7388,0.6737,-10.6138,-19.451136228716862,-12.27807401751191,-97.29421099996767
-0.2179,-0.302,0.8964,-0.1274,0.6258,0.3836,-2.5463,1.2687,-10.5525,-18.620809869498586,-12.934861752060295,-96.96406099417564
-0.2216,-0.2956,0.8974,-0.131,0.622,0.3814,-2.1438,1.2163,-10.6925,-18.232600820223023,-13.185252780150414,-97.16406534710785
-0.2155,-0.3005,0.8979,-0.131,0.622,0.3814,-2.7213,0.7175,-10.9725,-18.50319275949193,-12.841007192294324,-97.31646205864911
-0.2097,-0.3004,0.8988,-0.1299,0.6251,0.3841,-2.8612,1.1987,-10.9725,-18.480887497126876,-12.496908259528576,-97.25206045109331
-0.2053,-0.3051,0.898,-0.129,0.624,0.382,-3.5438,1.1638,-11.2175,-18.764772850151015,-12.22937916373907,-97.34710064237993
-0.202,-0.3102,0.8955,-0.129,0.624,0.382,-3.745,1.82,-11.7775,-19.10520458069088,-12.043325945042254,-97.45341774384131
-0.2043,-0.3131,0.8902,-0.1299,0.6231,0.3813,-3.7275,2.5638,-11.865,-19.377078789130774,-12.205866611427581,-97.54341452101484
-0.2064,-0.3144,0.899,-0.1299,0.6231,0.3813,-2.4938,2.6688,-11.4888,-19.276090876530006,-12.226627271191624,-97.52223236873073
-0.2108,-0.3134,0.8957,-0.1285,0.625,0.3825,-3.08,3.3425,-10.745,-19.284611999136292,-12.506243214941685,-97.31251632306423
-0.2171,-0.312,0.8909,-0.1272,0.6231,0.3776,-1.6013,3.29,-11.7687,-19.300606903480553,-12.925148514687255,-97.21500368871061
-0.2261,-0.3096,0.892,-0.1272,0.6231,0.3776,-1.5925,2.8438,-10.885,-19.141508858308235,-13.434546443133366,-97.05795223974972
-0.2368,-0.3051,0.9001,-0.1278,0.6235,0.3798,-1.1725,3.0275,-10.7625,-18.725709552090166,-13.957542931694187,-96.83872550717248
-0.2308,-0.304,0.8975,-0.1278,0.6235,0.3798,-1.2687,2.4063,-10.3162,-18.712231695547697,-13.704252673383838,-96.9133774472847
-0.2301,-0.2979,0.8951,-0.13,0.6247,0.3776,-1.7937,1.5925,-9.8787,-18.408780996918548,-13.707330104798519,-97.0572722479857
-0.2231,-0.296,0.891,-0.1286,0.6222,0.3816,-2.6338,1.26,-9.8962,-18.377130154680803,-13.385316708737786,-96.95814596407841
-0.215,-0.2942,0.8977,-0.1286,0.6222,0.3816,-2.7562,0.7962,-9.59,-18.145887021120522,-12.851312951775125,-97.0581943847507
-0.2183,-0.295,0.8974,-0.129,0.6232,0.3798,-2.73,0.9275,-9.2225,-18.196991204043783,-13.003650770007315,-97.08045878502195
-0.2255,-0.2975,0.9007,-0.129,0.6232,0.3798,-3.2813,1.2425,-8.4087,-18.27812646329676,-13.352688458050162,-97.0012272421051
-0.2231,-0.2993,0.9012,-0.1284,0.6224,0.3783,-3.5875,1.5137,-8.7937,-18.371760997091457,-13.228537872139745,-97.0464839918155
-0.2247,-0.2913,0.8955,-0.1289,0.6232,0.3846,-3.71,0.9187,-9.8787,-18.020189917867082,-13.41043017612488,-96.83063482498453
-0.2289,-0.2908,0.8904,-0.1289,0.6232,0.3846,-3.1412,0.21,-9.6425,-18.08660981620844,-13.71591656786356,-96.75867739372485
-0.2297,-0.296,0.906,-0.1286,0.6234,0.3809,-3.7362,0.4638,-9.8875,-18.092760366822414,-13.558302222895396,-96.86231515675715
-0.2139,-0.3057,0.8987,-0.1286,0.6234,0.3809,-4.4975,0.0788,-10.045,-18.784494138939962,-12.742134992996572,-97.22038735169924
-0.2094,-0.3135,0.9034,-0.1314,0.6233,0.387,-4.3313,-0.07,-10.115,-19.13707506738715,-12.371381975734586,-97.47100015845324
-0.2037,-0.3207,0.9065,-0.1294,0.6218,0.3795,-4.6463,0.6475,-9.73,-19.48184822300929,-11.982417128848459,-97.62513471706575
-0.2053,-0.3183,0.9024,-0.1294,0.6218,0.3795,-3.745,1.19,-10.1062,-19.429199914299577,-12.102348738302746,-97.58018663877515
-0.2104,-0.3026,0.9023,-0.1298,0.6236,0.3806,-2.975,1.3562,-10.6487,-18.541773198056042,-12.446670114007219,-97.33225349461199
-0.218,-0.2951,0.8987,-0.1298,0.6236,0.3806,-1.7062,1.6887,-10.92,-18.179137660775744,-12.948696767900922,-97.13037208882749
-0.2184,-0.2897,0.8982,-0.13,0.6236,0.382,-2.2662,2.6075,-10.9287,-17.87699212675036,-13.024959778728125,-97.04568941711243
-0.2203,-0.2903,0.8932,-0.1305,0.6235,0.3798,-2.9313,2.135,-11.5237,-18.004438248729194,-13.190865024621917,-97.10758570925178
-0.2236,-0.2908,0.8926,-0.1305,0.6235,0.3798,-3.0975,2.6338,-11.0337,-18.04498598396456,-13.385181145794755,-97.06291173041416
-0.2227,-0.2994,0.8954,-0.1298,0.6219,0.381,-4.4625,2.5988,-10.465,-18.487624695386472,-13.278826705624304,-97.11122230765896
-0.2262,-0.3016,0.8876,-0.1298,0.6219,0.381,-4.4012,2.275,-10.0275,-18.766718802215003,-13.549451902604522,-97.09068314775303
-0.2227,-0.3059,0.8911,-0.1333,0.6233,0.3857,-4.2088,1.7237,-10.2112,-18.946076208471318,-13.313114947098823,-97.36265719860012
-0.2232,-0.3077,0.8899,-0.1325,0.625,0.3798,-4.69,1.6712,-9.6775,-19.073503809808244,-13.334276141928614,-97.4320426072392
-0.223,-0.3066,0.8881,-0.1325,0.625,0.3798,-4.305,1.435,-9.7388,-19.046346069618913,-13.351191142995642,-97.42248013166724
-0.218,-0.3106,0.8969,-0.1286,0.6257,0.381,-4.2088,1.2425,-9.2312,-19.101040324736516,-12.957665502217381,-97.21096902915625
-0.2183,-0.3134,0.8931,-0.1286,0.6257,0.381,-4.025,1.3125,-8.5312,-19.336051160222173,-12.986022653710956,-97.24352465023436
-0.2208,-0.3137,0.8963,-0.1298,0.6234,0.3791,-4.27,1.2075,-8.5925,-19.289871813413715,-13.08402886237804,-97.34820437346849
-0.2235,-0.3152,0.8992,-0.1298,0.6234,0.3842,-3.6138,0.9013,-8.645,-19.3172235914498,-13.194520915181226,-97.22298335135994
-0.2207,-0.314,0.8931,-0.1291,0.6238,0.3842,-3.08,1.3825,-9.1,-19.370749671704246,-13.126756831841956,-97.19776683771408
-0.2224,-0.3104,0.8918,-0.1284,0.6254,0.3804,-3.4825,1.4437,-8.575,-19.191395943842572,-13.246135305753945,-97.1477325590266
-0.2206,-0.3059,0.901,-0.1284,0.6254,0.3804,-3.6138,1.6887,-9.4937,-18.75399211964703,-13.06362489601349,-97.11139600644664
-0.2205,-0.3057,0.895,-0.1274,0.6253,0.3837,-3.71,1.6538,-9.9488,-18.858084161413657,-13.120403198232598,-96.97138787759086
-0.2244,-0.3061,0.8894,-0.1274,0.6253,0.3837,-3.3863,2.0738,-9.7388,-18.99133216627725,-13.40144087603283,-96.92282648318087
-0.2307,-0.3079,0.892,-0.1279,0.6235,0.3783,-3.9375,2.7475,-10.5,-19.043493444340317,-13.718259857158511,-97.00859131826336
-0.2363,-0.3123,0.8854,-0.1264,0.6233,0.3818,-4.0075,2.3625,-10.36,-19.42794580973669,-14.103682419467786,-96.80531794595129
-0.2479,-0.3145,0.8914,-0.1264,0.6233,0.3818,-3.8063,1.8637,-10.0275,-19.433632940826843,-14.662244194366847,-96.66573169279937
-0.2451,-0.316,0.894,-0.1275,0.6255,0.381,-3.1588,0.98,-10.08,-19.46677031145131,-14.502079322121396,-96.81945748277286
-0.2404,-0.3143,0.8954,-0.1275,0.6255,0.381,-2.7125,0.1312,-10.3863,-19.342201599252412,-14.23026362525766,-96.86024425547987
-0.2354,-0.312,0.8964,-0.1283,0.623,0.3759,-3.2025,-0.2275,-10.57,-19.19126655867952,-13.944097429365065,-97.07516046931217
-0.2322,-0.3068,0.9008,-0.1294,0.625,0.3817,-2.6425,-0.1663,-10.4038,-18.80904125279151,-13.724226244939803,-97.00589729573156
-0.2285,-0.3026,0.8981,-0.1294,0.625,0.3817,-2.7037,-0.3063,-9.3187,-18.620844146761982,-13.564144873672214,-97.00779587556617
-0.2256,-0.2991,0.899,-0.1284,0.6238,0.3776,-2.7913,-0.7088,-9.5288,-18.402957724478355,-13.401791190643017,-97.01725022516591
-0.2236,-0.299,0.9019,-0.1284,0.6238,0.3844,-2.1875,-0.595,-9.9837,-18.34165792357917,-13.250096450940072,-96.90640091573586
-0.2182,-0.2998,0.8994,-0.1289,0.6236,0.3844,-3.22,-0.3063,-9.7125,-18.434727006835846,-12.975674557705965,-97.03849970773625
-0.2143,-0.3021,0.8981,-0.1336,0.6232,0.381,-2.8,-0.1837,-10.5962,-18.591372084935525,-12.755400732466706,-97.55666918092665
-0.204,-0.3051,0.9011,-0.1336,0.6232,0.381,-3.4213,0.2013,-10.7712,-18.705118370543296,-12.136152710228764,-97.74259481627392
-0.2061,-0.303,0.8976,-0.131,0.625,0.3818,-3.3863,1.3125,-10.57,-18.653100998271366,-12.266086594742063,-97.46580302514208
-0.2081,-0.3041,0.8987,-0.13,0.6242,0.3776,-2.9575,2.0913,-10.6225,-18.694571818570243,-12.365373568818093,-97.45564836731084
-0.2118,-0.3052,0.8929,-0.13,0.6242,0.3776,-3.0625,1.6887,-10.5262,-18.870398787833054,-12.63486217701987,-97.41847827039525
-0.2208,-0.3078,0.8954,-0.1294,0.6234,0.3809,-2.9225,2.5288,-10.8937,-18.970527004297,-13.098211651667555,-97.20956735660987
-0.2261,-0.3054,0.8916,-0.1294,0.6234,0.3809,-1.9862,2.7037,-10.9025,-18.908033430169972,-13.467603253531383,-97.10479558547675
-0.2333,-0.3013,0.8931,-0.1292,0.6238,0.3783,-2.345,2.205,-10.5262,-18.643185160187745,-13.877591261623051,-96.98262112752616
-0.2367,-0.2971,0.8942,-0.1298,0.6239,0.3773,-2.7037,2.2488,-11.0513,-18.379812526382327,-14.088349525773006,-96.9426523483704
-0.2343,-0.2959,0.8916,-0.1298,0.6239,0.3773,-2.5113,1.5225,-11.4625,-18.35977738258337,-14.009004682506518,-96.96368977017096
-0.2245,-0.297,0.8938,-0.1301,0.6228,0.3818,-2.6163,1.295,-11.34,-18.381034367949525,-13.43946726969496,-97.05782790905094
-0.2253,-0.3002,0.8957,-0.1301,0.6228,0.3818,-2.9838,0.91,-10.9112,-18.52857824722542,-13.415584258653839,-97.08551754802535
-0.2236,-0.3022,0.8997,-0.1286,0.6248,0.377,-3.745,0.6913,-10.5262,-18.56658111610839,-13.26504594248294,-97.10923354720269
-0.2258,-0.3054,0.8977,-0.1307,0.6222,0.3786,-3.1238,0.6825,-10.885,-18.787917660355742,-13.387530615960445,-97.25686112134845
-0.2266,-0.3073,0.8979,-0.1307,0.6222,0.3786,-3.7888,0.6737,-9.7125,-18.892901998902513,-13.426908951279241,-97.26915215172511
-0.2197,-0.3072,0.8965,-0.1297,0.622,0.3809,-3.465,0.2362,-10.0012,-18.91478798982,-13.071553807150906,-97.24558652004141
-0.2197,-0.3051,0.8962,-0.1297,0.622,0.3809,-3.2987,0.105,-10.6575,-18.80076645339033,-13.065505131083826,-97.22008865596224
-0.2193,-0.3027,0.8998,-0.1292,0.6226,0.3845,-3.6663,0.2888,-10.1237,-18.5938495377292,-13.010162204330108,-97.08193927353345
-0.22,-0.3004,0.899,-0.13,0.6232,0.3832,-3.0275,0.2713,-10.1937,-18.477279865364324,-13.064146133386005,-97.12903707728242
-0.2206,-0.2999,0.9009,-0.13,0.6232,0.3832,-3.85,0.0,-9.5987,-18.412205685367162,-13.078789406187907,-97.11318641060026
-0.2141,-0.3026,0.897,-0.1303,0.622,0.3823,-3.745,-0.3413,-9.8787,-18.641107468444222,-12.760422361165004,-97.29086248996396
-0.2194,-0.3045,0.8935,-0.1303,0.622,0.3823,-3.43,-0.1138,-10.2287,-18.81841160930096,-13.06832791686531,-97.236691345054
-0.2171,-0.3068,0.8968,-0.1279,0.6235,0.3817,-2.87,0.1138,-9.9137,-18.885926592073588,-12.909583643766766,-97.11817918252274
-0.2193,-0.3052,0.8952,-0.1302,0.6225,0.381,-3.2638,1.1112,-9.59,-18.82589563596379,-13.046616841533353,-97.26228703508211
-0.2212,-0.308,0.8954,-0.1302,0.6225,0.381,-2.765,0.9275,-10.1937,-18.981838750805636,-13.143421927217952,-97.26890731316632
-0.2246,-0.3128,0.8896,-0.1327,0.6224,0.3817,-3.4125,0.6475,-10.0625,-19.37169846168638,-13.383729957391033,-97.4621584515817
-0.2231,-0.3136,0.8936,-0.1327,0.6224,0.3817,-3.605,1.2163,-9.3975,-19.33809365822303,-13.262855081097081,-97.4904540501238
-0.2194,-0.3119,0.8947,-0.1346,0.6238,0.3829,-3.36,0.735,-9.4937,-19.21927094213218,-13.049210734100813,-97.6375107384772
-0.2212,-0.3095,0.895,-0.1306,0.6214,0.3803,-2.4763,0.63,-9.5025,-19.07624037097634,-13.142233057915533,-97.33708579449807
-0.2203,-0.3062,0.8972,-0.1306,0.6214,0.3803,-1.925,0.7613,-10.3863,-18.844502323102194,-13.085426010955585,-97.30806745164358
-0.2242,-0.3039,0.8985,-0.1302,0.6196,0.382,-2.5463,1.12,-10.115,-18.687472711666654,-13.287588780990705,-97.16237365701079
-0.2244,-0.3052,0.8976,-0.1302,0.6196,0.382,-2.1963,1.0675,-10.5175,-18.77873172984851,-13.314841117009024,-97.17590064645732
-0.2226,-0.2969,0.8926,-0.1304,0.6212,0.3808,-1.365,1.3125,-11.6725,-18.3992533234185,-13.313460188393142,-97.13561336348421
-0.2219,-0.2921,0.8983,-0.1302,0.6217,0.3813,-2.1088,1.1112,-11.7163,-18.013874812190547,-13.22494008338228,-97.05725302716432
-0.2208,-0.2902,0.8996,-0.1302,0.6217,0.3813,-2.0038,0.9975,-12.0312,-17.879388373710164,-13.15202951208884,-97.05069293847727
-0.2165,-0.2981,0.903,-0.1312,0.6209,0.3816,-1.61,1.1025,-12.7137,-18.268260561128518,-12.843458445078817,-97.28698581809533
-0.2188,-0.3095,0.901,-0.1312,0.6209,0.3816,-2.7913,0.595,-12.5212,-18.956328076359014,-12.92998031283614,-97.38965306547614
-0.2114,-0.3176,0.9059,-0.1318,0.6221,0.3796,-3.2813,1.1812,-12.7137,-19.31932002309428,-12.446792717404593,-97.66694841031264
-0.2115,-0.3145,0.9064,-0.1304,0.6227,0.3818,-1.0325,1.5662,-12.8537,-19.136035220214424,-12.43269509917746,-97.47703613672707
-0.2147,-0.3073,0.9046,-0.1304,0.6227,0.3818,-0.5775,2.1263,-13.0113,-18.763924594556357,-12.652409603768168,-97.34886301088376
-0.2151,-0.2882,0.9015,-0.1325,0.6202,0.3806,-0.9363,1.9862,-13.2475,-17.730976036195752,-12.79563565035893,-97.31547089855133
-0.2161,-0.2844,0.9032,-0.1325,0.6202,0.3806,-0.6475,1.9775,-12.4862,-17.478791795222737,-12.852171598340497,-97.25428336601831
-0.2187,-0.2771,0.8998,-0.1301,0.6237,0.3761,-1.4787,1.8812,-12.18,-17.117456633972633,-13.064648741926858,-97.0123090261406
-0.2207,-0.2757,0.9001,-0.131,0.6218,0.3815,-2.345,1.5837,-11.9525,-17.029997788717477,-13.187210318120377,-96.93044281648152
-0.2211,-0.2746,0.9011,-0.131,0.6218,0.3815,-2.9838,1.9862,-11.7862,-16.948200049370712,-13.207610031840515,-96.91030879653799
-0.2253,-0.2838,0.8992,-0.1323,0.6221,0.3822,-3.535,1.4787,-11.69,-17.515067338302966,-13.425565841454619,-97.04142743997267
-0.2235,-0.2893,0.8944,-0.1323,0.6221,0.3822,-3.9025,0.805,-11.3225,-17.92319305728895,-13.377012748538526,-97.14004685709594
-0.2237,-0.294,0.8923,-0.1296,0.6222,0.3801,-4.48,0.1575,-10.5175,-18.235560555315825,-13.39240238773999,-97.0311434048346
-0.2219,-0.2988,0.8951,-0.1312,0.6225,0.3843,-5.18,-0.2975,-9.9925,-18.459373355435087,-13.240629839720778,-97.15455828085318
-0.2161,-0.303,0.9,-0.1312,0.6225,0.3843,-4.6112,-0.14,-9.73,-18.60631255929977,-12.84110642992899,-97.29217713005916
-0.2103,-0.3107,0.8968,-0.1314,0.6243,0.381,-4.8038,-0.14,-8.9775,-19.107651582211357,-12.511151618981849,-97.54214639685455
-0.2106,-0.3118,0.8982,-0.1314,0.6243,0.381,-4.865,-0.0438,-8.9775,-19.143781423663164,-12.490591430762134,-97.54986001324728
-0.2084,-0.3118,0.899,-0.1288,0.6208,0.3824,-4.9875,0.2888,-8.9337,-19.128108057944328,-12.360582974600902,-97.36798964782056
-0.2087,-0.3114,0.9016,-0.131,0.6218,0.3821,-4.27,0.5163,-8.2775,-19.05437097140448,-12.34252567966498,-97.52883743990415
-0.2128,-0.3087,0.8955,-0.131,0.6218,0.3821,-3.99,0.735,-7.8925,-19.020363177135177,-12.644980772109344,-97.44196938068653
-0.2257,-0.2974,0.8933,-0.1311,0.6206,0.3825,-3.4388,1.0675,-8.6363,-18.415223207548152,-13.43597891828172,-97.11566902926086
-0.2294,-0.2932,0.8975,-0.1311,0.6206,0.3825,-4.0338,1.1287,-9.52,-18.092222080554997,-13.64430528680395,-97.00286730517607
-0.2277,-0.2941,0.8972,-0.1306,0.6216,0.3826,-3.6575,0.4812,-9.8787,-18.148884029726112,-13.563185278230288,-96.99678377510308
-0.22,-0.3045,0.8949,-0.1317,0.6223,0.3826,-4.34,0.2362,-9.8875,-18.789929592624077,-13.125094303173624,-97.32740462689475
-0.215,-0.3127,0.8945,-0.1317,0.6223,0.3826,-4.585,-0.2625,-10.5612,-19.267502793197316,-12.80065404746746,-97.49981136801537
-0.2142,-0.3154,0.8921,-0.1315,0.6219,0.3814,-4.0775,0.0875,-10.6925,-19.47045165394862,-12.757703693830672,-97.55528057062679
-0.2089,-0.3151,0.8996,-0.1315,0.6219,0.3814,-3.7625,0.2013,-10.5262,-19.30405969150617,-12.381725085468933,-97.62098028514411
-0.2039,-0.314,0.8996,-0.1309,0.6233,0.382,-3.6225,0.2888,-11.0075,-19.241385080861324,-12.094399190801985,-97.61549098083708
-0.2073,-0.31,0.8965,-0.1326,0.6233,0.3812,-3.5963,0.4375,-10.4562,-19.0752281066448,-12.31533319032427,-97.67038264819737
-0.209,-0.3055,0.8975,-0.1326,0.6233,0.3812,-3.2113,0.5163,-10.29,-18.798718314332294,-12.425834425396609,-97.59395558899882
-0.2084,-0.3011,0.9003,-0.1332,0.623,0.3827,-2.4237,0.1488,-11.06,-18.492933822208926,-12.383794497715755,-97.56997738617764
-0.2112,-0.3007,0.9023,-0.1332,0.623,0.3827,-3.3688,0.8838,-11.165,-18.431285737475115,-12.512827268540326,-97.5224881464462
-0.2072,-0.3018,0.8992,-0.1322,0.6254,0.3835,-3.5788,1.05,-10.5175,-18.553093061086475,-12.332910720624492,-97.4929349444998
-0.2082,-0.3034,0.9016,-0.1322,0.6224,0.3869,-3.465,1.26,-10.8587,-18.598639939930393,-12.344595100609547,-97.44300311992723
-0.2064,-0.3057,0.895,-0.1322,0.6224,0.3869,-3.01,1.1638,-11.0337,-18.85771538087344,-12.312750781602354,-97.49861004409823
-0.2115,-0.3015,0.8984,-0.1332,0.6209,0.3826,-3.0888,1.3737,-10.7362,-18.55230604229666,-12.566781671586924,-97.53967421936888
-0.2126,-0.3024,0.8941,-0.1332,0.6209,0.3826,-3.1238,1.5837,-10.0975,-18.68610248605759,-12.686842812558679,-97.53518452912911
-0.2114,-0.3065,0.8965,-0.1326,0.6222,0.3863,-3.6312,0.77,-10.6312,-18.874345209218983,-12.583875175093514,-97.47541869840934
-0.2095,-0.3087,0.8931,-0.1314,0.6224,0.3825,-3.7362,1.1638,-10.0887,-19.067247490833534,-12.505084577512713,-97.51183858124118
-0.2075,-0.3109,0.8976,-0.1314,0.6224,0.3825,-2.9225,1.0937,-9.3537,-19.104364809568157,-12.331932822836583,-97.56341034952919
-0.2039,-0.3102,0.8955,-0.1311,0.6235,0.3828,-3.08,0.7613,-9.7737,-19.10601303775083,-12.152162438437479,-97.57502210261914
-0.2012,-0.3074,0.8993,-0.1311,0.6235,0.3828,-2.8438,1.6275,-10.36,-18.87208388959446,-11.96419013944457,-97.58133014181057
-0.1997,-0.3046,0.8969,-0.1317,0.6229,0.3842,-2.0738,1.5662,-10.3512,-18.75848807860241,-11.908515468010329,-97.59670428541497
-0.2062,-0.2987,0.8944,-0.1307,0.6215,0.384,-2.415,1.7587,-10.1675,-18.468303790697835,-12.311192868108746,-97.36628439043733
-0.2097,-0.2931,0.8963,-0.1307,0.6215,0.384,-2.3712,1.89,-10.5175,-18.109170673517884,-12.524441432642115,-97.24663610609166
-0.2101,-0.2885,0.8956,-0.133,0.6222,0.3832,-2.8788,2.695,-10.6312,-17.855931638900426,-12.583522070998393,-97.37719781806457
-0.2072,-0.2891,0.8949,-0.133,0.6222,0.3832,-2.9225,2.3275,-10.7887,-17.903086528862882,-12.434147952124281,-97.43052507119525
-0.2101,-0.2944,0.8946,-0.1319,0.621,0.3835,-2.9925,2.31,-10.7187,-18.21488949102531,-12.567743859908823,-97.36071758267467
-0.2054,-0.2962,0.8993,-0.131,0.6219,0.381,-3.815,2.5725,-10.9375,-18.230155621456195,-12.258938462228652,-97.42787224253473
-0.2097,-0.3021,0.8949,-0.131,0.6219,0.381,-3.3338,2.695,-11.235,-18.65262677307103,-12.50251518470945,-97.43194792925343
-0.2147,-0.3096,0.8947,-0.1329,0.6233,0.3828,-3.4475,3.0538,-9.975,-19.08651847896289,-12.76071240183588,-97.55148223574989
-0.2159,-0.3118,0.8954,-0.1329,0.6233,0.3828,-4.1388,2.7475,-9.3887,-19.19908794767321,-12.824132346462978,-97.55991702103607
-0.2206,-0.3101,0.8962,-0.1308,0.6241,0.3806,-3.6225,2.3538,-10.6662,-19.086733141522163,-13.079601242933384,-97.35129428567045
-0.2279,-0.3088,0.8975,-0.1317,0.6218,0.3794,-2.73,2.2313,-10.7625,-18.986879748261252,-13.477731994306406,-97.33152397778363
-0.2249,-0.3085,0.8948,-0.1317,0.6218,0.3794,-2.1613,2.0475,-10.3425,-19.022561126497365,-13.372755435527171,-97.37285487249578
-0.2153,-0.3076,0.8998,-0.1327,0.6225,0.3829,-2.1788,1.8288,-11.2875,-18.873539638888438,-12.791653604502383,-97.50215261750891
-0.2156,-0.304,0.9006,-0.1327,0.6225,0.3829,-2.7475,2.1963,-10.2287,-18.652777184471823,-12.780397850050537,-97.45501042071663
-0.2161,-0.3021,0.9049,-0.1326,0.6232,0.3817,-2.9663,2.415,-10.2112,-18.46199238426368,-12.764282729230821,-97.43664045579409
-0.2236,-0.3008,0.8954,-0.1297,0.6214,0.3807,-2.1525,2.5025,-10.6925,-18.568966265587804,-13.285826876807775,-97.11576407116338
-0.2248,-0.303,0.9002,-0.1297,0.6214,0.3807,-2.5025,2.1788,-10.5612,-18.6027341797755,-13.313777583798682,-97.12277415605865
-0.2245,-0.301,0.9015,-0.1295,0.6226,0.381,-2.66,2.1263,-11.5675,-18.46387479450978,-13.291604381954087,-97.07591593590237
-0.2266,-0.2995,0.8965,-0.1295,0.6226,0.381,-1.4962,2.6163,-11.865,-18.47326428844713,-13.470371498724008,-97.0276497406841
-0.2273,-0.295,0.9018,-0.1317,0.6213,0.3908,-2.0563,2.3363,-11.7163,-18.114990115998015,-13.471782901188007,-96.93052980308491
-0.2248,-0.2916,0.8997,-0.1288,0.6218,0.3838,-1.7237,2.0038,-11.55,-17.958298194750483,-13.376157524828605,-96.84542008118183
-0.2249,-0.2943,0.8998,-0.1288,0.6218,0.3838,-2.3625,1.6712,-11.69,-18.11114325854757,-13.364200477387053,-96.87779198736627
-0.2187,-0.2998,0.8996,-0.1302,0.621,0.3813,-2.6513,1.4262,-11.4187,-18.430367527983613,-13.008015849249775,-97.20298079831304
-0.2172,-0.2959,0.8929,-0.1302,0.621,0.3813,-2.5638,1.505,-11.3575,-18.335015116289824,-13.00225651998574,-97.18094543451535
-0.22,-0.2927,0.8979,-0.1306,0.6229,0.3822,-2.8788,1.7325,-11.6988,-18.055745204334993,-13.107102739302158,-97.10257696494513
-0.2236,-0.2938,0.8967,-0.1305,0.6203,0.3804,-3.0188,1.6362,-10.7712,-18.140963268198433,-13.31876293958711,-97.09920269370008
-0.2211,-0.2976,0.8954,-0.1305,0.6203,0.3804,-2.7125,1.2075,-10.9725,-18.384443296447184,-13.19495806578868,-97.1853918999386
-0.2194,-0.309,0.9079,-0.1322,0.6218,0.3808,-3.2025,0.8925,-10.5525,-18.7948158977743,-12.902189982981687,-97.46069079929173
-0.2143,-0.3096,0.9091,-0.1322,0.6218,0.3808,-3.1937,1.19,-10.78,-18.806586294025546,-12.59645847851881,-97.54143593513966
-0.2108,-0.3056,0.9019,-0.1302,0.6218,0.383,-1.89,1.2337,-11.655,-18.718656598028655,-12.488236640959927,-97.35274785679886
-0.2123,-0.2985,0.896,-0.1312,0.6207,0.3826,-2.2225,1.61,-11.3925,-18.426052084944818,-12.659251233398926,-97.33920451255474
-0.2128,-0.2877,0.9037,-0.1312,0.6207,0.3826,-1.7675,2.1175,-11.3662,-17.661099903408573,-12.647291284468436,-97.20358618890504
-0.2175,-0.2825,0.9041,-0.1305,0.6215,0.3809,-2.3538,1.6013,-11.1562,-17.352953304868826,-12.916508919882649,-97.04180598587234
-0.2216,-0.284,0.8975,-0.1305,0.6215,0.3809,-2.94,2.1438,-11.3662,-17.558680253120176,-13.227727721090785,-96.99320960629318
-0.2197,-0.2863,0.8968,-0.1316,0.6216,0.3846,-4.795,2.4675,-11.3312,-17.70513538615809,-13.141726357064739,-97.06225500478459
-0.2179,-0.2914,0.8962,-0.1298,0.624,0.3812,-4.8038,1.8725,-10.6225,-18.011235224038703,-13.02609357384268,-97.07360788121514
-0.2196,-0.2969,0.8958,-0.1298,0.624,0.3812,-4.48,1.7587,-10.1062,-18.33625669714062,-13.095321834471097,-97.11518182454843
-0.2216,-0.2999,0.8991,-0.1309,0.6221,0.3808,-4.7163,1.9687,-9.52,-18.44615581850639,-13.15603819409546,-97.22078326616322
-0.2175,-0.3031,0.9004,-0.1309,0.6221,0.3808,-4.1213,1.8987,-9.8525,-18.604304784380425,-12.909478520026317,-97.3204965966461
-0.2164,-0.303,0.8948,-0.1304,0.6228,0.3772,-4.6025,1.3475,-8.995,-18.707044963947066,-12.902293718629549,-97.36901792780051
-0.2167,-0.304,0.8974,-0.1319,0.6236,0.3813,-4.3838,1.4175,-7.875,-18.714122802200176,-12.883564026961418,-97.40569409425837
-0.2194,-0.3044,0.899,-0.1319,0.6236,0.3813,-3.99,0.9887,-8.3387,-18.706039622926966,-13.00868999721352,-97.36991243940633
-0.2206,-0.3027,0.9013,-0.1311,0.623,0.3806,-4.2962,1.3037,-8.0412,-18.564871266410556,-13.059805702061933,-97.28527513292092
-0.2214,-0.3047,0.9001,-0.1311,0.623,0.3806,-4.69,1.7587,-7.9275,-18.701555392391644,-13.112033770527564,-97.29832287078902
-0.2233,-0.3065,0.9011,-0.1322,0.6226,0.3746,-4.5325,2.0913,-7.385,-18.785014821682218,-13.198103810723483,-97.50088516754198
-0.2272,-0.3065,0.8987,-0.1298,0.6216,0.3779,-3.8413,1.8725,-7.4463,-18.83173770423945,-13.442089346812752,-97.19734886040753
-0.2275,-0.302,0.8947,-0.1298,0.6216,0.3779,-3.7888,2.275,-7.5338,-18.65219497792043,-13.539674963917872,-97.13797401378068
-0.2317,-0.2994,0.9004,-0.1296,0.6217,0.3813,-3.9025,1.5837,-8.33,-18.39355775421452,-13.71215934818136,-96.95224561312253
-0.2334,-0.3009,0.8923,-0.1296,0.6217,0.3813,-5.1887,2.0125,-8.9775,-18.634477261746554,-13.90891618761904,-96.94996309118436
-0.2331,-0.3057,0.8937,-0.129,0.6234,0.3819,-4.8475,1.54,-8.6887,-18.883226635898644,-13.865394848961014,-96.95303722716402
-0.2331,-0.3106,0.892,-0.1301,0.6219,0.3811,-4.0687,1.575,-8.4962,-19.19768710382231,-13.86311731658346,-97.12464492678532
-0.237,-0.3134,0.8929,-0.1301,0.6219,0.3811,-4.095,1.5487,-9.275,-19.340281417465867,-14.049575071673042,-97.10535764090943
-0.2364,-0.3157,0.8962,-0.1303,0.6228,0.3798,-4.2,0.77,-10.0275,-19.40542734639808,-13.975377053496588,-97.18154159578185
-0.2246,-0.3153,0.9024,-0.1303,0.6228,0.3798,-3.9638,0.0263,-10.2025,-19.25984375975158,-13.260675721443391,-97.33600211479796
-0.2223,-0.3122,0.896,-0.1301,0.6231,0.3822,-3.3688,0.0,-10.7625,-19.210370645137893,-13.189656246395645,-97.27023446107809
-0.2234,-0.3053,0.8996,-0.1301,0.6218,0.3804,-2.9488,-0.2362,-10.4737,-18.746931791432978,-13.231028609307366,-97.20803647825052
-0.2266,-0.3036,0.8982,-0.131,0.6218,0.3804,-2.3975,0.2013,-10.1937,-18.675903106339973,-13.430710174280645,-97.20969633072042
-0.2164,-0.3042,0.901,-0.1334,0.6225,0.3815,-3.4563,0.5163,-10.255,-18.6560084184209,-12.851552372562496,-97.52684124022376
-0.2156,-0.3054,0.9006,-0.1334,0.6225,0.3815,-2.695,0.5163,-10.9025,-18.73199000662896,-12.777923549861427,-97.55332050296337
-0.2169,-0.3036,0.9015,-0.1306,0.6225,0.3875,-2.6688,0.5425,-11.2175,-18.612371619003063,-12.841272413582487,-97.17734059653742
-0.2122,-0.303,0.9036,-0.1318,0.6221,0.3801,-2.5725,0.7875,-11.7775,-18.53778636818332,-12.567605696384923,-97.48001179570853
-0.2106,-0.2987,0.8951,-0.1318,0.6221,0.3801,-1.9862,1.085,-12.5475,-18.45434810013832,-12.580481751068715,-97.45743368062803
-0.2107,-0.2947,0.899,-0.1318,0.624,0.382,-1.7587,1.6187,-12.6962,-18.150314754702922,-12.556855137182572,-97.36267233704183
-0.2147,-0.294,0.9025,-0.1318,0.624,0.382,-2.6863,1.3737,-12.2412,-18.043882752649488,-12.735285769393462,-97.29203742222867
-0.2169,-0.2905,0.8983,-0.1309,0.6214,0.3778,-2.345,1.9425,-12.1712,-17.920909671743747,-12.927278530206383,-97.24165888999703
-0.2205,-0.2913,0.9032,-0.1298,0.6229,0.3827,-2.3363,1.05,-12.6087,-17.875653279988782,-13.072209088825579,-97.00494019457399
-0.2184,-0.292,0.9019,-0.1298,0.6229,0.3827,-2.8175,0.4725,-12.1275,-17.939775372910937,-12.978659076796506,-97.0463326980138
-0.216,-0.2937,0.896,-0.1298,0.6221,0.3822,-2.4938,0.6125,-11.7687,-18.148139895647756,-12.906583578958914,-97.11849482459566
-0.215,-0.2934,0.8969,-0.1298,0.6221,0.3822,-3.4475,1.0675,-11.515,-18.114386730108983,-12.838673988488898,-97.13028777610637
-0.2071,-0.2924,0.8971,-0.1302,0.6234,0.3842,-4.0513,0.49,-10.9025,-18.052962885276763,-12.403391859377933,-97.22837590815125
-0.2069,-0.2926,0.8952,-0.1301,0.6234,0.382,-3.9725,0.035,-10.5437,-18.100092081033413,-12.390840194192435,-97.26883721821446
-0.202,-0.2912,0.8955,-0.1301,0.6234,0.382,-4.1125,0.1488,-9.9488,-18.01377105800651,-12.121804749674617,-97.32913604791625
-0.2046,-0.2968,0.8976,-0.131,0.6213,0.3815,-4.3575,0.6125,-9.4325,-18.296285698350005,-12.206772496923936,-97.4403740901071
-0.2072,-0.3013,0.8965,-0.131,0.6213,0.3815,-4.0687,1.1812,-9.6337,-18.57604475222569,-12.348990623175423,-97.4523969501862
-0.2098,-0.3087,0.8929,-0.1303,0.6235,0.3828,-4.8038,1.12,-9.7037,-19.070487349779548,-12.51117056498257,-97.4124565428067
-0.2111,-0.3152,0.8927,-0.1294,0.6231,0.3861,-4.725,1.0325,-9.2575,-19.446520979138786,-12.567136774316062,-97.33771897968096
-0.2126,-0.3177,0.8981,-0.1294,0.6231,0.3861,-4.2438,0.9363,-8.6012,-19.480987887068757,-12.579835229926218,-97.3413756807748
-0.2125,-0.314,0.8955,-0.1294,0.6223,0.3816,-3.7013,1.2163,-8.9512,-19.32319085822081,-12.619765566558188,-97.39283939379494
-0.2154,-0.3095,0.8935,-0.1294,0.6223,0.3816,-3.0975,0.6737,-9.1262,-19.10612177486344,-12.821571668603802,-97.29953760412694
-0.2148,-0.3085,0.8966,-0.1321,0.6218,0.3824,-2.835,0.7613,-8.995,-18.98747652603148,-12.767194684616207,-97.48840222272901
-0.213,-0.3095,0.8933,-0.1321,0.6218,0.3863,-3.0363,1.0412,-8.575,-19.109281726200617,-12.700622364832725,-97.45144861248507
-0.2078,-0.3063,0.8983,-0.131,0.624,0.3863,-3.3775,0.8575,-8.295,-18.82888489118804,-12.368457143087205,-97.39540139509968
-0.2124,-0.3046,0.9037,-0.132,0.6223,0.3814,-3.4738,0.8487,-8.5575,-18.627320353360602,-12.546189143397019,-97.48473465120654
-0.2167,-0.3026,0.8941,-0.132,0.6223,0.3814,-2.905,1.1812,-8.715,-18.697753599358553,-12.90898816223704,-97.40154902199937
-0.2139,-0.3024,0.8976,-0.1321,0.6217,0.3828,-3.3688,0.945,-9.5812,-18.618776809056445,-12.735416790506283,-97.42179820012268
-0.2165,-0.3026,0.9024,-0.1321,0.6217,0.3828,-3.3163,1.19,-9.5637,-18.537938024766085,-12.810602415514984,-97.38324828715297
-0.2128,-0.3005,0.9054,-0.1318,0.6209,0.3835,-3.5263,1.2425,-9.9137,-18.361297988321773,-12.587756565027554,-97.3802628939625
-0.2095,-0.3006,0.8965,-0.1313,0.6232,0.3821,-2.9488,1.295,-10.64,-18.536090079306195,-12.497963623491504,-97.4129634039437
-0.2129,-0.2967,0.8994,-0.1313,0.6232,0.3821,-3.01,1.8812,-10.9287,-18.25769320029704,-12.659744653891657,-97.31502890970124
-0.216,-0.2924,0.9016,-0.1288,0.6222,0.3806,-2.8788,1.6712,-10.9637,-17.969205117657342,-12.82799569874042,-97.05597213657025
-0.2171,-0.2912,0.904,-0.1288,0.6222,0.3806,-4.3137,1.715,-11.3225,-17.855262317608222,-12.873245103700349,-97.02388885369672
-0.2145,-0.2897,0.8968,-0.1315,0.6237,0.385,-4.4187,1.6013,-11.3837,-17.902288056143455,-12.825059732831125,-97.16318436354759
-0.2175,-0.2934,0.8946,-0.1317,0.6223,0.3824,-3.57,1.7587,-11.4712,-18.15721699362468,-12.997984018001915,-97.23403937085511
-0.2104,-0.2901,0.8965,-0.1317,0.6223,0.3824,-4.7337,1.4088,-10.1937,-17.931692214800794,-12.609537835808165,-97.30567787019683
-0.2137,-0.2938,0.8959,-0.1307,0.6212,0.3823,-4.7075,1.3825,-9.9663,-18.155767141097858,-12.76181968547138,-97.22699427283679
-0.2178,-0.3005,0.8969,-0.1307,0.6212,0.3823,-5.5825,1.6975,-9.415,-18.522182503204057,-12.955374063141734,-97.24419522655529
-0.2234,-0.3078,0.8946,-0.1324,0.6223,0.3833,-5.4425,2.1175,-8.9862,-18.985405800395533,-13.267383339038197,-97.35783964071868
-0.2267,-0.3181,0.8989,-0.1311,0.6227,0.3807,-5.2063,1.54,-9.0475,-19.48649829135012,-13.367912280068051,-97.38780745623673
-0.2272,-0.3334,0.8937,-0.1311,0.6227,0.3807,-4.1912,0.6913,-9.4062,-20.456007694015753,-13.396038512982393,-97.57751422135935
-0.2183,-0.3274,0.8921,-0.132,0.6231,0.3811,-3.3775,-0.035,-9.695,-20.153817682142,-12.960781145879404,-97.68195571202163
-0.2131,-0.3217,0.8992,-0.132,0.6231,0.3811,-3.0013,0.1488,-9.9225,-19.68641577121852,-12.598288930683626,-97.67771299537736
-0.2082,-0.3154,0.898,-0.1316,0.6213,0.3803,-2.5725,0.2625,-9.7037,-19.3533397817664,-12.352308517624977,-97.66720401658121
-0.2067,-0.3111,0.9018,-0.1334,0.6226,0.382,-2.135,0.0263,-10.2637,-19.03400116105315,-12.232123630230758,-97.73779281376241
-0.2095,-0.299,0.8993,-0.1334,0.6226,0.382,-2.2838,1.505,-9.73,-18.39250214136481,-12.452594736765368,-97.56065355764491
-0.2124,-0.2966,0.9003,-0.1328,0.6226,0.3823,-2.6863,1.1025,-9.1175,-18.234622966575753,-12.620400872338152,-97.43594877199436
-0.2142,-0.2978,0.8967,-0.1328,0.6226,0.3823,-3.0013,1.9687,-8.7762,-18.371342578714568,-12.764519170982132,-97.42328574951308
-0.2183,-0.301,0.8907,-0.1321,0.6232,0.3798,-2.6775,1.8025,-9.31,-18.67127169593222,-13.054676270599519,-97.39620065193024
-0.2203,-0.3019,0.8956,-0.1304,0.6222,0.381,-2.2313,1.8725,-9.7212,-18.628674483468004,-13.117268234560754,-97.22362689945814
-0.218,-0.302,0.8926,-0.1304,0.6222,0.381,-2.5288,1.7762,-9.3275,-18.69245136600563,-13.031147650688895,-97.26043961993398
-0.2183,-0.3009,0.8946,-0.1309,0.6218,0.3812,-2.6513,1.6887,-9.3975,-18.59068227602653,-13.02324907092393,-97.27771505345673
-0.2222,-0.3018,0.8977,-0.1309,0.6218,0.3812,-2.3625,1.715,-9.135,-18.582278081340593,-13.193769742525769,-97.22893789083346
-0.2193,-0.3029,0.8994,-0.1314,0.6222,0.3814,-3.0275,1.7237,-9.0738,-18.612428243344436,-13.021457488931075,-97.31789683793882
-0.2181,-0.3027,0.8993,-0.1317,0.6199,0.3807,-3.115,1.4,-9.2225,-18.603004807987297,-12.948821407009552,-97.38003626554934
-0.2165,-0.3017,0.8952,-0.1317,0.6199,0.3807,-2.8525,1.1638,-9.2137,-18.624776181712807,-12.910322102712774,-97.39377895400794
-0.2183,-0.2978,0.8991,-0.1314,0.6218,0.3826,-2.7562,1.3912,-9.1262,-18.326618703311254,-12.975377013573853,-97.24901617144289
-0.2145,-0.2974,0.8951,-0.1314,0.6218,0.3826,-2.8612,1.8637,-9.0562,-18.37911666158934,-12.821105566303256,-97.30350936800879
-0.214,-0.2965,0.8924,-0.13,0.6224,0.3806,-2.8438,2.1088,-10.1325,-18.379073179777773,-12.820535283414486,-97.23039404631909
-0.218,-0.2915,0.8905,-0.1314,0.6215,0.381,-3.1937,2.0563,-9.6337,-18.126161227755322,-13.081695428411134,-97.21209547934261
-0.2144,-0.2924,0.8957,-0.1314,0.6215,0.381,-3.5088,2.0475,-9.94,-18.079310168003907,-12.834083849823614,-97.2781088466998
-0.2147,-0.3019,0.8952,-0.1307,0.6197,0.3819,-3.8238,2.7037,-9.6775,-18.63499597984461,-12.805320451769933,-97.32256153948519
-0.218,-0.3066,0.8932,-0.1307,0.6197,0.3819,-3.8675,2.5813,-9.6862,-18.94456665133003,-12.98747254119598,-97.33093525466656
-0.2164,-0.3085,0.8947,-0.1314,0.6206,0.3814,-3.64,2.5988,-9.9488,-19.024428714484895,-12.885974724926259,-97.43705869386665
-0.2158,-0.3091,0.8929,-0.1314,0.6206,0.3822,-3.1325,2.415,-9.905,-19.094427160905266,-12.86616428275147,-97.43818102864097
-0.2099,-0.3071,0.896,-0.1293,0.6206,0.3822,-2.905,2.9925,-9.6775,-18.919339210517702,-12.51740011148229,-97.3370945978955
-0.2096,-0.3088,0.8953,-0.1277,0.6216,0.3794,-2.4763,2.9925,-9.8437,-19.02968235794197,-12.48163607499859,-97.2883306039964
-0.212,-0.3048,0.8954,-0.1277,0.6216,0.3794,-2.0825,3.0275,-9.59,-18.79945631849833,-12.624167130443933,-97.20670162397133
-0.2194,-0.3026,0.9013,-0.13,0.6201,0.3786,-1.7762,3.2987,-9.3362,-18.559391291789925,-12.972008950638871,-97.26838958328064
-0.228,-0.301,0.8977,-0.13,0.6201,0.3786,-2.3888,4.025,-9.9137,-18.536425351702384,-13.50333357200934,-97.12239551722972
-0.2375,-0.2973,0.9016,-0.1282,0.6214,0.3786,-1.4787,3.7713,-9.8875,-18.250501342322305,-14.01152159296129,-96.78637700828651
-0.2428,-0.2952,0.9015,-0.1316,0.6199,0.3813,-1.7413,3.6225,-10.7625,-18.13153620552021,-14.335539206262759,-96.88559031084854
-0.2462,-0.2946,0.9017,-0.1316,0.6199,0.3813,-2.5288,2.8788,-11.0513,-18.093145221931845,-14.536790987771983,-96.8245554676116
-0.2505,-0.2955,0.901,-0.129,0.6199,0.381,-2.9925,2.5813,-11.0425,-18.15772900527704,-14.783048021523385,-96.57664780191722
-0.2432,-0.2941,0.9009,-0.129,0.6199,0.381,-2.2838,1.8637,-11.6375,-18.079526205060567,-14.41469925066331,-96.66995348014302
-0.2403,-0.294,0.9034,-0.1285,0.6204,0.3803,-2.765,1.2337,-11.7425,-18.026942415794,-14.206447680168548,-96.68801309121656
-0.2354,-0.2954,0.8997,-0.1283,0.621,0.3803,-2.66,0.8925,-12.04,-18.176290532477704,-13.973066648551656,-96.76615510998121
-0.2303,-0.299,0.9012,-0.1283,0.621,0.3803,-2.7475,0.6737,-11.4275,-18.354380270045898,-13.65143102887028,-96.89033414381696
-0.2278,-0.2991,0.9015,-0.1302,0.6163,0.3799,-2.66,0.8575,-11.3137,-18.35482985527152,-13.495468086153355,-97.10132485414609
-0.2323,-0.3003,0.9013,-0.1302,0.6163,0.3799,-3.1675,0.455,-11.1037,-18.42714772880656,-13.7278365371907,-97.04817513333596
-0.2308,-0.2971,0.8996,-0.1298,0.62,0.3834,-2.1175,0.6825,-11.375,-18.27657190172033,-13.693405841972748,-96.91351843837263
-0.2345,-0.291,0.9002,-0.1311,0.6213,0.381,-1.3125,0.9363,-12.3375,-17.91488094416176,-13.90913708408511,-96.9226766049192
-0.2257,-0.2854,0.9018,-0.1311,0.6213,0.381,-1.6187,0.9887,-11.9875,-17.562278872236746,-13.446593660604972,-96.99007381733709
-0.2222,-0.281,0.9035,-0.1297,0.6207,0.3857,-1.8812,0.6737,-11.9962,-17.277036427279512,-13.227794080645106,-96.79016468765701
-0.2195,-0.2768,0.8997,-0.1297,0.6207,0.3857,-2.3538,0.5513,-12.6962,-17.101356780688008,-13.131205772873061,-96.78222898759878
-0.2189,-0.2758,0.9023,-0.129,0.6202,0.379,-3.4563,0.28,-12.4862,-16.996719060139476,-13.065439701967838,-96.86301466288766
-0.2195,-0.2788,0.9016,-0.1304,0.6208,0.3808,-3.9113,0.6825,-11.2875,-17.182631307615186,-13.092125314096098,-96.96033883043194
-0.2217,-0.2858,0.9024,-0.1304,0.6208,0.3808,-4.7688,0.805,-11.585,-17.572634033738915,-13.177048126688275,-97.01097414707274
-0.218,-0.2922,0.9015,-0.131,0.6215,0.3781,-4.48,0.7175,-11.48,-17.9579599901044,-12.96646877027462,-97.24569050699456
-0.2212,-0.2956,0.9015,-0.131,0.6215,0.3781,-4.9263,0.8312,-10.5262,-18.153742584423878,-13.115973855520418,-97.23827074323107
-0.2189,-0.2979,0.8932,-0.131,0.6198,0.383,-5.11,0.7263,-11.0425,-18.44387566310529,-13.089365698812552,-97.21148376589701
-0.2176,-0.2951,0.9005,-0.131,0.6221,0.3813,-4.2875,0.7437,-11.48,-18.14503737343499,-12.940761797856801,-97.22059174577454
-0.2169,-0.2977,0.8989,-0.131,0.6221,0.3813,-4.2788,0.735,-10.6837,-18.32354344198072,-12.903651879125526,-97.26303197412915
-0.2158,-0.2971,0.8974,-0.1302,0.6201,0.383,-4.9437,0.8487,-9.9575,-18.318043719634787,-12.861843952289117,-97.1853052938797
-0.2211,-0.2992,0.8954,-0.1302,0.6201,0.3796,-4.5413,1.1638,-10.255,-18.47679165560187,-13.163909823379852,-97.1991171390068
-0.2198,-0.3008,0.8959,-0.1302,0.6202,0.3796,-5.39,1.015,-9.0037,-18.559369351879813,-13.096889591647521,-97.23779054664136
-0.2199,-0.3062,0.8946,-0.1298,0.621,0.3805,-4.655,1.1462,-8.8112,-18.894037810923106,-13.092395878991493,-97.25107347292577
-0.2224,-0.3096,0.8949,-0.1298,0.621,0.3805,-3.8675,0.6737,-9.1,-19.08314449687089,-13.210493340084977,-97.25645650062316
-0.2199,-0.3081,0.8965,-0.1295,0.6218,0.3782,-3.115,0.42,-9.1,-18.966577323345295,-13.067737023589789,-97.29351837016907
-0.2194,-0.304,0.8985,-0.1295,0.6218,0.3782,-3.4738,0.6388,-9.1175,-18.69347236685173,-13.026013666638132,-97.24962267422039
-0.2186,-0.3006,0.8979,-0.129,0.6225,0.3841,-3.5,0.8925,-8.5137,-18.51001262460612,-13.00111574493572,-97.06071302596024
-0.2208,-0.2999,0.9023,-0.1309,0.6206,0.3813,-3.4913,1.0062,-8.4,-18.385701261887604,-13.069505531738734,-97.2273253193285
-0.227,-0.3033,0.8976,-0.1309,0.6206,0.3813,-4.0425,1.225,-8.6012,-18.669488289572882,-13.451635677750376,-97.17823589971407
-0.2345,-0.3044,0.8931,-0.1303,0.6222,0.3813,-4.41,1.5662,-9.1437,-18.82056077637336,-13.929133839584079,-97.03204091518887
-0.2362,-0.3009,0.8955,-0.1303,0.6222,0.3813,-3.8413,1.1025,-9.695,-18.573627803910828,-14.031830024529194,-96.9586541627523
-0.2372,-0.2986,0.8964,-0.1301,0.6218,0.3779,-3.4738,0.595,-10.4038,-18.42380018393263,-14.089752601442699,-96.97091407035994
-0.2354,-0.2904,0.8982,-0.1298,0.6213,0.3812,-3.8937,0.42,-11.0513,-17.917917308411493,-14.00679497304402,-96.7962622419922
-0.2345,-0.2868,0.8998,-0.1298,0.6213,0.3812,-4.1213,-0.2713,-11.4362,-17.679599904992422,-13.947919460095942,-96.76228868437553
-0.2325,-0.2963,0.8976,-0.1324,0.6221,0.3826,-6.5363,-0.4462,-12.2237,-18.26677503294013,-13.82507210612972,-97.08758538994965
-0.2317,-0.3007,0.8955,-0.1324,0.6221,0.3826,-4.7425,-0.7613,-12.9587,-18.560836050396134,-13.783518682839066,-97.15824641164406
-0.2205,-0.3041,0.8951,-0.131,0.6235,0.3844,-4.515,-1.2687,-12.6612,-18.764119792514407,-13.160485908757751,-97.22033412071595
-0.2135,-0.3062,0.8942,-0.1301,0.6218,0.3814,-4.27,-0.8138,-13.0375,-18.902360077698308,-12.749611645127725,-97.34711498398909
-0.206,-0.3079,0.9029,-0.1301,0.6218,0.3814,-4.7775,-0.5688,-12.4337,-18.83017994678547,-12.213271119969315,-97.47196519026322
-0.2022,-0.3146,0.8948,-0.1326,0.6232,0.3797,-4.865,-0.4375,-12.0925,-19.369717678452307,-12.043048887752644,-97.82425546196274
-0.1986,-0.3245,0.8975,-0.1326,0.6232,0.3814,-4.6375,-0.2538,-11.7862,-19.87674542616923,-11.769701232515946,-97.94676239954903
-0.2044,-0.3268,0.8968,-0.1347,0.6232,0.3814,-4.0862,0.1225,-11.1825,-20.021736956377296,-12.070939734435406,-98.05576109679095
-0.2079,-0.3179,0.9015,-0.1331,0.6228,0.3837,-3.43,0.1138,-10.5175,-19.42582928097909,-12.259989807338899,-97.74028899050568
-0.2106,-0.3104,0.8981,-0.1331,0.6228,0.3837,-2.03,0.5338,-11.375,-19.066950800280168,-12.484227002981656,-97.61846620061917
-0.2127,-0.3028,0.8976,-0.1308,0.6232,0.3852,-1.68,1.225,-11.7862,-18.642523559191556,-12.64571896987019,-97.2910941442013
-0.2073,-0.2938,0.9004,-0.1314,0.622,0.3794,-1.7413,1.05,-11.4537,-18.072827645881404,-12.361887487895778,-97.43267637802883
-0.2037,-0.2915,0.8935,-0.1314,0.622,0.3794,-1.645,1.68,-11.6725,-18.068671685493932,-12.23633330559841,-97.46337421768894
-0.2036,-0.2924,0.8944,-0.1321,0.6226,0.3814,-2.17,1.8637,-11.3137,-18.10367980622487,-12.210392593340424,-97.48806000242105
-0.2062,-0.2941,0.893,-0.1321,0.6226,0.3814,-2.415,2.3275,-10.92,-18.228449005464384,-12.361027785229563,-97.46745137042699
-0.2115,-0.2973,0.8947,-0.1333,0.6233,0.38,-3.1763,2.52,-10.815,-18.380776146943262,-12.627497917708292,-97.54010711011017
-0.2161,-0.3013,0.8855,-0.1316,0.6222,0.3823,-3.0888,2.1263,-10.6662,-18.790396129472114,-12.987420920437305,-97.35048795799692
-0.2174,-0.3045,0.8868,-0.1316,0.6222,0.3823,-3.2987,1.6975,-10.4212,-18.95052244558747,-13.050421066749312,-97.36953986751364
-0.2096,-0.3114,0.8879,-0.133,0.6226,0.3823,-3.325,1.3212,-10.29,-19.325648258366098,-12.584870184285435,-97.6712355753864
-0.2047,-0.3132,0.894,-0.133,0.6226,0.3823,-2.835,1.2425,-9.66,-19.307216841974025,-12.21487977205039,-97.75799480592929
-0.2035,-0.3122,0.8934,-0.1301,0.6239,0.3859,-3.0975,1.645,-8.925,-19.262153420417203,-12.139917106095128,-97.46697016981808
-0.2081,-0.3109,0.8985,-0.1321,0.6217,0.3803,-2.6075,1.645,-8.9512,-19.08711869015566,-12.334573645188566,-97.65392521680722
-0.2094,-0.3076,0.9042,-0.1321,0.6217,0.3803,-2.0125,2.6688,-8.0937,-18.788511926773,-12.364381496740434,-97.59493085580748
-0.2214,-0.3085,0.9045,-0.1326,0.6217,0.3817,-1.5575,2.4325,-8.015,-18.832987516730544,-13.004473023677056,-97.44078752702552
-0.2273,-0.3079,0.8944,-0.1326,0.6217,0.3817,-2.0475,2.6863,-7.8663,-18.99579775271361,-13.482076980628815,-97.35277490284774
-0.2303,-0.3009,0.9018,-0.1334,0.621,0.3848,-2.5725,2.5988,-8.0762,-18.453392285067924,-13.60960529902388,-97.21471002375141
-0.2315,-0.2969,0.9038,-0.1334,0.621,0.3782,-2.3888,2.6075,-8.6538,-18.186084943350203,-13.672986350366937,-97.28295620998604
-0.229,-0.2951,0.9002,-0.1322,0.6209,0.3782,-1.3387,2.695,-10.255,-18.150059145637805,-13.594353544722733,-97.20677779237275
-0.2257,-0.2933,0.896,-0.1317,0.6202,0.3814,-1.68,2.4413,-10.7187,-18.12559388338864,-13.470668510149459,-97.13317296376077
-0.2234,-0.2993,0.8961,-0.1317,0.6202,0.3814,-2.415,1.7587,-10.1237,-18.468652906136153,-13.313154766558252,-97.24403595707213
-0.2232,-0.2994,0.8933,-0.1291,0.621,0.3832,-2.555,1.4,-10.1412,-18.529038362514385,-13.32728146715237,-97.00886891319814
-0.2253,-0.2972,0.8948,-0.1291,0.621,0.3845,-2.1525,1.1375,-10.325,-18.373825181801948,-13.432971157950773,-96.92130849813755
-0.2287,-0.2935,0.9014,-0.1299,0.6179,0.3845,-2.345,1.435,-10.185,-18.036291227074674,-13.556314796966484,-96.89152762405223
-0.2308,-0.291,0.8969,-0.1301,0.6196,0.382,-2.4237,1.7587,-10.2987,-17.97584460102079,-13.742881986136908,-96.88863431649264
-0.2282,-0.2921,0.8966,-0.1301,0.6196,0.382,-2.4675,1.4612,-10.7537,-18.044736177955677,-13.611543255638265,-96.9439713401357
-0.2231,-0.2931,0.8976,-0.1323,0.621,0.3813,-2.4675,1.4175,-10.6225,-18.083705825522305,-13.311046131921088,-97.21611061233996
-0.222,-0.2974,0.896,-0.1323,0.6212,0.3814,-2.31,0.5338,-11.655,-18.361358972139755,-13.236914453570874,-97.28440635673981
-0.2216,-0.2964,0.8966,-0.1321,0.6212,0.3814,-1.7237,0.5338,-11.69,-18.293128442902713,-13.207983677005952,-97.2625818571869
-0.2044,-0.292,0.9019,-0.1313,0.6202,0.381,-1.9687,0.9713,-11.7075,-17.94076535879792,-12.222886203271326,-97.42694242790031
-0.2146,-0.2906,0.8987,-0.1313,0.6202,0.381,-2.3888,0.7437,-11.5062,-17.918974674531988,-12.770258214827496,-97.25095158223544
-0.2069,-0.2893,0.9085,-0.1295,0.6205,0.3852,-2.8263,0.7875,-11.585,-17.66400623099289,-12.271218604063023,-97.13538946483067
-0.2122,-0.2921,0.9077,-0.1326,0.6193,0.3842,-3.2813,1.3387,-11.4712,-17.837883237035786,-12.531164119097573,-97.3477207209871
-0.2117,-0.2937,0.9046,-0.1326,0.6193,0.3842,-3.2725,1.26,-11.6812,-17.986905023429443,-12.547830803523624,-97.37429039466289
-0.2198,-0.2981,0.9012,-0.133,0.6191,0.3823,-3.0975,1.61,-11.4362,-18.302491462206575,-13.010513629493987,-97.36978746919318
-0.2206,-0.2987,0.8971,-0.133,0.6191,0.3823,-3.4563,1.8812,-11.375,-18.415516824915727,-13.125940817159846,-97.36583039762138
-0.2219,-0.2982,0.8991,-0.1307,0.6206,0.3862,-3.5438,2.0213,-11.5237,-18.34903468174314,-13.180775464293088,-97.07607728684562
-0.2213,-0.298,0.8992,-0.1316,0.6205,0.3849,-2.9663,1.9075,-12.285,-18.335522550441922,-13.15098413498522,-97.1789292778875
-0.2204,-0.2922,0.8988,-0.1316,0.6205,0.3849,-2.7913,1.6887,-12.3112,-18.010125322802846,-13.128207239006569,-97.12199386656525
-0.2186,-0.2884,0.8955,-0.1306,0.6205,0.3811,-3.8325,1.3387,-12.145,-17.8517770441784,-13.083511389417048,-97.103465710444
-0.2174,-0.2889,0.9011,-0.1306,0.6205,0.3811,-3.0188,1.12,-11.5675,-17.776453042343334,-12.946489482951597,-97.12822533832407
-0.2117,-0.2912,0.9025,-0.1322,0.6177,0.3819,-2.975,1.2512,-11.4888,-17.882524635571823,-12.603822115373726,-97.36650443233583
-0.2137,-0.2936,0.8969,-0.1301,0.6222,0.3842,-2.8,1.05,-10.8762,-18.125268856550584,-12.750668182099963,-97.13643590762352
-0.2122,-0.2961,0.8991,-0.1301,0.6222,0.3842,-3.1763,1.1025,-10.3162,-18.227985346815203,-12.641315262975922,-97.18877980224187
-0.2145,-0.296,0.8999,-0.1268,0.6193,0.3809,-3.5525,1.3912,-10.2637,-18.207399637231205,-12.751745183440123,-96.97234349697146
-0.2169,-0.2952,0.8978,-0.1268,0.6193,0.3809,-2.8525,1.0412,-10.1937,-18.201073561303485,-12.916413129992913,-96.92607886669005
-0.2111,-0.2963,0.8979,-0.1289,0.6218,0.3762,-2.8263,1.225,-10.22,-18.26234124581778,-12.603429428293637,-97.27361128699144
-0.2147,-0.2973,0.8989,-0.1306,0.621,0.3819,-3.6312,1.9075,-9.6687,-18.300899011916904,-12.766979278567154,-97.2534934025883
-0.2072,-0.2993,0.9007,-0.1306,0.621,0.3819,-3.3075,2.065,-10.1937,-18.38130604343021,-12.340370335862914,-97.39075063061792
-0.214,-0.2955,0.8956,-0.1338,0.6198,0.381,-3.745,1.8375,-9.205,-18.260409178781888,-12.759895705906997,-97.51473550176277
-0.2157,-0.2918,0.8973,-0.1338,0.6198,0.381,-3.2725,1.9862,-9.6862,-18.01499720333782,-12.870182455429903,-97.44396236303177
-0.2175,-0.29,0.9019,-0.1308,0.6206,0.3802,-3.115,1.8463,-9.625,-17.82530424678171,-12.926633680236181,-97.1733361689187
-0.2181,-0.2913,0.9006,-0.1318,0.6201,0.382,-3.115,1.7937,-10.0187,-17.923620131068123,-12.972808108528909,-97.22294437485262
-0.2182,-0.293,0.8985,-0.1318,0.6201,0.382,-3.2462,1.8812,-10.6925,-18.060771548168198,-12.999246806515602,-97.2422430706373
-0.2141,-0.2946,0.8991,-0.131,0.6192,0.3821,-3.6488,2.0913,-10.1587,-18.1417585847744,-12.76474653664317,-97.2651388278224
-0.2168,-0.2932,0.8998,-0.131,0.6192,0.3821,-3.8675,2.0388,-10.3162,-18.04843191579952,-12.895270676859258,-97.2060606688706
-0.2161,-0.2937,0.8988,-0.1292,0.6201,0.3794,-3.2987,2.3625,-10.2987,-18.095675823091742,-12.874533094687491,-97.13368001828275
-0.2214,-0.2941,0.892,-0.1307,0.6206,0.3827,-3.4038,2.0125,-10.5962,-18.247466230489458,-13.241923451846972,-97.10566828320437
-0.2214,-0.2979,0.8981,-0.1307,0.6206,0.3827,-3.6138,1.8812,-10.2112,-18.350450338609484,-13.173442228100711,-97.151178700259
-0.2221,-0.3013,0.898,-0.1289,0.6195,0.3813,-3.5175,2.1438,-10.2462,-18.54733760435671,-13.195058425514857,-97.0758087503176
-0.2248,-0.3026,0.8987,-0.1289,0.6195,0.3813,-4.55,2.415,-10.5175,-18.60867418049654,-13.328286958366974,-97.05098494388524
-0.2259,-0.3003,0.8965,-0.1294,0.6196,0.379,-3.7538,1.5225,-10.0275,-18.519482108306,-13.431830309772764,-97.09228451455641
-0.222,-0.3011,0.9014,-0.1318,0.6207,0.3841,-3.78,0.9013,-10.7362,-18.471287169428482,-13.163324254769272,-97.23644998221864
-0.2188,-0.2989,0.9015,-0.1318,0.6207,0.3841,-4.7688,1.5225,-11.0775,-18.34368468040241,-12.983551343884008,-97.2589915242333
-0.2139,-0.2979,0.9015,-0.1306,0.6205,0.3818,-4.0687,1.2075,-10.3162,-18.286236407801635,-12.71166079367392,-97.27620410673853
-0.217,-0.3043,0.8976,-0.1306,0.6205,0.3818,-4.41,1.26,-10.0362,-18.72638548670665,-12.885997773469409,-97.30682435850389
-0.214,-0.3032,0.8932,-0.1301,0.6212,0.3746,-4.6813,1.785,-10.4038,-18.74991243989675,-12.78825401340078,-97.4424691505784
-0.2186,-0.2946,0.8982,-0.1292,0.6197,0.3819,-3.745,1.6013,-10.3775,-18.160344474648745,-13.008188375990729,-97.05763926623456
-0.219,-0.291,0.8996,-0.1292,0.6197,0.3819,-3.185,1.9862,-10.465,-17.92576556105107,-13.03928752015805,-97.00679951007831
-0.2239,-0.2982,0.8939,-0.1321,0.621,0.3819,-3.85,2.0825,-10.9637,-18.447163472710297,-13.347340619518086,-97.24092608295783
-0.2225,-0.3077,0.8971,-0.1321,0.621,0.3819,-3.9813,2.0825,-10.6662,-18.930511296883825,-13.211263262719172,-97.37881669476862
-0.2201,-0.3169,0.9054,-0.1315,0.6219,0.3842,-3.9638,1.8637,-10.36,-19.289752262216847,-12.938867590991864,-97.42348571290849
-0.2139,-0.3226,0.9024,-0.1286,0.6222,0.3813,-3.2025,1.925,-11.9787,-19.67061192444435,-12.60222810107036,-97.41257714345853
-0.2104,-0.3167,0.8999,-0.1286,0.6222,0.3813,-2.9138,2.0125,-12.46,-19.389068042269894,-12.446487341279244,-97.39503646636602
-0.2167,-0.2997,0.9015,-0.1285,0.6218,0.3807,-2.4588,2.0825,-11.62,-18.391549420057093,-12.826658157296677,-97.10914180128601
-0.2224,-0.2918,0.8968,-0.1285,0.6218,0.3807,-2.205,2.4763,-12.04,-18.024678770328162,-13.243632885898426,-96.92624206511013
-0.2237,-0.2874,0.9008,-0.1302,0.6209,0.3804,-2.66,2.5288,-11.515,-17.6960513611689,-13.3067076141743,-96.99116278018047
-0.2275,-0.2872,0.898,-0.1299,0.6226,0.379,-3.1238,2.5813,-11.6725,-17.735317240323447,-13.551049790956567,-96.92827027952389
-0.2289,-0.2894,0.8958,-0.1299,0.6226,0.379,-2.87,2.8525,-11.375,-17.903334589109665,-13.6595372550538,-96.93509014604983
-0.2274,-0.2899,0.8969,-0.1284,0.6229,0.3802,-2.7388,2.3363,-11.4012,-17.912079603551653,-13.568989335111487,-96.822802764323
-0.228,-0.2937,0.893,-0.1284,0.6229,0.3802,-3.4563,2.1525,-10.9025,-18.204891343575085,-13.629519503950432,-96.86369660054224
-0.2261,-0.2977,0.893,-0.1297,0.6238,0.3872,-3.6575,2.0388,-10.92,-18.436321477119126,-13.513296128457142,-96.89733124339546
-0.2292,-0.2998,0.8981,-0.129,0.6219,0.3811,-3.9638,1.9775,-10.255,-18.45976993234279,-13.602713589947102,-96.95315718554079
-0.225,-0.3045,0.8949,-0.129,0.6219,0.3811,-4.1825,1.715,-9.6775,-18.79067105094282,-13.400457440324082,-97.07736067096602
-0.2212,-0.3059,0.8953,-0.129,0.6235,0.3805,-4.3137,1.785,-8.4263,-18.863747221387797,-13.172680117449966,-97.15703945554792
-0.2181,-0.3093,0.8994,-0.129,0.6235,0.3805,-3.7013,1.4437,-9.31,-18.977613400921324,-12.929477408301526,-97.24072006836218
-0.2156,-0.3068,0.8971,-0.1294,0.6216,0.3808,-3.6925,1.2775,-9.0913,-18.8804509228624,-12.817576307379229,-97.28056829901226
-0.2157,-0.304,0.8972,-0.1314,0.621,0.3866,-3.7275,1.61,-8.7412,-18.71840754796996,-12.826938969658183,-97.28702360102675
-0.2151,-0.3016,0.8977,-0.1314,0.621,0.3866,-3.045,2.2138,-9.1262,-18.57113940891961,-12.798531213331053,-97.26745102608207
-0.225,-0.2917,0.8924,-0.1283,0.6218,0.3814,-2.9925,2.6513,-8.9862,-18.10220288811607,-13.437173412370804,-96.85590890009311
-0.2309,-0.2844,0.897,-0.1283,0.6218,0.3814,-2.2488,2.8788,-9.6075,-17.59278650781274,-13.765898095155793,-96.66650260073133
-0.2356,-0.2832,0.9014,-0.1295,0.6215,0.3821,-2.7125,3.08,-9.9837,-17.44192774435342,-13.98728665983702,-96.65363044283721
-0.2385,-0.2865,0.8974,-0.1292,0.6221,0.3825,-3.6488,3.1063,-9.765,-17.705347026048695,-14.194277343848652,-96.61784073210043
-0.2427,-0.2953,0.8973,-0.1292,0.6221,0.3825,-5.2325,2.4675,-10.22,-18.215072277999315,-14.39651772547269,-96.67235677157085
-0.2395,-0.307,0.896,-0.1307,0.621,0.3801,-4.6375,2.1613,-11.0337,-18.91153410970208,-14.20248138956357,-97.05098236543206
-0.2338,-0.3095,0.8996,-0.1307,0.621,0.3801,-4.1912,1.855,-10.9375,-18.985182450033374,-13.829219766010661,-97.1646547968275
-0.2302,-0.3085,0.8932,-0.1283,0.6202,0.3794,-4.1388,1.3562,-9.065,-19.054101363584778,-13.698354990101256,-97.04082667719335
-0.2306,-0.3073,0.8964,-0.1299,0.6217,0.377,-3.6488,0.9713,-10.9112,-18.92283320389525,-13.678155645609385,-97.18590482215076
-0.2286,-0.3021,0.8979,-0.1299,0.6217,0.377,-3.6575,0.665,-10.6312,-18.596380361993525,-13.572133334220661,-97.14736926435434
-0.232,-0.3016,0.899,-0.1289,0.6227,0.3801,-3.4388,0.6212,-10.5262,-18.54589263541138,-13.738897374619917,-96.94489145443632
-0.2347,-0.3003,0.8957,-0.1289,0.6227,0.3801,-3.9025,0.9013,-10.4912,-18.53470698197657,-13.940708478499635,-96.88917908094774
-0.232,-0.3004,0.8986,-0.1279,0.623,0.3796,-4.0163,0.7,-10.4038,-18.484787332656715,-13.768260072958594,-96.86172957480352
-0.2345,-0.3023,0.8955,-0.1277,0.6205,0.3811,-4.0862,0.8663,-10.6837,-18.653085663944996,-13.925447343562329,-96.81152477712344
-0.2317,-0.302,0.8957,-0.1277,0.6205,0.3811,-3.675,0.4725,-10.4825,-18.632430173189654,-13.78082751621648,-96.84928989374401
-0.2305,-0.3002,0.8969,-0.1288,0.622,0.381,-3.255,0.0,-11.3312,-18.506129626912642,-13.700686057349568,-96.92560292581088
-0.2282,-0.3012,0.8965,-0.1288,0.622,0.381,-3.4738,0.1225,-11.13,-18.57081598264167,-13.572544132334357,-96.97325069470884
-0.2231,-0.2994,0.9001,-0.1297,0.6221,0.3809,-3.3338,-0.0438,-11.7163,-18.39906731967382,-13.25200207252336,-97.09679148064585
-0.2206,-0.2992,0.8994,-0.1266,0.6234,0.3786,-3.0975,-0.0263,-12.2762,-18.40053803549549,-13.109087665657867,-96.93457712056549
-0.219,-0.3021,0.9017,-0.1266,0.6234,0.3786,-3.5088,0.385,-11.5937,-18.522301534730833,-12.97597067658508,-96.99238305816554
-0.217,-0.3009,0.8993,-0.1301,0.623,0.3813,-3.0275,0.21,-11.095,-18.4999632119481,-12.893498734718737,-97.22654358771146
