AcclX,AcclY,AcclZ,MagX,MagY,MagZ,GyroX,GyroY,GyroZ,Roll,Pitch,Yaw
-0.2933,-0.1725,0.9108,-0.1594,0.746,0.3314,-3.3863,1.0587,-10.6925,0,0,0
-0.2905,-0.1682,0.8725,-0.1609,0.7474,0.3327,-3.3688,1.3125,-10.5437,0,0,0
-0.2952,-0.1735,0.9143,-0.1609,0.7474,0.3327,-3.5963,1.3475,-10.5437,0,0,0
-0.2929,-0.1773,0.9148,-0.161,0.7453,0.335,-3.4475,1.155,-10.57,0,0,0
-0.2935,-0.1746,0.9142,-0.1594,0.7471,0.3301,-3.64,1.1112,-10.9025,0,0,0
-0.2964,-0.1738,0.9128,-0.1594,0.7471,0.3301,-3.7888,1.855,-10.0537,0,0,0
-0.2964,-0.1753,0.9107,-0.1604,0.743,0.3334,-3.2288,1.5662,-10.3162,0,0,0
-0.2952,-0.1726,0.9101,-0.1604,0.743,0.3334,-3.7275,1.0937,-10.1763,0,0,0
-0.2949,-0.1748,0.9148,-0.1594,0.7478,0.3331,-3.0713,1.3212,-10.5612,0,0,0
-0.2959,-0.1754,0.9118,-0.1594,0.7478,0.3331,-3.2987,1.61,-10.3337,0,0,0
-0.2974,-0.1737,0.9118,-0.1593,0.7466,0.3286,-3.1412,0.9713,-10.1325,0,0,0
-0.2911,-0.1753,0.9102,-0.1583,0.7469,0.3354,-3.3425,1.2337,-10.2025,0,0,0
-0.2931,-0.1754,0.9163,-0.1583,0.7469,0.3354,-3.465,1.6362,-10.2987,0,0,0
-0.2945,-0.1745,0.9126,-0.1601,0.7459,0.3328,-3.29,1.54,-10.78,0,0,0
-0.2965,-0.1775,0.9085,-0.1601,0.7459,0.3328,-3.0538,0.9625,-10.6138,0,0,0
-0.2977,-0.1734,0.912,-0.1588,0.7466,0.334,-3.64,1.3475,-10.1325,0,0,0
-0.2932,-0.1738,0.9134,-0.1596,0.7443,0.3318,-3.6138,0.8487,-10.01,0,0,0
-0.2954,-0.1748,0.9177,-0.1596,0.7443,0.3318,-2.7475,0.6913,-11.165,0,0,0
-0.2935,-0.174,0.9132,-0.1575,0.7461,0.3329,-2.345,1.1638,-10.9987,0,0,0
-0.2923,-0.1742,0.9129,-0.1575,0.7461,0.3329,-2.905,0.7788,-10.4387,0,0,0
-0.2955,-0.1749,0.9129,-0.1611,0.747,0.3359,-3.0713,0.9713,-10.64,0,0,0
-0.2919,-0.1742,0.9162,-0.158,0.7456,0.3319,-3.3513,1.2425,-10.5437,0,0,0
-0.2951,-0.1745,0.9101,-0.158,0.7456,0.3319,-3.1937,0.9713,-10.2287,0,0,0
-0.2949,-0.1745,0.9149,-0.159,0.7446,0.3326,-2.9838,1.0587,-10.5525,0,0,0
-0.2957,-0.1737,0.9142,-0.159,0.7446,0.3326,-3.64,1.4525,-10.1937,0,0,0
-0.2943,-0.1745,0.9128,-0.1588,0.7473,0.3418,-3.465,1.365,-10.4737,0,0,0
-0.2952,-0.1765,0.9103,-0.1617,0.7461,0.333,-3.325,1.3475,-10.6312,0,0,0
-0.2932,-0.1721,0.9151,-0.1617,0.7461,0.333,-2.4588,0.8575,-10.5612,0,0,0
-0.2928,-0.1727,0.9133,-0.1611,0.748,0.3321,-3.3513,0.875,-10.36,0,0,0
-0.294,-0.1763,0.9099,-0.1611,0.748,0.3321,-3.5088,1.3912,-10.3775,0,0,0
-0.2936,-0.1749,0.9162,-0.1586,0.7482,0.3293,-3.2987,1.645,-10.29,0,0,0
-0.2952,-0.1759,0.9111,-0.159,0.7458,0.3323,-3.3688,1.7325,-10.1763,0,0,0
-0.2944,-0.1751,0.9066,-0.159,0.7458,0.3323,-3.5,1.435,-10.7012,0,0,0
-0.2924,-0.1742,0.9097,-0.1607,0.7458,0.3337,-3.4563,1.0412,-10.4562,0,0,0
-0.2944,-0.1726,0.9184,-0.1607,0.7458,0.3337,-2.8612,0.8487,-10.3863,0,0,0
-0.2921,-0.1746,0.9128,-0.1601,0.7462,0.3254,-2.8263,1.26,-10.605,0,0,0
-0.2942,-0.1746,0.9108,-0.1615,0.7456,0.3328,-3.885,0.6475,-10.78,0,0,0
-0.2951,-0.1721,0.9132,-0.1615,0.7456,0.3328,-3.9725,1.2425,-10.745,0,0,0
-0.295,-0.1734,0.9158,-0.1579,0.7474,0.3322,-3.8937,1.6187,-10.2725,0,0,0
-0.294,-0.1768,0.9124,-0.1579,0.7474,0.3322,-4.1213,1.8375,-9.5987,0,0,0
-0.296,-0.1756,0.9114,-0.1607,0.7474,0.3293,-3.7275,1.3562,-10.2462,0,0,0
-0.296,-0.1741,0.9122,-0.1599,0.745,0.3326,-3.2638,0.7788,-10.7187,0,0,0
-0.2915,-0.1745,0.9154,-0.1599,0.745,0.3326,-4.305,1.3825,-9.5725,0,0,0
-0.2921,-0.1743,0.9127,-0.1599,0.7454,0.3334,-3.8063,1.1287,-10.115,0,0,0
-0.2959,-0.1746,0.911,-0.1599,0.7454,0.3334,-3.0188,0.9187,-10.7362,0,0,0
-0.2974,-0.1735,0.9127,-0.1604,0.7466,0.3294,-3.9988,0.9975,-10.535,0,0,0
-0.2936,-0.1749,0.9116,-0.1597,0.7467,0.3308,-3.675,1.3212,-10.2025,0,0,0
-0.2938,-0.1734,0.9123,-0.1597,0.7467,0.3308,-3.5875,1.8375,-10.0362,0,0,0
-0.295,-0.1746,0.9156,-0.1594,0.7466,0.3333,-3.1588,1.5837,-10.5612,0,0,0
-0.2915,-0.1754,0.9123,-0.1594,0.7466,0.3333,-3.6663,1.1025,-9.9925,0,0,0
-0.2919,-0.1738,0.9091,-0.1609,0.7463,0.3301,-3.7713,1.3212,-10.3162,0,0,0
-0.2949,-0.1736,0.9103,-0.1586,0.7442,0.333,-3.2638,1.2425,-10.29,0,0,0
-0.2956,-0.1759,0.9106,-0.1586,0.7442,0.333,-3.9463,1.1462,-10.885,0,0,0
-0.2955,-0.1746,0.9066,-0.1611,0.7463,0.3338,-3.6925,1.5925,-10.5525,0,0,0
-0.2951,-0.1739,0.9149,-0.1611,0.7463,0.3338,-3.4738,0.9538,-10.4387,0,0,0
-0.2954,-0.1748,0.9132,-0.1594,0.7471,0.3324,-3.8413,0.8312,-10.15,0,0,0
-0.2943,-0.1746,0.9158,-0.1597,0.7468,0.333,-3.22,1.015,-10.6487,0,0,0
-0.2939,-0.1737,0.9138,-0.1597,0.7468,0.333,-3.1675,1.435,-10.5175,0,0,0
-0.2955,-0.1732,0.9112,-0.1612,0.7468,0.3336,-3.0975,1.0325,-10.4912,0,0,0
-0.2944,-0.1741,0.9071,-0.1612,0.7468,0.3336,-3.7975,1.0587,-9.94,0,0,0
-0.2929,-0.1737,0.9171,-0.1597,0.7458,0.3316,-3.2113,1.5837,-10.8937,0,0,0
-0.2919,-0.1734,0.9141,-0.1594,0.7454,0.3322,-2.695,1.7937,-11.0337,0,0,0
-0.2959,-0.1731,0.9129,-0.1594,0.7454,0.3322,-3.4738,1.3912,-9.8612,0,0,0
-0.2926,-0.1726,0.9121,-0.1599,0.7453,0.3331,-3.815,0.9625,-10.185,0,0,0
-0.2927,-0.1738,0.9119,-0.1599,0.7453,0.3331,-3.3338,1.0062,-10.4562,0,0,0
-0.2955,-0.1762,0.9134,-0.1604,0.746,0.3332,-3.1412,1.225,-9.9575,0,0,0
-0.2952,-0.1729,0.9115,-0.1599,0.7463,0.3337,-2.5463,0.7962,-10.5875,0,0,0
-0.2933,-0.1734,0.9092,-0.1599,0.7463,0.3337,-2.7475,1.2337,-10.2287,0,0,0
-0.2968,-0.1745,0.9151,-0.161,0.746,0.3337,-3.4475,1.2337,-10.5875,0,0,0
-0.2937,-0.1721,0.9148,-0.161,0.746,0.3337,-3.8588,1.085,-9.8525,0,0,0
-0.2941,-0.1746,0.9173,-0.1606,0.7474,0.3376,-3.2025,0.875,-10.6138,0,0,0
-0.2943,-0.1755,0.9106,-0.1597,0.7473,0.3322,-3.3075,1.2337,-10.1062,0,0,0
-0.2959,-0.1726,0.9124,-0.1597,0.7473,0.3322,-2.9575,1.2075,-10.01,0,0,0
-0.2938,-0.1729,0.9152,-0.1586,0.7467,0.3311,-3.605,1.5925,-10.3775,0,0,0
-0.2916,-0.1741,0.9091,-0.1586,0.7467,0.3311,-3.2288,1.3825,-10.78,0,0,0
-0.2943,-0.1745,0.9126,-0.1581,0.746,0.3363,-3.4213,1.1812,-10.57,0,0,0
-0.2968,-0.1745,0.91,-0.1601,0.7472,0.3341,-3.325,1.2775,-10.8062,0,0,0
-0.2935,-0.1749,0.9094,-0.1601,0.7472,0.3341,-3.43,1.1025,-10.605,0,0,0
-0.2946,-0.1724,0.9141,-0.1615,0.7458,0.3333,-3.3688,1.2425,-10.535,0,0,0
-0.2918,-0.1746,0.9086,-0.1615,0.7458,0.3333,-2.7475,0.9713,-10.4212,0,0,0
-0.2942,-0.1742,0.9118,-0.1591,0.7462,0.337,-3.1937,0.5862,-10.08,0,0,0
-0.2949,-0.1734,0.9111,-0.1543,0.7451,0.3331,-3.4913,1.1725,-10.5262,0,0,0
-0.2979,-0.1737,0.9076,-0.1543,0.7451,0.3331,-3.5613,1.1375,-10.8238,0,0,0
-0.2927,-0.1734,0.9149,-0.1632,0.7458,0.3331,-2.6425,1.4437,-10.7187,0,0,0
-0.2941,-0.1738,0.9128,-0.1632,0.7458,0.3331,-2.8612,1.4437,-10.605,0,0,0
-0.2935,-0.1746,0.9122,-0.1594,0.7453,0.3373,-3.4563,1.2687,-10.5612,0,0,0
-0.2915,-0.1746,0.9138,-0.1594,0.7452,0.3339,-4.0862,1.75,-10.85,0,0,0
-0.2919,-0.1745,0.9176,-0.1594,0.7452,0.3339,-3.6837,1.8725,-10.7187,0,0,0
-0.2936,-0.1737,0.9109,-0.1588,0.745,0.3354,-3.43,1.4262,-10.9637,0,0,0
-0.2957,-0.1735,0.9121,-0.1588,0.745,0.3354,-3.5,1.5837,-10.6487,0,0,0
-0.2946,-0.1731,0.9132,-0.16,0.747,0.3345,-3.885,1.3212,-10.1587,0,0,0
-0.2934,-0.1734,0.913,-0.161,0.7464,0.333,-3.5088,1.2862,-10.3775,0,0,0
-0.2948,-0.1749,0.9145,-0.161,0.7464,0.333,-3.3688,0.8312,-10.5262,0,0,0
-0.2945,-0.1747,0.9143,-0.16,0.747,0.3323,-3.2725,0.8838,-10.7275,0,0,0
-0.2951,-0.1738,0.9146,-0.16,0.747,0.3323,-3.2375,1.54,-10.9812,0,0,0
-0.2927,-0.1734,0.9137,-0.1642,0.7447,0.335,-3.7975,1.7762,-10.3425,0,0,0
-0.295,-0.1751,0.9095,-0.1602,0.745,0.334,-3.9288,1.4262,-10.64,0,0,0
-0.2932,-0.1753,0.9122,-0.1602,0.745,0.334,-3.325,1.5575,-10.5875,0,0,0
-0.294,-0.1743,0.9121,-0.1589,0.7471,0.335,-3.255,1.4,-10.955,0,0,0
-0.2952,-0.1735,0.9101,-0.1589,0.7471,0.335,-3.0888,1.1462,-10.6925,0,0,0
-0.2937,-0.1754,0.9188,-0.161,0.7463,0.335,-3.6925,1.3825,-10.3512,0,0,0
-0.294,-0.1756,0.9062,-0.1606,0.7466,0.331,-3.7188,1.1638,-10.3337,-10.940432453184268,-16.715325405516722,-96.89504348820311
-0.2954,-0.1742,0.9091,-0.1606,0.7466,0.331,-3.8937,1.19,-10.2025,-10.847642052569446,-17.646390040973788,-96.9431602869332
-0.2946,-0.1748,0.9151,-0.1578,0.7464,0.3357,-3.6575,1.4962,-11.62,-10.814296759518411,-17.553134709470445,-96.68179388559703
-0.2938,-0.1742,0.916,-0.1578,0.7447,0.3347,-3.2813,1.54,-10.5875,-10.767737506454031,-17.49288634241356,-96.71521564107314
-0.2921,-0.1746,0.9124,-0.1557,0.7447,0.3347,-3.1325,1.365,-9.485,-10.833188953640986,-17.45723777943271,-96.60011978369029
-0.2949,-0.1742,0.9132,-0.1591,0.746,0.333,-3.6312,1.3475,-10.185,-10.799945435088775,-17.591830273780687,-96.81368061758764
-0.293,-0.1733,0.9133,-0.1591,0.746,0.333,-3.885,1.4612,-10.3425,-10.744355061185072,-17.499692340559676,-96.82848200327481
-0.2941,-0.1729,0.9162,-0.1588,0.7468,0.3345,-3.6312,1.0762,-10.3775,-10.68698673184724,-17.50656141073296,-96.75196572031953
-0.2952,-0.1752,0.9076,-0.1588,0.7477,0.3314,-3.3075,1.2337,-10.6138,-10.92522419711779,-17.700213003236513,-96.82569895885463
-0.2963,-0.1749,0.9089,-0.1611,0.7477,0.3314,-3.2462,1.2075,-10.9462,-10.892385957404308,-17.74843151990422,-96.96070348770203
-0.2942,-0.172,0.9111,-0.1615,0.746,0.333,-3.9288,1.085,-10.6925,-10.691123462378938,-17.6120530457403,-96.94557159914137
-0.293,-0.1749,0.9118,-0.1615,0.746,0.333,-3.7888,1.155,-10.2112,-10.858088891787052,-17.52033772366357,-97.01576843299121
-0.2924,-0.1753,0.9111,-0.1602,0.746,0.3334,-4.0163,0.91,-10.1412,-10.890813129827047,-17.4937573450324,-96.93397492461862
-0.2947,-0.1735,0.907,-0.159,0.7478,0.3358,-3.8238,1.2337,-10.745,-10.829431763524674,-17.688368815118576,-96.7159352154292
-0.2922,-0.1729,0.9104,-0.159,0.7478,0.3358,-3.0275,1.3125,-10.9462,-10.753532172317712,-17.511355328008282,-96.7513337668662
-0.293,-0.1753,0.9127,-0.1625,0.7459,0.3337,-3.8763,1.0762,-10.64,-10.871970950901316,-17.498852251021276,-97.07627855324444
-0.2944,-0.1744,0.9117,-0.1625,0.7459,0.3337,-3.9988,1.2687,-10.745,-10.829443440596608,-17.591755264492924,-97.0372225213567
-0.2948,-0.1731,0.9133,-0.1574,0.7474,0.3306,-3.3338,1.47,-10.5087,-10.732342842039651,-17.595653346267515,-96.7301928539045
-0.2953,-0.1742,0.9127,-0.1632,0.7457,0.3311,-3.1412,1.575,-10.7012,-10.805468031309639,-17.628776716516217,-97.12841597185208
-0.2954,-0.1734,0.9124,-0.1632,0.7457,0.3311,-3.5175,1.5487,-10.4387,-10.760740959222023,-17.64337379143441,-97.11287155294846
-0.2915,-0.1758,0.9141,-0.1588,0.7446,0.3328,-3.5438,1.2862,-10.5875,-10.885924696400117,-17.40200309360834,-96.88681336952561
-0.2949,-0.1748,0.9099,-0.1588,0.7446,0.3328,-3.2987,1.5225,-10.6487,-10.874576848777533,-17.641397536996518,-96.80876799363801
-0.2957,-0.1751,0.9085,-0.1592,0.7459,0.3305,-3.5875,1.435,-10.0187,-10.909067712258931,-17.719352082188507,-96.87296853350922
-0.293,-0.1731,0.914,-0.1599,0.7464,0.3332,-3.29,0.84,-10.5262,-10.72452345728515,-17.4953889698238,-96.87425322986287
-0.2943,-0.1741,0.9115,-0.1599,0.7464,0.3332,-2.7825,0.9625,-10.7187,-10.813256548573808,-17.590604280938486,-96.86645125732306
-0.2952,-0.173,0.913,-0.1602,0.7467,0.333,-3.01,1.5925,-10.535,-10.729696843949158,-17.62201876827969,-96.85942670769747
-0.2925,-0.1746,0.9101,-0.1602,0.7467,0.333,-2.9575,1.47,-10.1675,-10.859762218426033,-17.52335095101255,-96.92439601613513
-0.2957,-0.174,0.9085,-0.1602,0.7474,0.3294,-3.3163,1.0675,-10.3863,-10.842288827165861,-17.71664258431191,-96.93994253021013
-0.298,-0.1741,0.9096,-0.1606,0.7442,0.331,-3.8238,1.1638,-9.7475,-10.835538160068321,-17.830421139048312,-96.91217888010033
-0.2915,-0.1738,0.9166,-0.1606,0.7442,0.331,-2.6425,1.4437,-10.605,-10.736844220762956,-17.377899992726245,-97.02146208703151
-0.2943,-0.1744,0.9103,-0.1598,0.7452,0.3331,-3.08,1.3125,-11.2087,-10.845342257123654,-17.60302562996668,-96.87038994520529
-0.2965,-0.1757,0.9145,-0.1598,0.7452,0.3331,-3.08,1.2163,-11.025,-10.875462430214096,-17.658203103778405,-96.86561115577103
-0.2946,-0.1738,0.9143,-0.1585,0.7465,0.334,-3.0363,1.295,-10.6662,-10.763255472280846,-17.570001439721946,-96.7483567926964
-0.2939,-0.1744,0.9144,-0.159,0.7457,0.3301,-3.3688,1.6887,-10.5525,-10.79803469917726,-17.52470215542275,-96.89518994133348
-0.2934,-0.1743,0.9126,-0.159,0.7457,0.3301,-3.4825,1.12,-10.36,-10.81282121096477,-17.525589994401123,-96.8982900576356
-0.2953,-0.1737,0.9076,-0.1594,0.7471,0.3322,-3.22,1.1638,-10.2637,-10.834423184767411,-17.711416018829063,-96.8228137319921
-0.2938,-0.1737,0.9118,-0.1594,0.7471,0.3322,-3.1325,1.3475,-10.71,-10.785857816041515,-17.572026687677845,-96.85366272226612
-0.293,-0.1749,0.9165,-0.1604,0.7474,0.3351,-3.395,1.3737,-10.7275,-10.804074715904662,-17.441259107437226,-96.89613426810881
-0.2959,-0.1756,0.9113,-0.1594,0.7458,0.3262,-3.1675,1.4262,-10.7012,-10.90650108479582,-17.670867936398498,-96.99543348558409
-0.296,-0.1746,0.9107,-0.1594,0.7458,0.3262,-3.4388,1.12,-10.5612,-10.853215840792075,-17.701895749070246,-96.97562465691789
-0.2933,-0.1734,0.9123,-0.1606,0.7464,0.3318,-3.3338,1.05,-9.8875,-10.762004140164168,-17.537533585454856,-96.95064689033833
-0.2967,-0.1735,0.9142,-0.1606,0.7464,0.3318,-3.6663,0.91,-10.6662,-10.74602797036207,-17.677279613099827,-96.90236047946655
-0.2988,-0.1745,0.9174,-0.1602,0.747,0.3297,-3.1675,1.5312,-10.9025,-10.76960424753938,-17.739310187672434,-96.91082868152498
-0.2929,-0.1749,0.9105,-0.1582,0.7482,0.3262,-3.4738,1.155,-10.29,-10.873374785346698,-17.543295327262438,-96.93583799747995
-0.2958,-0.1744,0.9119,-0.1582,0.7482,0.3262,-3.8675,1.2687,-10.2725,-10.827133338533207,-17.665077671969716,-96.88535618837086
-0.2915,-0.1734,0.9131,-0.1605,0.745,0.3334,-3.57,1.2337,-10.22,-10.752755079067649,-17.42696091016636,-96.94390539697885
-0.2925,-0.1767,0.9127,-0.1605,0.745,0.3334,-3.1763,1.1725,-10.3337,-10.95650297474405,-17.46335015810186,-96.9838524580368
-0.2933,-0.1739,0.9095,-0.1604,0.7467,0.3326,-3.3425,1.0762,-10.5787,-10.824845757711557,-17.56942644420558,-96.92134954252207
-0.2935,-0.1734,0.9171,-0.1595,0.745,0.3325,-4.0163,2.0038,-10.71,-10.707047674411218,-17.462614939602048,-96.8720894165697
-0.2938,-0.1745,0.909,-0.1595,0.745,0.3325,-3.3425,1.505,-10.395,-10.866441653169085,-17.60219218301726,-96.87176370377897
-0.2916,-0.1742,0.9114,-0.1585,0.7458,0.3322,-3.36,1.05,-10.8587,-10.820801526499428,-17.454145118620715,-96.84090626134548
-0.2942,-0.1749,0.9138,-0.1585,0.7458,0.3322,-3.4825,1.015,-10.7712,-10.835251985269121,-17.542606543850958,-96.81637995751295
-0.2941,-0.1735,0.9123,-0.1598,0.7456,0.3298,-3.395,0.91,-10.7975,-10.768008062570418,-17.57117161100855,-96.93443381522975
-0.2952,-0.1739,0.9077,-0.1609,0.7442,0.3326,-3.605,1.1725,-10.3162,-10.845302293167387,-17.706235460975787,-96.93300037909508
-0.2954,-0.1728,0.9121,-0.1609,0.7442,0.3326,-3.3863,1.1812,-9.975,-10.727991152162259,-17.6544246547949,-96.91873743825651
-0.2916,-0.174,0.913,-0.1618,0.7462,0.3317,-3.08,1.1725,-10.6225,-10.789917083779665,-17.43142032378425,-97.07315113317004
-0.2962,-0.1736,0.9129,-0.1618,0.7462,0.3317,-3.2987,1.2862,-10.5,-10.76704732033477,-17.666139587720505,-96.99399338031026
-0.2919,-0.1752,0.9112,-0.1609,0.7461,0.3292,-3.6312,0.8138,-10.5875,-10.883382627330702,-17.473524478576586,-97.08185243428343
-0.2904,-0.1736,0.9149,-0.1598,0.7465,0.3334,-3.2987,1.0937,-10.5175,-10.744336863149732,-17.328199467879905,-96.91395082634591
-0.2921,-0.1733,0.9102,-0.1598,0.7465,0.3334,-3.7888,1.12,-10.6925,-10.779873744895895,-17.488614727109116,-96.87336050359625
-0.2938,-0.1735,0.9132,-0.1609,0.7478,0.3322,-3.2462,1.5837,-10.6662,-10.7575360988722,-17.537429032303884,-96.95095938701452
-0.2932,-0.1743,0.9134,-0.1609,0.7478,0.3322,-3.5525,1.26,-9.94,-10.803499096478506,-17.50252579822458,-96.97451412643984
-0.2974,-0.1735,0.9096,-0.1595,0.7465,0.3294,-3.0363,1.3475,-10.8675,-10.799069746024859,-17.788811385773347,-96.86337652311266
-0.2941,-0.1749,0.9134,-0.161,0.7458,0.3329,-3.185,1.1112,-10.6837,-10.839821714022236,-17.561842202905083,-96.97058151394806
-0.293,-0.1746,0.9124,-0.161,0.7458,0.3329,-3.29,1.2425,-10.0625,-10.833361007784788,-17.508723836539684,-96.9810551590056
-0.2952,-0.1751,0.9109,-0.1609,0.7454,0.3323,-3.465,1.3912,-10.71,-10.880980346079943,-17.645695725392233,-96.96113545110825
-0.2951,-0.1745,0.9103,-0.1609,0.7454,0.3323,-3.2375,1.4962,-10.6575,-10.851742965410745,-17.659716256794432,-96.95121839216226
-0.2961,-0.1731,0.9068,-0.1602,0.7451,0.3382,-3.1763,1.3037,-10.5,-10.807339610478655,-17.77649138451176,-96.72361755727307
-0.2915,-0.1729,0.9118,-0.1588,0.7456,0.332,-3.4388,0.9887,-10.6225,-10.737391285734052,-17.45559576316721,-96.84646365167193
-0.2956,-0.1754,0.9109,-0.1588,0.7456,0.332,-3.71,1.295,-9.8087,-10.898903931249322,-17.66311236769919,-96.82389611040357
-0.295,-0.1728,0.917,-0.163,0.7474,0.3322,-3.675,1.225,-10.5612,-10.672249643430806,-17.55013664623168,-97.07058156497155
-0.2945,-0.1742,0.9087,-0.163,0.7474,0.3322,-2.9575,1.1987,-10.7887,-10.851652172512264,-17.650225240425616,-97.08776795677402
-0.2951,-0.174,0.908,-0.1602,0.7462,0.3298,-3.2288,0.6913,-10.1325,-10.848084316331402,-17.699919304813655,-96.944739935646
-0.2933,-0.1739,0.9119,-0.1605,0.7458,0.3329,-3.3425,1.4,-10.4475,-10.7968350363945,-17.54262100677187,-96.92956087501737
-0.2929,-0.1738,0.9077,-0.1605,0.7458,0.3329,-3.2113,1.6013,-10.7625,-10.839296982138965,-17.58245888952147,-96.92663820052135
-0.2958,-0.1734,0.9132,-0.162,0.7458,0.3338,-3.2288,1.26,-10.5262,-10.751636704275395,-17.64882134935428,-96.9647689955443
-0.294,-0.1727,0.9125,-0.162,0.7458,0.3338,-4.095,1.6187,-10.2725,-10.717137817662758,-17.570881782907495,-96.98004472804739
-0.3093,-0.1486,0.875,-0.1595,0.7457,0.3303,-3.5263,0.8312,-10.2375,-9.641075682594753,-19.12631731534475,-96.10535598510965
-0.281,-0.2153,0.9101,-0.1586,0.7472,0.3322,-4.0687,2.73,-10.8937,-13.300851847497329,-16.864995028087794,-97.67847969744876
-0.3016,-0.1792,0.9251,-0.1586,0.7472,0.3322,-2.8263,0.6825,-11.165,-10.968496865544633,-17.701885033217142,-96.7968557876421
-0.2952,-0.1739,0.9385,-0.1603,0.7486,0.3319,-3.4913,1.7762,-10.78,-10.498723012423758,-17.214533198278737,-96.94416188469064
-0.2971,-0.1803,0.8851,-0.1603,0.7486,0.3319,-3.5088,1.1812,-10.9112,-11.511521004097467,-18.153226510493806,-96.93977857759897
-0.2907,-0.1743,0.9119,-0.1593,0.7439,0.3224,-3.08,1.3562,-10.9025,-10.82260897259414,-17.42795241057973,-97.1412515110024
-0.2739,-0.1607,0.9107,-0.1595,0.7446,0.3321,-2.7388,1.7325,-10.4737,-10.00920620686214,-16.54999397010418,-96.97738186234827
-0.2951,-0.1825,0.9342,-0.1595,0.7446,0.3321,-2.9838,2.2488,-10.675,-11.051272497938733,-17.186130961490285,-97.03950095452443
-0.3209,-0.1717,0.8654,-0.1584,0.7451,0.3321,-3.3338,2.7388,-10.5,-11.221645816111252,-19.82251573385529,-96.2477689807079
-0.3126,-0.1779,0.9307,-0.1584,0.7451,0.3321,-3.6837,1.8112,-10.9025,-10.82230842030331,-18.345231925008413,-96.6114303671822
-0.3076,-0.1679,0.9042,-0.1592,0.7457,0.3346,-3.115,1.435,-10.8325,-10.520107204061418,-18.48556673848231,-96.45153535391506
-0.294,-0.1825,0.9163,-0.1585,0.7467,0.3318,-2.7125,1.365,-10.64,-11.262456288770746,-17.52292536392185,-96.95851735454468
-0.3009,-0.1802,0.9034,-0.1585,0.7467,0.3318,-3.2025,1.155,-9.6337,-11.280614167280243,-18.058637476194853,-96.79510443888088
-0.2904,-0.1677,0.9127,-0.1597,0.7468,0.332,-2.9488,0.4462,-10.1675,-10.413502908746748,-17.412253164085868,-96.8325039763132
-0.2807,-0.1703,0.9117,-0.1597,0.7468,0.332,-3.0538,0.805,-10.43,-10.58016914194111,-16.868843145523957,-97.02936486640252
-0.275,-0.1649,0.924,-0.1595,0.7446,0.3283,-2.8263,0.8575,-10.4737,-10.119763027124149,-16.35860399215427,-97.13474782957898
-0.2873,-0.1779,0.9057,-0.1607,0.7457,0.3345,-2.4763,1.0412,-10.9987,-11.110347987177219,-17.23973862756435,-97.05995251563692
-0.3107,-0.1747,0.9029,-0.1607,0.7457,0.3345,-2.765,1.6187,-10.5875,-10.951089021180437,-18.58856843711495,-96.62951290125221
-0.2988,-0.1705,0.9319,-0.156,0.7473,0.332,-3.5875,1.1638,-10.2112,-10.369529259820748,-17.563622795252602,-96.53110130815413
-0.2985,-0.1778,0.885,-0.156,0.7473,0.332,-3.7713,1.3562,-10.5875,-11.357357594178396,-18.25807218674635,-96.58538617187202
-0.282,-0.1688,0.9182,-0.1591,0.7466,0.3271,-3.045,1.5137,-10.5175,-10.419071553809891,-16.8871488805851,-97.06293036610506
-0.2856,-0.1733,0.9167,-0.1621,0.7448,0.331,-2.17,1.1112,-10.3512,-10.704613034067098,-17.013732190493958,-97.20512693170996
-0.3025,-0.1811,0.9015,-0.1621,0.7448,0.331,-3.4038,1.96,-9.6862,-11.35725095329056,-18.14280277362217,-97.0531455970168
-0.2973,-0.1728,0.9127,-0.1596,0.7461,0.3329,-3.8063,1.6362,-10.1763,-10.722342993182835,-17.76919136486783,-96.78670319521848
-0.3009,-0.1731,0.9119,-0.1596,0.7461,0.3329,-3.7538,1.3562,-10.0975,-10.748141590781854,-17.951252822871094,-96.73339982382925
-0.2858,-0.1715,0.9215,-0.1598,0.7462,0.3378,-3.6575,1.0062,-10.9725,-10.543168682093818,-17.010141494412686,-96.86858939314999
-0.2835,-0.1735,0.9162,-0.1591,0.745,0.3324,-2.7213,1.225,-10.9375,-10.722647489939789,-16.916061408104266,-97.00484262717497
-0.3026,-0.1754,0.8997,-0.1591,0.745,0.3324,-2.9663,1.5575,-10.22,-11.030925685393887,-18.194594962316234,-96.70894264229985
-0.3013,-0.1794,0.9073,-0.1598,0.747,0.3334,-3.0625,1.7062,-10.0275,-11.184425742659236,-18.0527428826731,-96.8295559488758
-0.2979,-0.1696,0.9103,-0.1598,0.747,0.3334,-2.9575,0.8925,-10.535,-10.555401125947926,-17.84556541708366,-96.71453027874196
-0.2913,-0.1742,0.9124,-0.1587,0.7464,0.3258,-3.1238,0.8312,-10.8413,-10.808506688589983,-17.434559848833807,-97.00196392693238
-0.2885,-0.1741,0.9104,-0.1602,0.7446,0.3321,-3.7013,1.6013,-9.8612,-10.826183202322822,-17.296965598640636,-97.00917122718063
-0.2938,-0.1729,0.9193,-0.1602,0.7446,0.3321,-3.92,1.7325,-10.675,-10.652055196683714,-17.42891431891518,-96.92128015889571
-0.2973,-0.1738,0.9074,-0.1593,0.7452,0.3341,-3.3863,1.2862,-10.9462,-10.8424415477663,-17.815489261371997,-96.7504867779137
-0.2993,-0.1767,0.9084,-0.1593,0.7452,0.3341,-3.0363,1.2425,-10.5437,-11.007198406456398,-17.916400137002995,-96.7718833877232
-0.2961,-0.1758,0.9124,-0.1592,0.7453,0.335,-3.5875,1.68,-10.1237,-10.906263685977258,-17.688736912895546,-96.78558098470855
-0.2963,-0.1748,0.9166,-0.1595,0.746,0.3335,-3.5875,0.7263,-9.8875,-10.797197147943425,-17.620381576397055,-96.82399627196632
-0.3053,-0.1826,0.8674,-0.1595,0.746,0.3335,-3.4213,0.3413,-10.2637,-11.88538696404547,-18.933438037738046,-96.75311362220127
-0.2928,-0.1668,0.9362,-0.1594,0.7453,0.3326,-4.3225,2.0913,-10.3075,-10.106485480090592,-17.217029157435753,-96.80026176489238
-0.2941,-0.1738,0.9102,-0.1594,0.7453,0.3326,-3.1412,0.9363,-10.325,-10.808649097000364,-17.58764900120714,-96.84659887475246
-0.2954,-0.1758,0.914,-0.1597,0.7452,0.3299,-2.9225,1.5662,-10.5787,-10.887199245566608,-17.607124161185727,-96.94961325324618
-0.2871,-0.1704,0.9154,-0.1588,0.7439,0.3328,-3.1238,1.6975,-10.465,-10.545628435417004,-17.162559503594718,-96.8707109527326
-0.2977,-0.1765,0.9026,-0.1588,0.7439,0.3328,-3.4475,1.5487,-10.7712,-11.063115445354073,-17.893895987773792,-96.78522195529494
-0.2807,-0.1924,0.9045,-0.1594,0.7462,0.3334,-3.3775,1.2163,-11.1737,-12.006383601549668,-16.939928031153308,-97.3360360245114
-0.2327,-0.2039,0.8983,-0.1594,0.7462,0.3334,-4.3488,1.0587,-11.3837,-12.78667900596186,-14.32536022183507,-98.19022332196394
-0.0415,-0.1451,0.8947,-0.1616,0.7474,0.3292,-4.025,1.015,-10.3863,-9.220420215182678,-3.246982537655098,-100.88505064770497
-0.0906,-0.2243,0.941,-0.1579,0.7455,0.3318,0.8575,4.9175,-8.1375,-13.397141252293526,-5.2084853840060195,-100.1252935030229
-0.4372,-0.2697,1.0105,-0.1579,0.7455,0.3318,4.1125,4.6638,-10.2812,-14.940139527271562,-21.525844688160646,-96.80973449228244
-0.3808,-0.0927,0.8579,-0.1591,0.7445,0.3338,7.3763,1.8987,-3.8063,-6.187568747176115,-23.683905506885353,-93.23799937813834
-0.4312,0.0093,0.9636,-0.1591,0.7445,0.3338,-0.5862,-0.9275,8.0587,0.5369711190983699,-24.086493111464883,-90.46303540251046
-0.4475,-0.0564,0.9382,-0.159,0.7423,0.333,-7.945,-0.3413,14.7,-3.430599312700645,-25.391506057144593,-91.49071445420262
-0.4582,-0.1367,0.9406,-0.1608,0.741,0.3346,-9.0475,-5.2588,14.3762,-8.257346184735596,-25.723543806746555,-93.46491411249798
-0.3486,-0.2474,0.9503,-0.1608,0.741,0.3346,-7.7788,-8.2163,13.5362,-14.577109659194134,-19.765901884172788,-97.50736396782224
-0.3138,-0.2789,0.9559,-0.1591,0.7385,0.3346,-2.5288,-4.6287,10.57,-16.26147439114287,-17.58496926850851,-98.31847825438288
-0.3307,-0.2318,0.9506,-0.1591,0.7385,0.3346,7.35,1.995,11.235,-13.709863702254886,-18.612907101160484,-97.3427286318599
-0.3193,-0.1555,1.0327,-0.1574,0.7374,0.3335,9.6862,6.825,12.845,-8.574967551669614,-17.125598382366327,-96.31674426103068
-0.353,-0.0819,1.1391,-0.155,0.7332,0.3334,11.2525,15.5837,14.21,-4.122722587550955,-17.163960018539743,-94.95141840105595
-0.3612,-0.1138,1.2426,-0.155,0.7332,0.3334,11.6988,21.6912,12.5825,-5.23011623902241,-16.401391016494728,-95.6434698929126
-0.5409,-0.1685,1.067,-0.152,0.7293,0.3307,11.2175,30.5725,13.5887,-8.965365462086254,-25.80466417576554,-93.01256846055091
-0.5851,-0.3102,1.257,-0.152,0.7293,0.3307,8.2337,29.05,15.6625,-13.850987428428704,-24.450184359220692,-95.67363675391738
-0.72,-0.3686,1.289,-0.1474,0.7264,0.3246,10.3075,27.0287,13.4488,-15.953437303779264,-27.830645202579333,-95.56116261331192
-0.7914,-0.3662,1.1242,-0.1433,0.723,0.3281,15.0237,22.2775,10.8325,-18.037864721454106,-32.48532832062107,-95.07837175972762
-0.8386,-0.2885,1.1525,-0.1433,0.723,0.3281,21.2012,9.9925,10.2112,-14.062775469959858,-34.93602019784644,-92.55172146403889
-0.773,-0.1429,1.1757,-0.1435,0.7178,0.3271,23.765,-4.9088,10.4562,-6.945998121726221,-33.20481667083077,-89.24351974946624
-0.7637,-0.161,1.2038,-0.1435,0.7178,0.3271,19.6875,-17.6837,10.0537,-7.61619214822349,-32.18991675184278,-89.96498628046459
-0.6895,-0.1862,1.1905,-0.1462,0.7182,0.3264,6.4663,-32.6287,8.6712,-8.886350369760754,-29.824755383532448,-91.64548926142973
-0.6522,-0.1528,1.2224,-0.153,0.716,0.3288,2.9313,-45.7975,3.7013,-7.129160271303647,-27.927072572572193,-91.83849908157612
-0.644,-0.1291,1.2826,-0.153,0.716,0.3288,4.5237,-71.855,2.7913,-5.7509812853912194,-26.56091281606308,-91.74537623627054
-0.5831,-0.1283,1.2174,-0.1604,0.7141,0.3324,2.5375,-80.7188,2.1088,-6.015486249756583,-25.480890885888236,-92.67652434802153
-0.4876,-0.1443,1.2555,-0.1604,0.7141,0.3324,0.7788,-90.51,3.1675,-6.555201273175013,-21.13792436630802,-94.59786286394545
-0.4085,-0.2284,1.2094,-0.172,0.7158,0.3438,-3.2462,-95.2263,5.5125,-10.684696919809781,-18.38535873622709,-97.32634551357434
-0.3085,-0.3451,1.1357,-0.1826,0.7087,0.3366,1.575,-98.6738,6.0813,-16.88754007112326,-14.60132171797766,-100.76307433388774
-0.3062,-0.3762,1.0662,-0.1826,0.7087,0.3366,16.275,-101.7363,4.2525,-19.42916403555783,-15.149027679575584,-101.22856753780995
-0.1727,-0.1593,1.0877,-0.1938,0.7028,0.3418,28.7,-99.6888,7.2013,-8.356681199395798,-8.980259745892672,-101.73696085229895
-0.0855,-0.0441,1.2392,-0.1938,0.7028,0.3418,33.81,-93.5988,10.5962,-2.052010923699189,-3.988879186149229,-103.50022390495884
-0.0491,0.1315,1.1892,-0.2044,0.6934,0.3424,32.375,-89.3025,9.415,6.291649026402483,-2.365024237396152,-106.02329701655687
-0.0787,0.0867,1.1768,-0.2113,0.6831,0.3454,27.7375,-81.8738,5.915,4.218237236256425,-3.8014418079987786,-105.7172671938485
-0.0522,0.0129,1.2103,-0.2113,0.6831,0.3454,18.9088,-78.4525,3.2638,0.6188448743508137,-2.4830515247674474,-106.08530894266825
-0.0614,-0.133,0.9908,-0.2166,0.671,0.3443,18.9875,-75.3725,4.7512,-7.626658836422199,-3.5038005822742453,-105.77029617711345
-0.0353,-0.1347,0.9578,-0.2166,0.671,0.3443,46.48,-75.7663,12.7487,-8.004470795486865,-2.104951201496216,-106.2333152055545
-0.0267,-0.1796,0.8459,-0.2235,0.6564,0.338,62.51,-73.045,19.9237,-11.978717131139875,-1.7721157121374411,-106.97207518127423
0.0497,-0.2441,0.8285,-0.2336,0.6375,0.343,70.4375,-75.145,21.1487,-16.40748437907841,3.239911916514067,-108.84103925818876
0.0701,-0.283,0.756,-0.2336,0.6375,0.343,79.2663,-76.3088,21.3412,-20.51460774535861,4.945163769943378,-108.58482956325498
0.0674,-0.2059,0.7015,-0.2384,0.617,0.341,92.1725,-72.555,27.9913,-16.36578001159802,5.263760604130274,-110.07541635842185
0.0605,0.0367,0.6523,-0.2384,0.617,0.341,107.2488,-67.7688,34.0112,3.1832067938793367,5.290324785984059,-114.49320354784045
0.1478,0.2624,0.6202,-0.2461,0.5941,0.3423,110.3638,-65.5025,40.215,22.89561303237849,12.295551996604987,-130.81967488485617
0.2056,0.4629,0.581,-0.2502,0.5736,0.3414,98.5513,-59.1763,43.1987,38.515318317805686,15.430204287279969,-149.93076106631003
0.2072,0.5142,0.8118,-0.2502,0.5736,0.3414,69.5013,-55.2475,42.105,32.36300592141741,12.21136589010152,-140.80118815302785
0.2302,0.1693,0.8171,-0.2595,0.5574,0.3407,56.3763,-49.6212,39.8825,11.749003030047586,15.376211359061061,-127.75113157050183
0.2184,0.1856,0.9594,-0.2595,0.5574,0.3407,66.7363,-42.21,37.2487,10.950500016412152,12.643321966673053,-125.90165270974263
0.1602,0.1484,0.9506,-0.2618,0.5446,0.3354,68.9238,-37.59,34.4225,8.87716766085603,9.509149697924219,-123.87399348164851
0.1496,0.2549,0.9568,-0.2605,0.5302,0.3344,58.17,-17.7362,38.9813,14.905048898409188,8.616040909069948,-127.42648513569029
0.1398,0.2933,0.7956,-0.2605,0.5302,0.3344,43.575,-11.3662,39.2962,20.225090437309024,9.33813468075476,-131.50581787528952
0.2305,0.4701,0.5738,-0.2649,0.5183,0.3354,29.1375,-11.6988,35.875,39.284574652134246,17.00987248820041,-156.1948052041003
0.2931,0.3143,0.6711,-0.2649,0.5183,0.3354,5.565,-11.41,32.2612,25.12854179400331,21.432935299029612,-143.31323191252477
0.2539,0.1324,0.7362,-0.2652,0.5122,0.3402,-0.9187,-8.82,27.7987,10.230683970259912,18.842957679457676,-131.15872395788494
0.3297,0.1748,0.864,-0.2666,0.5066,0.3399,8.785,-12.1187,20.4312,11.434603016204676,20.454528022018426,-133.10007126798644
0.339,0.1713,0.957,-0.2666,0.5066,0.3399,5.7488,-8.6538,19.3987,10.151298768964361,19.266541029826353,-131.72610262340538
0.2646,-0.0127,0.9126,-0.265,0.5005,0.3357,2.0475,-0.0088,24.8325,-0.7714802023540044,16.324570376806804,-124.42053621073805
0.2426,-0.0022,0.7236,-0.265,0.5005,0.3357,9.135,4.6287,23.835,-0.17558392283420285,18.38820702472867,-125.48030686254403
-0.1808,-0.2181,0.9304,-0.1255,0.609,0.3814,-4.8213,2.1613,-8.434,-13.161604941008273,-9.056800306176342,-96.7465919929929
-0.1808,-0.2181,0.9304,-0.1255,0.609,0.3814,-4.8213,2.1613,-8.4875,-13.192725007615014,-10.619202877687338,-96.72011544975129
-0.1865,-0.2151,0.9205,-0.1258,0.6101,0.3818,-4.41,1.4175,-9.2837,-13.152809606982512,-11.131108232633867,-96.56179371952246
-0.186,-0.2097,0.9256,-0.1258,0.6101,0.3818,-4.3663,1.155,-10.0275,-12.766125659293973,-11.090805453786102,-96.5297759927815
-0.1819,-0.2062,0.9293,-0.1262,0.6086,0.3842,-4.1213,0.245,-10.6312,-12.511139083956289,-10.832282732042696,-96.59381747323596
-0.1756,-0.2088,0.9296,-0.1285,0.6113,0.3805,-4.41,0.4987,-10.535,-12.658907737856563,-10.463046591159936,-96.99058291496345
-0.1701,-0.225,0.9312,-0.1285,0.6113,0.3805,-3.9025,0.56,-10.7975,-13.581454585637102,-10.088978449624697,-97.24981629870585
-0.1698,-0.2341,0.9374,-0.1328,0.607,0.3798,-3.3163,0.21,-10.57,-14.020809305070289,-9.973713925377275,-97.73304411334517
-0.1657,-0.2369,0.934,-0.1328,0.607,0.3798,-1.855,0.4288,-10.9987,-14.231873734593618,-9.768572302912013,-97.83222303528588
-0.1655,-0.2339,0.9316,-0.1276,0.6092,0.3842,-0.91,1.0325,-10.9025,-14.094440655556344,-9.775859348175702,-97.2994169128816
-0.1647,-0.2236,0.9344,-0.1283,0.6086,0.3807,-0.0088,1.4962,-11.62,-13.459201730678076,-9.729934922424649,-97.35440580828524
-0.1754,-0.1992,0.9273,-0.1283,0.6086,0.3807,-0.0263,1.4875,-12.145,-12.127033171671732,-10.43649082132232,-96.90354569958977
-0.1693,-0.1942,0.934,-0.1294,0.6084,0.3816,-1.3037,0.945,-11.4275,-11.746655945782127,-10.083247561859285,-97.09126739713368
-0.1627,-0.1979,0.9296,-0.1294,0.6084,0.3816,-2.1088,0.1312,-10.9375,-12.017481167436578,-9.732881400018561,-97.26098541940817
-0.1542,-0.2001,0.9263,-0.1285,0.6082,0.3858,-2.9663,-0.42,-10.0362,-12.189356818128248,-9.266283230060159,-97.32512866095792
-0.1529,-0.2027,0.9277,-0.1278,0.6092,0.381,-4.0163,-0.0525,-8.7675,-12.324947238123713,-9.15313336656199,-97.38457208295787
-0.1494,-0.2069,0.9295,-0.1278,0.6092,0.381,-4.7337,0.4987,-7.4988,-12.548502131235114,-8.928853439100092,-97.49521487649349
-0.1501,-0.2092,0.925,-0.1285,0.6102,0.3795,-5.11,0.8225,-7.4113,-12.743277936497902,-8.990335554192876,-97.55975866851671
-0.1503,-0.2115,0.9249,-0.1285,0.6102,0.3795,-4.935,1.19,-6.335,-12.880223196109231,-9.00109200507012,-97.57176773608394
-0.15,-0.2112,0.9206,-0.1289,0.6076,0.381,-3.8413,1.5312,-6.7463,-12.920861622727058,-9.0226196428102,-97.59859040855703
-0.1498,-0.2126,0.9299,-0.1292,0.6074,0.383,-2.9488,1.8637,-6.6238,-12.878115187081638,-8.930343963636233,-97.62642290425667
-0.1477,-0.2147,0.9275,-0.1292,0.6074,0.383,-2.275,2.73,-6.72,-13.03304071819507,-8.825296125504279,-97.68185843365839
-0.1405,-0.213,0.932,-0.1319,0.6083,0.3813,-2.1175,3.4913,-7.245,-12.873712562562934,-8.389083372912967,-98.07213767104751
-0.1421,-0.2134,0.9289,-0.1319,0.6083,0.3813,-2.1525,3.815,-6.895,-12.938140059993803,-8.474216752848172,-98.03509560695139
-0.1517,-0.2104,0.9234,-0.1276,0.6077,0.3789,-2.7213,4.34,-6.5713,-12.836151916264978,-9.059576872987941,-97.48624824111788
-0.1644,-0.2113,0.9206,-0.1264,0.605,0.3804,-2.7475,4.9875,-6.8775,-12.92665510310766,-9.81838223600774,-97.1098151064925
-0.1727,-0.2092,0.9192,-0.1264,0.605,0.3804,-3.045,4.7075,-6.825,-12.821758187700045,-10.343778712061505,-96.90712893758118
-0.1852,-0.2115,0.9201,-0.1252,0.6074,0.381,-4.165,4.3663,-7.1838,-12.945193711911868,-11.049449332634293,-96.53408916373029
-0.1856,-0.2189,0.9258,-0.1252,0.6074,0.381,-4.76,3.9288,-8.6625,-13.30208241788982,-11.040133239846218,-96.60917504606854
-0.1848,-0.2231,0.9226,-0.1258,0.6061,0.3894,-5.4075,2.6688,-9.6425,-13.593406931679054,-11.018552548296256,-96.56859366965703
-0.1819,-0.2255,0.9215,-0.1255,0.6088,0.381,-5.0138,1.855,-9.275,-13.750232300721118,-10.863256833895186,-96.75859700002063
-0.1727,-0.2286,0.926,-0.1255,0.6088,0.381,-3.92,1.4787,-9.87,-13.866958662243222,-10.29597117352359,-96.98331662771842
-0.1573,-0.2264,0.9299,-0.1285,0.6078,0.3804,-3.2813,1.855,-10.7275,-13.683851030284718,-9.38736194322843,-97.54749234694027
-0.1615,-0.2222,0.9238,-0.1285,0.6078,0.3804,-3.185,2.1875,-10.0887,-13.524728841268175,-9.631801922908585,-97.41841800553959
-0.1686,-0.2205,0.9245,-0.1264,0.6075,0.3825,-3.2813,2.59,-10.2812,-13.415100930571091,-10.034287948172375,-97.05307379524315
-0.1804,-0.2218,0.9287,-0.124,0.6064,0.3787,-2.065,3.1588,-10.3162,-13.432207631191384,-10.659010060587418,-96.69963549086128
-0.1874,-0.2233,0.9251,-0.124,0.6064,0.3787,-1.6712,2.975,-10.7275,-13.570105616544652,-11.111288445615736,-96.56212376705898
-0.1881,-0.223,0.9249,-0.127,0.6075,0.3802,-0.9275,3.0713,-11.62,-13.555732387315134,-11.17925732157519,-96.75581563649747
-0.1813,-0.2191,0.9284,-0.127,0.6075,0.3802,0.7788,2.275,-11.41,-13.279351107702398,-10.785297541244683,-96.8674439723004
-0.1784,-0.2201,0.9314,-0.1261,0.6077,0.3805,-0.0875,1.8112,-10.9637,-13.295671454643962,-10.571696000348403,-96.8633734408862
-0.1746,-0.2145,0.9301,-0.1267,0.6062,0.377,-0.5513,1.6538,-12.0312,-12.987251680391752,-10.377348407102824,-97.00930428737325
-0.1729,-0.213,0.9292,-0.1267,0.6062,0.377,-1.1812,0.7175,-10.7537,-12.911007629677705,-10.28510387128671,-97.03063183716789
-0.1754,-0.2043,0.9313,-0.1266,0.607,0.3799,-2.2662,0.5775,-10.955,-12.374307638143693,-10.416590125695011,-96.8419743774532
-0.1771,-0.2016,0.9325,-0.1266,0.607,0.3799,-2.8087,0.0875,-10.4475,-12.199617172468182,-10.511099333108563,-96.78280650312455
-0.1812,-0.2047,0.9267,-0.1267,0.6072,0.381,-3.6138,-0.6563,-10.5262,-12.455508546657896,-10.794752381113215,-96.69488217336952
-0.1864,-0.206,0.9308,-0.1282,0.6054,0.3807,-3.6138,-0.3938,-10.8675,-12.479207434958642,-11.049927847064636,-96.74118513860655
-0.1868,-0.2064,0.9305,-0.1282,0.6054,0.3807,-3.885,-0.8138,-10.08,-12.506573120726893,-11.086876639900346,-96.73553934050686
-0.1757,-0.2077,0.9257,-0.1266,0.605,0.3816,-3.885,-1.0062,-10.1675,-12.645729033948214,-10.520864906528065,-96.83720677543094
-0.1692,-0.2061,0.9313,-0.1266,0.605,0.3816,-3.5263,-1.225,-10.3337,-12.479038319075341,-10.08107848711018,-96.97941920875998
-0.1618,-0.2046,0.9351,-0.1272,0.6056,0.3807,-2.2225,-1.12,-11.1825,-12.342155010049256,-9.617430295375804,-97.19932417869533
-0.1617,-0.2013,0.9307,-0.1272,0.6042,0.3804,-2.6863,-1.2687,-11.48,-12.20477082851178,-9.636700305157483,-97.1815555112273
-0.1656,-0.1969,0.9294,-0.1272,0.6042,0.3804,-3.2375,-0.0263,-10.1763,-11.962231813465536,-9.875196386353167,-97.05520265190398
-0.1659,-0.1995,0.9268,-0.127,0.6048,0.3821,-3.3775,-0.2275,-9.9663,-12.147499259614413,-9.92340711144143,-97.0149745253011
-0.1694,-0.2067,0.9273,-0.127,0.6048,0.3821,-3.3425,-0.4375,-9.2312,-12.56509344740172,-10.100625134825005,-96.99762424015663
-0.1655,-0.2111,0.9245,-0.1269,0.6052,0.3798,-3.115,-0.3675,-9.3187,-12.861670448016012,-9.909762417543536,-97.1411056394418
-0.1633,-0.2143,0.9288,-0.1279,0.605,0.381,-2.9838,-0.0438,-9.4587,-12.992052296266518,-9.730914025909218,-97.28751278559902
-0.1581,-0.2125,0.9274,-0.1279,0.605,0.381,-3.4038,-0.4987,-9.7125,-12.905902867408514,-9.4492909189585,-97.38323922031819
-0.156,-0.2097,0.9257,-0.129,0.6053,0.3831,-3.4475,-0.35,-9.4237,-12.764203253092393,-9.339271164036276,-97.46000618851984
-0.1563,-0.2112,0.9276,-0.129,0.6053,0.3831,-4.2263,0.21,-9.1525,-12.826540241753671,-9.330510072541244,-97.4685123281716
-0.1604,-0.2095,0.9246,-0.1286,0.6056,0.3766,-4.8038,0.035,-9.275,-12.766906293147395,-9.589183297482094,-97.42793962615706
-0.1623,-0.2084,0.9232,-0.1256,0.6053,0.381,-4.7512,0.0,-9.4762,-12.720656953066031,-9.723630485905632,-97.05947228138605
-0.156,-0.2178,0.9279,-0.1256,0.6053,0.381,-5.39,0.3237,-9.3625,-13.208367679845999,-9.31743643711569,-97.27796666307505
-0.154,-0.21,0.9256,-0.1277,0.6045,0.3801,-4.7512,0.2013,-9.3537,-12.78387981348598,-9.221392041740085,-97.45145298990303
-0.1592,-0.2031,0.9226,-0.1277,0.6045,0.3801,-3.1937,1.1725,-9.7125,-12.415881010902485,-9.547098890641466,-97.2782160283203
-0.1558,-0.203,0.9315,-0.127,0.6062,0.3838,-4.3313,1.4262,-9.4062,-12.294428598080682,-9.295839408227641,-97.24405789189437
-0.1502,-0.2078,0.9384,-0.1291,0.6042,0.3816,-4.4363,2.1613,-9.52,-12.48567368641069,-8.905560783909412,-97.63953304011693
-0.1516,-0.22,0.9311,-0.1291,0.6042,0.3816,-4.7337,2.4237,-8.995,-13.292077115016609,-8.998264261652405,-97.68046024167346
-0.1553,-0.2269,0.934,-0.1318,0.606,0.3834,-4.0163,2.7825,-8.82,-13.653689789009144,-9.167602503092148,-97.83638068765141
-0.1631,-0.227,0.9252,-0.1318,0.606,0.3834,-2.6075,2.8963,-9.1175,-13.785030627781952,-9.682777124907338,-97.66003353277355
-0.1731,-0.2207,0.9234,-0.1303,0.6077,0.387,-3.045,3.3863,-10.0275,-13.442798677577528,-10.293117756386984,-97.19874071823531
-0.1757,-0.218,0.932,-0.1296,0.6062,0.3806,-3.0975,2.3625,-10.5,-13.165775451907065,-10.395425515125606,-97.19736668644222
-0.1704,-0.2116,0.9292,-0.1296,0.6062,0.3806,-2.8612,2.2225,-10.57,-12.829586674314854,-10.152415210364106,-97.25038364282612
-0.1606,-0.209,0.931,-0.1274,0.6052,0.3817,-3.5438,2.0038,-10.185,-12.652979445833296,-9.587871426182236,-97.25518009280599
-0.1527,-0.2085,0.9301,-0.1274,0.6052,0.3817,-3.9638,2.0825,-9.9575,-12.635123927255096,-9.129019898868117,-97.42309383922364
-0.1559,-0.21,0.9272,-0.128,0.6071,0.3885,-4.5938,2.2662,-9.5025,-12.76122202896219,-9.302355388127824,-97.2880269924628
-0.17,-0.2102,0.9274,-0.1267,0.6041,0.3814,-4.1038,2.9313,-9.4062,-12.770593295641456,-10.086271867859878,-97.00628301145017
-0.1809,-0.2133,0.9243,-0.1267,0.6041,0.3814,-4.2175,2.5988,-10.2987,-12.994080711387767,-10.755385858957785,-96.78929771100482
-0.1891,-0.2158,0.921,-0.1265,0.6048,0.3811,-4.2613,2.5375,-10.7887,-13.186647298294822,-11.272797693007089,-96.61391858586063
-0.1929,-0.2153,0.921,-0.1265,0.6048,0.3811,-2.8,1.645,-10.9375,-13.157688574501812,-11.513185259866797,-96.52679916701433
-0.1886,-0.2126,0.9221,-0.1278,0.606,0.3755,-2.5375,0.56,-10.9987,-12.98368688663773,-11.284208337759091,-96.79590445193912
-0.1792,-0.2117,0.9262,-0.1271,0.6068,0.3811,-1.9425,0.4638,-11.6287,-12.875092660827073,-10.712627458933099,-96.83630904810337
-0.1662,-0.2153,0.9312,-0.1271,0.6068,0.3811,-2.52,0.2713,-11.0425,-13.018089441803697,-9.908224137516813,-97.15762619226645
-0.1624,-0.2128,0.9271,-0.1275,0.6059,0.3802,-2.5375,0.0613,-10.325,-12.927562804451982,-9.69986103099845,-97.26513318662727
-0.1635,-0.2142,0.933,-0.1275,0.6059,0.3802,-3.0363,0.0788,-10.3512,-12.930009880449706,-9.692840412031142,-97.26417084919792
-0.1606,-0.2147,0.9307,-0.1283,0.6064,0.3813,-2.905,0.21,-10.5175,-12.989977214790843,-9.552163313642456,-97.37032496425655
-0.1649,-0.2166,0.927,-0.1264,0.6054,0.3814,-3.5788,0.1575,-10.325,-13.151219786948392,-9.81320067552101,-97.13596323056697
-0.162,-0.2109,0.9324,-0.1264,0.6054,0.3814,-4.5237,0.7788,-10.0187,-12.746261562700699,-9.628495282641557,-97.1630947801735
-0.1651,-0.2153,0.9262,-0.1287,0.6076,0.3816,-4.4625,0.595,-10.2812,-13.085483016044478,-9.838271879050525,-97.28914970004537
-0.1652,-0.2198,0.9267,-0.1287,0.6076,0.3816,-4.9088,1.2425,-9.7562,-13.34255373821756,-9.840204169212269,-97.32480771111457
-0.1681,-0.2181,0.9243,-0.1261,0.6064,0.3794,-4.6813,1.0587,-9.9137,-13.276950439167528,-10.027168066212033,-97.07665875166008
-0.1716,-0.2156,0.924,-0.128,0.6049,0.3811,-3.6925,0.595,-10.0625,-13.13436389936116,-10.239760499502726,-97.1174346619438
-0.1724,-0.2109,0.9234,-0.128,0.6049,0.3811,-3.4563,-0.3588,-10.955,-12.86604029833273,-10.3119435848341,-97.05793187840882
-0.1632,-0.2104,0.931,-0.1299,0.6047,0.3824,-2.5988,-0.0788,-10.8937,-12.7348688611046,-9.733555422602308,-97.40728587469792
-0.1595,-0.2127,0.9263,-0.1299,0.6047,0.3824,-2.5025,0.1225,-11.2087,-12.931789790928761,-9.537313932255277,-97.49691085095178
-0.1572,-0.2117,0.9368,-0.1287,0.6067,0.391,-1.8637,0.4025,-11.515,-12.734399987651223,-9.308137631585124,-97.31330171311939
-0.1526,-0.2117,0.9313,-0.1278,0.6048,0.381,-2.38,0.91,-11.0337,-12.806487093573457,-9.090259412832516,-97.49745754962485
-0.1633,-0.2108,0.9299,-0.1278,0.6048,0.381,-2.5638,0.9887,-10.7975,-12.772651756609859,-9.684941073293704,-97.25533168027798
-0.1664,-0.2103,0.9288,-0.1271,0.6054,0.381,-2.9138,1.12,-10.7187,-12.757899586123727,-9.89922573795737,-97.11930684720566
-0.172,-0.21,0.9267,-0.1271,0.6054,0.381,-2.975,1.3562,-9.9925,-12.768160055819331,-10.24065220286935,-96.99001431291563
-0.175,-0.2092,0.9216,-0.1314,0.6049,0.3817,-3.1325,1.2425,-10.8238,-12.789167105636276,-10.477439403558991,-97.25107540132893
-0.1749,-0.2094,0.9259,-0.1304,0.6045,0.3819,-3.9988,0.6125,-10.4125,-12.743646531844119,-10.441335630129876,-97.18181956957804
-0.1628,-0.2136,0.9236,-0.1304,0.6045,0.3819,-4.2438,0.14,-9.5987,-13.021132162206852,-9.780148813479828,-97.47716722462927
-0.1584,-0.2158,0.9252,-0.1296,0.6047,0.3823,-3.9638,0.1575,-9.9488,-13.129065039010772,-9.481959062442952,-97.5194283419161
-0.1527,-0.214,0.9277,-0.1296,0.6047,0.3823,-4.0075,0.5688,-9.3887,-12.989988421720822,-9.131296553497286,-97.63415075511097
-0.1469,-0.2133,0.9281,-0.1282,0.607,0.3854,-4.1737,0.8225,-9.6337,-12.943318932804244,-8.788410977657556,-97.57631615798144
-0.1515,-0.2106,0.9313,-0.1281,0.6052,0.382,-4.4187,1.2425,-9.6337,-12.742774642997132,-9.003620978540392,-97.52016704166776
-0.1588,-0.2073,0.9298,-0.1281,0.6052,0.382,-4.1737,1.5575,-9.8087,-12.569018620657381,-9.438656116257173,-97.33246660986543
-0.1711,-0.2039,0.9238,-0.1285,0.6052,0.381,-3.6575,1.75,-9.8437,-12.446986214518052,-10.20647756214931,-97.0676409392493
-0.1741,-0.204,0.9274,-0.1285,0.6052,0.381,-2.94,1.68,-10.0975,-12.405866838965206,-10.379403938347386,-97.00937106676469
-0.1646,-0.204,0.9261,-0.1288,0.6069,0.3806,-2.6688,1.82,-10.6487,-12.42260264627543,-9.876650140003392,-97.23720121261616
-0.1631,-0.2082,0.9222,-0.1298,0.6044,0.3824,-2.9925,1.3737,-10.4825,-12.72135281835004,-9.793010605685108,-97.36778333011522
-0.1599,-0.2124,0.929,-0.1298,0.6044,0.3824,-2.5463,1.3387,-11.4275,-12.877976605045244,-9.539562075983431,-97.48528543453882
-0.1581,-0.2152,0.9305,-0.128,0.6048,0.3805,-4.0075,1.225,-10.2287,-13.021701303862594,-9.407029093628385,-97.42750364621111
-0.1634,-0.2137,0.9236,-0.128,0.6048,0.3805,-4.5588,2.415,-10.5787,-13.027671912193423,-9.758051060658962,-97.28842136963235
-0.1672,-0.2118,0.9273,-0.1291,0.6056,0.3814,-4.3838,2.135,-9.8175,-12.866328754780552,-9.95765844243879,-97.26770640400389
-0.1771,-0.2067,0.9215,-0.1282,0.6046,0.3805,-5.1275,1.9337,-9.8175,-12.643186680223728,-10.583856893235838,-96.9417200221796
-0.1898,-0.2056,0.9307,-0.1282,0.6046,0.3805,-5.4425,1.0237,-10.5787,-12.4575327864097,-11.225815996444888,-96.67053482447426
-0.1841,-0.2175,0.9265,-0.1262,0.6066,0.3825,-5.6875,-0.07,-10.1325,-13.209407994379134,-10.962416122655902,-96.68888849650455
-0.171,-0.223,0.9269,-0.1262,0.6066,0.3825,-5.7575,-0.525,-10.465,-13.52676059887107,-10.208069383968944,-97.01722740701229
-0.1565,-0.2253,0.9328,-0.1292,0.6057,0.3826,-4.4625,-1.0675,-10.7712,-13.578515777755142,-9.308003988544689,-97.5993920232588
-0.148,-0.2264,0.9346,-0.1306,0.6054,0.3816,-3.8238,-0.9363,-10.29,-13.617076207523343,-8.7764968629193,-97.91916392039397
-0.1491,-0.2212,0.9273,-0.1306,0.6054,0.3816,-2.975,-0.1575,-9.6425,-13.417197848736686,-8.883449805723012,-97.84869557570137
-0.152,-0.2172,0.9295,-0.1301,0.6057,0.3814,-2.7475,1.0587,-9.9663,-13.153163962423434,-9.038959460407858,-97.722642693363
-0.1585,-0.2212,0.9378,-0.1301,0.6057,0.3814,-2.485,1.4525,-9.0738,-13.271562255121461,-9.324863506337357,-97.62909108425306
-0.1563,-0.2188,0.9302,-0.1287,0.6063,0.3847,-2.7388,1.7675,-8.6363,-13.236483886109886,-9.291277542913786,-97.47322883715862
-0.161,-0.2076,0.9238,-0.1322,0.6058,0.383,-2.1963,1.6887,-8.5312,-12.666689289836679,-9.630342634882966,-97.5903097194996
-0.1663,-0.1998,0.9319,-0.1322,0.6058,0.383,-2.4237,1.645,-7.9538,-12.102402919865236,-9.882952217120287,-97.42792733701408
-0.1623,-0.2039,0.9299,-0.1288,0.6054,0.3825,-3.5438,1.26,-8.4787,-12.366932533701588,-9.686286995076278,-97.27669555086041
-0.1546,-0.2118,0.932,-0.1288,0.6054,0.3825,-3.5613,0.98,-8.9862,-12.802160867717976,-9.214886947281622,-97.51068503051508
-0.1435,-0.2247,0.9304,-0.1306,0.6059,0.379,-4.97,1.8637,-8.5312,-13.575598674707914,-8.565064024031031,-98.02810335701294
-0.1428,-0.2317,0.9288,-0.1296,0.6067,0.3814,-4.585,2.1438,-8.6012,-14.006176422957182,-8.489119245910027,-97.96240228669234
-0.1502,-0.2291,0.9287,-0.1296,0.6067,0.3814,-3.8675,2.7125,-9.0562,-13.8579087409753,-8.898394913813503,-97.79422761642907
-0.184,-0.2106,0.93,-0.1301,0.6075,0.3808,-3.7625,3.0013,-9.555,-12.762148014941603,-10.800795855808548,-96.97745589881795
-0.19,-0.207,0.9279,-0.1301,0.6075,0.3808,-3.5088,3.0888,-9.8175,-12.576317714931045,-11.271610036001814,-96.8063044498369
-0.1877,-0.2017,0.9284,-0.1294,0.6071,0.3898,-3.36,3.01,-10.1675,-12.258104997848273,-11.181558614912442,-96.59023339632706
-0.1779,-0.2021,0.9341,-0.1299,0.6038,0.3809,-3.2375,1.9862,-10.4387,-12.208347914996347,-10.580474093769212,-97.04949034732445
-0.1676,-0.2032,0.9293,-0.1299,0.6038,0.3809,-3.5088,1.26,-11.4012,-12.333822159784793,-10.02412994509174,-97.27934192681971
-0.1635,-0.2062,0.9274,-0.13,0.6054,0.3803,-4.4625,1.0412,-10.9375,-12.534866540086275,-9.778645880298036,-97.39702367782543
-0.167,-0.2065,0.9281,-0.13,0.6054,0.3803,-4.2788,1.4088,-12.3112,-12.543819517361037,-9.951948830484804,-97.3238040415679
-0.1796,-0.2083,0.9239,-0.1277,0.6064,0.3804,-4.025,1.575,-12.5125,-12.70493362405855,-10.694408704789955,-96.85563433500849
-0.1896,-0.2139,0.9237,-0.1294,0.6059,0.3803,-4.1213,1.2425,-12.565,-13.037301783656524,-11.27506290206568,-96.83547605165516
-0.1898,-0.2191,0.922,-0.1294,0.6059,0.3803,-4.445,0.805,-12.145,-13.36678057137073,-11.322674989964774,-96.87948665157931
-0.1829,-0.224,0.9207,-0.1277,0.6091,0.3822,-4.6112,0.4725,-13.1162,-13.673270750216027,-10.945677844482393,-96.8783380110783
-0.1734,-0.2259,0.9205,-0.1277,0.6091,0.3822,-5.6613,-0.035,-13.0987,-13.788188602185482,-10.396717444288656,-97.09271196274022
-0.1688,-0.2247,0.9314,-0.1299,0.6086,0.3812,-4.97,-0.9275,-13.0113,-13.563957453508706,-10.011336893790123,-97.39545754858754
-0.1662,-0.2203,0.9303,-0.1318,0.6065,0.3829,-5.215,-1.4,-12.9062,-13.323115277065636,-9.869048788293336,-97.55451355207636
-0.1621,-0.2178,0.9291,-0.1318,0.6065,0.3829,-5.2063,-1.5487,-12.1012,-13.193388753770721,-9.651270626810005,-97.61992603695194
-0.1591,-0.2189,0.9256,-0.1301,0.6081,0.3825,-5.0575,-1.1638,-11.655,-13.305442497776658,-9.503616919627932,-97.5412300569156
-0.1511,-0.2225,0.9254,-0.1301,0.6081,0.3825,-4.7163,-0.6475,-11.2962,-13.518869568019564,-9.04448535665336,-97.73608702735605
-0.1476,-0.2206,0.9252,-0.1282,0.6094,0.3877,-4.8387,-0.5075,-10.8062,-13.41117398573417,-8.832011500428743,-97.5535059543464
-0.1495,-0.2211,0.9265,-0.1292,0.6085,0.3822,-4.7512,-0.1312,-10.3512,-13.422008508624167,-8.915527502695,-97.6895244347422
-0.1546,-0.228,0.9234,-0.1292,0.6085,0.3822,-4.1213,0.0788,-9.6337,-13.868615407156796,-9.216176106289305,-97.62883121928827
-0.1554,-0.2275,0.9271,-0.131,0.609,0.3828,-3.9113,0.5163,-9.73,-13.787510899972904,-9.244509532576181,-97.74780446639792
-0.1571,-0.2267,0.9236,-0.131,0.609,0.3828,-3.8588,0.6475,-10.535,-13.790752745657896,-9.37298235438728,-97.70115730364397
-0.1577,-0.2259,0.9256,-0.1291,0.6081,0.3747,-3.4213,0.7175,-10.3775,-13.715548336887883,-9.39693403105626,-97.66551071578024
-0.1561,-0.223,0.926,-0.1299,0.6089,0.3829,-3.71,0.735,-10.1763,-13.540607628583995,-9.312127086432097,-97.60769383588357
-0.1449,-0.2182,0.9299,-0.1299,0.6089,0.3829,-3.1412,0.8487,-10.6312,-13.206285118756025,-8.662492982531928,-97.81608958230956
-0.1433,-0.215,0.9253,-0.1306,0.6091,0.383,-3.5613,1.3475,-10.395,-13.081262842754988,-8.58296728154454,-97.87517347915673
-0.1444,-0.2146,0.9279,-0.1306,0.6091,0.383,-3.8937,1.8375,-8.8812,-13.02226414272188,-8.61926796106562,-97.85370063601485
-0.1506,-0.2153,0.9263,-0.1306,0.6102,0.3812,-5.0575,2.3275,-9.0037,-13.084782785125698,-8.976881174503042,-97.7410683040871
-0.1538,-0.2165,0.9263,-0.1324,0.6099,0.3826,-3.8763,2.7913,-10.15,-13.155165155954037,-9.171847063824769,-97.80927252560159
-0.1649,-0.2169,0.9263,-0.1324,0.6099,0.3826,-4.1737,2.3888,-10.36,-13.178735271715622,-9.7953098252915,-97.57604425417684
-0.1651,-0.2199,0.9251,-0.1305,0.6098,0.3834,-4.5062,2.03,-9.9925,-13.370822837971666,-9.8469336865292,-97.42681954200462
-0.1641,-0.2247,0.9265,-0.1305,0.6098,0.3834,-4.3313,1.6712,-10.6312,-13.63185527719804,-9.770976122419388,-97.48900822193711
-0.1637,-0.2237,0.9215,-0.1301,0.609,0.381,-4.0338,1.6187,-11.4362,-13.6449356570171,-9.793210292804845,-97.4927693352014
-0.1607,-0.223,0.9248,-0.1309,0.6095,0.3826,-3.5,1.5925,-11.8037,-13.557319683260248,-9.599508683275547,-97.59097080544647
-0.1563,-0.2205,0.9273,-0.1309,0.6095,0.3826,-3.045,1.7062,-11.3837,-13.376223214406998,-9.328495973742225,-97.66848592189245
-0.1585,-0.2192,0.926,-0.131,0.611,0.3788,-2.975,2.065,-10.9025,-13.317886709252972,-9.449305224987256,-97.66654136180895
-0.1597,-0.2176,0.9305,-0.131,0.611,0.3788,-2.8612,2.0563,-10.8062,-13.162615001305818,-9.485391173704835,-97.63727255503129
-0.1604,-0.2176,0.931,-0.1328,0.6102,0.3813,-3.465,1.8812,-10.4125,-13.15543796534537,-9.52147564890595,-97.73668388517696
-0.1544,-0.2207,0.9303,-0.1293,0.611,0.3832,-3.5088,1.9512,-10.2112,-13.345406307725703,-9.192857312032915,-97.56428653630608
-0.1551,-0.2193,0.9297,-0.1293,0.611,0.3832,-3.8063,1.8812,-9.4937,-13.272635762164901,-9.221062246369387,-97.53807920528598
-0.1595,-0.2179,0.9306,-0.1306,0.6097,0.3814,-3.5525,1.6187,-9.2575,-13.178615581876471,-9.460293242043107,-97.58019152969132
-0.1644,-0.2161,0.9251,-0.1306,0.6097,0.3814,-4.8387,2.2488,-8.4962,-13.148386712820521,-9.797440205290435,-97.45209491224024
-0.1731,-0.2165,0.9242,-0.1294,0.61,0.3802,-4.6287,2.0475,-8.3037,-13.184097176471273,-10.304511674582686,-97.1890957808178
-0.1724,-0.2194,0.9305,-0.1305,0.61,0.3823,-4.305,1.4875,-8.6012,-13.267087955016885,-10.226884497577572,-97.29499121128866
-0.1714,-0.2212,0.9251,-0.1305,0.61,0.3823,-4.76,0.63,-8.6712,-13.44703661903398,-10.215566275929232,-97.32149860119091
-0.1673,-0.2225,0.9298,-0.1291,0.6125,0.3825,-4.0513,0.84,-8.7675,-13.457712521174594,-9.941068449058188,-97.2921781925382
-0.1636,-0.2244,0.9234,-0.1291,0.6125,0.3825,-4.2,0.3675,-8.8287,-13.658475101677316,-9.777244544911417,-97.3732569147518
-0.1621,-0.2224,0.9243,-0.1284,0.6098,0.3806,-3.8413,0.4112,-8.8725,-13.529329883199324,-9.681637802743346,-97.38250262421043
-0.163,-0.2235,0.9313,-0.1288,0.6094,0.3831,-3.78,0.42,-9.275,-13.495117198752467,-9.659910670898126,-97.38012737395087
-0.1593,-0.2245,0.9247,-0.1288,0.6094,0.3831,-4.5413,1.2075,-9.8525,-13.645961213480804,-9.512132219273111,-97.45364016139405
-0.1585,-0.2251,0.928,-0.1304,0.609,0.3839,-3.92,1.5662,-10.5962,-13.634620297523394,-9.429107394059839,-97.60104441416158
-0.1566,-0.2273,0.9276,-0.1304,0.609,0.3839,-3.0013,1.0062,-10.5,-13.768195452934137,-9.318273285820998,-97.65652599878453
-0.1539,-0.2264,0.9234,-0.1294,0.611,0.3896,-3.7975,1.6362,-10.535,-13.776056806901229,-9.20166615476424,-97.51510614815706
-0.153,-0.2231,0.9202,-0.1297,0.6102,0.3832,-3.6663,1.75,-10.675,-13.628595552194428,-9.180174915672568,-97.63241866826691
-0.1556,-0.2245,0.9218,-0.1297,0.6102,0.3832,-4.375,1.785,-10.5175,-13.687501067859815,-9.306493388159678,-97.59155191901911
-0.1624,-0.2301,0.9252,-0.1312,0.6102,0.3826,-3.7888,1.5925,-10.7625,-13.96561352224029,-9.647130923859304,-97.63183165621783
-0.1615,-0.2251,0.9202,-0.1312,0.6102,0.3826,-3.7188,1.4962,-10.6837,-13.746324465977073,-9.673191430441548,-97.6023529471717
-0.1552,-0.2219,0.9271,-0.1311,0.6102,0.3838,-3.7713,1.3737,-10.4038,-13.461116597836929,-9.27015310062296,-97.69388508521556
-0.1548,-0.2214,0.9228,-0.129,0.6103,0.3849,-3.9375,2.0825,-11.0162,-13.491433593051015,-9.264874936212966,-97.50276260998416
-0.1523,-0.2254,0.9276,-0.129,0.6103,0.3849,-4.0163,2.2838,-10.3075,-13.657353721121172,-9.076297218731257,-97.59256598787208
-0.1543,-0.2327,0.9276,-0.1299,0.6103,0.3836,-3.815,2.1963,-9.8787,-14.081724557337429,-9.160257899310094,-97.69781390044498
-0.159,-0.2382,0.9271,-0.1299,0.6103,0.3836,-4.0075,2.6688,-9.4325,-14.40856095774619,-9.415267732919618,-97.64459984329855
-0.1665,-0.2356,0.9257,-0.1297,0.6112,0.3829,-2.9488,2.9138,-9.4325,-14.27950197704688,-9.859618429977422,-97.4613885029788
-0.1706,-0.2323,0.9287,-0.1274,0.6092,0.3826,-2.0913,3.0888,-10.535,-14.044063309226464,-10.089734187735363,-97.188109009557
-0.175,-0.2281,0.9257,-0.1274,0.6092,0.3826,-1.3737,3.395,-10.7887,-13.842866197856942,-10.38211739109989,-97.05670778025402
-0.1731,-0.2219,0.9298,-0.1287,0.6085,0.3822,0.0175,3.3338,-11.2,-13.423757796072232,-10.271299978578561,-97.16573895600855
-0.1709,-0.2153,0.9312,-0.1287,0.6085,0.3822,-0.7175,2.8612,-10.92,-13.019392934869964,-10.14580355741307,-97.15855041470837
-0.1708,-0.2081,0.9299,-0.1273,0.6099,0.3852,-0.9363,2.8788,-10.8762,-12.615204899394515,-10.16095562557447,-96.92327836301287
-0.1734,-0.2034,0.9263,-0.1286,0.6065,0.382,-2.5113,2.5288,-10.0625,-12.385192442756123,-10.349861899664779,-96.99957939562958
-0.1738,-0.2078,0.9299,-0.1286,0.6065,0.382,-3.22,2.1263,-9.345,-12.596134026116312,-10.337993841422058,-97.03715583348016
-0.1687,-0.2139,0.9227,-0.128,0.6094,0.382,-4.095,1.7937,-9.8437,-13.050655756183662,-10.11236086834846,-97.1170449044254
-0.1688,-0.2183,0.9242,-0.128,0.6094,0.382,-4.3488,1.4962,-10.2375,-13.289350204225146,-10.081045130146618,-97.1553260469611
-0.1636,-0.2214,0.9259,-0.127,0.6111,0.3877,-4.655,1.6013,-10.15,-13.447598820205386,-9.769150209091016,-97.10931900589483
-0.163,-0.2246,0.9206,-0.1274,0.61,0.3822,-4.4888,1.6625,-10.4212,-13.71005613732656,-9.760613199727022,-97.26681644960115
-0.1662,-0.2244,0.9245,-0.1274,0.61,0.3822,-4.2962,2.0125,-10.2812,-13.643472276397713,-9.901168392541782,-97.2056152480588
-0.1754,-0.2255,0.9265,-0.1276,0.6082,0.3821,-3.6488,1.5225,-10.0712,-13.679111567584425,-10.394094495910862,-97.05777203619833
-0.1801,-0.2237,0.9268,-0.1276,0.6082,0.3821,-3.5088,1.12,-9.7212,-13.570091129316248,-10.680835871041817,-96.94416149306957
-0.1789,-0.2226,0.9301,-0.129,0.608,0.3902,-3.325,0.2625,-10.3162,-13.459646151090746,-10.599808783460508,-96.94129724309379
-0.174,-0.2235,0.9233,-0.1294,0.6075,0.3826,-3.5088,0.21,-10.7537,-13.607280387710155,-10.390785427706684,-97.20588513737793
-0.1726,-0.2252,0.9271,-0.1294,0.6075,0.3826,-4.1125,0.1837,-10.6138,-13.653060531156273,-10.261504493354773,-97.25703985715175
-0.1632,-0.2184,0.9263,-0.1292,0.6108,0.3802,-3.2113,0.1488,-11.0425,-13.267641327255015,-9.757717064182751,-97.39519569249023
-0.1603,-0.2205,0.9204,-0.1292,0.6108,0.3802,-3.6925,0.4638,-11.0775,-13.471932795335752,-9.620516549016326,-97.46229000672233
-0.1612,-0.2276,0.9248,-0.1279,0.6102,0.3836,-3.885,0.5862,-10.5875,-13.825287674998686,-9.607412664181354,-97.35227223502237
-0.1683,-0.2327,0.9215,-0.1274,0.6082,0.3811,-3.92,0.735,-10.4212,-14.171390014878519,-10.018874926516132,-97.25807575608553
-0.1704,-0.2279,0.9268,-0.1274,0.6082,0.3811,-3.2725,0.6125,-10.7712,-13.8157808464455,-10.117472374750303,-97.182753826668
-0.1717,-0.224,0.9262,-0.1303,0.6074,0.383,-3.5263,0.1925,-10.9462,-13.596354950353252,-10.209360433144209,-97.33112506087572
-0.1698,-0.2219,0.9226,-0.1303,0.6074,0.383,-3.6138,-0.0788,-11.5412,-13.523854491231234,-10.148490693120891,-97.34669334924081
-0.1631,-0.2193,0.9262,-0.1289,0.6105,0.3896,-3.1937,-1.085,-11.2525,-13.321316346084757,-9.74406593845377,-97.231831722835
-0.1593,-0.22,0.9266,-0.13,0.6099,0.3824,-4.2613,-0.6913,-10.9112,-13.356183769907155,-9.508044309097741,-97.52687905644989
-0.1514,-0.225,0.9315,-0.13,0.6099,0.3824,-3.7713,0.5075,-11.4712,-13.57891937575778,-9.005530792175472,-97.73701471352292
-0.1504,-0.2276,0.9287,-0.1297,0.6108,0.383,-2.8788,1.1375,-11.2262,-13.769830917013072,-8.942517647423564,-97.73115513446488
-0.1598,-0.2237,0.9229,-0.1297,0.6108,0.383,-2.4763,1.505,-11.375,-13.625385341701934,-9.518624253267259,-97.49874772386634
-0.1677,-0.2206,0.9285,-0.1295,0.6098,0.3846,-2.5813,1.5225,-11.55,-13.365585158259481,-9.94180439835683,-97.28292302150572
-0.1664,-0.2176,0.9274,-0.1296,0.6095,0.3827,-2.1525,2.0563,-11.1912,-13.205084973163334,-9.910465195600116,-97.3247210014243
-0.1634,-0.2141,0.9261,-0.1296,0.6095,0.3827,-1.9687,1.3737,-11.7075,-13.017654092586314,-9.76260318405075,-97.35796965730476
-0.1574,-0.2158,0.9305,-0.1292,0.609,0.3854,-1.505,0.875,-11.4625,-13.057016491691158,-9.37877520667149,-97.43720252480277
-0.152,-0.214,0.9263,-0.1292,0.609,0.3854,-2.24,0.7525,-11.235,-13.008735393263697,-9.09925971792488,-97.53285620587998
-0.1563,-0.2122,0.9263,-0.1285,0.6102,0.3861,-1.7937,1.2512,-11.1037,-12.903130398670054,-9.327077333270713,-97.34910686861423
-0.1618,-0.2106,0.9201,-0.1278,0.6098,0.3811,-3.6575,1.54,-10.0975,-12.892272957991379,-9.704975485636297,-97.22912970669466
-0.1657,-0.2108,0.9263,-0.1278,0.6098,0.3811,-3.7538,1.085,-10.1062,-12.820744582564439,-9.88407518178914,-97.15854857323684
-0.168,-0.2127,0.9301,-0.1314,0.6077,0.384,-3.3338,1.015,-10.0712,-12.88104591592836,-9.980823489782367,-97.39389852132285
-0.1646,-0.2117,0.9293,-0.1314,0.6077,0.384,-4.025,1.05,-10.0187,-12.833423681893507,-9.80800279460536,-97.45855336008496
-0.1622,-0.2139,0.9282,-0.1306,0.6103,0.3836,-4.0163,1.3475,-10.4038,-12.976690028940155,-9.67169232120537,-97.44766906641044
-0.1605,-0.2129,0.9279,-0.1279,0.6102,0.383,-3.5788,1.0762,-10.1237,-12.922570744893221,-9.575014271294512,-97.26586924060054
-0.1586,-0.2142,0.9231,-0.1279,0.6102,0.383,-3.9025,0.9887,-9.905,-13.063616056642564,-9.50521550520467,-97.30760859289529
-0.1544,-0.2173,0.9285,-0.1282,0.6095,0.3797,-3.85,1.4,-10.2725,-13.171796257797688,-9.214014455841678,-97.51116105943773
-0.1552,-0.222,0.9263,-0.1282,0.6095,0.3797,-3.955,1.26,-10.01,-13.476753313223714,-9.251955554623926,-97.52586293152814
-0.1544,-0.2237,0.9329,-0.1267,0.6098,0.3813,-3.5088,1.61,-9.8612,-13.484332494864836,-9.148968809060703,-97.4168937301813
-0.1587,-0.2247,0.9232,-0.1321,0.6106,0.3823,-4.1563,1.5575,-9.345,-13.678916813386833,-9.464002057030097,-97.73678169233212
-0.1677,-0.2259,0.9259,-0.1321,0.6106,0.3823,-3.8588,2.0038,-9.0037,-13.711015205518327,-9.950499355702227,-97.56543615594263
-0.1732,-0.2248,0.9243,-0.1297,0.6097,0.3818,-3.7362,1.7587,-9.5812,-13.669666241694019,-10.29869821154456,-97.25953062827341
-0.1723,-0.2241,0.9238,-0.1297,0.6097,0.3818,-4.1038,0.8925,-8.8812,-13.635773935067352,-10.274953776693847,-97.27090445104827
-0.1727,-0.225,0.9185,-0.1275,0.6097,0.3825,-3.8763,0.5338,-9.5812,-13.764080610690703,-10.345665212734236,-97.07097040311494
-0.1736,-0.2255,0.9227,-0.1286,0.6095,0.382,-4.3225,0.3588,-9.7825,-13.733477074230859,-10.35672790416988,-97.16284235479868
-0.1679,-0.2256,0.924,-0.1286,0.6095,0.382,-3.9113,0.4025,-10.08,-13.720694669033,-10.028873249754575,-97.28376028178072
-0.1646,-0.2256,0.9284,-0.1288,0.6109,0.3826,-4.095,0.245,-9.8,-13.658227992094643,-9.788035923844214,-97.35611552290369
-0.1654,-0.2267,0.9243,-0.1288,0.6109,0.3826,-4.1825,0.5163,-9.3187,-13.780421577063695,-9.855544675434103,-97.34188000342436
-0.1661,-0.226,0.9269,-0.1294,0.6092,0.3818,-3.8325,0.2187,-9.8962,-13.702877712734724,-9.875097750716678,-97.39965016575607
-0.1636,-0.231,0.9282,-0.1309,0.6094,0.382,-2.66,0.5163,-10.3075,-13.974576322217766,-9.714648973196603,-97.61043479194001
-0.1614,-0.2192,0.9226,-0.1309,0.6094,0.382,-2.2313,0.9975,-10.3337,-13.366519872804211,-9.662274036519511,-97.55288293189925
-0.1612,-0.2047,0.9266,-0.1314,0.6093,0.3829,-2.4413,0.9187,-10.535,-12.459590013628805,-9.642132697248233,-97.4783324683352
-0.1662,-0.2036,0.9328,-0.1314,0.6093,0.3829,-2.6163,1.0675,-10.0537,-12.313056466924328,-9.86234165892537,-97.37194599488069
-0.169,-0.2044,0.9317,-0.1302,0.6094,0.3846,-3.1763,1.0675,-9.5375,-12.37360022014959,-10.037229439305444,-97.18677422116386
-0.1683,-0.2113,0.9298,-0.13,0.6097,0.3819,-4.3575,0.1225,-9.8787,-12.802172333178941,-10.01135461989693,-97.28090756166672
-0.1621,-0.2403,0.9322,-0.13,0.6097,0.3819,-4.62,0.5513,-9.7475,-14.450905675937005,-9.581734139634605,-97.64599508162671
-0.1646,-0.2431,0.9281,-0.1298,0.6072,0.382,-3.29,0.1663,-10.4825,-14.677364193621179,-9.727264734518918,-97.61421195617235
-0.1666,-0.2346,0.9306,-0.1298,0.6072,0.382,-3.605,0.49,-10.22,-14.150446272965857,-9.841738156194284,-97.50940425025749
-0.1657,-0.2249,0.929,-0.1306,0.61,0.3815,-2.1788,0.63,-11.3487,-13.610101820629415,-9.835199243541958,-97.49931069692128
-0.1633,-0.2153,0.9268,-0.1302,0.6085,0.3846,-2.5813,0.3325,-10.745,-13.079384622610577,-9.743630547265372,-97.3969538078963
-0.1609,-0.2052,0.9284,-0.1302,0.6085,0.3846,-3.255,0.1225,-10.6138,-12.464916896685247,-9.611944323765027,-97.37333737626447
-0.1559,-0.2069,0.9276,-0.1323,0.6059,0.3827,-4.3225,-0.35,-10.4825,-12.573665683832834,-9.33042968478931,-97.7182882699488
-0.1571,-0.2144,0.9242,-0.1323,0.6059,0.3827,-4.4538,0.245,-10.2375,-13.059537823219568,-9.398472142040644,-97.74108134692409
-0.161,-0.2208,0.92,-0.1294,0.6086,0.383,-4.6112,0.07,-10.1325,-13.494688495751255,-9.644216454499867,-97.43723884212483
-0.1625,-0.2264,0.9227,-0.1322,0.6097,0.3826,-4.9612,1.1287,-10.2637,-13.785429531417467,-9.702635286040561,-97.6808748136195
-0.1717,-0.2319,0.9172,-0.1322,0.6097,0.3826,-4.48,1.1112,-9.9225,-14.188038084739787,-10.255227660208211,-97.52965260752742
-0.169,-0.2301,0.9203,-0.1314,0.6124,0.383,-3.7188,0.6563,-10.2025,-14.038067651201555,-10.1094338361901,-97.48373665837747
-0.1646,-0.2284,0.9287,-0.1314,0.6124,0.383,-2.8438,0.3938,-10.0887,-13.817365053079683,-9.783212562629673,-97.57270957668082
-0.1623,-0.2272,0.9251,-0.1311,0.611,0.3844,-3.5,0.1138,-9.6687,-13.79850579769423,-9.67488025030607,-97.5678834378193
-0.1578,-0.2273,0.9263,-0.129,0.6091,0.3832,-3.4388,-0.1488,-9.8175,-13.78712851973189,-9.408425943225243,-97.52601359653441
-0.1547,-0.2258,0.9303,-0.129,0.6091,0.3832,-3.3425,0.175,-10.0537,-13.643202820279196,-9.191263076363862,-97.58528341893626
-0.1526,-0.226,0.9243,-0.1312,0.609,0.3843,-3.4125,0.1225,-9.24,-13.739547185517177,-9.115230807742451,-97.78317493145718
-0.1545,-0.2254,0.9212,-0.1312,0.609,0.3843,-3.7625,0.0788,-9.2925,-13.749026270673049,-9.245786935233108,-97.73421947765735
-0.1561,-0.2217,0.9266,-0.1333,0.6086,0.383,-3.43,0.595,-9.59,-13.45643585050009,-9.30164552044055,-97.87669182876417
-0.1512,-0.2178,0.9279,-0.1322,0.6093,0.3832,-3.5088,0.875,-9.3712,-13.210130664843104,-9.029373780367777,-97.85629078462401
-0.151,-0.223,0.9265,-0.1322,0.6093,0.3832,-4.305,0.7962,-9.1437,-13.532377027349435,-9.005223144579125,-97.8946953815131
-0.1507,-0.2295,0.9279,-0.1301,0.6091,0.3841,-4.4538,1.3125,-9.1087,-13.891455588296862,-8.961936062694665,-97.76648104181595
-0.1532,-0.2341,0.9259,-0.1301,0.6091,0.3841,-4.5763,1.0937,-9.0913,-14.188311407772893,-9.105212293696864,-97.74553802684386
-0.1567,-0.2317,0.9217,-0.1318,0.6083,0.3869,-3.57,1.3387,-10.0537,-14.111000098777438,-9.348794822142398,-97.75015136434448
-0.1616,-0.2275,0.926,-0.1304,0.6062,0.3845,-2.8963,1.54,-10.0362,-13.803803041117435,-9.603926147530963,-97.56320028643295
-0.1599,-0.2235,0.9256,-0.1304,0.6062,0.3845,-2.7913,1.12,-9.8175,-13.575618889729993,-9.536384429495817,-97.56680139374224
-0.1559,-0.2172,0.9273,-0.1322,0.6097,0.3846,-2.8438,1.2425,-10.5787,-13.183585825161027,-9.309402922735384,-97.7256386854812
-0.1493,-0.2212,0.9294,-0.1322,0.6097,0.3846,-2.625,1.365,-10.5,-13.38701090686551,-8.905387443604289,-97.89830723431487
-0.1411,-0.2241,0.9268,-0.1314,0.6102,0.3836,-2.5375,1.4612,-9.8962,-13.592703447384045,-8.444236402762156,-98.03038873086875
-0.1419,-0.2275,0.9247,-0.131,0.6106,0.384,-3.1675,1.715,-9.6162,-13.821183373168243,-8.473648611697719,-97.99098426610128
-0.137,-0.2297,0.9264,-0.131,0.6106,0.384,-3.325,2.4413,-9.6862,-13.925342518589753,-8.18598262424564,-98.10761413508355
-0.1333,-0.2325,0.9257,-0.1323,0.609,0.3826,-2.2662,2.94,-9.7037,-14.09843578623553,-7.9646066557606385,-98.3373216286066
-0.1344,-0.2289,0.9254,-0.1323,0.609,0.3826,-2.4325,3.71,-10.2812,-13.893875555109451,-8.021215224523068,-98.29365711648924
-0.1333,-0.229,0.922,-0.1307,0.6089,0.3813,-2.7125,4.3575,-10.1062,-13.948348553255997,-7.9894561578417465,-98.20051763443648
-0.1343,-0.2292,0.9259,-0.1292,0.6068,0.385,-2.9663,4.9088,-10.2987,-13.903775141993599,-8.012778368151533,-98.03137195199866
-0.1263,-0.2313,0.9227,-0.1292,0.6068,0.385,-2.5638,5.1975,-10.4475,-14.072361781853239,-7.594034867944531,-98.20286360434334
-0.1109,-0.234,0.9222,-0.1306,0.6083,0.3824,-1.0937,7.315,-9.345,-14.237410236351344,-6.724687984504633,-98.65978755910045
-0.1058,-0.2375,0.9212,-0.1306,0.6083,0.3824,-0.4375,9.2575,-8.9425,-14.456417039028983,-6.382159142826262,-98.77450214491552
-0.0928,-0.2389,0.9257,-0.125,0.607,0.3798,0.105,11.6112,-8.5575,-14.47082148096835,-5.647466287511185,-98.6246565029936
-0.0823,-0.245,0.9232,-0.127,0.6059,0.3804,0.9187,13.6588,-8.7937,-14.861711327532108,-5.043774810288423,-99.0079145054859
-0.0706,-0.2468,0.9165,-0.127,0.6059,0.3804,1.435,16.9225,-8.2687,-15.07090756430574,-4.5355692217760195,-99.22517787366208
-0.0558,-0.2528,0.9227,-0.1252,0.6042,0.3782,3.22,20.09,-7.3238,-15.321236627892569,-3.8448478071035193,-99.40240603128672
-0.0618,-0.2467,0.9262,-0.1252,0.6042,0.3782,4.6025,23.52,-6.4225,-14.915812053775262,-3.715995974129135,-99.2905546411267
-0.072,-0.2379,0.9171,-0.1199,0.6041,0.375,4.8387,27.545,-5.04,-14.543135094825992,-4.281591455087628,-98.67226422219444
-0.1,-0.2231,0.9131,-0.115,0.6014,0.3741,4.935,31.2025,-4.2525,-13.732119105103903,-5.939792714372973,-97.70223164995926
-0.1329,-0.2006,0.9109,-0.115,0.6014,0.3741,5.81,34.0288,-3.325,-12.422604589028868,-7.976150082424508,-96.87949217383222
-0.1673,-0.1717,0.9191,-0.1102,0.599,0.371,5.4513,35.455,-1.5575,-10.585941273999172,-10.022283572347426,-95.5324267573788
-0.2163,-0.1661,0.9176,-0.1102,0.599,0.371,4.025,35.5862,-1.6625,-10.2610964095369,-12.889012639662923,-94.2734891972991
-0.2261,-0.1667,0.9163,-0.1073,0.6004,0.3634,3.0538,35.0262,-2.1,-10.310782069758925,-13.601882256158765,-93.95005920505884
-0.2255,-0.1738,0.9196,-0.1073,0.6004,0.3634,1.8288,34.1162,-2.7475,-10.701469060650247,-13.550515782229706,-94.0706270303075
-0.2248,-0.1835,0.9169,-0.1014,0.5982,0.364,-0.4987,33.3725,-4.8125,-11.315682223000058,-13.519862300768319,-93.70468809906693
-0.2214,-0.1893,0.9151,-0.0978,0.5966,0.3618,-0.7263,34.2475,-4.76,-11.6866234212236,-13.340560305300732,-93.59828726915633
-0.2131,-0.2086,0.918,-0.0978,0.5966,0.3618,-1.3037,34.895,-5.1188,-12.799457097711999,-12.788894675025219,-94.03351033111373
-0.2076,-0.2137,0.9138,-0.0926,0.598,0.3594,-0.2187,35.7088,-5.2325,-13.161700629610635,-12.491305241689549,-93.81109590803092
-0.2058,-0.217,0.9097,-0.0926,0.598,0.3594,-0.5075,37.38,-4.865,-13.416016209780247,-12.414505472080732,-93.88146747385238
-0.2057,-0.2177,0.9165,-0.0882,0.5961,0.3578,0.4638,39.3225,-4.2438,-13.36219540517043,-12.322500831328014,-93.56607153355444
-0.21,-0.2153,0.9211,-0.0826,0.5971,0.3509,1.1112,41.9125,-3.8063,-13.15672720249639,-12.50886895232882,-93.11966100101962
-0.2458,-0.2003,0.8963,-0.0826,0.5971,0.3509,1.5662,43.89,-3.5263,-12.598472232589721,-14.888728870490638,-92.16586347840527
-0.2645,-0.1895,0.8944,-0.0766,0.5946,0.3474,2.0125,44.5025,-3.0888,-11.964070298953834,-16.088945836658812,-91.17384908717351
-0.2855,-0.188,0.8935,-0.0766,0.5946,0.3474,2.625,45.535,-3.29,-11.882387117862503,-17.317758216183073,-90.71869202539185
-0.2976,-0.1859,0.8903,-0.071,0.5939,0.3526,2.555,45.7887,-3.6663,-11.794450439689552,-18.090185885845255,-89.8159602976812
-0.3071,-0.1822,0.8862,-0.0681,0.5932,0.339,2.695,45.4825,-3.9813,-11.618360122014783,-18.72532437033195,-89.66075135904566
-0.3221,-0.1825,0.8894,-0.0681,0.5932,0.339,2.7562,46.2962,-4.9088,-11.595874177559052,-19.504521340056474,-89.3840460406306
-0.3305,-0.1898,0.8754,-0.059,0.5915,0.3332,3.115,46.2088,-5.8187,-12.231750613008444,-20.226230498153882,-88.76567052040639
-0.3364,-0.1904,0.8731,-0.059,0.5915,0.3332,2.9838,46.0513,-5.74,-12.3019277438774,-20.61446678225438,-88.66919530783191
-0.3448,-0.1931,0.8789,-0.0523,0.592,0.3282,3.0013,45.9813,-5.32,-12.391164489382865,-20.952895115646186,-88.19871285164834
-0.3531,-0.1935,0.8778,-0.0508,0.5906,0.3254,2.2488,45.3688,-5.0575,-12.431229036938033,-21.428279798654753,-88.01513367824109
-0.3873,-0.1828,0.8699,-0.0508,0.5906,0.3254,2.0388,44.485,-5.355,-11.868741224408218,-23.464078469856634,-87.14998529468319
-0.4004,-0.1759,0.8763,-0.044,0.5891,0.3217,2.9663,43.9337,-5.5563,-11.351382938401404,-24.10619049112587,-86.30511173051832
-0.4167,-0.1748,0.8587,-0.044,0.5891,0.3217,2.6163,43.6712,-6.72,-11.505755069616129,-25.380747339893208,-85.97175550964033
-0.4265,-0.1684,0.8719,-0.0393,0.5887,0.3172,3.465,42.1662,-7.56,-10.932934303010324,-25.643102882457416,-85.42443428632129
-0.4373,-0.1645,0.8728,-0.033,0.5878,0.3117,3.255,41.0375,-7.7,-10.674159537449698,-26.189419561737235,-84.81978182960813
-0.4437,-0.1632,0.8711,-0.033,0.5878,0.3117,3.1238,39.7337,-6.685,-10.611463182429098,-26.576217401374002,-84.6761442601719
-0.4389,-0.1704,0.866,-0.0316,0.5885,0.3072,3.1763,38.185,-6.3175,-11.13047210151808,-26.44678887062642,-85.03368522151926
-0.4349,-0.1714,0.8536,-0.0316,0.5885,0.3072,3.57,37.24,-6.5275,-11.35328887075772,-26.538052094761333,-85.10884656210305
-0.4378,-0.1718,0.8505,-0.0316,0.5882,0.3021,3.6663,36.9775,-5.5037,-11.419852737661204,-26.76165773140473,-85.26423992088942
-0.4422,-0.1694,0.856,-0.0229,0.5858,0.2992,4.1388,37.3975,-4.2263,-11.194567674803377,-26.86839109474461,-84.50824686015214
-0.4546,-0.1679,0.8566,-0.0229,0.5858,0.2992,4.025,37.1525,-3.535,-11.090053615993495,-27.47714187470106,-84.2874940759547
-0.4746,-0.1652,0.8458,-0.0219,0.5862,0.2976,3.8675,36.4437,-2.8087,-11.051852785980135,-28.769473833457308,-83.90688851455492
-0.4817,-0.1661,0.8442,-0.0219,0.5862,0.2976,5.0838,35.4637,-1.8725,-11.13082496711154,-29.216261929035614,-83.84223869526411
-0.4902,-0.1637,0.8435,-0.0147,0.5834,0.2962,5.0575,34.2912,-1.1287,-10.983340961684085,-29.675489940700615,-83.09099553219559
-0.499,-0.1581,0.8411,-0.0139,0.5834,0.2889,5.6,34.0025,0.0438,-10.646354139090864,-30.2097654568254,-83.02100018256041
-0.5115,-0.1515,0.855,-0.0139,0.5834,0.2889,5.04,33.8712,0.3938,-10.049515475001803,-30.48299799027334,-82.6374503240617
-0.5353,-0.1463,0.842,-0.0106,0.5814,0.2853,5.53,32.7775,1.19,-9.857354780898152,-31.956644796226506,-81.99825650421033
-0.558,-0.1341,0.8397,-0.0106,0.5814,0.2853,6.2388,30.9225,2.1175,-9.07534038761397,-33.17342162703858,-81.24077185317054
-0.5601,-0.1277,0.8411,-0.0114,0.5778,0.278,6.8338,28.9363,2.8087,-8.634032721911176,-33.34305022104042,-81.28858793619645
-0.5686,-0.119,0.8347,-0.0114,0.5778,0.278,6.6238,27.2475,3.535,-8.114978308520387,-33.92660045411519,-80.81591059511202
-0.5704,-0.1134,0.8447,-0.0054,0.5762,0.2747,6.1863,25.5762,4.27,-7.647270504272048,-33.81003915683095,-80.26061913455528
-0.5757,-0.1131,0.8291,-0.0052,0.5746,0.277,5.6262,24.395,4.165,-7.767659337785146,-34.42015492519714,-79.97545085940138
-0.5791,-0.0972,0.8337,-0.0052,0.5746,0.277,5.4425,22.1462,3.7013,-6.652631938041061,-34.561922294847776,-79.27521966124927
-0.5973,-0.0902,0.8444,-0.0023,0.5715,0.2743,5.6262,20.3962,2.3013,-6.09859282312916,-34.91165157297361,-78.63261020114632
-0.6027,-0.0876,0.8413,-0.0023,0.5715,0.2743,3.5963,19.495,1.155,-5.944838947750756,-35.1547455945398,-78.43818660305577
-0.6087,-0.0842,0.8365,-0.0013,0.5701,0.2722,2.7388,17.7975,-3.4563,-5.748353350035189,-35.51627840136688,-78.19150139462597
-0.6126,-0.0831,0.8368,-0.0014,0.569,0.2668,2.0388,13.335,-4.6813,-5.671452716610139,-35.98591478364196,-78.35831522041192
-0.6127,-0.0837,0.834,-0.0014,0.569,0.2668,0.4725,11.5325,-6.475,-5.730857433988674,-36.144082594259906,-78.3708442110726
-0.6048,-0.0888,0.8289,-0.0012,0.5684,0.2691,-0.1663,10.6487,-7.7613,-6.11386149835591,-35.98074408667222,-78.52006476462147
-0.6032,-0.0903,0.8306,-0.0012,0.5684,0.2691,-0.7962,8.8987,-8.4263,-6.204418113106248,-35.842176325977036,-78.61279936154237
-0.6112,-0.0942,0.8358,-0.0006,0.566,0.2698,-0.7962,6.8688,-9.0825,-6.429927366336258,-35.9922938061268,-78.5670396365415
-0.6138,-0.0959,0.8283,0.0002,0.5678,0.2703,-1.8725,4.7337,-9.2487,-6.603845849526176,-36.33311631228699,-78.54202748318627
-0.6179,-0.0978,0.8317,0.0002,0.5678,0.2703,-2.7738,3.0188,-9.0738,-6.7063940300616665,-36.41653723462282,-78.59014655436785
-0.6118,-0.0971,0.8337,0.0014,0.5665,0.2678,-2.1788,1.2862,-9.6337,-6.643387885710168,-36.10645827942843,-78.64572533058545
-0.5963,-0.0989,0.8272,0.0014,0.5665,0.2678,-1.6712,-0.5862,-9.52,-6.817502550636072,-35.619105853676714,-78.88415904114638
-0.589,-0.0991,0.8316,-0.0002,0.5657,0.2649,-2.5988,-1.89,-8.7937,-6.795819831801357,-35.14176027812326,-79.2451451234183
-0.5825,-0.0984,0.827,-0.0002,0.5657,0.2649,-2.3625,-3.0188,-7.5425,-6.78542106440316,-34.97725850169923,-79.27802318989885
-0.5846,-0.0991,0.8323,-0.0009,0.5661,0.2678,-2.9313,-4.1213,-7.4288,-6.790094700637538,-34.89787376214775,-79.21631271795604
-0.583,-0.0972,0.83,-0.0012,0.5651,0.2715,-2.3275,-5.0313,-7.4288,-6.6796589807062805,-34.90111237438427,-78.95748403507477
-0.5913,-0.0859,0.8275,-0.0012,0.5651,0.2715,-2.9225,-7.7175,-5.2325,-5.928252905210073,-35.38474799430922,-78.35091856503776
-0.6098,-0.0754,0.8319,-0.0027,0.5654,0.2726,-3.7713,-8.9425,-5.9412,-5.180695038517073,-36.10449310472679,-77.7318482633002
-0.6209,-0.0708,0.8397,-0.0027,0.5654,0.2726,-5.0575,-11.27,-5.88,-4.820407615419961,-36.3743964971715,-77.42597051705218
-0.6226,-0.0733,0.8345,-0.007,0.5654,0.2742,-6.8425,-13.7812,-6.0113,-5.019327432562844,-36.612908578915956,-77.72108717512276
-0.5794,-0.0919,0.8371,-0.0058,0.5625,0.2734,-7.6737,-15.7062,-7.6563,-6.262051816255367,-34.587482848229754,-79.00022038760784
-0.5547,-0.1003,0.8362,-0.0058,0.5625,0.2734,-6.9125,-17.85,-8.3475,-6.83840983687598,-33.402765947798045,-79.67983629834038
-0.5319,-0.1074,0.8302,-0.008,0.5636,0.2791,-7.6125,-18.6987,-8.8112,-7.369925534861483,-32.456912050582396,-80.18265328313615
-0.5168,-0.1096,0.8336,-0.0105,0.5643,0.2838,-8.015,-18.9,-8.8287,-7.489877656414511,-31.600619990256593,-80.49375369010666
-0.518,-0.1041,0.8348,-0.0105,0.5643,0.2838,-8.0937,-18.515,-8.155,-7.109043252333469,-31.62165977899376,-80.26415470417504
-0.5294,-0.1031,0.8466,-0.0109,0.5633,0.282,-8.05,-18.34,-8.0062,-6.943761171432175,-31.82401926912925,-80.20136590315803
-0.5243,-0.1057,0.8427,-0.0109,0.5633,0.282,-8.4175,-18.9962,-9.2837,-7.1487857210284185,-31.69176964856928,-80.36136397029186
-0.5095,-0.1113,0.846,-0.0136,0.5627,0.279,-8.1112,-19.5037,-9.31,-7.493970682287647,-30.86312911133234,-81.15157171377844
-0.495,-0.1154,0.844,-0.0166,0.5635,0.2868,-7.5862,-19.6612,-10.0887,-7.785060967646998,-30.17812928810908,-81.42336639051996
-0.5455,-0.101,0.8478,-0.0166,0.5635,0.2868,-7.6388,-19.7663,-10.5612,-6.796126127545183,-32.51431433996518,-80.11298187995871
-0.5696,-0.0967,0.855,-0.0198,0.5633,0.2893,-8.7937,-21.4813,-10.0187,-6.453530103985525,-33.47969110360776,-79.73816947119153
-0.5717,-0.0985,0.85,-0.0198,0.5633,0.2893,-8.575,-23.905,-10.6487,-6.609708044747683,-33.741427536089915,-79.7541105439479
-0.5531,-0.1047,0.853,-0.0226,0.5638,0.2938,-9.065,-27.5713,-11.6812,-6.996729442911487,-32.78546824395284,-80.31182149527727
-0.5175,-0.1116,0.8552,-0.0248,0.5653,0.297,-9.6862,-30.1437,-12.53,-7.433782664763119,-31.00169452561631,-81.20868704903964
-0.4588,-0.1225,0.8543,-0.0248,0.5653,0.297,-9.065,-31.43,-12.915,-8.158387785646148,-28.05433752584901,-82.57182635537602
-0.4568,-0.1129,0.858,-0.0295,0.5653,0.2932,-9.9225,-32.1388,-12.8625,-7.497809639926122,-27.831743496616294,-82.84238712474354
-0.4767,-0.104,0.8615,-0.0331,0.5652,0.3016,-10.2375,-32.5587,-12.7487,-6.884910644049749,-28.763962616316167,-82.13231370861696
-0.5081,-0.0939,0.8639,-0.0331,0.5652,0.3016,-11.3487,-35.0612,-13.8863,-6.204964781095472,-30.28664643039016,-81.20927584909444
-0.4907,-0.1067,0.8754,-0.0385,0.5668,0.3078,-12.5037,-37.9313,-14.7613,-6.947522307485614,-29.11339584740093,-82.25525657149414
-0.4473,-0.1224,0.869,-0.0385,0.5668,0.3078,-13.545,-40.3112,-15.8375,-8.01483853192238,-27.042936601196967,-83.5577759399564
-0.4033,-0.1352,0.8642,-0.0414,0.5677,0.3115,-13.6325,-40.8625,-16.73,-8.889433812677094,-24.79062500156089,-84.88300742560415
-0.3688,-0.1462,0.8808,-0.0486,0.5678,0.3171,-12.8712,-40.5387,-17.185,-9.423035969148513,-22.48244926142992,-86.35159427537447
-0.3215,-0.1523,0.8773,-0.0486,0.5678,0.3171,-12.1712,-39.655,-17.0187,-9.84740443045559,-19.897155618495113,-87.44165418788681
-0.338,-0.1441,0.8846,-0.0503,0.5701,0.316,-12.1625,-34.3963,-15.575,-9.253581055640424,-20.64845620221686,-87.14049104575544
-0.3729,-0.1407,0.8818,-0.0545,0.5715,0.3277,-11.4275,-33.81,-15.6887,-9.06615135637635,-22.6278593836661,-86.3122704123403
-0.3915,-0.1523,0.8899,-0.0545,0.5715,0.3277,-11.7425,-33.3638,-15.8025,-9.710100097682632,-23.427761065396837,-86.28661310529698
-0.3617,-0.1706,0.886,-0.0573,0.572,0.3266,-11.7687,-33.0312,-15.8725,-10.896060939464634,-21.87464784695218,-87.61939917079562
-0.3317,-0.1796,0.8903,-0.0573,0.572,0.3266,-10.5612,-32.7075,-16.0212,-11.40395934716189,-20.097452370761278,-88.4233698790107
-0.3043,-0.1828,0.8948,-0.0602,0.5721,0.3361,-9.765,-31.5963,-16.2575,-11.54581693807827,-18.460303116668765,-89.01539419957935
-0.2828,-0.1673,0.8886,-0.0642,0.573,0.335,-9.1087,-29.1025,-15.8112,-10.664611708255912,-17.389897963248732,-89.50904494865834
-0.3388,-0.1519,0.8924,-0.0642,0.573,0.335,-7.8313,-26.7138,-16.2925,-9.662450745990244,-20.45184524915253,-87.97918925569635
-0.3805,-0.1434,0.8933,-0.0697,0.5755,0.3322,-8.6363,-26.9237,-16.6425,-9.121105085363222,-22.759340403694118,-87.46014301810001
-0.4005,-0.1431,0.8976,-0.0705,0.5762,0.336,-8.575,-29.19,-17.9288,-9.05831099665827,-23.758654484721117,-86.99071800635667
-0.388,-0.1526,0.8967,-0.0705,0.5762,0.336,-8.2425,-31.4825,-18.3838,-9.656594269429576,-23.11422695139257,-87.50620418237158
-0.3152,-0.1716,0.9066,-0.0759,0.5762,0.3433,-8.7062,-33.4162,-18.8563,-10.715502420775016,-18.940577871414334,-89.76369408072338
-0.2869,-0.1768,0.8982,-0.0759,0.5762,0.3433,-8.7762,-33.355,-19.4162,-11.1346160249103,-17.430141927857985,-90.45037659884782
-0.2685,-0.173,0.8968,-0.0827,0.5787,0.3496,-8.9337,-32.3662,-19.6262,-10.91922089801944,-16.402284923622073,-91.21298899859413
-0.2891,-0.1553,0.895,-0.0855,0.5789,0.3494,-9.2837,-31.36,-18.3487,-9.846526763491198,-17.629738830616034,-90.6447725850808
-0.3473,-0.143,0.9121,-0.0855,0.5789,0.3494,-10.15,-31.7012,-18.83,-8.91263126661465,-20.556971411694498,-89.09184576003034
-0.333,-0.1547,0.9138,-0.091,0.5809,0.3534,-11.025,-35.8925,-19.8537,-9.606980670453922,-19.7776275379599,-90.05402536064283
-0.2978,-0.1713,0.9104,-0.0958,0.5822,0.3567,-11.4275,-37.345,-20.65,-10.653574659620665,-17.855213855809083,-91.51284181227139
-0.2637,-0.1827,0.9059,-0.0958,0.5822,0.3567,-11.0862,-37.5462,-20.7725,-11.400519304327428,-15.959596764408104,-92.4780810002135
-0.2492,-0.1748,0.9014,-0.0998,0.5828,0.3612,-9.9837,-37.5812,-20.65,-10.975649055029557,-15.197990715297678,-92.90243798908124
-0.2786,-0.1596,0.8876,-0.0998,0.5828,0.3612,-11.0075,-36.75,-19.5387,-10.195371731494495,-17.13239832536733,-91.87563160866151
-0.316,-0.1451,0.9103,-0.1049,0.5854,0.3666,-11.1037,-38.29,-19.3288,-9.05941329421839,-18.891407897470827,-91.05613010843291
-0.3307,-0.1535,0.9224,-0.1111,0.5854,0.3678,-13.125,-39.6025,-19.6788,-9.447268959732913,-19.46666954215021,-91.41999253179254
-0.249,-0.1948,0.922,-0.1111,0.5854,0.3678,-15.0587,-44.4412,-20.1163,-11.923893156161355,-14.873807172503891,-94.08800798838732
-0.2022,-0.2067,0.9245,-0.1166,0.5906,0.3745,-13.8162,-44.6338,-21.0438,-12.601274342550338,-12.092484579520594,-95.60851542704789
-0.1658,-0.2107,0.925,-0.1226,0.5906,0.3821,-13.44,-44.2225,-19.9587,-12.831541349540633,-9.947349450837871,-96.83542076620914
-0.1481,-0.2148,0.928,-0.1226,0.5906,0.3821,-13.3962,-42.245,-19.3725,-13.031996500980647,-8.85548645496553,-97.27126126805655
-0.1489,-0.202,0.9242,-0.1309,0.5942,0.3797,-12.985,-40.4863,-18.305,-12.330821032402877,-8.943295716412722,-97.8620128646224
-0.1393,-0.2003,0.9389,-0.1309,0.5942,0.3797,-12.005,-39.2962,-18.6725,-12.043355637533681,-8.267641618655869,-98.10327734322401
-0.1288,-0.2065,0.9335,-0.1335,0.5942,0.3853,-12.5212,-37.5288,-18.3575,-12.47250592558616,-7.683003115333428,-98.50526398632341
-0.1163,-0.2097,0.9159,-0.141,0.5954,0.387,-11.13,-36.1725,-18.0775,-12.894862338829547,-7.067181296950053,-99.36033682112077
-0.1302,-0.1995,0.926,-0.141,0.5954,0.387,-10.4038,-32.9087,-18.0687,-12.159915131509088,-7.811898518337248,-99.01294317241198
-0.1263,-0.2058,0.9309,-0.1459,0.5972,0.3924,-10.2812,-32.76,-18.3663,-12.465486209328153,-7.551455057711978,-99.45721615107156
-0.116,-0.211,0.9203,-0.1514,0.5974,0.3942,-10.8587,-31.9988,-17.5963,-12.912111764505651,-7.014732879589854,-100.12277224892078
-0.1125,-0.2022,0.9187,-0.1514,0.5974,0.3942,-10.6225,-31.71,-16.8262,-12.41374838679036,-6.823589352041632,-100.16994074538869
-0.1549,-0.1951,0.9007,-0.1549,0.5986,0.3953,-10.8062,-32.2262,-17.4737,-12.222449602153688,-9.488756354529041,-99.3189757391034
-0.166,-0.1876,0.9073,-0.1549,0.5986,0.3953,-11.0162,-33.46,-17.8762,-11.683583156565362,-10.145350342124374,-99.00483195791944
-0.1547,-0.1922,0.9202,-0.1594,0.6021,0.3953,-11.6812,-35.8575,-18.4975,-11.797347874246572,-9.359480149222588,-99.68948968700806
-0.0831,-0.2232,0.9191,-0.1662,0.6033,0.4013,-11.6637,-39.1738,-19.8362,-13.645317114504657,-5.094818094122616,-101.92937283263012
-0.0503,-0.2312,0.9213,-0.1662,0.6033,0.4013,-11.865,-38.7887,-19.6963,-14.086369699111492,-3.0665195318891527,-102.64077097338328
-0.044,-0.2269,0.9122,-0.1703,0.6027,0.3998,-11.48,-37.6338,-18.5937,-13.968527828810403,-2.6867239962127845,-103.11649737971446
-0.1021,-0.2035,0.8962,-0.1786,0.605,0.4068,-11.655,-38.2375,-18.5325,-12.796075971349532,-6.276396101876605,-102.3184512971951
-0.156,-0.2073,0.92,-0.1786,0.605,0.4068,-12.1538,-40.7487,-19.1275,-12.698404217016577,-9.341164406320676,-101.08542596224704
-0.0986,-0.2247,0.9215,-0.1857,0.6078,0.4102,-12.9062,-43.8025,-20.545,-13.701212200816606,-5.988405007244849,-102.96852982927275
-0.0294,-0.2428,0.9124,-0.1857,0.6078,0.4102,-12.0225,-46.9087,-21.6387,-14.898780952081403,-1.8466592783179718,-104.41760726628523
0.035,-0.2532,0.9305,-0.193,0.6102,0.4118,-11.2437,-47.2062,-18.5762,-15.221501844258974,2.019963227588326,-106.12268608989582
0.105,-0.2728,0.9267,-0.2036,0.611,0.4156,-9.6862,-41.3875,-18.7425,-16.40039813995639,6.134875750163024,-107.87043651208093
0.1207,-0.2636,0.9212,-0.2036,0.611,0.4156,-9.24,-37.5112,-16.4062,-15.969440723460147,7.161420504911995,-108.21493311358873
0.1109,-0.2492,0.9273,-0.2071,0.6099,0.4151,-7.805,-32.9525,-14.455,-15.044354709474398,6.599159254354489,-108.53240625215287
0.0909,-0.2369,0.9274,-0.211,0.6096,0.4183,-7.0613,-29.015,-13.825,-14.331229354388727,5.449002670639612,-108.63664526721283
0.0704,-0.2298,0.9345,-0.211,0.6096,0.4183,-7.7,-26.2413,-13.37,-13.816554633376308,4.211539011262598,-108.34841919022394
0.0597,-0.2424,0.9301,-0.2168,0.6111,0.4218,-8.4525,-24.6487,-13.1687,-14.605419998222345,3.56899919863788,-108.40223374564131
0.0669,-0.2463,0.9246,-0.2168,0.6111,0.4218,-8.8812,-23.7038,-12.9325,-14.915621556329503,3.989552690769342,-108.48656857708208
0.0846,-0.2551,0.9273,-0.2199,0.6085,0.421,-8.4787,-22.435,-12.8975,-15.380438171960511,5.002460650928416,-109.00036093498782
0.095,-0.2608,0.9199,-0.2223,0.6126,0.4236,-7.5338,-21.2712,-12.4512,-15.827433806780427,5.6576910807539225,-109.16411059050454
0.1213,-0.2647,0.9185,-0.2223,0.6126,0.4236,-6.6238,-17.2462,-11.1475,-16.075708588126396,7.189520027974093,-109.53055181380721
0.1254,-0.2611,0.9137,-0.2254,0.6148,0.4243,-6.4138,-15.3387,-11.2962,-15.948188008541218,7.508074887401818,-109.7955829889973
0.1258,-0.2578,0.9063,-0.2254,0.6148,0.4243,-6.125,-13.4925,-11.1125,-15.878743117008511,7.6016725585741405,-109.8339904055437
0.1257,-0.2541,0.9033,-0.2289,0.6149,0.427,-5.81,-11.4362,-10.1237,-15.711795090892043,7.628862602433017,-110.12920418868761
0.1236,-0.2507,0.9033,-0.232,0.6146,0.4272,-5.3987,-9.5025,-10.1587,-15.511832642659712,7.515035001805647,-110.37144597579103
0.1083,-0.2494,0.9015,-0.232,0.6146,0.4272,-5.4163,-7.5862,-10.0537,-15.464221389234813,6.637862388639618,-110.13706051513643
0.1067,-0.2492,0.9012,-0.2303,0.6128,0.421,-5.5563,-6.2038,-9.7212,-15.457213495294353,6.515084030804508,-110.03544839977143
0.0852,-0.2405,0.9003,-0.2303,0.6128,0.421,-5.2238,-5.6262,-9.8087,-14.95757024890985,5.274903843338084,-109.77937320309665
0.0539,-0.2313,0.9007,-0.231,0.6157,0.4284,-6.0637,-6.0113,-9.4237,-14.403694519884965,3.3933072626014438,-109.2719486154416
0.0372,-0.2273,0.8947,-0.2336,0.6156,0.4278,-5.74,-6.4837,-10.4825,-14.254878923509374,2.3490793874004914,-109.16702538318175
0.0501,-0.2343,0.8962,-0.2336,0.6156,0.4278,-6.9913,-8.26,-10.5262,-14.650364452019287,3.0691394238511367,-109.35341469576156
0.0722,-0.2452,0.9049,-0.2345,0.6162,0.4306,-7.5775,-10.1325,-11.3662,-15.160086082888697,4.359000307357577,-109.70471751588157
0.0929,-0.2562,0.9089,-0.2345,0.6162,0.4306,-7.9625,-10.8937,-10.7712,-15.740634762446062,5.577420393016741,-109.94241096911693
0.0993,-0.2663,0.9108,-0.2377,0.6166,0.431,-8.4875,-9.9837,-10.465,-16.296534101851826,5.960568607080073,-110.14346127291155
0.076,-0.2696,0.9074,-0.2426,0.6158,0.4299,-7.28,-10.1675,-10.2637,-16.546744812883215,4.636098836404516,-110.09590781670443
0.0426,-0.2804,0.9115,-0.2426,0.6158,0.4299,-6.5713,-11.6025,-8.7587,-17.097865735898647,2.624057043568543,-109.45973804801427
0.0567,-0.289,0.9116,-0.2504,0.6182,0.4371,-6.3525,-13.7112,-8.6187,-17.588733737859005,3.3701058402708366,-110.06959332225576
0.0842,-0.2889,0.9168,-0.2504,0.6182,0.4299,-5.46,-14.6212,-8.3562,-17.490802962968843,4.958420764099316,-110.51731361055808
0.1146,-0.284,0.92,-0.2447,0.6166,0.4299,-4.725,-14.805,-7.7438,-17.15603366038883,6.734625071190323,-110.66453077795809
0.1356,-0.2668,0.9251,-0.2486,0.6164,0.4316,-3.6225,-14.1662,-7.6213,-16.090180605075844,7.978900914101226,-111.48353218007378
0.1577,-0.275,0.9307,-0.2486,0.6164,0.4316,-2.03,-12.0575,-7.6737,-16.460289782689966,9.190379393987746,-111.68899046383433
0.1595,-0.2709,0.9247,-0.251,0.614,0.4366,-1.9862,-9.6425,-6.79,-16.328781224401087,9.391906760295504,-112.01388049453256
0.1559,-0.2668,0.9237,-0.251,0.6345,0.4341,-2.03,-7.315,-6.2388,-16.111265534786646,9.217026760546986,-111.41652644207582
0.152,-0.2622,0.921,-0.2516,0.6158,0.4341,-1.295,-1.715,-5.495,-15.891675624061016,9.028579292023673,-112.01289561149233
0.1468,-0.2566,0.9155,-0.2509,0.6152,0.4322,-0.9187,0.1663,-6.2388,-15.657890629143605,8.789982644436416,-111.97701074722818
0.1446,-0.2557,0.9183,-0.2509,0.6152,0.4322,-0.6825,2.345,-6.8863,-15.560057232689388,8.635114923670766,-111.9630708048772
0.1382,-0.2577,0.9113,-0.2484,0.6152,0.4327,-0.4725,4.7863,-6.5363,-15.789447203094477,8.324773247282758,-111.65234164446944
0.1393,-0.2606,0.9191,-0.2484,0.6152,0.4327,-0.7437,6.685,-6.3875,-15.829965025871275,8.298228074302964,-111.64059538113423
0.1408,-0.2636,0.9191,-0.2498,0.6134,0.4327,-0.2013,8.4437,-6.02,-16.0026033393734,8.370002082630979,-111.76825856071682
0.1422,-0.265,0.9162,-0.249,0.6142,0.4316,0.4638,9.835,-6.755,-16.131580732158078,8.468922202422947,-111.68156507751964
0.1475,-0.2663,0.9191,-0.249,0.6142,0.4316,-0.1663,11.4712,-6.9388,-16.15835124581851,8.727200500297213,-111.74488417763469
0.1653,-0.2686,0.9129,-0.2485,0.6129,0.4303,0.035,12.8187,-6.685,-16.39475536256839,9.691261447951556,-111.9473309586701
0.1733,-0.2706,0.9074,-0.2485,0.6129,0.4303,0.6388,15.89,-7.0525,-16.604854751840076,10.194231193069799,-112.01099313664567
0.179,-0.2686,0.9063,-0.2442,0.613,0.4346,-0.1225,18.9962,-6.6413,-16.508464749112324,10.306285270564349,-111.84080872375715
0.1795,-0.2672,0.9077,-0.2389,0.6118,0.4294,1.1987,22.5575,-6.685,-16.403116854909364,10.65147644044146,-111.52391706860993
0.1727,-0.2644,0.9123,-0.2389,0.6118,0.4294,0.9625,26.2413,-6.5887,-16.163052738856454,10.345639682824515,-111.48647458658344
0.1464,-0.2655,0.9078,-0.2343,0.6097,0.4271,1.5662,29.2337,-5.53,-16.302037733014373,8.933141819158879,-110.81725315608813
0.134,-0.2644,0.9143,-0.2343,0.6097,0.4271,0.2538,32.13,-4.8213,-16.129379095307534,8.077890669546264,-110.66080208829874
0.1199,-0.2603,0.9109,-0.2294,0.6082,0.4197,1.3125,34.9212,-3.5525,-15.948316770990846,7.263411306666023,-110.17746830999211
0.1038,-0.2584,0.909,-0.2294,0.6082,0.4197,2.7388,37.1525,-2.6775,-15.868964488770976,6.3194517315622685,-109.94588694439366
0.0896,-0.2506,0.9118,-0.2251,0.6088,0.4256,3.955,39.1562,-2.2925,-15.368956305387004,5.455128322055227,-109.48359341594549
0.08,-0.2438,0.9154,-0.2167,0.6075,0.4226,4.9088,40.4513,-2.7037,-14.914562054603413,4.8547913588173754,-108.82053750347035
0.0689,-0.2398,0.9079,-0.2167,0.6075,0.4226,4.0075,41.0725,-1.9862,-14.79570615702168,4.224655190643197,-108.65043229912885
0.0673,-0.241,0.9064,-0.2102,0.6054,0.419,5.0138,42.0875,-1.9162,-14.889484525198123,4.109257773351986,-108.18163244452732
0.0648,-0.2406,0.9097,-0.2102,0.6054,0.419,4.5938,44.065,-1.05,-14.814710054518546,3.9458690589277423,-108.1436281896664
0.0572,-0.2405,0.9104,-0.2017,0.6049,0.4159,4.305,46.48,-0.7175,-14.797800985018194,3.4925343581930908,-107.38384574586065
0.0499,-0.2377,0.9166,-0.1948,0.6026,0.4098,5.3375,48.0462,-1.05,-14.538750354617543,3.0322356860131516,-106.82164785678675
0.0328,-0.2288,0.9176,-0.1948,0.6026,0.4098,5.4163,49.665,-0.455,-14.002235171284033,2.0191663204770327,-106.56555388441251
-0.007,-0.2154,0.9208,-0.1883,0.6022,0.4107,4.4363,51.8787,-0.3063,-13.168237293400708,-0.3525676640281785,-105.32821132224149
-0.0174,-0.2141,0.9155,-0.1883,0.6022,0.4107,4.1563,52.3688,-0.7175,-13.162719073899654,-1.0398048062403158,-105.09658256224459
-0.0304,-0.2124,0.9143,-0.1837,0.5998,0.4098,4.4975,53.375,-1.26,-13.07854081158408,-1.832124545486086,-104.50045590672981
-0.0398,-0.2102,0.9148,-0.1716,0.598,0.405,4.1213,54.6613,-1.2862,-12.940952491620928,-2.411857698510632,-103.39660135931054
-0.054,-0.2126,0.9154,-0.1716,0.598,0.405,3.6663,55.3087,-2.3013,-13.074729759106242,-3.265339797113853,-103.06600998786121
-0.0685,-0.2151,0.9146,-0.1624,0.5986,0.3986,3.8675,56.5337,-2.9138,-13.23420856637371,-4.146573970598107,-102.0389315357688
-0.0898,-0.214,0.9096,-0.1624,0.5986,0.3986,4.585,57.0237,-3.4388,-13.23910403804598,-5.455148385012856,-101.54374241344621
-0.1071,-0.2068,0.9074,-0.1533,0.5945,0.3976,5.0487,57.3913,-4.7425,-12.839586256258908,-6.536677616097483,-100.44083133059401
-0.1254,-0.1969,0.9075,-0.1533,0.5945,0.3976,5.9063,57.19,-4.865,-12.243102341454664,-7.66144511141131,-99.9572799040439
-0.1479,-0.1885,0.9085,-0.146,0.5929,0.3929,5.355,56.7088,-6.09,-11.722909382458601,-9.021007683588332,-98.83103223350939
-0.1696,-0.1808,0.9097,-0.1401,0.5918,0.3862,3.8763,56.07,-6.2388,-11.242008205134796,-10.327550942196416,-97.85289777812383
-0.2058,-0.1754,0.9117,-0.1401,0.5918,0.3862,2.6688,55.1775,-6.3963,-10.890784515037812,-12.440527663988863,-96.87902082262241
-0.2134,-0.1781,0.9134,-0.1309,0.5925,0.3818,0.805,53.4275,-7.6825,-11.033086132588764,-12.902128923331155,-96.03284844232077
-0.2239,-0.1859,0.9131,-0.1309,0.5925,0.3818,-0.2538,51.6688,-8.3912,-11.506569567638362,-13.492935380408827,-95.86710200438026
-0.2235,-0.196,0.9093,-0.121,0.5922,0.3831,-1.61,50.0412,-9.1175,-12.162456809519165,-13.510083600904924,-95.13869774931919
-0.2212,-0.2058,0.9069,-0.1168,0.593,0.3733,-1.9775,48.475,-9.4587,-12.783940293193734,-13.383996342723753,-95.16630777853663
-0.2216,-0.218,0.9109,-0.1168,0.593,0.3733,-1.4437,48.0988,-9.5637,-13.457486436644707,-13.313504750431942,-95.32485339963476
-0.2311,-0.2204,0.9059,-0.1107,0.5929,0.3706,-0.6825,48.1425,-8.6538,-13.673536843015007,-13.90159059231974,-94.69773255232333
-0.2544,-0.2167,0.9007,-0.1107,0.5929,0.3706,-0.6388,48.3263,-8.4263,-13.528073666610076,-15.308013068977765,-94.14558478130519
-0.2741,-0.2053,0.906,-0.1028,0.5914,0.3612,0.4462,47.9062,-7.8838,-12.769433136526485,-16.401645016362984,-93.12995358872163
-0.3028,-0.199,0.9023,-0.0969,0.5926,0.3618,0.6913,44.1087,-6.8863,-12.43812124902583,-18.07849049692041,-91.90279709699911
-0.3346,-0.1857,0.9065,-0.0969,0.5926,0.3618,0.5338,41.6237,-6.6588,-11.57912627732238,-19.80472900771362,-90.96908347957222
-0.3436,-0.1866,0.9023,-0.0899,0.5909,0.3581,1.2425,39.1212,-7.2275,-11.684081153605048,-20.420956778876597,-90.31000290565632
-0.3493,-0.1878,0.8981,-0.0899,0.5909,0.3581,1.4,36.4875,-6.9125,-11.810528326137765,-20.819300272660644,-90.20569133182656
-0.3504,-0.1918,0.903,-0.0876,0.5915,0.355,0.4638,33.3812,-6.7112,-11.99115869088934,-20.787532820659138,-90.20034479800418
-0.347,-0.1969,0.903,-0.082,0.5898,0.3539,-0.07,30.835,-6.2388,-12.300123855856697,-20.594703403383733,-89.9471300215115
-0.3382,-0.2061,0.8943,-0.082,0.5898,0.3539,0.1837,28.525,-5.5388,-12.97616618740181,-20.26333398667234,-90.30578658303646
-0.3285,-0.2046,0.9019,-0.0801,0.5878,0.3511,0.7175,26.5125,-4.8562,-12.781934307717593,-19.635921022947045,-90.38718001494894
-0.3219,-0.2027,0.8974,-0.0801,0.5878,0.3511,0.2625,25.0338,-4.7075,-12.728206458932625,-19.332466598794753,-90.46415517005747
-0.3278,-0.1991,0.894,-0.077,0.5878,0.3462,-0.1488,24.4037,-4.2,-12.55567991722571,-19.638329147489706,-90.14904031875682
-0.3321,-0.1958,0.9025,-0.0741,0.5893,0.3461,-0.0963,23.7213,-3.6225,-12.24153298330574,-19.75569069190785,-89.78436596876004
-0.3344,-0.1842,0.8938,-0.0741,0.5893,0.3461,0.21,23.625,-3.9463,-11.64626056170314,-20.06194010385607,-89.45771671241111
-0.367,-0.1739,0.8872,-0.0705,0.5881,0.3433,0.7962,23.0562,-4.5237,-11.091258285088703,-21.71269983610552,-88.32292219195914
-0.3981,-0.1677,0.8968,-0.0705,0.5881,0.3433,1.3212,21.6475,-6.8425,-10.593058426408323,-23.099182371725632,-87.57972794832476
-0.41,-0.1607,0.9028,-0.0682,0.5857,0.3428,1.05,19.7138,-7.7263,-10.094219893331184,-23.59130638815119,-86.97974621045125
-0.4082,-0.1563,0.9035,-0.066,0.5855,0.3399,0.4462,17.535,-7.875,-9.815344291884491,-23.8124630428953,-86.81504422087988
-0.393,-0.1589,0.908,-0.066,0.5855,0.3399,-1.3737,15.1812,-7.3063,-9.925981917609455,-23.24931626156595,-87.2050216461715
-0.3409,-0.1997,0.9079,-0.0674,0.5851,0.339,-1.4787,14.3762,-7.4375,-12.399237221005974,-20.720072567994688,-89.33673199227444
-0.3203,-0.2114,0.9071,-0.0674,0.5851,0.339,-0.6388,15.5662,-7.1225,-13.116939506945101,-19.3962731955595,-89.96025540856206
-0.3153,-0.2137,0.9074,-0.0634,0.5845,0.3352,0.0,16.2488,-7.7788,-13.251813214193012,-18.89071760833678,-89.8626502102126
-0.3118,-0.2109,0.9061,-0.0625,0.5839,0.335,1.4612,16.9925,-8.6975,-13.102987003812927,-18.66111049316687,-89.79024589623126
-0.306,-0.1998,0.9035,-0.0625,0.5839,0.335,2.1,18.1562,-8.1812,-12.471198840891942,-18.52939275747426,-89.66347016134145
-0.3062,-0.1706,0.89,-0.0597,0.5837,0.3337,2.3013,19.8187,-7.63,-10.854956762058306,-18.602649807627078,-88.81400944773526
-0.309,-0.1609,0.896,-0.0597,0.5837,0.3337,1.6187,21.035,-7.2888,-10.182026905893325,-18.704817414779622,-88.5644691432789
-0.3204,-0.1548,0.8951,-0.0552,0.5838,0.3258,1.365,22.6187,-6.8775,-9.812645234531395,-19.28048366404758,-88.03595027874707
-0.3339,-0.158,0.884,-0.054,0.5815,0.3328,-0.1312,23.94,-6.3175,-10.132883748195349,-20.216676441212314,-87.46839189714083
-0.3462,-0.1605,0.8852,-0.054,0.5815,0.3328,-1.96,24.8675,-3.0713,-10.27659113452062,-20.931491474040115,-87.28497622453773
-0.365,-0.1643,0.8764,-0.0521,0.5819,0.3282,-2.1263,25.1125,-2.7825,-10.61726327537324,-22.08141777814622,-86.9799231235775
-0.3825,-0.1629,0.8746,-0.0521,0.5819,0.3282,-1.8463,24.955,-1.89,-10.55097445093809,-23.10143417871702,-86.60607188367257
-0.4038,-0.1576,0.8726,-0.0521,0.5822,0.3314,-0.7175,24.605,-2.1,-10.238548679861855,-24.282908588766222,-85.93959121780173
-0.4211,-0.1535,0.8773,-0.0462,0.5804,0.322,-1.2075,23.8262,-2.45,-9.92524898863993,-25.137731516868108,-85.34718830279316
-0.4338,-0.1579,0.8774,-0.0462,0.5804,0.322,-1.7325,21.9538,-2.52,-10.20129141106439,-25.75589650854151,-85.25586336719161
-0.4389,-0.1642,0.8849,-0.0439,0.5798,0.3205,-1.0937,20.405,-2.835,-10.511372676990915,-25.906845712471085,-85.24346609218829
-0.4307,-0.1684,0.8821,-0.0439,0.5798,0.3205,-1.33,19.0225,-3.6575,-10.807468606339883,-25.84204636547411,-85.50094438678885
-0.4094,-0.1683,0.8824,-0.0408,0.5775,0.3186,-2.555,17.3775,-3.6575,-10.798342571071322,-25.07170621980641,-85.64091368583387
-0.3905,-0.1713,0.8778,-0.0421,0.5778,0.3194,-3.4825,16.7562,-2.975,-11.041737619018201,-24.086952587120162,-86.12291681212872
-0.3811,-0.1718,0.8788,-0.0421,0.5778,0.3194,-2.6425,16.9575,-3.4825,-11.06141872848721,-23.427425443057444,-86.30231415133098
-0.3869,-0.1667,0.8644,-0.0384,0.578,0.3156,-3.3688,17.7712,-2.2575,-10.915865678406762,-23.573001450599765,-85.85256232432674
-0.405,-0.1662,0.875,-0.0384,0.578,0.3156,-3.7975,19.4775,-1.8725,-10.755192106355244,-23.95004638769287,-85.55328854974837
-0.4262,-0.1632,0.8729,-0.038,0.5782,0.3096,-3.8063,19.6262,-1.1025,-10.59032440730963,-24.749265924650633,-85.29684334589929
-0.4507,-0.1636,0.8746,-0.0365,0.5777,0.3102,-3.7538,19.1537,-1.365,-10.595118519922778,-25.38148745466509,-84.76841521108486
-0.4645,-0.1659,0.8766,-0.0365,0.5777,0.3102,-2.9488,17.5613,-1.2163,-10.716414418262097,-26.523800082744497,-84.6310059457948
-0.4524,-0.1621,0.8696,-0.0336,0.5748,0.3102,-2.3538,16.135,-0.4025,-10.559550595768767,-26.929887098997657,-84.40039486472229
-0.4297,-0.1591,0.8699,-0.0336,0.5748,0.3102,-1.5662,15.5837,-0.56,-10.364998707227143,-26.160192539873435,-84.671225624817
-0.4124,-0.1577,0.8707,-0.0321,0.5742,0.3071,-1.2075,15.9862,0.525,-10.266278601618009,-25.30156371043255,-84.89814725698479
-0.406,-0.1545,0.8547,-0.0316,0.573,0.3086,-0.8138,17.0625,1.4525,-10.246480892136802,-25.14658659983778,-84.7545274282036
-0.4217,-0.1516,0.8631,-0.0316,0.573,0.3086,-0.5163,19.1275,2.24,-9.962825181659406,-25.304168965796062,-84.4214733691746
-0.4837,-0.1496,0.8599,-0.0282,0.5707,0.3052,-0.7962,20.0375,2.765,-9.86940350329937,-27.39714974817181,-83.16564873374101
-0.5097,-0.1488,0.8642,-0.0282,0.5707,0.3052,0.2625,20.09,1.995,-9.769765940557672,-28.99467366936754,-82.75377202038881
-0.5225,-0.1462,0.862,-0.0274,0.5707,0.3024,-1.0325,18.6987,1.3825,-9.626420632225022,-29.04644901119214,-82.52453483485753
-0.5238,-0.1443,0.8649,-0.0261,0.5664,0.301,-1.7762,13.4837,0.07,-9.472357606421657,-30.563231220862523,-82.3171820196567
-0.5167,-0.1433,0.8606,-0.0261,0.5664,0.301,-2.8612,12.2325,-0.1837,-9.45372957143954,-30.626076843628848,-82.37292172349667
-0.5058,-0.1407,0.8538,-0.0265,0.5677,0.3006,-2.38,10.5087,-1.4262,-9.358050114329888,-30.341991725011507,-82.49654492501077
-0.5034,-0.1424,0.8606,-0.0265,0.5677,0.3006,-2.3538,9.8787,-1.8025,-9.395283863519177,-30.024828549796023,-82.61427070072
-0.5113,-0.1338,0.8649,-0.0242,0.5662,0.2982,-2.1175,9.5812,-2.8,-8.795376608802988,-30.26765603955855,-82.08876630922863
-0.5187,-0.1288,0.8601,-0.0234,0.5657,0.2966,-2.3888,8.4612,-4.1475,-8.517421797171858,-30.764282405470514,-81.77315303254609
-0.5222,-0.1284,0.8618,-0.0234,0.5657,0.2966,-2.5988,7.5687,-5.5125,-8.474292141451578,-30.92126748568249,-81.71117522272917
-0.523,-0.1327,0.856,-0.0235,0.5648,0.2971,-1.7762,6.5975,-7.7088,-8.811236734929599,-31.106984155129012,-81.80708829169339
-0.5179,-0.1341,0.8602,-0.0235,0.5648,0.2971,-1.54,4.9437,-9.17,-8.860627944068208,-30.772036037454242,-81.94912118679241
-0.5109,-0.1383,0.8545,-0.0234,0.5655,0.3018,-2.415,3.99,-9.9925,-9.192751243353499,-30.563792645637776,-81.98857289863692
-0.5108,-0.138,0.8502,-0.0234,0.5655,0.2952,-1.54,3.9463,-11.1737,-9.219481226066073,-30.662869005816194,-82.2603230645793
-0.5059,-0.1399,0.853,-0.0249,0.5658,0.2952,-2.3975,3.2113,-12.2587,-9.313896701599798,-30.358515275163274,-82.53673337648114
-0.5017,-0.1436,0.8467,-0.023,0.5654,0.2979,-3.0363,2.065,-12.6437,-9.625004073073942,-30.29688960663133,-82.4390989900175
-0.4971,-0.1474,0.8452,-0.023,0.5654,0.2979,-2.1,1.0237,-13.125,-9.892059348699387,-30.099163946876573,-82.6425616582016
-0.4993,-0.1458,0.8432,-0.0243,0.5682,0.2988,-3.2725,0.1488,-13.545,-9.810361037351665,-30.254773922774252,-82.66673434722634
-0.508,-0.1479,0.8466,-0.0243,0.5665,0.294,-2.625,-0.6913,-14.0,-9.909263365087662,-30.570845597975847,-82.80420571985897
-0.5209,-0.1466,0.8501,-0.0245,0.5665,0.294,-2.625,-1.4,-14.49,-9.784735892890218,-31.09895372310253,-82.5974465415551
-0.5159,-0.1507,0.8575,-0.0251,0.566,0.298,-3.0975,-2.3888,-14.3413,-9.967134184047731,-30.669275476879893,-82.69392902992237
-0.5104,-0.1533,0.8545,-0.0251,0.566,0.298,-2.31,-4.1038,-14.4375,-10.170361780437162,-30.46131644529873,-82.86090306947862
-0.5034,-0.1507,0.8486,-0.0243,0.5676,0.2977,-1.3387,-4.585,-14.5513,-10.070218844016999,-30.295209623455417,-82.83525487285482
-0.5058,-0.1439,0.8574,-0.025,0.5666,0.3058,-1.785,-5.0313,-14.6212,-9.528620430891245,-30.194488040684966,-82.25496904728058
-0.5181,-0.1373,0.8613,-0.025,0.5666,0.3058,-2.03,-5.39,-14.3238,-9.058445932011352,-30.69108694964667,-81.83591292040539
-0.5431,-0.1335,0.8645,-0.0249,0.5686,0.2998,-0.9363,-6.2213,-14.5862,-8.779195956884278,-31.790632381904988,-81.6352469109809
-0.5433,-0.1351,0.8652,-0.0249,0.5686,0.2998,-1.5925,-9.9312,-16.135,-8.87477485136418,-31.815788661560013,-81.69510677043073
-0.5358,-0.1391,0.8621,-0.0258,0.569,0.3026,-1.9687,-11.655,-15.6975,-9.164997846689092,-31.541077062782154,-81.89668494231438
-0.5335,-0.1431,0.856,-0.0268,0.5682,0.302,-2.065,-13.8075,-15.4787,-9.489765825372489,-31.578602985975426,-82.1532507315828
-0.5151,-0.1425,0.8615,-0.0268,0.5682,0.302,-1.5312,-15.4,-15.47,-9.392437939509326,-30.565829194154045,-82.4168404754079
-0.5035,-0.1403,0.8606,-0.0322,0.567,0.3052,-2.275,-17.43,-15.3125,-9.259551917672,-30.018725162771016,-82.77897436344037
-0.5023,-0.1343,0.8622,-0.0322,0.567,0.3052,-2.9575,-19.25,-16.0037,-8.854461892619986,-29.92873913509753,-82.58721052664731
-0.5153,-0.1233,0.8613,-0.0315,0.5684,0.3101,-3.5,-20.4487,-16.5725,-8.14855566053644,-30.618276483568767,-81.72094314985473
-0.5377,-0.119,0.8719,-0.0383,0.5706,0.3102,-4.2875,-23.2488,-16.7038,-7.77281201199654,-31.407558964417003,-81.81611365015307
-0.5178,-0.1241,0.8712,-0.0383,0.5706,0.3102,-5.8625,-26.5562,-16.9487,-8.10627969776381,-30.493289917888948,-82.33359969080831
-0.4755,-0.1369,0.8736,-0.039,0.5698,0.3169,-7.175,-31.7275,-18.2525,-8.904338483757634,-28.311791771267497,-83.27555608816871
-0.443,-0.1496,0.8729,-0.043,0.5713,0.3159,-6.965,-32.6725,-18.2175,-9.723051071839457,-26.607862411919335,-84.65490287590069
-0.4241,-0.1588,0.8624,-0.043,0.5713,0.3159,-6.7288,-32.6987,-18.0338,-10.431706795360297,-25.825312951472995,-85.24298006528434
-0.424,-0.1523,0.8717,-0.0467,0.5706,0.3198,-5.4163,-33.6,-19.5825,-9.911711185434294,-25.605503808394005,-85.22272180206865
-0.4213,-0.1524,0.8723,-0.0467,0.5706,0.3198,-5.2325,-34.6937,-20.7375,-9.910156179307197,-25.4466527914438,-85.27724900994596
-0.401,-0.1526,0.8778,-0.05,0.571,0.3215,-5.2675,-35.5425,-21.8838,-9.862066104513886,-24.253238758533318,-85.89986130906269
-0.3737,-0.1582,0.8854,-0.0561,0.5714,0.3278,-4.585,-35.91,-22.7062,-10.129851900852366,-22.59273559986116,-86.91215908831586
-0.3167,-0.159,0.8881,-0.0561,0.5714,0.3278,-4.5413,-35.455,-22.1637,-10.15029892329607,-19.401134666237297,-88.0979389000546
-0.3195,-0.1509,0.8859,-0.0582,0.573,0.3302,-4.165,-32.3662,-20.7375,-9.667870346580065,-19.568518472932496,-87.97132977665265
-0.3381,-0.1418,0.8919,-0.0619,0.5747,0.3353,-4.795,-30.345,-20.5538,-9.03516424237741,-20.505617924344392,-87.55442219051183
-0.362,-0.1398,0.896,-0.0619,0.5747,0.3353,-6.4225,-30.2138,-20.125,-8.868576005977806,-21.736152244522916,-86.99863448816679
-0.3538,-0.1515,0.8981,-0.0666,0.5751,0.3378,-6.6238,-30.6688,-20.2562,-9.57334963210683,-21.238952797233196,-87.80398645242096
-0.3265,-0.1598,0.8977,-0.0666,0.5751,0.3378,-7.1575,-31.4738,-20.2737,-10.092267789166728,-19.731367552819886,-88.58535477723214
-0.3006,-0.1686,0.896,-0.072,0.5762,0.3403,-8.225,-30.6863,-19.2675,-10.655351648806029,-18.27706627972482,-89.72804834412258
-0.2824,-0.1753,0.9004,-0.0764,0.5752,0.344,-8.0587,-29.6712,-18.8475,-11.016292033994125,-17.134999181235518,-90.54558191951071
-0.2805,-0.1758,0.9069,-0.0764,0.5752,0.344,-6.9475,-27.9125,-18.4013,-10.970672825510215,-16.89567991668184,-90.61704540978779
-0.2916,-0.1679,0.9102,-0.0782,0.5773,0.3456,-7.315,-26.2062,-17.045,-10.452825302178699,-17.47435159099632,-90.3571959545188
-0.3137,-0.1587,0.9147,-0.0782,0.5773,0.3456,-5.5738,-24.5875,-15.7762,-9.844271607800335,-18.64342155620044,-89.6967932090883
-0.3309,-0.1541,0.9152,-0.0822,0.5778,0.3471,-6.65,-24.8937,-16.6163,-9.558415143533114,-19.60129795479236,-89.51576929835505
-0.3091,-0.162,0.9084,-0.0856,0.5804,0.3511,-5.845,-25.8125,-16.555,-10.110244219017433,-18.543741701921288,-90.33809189856011
-0.2788,-0.167,0.9096,-0.0856,0.5804,0.3511,-6.0375,-26.32,-16.3187,-10.40277837357493,-16.814837473784106,-91.13131657200903
-0.2474,-0.177,0.9082,-0.0878,0.5825,0.3521,-5.4163,-25.7075,-16.2313,-11.02669114029898,-15.009996914645276,-92.17950742896338
-0.2253,-0.1845,0.9094,-0.0916,0.5804,0.3556,-6.475,-24.1063,-15.8287,-11.467502499780217,-13.678375610669656,-93.04385724121472
-0.2317,-0.1606,0.8948,-0.0916,0.5804,0.3556,-6.405,-22.0762,-14.9187,-10.17830144812844,-14.283616021560041,-92.49671530781373
-0.3393,-0.149,0.9205,-0.0962,0.582,0.3585,-6.0988,-21.3937,-14.4025,-9.196998598686118,-19.85593485304662,-90.11027752505409
-0.3539,-0.152,0.9295,-0.0962,0.582,0.3585,-7.9363,-25.9175,-14.6212,-9.2870870573892,-20.5776138602696,-89.8773614415803
-0.3389,-0.1634,0.9205,-0.0983,0.5813,0.3603,-9.3362,-29.3125,-15.2775,-10.063961552089173,-19.93899758926482,-90.55307129553384
-0.3072,-0.1742,0.9168,-0.1029,0.5824,0.363,-9.52,-32.2962,-15.4263,-10.756766386683417,-18.2539910551484,-91.80910567923851
-0.2371,-0.182,0.9157,-0.1029,0.5824,0.363,-9.555,-32.8125,-15.8025,-11.240154676737031,-14.325806023367033,-93.56747873053722
-0.2126,-0.182,0.9133,-0.1062,0.5842,0.3677,-9.8962,-33.1712,-15.4,-11.270041737103014,-12.887575030035007,-94.31742160285098
-0.1929,-0.1857,0.9112,-0.113,0.5834,0.3706,-10.7012,-33.6087,-15.4437,-11.518369006482923,-11.740858565550104,-95.35662570376586
-0.1783,-0.1892,0.9111,-0.113,0.5834,0.3706,-10.85,-32.7687,-13.7637,-11.730850396697981,-10.863984822499669,-95.74198912900384
-0.189,-0.1807,0.9248,-0.1174,0.5861,0.3737,-9.59,-31.2025,-13.6763,-11.057568914431998,-11.332257131483363,-95.74521592956637
-0.1942,-0.1817,0.9318,-0.1174,0.5861,0.3737,-10.465,-29.2687,-13.9125,-11.034206658118208,-11.556313896749446,-95.65029725660277
-0.1984,-0.1839,0.9353,-0.122,0.5869,0.3742,-9.835,-29.1112,-13.4312,-11.123461210343567,-11.753510105880993,-95.96294184598453
-0.1973,-0.1908,0.928,-0.1268,0.5858,0.3779,-9.9137,-29.7675,-12.9062,-11.617102403133234,-11.76359444064783,-96.3842925565132
-0.1905,-0.1955,0.924,-0.1268,0.5858,0.3779,-10.5525,-30.73,-12.6087,-11.945659684036835,-11.410883485582023,-96.58326955915915
-0.1799,-0.1979,0.9229,-0.1297,0.5874,0.3814,-10.4475,-31.4125,-12.6875,-12.10243064247246,-10.803062760602197,-97.02588707686553
-0.1631,-0.205,0.9173,-0.1374,0.5874,0.3833,-11.0687,-32.3488,-12.95,-12.596365680028697,-9.862580777286318,-98.08541399196645
-0.1374,-0.2135,0.9207,-0.1374,0.5874,0.3833,-11.5062,-32.7863,-12.1012,-13.05438578002943,-8.301829863903203,-98.74453786019795
-0.1352,-0.2187,0.909,-0.1428,0.5891,0.3872,-10.815,-32.4275,-11.9437,-13.526760966911485,-8.229817891603249,-99.17751559158344
-0.1523,-0.2067,0.9107,-0.1428,0.5891,0.3872,-10.5962,-32.3312,-12.495,-12.789473448408906,-9.242760730820006,-98.71098997592846
-0.164,-0.1972,0.9187,-0.1469,0.5915,0.3945,-10.5,-33.11,-13.685,-12.116412766413893,-9.888081424412272,-98.57913915492284
-0.1529,-0.2007,0.9274,-0.1502,0.5925,0.3934,-10.6487,-34.7725,-13.405,-12.2109257751178,-9.167384878354909,-99.18136363619668
-0.091,-0.2159,0.922,-0.1502,0.5925,0.3934,-11.34,-35.3063,-13.2475,-13.176839719663713,-5.5560424991193855,-100.68528570674488
-0.0745,-0.2184,0.9255,-0.1562,0.592,0.3933,-10.0187,-34.6063,-12.845,-13.277535796481647,-4.499507839122669,-101.56873426811198
-0.0661,-0.2233,0.9206,-0.1633,0.5931,0.4018,-9.45,-33.635,-12.1012,-13.633433406463487,-4.001015347210023,-102.22859946388503
-0.0526,-0.2331,0.9238,-0.1633,0.5931,0.4018,-9.625,-32.2962,-12.5475,-14.160396962300322,-3.176161897172385,-102.52326283949859
-0.0292,-0.2338,0.9171,-0.1685,0.5939,0.4007,-9.3625,-30.4237,-11.6462,-14.301659745317867,-1.7952637498005302,-103.42221406601168
-0.0154,-0.2312,0.9286,-0.1685,0.5939,0.4007,-8.0587,-26.0312,-10.6662,-13.98183632316625,-0.9410554674756139,-103.7352606203872
-0.0106,-0.2259,0.9335,-0.1735,0.5955,0.4038,-6.4663,-23.17,-10.9025,-13.604538626445578,-0.6395196730400993,-104.21666328720863
-0.0088,-0.2244,0.9342,-0.1738,0.5939,0.4026,-6.9563,-20.895,-10.1062,-13.507102318712619,-0.5275987079016018,-104.32497972875142
-0.0157,-0.2309,0.9332,-0.1738,0.5939,0.4026,-7.2188,-18.305,-9.1962,-13.8965336330384,-0.9249055166747248,-104.15017969715286
-0.0146,-0.2345,0.9371,-0.1763,0.5934,0.403,-6.9475,-16.1087,-9.0475,-14.048822661632252,-0.8675460243803242,-104.37013552863122
-0.0079,-0.2394,0.9364,-0.1763,0.5934,0.403,-7.8838,-14.7087,-8.435,-14.34034578140854,-0.4799000501526346,-104.48456279888738
-0.0106,-0.2369,0.9299,-0.1799,0.5961,0.4038,-7.595,-12.5562,-8.5662,-14.292678350709556,-0.6281390948325193,-104.65997248020521
-0.0379,-0.2226,0.9258,-0.1832,0.5962,0.4069,-6.825,-10.535,-8.2075,-13.521467486931282,-2.2247878742035154,-104.36868748788982
-0.0489,-0.2236,0.9298,-0.1832,0.5962,0.4069,-6.7987,-9.7388,-8.8025,-13.521832498463889,-2.903382881616667,-104.1301672860627
-0.0512,-0.2241,0.9379,-0.1845,0.5963,0.4081,-6.0113,-8.6712,-9.485,-13.438389179265002,-3.0345045083831397,-104.18304978920465
-0.0434,-0.2314,0.9297,-0.1873,0.5954,0.4049,-6.2562,-8.4787,-8.4263,-13.975480277110032,-2.6093336254022295,-104.58875570972774
-0.0329,-0.2358,0.9327,-0.1873,0.5954,0.4049,-6.37,-7.5513,-8.8987,-14.187399990156319,-1.982490351825743,-104.80200800852985
-0.0361,-0.2308,0.9287,-0.1868,0.595,0.4082,-5.67,-6.5887,-9.3362,-13.956930380994732,-2.153643104438615,-104.68644197315218
-0.0515,-0.2298,0.9262,-0.1868,0.595,0.4082,-5.5563,-6.405,-9.0212,-13.934363641877688,-3.0533028232181705,-104.35151129245226
-0.0603,-0.2348,0.9254,-0.1867,0.5962,0.4094,-5.3113,-6.8162,-9.2225,-14.23638046960783,-3.592859179143181,-104.10908341089528
-0.0548,-0.2407,0.928,-0.1896,0.5969,0.4078,-4.2088,-7.21,-9.4325,-14.539940563257279,-3.2834134088789204,-104.45337876879158
-0.0431,-0.2363,0.9223,-0.1896,0.5969,0.4078,-3.9375,-6.7463,-9.9925,-14.370888535518258,-2.6180631831538923,-104.69930906447321
-0.0281,-0.2303,0.9296,-0.1922,0.5942,0.4101,-4.3225,-6.2737,-10.4825,-13.915452081834758,-1.7166898197832705,-105.28919012491778
-0.0246,-0.2313,0.937,-0.1922,0.5942,0.4101,-3.6488,-5.8713,-10.6138,-13.866459533197432,-1.4701138803620826,-105.37223903013488
-0.019,-0.2358,0.9309,-0.1918,0.598,0.4113,-3.8325,-5.25,-10.5875,-14.213402580942644,-1.1469543833544322,-105.34430247344494
-0.0141,-0.2422,0.9341,-0.193,0.5966,0.4114,-4.8562,-2.7213,-9.45,-14.535172142182702,-0.8509234598575329,-105.54339189989237
-0.0051,-0.2485,0.937,-0.193,0.5966,0.4114,-3.4738,-1.6625,-9.415,-14.852607876391625,-0.3271214844955976,-105.69776078025932
-0.0032,-0.2436,0.9338,-0.1923,0.596,0.4107,-3.3075,-0.8138,-9.0037,-14.621427314939613,-0.19666183489231306,-105.71846101208644
-0.0109,-0.2352,0.9331,-0.1923,0.596,0.4107,-2.2662,0.6737,-9.8437,-14.148567351468191,-0.625233554079772,-105.6032850111274
-0.0148,-0.2292,0.9323,-0.1918,0.597,0.4098,-1.7937,2.66,-10.1062,-13.812691193856134,-0.8680705894539245,-105.49483850881332
-0.0202,-0.2215,0.9353,-0.193,0.5966,0.4096,-2.2225,3.2462,-10.08,-13.324627879645691,-1.183573544689985,-105.52328837866744
-0.0262,-0.2189,0.9314,-0.193,0.5966,0.4096,-1.9425,3.8588,-10.1237,-13.226010679069159,-1.544310031557934,-105.39730654573039
-0.0253,-0.2181,0.9339,-0.191,0.595,0.411,-2.2313,4.795,-10.6487,-13.145269397014843,-1.513380683010518,-105.28969435370725
-0.0273,-0.221,0.9326,-0.191,0.595,0.411,-2.765,5.2588,-10.5087,-13.331128827867913,-1.6234109095187834,-105.23108290271631
-0.0312,-0.2254,0.9279,-0.1896,0.597,0.4107,-4.025,6.1775,-10.6575,-13.652730058733907,-1.8531196795868516,-104.97229592460491
-0.0318,-0.2237,0.9258,-0.189,0.5972,0.4097,-2.7388,7.0613,-10.8238,-13.584108660184299,-1.907601289339348,-104.91783049082022
-0.0398,-0.2213,0.9276,-0.189,0.5972,0.4097,-3.7538,7.4113,-10.8238,-13.418777897866114,-2.3507031772914897,-104.7523879256926
-0.0645,-0.2202,0.9259,-0.1895,0.5962,0.4098,-3.745,7.0,-11.865,-13.377815218359563,-3.7571736479109883,-104.25437584004821
-0.0732,-0.2225,0.9206,-0.1895,0.5962,0.4098,-5.04,6.7813,-11.5412,-13.586763074381107,-4.368332067573608,-104.04346894755484
-0.0704,-0.2278,0.926,-0.1882,0.596,0.4141,-6.2388,6.02,-11.27,-13.820010683542803,-4.232854921170997,-103.96862835279283
-0.0641,-0.2358,0.9287,-0.1884,0.5975,0.4093,-5.32,4.9,-12.0925,-14.24551349703955,-3.85465211861602,-104.1432513665538
-0.0573,-0.2384,0.9262,-0.1884,0.5975,0.4093,-5.3987,4.7425,-12.4075,-14.433913389359699,-3.4570823638350667,-104.28128947733097
-0.0461,-0.2427,0.9326,-0.1862,0.5989,0.4099,-5.145,4.3313,-11.865,-14.586738452432312,-2.7854963768001504,-104.31482925297652
-0.0493,-0.2392,0.927,-0.1862,0.5989,0.4099,-4.48,4.9525,-12.2762,-14.469081047369693,-2.9368846441721495,-104.24614757744088
-0.0609,-0.233,0.9315,-0.1852,0.6002,0.413,-4.5763,4.8562,-12.32,-14.044498935593483,-3.582541234217527,-103.8837660981065
-0.0731,-0.2288,0.9285,-0.1848,0.5981,0.4085,-4.8125,4.9175,-11.4275,-13.843454875567192,-4.318067115987092,-103.66399163936272
-0.0844,-0.2352,0.9242,-0.1848,0.5981,0.4085,-4.7688,4.8213,-11.6988,-14.277090098565704,-5.007960979451206,-103.40798000307232
-0.0874,-0.2419,0.922,-0.1831,0.599,0.4086,-3.78,3.7713,-11.9087,-14.700023113214687,-5.224370229610169,-103.19322324926893
-0.0792,-0.2475,0.9249,-0.1831,0.599,0.4086,-3.9375,1.3562,-11.4012,-14.980471788379706,-4.755739506654833,-103.37506449437522
-0.0673,-0.2499,0.9242,-0.1853,0.5995,0.4062,-3.6138,1.0325,-11.7337,-15.130362438613416,-4.060309996527356,-103.80995638469575
-0.0637,-0.2474,0.928,-0.1842,0.5996,0.4091,-3.4038,0.9275,-11.9175,-14.928058621759623,-3.8087582736312555,-103.77376551217948
-0.0565,-0.2426,0.9327,-0.1842,0.5996,0.4091,-3.0013,0.91,-12.0137,-14.580685824059389,-3.3792922147849227,-103.93563239437736
-0.0511,-0.2361,0.928,-0.1851,0.5966,0.4089,-2.45,0.385,-11.8825,-14.27497307384653,-3.071453450526717,-104.17955765931119
-0.0451,-0.2338,0.9376,-0.1851,0.5966,0.4089,-2.0125,0.945,-11.0862,-14.002380104971492,-2.693447808230585,-104.32845133717476
-0.0439,-0.2309,0.93,-0.1879,0.6006,0.4018,-3.1412,1.5575,-10.0712,-13.943571728925475,-2.626952262110825,-104.55442419197884
-0.0425,-0.2328,0.9331,-0.1848,0.5978,0.4082,-3.1937,1.7413,-9.4237,-14.008633440357166,-2.535763894117615,-104.3390498553694
-0.057,-0.227,0.9313,-0.1848,0.5978,0.4082,-2.905,1.9775,-8.8112,-13.699202844990934,-3.3541588488842344,-104.0341860240338
-0.056,-0.2278,0.9368,-0.184,0.599,0.4081,-3.2725,2.555,-9.2837,-13.667325626472929,-3.326046439382101,-103.97956474706942
-0.0553,-0.2294,0.9296,-0.184,0.599,0.4081,-2.5725,1.68,-8.9337,-13.861619653679112,-3.3066077180541824,-103.97994472200958
-0.0565,-0.2297,0.9288,-0.1856,0.6018,0.4094,-2.4063,1.6362,-9.2575,-13.890933635977124,-3.3754828564430426,-104.01600585510457
-0.0533,-0.2293,0.9314,-0.1849,0.5976,0.4093,-2.7825,2.9138,-9.5462,-13.830668908710578,-3.192057000973896,-104.11260810285665
-0.0542,-0.2273,0.9276,-0.1849,0.5976,0.4093,-2.3275,3.3163,-9.7388,-13.76866299110283,-3.244713274508991,-104.09008510783295
-0.0542,-0.2269,0.9333,-0.1837,0.5992,0.407,-2.4237,3.4475,-9.1962,-13.664662653501603,-3.230681922203228,-103.99696703914356
-0.0536,-0.225,0.9309,-0.1837,0.5992,0.407,-2.2313,3.5175,-9.8262,-13.588064016474014,-3.2050238031397362,-104.00926151703412
-0.0588,-0.2231,0.9267,-0.1821,0.5983,0.4035,-3.2638,3.185,-9.485,-13.53630491103948,-3.5103675654118085,-103.81224878886309
-0.063,-0.2226,0.9211,-0.1871,0.5969,0.4127,-3.0713,2.9838,-9.5025,-13.585921494658907,-3.786064911552597,-104.04339916693822
-0.0637,-0.2206,0.9282,-0.1871,0.5969,0.4127,-3.0538,2.9138,-10.1763,-13.369646318736518,-3.817828646309477,-104.04363125442539
-0.057,-0.2242,0.924,-0.1845,0.5977,0.4086,-4.0338,3.1238,-9.6425,-13.638064006797817,-3.454024186162909,-103.9998997929139
-0.0584,-0.2228,0.9301,-0.1845,0.5977,0.4086,-4.1563,2.8875,-9.59,-13.471433752140383,-3.4918396309049062,-103.98162132353148
