AcclX,AcclY,AcclZ,MagX,MagY,MagZ,GyroX,GyroY,GyroZ,Roll,Pitch,Yaw,Time Elapsed(s)
-0.0432,1.0171,-0.0584,0.1379,0.1734,-0.0025,0.5337,-2.5463,-4.3313,0,0,0,0.004999999990104698
-0.0431,1.0169,-0.0609,0.1379,0.1734,-0.0025,0.5337,-2.5463,-4.3313,0,0,0,0.012999999991734512
-0.0427,1.0194,-0.0616,0.1379,0.1734,-0.003,0.3325,-2.8437,-4.6112,0,0,0,0.020999999993364327
-0.0426,1.0197,-0.057,0.1381,0.1733,-0.003,-0.2187,-2.975,-4.5588,0,0,0,0.02899999999499414
-0.0408,1.0161,-0.0619,0.1381,0.1733,-0.003,-0.7,-2.7213,-4.76,0,0,0,0.036999999989348
-0.0432,1.0178,-0.0627,0.1378,0.1706,0.0036,-0.7,-2.7213,-4.76,0,0,0,0.04499999999097781
-0.0432,1.0178,-0.0627,0.1378,0.1706,0.0036,-0.385,-2.7125,-4.7688,0,0,0,0.05299999999260763
-0.0418,1.0174,-0.0609,0.1372,0.1736,-0.0002,0.0962,-2.2575,-4.9437,0,0,0,0.06099999999423744
-0.04,1.0174,-0.0584,0.1372,0.1736,-0.0002,-0.3237,-2.24,-4.9875,0,0,0,0.06899999999586726
-0.0403,1.0161,-0.0581,0.1372,0.1736,-0.0002,-0.3237,-2.24,-4.9875,0,0,0,0.07699999999749707
-0.0403,1.0153,-0.0565,0.1356,0.1736,-0.0092,-0.4725,-2.3625,-5.3637,0,0,0,0.08499999999185093
-0.0403,1.0153,-0.0565,0.1356,0.1736,-0.0092,-0.42,-2.31,-5.5213,0,0,0,0.09299999999348074
-0.0406,1.0171,-0.0581,0.1381,0.1731,-0.0041,-0.42,-2.3275,-5.3637,0,0,0,0.10099999999511056
-0.0412,1.0175,-0.062,0.1381,0.1731,-0.0041,-0.1925,-2.3275,-5.3637,0,0,0,0.10899999999674037
-0.042,1.0175,-0.0577,0.1381,0.1731,-0.0041,-0.2975,-1.9338,-5.495,0,0,0,0.11699999999837019
-0.0395,1.016,-0.0586,0.1362,0.1738,-0.0133,-0.49,-2.2487,-5.6,0,0,0,0.12499999999272404
-0.0395,1.0164,-0.06,0.1362,0.1738,-0.0133,-0.49,-2.2487,-5.6,0,0,0,0.13299999999435386
-0.0415,1.0164,-0.06,0.1363,0.1726,-0.0027,-0.0787,-2.1088,-5.495,0,0,0,0.14099999999598367
-0.0425,1.0143,-0.0605,0.1363,0.1726,-0.0027,0.1312,-1.715,-5.9763,0,0,0,0.14899999999761349
-0.0421,1.0159,-0.056,0.1363,0.1726,-0.0027,0.1838,-1.785,-5.8625,0,0,0,0.1569999999992433
-0.0451,1.0176,-0.0568,0.1378,0.1741,-0.0121,0.1838,-1.785,-5.8625,0,0,0,0.16499999999359716
-0.0457,1.0189,-0.0576,0.1378,0.1741,-0.0121,-0.3588,-2.3625,-6.3437,0,0,0,0.17299999999522697
-0.0457,1.0189,-0.0576,0.135,0.1731,-0.0009,-0.3237,-2.625,-6.0025,0,0,0,0.1809999999968568
-0.045,1.0184,-0.0592,0.135,0.1731,-0.0009,-0.6125,-2.765,-5.8888,0,0,0,0.1889999999984866
-0.0439,1.0226,-0.0585,0.135,0.1731,-0.0009,-0.6125,-2.765,-5.8888,0,0,0,0.19700000000011642
-0.0454,1.019,-0.0573,0.1391,0.1736,-0.0067,-0.6475,-2.4062,-6.1337,0,0,0,0.20499999999447027
-0.0476,1.0196,-0.0585,0.1391,0.1736,-0.0067,-0.8138,-2.275,-6.5363,0,0,0,0.21299999998882413
-0.0476,1.0213,-0.055,0.1372,0.1728,-0.0026,-0.56,-2.31,-6.8075,0,0,0,0.22099999999045394
-0.0472,1.0213,-0.055,0.1372,0.1728,-0.0026,-0.56,-2.31,-6.8075,0,0,0,0.22899999999208376
-0.0495,1.0196,-0.059,0.1384,0.174,-0.0038,-0.665,-2.6075,-6.4488,0,0,0,0.23699999999371357
-0.0477,1.0201,-0.059,0.1384,0.174,-0.0038,-0.42,-2.9137,-6.4225,0,0,0,0.2449999999953434
-0.0473,1.0196,-0.0565,0.1384,0.174,-0.0038,-0.5163,-2.7037,-6.4488,0,0,0,0.25299999998969724
-0.0432,1.0162,-0.0553,0.1387,0.1726,-0.0028,-0.5163,-2.7037,-6.4488,0,0,0,0.26099999999132706
-0.0432,1.0162,-0.0553,0.1387,0.1726,-0.0028,-0.5337,-2.555,-6.0025,0,0,0,0.2689999999929569
-0.0475,1.0192,-0.0592,0.1383,0.1738,0.0016,-0.665,-2.835,-5.6438,0,0,0,0.2769999999945867
-0.0469,1.016,-0.0566,0.1383,0.1738,0.0016,-0.665,-2.835,-5.355,0,0,0,0.2849999999962165
-0.0481,1.0157,-0.0567,0.1383,0.1738,0.0016,-0.5337,-3.0187,-5.355,0,0,0,0.2929999999978463
-0.0468,1.0157,-0.0559,0.1383,0.1733,-0.005,-0.105,-2.3537,-5.67,0,0,0,0.3009999999922002
-0.0468,1.0161,-0.0554,0.1383,0.1733,-0.005,-0.1838,-3.0275,-5.9237,0,0,0,0.30899999999383
-0.046,1.0161,-0.0554,0.1381,0.1733,-0.0031,-0.1838,-3.0275,-5.9237,0,0,0,0.3169999999954598
-0.0411,1.0176,-0.0513,0.1381,0.1733,-0.0031,-0.3237,-3.2375,-5.5738,0,0,0,0.32400000000052387
-0.0412,1.0206,-0.0581,0.1381,0.1733,-0.0031,-0.3237,-3.22,-5.6525,0,0,0,0.33199999998760177
-0.0455,1.018,-0.0561,0.1384,0.1744,-0.0022,-0.035,-2.835,-5.635,0,0,0,0.3399999999892316
-0.0461,1.018,-0.0555,0.1384,0.1744,-0.0022,-0.035,-2.835,-5.635,0,0,0,0.3479999999908614
-0.0461,1.018,-0.0555,0.1392,0.1738,0.0037,-0.1312,-3.1937,-5.7838,0,0,0,0.3559999999924912
-0.0484,1.0169,-0.0592,0.1392,0.1738,0.0037,-0.105,-3.3075,-5.7137,0,0,0,0.363999999994121
-0.0507,1.023,-0.0607,0.1392,0.1738,0.0037,-0.0962,-3.5875,-6.0113,0,0,0,0.37199999999575084
-0.0488,1.0243,-0.0537,0.1376,0.1743,0.0037,-0.0962,-3.5875,-6.0113,0,0,0,0.3799999999901047
-0.0462,1.0247,-0.0584,0.1376,0.1743,0.0037,0.3675,-3.5263,-6.1512,0,0,0,0.3879999999917345
-0.0462,1.0247,-0.0603,0.1398,0.1749,0.0017,-0.2013,-3.5875,-5.9763,0,0,0,0.3959999999933643
-0.0478,1.0227,-0.0603,0.1398,0.1749,0.0017,-0.56,-3.5788,-6.2825,0,0,0,0.40399999999499414
-0.0478,1.0206,-0.0554,0.1406,0.1732,-0.0025,-0.56,-3.5788,-6.2825,0,0,0,0.41199999999662396
-0.0505,1.016,-0.0556,0.1406,0.1732,-0.0025,-0.3063,-3.7538,-6.2125,0,0,0,0.4199999999909778
-0.0512,1.0157,-0.0562,0.1406,0.1732,-0.0025,-0.1838,-3.8588,-5.8275,0,0,0,0.4279999999926076
-0.0494,1.0149,-0.0567,0.1415,0.1734,-0.0006,-0.1838,-3.8588,-5.6613,0,0,0,0.43599999999423744
-0.0494,1.0149,-0.0567,0.1415,0.1734,-0.0006,0.14,-3.5875,-5.6613,0,0,0,0.44399999999586726
-0.0509,1.0142,-0.0577,0.1378,0.1748,-0.0007,0.28,-3.1063,-5.7488,0,0,0,0.45199999999749707
-0.049,1.0165,-0.056,0.1378,0.1748,-0.0007,0.105,-3.325,-5.8012,0,0,0,0.4599999999991269
-0.0479,1.0171,-0.056,0.1378,0.1748,-0.0007,0.105,-3.325,-5.8012,0,0,0,0.46799999999348074
-0.0492,1.0188,-0.0567,0.1404,0.1747,0.009,0.2975,-3.5,-5.5125,0,0,0,0.47599999999511056
-0.0492,1.0188,-0.0575,0.1404,0.1747,0.009,0.4112,-3.2812,-5.6962,0,0,0,0.48399999999674037
-0.0475,1.0227,-0.0575,0.1401,0.1742,-0.0018,0.8662,-2.6075,-5.81,0,0,0,0.4919999999983702
-0.048,1.0226,-0.0596,0.1401,0.1742,-0.0018,0.8662,-2.6075,-5.81,0,0,0,0.5
-0.0495,1.0211,-0.061,0.1401,0.1742,-0.0018,0.7962,-2.7037,-5.39,0,0,0,0.5079999999943539
-0.0479,1.019,-0.0578,0.1389,0.1738,0.0054,-0.0613,-2.5988,-5.1275,0,0,0,0.5159999999959837
-0.0481,1.0188,-0.0639,0.1389,0.1738,0.0054,0.1925,-2.4062,-5.04,0,0,0,0.5239999999976135
-0.0481,1.0188,-0.0639,0.1389,0.1742,-0.0034,0.1925,-2.4062,-5.04,0,0,0,0.5319999999992433
-0.0464,1.02,-0.0613,0.1389,0.1742,-0.0034,0.5163,-2.3187,-4.8825,0,0,0,0.5399999999935972
-0.0451,1.0207,-0.0603,0.1389,0.1742,-0.0034,0.6037,-2.5463,-4.935,0,0,0,0.547999999987951
-0.046,1.0173,-0.0641,0.1403,0.1737,-0.0108,0.3938,-1.7413,-4.6813,0,0,0,0.5559999999895808
-0.0473,1.0208,-0.0626,0.1403,0.1737,-0.0108,0.3938,-1.7413,-4.6813,0,0,0,0.5639999999912106
-0.0473,1.0208,-0.064,0.1398,0.1744,0.0002,0.1925,-1.715,-5.005,0,0,0,0.5719999999928405
-0.0461,1.0189,-0.064,0.1398,0.1744,0.0002,0.6825,-1.75,-4.935,0,0,0,0.5799999999944703
-0.0448,1.0202,-0.0628,0.1398,0.1748,-0.0027,0.6825,-1.9075,-4.97,0,0,0,0.5879999999961001
-0.0404,1.0201,-0.0601,0.1397,0.1748,-0.0027,0.4462,-1.9075,-4.97,0,0,0,0.5959999999904539
-0.0419,1.0157,-0.0642,0.1397,0.1748,-0.0027,0.105,-1.89,-5.2675,0,0,0,0.6039999999920838
-0.0445,1.0183,-0.0633,0.1398,0.1742,0.0022,0.0175,-1.6363,-5.0575,0,0,0,0.6119999999937136
-0.0445,1.0183,-0.0633,0.1398,0.1742,0.0022,0.0175,-1.6363,-5.0575,0,0,0,0.6199999999953434
-0.0446,1.0145,-0.0618,0.1402,0.1722,0.0019,0.1838,-1.3125,-5.1625,0,0,0,0.6279999999969732
-0.0478,1.0157,-0.0631,0.1402,0.1722,0.0019,0.1838,-1.2775,-5.0575,0,0,0,0.6359999999913271
-0.0501,1.0201,-0.0619,0.1402,0.1722,0.0019,-0.105,-1.5838,-4.9788,0,0,0,0.6439999999929569
-0.0489,1.0185,-0.0586,0.1389,0.1733,-0.003,-0.105,-1.5838,-4.9788,0,0,0,0.6519999999945867
-0.0489,1.0185,-0.0586,0.1389,0.1733,-0.003,-0.0875,-2.2138,-5.0838,0,0,0,0.6599999999962165
-0.0505,1.0208,-0.0632,0.1378,0.1733,-0.002,-0.4025,-2.3975,-5.0838,0,0,0,0.6669999999940046
-0.0483,1.0228,-0.0575,0.1378,0.1733,-0.002,-0.6825,-2.485,-5.4425,0,0,0,0.6749999999883585
-0.0515,1.0199,-0.0626,0.1378,0.1733,-0.002,-0.6825,-2.485,-5.4425,0,0,0,0.6829999999899883
-0.0506,1.0181,-0.0603,0.1386,0.1746,0.001,-0.6125,-2.7125,-5.6,0,0,0,0.6909999999916181
-0.05,1.0182,-0.0597,0.1386,0.1746,0.001,-0.49,-2.8788,-5.425,0,0,0,0.6989999999932479
-0.05,1.0182,-0.0597,0.1397,0.1759,-0.0012,-0.315,-2.8963,-5.425,0,0,0,0.7069999999948777
-0.0519,1.0177,-0.0606,0.1397,0.1759,-0.0012,-0.315,-2.8963,-5.425,0,0,0,0.7149999999892316
-0.0497,1.0169,-0.0576,0.1397,0.1759,-0.0012,-0.1663,-2.9662,-5.215,0,0,0,0.7229999999908614
-0.0504,1.0172,-0.0569,0.1398,0.175,-0.008,-0.1312,-2.7213,-5.0925,0,0,0,0.7309999999924912
-0.0497,1.0174,-0.0603,0.1398,0.175,-0.008,0.1838,-2.7125,-4.795,0,0,0,0.738999999994121
-0.0497,1.0174,-0.0603,0.1392,0.1744,0.0042,0.1838,-2.7125,-4.795,0,0,0,0.7469999999957508
-0.0479,1.0202,-0.059,0.1392,0.1744,0.0042,0.3588,-3.1675,-4.8913,0,0,0,0.7549999999973807
-0.046,1.0188,-0.0594,0.1392,0.1744,-0.0055,0.0787,-3.2725,-4.7337,0,0,0,0.7629999999917345
-0.047,1.0199,-0.064,0.1389,0.1737,-0.0055,0.0787,-3.2725,-4.7337,0,0,0,0.7709999999933643
-0.0478,1.02,-0.0584,0.1389,0.1737,-0.0055,0.3237,-2.8612,-4.5237,0,0,0,0.7789999999949941
-0.0481,1.0178,-0.0645,0.1394,0.1746,-0.002,0.3938,-2.5463,-4.9175,0,0,0,0.786999999996624
-0.0481,1.0178,-0.0645,0.1394,0.1746,-0.002,0.7,-2.3187,-4.7512,0,0,0,0.7949999999982538
-0.0492,1.0188,-0.0602,0.1387,0.1729,-0.0019,0.7,-2.3187,-4.7512,-1.5043265353512993,-0.829609359730968,0.0,0.8029999999926076
-0.0484,1.0186,-0.0562,0.1387,0.1729,-0.0019,0.4288,-2.4675,-4.9437,-2.077263639108619,-1.1914156235920343,-0.1480500000122083,0.8629999999975553
-0.0465,1.0151,-0.0631,0.1387,0.1729,-0.0019,0.4988,-2.73,-4.6988,-2.632239653235287,-1.6554172571633656,-0.16442999999568197,0.8689999999915017
-0.0461,1.016,-0.0604,0.1383,0.1742,-0.0123,0.6125,-3.0538,-4.5937,-2.9529200052012348,-2.0024525471331893,-0.18580660001114663,0.8759999999965657
-0.0461,1.016,-0.0604,0.1383,0.1742,-0.0123,0.6125,-3.0538,-4.5937,-3.1400338306886373,-2.221089543914338,-0.20412939999266017,0.8819999999905122
-0.0446,1.0169,-0.0614,0.1379,0.1734,0.001,0.3325,-3.2812,-4.095,-3.235422425417533,-2.3698084449587573,-0.22381659999667097,0.8879999999917345
-0.0442,1.0148,-0.0607,0.1379,0.1734,0.001,0.2713,-2.94,-3.955,-3.2863585108324935,-2.435740028360331,-0.2414566000002647,0.8939999999929569
-0.0459,1.0172,-0.0641,0.1379,0.1734,0.001,0.49,-2.8175,-4.1825,-3.4050569746917536,-2.507088689035243,-0.2555440999928847,0.8989999999903375
-0.0447,1.0167,-0.0631,0.1373,0.173,-0.0004,0.49,-2.8175,-4.1825,-3.459445776426008,-2.5098440656455665,-0.2611790999940327,0.900999999990745
-0.0447,1.0171,-0.0667,0.1373,0.173,-0.0004,1.155,-2.1962,-4.2962,-3.6223431328614595,-2.510413180794074,-0.265571500010907,0.9029999999984284
-0.0445,1.0171,-0.0667,0.1385,0.1731,-0.0013,1.2687,-2.1788,-4.5763,-3.697295887660569,-2.5064273422298347,-0.27210790000431223,0.9059999999954016
-0.0464,1.0184,-0.0646,0.1385,0.1731,-0.0013,1.435,-1.9775,-5.04,-3.6562728883318503,-2.51841598311004,-0.27606290000511796,0.907999999995809
-0.0426,1.0169,-0.0624,0.1385,0.1731,-0.0013,1.435,-1.9775,-5.04,-3.568541045787043,-2.50308575251544,-0.2819953999991325,0.9109999999927823
-0.0432,1.0166,-0.0695,0.1394,0.1736,0.008,0.9712,-2.4938,-4.7075,-3.7457357993997342,-2.478841902021386,-0.28698300001829335,0.9130000000004657
-0.0419,1.0174,-0.0654,0.1394,0.1736,0.008,0.8313,-2.4413,-5.2587,-3.713047808688043,-2.4697979043694227,-0.2918656000015253,0.9149999999935972
-0.0419,1.0174,-0.0654,0.1386,0.1727,0.0066,0.8313,-2.4413,-5.18,-3.69613403042703,-2.4696855055560913,-0.31139600000550416,0.922999999995227
-0.0419,1.0174,-0.066,0.1386,0.1727,0.0066,0.5863,-2.52,-5.18,-3.7024550421196456,-2.469573129200101,-0.3290359999999302,0.9299999999930151
-0.0435,1.015,-0.0701,0.1386,0.1727,-0.0138,0.525,-2.3012,-5.0487,-3.7980985299048196,-2.4670772171689244,-0.34744560000368074,0.9379999999946449
-0.045,1.0146,-0.0669,0.1392,0.1736,-0.0065,0.5775,-2.275,-5.4687,-3.7877353388518373,-2.482041400733787,-0.36564560000738855,0.9459999999962747
-0.0429,1.016,-0.0656,0.1392,0.1736,-0.0065,0.5775,-2.275,-5.4687,-3.749948948920581,-2.466575806747009,-0.38384560001109636,0.9539999999979045
-0.0585,1.0178,-0.0693,0.1392,0.1748,0.0016,0.7262,-1.9425,-5.3725,-3.81569547884456,-2.5976484554274353,-0.39938560001426227,0.9619999999995343
-0.0476,1.0178,-0.0693,0.1392,0.1748,0.0016,0.9538,-1.715,-4.9788,-3.8564858243452274,-2.610060455581599,-0.41310560000457913,0.9699999999938882
-0.0444,1.0191,-0.065,0.1386,0.1741,-0.0034,0.6475,-1.9512,-5.46,-3.7678496529358663,-2.5837861200025976,-0.4287152000077592,0.977999999995518
-0.044,1.0178,-0.0695,0.1386,0.1741,-0.0034,0.6475,-1.9512,-5.46,-3.827154508435076,-2.55888405328091,-0.44432480001093927,0.9859999999971478
-0.0469,1.0199,-0.0689,0.1386,0.1741,-0.0034,0.7088,-1.6888,-5.4862,-3.84399433225885,-2.574791410595965,-0.4578352000136917,0.9939999999987776
-0.0432,1.0201,-0.0645,0.14,0.174,-0.0039,0.84,-1.26,-5.0925,-3.734385266971849,-2.5622211056994644,-0.46791520000657755,1.0019999999931315
-0.0432,1.0201,-0.0645,0.14,0.174,-0.0039,0.7437,-1.3825,-4.8125,-3.681054947688391,-2.523962531499569,-0.47897520000883076,1.0099999999947613
-0.0435,1.0186,-0.0693,0.139,0.1746,0.0018,0.7437,-1.3825,-4.8125,-3.777711821316786,-2.5012840862907577,-0.49003520000102496,1.0179999999891152
-0.0444,1.019,-0.0667,0.139,0.1746,0.0018,0.77,-1.5838,-4.9788,-3.762494055207158,-2.499319199453345,-0.5027056000036063,1.025999999990745
-0.045,1.0186,-0.0694,0.139,0.1746,0.0018,0.8138,-1.9162,-5.1712,-3.8270982438274497,-2.499555420717641,-0.5180352000067293,1.0339999999923748
-0.0445,1.0164,-0.0686,0.1377,0.175,0.001,1.1725,-1.8813,-5.3375,-3.846210650302865,-2.4997831775397876,-0.5330856000097954,1.0419999999940046
-0.0445,1.0195,-0.0684,0.1377,0.175,0.001,1.1725,-1.8813,-5.3375,-3.841790026893324,-2.4989610896873646,-0.5481360000128616,1.0499999999956344
-0.0432,1.0195,-0.0684,0.1392,0.1745,-0.0026,0.7525,-2.1437,-5.46,-3.840191669540257,-2.48194164951716,-0.5652856000007579,1.0579999999899883
-0.0412,1.0169,-0.0672,0.1392,0.1745,-0.0026,0.455,-1.785,-5.285,-3.8189582482667377,-2.466214741415773,-0.5777806000097973,1.0649999999950523
-0.0467,1.0185,-0.0709,0.1392,0.1745,-0.0026,0.455,-1.8988,-5.6875,-3.877260692844084,-2.5175658989520975,-0.5929710000128919,1.0729999999966822
-0.0475,1.0171,-0.0664,0.1382,0.1734,0.001,0.9712,-1.8988,-5.6875,-3.803732956491751,-2.568205726629698,-0.6081614000159866,1.080999999998312
-0.0501,1.0171,-0.0699,0.1382,0.1734,0.001,0.84,-1.3825,-5.1188,-3.8656660313698823,-2.5825538394917342,-0.6192214000182399,1.0889999999999418
-0.0501,1.0171,-0.0699,0.1386,0.173,-0.0057,0.3675,-2.3187,-5.4513,-3.8866662470975837,-2.6316690893798063,-0.6377710000051482,1.0969999999942956
-0.048,1.0192,-0.0725,0.1386,0.173,-0.0057,0.3675,-2.3187,-5.4513,-3.9448122176902567,-2.643999148202147,-0.6586393000009643,1.1059999999924912
-0.0442,1.0169,-0.0684,0.1386,0.173,-0.0057,1.1113,-1.9338,-5.2675,-3.8918114616324773,-2.631194100232149,-0.6760434999974748,1.1149999999906868
-0.0434,1.013,-0.0697,0.1378,0.1738,-0.0014,0.7175,-1.8112,-5.1363,-3.9117331799517374,-2.6233375394665153,-0.6905331000004268,1.1229999999923166
-0.0443,1.0194,-0.0725,0.1378,0.1738,-0.0014,1.0762,-1.7763,-5.1013,-3.996258945214913,-2.6129137597162635,-0.7047435000033219,1.1309999999939464
-0.0443,1.0228,-0.0672,0.1391,0.1741,-0.0029,1.0762,-1.7763,-5.1013,-3.867982009830572,-2.6027183446355733,-0.7171776000123171,1.1379999999990105
-0.0407,1.0228,-0.0672,0.1391,0.1741,-0.0029,0.9187,-1.085,-4.9262,-3.8129731667490145,-2.5359462854808728,-0.7247726000020228,1.1449999999895226
-0.046,1.0205,-0.0753,0.138,0.1742,-0.0062,0.5863,-1.3563,-5.1275,-3.9788398180687006,-2.537873896103313,-0.7356230000042333,1.1529999999911524
-0.0443,1.0188,-0.0731,0.138,0.1742,-0.0062,0.7175,-1.9425,-4.8038,-4.035186657927698,-2.5229606851882536,-0.7511630000073992,1.1609999999927823
-0.045,1.0194,-0.0718,0.138,0.1742,-0.0062,0.7175,-1.9425,-4.8038,-4.0323536663847825,-2.5225232707302068,-0.7667030000105651,1.168999999994412
-0.0447,1.0217,-0.0733,0.1394,0.174,-0.0038,0.7175,-1.96,-4.9262,-4.064405967139029,-2.517688998690012,-0.7823830000137596,1.1769999999960419
-0.0447,1.0217,-0.0733,0.1394,0.174,-0.0038,0.7613,-2.625,-5.2587,-4.082534586400783,-2.516320380963343,-0.8033829999989385,1.1849999999903957
-0.0416,1.0239,-0.071,0.1382,0.1738,-0.0058,0.7175,-2.7213,-4.97,-4.030384187644027,-2.482296622026565,-0.8251534000033737,1.1929999999920256
-0.0403,1.0204,-0.0718,0.1382,0.1738,-0.0058,0.7175,-2.7213,-4.97,-4.027941562459275,-2.4428917643063515,-0.8469238000078089,1.2009999999936554
-0.043,1.0201,-0.0722,0.1382,0.1738,-0.0058,0.7,-2.52,-4.9,-4.037084218584433,-2.4351790735500325,-0.867083800011916,1.2089999999952852
-0.0409,1.0162,-0.0718,0.138,0.1738,-0.0071,0.3413,-1.9512,-4.8825,-4.038450968557597,-2.4038929422678947,-0.8826934000150961,1.216999999996915
-0.0409,1.0162,-0.076,0.138,0.1738,-0.0071,0.2537,-1.7062,-5.1537,-4.100978170817685,-2.401092383413454,-0.8963430000054626,1.2249999999912689
-0.0422,1.016,-0.076,0.1386,0.1737,-0.0026,0.2537,-1.7062,-5.1537,-4.147342633091487,-2.4003153721796955,-0.9099926000082434,1.2329999999928987
-0.0455,1.0171,-0.0703,0.1386,0.1737,-0.0026,0.7262,-1.3475,-5.2587,-4.05974317836756,-2.4114961849338017,-0.9207726000104396,1.2409999999945285
-0.0423,1.0164,-0.0709,0.1386,0.1737,-0.0026,0.595,-1.1638,-5.3637,-4.031221331391151,-2.406222125563184,-0.9300830000123363,1.2489999999961583
-0.0442,1.0152,-0.0755,0.1375,0.1731,-0.0078,0.595,-1.1638,-5.3025,-4.122355143245416,-2.414880635427875,-0.9393934000142331,1.256999999997788
-0.0473,1.0171,-0.0709,0.1375,0.1731,-0.0078,0.5863,-1.3125,-5.3025,-4.06741778754263,-2.4410277863658023,-0.9498934000068225,1.264999999992142
-0.0473,1.0171,-0.0709,0.1386,0.1725,-0.0006,0.5337,-1.5838,-5.4687,-4.03638773439875,-2.489099987052068,-0.9625638000094039,1.2729999999937718
-0.0454,1.0179,-0.0712,0.1386,0.1725,-0.0006,0.4462,-1.5838,-5.4775,-4.023939558049987,-2.5024742217932414,-0.9752342000119852,1.2809999999954016
-0.0439,1.018,-0.0774,0.1386,0.1725,-0.0006,0.4462,-1.5838,-5.4775,-4.138564318923519,-2.4932590325394863,-0.9879046000145666,1.2889999999970314
-0.0432,1.0191,-0.0738,0.137,0.1732,-0.0033,0.6212,-1.4088,-5.6962,-4.139984005726471,-2.468689200365506,-0.9991750000168627,1.2969999999986612
-0.0412,1.0221,-0.0722,0.137,0.1732,-0.0033,0.315,-1.4875,-5.8713,-4.110769749524292,-2.4008436248820755,-1.0125625000141785,1.3059999999968568
-0.0412,1.0221,-0.0723,0.1395,0.1753,-0.0038,-0.2625,-1.3388,-5.775,-4.101803893891043,-2.3642128506319713,-1.0219341000112172,1.312999999994645
-0.0431,1.0208,-0.0723,0.1395,0.1753,-0.0038,-0.2625,-1.3388,-5.775,-4.0947953819548015,-2.38189451448711,-1.0326445000133992,1.3209999999962747
-0.0453,1.0222,-0.0723,0.138,0.1734,-0.0026,-0.2537,-1.47,-5.8713,-4.088314400631787,-2.4428524643535328,-1.0444045000050994,1.3289999999906286
-0.0447,1.0199,-0.0722,0.138,0.1734,-0.0026,0.0525,-1.3125,-6.0988,-4.0831110875417425,-2.4717750177069227,-1.0549045000072386,1.3369999999922584
-0.0458,1.0182,-0.0752,0.138,0.1734,-0.0026,-0.4988,-1.7237,-5.425,-4.12317129514185,-2.490752497413247,-1.0686941000100478,1.3449999999938882
-0.0462,1.0167,-0.0721,0.1379,0.1737,-0.0066,-0.4988,-1.7237,-5.425,-4.104174254348598,-2.511258189434342,-1.082483700012857,1.352999999995518
-0.0462,1.0167,-0.0721,0.1379,0.1737,-0.0066,-0.3762,-1.3737,-5.8362,-4.0938693545104226,-2.54452127226393,-1.093473300005101,1.3609999999898719
-0.0459,1.0157,-0.0713,0.1393,0.1754,-0.0035,-0.315,-1.4875,-5.7575,-4.080064186533175,-2.5579060113962115,-1.1053733000075252,1.3689999999915017
-0.0465,1.016,-0.0744,0.1393,0.1754,-0.0035,-0.49,-1.75,-5.7488,-4.110330114208062,-2.5780336993468964,-1.1193733000103774,1.3769999999931315
-0.0478,1.0151,-0.0728,0.1393,0.1754,-0.0035,-0.49,-1.75,-5.7488,-4.1080160743084155,-2.6182631662946374,-1.1333733000132296,1.3849999999947613
-0.0429,1.0183,-0.071,0.1389,0.174,-0.0003,-0.1312,-1.4963,-5.7312,-4.104547336468065,-2.5431199911063507,-1.1468400000214165,1.3940000000002328
-0.0429,1.0183,-0.07,0.1389,0.174,-0.0003,-0.1225,-1.6013,-5.8187,-4.100978559168362,-2.490004507534571,-1.1580491000062236,1.400999999990745
-0.0411,1.021,-0.07,0.1389,0.1743,-0.0034,-0.1225,-1.54,-6.0113,-4.0972688205066286,-2.4037107976419625,-1.1703691000087335,1.4089999999923748
-0.0427,1.019,-0.0723,0.1389,0.1743,-0.0034,-0.3675,-1.54,-6.0113,-4.089107079126213,-2.3990780169378936,-1.1826891000112434,1.4169999999940046
-0.0461,1.018,-0.0714,0.1389,0.1743,-0.0034,-0.2713,-1.2337,-5.9938,-4.077906931587128,-2.4831205760615354,-1.192558700013254,1.4249999999956344
-0.0461,1.0155,-0.072,0.1384,0.1744,-0.0018,-0.1925,-1.5137,-5.67,-4.076038309604956,-2.519120623707972,-1.204668300015721,1.4329999999972642
-0.0476,1.0172,-0.0745,0.1384,0.1744,-0.0018,-0.1925,-1.5137,-5.67,-4.0854669063084845,-2.5693501078572973,-1.2167779000071743,1.440999999991618
-0.0476,1.0172,-0.0745,0.139,0.1759,-0.0012,0.0175,-1.6275,-5.4075,-4.096449804267858,-2.588320346342428,-1.229797900009827,1.448999999993248
-0.0508,1.019,-0.0717,0.139,0.1759,-0.0012,-0.455,-1.785,-5.7663,-4.077749472120425,-2.683816452399205,-1.2440779000127362,1.4569999999948777
-0.0479,1.0197,-0.0699,0.139,0.1759,-0.0012,0.0,-1.8463,-6.125,-4.0633710024776555,-2.6835082282151874,-1.2588483000157453,1.4649999999965075
-0.048,1.0186,-0.072,0.138,0.1745,-0.0018,0.0,-1.8463,-6.125,-4.061519059260094,-2.6872807248146082,-1.2736187000187544,1.4729999999981374
-0.0467,1.0199,-0.0741,0.138,0.1745,-0.0018,0.0613,-1.7062,-5.7137,-4.0746615852378305,-2.6620855595854067,-1.2855621000025663,1.4799999999886495
-0.0467,1.0199,-0.0741,0.1389,0.1757,0.0003,0.0875,-1.715,-5.8975,-4.087497685437057,-2.642343536722288,-1.2992821000053614,1.4879999999902793
-0.0467,1.0229,-0.0695,0.1389,0.1757,0.0003,-0.2713,-1.6975,-5.705,-4.0583597892894065,-2.630531613761192,-1.312862100008128,1.4959999999919091
-0.0443,1.02,-0.0691,0.1389,0.1745,-0.0038,-0.2713,-1.6975,-5.705,-4.031806334597009,-2.5791815938574647,-1.3264421000108946,1.503999999993539
-0.0467,1.019,-0.0745,0.1398,0.1745,-0.0038,-0.1838,-1.54,-5.2587,-4.043212111888803,-2.5819100985697823,-1.3387621000134045,1.5119999999951688
-0.0466,1.019,-0.0692,0.1398,0.1745,-0.0038,0.0613,-1.3563,-5.3375,-4.021078346755501,-2.586032311911192,-1.349612500015615,1.5199999999967986
-0.045,1.0181,-0.0687,0.1394,0.1749,-0.0004,-0.28,-1.925,-5.3113,-3.9967194850647747,-2.579005388551359,-1.3650125000047462,1.5279999999911524
-0.045,1.0181,-0.0687,0.1394,0.1749,-0.0004,-0.28,-1.925,-5.3113,-3.9760531761240347,-2.5727887043000517,-1.3804125000078835,1.5359999999927823
-0.0495,1.0174,-0.0695,0.1397,0.1746,-0.0035,-0.1138,-1.8463,-5.355,-3.9752132288310627,-2.6033525480899895,-1.3951829000108926,1.543999999994412
-0.0474,1.0157,-0.0731,0.1397,0.1746,-0.0035,0.0175,-1.2775,-5.4775,-3.990216880784012,-2.617456426965879,-1.4054029000129746,1.5519999999960419
-0.0502,1.02,-0.0697,0.1397,0.1746,-0.0035,-0.385,-1.68,-5.6613,-3.972298795320757,-2.680267405929879,-1.4188429000157128,1.5599999999976717
-0.0484,1.0169,-0.07,0.1385,0.1732,-0.0036,-0.385,-1.68,-5.6613,-3.964683456426096,-2.6926888468802685,-1.4322829000062272,1.5679999999920256
-0.0484,1.0169,-0.07,0.1385,0.1732,-0.0036,0.4375,-1.6975,-5.215,-3.955283481922184,-2.6935399758820986,-1.4458629000089938,1.5759999999936554
-0.0504,1.0191,-0.072,0.1388,0.1741,-0.0028,0.5512,-1.2163,-5.285,-3.989234470541304,-2.705856835052136,-1.4555933000109762,1.5839999999952852
-0.047,1.0202,-0.0717,0.1388,0.1741,-0.0028,0.5512,-1.2163,-5.285,-4.001444489470076,-2.6988253101441146,-1.4665400000087814,1.5929999999934807
-0.0473,1.0204,-0.0725,0.1388,0.1741,-0.0028,0.9363,-0.7088,-5.1275,-4.033334503302198,-2.6962125506659165,-1.4729192000126596,1.6019999999989523
-0.049,1.0196,-0.0745,0.1406,0.1763,0.0058,0.1138,-1.7587,-5.39,-4.059132579731848,-2.7044924508409904,-1.486988800015526,1.610000000000582
-0.0486,1.0197,-0.0736,0.1406,0.1763,0.0058,0.1838,-1.7938,-5.11,-4.07448751189852,-2.7056289940457403,-1.4995453999985067,1.6169999999910942
-0.0486,1.0197,-0.0736,0.1389,0.176,-0.0026,0.1838,-1.7938,-5.11,-4.086435713175961,-2.706690224881752,-1.5121020000075907,1.6239999999961583
-0.0481,1.0207,-0.0753,0.1389,0.176,-0.0026,0.2713,-2.2575,-4.865,-4.122485947863553,-2.7028602618425643,-1.53016200001127,1.631999999997788
-0.0445,1.0204,-0.0726,0.1389,0.176,-0.0026,0.2275,-1.9688,-4.9262,-4.109412629653536,-2.659807391163543,-1.5459124000144786,1.639999999999418
-0.0454,1.0184,-0.0731,0.1384,0.1743,-0.0006,-0.1312,-1.75,-5.4513,-4.109302244723864,-2.6355883651479344,-1.5599124000045979,1.6479999999937718
-0.0472,1.0178,-0.0758,0.1384,0.1743,-0.0006,-0.1312,-1.75,-5.4513,-4.11365063542349,-2.63819564317451,-1.57391240000745,1.6559999999954016
-0.0472,1.0178,-0.0758,0.1396,0.1735,0.0044,-0.455,-1.68,-5.2063,-4.15167925825125,-2.638433935452208,-1.5873523999979644,1.6639999999897555
-0.0475,1.017,-0.0737,0.1396,0.1735,0.0044,0.105,-2.1,-4.9437,-4.150514186902794,-2.6439367316034175,-1.604152400001387,1.6719999999913853
-0.047,1.0185,-0.0741,0.1396,0.1735,0.0044,-0.2013,-2.1437,-5.0575,-4.151482535909579,-2.6429720084262236,-1.6213020000048808,1.679999999993015
-0.0432,1.0176,-0.0773,0.1393,0.1739,0.0008,-0.2013,-2.1437,-5.0575,-4.168981913211271,-2.6189000431648943,-1.6384516000083746,1.687999999994645
-0.0433,1.0186,-0.0758,0.1393,0.1739,0.0008,-0.245,-1.9775,-4.9612,-4.179897369233429,-2.5844036498457763,-1.6542715999972093,1.6959999999889988
-0.0433,1.0176,-0.0713,0.139,0.174,-0.0014,-0.4988,-1.715,-5.6438,-4.131000844123519,-2.5357336261236947,-1.6679916000000043,1.7039999999906286
-0.0417,1.0176,-0.0713,0.139,0.174,-0.0014,-0.5075,-1.925,-5.8713,-4.095467016173003,-2.4561492517758716,-1.6833916000031417,1.7119999999922584
-0.044,1.0162,-0.0755,0.139,0.1751,-0.0057,-0.5075,-1.925,-5.8713,-4.139833456404611,-2.462814767397227,-1.698791600006279,1.7199999999938882
-0.0422,1.0166,-0.0733,0.139,0.1751,-0.0057,-0.2187,-1.3388,-5.8187,-4.1381771326250805,-2.4270184304530855,-1.709502000008461,1.727999999995518
-0.0431,1.0185,-0.0709,0.139,0.1751,-0.0057,-0.5863,-1.6013,-6.0462,-4.087191134526458,-2.4225123888205546,-1.722312400011071,1.7359999999971478
-0.0421,1.0155,-0.0737,0.1384,0.1753,-0.0043,-0.5863,-1.6013,-6.265,-4.1080200326960705,-2.394029640855939,-1.7351228000020298,1.7439999999915017
-0.0421,1.0155,-0.0737,0.1384,0.1753,-0.0043,-0.35,-1.19,-6.265,-4.116573252935727,-2.380362511801545,-1.7446428000039693,1.7519999999931315
-0.0453,1.0157,-0.0752,0.1402,0.1746,-0.0061,0.0437,-1.1113,-6.2213,-4.13148626950229,-2.4651884622531313,-1.7535332000057806,1.7599999999947613
-0.0478,1.0153,-0.0707,0.1402,0.1746,-0.0061,-0.2887,-1.0762,-6.3263,-4.108107585679004,-2.5846616856148006,-1.7632190000038386,1.7689999999929569
-0.0468,1.0178,-0.0713,0.1402,0.1746,-0.0061,-0.2887,-1.0762,-6.3263,-4.09218343420577,-2.6068730422335262,-1.7707524000092885,1.775999999998021
-0.0507,1.0176,-0.0743,0.1392,0.1759,-0.0014,-0.2187,-0.6037,-6.3,-4.100991877558343,-2.7324848751290287,-1.77558200000588,1.7839999999923748
-0.0507,1.0189,-0.072,0.1392,0.1759,-0.0014,-0.4375,-1.2775,-6.2475,-4.086163720721081,-2.7887928269244293,-1.785802000007962,1.7919999999940046
-0.0517,1.0189,-0.072,0.1401,0.1753,-0.0018,0.2275,-0.735,-6.2825,-4.075248844978155,-2.845793753529339,-1.7916820000091598,1.7999999999956344
-0.0464,1.0185,-0.0705,0.1401,0.1753,-0.0018,0.2275,-0.735,-6.2825,-4.046647196810932,-2.718119363175614,-1.7982970000078335,1.80899999999383
-0.0501,1.0177,-0.0738,0.1401,0.1753,-0.0018,-0.2713,-1.05,-6.0813,-4.061317618183483,-2.7621000988395594,-1.804597000009117,1.8149999999950523
-0.052,1.0208,-0.0731,0.1407,0.1758,-0.0051,-0.28,-1.085,-6.3963,-4.0665732248792725,-2.842533577373015,-1.813277000002991,1.8229999999894062
-0.0533,1.0212,-0.071,0.1407,0.1758,-0.0051,-0.0525,-1.1988,-6.5012,-4.062410340047098,-2.921079747154286,-1.8228674000049447,1.830999999991036
-0.0533,1.0212,-0.071,0.141,0.1766,0.0015,-0.0525,-1.1988,-6.5012,-4.0584412462209825,-2.954932454956162,-1.8324578000068985,1.8389999999926658
-0.0528,1.019,-0.0723,0.141,0.1766,0.0015,0.1488,-1.3212,-6.6937,-4.058441799982818,-2.957220088142133,-1.8430274000090519,1.8469999999942956
-0.0525,1.021,-0.0745,0.141,0.1766,0.0015,-0.1138,-1.7675,-6.7463,-4.059857541472124,-2.9441347247064367,-1.8589349000187227,1.8559999999997672
-0.0547,1.0222,-0.0714,0.1406,0.1758,0.0034,0.0088,-1.9425,-6.4575,-4.053481474144487,-3.0066715606815997,-1.8725324000002925,1.8629999999902793
-0.0512,1.0208,-0.0706,0.1406,0.1758,0.0034,0.0088,-1.9425,-6.4575,-4.043846832690192,-2.9269688190783665,-1.8880724000034586,1.8709999999919091
-0.0512,1.0208,-0.0725,0.1398,0.175,-0.0043,0.2275,-1.89,-6.4313,-4.04845795738287,-2.892071286608329,-1.903192400006539,1.878999999993539
-0.0527,1.0203,-0.0725,0.1398,0.175,-0.0043,-0.0088,-1.505,-6.4225,-4.049813592651969,-2.923802499560575,-1.915232400008992,1.8869999999951688
-0.0548,1.02,-0.0736,0.1397,0.177,-0.0042,-0.0088,-1.505,-6.1687,-4.056361522412482,-2.9951222324851865,-1.927272400011445,1.8949999999967986
-0.0533,1.02,-0.0722,0.1397,0.177,-0.0042,-0.525,-1.6275,-6.1687,-4.054137825145982,-2.9895022658273405,-1.9402924000140975,1.9029999999984284
-0.0524,1.0188,-0.0738,0.1397,0.177,-0.0042,0.035,-2.0213,-6.2213,-4.064818339645602,-2.9625393229278725,-1.956462800002685,1.9109999999927823
-0.0519,1.0185,-0.0743,0.1414,0.1753,-0.0057,-0.0787,-1.9162,-6.1512,-4.067197639426744,-2.9363693868066023,-1.971792400005808,1.918999999994412
-0.0519,1.0185,-0.0743,0.1414,0.1753,-0.0057,-0.0787,-1.9162,-6.1512,-4.069524298545328,-2.9230867262678393,-1.9890382000023503,1.9279999999926076
-0.0478,1.0172,-0.0694,0.1408,0.1756,-0.0039,-0.4812,-1.89,-6.6325,-4.023692331291044,-2.78165469137642,-2.0022682000119216,1.9349999999976717
-0.0443,1.0174,-0.0712,0.1408,0.1756,-0.0039,-0.6388,-1.575,-6.3437,-4.016516045956424,-2.6233189421981775,-2.0148682000144884,1.9429999999993015
-0.0499,1.0182,-0.075,0.1408,0.1756,-0.0039,-0.6475,-1.4787,-5.775,-4.085839410205245,-2.6884682912581264,-2.0266978000061395,1.9509999999936554
-0.0563,1.0149,-0.0712,0.1418,0.1753,-0.004,-0.6475,-1.4787,-5.775,-4.060106949058421,-2.866936412370739,-2.0385274000085496,1.9589999999952852
-0.0563,1.0149,-0.0712,0.1418,0.1753,-0.004,-0.9538,-1.1638,-6.2213,-4.038425974278981,-3.020123232336734,-2.0478378000104462,1.966999999996915
-0.0569,1.0141,-0.0737,0.1418,0.1759,-0.0027,0.0437,-1.2513,-6.265,-4.053403491923498,-3.115250728384378,-2.0578482000124856,1.9749999999985448
-0.056,1.0177,-0.0751,0.1418,0.1759,-0.0027,0.0787,-1.7325,-5.9325,-4.078884556087297,-3.126324727467936,-2.0717082000153093,1.9830000000001746
-0.0557,1.0205,-0.0718,0.1418,0.1759,-0.0027,0.0787,-1.7325,-5.9325,-4.0705976021288075,-3.122099434121329,-2.0855682000055276,1.9909999999945285
-0.0541,1.0211,-0.07,0.1421,0.1754,-0.0059,0.1575,-2.0387,-5.7925,-4.039981286142429,-3.085528156358428,-2.101877799994017,1.9989999999888823
-0.0518,1.0222,-0.0745,0.1421,0.1754,-0.0059,0.5425,-1.6712,-5.6525,-4.090302340917417,-3.0239382339523546,-2.1152473999967407,2.006999999990512
-0.0518,1.0222,-0.0745,0.1411,0.1746,-0.0016,0.2975,-2.0213,-6.1425,-4.112586737954816,-2.9599107936458626,-2.131417800000035,2.014999999992142
-0.0532,1.0221,-0.0747,0.1411,0.1746,-0.0016,0.2975,-2.0213,-6.1425,-4.131812991908952,-2.9656545008829793,-2.1475882000033293,2.022999999993772
-0.0516,1.0229,-0.0734,0.1411,0.1746,-0.0016,0.2537,-1.9512,-5.8888,-4.124611040061133,-2.9303335260044108,-2.1631978000065093,2.0309999999954016
-0.0553,1.0203,-0.0741,0.1421,0.1756,-0.0063,0.3413,-1.6975,-5.95,-4.133583060513233,-3.0015901136021115,-2.176777799996925,2.0389999999897555
-0.056,1.021,-0.0717,0.1421,0.1756,-0.0063,0.3413,-1.54,-6.0725,-4.097818293260933,-3.0629272091274045,-2.1906378000053515,2.047999999995227
-0.056,1.021,-0.0717,0.1408,0.1758,0.0095,0.245,-1.54,-6.0725,-4.077033132114024,-3.095354396771126,-2.2029578000078613,2.055999999996857
-0.0584,1.0194,-0.0738,0.1408,0.1758,0.0095,-0.5075,-1.9688,-5.8625,-4.095433248319143,-3.166248939510197,-2.2167394000035068,2.062999999994645
-0.0567,1.0167,-0.0744,0.1408,0.1766,0.0029,-0.0875,-2.0475,-5.6087,-4.096659072464669,-3.1714194687047015,-2.23516690001471,2.0720000000001164
-0.0595,1.0184,-0.0764,0.1418,0.1766,0.0029,-0.0875,-2.0475,-5.6087,-4.0992992737911145,-3.2202332411149097,-2.2494993999952837,2.0789999999906286
-0.0583,1.0204,-0.077,0.1418,0.1766,0.0029,0.4462,-2.0738,-5.81,-4.17575559079119,-3.2358812719092978,-2.266089799998664,2.0869999999922584
-0.0545,1.0182,-0.0759,0.1425,0.1758,-0.0071,0.595,-2.0125,-5.985,-4.211622964949261,-3.1554517855949586,-2.2821898000019436,2.094999999993888
-0.0545,1.0182,-0.0759,0.1425,0.1758,-0.0071,0.1488,-2.3275,-5.9062,-4.221928991495251,-3.1134012800108954,-2.300809800005737,2.102999999995518
-0.0535,1.0183,-0.0756,0.141,0.1752,-0.0076,0.1488,-2.3275,-5.9062,-4.226730802548113,-3.0654084290271504,-2.31942980000953,2.110999999997148
-0.0517,1.0194,-0.0766,0.141,0.1752,-0.0076,-0.0787,-2.3712,-5.6087,-4.228291164507243,-3.0144108377842462,-2.3383994000133947,2.1189999999987776
-0.0511,1.0187,-0.0756,0.141,0.1752,-0.0076,0.07,-2.1875,-5.495,-4.230627936444282,-2.97841727449618,-2.3580868999935314,2.1279999999896972
-0.0514,1.0196,-0.0817,0.1414,0.1749,-0.0166,0.1488,-1.3737,-5.53,-4.300788733393806,-2.952111124984564,-2.367702800000488,2.1349999999947613
-0.0514,1.0196,-0.0817,0.1414,0.1749,-0.0166,0.1488,-1.3737,-5.53,-4.3569117586509,-2.9326111205283234,-2.378692400002727,2.142999999996391
-0.0554,1.0209,-0.0757,0.1407,0.1764,-0.0024,-0.2537,-1.4875,-5.25,-4.341550203773189,-2.94326980413994,-2.3905924000051515,2.150999999998021
-0.0548,1.0167,-0.0746,0.1407,0.1764,-0.0024,-0.2713,-1.3913,-5.6087,-4.320482559989096,-2.983332035317637,-2.401722800007419,2.1589999999996508
-0.0565,1.0155,-0.0761,0.1407,0.1764,-0.0024,-0.0175,-0.9712,-5.39,-4.317788291828503,-3.0165791908434123,-2.4094924000019353,2.1669999999940046
-0.0554,1.0192,-0.0761,0.1422,0.1764,-0.0034,-0.0175,-0.9712,-5.39,-4.314103564487549,-3.0314702533407663,-2.418233200000183,2.1759999999922
-0.0558,1.0207,-0.0722,0.1422,0.1764,-0.0034,0.4462,-1.155,-5.4687,-4.219289740930837,-3.0515571481840533,-2.426318200006032,2.1829999999972642
-0.0558,1.0207,-0.0722,0.1423,0.1766,-0.0023,-0.63,-1.0588,-4.9875,-4.159401532997533,-3.0628738432679152,-2.43372980000369,2.1899999999950523
-0.0551,1.0175,-0.0741,0.1423,0.1766,-0.0023,-0.14,-1.365,-5.18,-4.1596190642918796,-3.0629014994302453,-2.4446498000059145,2.197999999996682
-0.054,1.0177,-0.0745,0.1423,0.1766,-0.0023,-0.14,-1.365,-5.18,-4.160632198414444,-3.062868963116704,-2.4555697999982073,2.205999999991036
-0.0525,1.0205,-0.0737,0.1426,0.1759,-0.0034,0.2713,-1.6363,-4.97,-4.1525068318739455,-3.0410052502964136,-2.4686602000008744,2.213999999992666
-0.0515,1.0197,-0.0723,0.1426,0.1759,-0.0034,-0.1838,-1.4612,-5.0312,-4.145128517003779,-3.020559381808118,-2.480349800003256,2.2219999999942956
-0.0515,1.0197,-0.0723,0.1416,0.1762,-0.0014,-0.1838,-1.4612,-4.4012,-4.138312364325733,-2.9607469948468808,-2.4920394000056376,2.2299999999959255
-0.0537,1.018,-0.0727,0.1416,0.1762,-0.0014,-0.6125,-1.3125,-4.4012,-4.120216787193112,-2.983169674655078,-2.5025394000077767,2.2379999999975553
-0.0576,1.016,-0.0777,0.1416,0.1762,-0.0014,-0.5075,-1.19,-4.48,-4.1933088727524375,-3.0870987380486534,-2.512059400001058,2.245999999991909
-0.0548,1.0182,-0.0718,0.1395,0.1765,-0.0072,0.0613,-1.2687,-5.1887,-4.170972902822124,-3.0869912926145,-2.5234776999987685,2.2549999999901047
-0.0526,1.0196,-0.0761,0.1395,0.1765,-0.0072,0.0613,-1.2687,-5.1887,-4.18461154708534,-3.0859019204128497,-2.5323586000051934,2.2619999999951688
-0.0526,1.0185,-0.0767,0.1432,0.1774,-0.0002,0.525,-1.3038,-5.1887,-4.231604554023151,-3.0848441446230113,-2.5427890000073186,2.2699999999967986
-0.0544,1.0185,-0.0767,0.1432,0.1774,-0.0002,-0.2187,-1.925,-5.3637,-4.2394860769456875,-3.0792681622250773,-2.558189000010456,2.2779999999984284
-0.0561,1.0201,-0.0737,0.1435,0.1766,0.0,-0.0525,-2.3888,-5.8012,-4.234497048150431,-3.1023715955939757,-2.577299400014349,2.286000000000058
-0.054,1.021,-0.0739,0.1435,0.1766,0.0,-0.0525,-2.3888,-5.8012,-4.23009104569998,-3.0706975281919076,-2.598798599992658,2.294999999990978
-0.0561,1.0216,-0.0786,0.1435,0.1766,0.0,-0.1312,-2.3975,-5.6087,-4.235007154998099,-3.0896419203099597,-2.6155811000047993,2.301999999996042
-0.0595,1.0232,-0.0777,0.1422,0.1771,0.0002,-0.9275,-2.135,-5.6262,-4.283685515960117,-3.160152419163531,-2.6347961000009468,2.3109999999942374
-0.0595,1.0232,-0.0777,0.1422,0.1771,0.0002,-1.365,-2.66,-5.705,-4.316577132372919,-3.214606534512885,-2.653416100014417,2.3179999999993015
-0.0558,1.0219,-0.0734,0.141,0.1755,-0.0062,-1.365,-2.66,-5.705,-4.200323983423825,-3.1812061943036403,-2.6746961000187524,2.3260000000009313
-0.0541,1.0188,-0.0744,0.141,0.1755,-0.0062,-0.4462,-3.2113,-5.8625,-4.1942735856438675,-3.1205660322434596,-2.7003864999772555,2.333999999988009
-0.0541,1.0168,-0.0745,0.141,0.1755,-0.0062,-0.6037,-2.9575,-5.5125,-4.1930187649546795,-3.099880863858182,-2.7240464999820757,2.341999999989639
-0.0554,1.0175,-0.0737,0.1428,0.1753,0.0061,-0.7525,-2.9925,-5.915,-4.1732288296273286,-3.1034823496139774,-2.7479864999869528,2.349999999991269
-0.0554,1.0157,-0.0749,0.1428,0.1753,0.0061,-0.7525,-2.9925,-5.915,-4.190682473670112,-3.1077612935712065,-2.77192649999183,2.3579999999928987
-0.0555,1.0157,-0.0749,0.1409,0.1764,-0.0033,-0.4638,-3.0013,-5.53,-4.197813268027985,-3.1107207502641523,-2.7959368999967213,2.3659999999945285
-0.0528,1.0144,-0.0775,0.1409,0.1764,-0.0033,0.07,-2.4062,-5.005,-4.222837637918608,-3.089804691275883,-2.8151864999831355,2.3739999999888823
-0.0508,1.0166,-0.073,0.1409,0.1764,-0.0033,0.07,-2.4062,-5.1537,-4.205930335209634,-3.0835293110723394,-2.834436099987057,2.381999999990512
-0.0497,1.0182,-0.0714,0.142,0.1756,0.0055,-0.0962,-1.995,-5.1537,-4.204937576363705,-3.0756756525370577,-2.852391099997973,2.3909999999959837
-0.0497,1.0202,-0.0789,0.142,0.1756,0.0055,-0.14,-2.31,-4.76,-4.213031998490385,-2.98829456319262,-2.8685610999928635,2.397999999993772
-0.0497,1.0202,-0.0789,0.1423,0.1766,0.0033,-0.07,-2.0738,-5.1013,-4.2193889816520125,-2.9729781159916184,-2.8851514999962435,2.4059999999954016
-0.0529,1.0183,-0.0768,0.1423,0.1766,0.0033,-0.07,-2.0738,-5.1013,-4.222234461130628,-2.9724187318571462,-2.9017418999996236,2.4139999999970314
-0.0519,1.0182,-0.0757,0.1423,0.1766,0.0033,-0.035,-2.17,-5.4425,-4.224082146362204,-2.959469173514541,-2.9191018999873717,2.4219999999913853
-0.05,1.0174,-0.0777,0.1415,0.1764,-0.0131,0.5688,-1.4438,-5.3725,-4.281533790277335,-2.9346991852938626,-2.930652299989725,2.429999999993015
-0.0547,1.02,-0.0778,0.1415,0.1764,-0.0131,0.4112,-1.8375,-5.3463,-4.308719418185049,-2.952591653592458,-2.9453522999927197,2.437999999994645
-0.0547,1.02,-0.0772,0.1435,0.1765,-0.0049,0.4112,-1.8375,-5.3463,-4.315338114240493,-2.9679648678857826,-2.9600522999957146,2.4459999999962747
-0.0548,1.0181,-0.0772,0.1435,0.1765,-0.0049,-0.0088,-1.8025,-5.1013,-4.31711324893581,-2.9756571561984257,-2.974472299998652,2.4539999999979045
-0.0535,1.0178,-0.0784,0.1412,0.1758,-0.0063,-0.0787,-1.7587,-4.8913,-4.319051765351922,-2.9811416695173962,-2.9885418999887223,2.4619999999922584
-0.0519,1.0196,-0.0803,0.1412,0.1758,-0.0063,-0.49,-1.9688,-5.1537,-4.370568489003499,-2.979120436358551,-3.0042922999919313,2.469999999993888
-0.0514,1.0196,-0.0795,0.1412,0.1758,-0.0063,-0.49,-1.9688,-5.1537,-4.395160487224908,-2.976415915458099,-3.02004269999514,2.477999999995518
-0.0514,1.0203,-0.0745,0.1408,0.1754,-0.0026,0.2975,-1.6625,-5.04,-4.332730845793143,-2.9640497972293964,-3.0333426999978497,2.485999999997148
-0.0514,1.0203,-0.0745,0.1408,0.1754,-0.0026,0.0175,-2.0125,-5.355,-4.316106133904595,-2.951046088315881,-3.0494427000011295,2.4939999999987776
-0.0531,1.0191,-0.0792,0.1419,0.1758,-0.0044,0.3063,-1.7938,-5.5825,-4.353097355006319,-2.9575469807961405,-3.063793100004053,2.5020000000004075
-0.053,1.0195,-0.0815,0.1419,0.1758,-0.0044,0.3063,-1.7938,-5.5825,-4.41607404989911,-2.960102851682155,-3.078143499993925,2.5099999999947613
-0.0525,1.0188,-0.0752,0.1419,0.1758,-0.0044,-0.1575,-1.7237,-5.5738,-4.40572410463962,-2.9549753059218835,-3.091933099996734,2.517999999996391
-0.0499,1.0147,-0.0783,0.1422,0.1755,0.0047,-0.4988,-1.5925,-5.5213,-4.407657756509506,-2.9174121782769005,-3.1046730999993297,2.525999999998021
-0.0499,1.0147,-0.0824,0.1422,0.1755,0.0047,-0.4988,-1.4875,-5.6613,-4.47447782037869,-2.881310081023838,-3.1165731000017542,2.5339999999996508
-0.0515,1.0158,-0.0824,0.1418,0.1767,-0.004,-0.245,-1.4875,-5.6613,-4.4949681157503445,-2.885059459481364,-3.1269855999876413,2.540999999990163
-0.0501,1.0169,-0.0717,0.1418,0.1767,-0.004,-0.175,-1.5313,-5.3812,-4.463279057348113,-2.873131089764769,-3.139235999990137,2.5489999999917927
-0.0531,1.0146,-0.076,0.1418,0.1767,-0.004,-0.2887,-1.4963,-5.5912,-4.434959093553814,-2.9064117877536595,-3.1512063999925757,2.5569999999934225
-0.0536,1.0183,-0.0766,0.1426,0.1762,-0.0066,-0.2887,-1.4963,-5.5912,-4.413958727304497,-2.9349772539645023,-3.163176799995014,2.5649999999950523
-0.0528,1.0183,-0.0767,0.1426,0.1762,-0.0066,0.0437,-1.1812,-6.0375,-4.4004721070682935,-2.9464402461584442,-3.1726263999969393,2.572999999996682
-0.0528,1.0183,-0.0767,0.1429,0.1758,-0.0034,-0.2013,-1.2862,-5.7575,-4.392019924826627,-2.9513343705314132,-3.1829159999990355,2.580999999998312
-0.0508,1.0206,-0.0764,0.1429,0.1758,-0.0034,-0.175,-1.085,-5.5738,-4.384405816835571,-2.9203815562956756,-3.1915959999929093,2.588999999992666
-0.0543,1.0214,-0.0764,0.1429,0.1758,-0.0034,-0.175,-1.085,-5.5738,-4.3770849519619714,-2.9526098780689507,-3.2002759999946777,2.5969999999942956
-0.0551,1.0215,-0.0777,0.143,0.1757,-0.0024,0.2013,-1.015,-5.7838,-4.370747292746711,-3.000026242637538,-3.208395999996332,2.6049999999959255
-0.0569,1.0194,-0.0778,0.143,0.1757,-0.0024,0.0263,-1.2075,-5.985,-4.370019769655981,-3.0827015127046384,-3.2180559999983,2.6129999999975553
-0.0569,1.0194,-0.0934,0.1424,0.1774,-0.0014,0.1575,-1.0412,-5.8888,-4.547860372704244,-3.123638857744176,-3.226385599999997,2.620999999999185
-0.0581,1.0192,-0.0796,0.1424,0.1774,-0.0014,0.1575,-1.0412,-5.8888,-4.530980293049581,-3.1771544280412134,-3.234715199994118,2.628999999993539
-0.0581,1.0189,-0.0745,0.1424,0.1767,-0.0037,-0.385,-1.1113,-5.8362,-4.45384149015285,-3.207942807981963,-3.2436055999959295,2.6369999999951688
-0.0567,1.0203,-0.075,0.1407,0.1767,-0.0037,-0.4112,-1.1375,-6.1163,-4.394766449296805,-3.1906791322660126,-3.252705599997783,2.6449999999967986
-0.0594,1.0205,-0.0784,0.1407,0.1767,-0.0037,-0.0613,-1.54,-5.8187,-4.39470323476034,-3.241612052665195,-3.265025600000293,2.6529999999984284
-0.0586,1.0214,-0.0758,0.1422,0.1763,0.0006,-0.0613,-1.54,-5.8187,-4.38891296110483,-3.254458372161096,-3.277345600002803,2.661000000000058
-0.0586,1.0214,-0.0758,0.1422,0.1763,0.0006,-0.14,-1.5488,-5.6875,-4.383526315636389,-3.261231182649975,-3.289735999994058,2.668999999994412
-0.0578,1.0196,-0.073,0.1411,0.1765,0.0035,-0.1925,-1.4963,-5.425,-4.359434806181574,-3.256339720330768,-3.3017063999856098,2.676999999988766
-0.0604,1.0208,-0.0763,0.1411,0.1765,0.0035,-0.1925,-1.3212,-5.4687,-4.352349741004662,-3.2832564640556514,-3.312275999987763,2.6849999999903957
-0.06,1.0196,-0.0756,0.1411,0.1765,0.0035,-0.1925,-1.3212,-5.4687,-4.34300683562286,-3.300086840429248,-3.322845599989916,2.6929999999920256
-0.055,1.0197,-0.0739,0.1421,0.1771,-0.0065,-0.7788,-1.785,-5.2413,-4.263082960287238,-3.2875260535772073,-3.337125599992825,2.7009999999936554
-0.055,1.0197,-0.0739,0.1421,0.1771,-0.0065,-0.9363,-2.1,-5.3812,-4.2094012207140965,-3.252793875732808,-3.3539255999962476,2.708999999995285
-0.0549,1.0195,-0.0788,0.1422,0.1766,-0.0026,-0.9363,-2.1,-5.18,-4.30512295050873,-3.2526204222259647,-3.370725599984391,2.716999999989639
-0.0548,1.0204,-0.0765,0.1422,0.1766,-0.0026,-0.6562,-2.0825,-5.18,-4.298826232259239,-3.2524396492973255,-3.3894680999957854,2.7259999999951106
-0.0539,1.0223,-0.075,0.1422,0.1766,-0.0026,-0.8138,-2.1788,-5.3025,-4.256016059261731,-3.2261689475041324,-3.404719699990966,2.7329999999928987
-0.0559,1.0185,-0.0775,0.1431,0.1791,-0.0042,-0.77,-2.1175,-5.4425,-4.2942312723752645,-3.2067436016161035,-3.421659699994417,2.7409999999945285
-0.055,1.0191,-0.074,0.1431,0.1791,-0.0042,-0.77,-2.1175,-5.4425,-4.237690661936713,-3.1806987268814058,-3.438599699997868,2.7489999999961583
-0.055,1.0191,-0.074,0.144,0.1766,-0.0026,-0.42,-1.8637,-5.6525,-4.2172565565724,-3.148787914275381,-3.4535092999873456,2.756999999990512
-0.0487,1.0161,-0.0723,0.144,0.1766,-0.0026,-0.5512,-1.7325,-5.6,-4.171561323076475,-3.0272136171696444,-3.4673692999901693,2.764999999992142
-0.0486,1.0146,-0.0742,0.144,0.1766,-0.0026,-0.9712,-1.5313,-5.0925,-4.176754300120104,-3.003472861664111,-3.479619699992665,2.772999999993772
-0.0503,1.0168,-0.0723,0.1432,0.1756,-0.0009,-0.9712,-1.5313,-5.0925,-4.125787071533008,-2.988961568117225,-3.493401399989902,2.7819999999919673
-0.0529,1.0111,-0.0713,0.1432,0.1756,-0.0009,-0.6562,-1.54,-5.2675,-4.092911927159951,-2.988848076667205,-3.5041813999977007,2.7889999999970314
-0.0529,1.0111,-0.0713,0.1421,0.177,-0.0074,-0.0525,-1.1375,-5.285,-4.090153816213439,-2.9887244903325856,-3.5132813999995545,2.7969999999986612
-0.0587,1.01,-0.0777,0.1421,0.177,-0.0074,0.2625,-1.05,-5.3463,-4.172581248635129,-3.0352200048242555,-3.521681399993626,2.804999999993015
-0.0599,1.0157,-0.0746,0.1421,0.177,-0.0047,0.2625,-1.05,-5.3463,-4.180070137426296,-3.082151586044819,-3.5300813999953373,2.812999999994645
-0.0579,1.0204,-0.073,0.1426,0.1746,-0.0047,0.4025,-1.47,-5.25,-4.150564533211963,-3.0923033044731296,-3.541841399997733,2.8209999999962747
-0.0565,1.0217,-0.0769,0.1426,0.1746,-0.0047,0.4988,-1.7938,-5.1625,-4.208241231743297,-3.0934641103587306,-3.5561918000006565,2.8289999999979045
-0.0578,1.0219,-0.0763,0.1434,0.1768,-0.0044,-0.2975,-1.9338,-5.9062,-4.21837913873587,-3.150148132499058,-3.571662200003808,2.8369999999995343
-0.0578,1.0219,-0.0763,0.1434,0.1768,-0.0044,-0.2975,-1.9338,-5.9062,-4.226854409488537,-3.1830039972664994,-3.5871325999928896,2.844999999993888
-0.0525,1.0229,-0.0738,0.1425,0.1771,-0.0058,0.1663,-1.9863,-6.0462,-4.20569157245998,-3.0658761845014975,-3.606995599982484,2.8549999999886495
-0.0563,1.0222,-0.0807,0.1425,0.1771,-0.0058,-0.0263,-2.0912,-5.8187,-4.227207326826376,-3.0958115393275936,-3.623725199985892,2.8629999999902793
-0.0539,1.0216,-0.0747,0.1425,0.1771,-0.0058,-0.0263,-2.0912,-5.7488,-4.224056452861074,-3.0655003406373815,-3.6404547999893,2.870999999991909
-0.0534,1.0194,-0.0769,0.1427,0.177,0.0028,0.0263,-2.065,-5.7488,-4.234239013779581,-3.038209049319817,-3.6549097999997575,2.877999999996973
-0.0534,1.0194,-0.0769,0.1427,0.177,0.0028,-0.1838,-1.9775,-5.8187,-4.2403179237448665,-3.019493643552643,-3.6707298000029804,2.885999999998603
-0.0578,1.0161,-0.0783,0.1419,0.1771,-0.0012,0.1138,-2.1875,-5.4862,-4.269732839978821,-3.07248884729237,-3.6882297999906295,2.893999999992957
-0.0583,1.016,-0.0782,0.1419,0.1771,-0.0012,0.1138,-2.1875,-5.4862,-4.293024138341772,-3.1197239622100126,-3.7057297999941947,2.9019999999945867
-0.0553,1.0171,-0.0767,0.1419,0.1771,-0.0012,-0.035,-1.995,-5.3463,-4.294238009529586,-3.1173978520002534,-3.721689799997446,2.9099999999962165
-0.0583,1.0203,-0.0775,0.1438,0.1768,-0.0108,-0.42,-1.8637,-5.4687,-4.306199525230079,-3.1494743982796045,-3.7365994000004834,2.9179999999978463
-0.0583,1.0213,-0.0745,0.1438,0.1768,-0.0108,0.105,-1.3563,-5.67,-4.283267488273971,-3.1852788269064107,-3.747449800002694,2.925999999999476
-0.0587,1.0213,-0.0745,0.1416,0.1773,-0.0032,0.105,-1.3563,-5.67,-4.26425765513936,-3.216650734894643,-3.7583002000049044,2.934000000001106
-0.0533,1.0202,-0.0793,0.1416,0.1773,-0.0032,0.2187,-1.0938,-5.95,-4.30799309919635,-3.1145137853327642,-3.7659567999945267,2.940999999991618
-0.0545,1.0207,-0.0803,0.1416,0.1773,-0.0032,-0.035,-1.4875,-5.845,-4.319828865618528,-3.087569741513027,-3.7778567999969512,2.948999999993248
-0.0528,1.0208,-0.0769,0.1411,0.1785,-0.0002,0.0175,-1.505,-5.2937,-4.318586357710813,-3.0738941708794063,-3.789896799999404,2.9569999999948777
-0.0555,1.021,-0.0766,0.1411,0.1785,-0.0002,0.0175,-1.505,-5.2937,-4.31560858288326,-3.076817203903161,-3.801936800001857,2.9649999999965075
-0.0555,1.021,-0.0766,0.1414,0.1758,-0.0074,-0.1138,-1.0675,-5.5912,-4.315299809200833,-3.084359826492026,-3.809409299999496,2.9719999999942956
-0.0567,1.0191,-0.0781,0.1414,0.1758,-0.0074,-0.5775,-1.575,-5.7137,-4.336934092051227,-3.1159364872558513,-3.8220093000020627,2.9799999999959255
-0.0557,1.0201,-0.0781,0.1414,0.1758,-0.0074,-0.525,-1.3475,-5.635,-4.349181262527923,-3.1160458823458344,-3.8327893000042588,2.9879999999975553
-0.0569,1.0198,-0.076,0.1424,0.1778,-0.0013,-0.525,-1.3475,-5.635,-4.323253397277682,-3.13748619801119,-3.843569300006455,2.995999999999185
-0.0561,1.0171,-0.0784,0.1424,0.1778,-0.0013,-0.4375,-1.0588,-5.705,-4.344512720986206,-3.1410103285202644,-3.8520397000004767,3.003999999993539
-0.0561,1.0184,-0.0753,0.1427,0.1767,-0.0102,-0.7262,-1.26,-5.8888,-4.299985237296066,-3.1424424137988334,-3.8621197000025305,3.0119999999951688
-0.0582,1.0184,-0.0753,0.1427,0.1767,-0.0102,-0.7262,-1.2337,-5.9237,-4.272581600899334,-3.193363798882611,-3.871989299995565,3.0199999999895226
-0.0586,1.0177,-0.0767,0.1423,0.1789,-0.0012,-0.5512,-1.2337,-5.9237,-4.284194134985529,-3.232929481451268,-3.881858899997576,3.0279999999911524
-0.0583,1.0166,-0.0761,0.1423,0.1789,-0.0012,-0.6825,-1.7587,-6.125,-4.2830299251642145,-3.252420448968918,-3.895928500000442,3.0359999999927823
-0.0581,1.0203,-0.0761,0.1423,0.1789,-0.0012,-0.4288,-2.0738,-5.985,-4.278720138604567,-3.25139736240929,-3.912518900003822,3.043999999994412
-0.0526,1.0207,-0.0727,0.1442,0.1773,-0.0022,-0.4288,-2.0738,-5.985,-4.228229519236381,-3.113764948971343,-3.929109300007202,3.051999999996042
-0.0526,1.0207,-0.0727,0.1442,0.1773,-0.0022,-0.4988,-2.1613,-6.1425,-4.184376619292867,-3.0298546194588782,-3.9463996999949993,3.0599999999903957
-0.0563,1.0166,-0.0773,0.1432,0.1779,-0.0017,-0.49,-1.9688,-6.2825,-4.230250312285039,-3.098456855188732,-3.9641189000057717,3.0689999999958673
-0.0584,1.0175,-0.0766,0.1432,0.1779,-0.0017,-0.2625,-1.6363,-5.6175,-4.2406607518016415,-3.1523087322042525,-3.9755730000021523,3.0759999999936554
-0.0561,1.0158,-0.0762,0.1432,0.1779,-0.0017,-0.2625,-1.6363,-5.6175,-4.247508464960981,-3.1522900622444383,-3.9886634000048193,3.083999999995285
-0.0556,1.0169,-0.078,0.1426,0.1787,0.0092,-0.35,-2.0387,-5.7312,-4.2751310540805285,-3.1409848860093197,-4.004973000008142,3.091999999996915
-0.0556,1.0199,-0.078,0.1426,0.1787,0.0092,0.0,-2.065,-5.6525,-4.284168244032659,-3.131482846582691,-4.021492999996482,3.099999999991269
-0.0579,1.0199,-0.078,0.1438,0.1773,-0.0026,-0.315,-1.9425,-5.7312,-4.299870718822667,-3.1699174264037393,-4.037032999999648,3.1079999999928987
-0.0539,1.0186,-0.0769,0.1438,0.1773,-0.0026,-0.315,-1.9425,-5.7312,-4.302956753243516,-3.1168645324721647,-4.052573000002814,3.1159999999945285
-0.0539,1.0204,-0.0805,0.1438,0.1773,-0.0026,-0.6562,-2.4325,-6.125,-4.377112933106599,-3.067079709806852,-4.072033000006779,3.1239999999961583
-0.0576,1.0209,-0.0771,0.1437,0.1774,0.0089,-0.9712,-2.3363,-5.88,-4.3500182230268996,-3.1300367723036673,-4.090723400010587,3.131999999997788
-0.0555,1.0205,-0.0746,0.1437,0.1774,0.0089,-0.9013,-1.9425,-6.5538,-4.274885221833484,-3.1153790992481802,-4.106263399999619,3.139999999992142
-0.0555,1.0205,-0.0746,0.1432,0.1768,0.0049,-0.9013,-1.9425,-6.5538,-4.233144085876921,-3.109201811147632,-4.1218034000027854,3.147999999993772
-0.0565,1.0174,-0.0775,0.1432,0.1768,0.0049,-0.8575,-1.9512,-6.3175,-4.286072955922831,-3.141234586159172,-4.1374130000059655,3.1559999999954016
-0.0598,1.0188,-0.0778,0.1432,0.1768,0.0049,-0.5775,-1.7763,-6.4575,-4.312139049845755,-3.2580040815672624,-4.1516234000088605,3.1639999999970314
-0.0571,1.0204,-0.0745,0.1435,0.1783,0.0021,-0.8138,-1.96,-6.5975,-4.25541067146584,-3.2206956223507923,-4.167303400012055,3.1719999999986612
-0.0583,1.0188,-0.0787,0.1435,0.1783,0.0021,-0.8138,-1.96,-6.5975,-4.322722033677715,-3.2469154958062503,-4.1829834000152495,3.180000000000291
-0.0583,1.0207,-0.0754,0.1445,0.1773,-0.0016,-0.9013,-2.0038,-6.5625,-4.279208814946818,-3.254613316798311,-4.199013800003936,3.187999999994645
-0.0587,1.0207,-0.0754,0.1445,0.1773,-0.0016,-0.8313,-2.1962,-6.895,-4.256257215584534,-3.2722280648105984,-4.216583400007515,3.1959999999962747
-0.0578,1.0208,-0.0752,0.1443,0.1788,-0.0018,-0.8313,-2.1962,-6.8162,-4.238105087681379,-3.2472756940998,-4.234152999995115,3.2039999999906286
-0.0587,1.0209,-0.0747,0.1443,0.1788,-0.0018,-0.6037,-2.0387,-6.8162,-4.220319378342786,-3.2688422078719173,-4.250462599998437,3.2119999999922584
-0.0626,1.0216,-0.077,0.1443,0.1788,-0.0018,-0.6125,-1.96,-6.6325,-4.250771937907077,-3.4036976733580535,-4.266142600001632,3.219999999993888
-0.0621,1.0202,-0.0753,0.1464,0.1778,0.0002,-0.2013,-2.1088,-6.93,-4.248092644350986,-3.448358902003746,-4.283013000005068,3.227999999995518
-0.0621,1.0202,-0.0753,0.1464,0.1778,0.0002,-0.2013,-2.1088,-6.93,-4.245656867577794,-3.4646050615244546,-4.299883399993162,3.235999999989872
-0.0611,1.0197,-0.0719,0.146,0.1755,-0.0045,-0.7,-2.4938,-7.0437,-4.166134374708056,-3.43595021715254,-4.319833799997226,3.2439999999915017
-0.0627,1.0203,-0.0766,0.146,0.1755,-0.0045,-0.91,-2.4062,-6.685,-4.223072222461094,-3.4784477820510786,-4.339083400001147,3.2519999999931315
-0.0631,1.0216,-0.0766,0.146,0.1755,-0.0045,-0.9275,-2.17,-6.86,-4.252463179190811,-3.507350332122545,-4.356443400004684,3.2599999999947613
-0.0631,1.0203,-0.077,0.1473,0.1784,0.0028,-0.9275,-2.17,-6.86,-4.281124828250871,-3.520865694908175,-4.373803400008221,3.267999999996391
-0.0631,1.0203,-0.0746,0.1473,0.1784,0.0028,-1.1638,-2.31,-7.3763,-4.229949156205963,-3.526816383812816,-4.392283399995178,3.275999999990745
-0.0628,1.023,-0.0746,0.1457,0.1785,-0.0023,-1.3825,-2.555,-7.49,-4.19672066852457,-3.510608593240577,-4.412723399999343,3.283999999992375
-0.0583,1.0208,-0.0775,0.1457,0.1785,-0.0023,-1.8725,-2.625,-8.2863,-4.28932888718596,-3.320568082866256,-4.433723400003621,3.2919999999940046
-0.0554,1.0182,-0.0741,0.1457,0.1785,-0.0023,-1.8725,-2.625,-8.2863,-4.208196994566052,-3.158401231105193,-4.459973400008969,3.301999999996042
-0.057,1.0169,-0.0725,0.1463,0.179,0.0016,-2.24,-2.835,-8.6888,-4.119487576459987,-3.190865782563407,-4.482653400013589,3.3099999999976717
-0.0662,1.0216,-0.0788,0.1463,0.179,0.0016,-2.2487,-2.4675,-9.0738,-4.318183930480669,-3.5932781484175504,-4.502393400017611,3.3179999999993015
-0.0662,1.0216,-0.0788,0.1474,0.1801,-0.0009,-2.3275,-2.835,-9.625,-4.382032825433095,-3.6776625297664753,-4.525073400001604,3.3259999999936554
-0.0702,1.0258,-0.0761,0.1474,0.1801,-0.0009,-2.3275,-2.835,-9.625,-4.285938407896657,-3.8625899975381985,-4.54208340000507,3.3319999999948777
-0.0688,1.0201,-0.0755,0.1474,0.1801,-0.0009,-2.94,-3.3425,-10.3687,-4.246700326469217,-3.8503087174487542,-4.568823400010517,3.3399999999965075
-0.0657,1.0204,-0.0773,0.1506,0.1792,0.0048,-2.975,-3.8937,-10.8763,-4.310087072189761,-3.6999024389015185,-4.599973000016863,3.3479999999981374
-0.0658,1.0215,-0.0763,0.1506,0.1792,0.0048,-2.975,-4.3313,-11.4888,-4.281626716643421,-3.678761135088034,-4.6346233999924085,3.355999999992491
-0.0658,1.0215,-0.0769,0.1486,0.1792,-0.0049,-3.4213,-4.3313,-11.4888,-4.299734446158408,-3.675729601994455,-4.669273799999468,3.363999999994121
-0.0678,1.0164,-0.0769,0.1486,0.1792,-0.0049,-3.85,-4.69,-11.865,-4.321028546766833,-3.7885903471057647,-4.702103799989095,3.370999999991909
-0.0684,1.0132,-0.073,0.1486,0.1802,0.0077,-3.9288,-4.8825,-11.795,-4.162419642037149,-3.843809936617673,-4.746046300015809,3.3799999999973807
-0.0707,1.012,-0.0697,0.148,0.1802,0.0077,-3.9288,-4.8825,-11.795,-3.9860261047876664,-3.968081860201354,-4.78022380000501,3.3869999999951688
-0.07,1.0159,-0.0703,0.148,0.1802,0.0077,-3.9813,-5.2063,-11.1825,-3.964173677665848,-3.9374344322477586,-4.821874200013496,3.3949999999967986
-0.0718,1.0205,-0.0691,0.1502,0.1795,-0.0009,-3.5525,-5.0838,-11.0688,-3.8940207450962485,-4.004081501959978,-4.867628400004322,3.403999999994994
-0.0718,1.0205,-0.0691,0.1502,0.1795,-0.0009,-3.4213,-5.8538,-10.7887,-3.8783988963545095,-4.013687896458296,-4.91445879997127,3.411999999989348
-0.0701,1.0213,-0.0655,0.1515,0.1802,0.0043,-3.4213,-5.8538,-10.7887,-3.7179170627785063,-3.9328924765384174,-4.961289199980811,3.419999999990978
-0.0703,1.0182,-0.0686,0.1515,0.1802,0.0043,-3.3688,-5.5912,-10.8588,-3.8224249453828176,-3.9395499192806986,-5.006018799989924,3.4279999999926076
-0.073,1.0186,-0.065,0.1515,0.1802,0.0043,-3.815,-5.3725,-10.8062,-3.68757968800516,-4.068068483012753,-5.05437130001932,3.436999999998079
-0.0709,1.0175,-0.0694,0.1509,0.1814,-0.0034,-4.375,-5.6087,-11.095,-3.861256284614387,-3.9899587669830145,-5.0936322000069145,3.4439999999958673
-0.0709,1.0175,-0.0694,0.1509,0.1814,-0.0034,-4.375,-5.6087,-11.095,-3.8941890301114506,-3.978661494315999,-5.138501799975247,3.451999999990221
-0.073,1.0185,-0.0673,0.1538,0.1801,0.0036,-4.34,-5.5388,-11.4975,-3.8021774624492486,-4.075402897171502,-5.182812199984274,3.459999999991851
-0.0728,1.0205,-0.0648,0.1538,0.1801,0.0036,-4.7162,-5.2675,-12.3375,-3.6633815513434222,-4.072641781880983,-5.224952199992859,3.4679999999934807
-0.073,1.0208,-0.0631,0.1538,0.1801,0.0036,-4.5763,-5.2325,-12.8538,-3.5602435076800893,-4.081484795253827,-5.272044700021488,3.4769999999989523
-0.0737,1.0211,-0.0628,0.1533,0.1817,0.0041,-4.5763,-5.2325,-12.8538,-3.5268513451046215,-4.116022247835321,-5.308672200009914,3.4839999999967404
-0.0759,1.0176,-0.0643,0.1533,0.1817,0.0041,-4.4538,-5.5125,-13.79,-3.5990131995951833,-4.242487915438544,-5.358284699999967,3.492999999994936
-0.0759,1.0176,-0.0643,0.1549,0.183,0.0049,-5.0575,-5.0225,-14.8925,-3.6128091169378878,-4.255806388252938,-5.393442199988858,3.499999999992724
-0.0776,1.0192,-0.0606,0.1549,0.183,0.0049,-4.6375,-4.8562,-15.995,-3.4406595836599,-4.338683670351046,-5.432291799996772,3.507999999994354
-0.0783,1.0121,-0.0615,0.1549,0.183,0.0049,-4.6375,-4.8562,-15.995,-3.4706717505083353,-4.409181588714135,-5.4711414000046865,3.5159999999959837
-0.0824,1.0145,-0.062,0.1568,0.1842,0.0053,-4.13,-4.5937,-16.0387,-3.491937451385295,-4.615856069242611,-5.507891000012173,3.5239999999976135
-0.0843,1.0193,-0.0551,0.1568,0.1842,0.0053,-3.8588,-4.48,-16.0125,-3.1778101690408493,-4.712075293636101,-5.543730999986878,3.5319999999919673
-0.0843,1.0193,-0.0551,0.1604,0.1846,0.0066,-3.8588,-4.48,-15.8112,-3.111782017060136,-4.720194737675065,-5.579570999994179,3.539999999993597
-0.09,1.0212,-0.0612,0.1604,0.1846,0.0066,-4.27,-4.6025,-15.8112,-3.368114921817098,-5.001152251084705,-5.616391000001681,3.547999999995227
-0.0958,1.0249,-0.0573,0.1604,0.1854,0.0026,-4.3925,-4.2438,-15.7325,-3.2317362751799306,-5.303164726938253,-5.654585199994023,3.5569999999934225
-0.0951,1.0233,-0.0558,0.1603,0.1854,0.0026,-5.145,-4.655,-15.6888,-3.1395037332149234,-5.30180863974597,-5.69182520000161,3.5649999999950523
-0.0963,1.0213,-0.0553,0.1603,0.1854,0.0026,-5.145,-4.655,-15.6888,-3.1059934320503673,-5.372065016104518,-5.729065200009196,3.572999999996682
-0.1023,1.0222,-0.0589,0.1615,0.1866,0.0091,-6.0113,-4.8738,-16.1525,-3.2700276884541326,-5.677768163123518,-5.768055599981678,3.580999999991036
-0.1023,1.0222,-0.0589,0.1615,0.1866,0.0091,-6.0375,-5.6962,-16.695,-3.2937816234775754,-5.703404901402099,-5.807929000010524,3.5879999999961
-0.105,1.0215,-0.0542,0.1625,0.1864,0.0131,-5.775,-6.1863,-17.2813,-3.0756652536684115,-5.848633920977414,-5.857419400020606,3.59599999999773
-0.105,1.0132,-0.0534,0.1625,0.1864,0.0131,-5.775,-6.1863,-17.2813,-3.025741892860302,-5.903853603457157,-5.913096100009444,3.6049999999959255
-0.105,1.0121,-0.0479,0.1625,0.1864,0.0131,-6.0025,-6.16,-18.165,-2.7554397207911703,-5.915473842657527,-5.962376100019483,3.6129999999975553
-0.1035,1.0088,-0.0453,0.1653,0.1887,0.0105,-5.88,-6.3437,-17.9813,-2.5983199896535223,-5.856628087931335,-6.006781999959295,3.6199999999880674
-0.1035,1.0088,-0.0453,0.1653,0.1887,0.0105,-5.2325,-6.7812,-17.5875,-2.5755650560924814,-5.85237379076132,-6.061031599970347,3.6279999999896972
-0.1103,1.0115,-0.0508,0.1665,0.1892,0.0106,-5.2325,-6.7812,-17.5875,-2.8262608915653473,-6.188425600124256,-6.115281199981399,3.635999999991327
-0.118,1.0127,-0.0478,0.1665,0.1892,0.0106,-5.0925,-6.1687,-16.8525,-2.7230628860956383,-6.603276406913067,-6.1646307999914525,3.643999999992957
-0.118,1.021,-0.049,0.1665,0.1892,0.0106,-4.69,-6.2475,-16.5987,-2.743242560596688,-6.586547133854893,-6.214610800001635,3.6519999999945867
-0.1181,1.0277,-0.0529,0.1685,0.1922,0.0166,-4.5675,-7.5775,-16.45,-2.9094394516848157,-6.550131166147561,-6.275230800013985,3.6599999999962165
-0.1215,1.027,-0.0486,0.1685,0.1922,0.0166,-4.5675,-7.5775,-16.45,-2.745952340517868,-6.7241443527969444,-6.343428300000312,3.668999999994412
-0.1215,1.027,-0.0486,0.1722,0.1923,0.0145,-4.5325,-7.91,-16.2838,-2.716086627404617,-6.738310190973261,-6.398798299982816,3.6759999999922
-0.1223,1.0208,-0.0517,0.1722,0.1923,0.0145,-4.9525,-8.5575,-17.4913,-2.8680344699186437,-6.81688266670006,-6.467258299996763,3.68399999999383
-0.1246,1.0252,-0.0504,0.1722,0.1923,0.0145,-4.5937,-8.6888,-17.9025,-2.8242142632650116,-6.913697955705044,-6.536768700010924,3.69199999999546
-0.1217,1.02,-0.0516,0.1722,0.1918,0.0124,-4.5937,-8.6888,-17.9025,-2.882949220723077,-6.804020871711836,-6.606279100025086,3.6999999999970896
-0.1265,1.0189,-0.0533,0.1722,0.1918,0.0124,-5.1013,-8.8813,-18.3312,-2.9758982751319554,-7.04905725668422,-6.677329499974941,3.7079999999914435
-0.1265,1.0189,-0.0533,0.1726,0.1941,0.0105,-4.4363,-9.1613,-18.5675,-2.9910036445781234,-7.066395659780109,-6.75978119995841,3.716999999989639
-0.1213,1.0172,-0.0469,0.1726,0.1941,0.0105,-4.4363,-9.1613,-17.9638,-2.7056829404379643,-6.813019092208022,-6.823910300004804,3.723999999994703
-0.1236,1.0146,-0.0442,0.1726,0.1942,0.017,-3.7975,-9.1175,-17.9638,-2.5394330795571696,-6.929962945715789,-6.896850300019664,3.731999999996333
-0.1307,1.0263,-0.0456,0.1728,0.1942,0.017,-3.8063,-8.715,-17.5,-2.5430777552021144,-7.226445496736101,-6.966570300033868,3.7399999999979627
-0.1344,1.0172,-0.0452,0.1728,0.1942,0.017,-4.4887,-8.2163,-16.7475,-2.5440769413908013,-7.4960971078891365,-7.040517000019042,3.7489999999961583
-0.1383,1.0134,-0.049,0.1777,0.1948,0.0192,-4.4887,-8.2163,-16.7475,-2.7266101020281557,-7.741082822227758,-7.106247399972651,3.756999999990512
-0.1383,1.0134,-0.049,0.1777,0.1948,0.0192,-4.3313,-8.1375,-16.6425,-2.760259337815567,-7.760563712333338,-7.16320990001386,3.763999999995576
-0.1404,1.0224,-0.0397,0.1794,0.1972,0.0194,-4.1912,-7.9887,-16.1175,-2.329108647438176,-7.808937611979493,-7.235108199999445,3.772999999993772
-0.1415,1.0238,-0.0429,0.1794,0.1972,0.0194,-4.1562,-7.91,-16.1,-2.3855304840959044,-7.857747750496118,-7.298388200012337,3.7809999999954016
-0.1443,1.0245,-0.0422,0.1794,0.1972,0.0194,-4.1562,-7.91,-16.1,-2.364029512674089,-7.997794292587952,-7.361668200025228,3.7889999999970314
-0.1419,1.0203,-0.0398,0.1808,0.1974,0.0235,-4.8212,-7.84,-16.2663,-2.2566247570836633,-7.91889824500353,-7.424388199980963,3.7969999999913853
-0.1419,1.0203,-0.0397,0.1808,0.1974,0.0235,-5.1013,-7.8925,-16.3275,-2.232989011261601,-7.912394360760354,-7.487528199993826,3.804999999993015
-0.1454,1.0202,-0.0397,0.1799,0.197,0.0194,-5.1537,-7.2013,-16.2225,-2.2292250257747286,-8.08916845231289,-7.537937300030294,3.811999999998079
-0.146,1.0192,-0.0327,0.1799,0.197,0.0194,-5.1537,-7.2013,-16.2225,-1.9023449890796091,-8.14311583618594,-7.595547699989635,3.819999999992433
-0.1435,1.0178,-0.0375,0.1799,0.197,0.0194,-5.4425,-6.65,-16.5025,-2.0773044620914596,-8.029886582057884,-7.655397700026021,3.8289999999979045
-0.1463,1.0161,-0.0329,0.1824,0.1983,0.027,-5.2675,-6.5625,-16.3013,-1.8906460049049183,-8.17588471008613,-7.701335199963757,3.8359999999884167
-0.1482,1.0124,-0.0343,0.1824,0.1983,0.027,-4.62,-6.1512,-15.6888,-1.9314110081137532,-8.310557745690629,-7.756695999997413,3.844999999993888
-0.1482,1.0124,-0.0343,0.1851,0.2015,0.0218,-4.62,-6.1512,-15.6888,-1.9387977455477996,-8.322260473354865,-7.799754399983808,3.8519999999916763
-0.1537,1.0144,-0.0317,0.1851,0.2015,0.0218,-4.1388,-5.81,-15.2863,-1.8194665141913557,-8.585613850100772,-7.8462343999932775,3.859999999993306
-0.1556,1.0143,-0.026,0.1851,0.2015,0.0218,-4.3137,-5.32,-14.8313,-1.5357254133722844,-8.706223148143051,-7.888794400001948,3.867999999994936
-0.1565,1.0139,-0.0264,0.1867,0.202,0.031,-3.6488,-4.795,-14.1838,-1.501252218794127,-8.76514018755021,-7.927154400009763,3.8759999999965657
-0.1573,1.0177,-0.0264,0.1867,0.202,0.031,-3.6488,-4.795,-14.1838,-1.4893288735509425,-8.781610298095815,-7.965514399982689,3.8839999999909196
-0.1573,1.0177,-0.0213,0.1875,0.2027,0.028,-3.2025,-4.6025,-13.685,-1.2697913749630714,-8.784155395074226,-8.002334399990191,3.8919999999925494
-0.1594,1.0189,-0.0213,0.1875,0.2027,0.028,-3.1325,-4.3663,-13.3525,-1.2154992180037791,-8.878062662658493,-8.037264799997308,3.8999999999941792
-0.163,1.0221,-0.0226,0.1874,0.2033,0.0231,-3.1325,-4.3663,-13.02,-1.2539837727436094,-9.038352834611544,-8.072195200004424,3.907999999995809
-0.1678,1.0198,-0.0215,0.1874,0.2033,0.0231,-3.08,-3.675,-13.02,-1.219380193620435,-9.307471170256708,-8.101595200010413,3.915999999997439
-0.1703,1.0134,-0.0234,0.1874,0.2033,0.0231,-3.395,-3.8763,-13.1163,-1.2986812948768713,-9.511155669858812,-8.132605599988526,3.9239999999917927
-0.1697,1.0118,-0.0273,0.1882,0.2033,0.0259,-2.7037,-3.6137,-13.44,-1.4770261957788862,-9.516977088376027,-8.161515199994415,3.9319999999934225
-0.1697,1.0118,-0.0273,0.1882,0.2033,0.0259,-2.7037,-3.6137,-13.44,-1.526533784772818,-9.517605816939497,-8.190424800000304,3.9399999999950523
-0.1722,1.0104,-0.024,0.1904,0.2036,0.0241,-2.275,-3.1237,-12.7225,-1.4129453981168358,-9.65143159524864,-8.215414400005395,3.947999999996682
-0.1723,1.0113,-0.023,0.1904,0.2036,0.0241,-1.9688,-3.0275,-11.8038,-1.3412468541579838,-9.664489287149042,-8.23963440001033,3.955999999998312
-0.1776,1.0183,-0.0291,0.1904,0.2036,0.0241,-1.1988,-3.3075,-11.0863,-1.4959424145151086,-9.85682234510828,-8.266094399991655,3.963999999992666
-0.1752,1.0233,-0.0229,0.1928,0.2049,0.0238,-1.1988,-3.3075,-11.0863,-1.383991693272282,-9.73388826645374,-8.292554399997046,3.9719999999942956
-0.1752,1.0233,-0.0249,0.1928,0.2049,0.0238,-1.085,-2.8263,-11.2,-1.388907772461802,-9.715663899269245,-8.315164800001652,3.9799999999959255
-0.1754,1.023,-0.0249,0.1926,0.2035,0.0262,-0.98,-2.6688,-10.57,-1.3914363409449468,-9.72464150280587,-8.336515200006001,3.9879999999975553
-0.1819,1.0236,-0.028,0.1926,0.2035,0.0262,-0.6125,-2.45,-11.1388,-1.450790251426385,-10.022871401776953,-8.356115200009995,3.995999999999185
-0.1834,1.0253,-0.0274,0.1926,0.2035,0.0262,-0.6125,-2.45,-11.1388,-1.477855123647893,-10.121413307228055,-8.375715199996161,4.003999999993539
-0.1833,1.0218,-0.028,0.1915,0.206,0.0247,-0.9887,-2.7213,-11.1475,-1.521019291969888,-10.159892613242018,-8.397485600000596,4.011999999995169
-0.1879,1.0226,-0.0301,0.1915,0.206,0.0247,-1.26,-2.4237,-10.7187,-1.6095739757167447,-10.369537481705716,-8.416875200004547,4.019999999996799
-0.1879,1.0226,-0.0301,0.1936,0.2053,0.027,-1.75,-3.2113,-10.5962,-1.65714650914182,-10.401493814637885,-8.442565599986416,4.027999999991152
-0.1859,1.0213,-0.0238,0.1936,0.2053,0.027,-1.75,-3.2113,-10.5962,-1.4565995009238395,-10.32718342674113,-8.46825599999165,4.035999999992782
-0.1864,1.0206,-0.0292,0.1936,0.2053,0.027,-2.2662,-3.1063,-10.395,-1.5812446421243753,-10.343096216937338,-8.49000010000738,4.042999999997846
-0.1906,1.02,-0.0278,0.1938,0.2054,0.0182,-1.5225,-3.4213,-9.8787,-1.5694814496543523,-10.538865754125545,-8.517370499988063,4.0509999999922
-0.1909,1.0182,-0.0251,0.1938,0.2054,0.0182,-1.5225,-3.4213,-10.0975,-1.4771209131796443,-10.602816708258569,-8.54474089999364,4.05899999999383
-0.1909,1.0182,-0.0264,0.1948,0.2064,0.021,-1.96,-3.5263,-10.0975,-1.4823988138897366,-10.613347381650643,-8.572951299999387,4.06699999999546
-0.1881,1.013,-0.0264,0.1948,0.2064,0.021,-1.68,-3.395,-9.8962,-1.4888026438626591,-10.532811354066496,-8.60011130000492,4.07499999999709
-0.1896,1.0141,-0.0259,0.1942,0.2058,0.0322,-1.015,-3.5963,-9.0738,-1.4764879368313846,-10.575606844248629,-8.628881700010782,4.082999999998719
-0.19,1.0158,-0.0245,0.1942,0.2058,0.0322,-1.015,-3.5963,-9.0738,-1.4312053964613085,-10.588205272242417,-8.657652099990477,4.090999999993073
-0.1878,1.0166,-0.0257,0.1942,0.2058,0.0322,-0.6737,-3.7713,-8.855,-1.4373730859574347,-10.489929044874861,-8.687822499996624,4.098999999994703
-0.1858,1.0165,-0.0253,0.1937,0.2094,0.0229,-0.6913,-3.6488,-8.05,-1.4330635644256624,-10.39007418699197,-8.71701290000257,4.106999999996333
-0.1858,1.0165,-0.0253,0.1937,0.2094,0.0229,-0.1663,-3.5612,-7.6475,-1.4326179057953226,-10.365309933222315,-8.745502500008374,4.114999999997963
-0.1849,1.0163,-0.026,0.1953,0.2074,0.0276,-0.1663,-3.5612,-7.6475,-1.4346227336225639,-10.324529147707622,-8.773992100014178,4.1229999999995925
-0.1837,1.0145,-0.0281,0.1953,0.2074,0.0276,0.2975,-2.9313,-7.315,-1.477951983170501,-10.280412169003947,-8.797442499997628,4.130999999993946
-0.1843,1.0119,-0.0259,0.1953,0.2074,0.0276,0.63,-2.8263,-7.0175,-1.472983253485111,-10.305381985296775,-8.822879199992528,4.139999999992142
-0.1818,1.0088,-0.0265,0.1958,0.2069,0.0187,0.945,-2.5113,-6.3088,-1.4892248068771439,-10.25610191720285,-8.845480899987995,4.1489999999903375
-0.1818,1.0088,-0.0275,0.1958,0.2069,0.0187,0.945,-2.5113,-6.3088,-1.5261818189344998,-10.232801686314245,-8.865571299992089,4.156999999991967
-0.1819,1.0137,-0.0275,0.1929,0.2067,0.025,1.26,-1.6975,-5.8713,-1.542195237823857,-10.206875862315128,-8.879151299994856,4.164999999993597
-0.1807,1.0153,-0.0245,0.1929,0.2067,0.025,1.9075,-1.82,-5.7137,-1.435458550966365,-10.16583036144157,-8.891891300004072,4.171999999998661
-0.181,1.0164,-0.0261,0.1929,0.2067,0.025,1.4438,-1.505,-5.46,-1.4570156974623671,-10.150180764332065,-8.902426299989793,4.178999999989173
-0.1824,1.0167,-0.0284,0.1951,0.2078,0.0244,1.4438,-1.505,-5.46,-1.5438544247428507,-10.153851808223727,-8.914466299992245,4.186999999990803
-0.1812,1.0147,-0.0256,0.1951,0.2078,0.0244,1.4175,-1.0762,-5.7488,-1.4843766070214888,-10.142211850678688,-8.923075899994,4.194999999992433
-0.1812,1.0147,-0.0256,0.1955,0.2072,0.027,1.7062,-0.805,-6.5887,-1.4591645680869818,-10.130226721086284,-8.929515899995312,4.202999999994063
-0.1807,1.0146,-0.0325,0.1955,0.2072,0.027,1.6013,-0.7613,-6.93,-1.6957415121719577,-10.106801781104148,-8.935606299996554,4.210999999995693
-0.1841,1.0184,-0.0354,0.1955,0.2072,0.027,1.6013,-0.7613,-6.93,-1.8816397927398048,-10.192091782883953,-8.941696699992255,4.2189999999900465
-0.1859,1.0211,-0.0274,0.1957,0.2086,0.0238,1.3737,-0.9625,-7.3763,-1.6763036181194295,-10.276222459423112,-8.949396699993823,4.226999999991676
-0.1829,1.019,-0.0305,0.1957,0.2086,0.0238,0.7788,-0.7175,-7.8663,-1.6941493032132071,-10.19969056202006,-8.955136699994993,4.234999999993306
-0.1829,1.019,-0.0461,0.1957,0.2083,0.0246,0.7788,-0.7175,-8.05,-2.113664949991974,-10.174314857019958,-8.960876699996163,4.242999999994936
-0.1864,1.0161,-0.033,0.1957,0.2083,0.0246,0.2537,-0.7613,-8.05,-2.0472419264046087,-10.334085067770554,-8.966967099997404,4.250999999996566
-0.187,1.0182,-0.0279,0.1957,0.207,0.0181,-0.0437,-1.3563,-8.3212,-2.021216700629209,-10.38635721076482,-8.979173799994957,4.259999999994761
-0.1898,1.0158,-0.0304,0.1963,0.207,0.0181,0.28,-0.63,-8.3737,-1.9364590996763722,-10.53299430680158,-8.9842137999914,4.267999999989115
-0.197,1.0178,-0.0339,0.1963,0.207,0.0181,0.28,-0.63,-8.3737,-1.9285069434298932,-10.849389692299583,-8.989253799992426,4.275999999990745
-0.1947,1.0189,-0.029,0.1961,0.2081,0.0281,-0.2187,-1.2075,-8.3825,-1.8971834023581728,-10.822322986307775,-8.998913799994394,4.283999999992375
-0.1947,1.0189,-0.029,0.1961,0.2081,0.0281,0.2362,-1.33,-8.2338,-1.8298393439941623,-10.815954712003611,-9.009553799996562,4.291999999994005
-0.1937,1.0189,-0.0309,0.1974,0.209,0.028,-0.07,-1.2687,-7.63,-1.8270215053605066,-10.775550054936536,-9.01970339999863,4.299999999995634
-0.1956,1.0183,-0.0301,0.1974,0.209,0.028,-0.07,-1.2687,-7.63,-1.8229543474182779,-10.841607125085265,-9.029853000000697,4.307999999997264
-0.1967,1.0208,-0.0278,0.1974,0.209,0.028,-0.245,-1.1463,-7.6912,-1.789918186853412,-10.885377570136153,-9.039023399994225,4.315999999991618
-0.196,1.0199,-0.0271,0.198,0.208,0.0292,-0.4462,-1.4088,-7.7962,-1.7212299214435764,-10.877499810961751,-9.05029379999652,4.323999999993248
-0.196,1.0199,-0.0271,0.198,0.208,0.0292,-0.7875,-1.54,-7.5512,-1.6401799099490149,-10.875381335557737,-9.062613799999031,4.331999999994878
-0.197,1.0194,-0.0296,0.1978,0.2093,0.025,-0.7875,-1.54,-7.5512,-1.6495527747390457,-10.916000188285153,-9.074933800001542,4.3399999999965075
-0.1934,1.0149,-0.0275,0.1978,0.2093,0.025,-0.1488,-1.12,-7.385,-1.645136887100951,-10.825955999185865,-9.083893800003368,4.347999999998137
-0.1934,1.0189,-0.0281,0.1978,0.2093,0.025,-0.42,-1.3388,-6.5975,-1.62933437583853,-10.777686464194462,-9.093265400000407,4.3549999999959255
-0.1927,1.017,-0.0335,0.1979,0.2096,0.0349,-0.1925,-1.3475,-5.8187,-1.6508341507927913,-10.756572390146603,-9.104045399992799,4.362999999990279
-0.1948,1.0189,-0.0298,0.1979,0.2096,0.0349,-0.1925,-1.3475,-5.8187,-1.6528755229768144,-10.78090218259484,-9.114825399994995,4.370999999991909
-0.1948,1.0189,-0.0298,0.1983,0.2104,0.0244,-0.0525,-0.7875,-5.8888,-1.6539178059471458,-10.796714113890776,-9.121125399996279,4.378999999993539
-0.1945,1.0182,-0.03,0.1983,0.2104,0.0244,-0.1312,-1.2425,-5.7137,-1.654896636093902,-10.801320777963015,-9.131065399998304,4.386999999995169
-0.197,1.0171,-0.0317,0.1983,0.2104,0.0244,-0.1312,-1.2425,-5.8888,-1.6586754277839446,-10.865669068883792,-9.14100539999129,4.394999999989523
-0.197,1.015,-0.0314,0.1981,0.2084,0.024,-0.1488,-1.3475,-5.8888,-1.6638087161836912,-10.912546521679479,-9.151785399993486,4.402999999991152
-0.1932,1.0142,-0.026,0.1981,0.2084,0.024,-0.1838,-0.9625,-5.565,-1.6489287761058928,-10.876289136297153,-9.159485399995054,4.410999999992782
-0.1932,1.0142,-0.026,0.1979,0.2093,0.0298,0.6562,-0.56,-5.1887,-1.5711655415424484,-10.875564649513302,-9.163965399995966,4.418999999994412
-0.1895,1.02,-0.0304,0.1979,0.2093,0.0298,0.6562,-0.56,-5.1887,-1.6297702166726815,-10.872836902797669,-9.168445399996878,4.426999999996042
-0.1957,1.02,-0.03,0.1979,0.2093,0.0239,0.07,-1.1638,-5.4163,-1.6378022815497524,-10.869697569546965,-9.177755799990308,4.434999999990396
-0.1957,1.0185,-0.0298,0.1977,0.2106,0.0239,-0.0962,-1.19,-6.1512,-1.637996652474309,-10.870837889360521,-9.189655799992732,4.444999999992433
-0.1959,1.0154,-0.0337,0.1977,0.2106,0.0239,-0.1925,-1.54,-6.02,-1.6599627936237205,-10.890521438549431,-9.200435799989325,4.451999999990221
-0.1984,1.0189,-0.0329,0.1979,0.211,0.02,-0.1925,-1.54,-6.02,-1.6757934116661077,-10.946465544478537,-9.212755799991836,4.459999999991851
-0.1984,1.0189,-0.0329,0.1979,0.211,0.02,0.0875,-1.1375,-6.2125,-1.7033714685132932,-10.98032145825391,-9.22185579999369,4.467999999993481
-0.1973,1.0183,-0.0286,0.1989,0.2098,0.0266,0.1838,-1.785,-6.5887,-1.6823866103519676,-10.969151221533354,-9.2361357999966,4.475999999995111
-0.1954,1.021,-0.0315,0.1989,0.2098,0.0266,-0.1488,-2.2313,-7.0262,-1.6862276809816084,-10.87844337026072,-9.253986199984002,4.483999999989464
-0.198,1.021,-0.0287,0.1989,0.2098,0.0266,-0.1488,-2.2313,-7.0262,-1.682779272408213,-10.938321306319756,-9.271836599987639,4.491999999991094
-0.1936,1.0185,-0.0286,0.1989,0.2103,0.0259,-0.385,-2.1088,-6.7725,-1.6663583731192937,-10.827851384629776,-9.288706999991076,4.499999999992724
-0.1936,1.0185,-0.0286,0.1989,0.2103,0.0259,-0.4288,-1.4262,-6.4225,-1.6520783906614782,-10.789406237369324,-9.298690399998298,4.506999999997788
-0.1964,1.0173,-0.0308,0.1979,0.2096,0.026,-0.4462,-1.7325,-6.2913,-1.673129662603302,-10.859278241061597,-9.312550400001122,4.514999999999418
-0.1979,1.0142,-0.0302,0.1979,0.2096,0.026,-0.4462,-1.7325,-6.2913,-1.6814567158025688,-10.952556997557073,-9.32641039999134,4.522999999993772
-0.1997,1.014,-0.0275,0.1979,0.2096,0.026,-0.3588,-1.8112,-6.1075,-1.655256625886622,-11.041460661143843,-9.340899999994292,4.530999999995402
-0.1987,1.0131,-0.0296,0.198,0.2111,0.0234,-0.385,-1.5838,-5.9325,-1.659299049452024,-11.063141513961382,-9.353570399996874,4.538999999997031
-0.1987,1.0151,-0.0321,0.198,0.2111,0.0234,-0.49,-1.54,-5.6875,-1.701823490821138,-11.065409684014714,-9.365890399999385,4.546999999998661
-0.2014,1.0151,-0.0321,0.1994,0.2113,0.0255,-0.49,-1.54,-5.6875,-1.7324458044431978,-11.116216465752387,-9.378210400001896,4.555000000000291
-0.2,1.0147,-0.0295,0.1994,0.2113,0.0255,-0.385,-1.645,-5.985,-1.7176008646021992,-11.12932493992895,-9.391370399992608,4.562999999994645
-0.1987,1.0153,-0.0329,0.1994,0.2113,0.0255,-0.0263,-1.6275,-5.845,-1.7272578923596082,-11.104650040361607,-9.404390399983418,4.570999999988999
-0.1997,1.0168,-0.0316,0.1983,0.2112,0.0214,-0.0263,-1.6275,-5.845,-1.7309428384544492,-11.105293156,-9.419037899992324,4.57999999999447
-0.1942,1.0165,-0.0286,0.1983,0.2112,0.0214,-0.0613,-1.3388,-5.9938,-1.726351322482595,-10.973659965233194,-9.428409499989362,4.586999999992258
-0.1942,1.0165,-0.0286,0.1982,0.2099,0.0343,-0.105,-1.2075,-5.6788,-1.725931284082577,-10.919834924356481,-9.43806949999133,4.594999999993888
-0.1948,1.015,-0.0304,0.1982,0.2099,0.0343,-0.0175,-0.9712,-5.1537,-1.7251274549939748,-10.918231214249548,-9.445839099992913,4.602999999995518
-0.1942,1.0172,-0.0285,0.1982,0.2099,0.0343,-0.0175,-0.9712,-5.1537,-1.7158287188924735,-10.915212048335,-9.453608699987429,4.610999999989872
-0.1935,1.017,-0.027,0.1995,0.2102,0.0259,-0.525,-0.6212,-5.1712,-1.6577806065833551,-10.913797246646189,-9.458578299988442,4.618999999991502
-0.1965,1.0174,-0.0306,0.1995,0.2102,0.0259,-0.7613,-0.63,-5.3025,-1.6836099020348967,-10.915190057072595,-9.463618299989468,4.6269999999931315
-0.1965,1.0162,-0.0302,0.199,0.2095,0.0225,-0.5163,-0.5163,-5.3987,-1.6890756744591067,-10.919511053070151,-9.46774869999031,4.634999999994761
-0.1974,1.0162,-0.0302,0.199,0.2095,0.0225,-0.5163,-0.5163,-5.3987,-1.6929384794020983,-10.931800545912298,-9.47187909999115,4.642999999996391
-0.1954,1.0166,-0.0293,0.1991,0.21,0.0226,-0.2362,-0.6125,-5.4687,-1.6879420122183546,-10.919261672843337,-9.476779099987693,4.650999999990745
-0.1989,1.0158,-0.0288,0.1991,0.21,0.0226,-0.42,-0.2887,-5.9588,-1.6724937122152728,-10.98712224114991,-9.479088699988164,4.658999999992375
-0.1998,1.0156,-0.0272,0.1991,0.21,0.0226,-0.1138,-0.455,-5.8012,-1.6707890177092914,-11.040221625599454,-9.482728699988906,4.666999999994005
-0.1982,1.0158,-0.0285,0.1988,0.2108,0.0177,-0.1138,-0.455,-5.8012,-1.6700043991649458,-11.03877356067333,-9.486368699989647,4.674999999995634
-0.1982,1.0158,-0.0285,0.1988,0.2108,0.0177,0.1138,-1.085,-5.6525,-1.6588694576240575,-11.03802543380698,-9.495048699991415,4.682999999997264
-0.1959,1.0154,-0.03,0.1983,0.2095,0.0261,-0.315,-1.1375,-5.6175,-1.6647572075439607,-11.000700563974325,-9.50414869999327,4.690999999998894
-0.1985,1.0168,-0.0271,0.1983,0.2095,0.0261,0.1138,-0.3413,-5.635,-1.6403155673066734,-11.013766331309752,-9.506879099991343,4.698999999993248
-0.1965,1.0169,-0.0294,0.1983,0.2095,0.0261,0.1138,-0.3413,-5.635,-1.643099365754665,-10.988315311667535,-9.5096094999919,4.706999999994878
-0.1984,1.0137,-0.0325,0.1994,0.2097,0.0237,0.455,-0.42,-5.495,-1.712167308780905,-11.00743626605692,-9.513809499992755,4.716999999996915
-0.1984,1.0149,-0.0317,0.1994,0.2097,0.0237,0.4025,-0.9538,-5.5475,-1.7379183273983563,-11.020419679627544,-9.519532299993921,4.722999999998137
-0.198,1.0149,-0.0317,0.1987,0.2111,0.0241,0.4025,-0.9538,-5.4163,-1.7550420077584055,-11.023025703980323,-9.527162699995475,4.730999999999767
-0.197,1.0171,-0.0251,0.1987,0.2111,0.0241,0.0787,-1.2862,-5.4163,-1.7029604537878078,-11.010736067581423,-9.537452299988214,4.738999999994121
-0.1981,1.0175,-0.0292,0.1987,0.2111,0.0241,-0.3588,-1.295,-5.1887,-1.6908492766321863,-11.01075215582927,-9.54651729998535,4.745999999991909
-0.1948,1.0179,-0.0266,0.2006,0.2097,0.0222,-0.1488,-1.5225,-5.7137,-1.6820600371173544,-10.948046714901338,-9.55869729998783,4.753999999993539
-0.1939,1.0149,-0.027,0.2006,0.2097,0.0222,-0.1488,-1.5225,-5.7137,-1.674892381599064,-10.900923429246802,-9.570877299990311,4.761999999995169
-0.1939,1.0149,-0.027,0.1978,0.2109,0.0299,-0.4725,-1.6275,-5.6175,-1.6340230079276123,-10.874043542348991,-9.583897299992964,4.769999999996799
-0.1954,1.0155,-0.0344,0.1978,0.2109,0.0299,-0.595,-1.4787,-5.81,-1.7352008458023431,-10.878467751306703,-9.595726899984616,4.777999999991152
-0.1948,1.016,-0.0308,0.1978,0.2109,0.0299,-0.2625,-1.2513,-5.5213,-1.7353655600302489,-10.870951216950633,-9.605737299986655,4.785999999992782
-0.1935,1.0155,-0.0278,0.1998,0.2112,0.0245,-0.2625,-1.2513,-5.5213,-1.7121511884082474,-10.848934132348957,-9.615747699988695,4.793999999994412
-0.1965,1.0186,-0.0295,0.1998,0.2112,0.0245,-0.5688,-0.9538,-5.4075,-1.6951868878065766,-10.861032209104748,-9.62337809999025,4.801999999996042
-0.1965,1.0172,-0.0293,0.2001,0.2121,0.0293,-0.2887,-1.295,-5.2238,-1.6880440643994983,-10.863829900440502,-9.63373809999236,4.809999999997672
-0.1959,1.0172,-0.0293,0.2001,0.2121,0.0293,-0.4112,-1.47,-5.5125,-1.679025966332965,-10.871982912204667,-9.64549809998406,4.8179999999920256
-0.1975,1.0155,-0.0266,0.1994,0.211,0.0278,-0.4112,-1.47,-5.5125,-1.6367834140352262,-10.904386321885552,-9.657258099986455,4.825999999993655
-0.2008,1.0163,-0.0301,0.1994,0.211,0.0278,-0.5688,-1.5575,-5.6,-1.6557896522732483,-10.983335128924413,-9.669718099988994,4.833999999995285
-0.1981,1.0158,-0.0285,0.1994,0.211,0.0278,-0.14,-1.3038,-5.7925,-1.653977035824772,-11.001425359158441,-9.68014849999112,4.841999999996915
-0.1973,1.0144,-0.0308,0.1994,0.2104,0.0237,-0.1488,-1.3737,-5.53,-1.657836203399758,-11.001475248625127,-9.691138099993358,4.849999999998545
-0.1973,1.0144,-0.0308,0.1994,0.2104,0.0237,-0.1488,-1.3737,-5.53,-1.6615204608521896,-11.001512230275454,-9.702127699995597,4.858000000000175
-0.1953,1.0164,-0.0303,0.1996,0.2095,0.0305,-0.0088,-1.4525,-5.6175,-1.6654181872957114,-10.962165434342898,-9.713747699987396,4.8659999999945285
-0.1946,1.0171,-0.0273,0.1996,0.2095,0.0305,0.3237,-0.7875,-5.5738,-1.627267938124279,-10.92421143079134,-9.72004769998868,4.873999999996158
-0.196,1.018,-0.0272,0.1996,0.2095,0.0305,0.2537,-0.9187,-5.285,-1.6019206977468856,-10.921388793933591,-9.727397299990177,4.881999999997788
-0.1956,1.0172,-0.0297,0.1988,0.21,0.0279,0.2537,-0.9187,-5.285,-1.6203960001170212,-10.917504312640595,-9.734746899991674,4.889999999999418
-0.1956,1.018,-0.0278,0.1988,0.21,0.0279,0.0263,-1.4612,-4.7775,-1.614043643577242,-10.904533483471726,-9.746436499994054,4.898000000001048
-0.1951,1.018,-0.0278,0.1982,0.212,0.0258,0.1225,-1.5313,-5.005,-1.604940563077351,-10.895662926364297,-9.758686899974267,4.905999999988126
-0.1968,1.0166,-0.0303,0.1982,0.212,0.0258,0.1225,-1.5313,-5.005,-1.6236443441531803,-10.90400618027792,-9.770937299976762,4.9139999999897555
-0.1973,1.0173,-0.029,0.1982,0.212,0.0258,0.105,-1.4262,-5.1013,-1.6252237910727927,-10.908994003065054,-9.782346899979085,4.921999999991385
-0.1956,1.0169,-0.0266,0.1991,0.2095,0.0238,0.4988,-1.1725,-5.215,-1.5776576850971118,-10.908177688277844,-9.791726899980997,4.929999999993015
-0.1984,1.0154,-0.0301,0.1991,0.2095,0.0238,0.3413,-1.3737,-5.8362,-1.6145655648066788,-10.96473582151778,-9.801342799987953,4.936999999998079
-0.1984,1.0154,-0.0301,0.1986,0.2112,0.0299,0.3413,-1.3737,-5.8362,-1.6401493996283179,-10.998905109611925,-9.81370609997548,4.945999999988999
-0.1982,1.0153,-0.0292,0.1986,0.2112,0.0299,0.0088,-1.47,-5.9325,-1.6408657802257292,-11.01719225095435,-9.823996099982924,4.952999999994063
-0.1967,1.0161,-0.0286,0.1986,0.2112,0.0299,-0.455,-1.4262,-5.635,-1.6333943513671354,-10.996760154547035,-9.835405699985248,4.960999999995693
-0.1967,1.0169,-0.0293,0.2006,0.2094,0.0202,-0.1575,-1.5662,-5.67,-1.6342993701769772,-10.979152888626212,-9.847935299987801,4.9689999999973224
-0.1961,1.016,-0.0301,0.2006,0.2094,0.0202,-0.1575,-1.5662,-5.67,-1.6376314497506883,-10.959643735165205,-9.860464899990355,4.976999999998952
-0.1961,1.016,-0.0284,0.1992,0.2098,0.0221,-0.6388,-1.995,-5.985,-1.6248809549964824,-10.942092439576012,-9.87642489997909,4.984999999993306
-0.1973,1.0185,-0.0284,0.1992,0.2098,0.0221,-0.5337,-2.0738,-5.9588,-1.6165342264097922,-10.949566960310504,-9.893015299982471,4.992999999994936
-0.1964,1.0171,-0.0326,0.1958,0.2115,0.0222,-0.6737,-2.3275,-6.4837,-1.6963551577120553,-10.93494094479331,-9.911635299986264,5.000999999996566
-0.199,1.0167,-0.0302,0.1958,0.2115,0.0222,-0.6737,-2.3275,-6.4837,-1.6981953467927462,-11.011238862170194,-9.930255299990057,5.008999999998196
-0.2004,1.0172,-0.024,0.1958,0.2115,0.0222,-0.8487,-1.9075,-6.4662,-1.549950375281938,-11.084873838321228,-9.945515299993165,5.016999999999825
-0.1995,1.014,-0.0282,0.201,0.2118,0.0277,-1.1375,-1.89,-6.5012,-1.5718689528168182,-11.108464166425119,-9.960635299996245,5.025000000001455
-0.1995,1.014,-0.0282,0.201,0.2118,0.0277,-0.945,-2.0825,-6.475,-1.581548834961263,-11.118543436631539,-9.977295299969335,5.032999999988533
-0.2034,1.0168,-0.0302,0.1996,0.2116,0.021,-0.945,-2.0825,-6.475,-1.6363215454468654,-11.224985760112084,-9.993955299972729,5.040999999990163
-0.2025,1.0163,-0.0271,0.1996,0.2116,0.021,-0.9013,-2.205,-6.6937,-1.5879351770977697,-11.24897088533847,-10.011595299976323,5.048999999991793
-0.2034,1.0147,-0.0279,0.1996,0.2116,0.021,-1.1113,-2.31,-6.2475,-1.5814340482256772,-11.291168666645738,-10.030075299980087,5.0569999999934225
-0.2032,1.0141,-0.0274,0.2011,0.2103,0.0221,-1.1113,-0.07,-6.5012,-1.5644832832049045,-11.311299943240972,-10.0306352999802,5.064999999995052
-0.2032,1.0141,-0.0258,0.2011,0.2103,0.0221,-0.875,-2.205,-6.5012,-1.5177577468993355,-11.320235998264506,-10.04827529996775,5.072999999989406
-0.2021,1.0129,-0.0258,0.1983,0.211,0.0267,-1.0938,-2.1875,-6.3,-1.4885343078947806,-11.299124071949645,-10.065775299971316,5.080999999991036
-0.1964,1.0114,-0.0301,0.1983,0.211,0.0267,-0.84,-2.3975,-6.3263,-1.5803555733276817,-11.131177574007951,-10.084955299975222,5.088999999992666
-0.1989,1.012,-0.0283,0.1983,0.211,0.0267,-0.84,-2.3975,-6.3263,-1.5894773456273816,-11.122558730930212,-10.104135299979129,5.096999999994296
-0.1961,1.0147,-0.0263,0.1995,0.2112,0.0184,-0.665,-2.0825,-6.0287,-1.5517130125835312,-11.03627862810281,-10.120795299982523,5.1049999999959255
-0.1984,1.0161,-0.0243,0.1995,0.2112,0.0184,-0.2887,-2.0912,-6.0375,-1.523032174090064,-11.040431005281485,-10.137524899970716,5.112999999990279
-0.1984,1.0161,-0.0243,0.1997,0.2111,0.0249,-0.2013,-1.4,-6.2125,-1.5091201988469645,-11.042892573864819,-10.148724899972997,5.120999999991909
-0.1969,1.0161,-0.0279,0.1997,0.2111,0.0249,-0.2013,-1.4,-6.2125,-1.5149105154014237,-11.002239612192724,-10.159924899975278,5.128999999993539
-0.1992,1.0188,-0.0305,0.1997,0.2111,0.0249,0.035,-0.6125,-5.7925,-1.5388867099044723,-11.023515013704554,-10.164824899976276,5.136999999995169
-0.1948,1.0166,-0.0292,0.1994,0.2116,0.0328,-0.5688,-0.6825,-5.6962,-1.5727744544271727,-10.962171298070675,-10.17028489997739,5.144999999996799
-0.1951,1.0161,-0.0301,0.1994,0.2116,0.0328,0.0787,-0.875,-5.39,-1.5916928725145796,-10.94525897979822,-10.177284899978815,5.152999999998428
-0.1951,1.0161,-0.0312,0.2022,0.2122,0.027,0.0787,-0.875,-5.39,-1.6171793051361991,-10.931210855121055,-10.184284899973875,5.160999999992782
-0.1978,1.0196,-0.0312,0.2022,0.2122,0.027,0.6212,-0.0088,-5.11,-1.6740316985745405,-10.934036970778841,-10.18435529997389,5.168999999994412
-0.1976,1.0191,-0.0291,0.2022,0.2118,0.023,0.3413,-0.1488,-5.005,-1.662244419254625,-10.939257975734542,-10.185545699974131,5.176999999996042
-0.199,1.0164,-0.0291,0.1994,0.2118,0.023,0.2013,-0.4638,-5.3113,-1.6570665168983125,-10.954717249778323,-10.189256099974887,5.184999999997672
-0.2008,1.0182,-0.0312,0.1994,0.2118,0.023,0.2013,-0.4638,-5.3113,-1.6798475971938833,-10.977359177201242,-10.192966499975643,5.1929999999993015
-0.1977,1.0174,-0.029,0.2018,0.2105,0.0268,-0.0787,-0.665,-5.0575,-1.6788048930808595,-10.978995778687503,-10.19828649997189,5.200999999993655
-0.1977,1.0174,-0.029,0.2018,0.2105,0.0268,-0.21,-0.5075,-5.1975,-1.6742873958700109,-10.97921136551884,-10.202346499972716,5.208999999995285
-0.1953,1.0155,-0.0271,0.1999,0.2102,0.0271,-0.21,-0.2713,-5.2063,-1.6600119671523448,-10.976818773001199,-10.204516899973159,5.216999999996915
-0.1928,1.0169,-0.0263,0.1999,0.2102,0.0271,-0.5163,-0.2713,-5.2063,-1.6076607709345307,-10.970772724216113,-10.206687299973602,5.224999999998545
-0.1947,1.0172,-0.0276,0.1999,0.2102,0.0271,-0.1488,-0.245,-5.46,-1.6052396860456217,-10.940477335358237,-10.208647299972219,5.232999999992899
-0.1993,1.0128,-0.0306,0.2005,0.2114,0.0338,-0.0613,-0.5863,-5.215,-1.6100628415655724,-10.946634169025625,-10.213337699973174,5.2409999999945285
-0.1993,1.0128,-0.0306,0.2005,0.2114,0.0338,-0.0613,-0.5863,-5.215,-1.6147003796247064,-10.952588363589426,-10.218028099969864,5.248999999988882
-0.2033,1.0129,-0.0306,0.201,0.2118,0.0256,-0.1575,-0.0613,-5.3725,-1.6208538889539403,-11.015513403323606,-10.218518499969964,5.256999999990512
-0.1995,1.0151,-0.0299,0.201,0.2118,0.0256,0.07,-0.4375,-5.0662,-1.6305540187514698,-11.025659548101842,-10.222018499970677,5.264999999992142
-0.2005,1.0163,-0.0271,0.201,0.2118,0.0256,-0.4725,-0.805,-4.9788,-1.6026440051005533,-11.047641490894344,-10.228458499971989,5.272999999993772
-0.2001,1.0181,-0.0295,0.1992,0.213,0.0208,-0.4725,-0.805,-4.9788,-1.6180922035008396,-11.058932298847964,-10.234898499973301,5.280999999995402
-0.2003,1.0208,-0.0246,0.1992,0.213,0.0208,-0.35,-0.8838,-5.1625,-1.5707733126922567,-11.059646432616775,-10.241968899968311,5.2889999999897555
-0.2003,1.0208,-0.0246,0.2001,0.2114,0.0246,-0.6037,-0.6212,-5.3463,-1.5071447518716359,-11.065132898990196,-10.246317299971457,5.2959999999948195
-0.1986,1.0175,-0.0281,0.2001,0.2114,0.0246,-0.3063,-0.7088,-5.3288,-1.5198643444272857,-11.061931274808616,-10.251987699972613,5.303999999996449
-0.2,1.0174,-0.0282,0.2001,0.2114,0.0246,-0.3063,-0.7088,-5.3288,-1.5314039190862438,-11.069050052030867,-10.257658099973769,5.311999999998079
-0.2011,1.0164,-0.0274,0.1997,0.2103,0.0256,-0.49,-1.0325,-5.1712,-1.5349852227787428,-11.07019826846659,-10.265918099975451,5.319999999999709
-0.199,1.0159,-0.0273,0.1997,0.2103,0.0256,-0.3938,-0.9887,-5.2238,-1.5359668631961783,-11.070566884524094,-10.27382769996987,5.327999999994063
-0.199,1.0159,-0.0273,0.2007,0.2123,0.0297,-0.3325,-1.0675,-5.355,-1.5365970724267028,-11.071842580128132,-10.282367699971608,5.335999999995693
-0.2036,1.0152,-0.0301,0.2007,0.2123,0.0297,-0.3325,-1.0675,-5.355,-1.5669566603123042,-11.110920941338197,-10.290907699973348,5.3439999999973224
-0.2033,1.0136,-0.0267,0.2007,0.2123,0.0264,-0.6388,-1.4963,-5.4338,-1.5466688326209497,-11.1566714127516,-10.302878099975786,5.351999999998952
-0.1998,1.0103,-0.0282,0.2005,0.2114,0.0264,-0.2625,-1.2425,-5.6175,-1.5539122230232882,-11.164488398398618,-10.312818099977811,5.360000000000582
-0.2033,1.0131,-0.0301,0.2005,0.2114,0.0264,0.1925,-1.295,-5.2063,-1.5874977262257073,-11.168874956437904,-10.3231780999705,5.367999999994936
-0.2013,1.0151,-0.0245,0.2,0.2122,0.0318,0.1925,-1.295,-5.2063,-1.5409651711645602,-11.169974312517423,-10.333538099963189,5.37599999998929
-0.2013,1.0151,-0.0245,0.2,0.2122,0.0318,0.595,-1.3737,-5.2238,-1.4759565312091818,-11.17175675484484,-10.344527699965427,5.38399999999092
-0.2006,1.0157,-0.0295,0.1996,0.2118,0.0276,0.1663,-1.715,-4.97,-1.5155790551097894,-11.171015999954044,-10.358247699968222,5.391999999992549
-0.2004,1.016,-0.0292,0.1996,0.2118,0.0276,0.1663,-1.715,-4.97,-1.5431638817070694,-11.167970363507045,-10.371967699971018,5.399999999994179
-0.1993,1.0183,-0.0259,0.1996,0.2118,0.0276,0.4112,-0.9187,-4.6025,-1.5139594981284563,-11.132199751921101,-10.379317299972515,5.407999999995809
-0.1974,1.0162,-0.0292,0.2005,0.2119,0.0244,-0.0175,-1.9775,-5.1188,-1.5241650025313052,-11.123792245072321,-10.39513729996135,5.415999999990163
-0.1974,1.0162,-0.0292,0.2005,0.2119,0.0244,-0.4462,-1.9162,-5.1625,-1.5553855637232492,-11.121340040447514,-10.410466899964472,5.423999999991793
-0.2011,1.0163,-0.027,0.1999,0.2092,0.0197,-0.4462,-1.9162,-5.1625,-1.5467772657788226,-11.122565885069694,-10.425796499967594,5.4319999999934225
-0.2004,1.0165,-0.0289,0.1999,0.2092,0.0197,-0.4812,-1.785,-5.3113,-1.5692838873233577,-11.125530968833504,-10.440076499970504,5.439999999995052
-0.1968,1.0134,-0.0246,0.1999,0.2092,0.0197,-0.3413,-1.7325,-5.5738,-1.5346962036346425,-11.086392968963638,-10.453936499973327,5.447999999996682
-0.1987,1.0116,-0.0281,0.1987,0.2117,0.0235,-0.5337,-1.8288,-5.2413,-1.5517343421886043,-11.087649311549844,-10.468566899963001,5.455999999991036
-0.1987,1.0135,-0.0285,0.1987,0.2117,0.0235,-0.5337,-1.8288,-5.2413,-1.5695500421772817,-11.0876727312052,-10.483197299965981,5.463999999992666
-0.1978,1.0135,-0.0285,0.1987,0.2121,0.0254,-0.5337,-1.5313,-5.2937,-1.5819879163294257,-11.08274916267222,-10.495447699968476,5.471999999994296
-0.1992,1.0115,-0.0268,0.1987,0.2121,0.0254,0.0263,-1.435,-5.46,-1.574713373477804,-11.094623516030111,-10.506927699970815,5.4799999999959255
-0.1988,1.0122,-0.0276,0.1987,0.2121,0.0254,0.315,-1.155,-5.5388,-1.5709517341154402,-11.098056983858143,-10.516167699972698,5.487999999997555
-0.1993,1.0163,-0.0276,0.2002,0.2125,0.0218,0.315,-1.155,-5.5388,-1.5664445246960188,-11.09622862402812,-10.525407699966177,5.495999999991909
-0.1967,1.0181,-0.024,0.2002,0.2125,0.0218,0.2975,-1.0325,-5.5912,-1.5048476577505123,-11.048462024970942,-10.53366769996786,5.503999999993539
-0.1967,1.0181,-0.024,0.2002,0.2118,0.0318,-0.1312,-1.1375,-6.0813,-1.500367434587392,-10.993296572257794,-10.542767699969714,5.511999999995169
-0.1995,1.0151,-0.0261,0.2002,0.2118,0.0318,-0.5075,-1.1812,-5.7838,-1.4924191118789452,-11.039139101500245,-10.55221729997164,5.519999999996799
-0.2021,1.0108,-0.0302,0.2002,0.2118,0.0318,-0.5075,-1.1812,-5.7838,-1.555653329642942,-11.137907899688775,-10.561666899973565,5.527999999998428
-0.2012,1.0128,-0.0296,0.1984,0.2091,0.0285,-0.1312,-0.9538,-5.7225,-1.5590876703138172,-11.170702553014106,-10.56929729997512,5.536000000000058
-0.2014,1.0147,-0.0239,0.1984,0.2091,0.0285,-0.3237,-1.225,-5.5825,-1.5209196469940611,-11.185760505680417,-10.579097299968202,5.543999999994412
-0.2014,1.0161,-0.0249,0.2006,0.2111,0.0274,-0.3237,-1.225,-5.46,-1.4996092956372156,-11.190599197226527,-10.590122299965993,5.552999999992608
-0.2007,1.0161,-0.0249,0.2006,0.2111,0.0274,-0.3938,-1.6013,-5.46,-1.4779237053923864,-11.186097920182073,-10.602932699968603,5.560999999994237
-0.1993,1.016,-0.0263,0.1992,0.2115,0.0228,0.105,-1.0237,-5.3812,-1.4787607173972255,-11.17084637491052,-10.61112229997027,5.568999999995867
-0.2,1.0167,-0.0261,0.1992,0.2115,0.0228,-0.0175,-0.8313,-5.8275,-1.4781244143031944,-11.152946180232618,-10.617772699971626,5.576999999997497
-0.1999,1.0177,-0.0262,0.1992,0.2115,0.0228,-0.0175,-0.8313,-5.8275,-1.4778607589847028,-11.13575332525893,-10.623591799969788,5.583999999995285
-0.2029,1.0152,-0.0302,0.2012,0.2126,0.0245,-0.1312,-1.2775,-6.1425,-1.484418450707373,-11.215023930030958,-10.633811799962574,5.591999999989639
-0.2029,1.0152,-0.0302,0.2012,0.2126,0.0245,0.5775,-0.805,-5.7137,-1.5731739932566102,-11.243678313565837,-10.640251799963886,5.599999999991269
-0.2047,1.0187,-0.0268,0.2007,0.2119,0.0253,0.3413,-1.015,-5.7137,-1.5528680997646054,-11.28341768447815,-10.64837179996554,5.607999999992899
-0.2065,1.018,-0.0325,0.2007,0.2119,0.0253,0.3413,-1.015,-5.7137,-1.637457618413296,-11.345176114105481,-10.656491799967194,5.6159999999945285
-0.2076,1.0174,-0.0301,0.2007,0.2119,0.0253,0.0787,-0.7613,-6.0375,-1.6461773803085074,-11.429499293457388,-10.662582199968435,5.623999999996158
-0.208,1.0193,-0.0259,0.2008,0.2102,0.0202,0.175,-1.26,-5.6,-1.6049063141436175,-11.459146368238205,-10.672662199961321,5.631999999990512
-0.208,1.0193,-0.0307,0.2008,0.2102,0.0202,0.4112,-1.5225,-5.46,-1.6456525022932944,-11.474261602312898,-10.684842199963802,5.639999999992142
-0.2049,1.018,-0.0307,0.2023,0.2114,0.0243,0.4112,-1.5225,-5.46,-1.673337743838654,-11.452657366877895,-10.697022199966282,5.647999999993772
-0.2042,1.021,-0.0284,0.2023,0.2114,0.0243,0.0088,-1.9863,-6.0637,-1.6654000322957248,-11.38374234622627,-10.712912599969519,5.655999999995402
-0.2051,1.0197,-0.0279,0.2023,0.2114,0.0243,-0.0525,-2.2487,-5.9325,-1.6608322528983204,-11.377179647592705,-10.730902199973183,5.663999999997031
-0.2022,1.0158,-0.0293,0.1998,0.2119,0.0211,-0.4375,-2.4413,-5.6262,-1.6586594893632443,-11.339014933904739,-10.7504325999594,5.671999999991385
-0.2044,1.0173,-0.0296,0.1998,0.2119,0.0211,-0.4375,-2.4413,-5.6262,-1.6606682955019823,-11.344293166657508,-10.769962999963377,5.679999999993015
-0.2044,1.0173,-0.0296,0.2012,0.2106,0.0281,-0.8925,-2.3537,-5.1712,-1.6633077072780176,-11.344407834384928,-10.788792599967213,5.687999999994645
-0.2037,1.0155,-0.0292,0.2012,0.2106,0.0281,0.2275,-2.0912,-4.7075,-1.6592838254138123,-11.342321425250677,-10.805522199970621,5.695999999996275
-0.2026,1.0167,-0.0324,0.2012,0.2106,0.0281,-2.0125,-2.5375,-4.62,-1.7682551716874175,-11.314267076464331,-10.825822199974757,5.7039999999979045
-0.2018,1.018,-0.0311,0.2006,0.2122,0.0298,-0.0613,-2.5375,-4.62,-1.7675467567473548,-11.275858782682517,-10.843584699950682,5.710999999988417
-0.1996,1.0188,-0.0293,0.2006,0.2122,0.0298,-0.07,-2.6862,-4.3225,-1.7638954644132177,-11.18554202020529,-10.86507429995506,5.7189999999900465
-0.1996,1.0188,-0.0313,0.2004,0.2138,0.0279,0.14,-2.6425,-4.41,-1.763082046338839,-11.139467128870619,-10.886214299959367,5.726999999991676
-0.1972,1.0146,-0.0313,0.2004,0.2138,0.0279,0.14,-2.6425,-4.41,-1.7638420295206627,-11.07609798318608,-10.907354299963673,5.734999999993306
-0.1993,1.0161,-0.031,0.2009,0.2125,0.0211,0.21,-2.1175,-4.5325,-1.7599584051443329,-11.082433524356167,-10.924294299967125,5.742999999994936
-0.1947,1.0158,-0.0308,0.2009,0.2125,0.0211,-0.0613,-2.3888,-4.69,-1.7590644367128838,-11.004416157483105,-10.943404699971017,5.750999999996566
-0.1948,1.0157,-0.0313,0.2009,0.2125,0.0211,-0.3325,-1.96,-4.5062,-1.7601937412921866,-10.942939497533606,-10.96104469996748,5.759999999994761
-0.1947,1.0167,-0.0282,0.2002,0.212,0.023,-0.3325,-1.96,-4.5062,-1.728010385933338,-10.900228213259393,-10.978684699963944,5.768999999992957
-0.1947,1.0167,-0.0282,0.2002,0.212,0.023,-0.63,-1.8375,-4.6813,-1.6798639587197024,-10.87913830802638,-10.993384699966938,5.776999999994587
-0.1958,1.016,-0.029,0.2002,0.213,0.023,-0.0525,-1.82,-4.27,-1.6777739164978218,-10.890885387400214,-11.007944699969904,5.7849999999962165
-0.1921,1.0135,-0.0318,0.2002,0.213,0.023,-0.2537,-1.575,-4.5675,-1.6935582190679563,-10.828739456819083,-11.020544699972472,5.792999999997846
-0.1949,1.0138,-0.0326,0.2002,0.213,0.023,-0.2537,-1.575,-4.5675,-1.7131574484842578,-10.84696931083501,-11.03314469997504,5.800999999999476
-0.1911,1.0136,-0.0299,0.2007,0.2134,0.0199,-0.4638,-1.3563,-4.8038,-1.7069081912127713,-10.79917241446291,-11.043995099967383,5.80899999999383
-0.1911,1.0136,-0.0312,0.2007,0.2134,0.0199,-1.0588,-1.61,-4.7425,-1.734386920899133,-10.760421591879505,-11.056875099970007,5.81699999999546
-0.1943,1.014,-0.0312,0.2001,0.212,0.0255,-0.63,-1.1638,-4.9437,-1.7440718238558586,-10.776136578363406,-11.066185499971905,5.82499999999709
-0.1965,1.0141,-0.031,0.2001,0.212,0.0255,-0.63,-1.1638,-4.9437,-1.7464430012828112,-10.81162325439443,-11.075495899973802,5.832999999998719
-0.1954,1.0138,-0.0281,0.2001,0.212,0.0255,-0.385,-1.2513,-5.0575,-1.7113605311130549,-10.821921857807506,-11.085506299975842,5.841000000000349
-0.1959,1.0135,-0.03,0.2004,0.2111,0.0218,-0.56,-1.1812,-5.18,-1.7063677795212726,-10.822031243547265,-11.094955899969174,5.848999999994703
-0.1987,1.0123,-0.0279,0.2004,0.2111,0.0218,-0.245,-0.8838,-5.285,-1.6903331036471152,-10.848322897948163,-11.102026299964184,5.856999999989057
-0.1987,1.0123,-0.0279,0.1998,0.2126,0.0238,-0.245,-0.8838,-5.285,-1.6763127955402166,-10.87213709045953,-11.109096699965624,5.864999999990687
-0.1998,1.0142,-0.0262,0.1998,0.2126,0.0238,-0.2362,-0.7525,-5.6175,-1.6529583860225772,-10.95386296714831,-11.115116699966851,5.872999999992317
-0.1996,1.0142,-0.0288,0.1998,0.2126,0.0238,-0.6212,-1.4612,-5.6788,-1.643934849405049,-11.01222307045916,-11.126806299969232,5.880999999993946
-0.2013,1.0157,-0.032,0.2,0.2106,0.0327,-0.6212,-1.4612,-5.4338,-1.6988657842960913,-11.051061921528051,-11.138495899971613,5.888999999995576
-0.2015,1.0183,-0.028,0.2,0.2106,0.0327,-0.875,-1.3475,-5.4338,-1.644859312842266,-11.078879353611327,-11.149275899964005,5.89699999998993
-0.2015,1.0183,-0.028,0.2006,0.2123,0.0242,-0.5075,-1.3038,-5.8275,-1.6246960386296783,-11.122081322124782,-11.15970629996613,5.90499999999156
-0.2021,1.0176,-0.0306,0.2006,0.2123,0.0242,-0.1925,-1.3737,-5.6962,-1.6328605538765975,-11.158127298156034,-11.170695899968369,5.91299999999319
-0.2042,1.0185,-0.0284,0.2006,0.2128,0.0267,-0.1925,-1.3737,-5.6962,-1.629883369483074,-11.217483046187146,-11.181685499970607,5.9209999999948195
-0.2052,1.0166,-0.0301,0.2004,0.2128,0.0267,-0.4725,-1.5313,-5.9412,-1.6477665726520248,-11.299295410213691,-11.193935899973102,5.928999999996449
-0.2069,1.0175,-0.0337,0.2004,0.2128,0.0267,-0.28,-1.7587,-6.3612,-1.6855425370442654,-11.401324982340379,-11.208005499963171,5.936999999990803
-0.2039,1.0189,-0.0314,0.2012,0.2114,0.0297,-0.8313,-2.17,-6.23,-1.7191363271475861,-11.355178686014277,-11.225365499966708,5.944999999992433
-0.2039,1.0189,-0.0314,0.2012,0.2114,0.0297,-0.8313,-2.17,-6.23,-1.7385549835462741,-11.332657674236476,-11.242725499970245,5.952999999994063
-0.2008,1.0185,-0.0279,0.2009,0.2122,0.0281,-0.63,-2.2925,-6.1863,-1.679959118046415,-11.24053672952791,-11.26106549997398,5.960999999995693
-0.2001,1.0169,-0.0296,0.2009,0.2122,0.0281,-0.9363,-1.7413,-6.0025,-1.674198332355736,-11.18956863961178,-11.274995899976819,5.9689999999973224
-0.2006,1.0182,-0.03,0.2009,0.2122,0.0281,-1.365,-1.82,-6.1075,-1.6817136406606072,-11.166036531115369,-11.2859158999658,5.974999999991269
-0.2003,1.0138,-0.0289,0.2003,0.2122,0.0355,-1.365,-1.82,-6.1075,-1.6544450025914474,-11.168791283938068,-11.300475899968767,5.982999999992899
-0.2003,1.0138,-0.0289,0.2003,0.2122,0.0355,-0.385,-1.9425,-6.265,-1.6496763681157736,-11.17033781859327,-11.316015899971932,5.9909999999945285
-0.2014,1.0104,-0.0292,0.1996,0.2116,0.0253,-0.5688,-1.785,-5.9675,-1.651485509091884,-11.213451605710528,-11.33208089996871,5.999999999992724
-0.2006,1.0108,-0.0294,0.1996,0.2116,0.0253,-0.3325,-2.1175,-5.6175,-1.6542161268966242,-11.2155197057125,-11.346903399979434,6.006999999997788
-0.1975,1.0118,-0.0259,0.1996,0.2116,0.0253,-0.3325,-2.1175,-5.6175,-1.61893790749231,-11.162649827836505,-11.363843399967479,6.014999999992142
-0.1957,1.009,-0.0278,0.2003,0.2121,0.0194,-0.245,-1.54,-5.4163,-1.613822171573481,-11.12641103293248,-11.37616339996999,6.022999999993772
-0.1966,1.0136,-0.0278,0.2003,0.2121,0.0194,-0.0525,-1.0237,-5.6438,-1.6118313669826685,-11.077835750765617,-11.384352999971657,6.030999999995402
-0.1966,1.0136,-0.0278,0.1998,0.2131,0.0264,-0.0525,-1.0237,-5.565,-1.6099332385143226,-11.04871429273482,-11.392542599973325,6.038999999997031
-0.1909,1.0171,-0.0288,0.1998,0.2131,0.0264,-0.35,-1.1113,-5.565,-1.6123248828604637,-10.931432291881872,-11.401432999975135,6.046999999998661
-0.1989,1.0148,-0.0265,0.1998,0.2131,0.0264,-0.0787,-0.9013,-5.46,-1.6097480420362882,-10.965079945857958,-11.408643399970046,6.054999999993015
-0.2032,1.0134,-0.0301,0.2024,0.2133,0.011,-0.1138,-0.77,-5.88,-1.6108760641230042,-11.116589085877443,-11.414033399968343,6.061999999990803
-0.2036,1.015,-0.0297,0.2024,0.2133,0.011,-0.1138,-0.77,-5.88,-1.611679194197156,-11.207588942206767,-11.420193399969598,6.069999999992433
-0.2036,1.015,-0.0297,0.2009,0.2111,0.0166,0.0263,-1.1812,-6.02,-1.6189656509879922,-11.266981571015148,-11.429642999971524,6.077999999994063
-0.2073,1.0186,-0.0317,0.2009,0.2111,0.0166,0.3938,-0.9013,-6.2387,-1.6731332212572314,-11.385737143551637,-11.436853399972993,6.085999999995693
-0.2045,1.0209,-0.0257,0.2009,0.2111,0.0371,0.2887,-0.9187,-6.615,-1.6082944137755901,-11.349190476953614,-11.444202999967805,6.0939999999900465
-0.2024,1.0196,-0.0289,0.2014,0.2116,0.0217,0.2887,-0.9187,-6.615,-1.6125840977931378,-11.275071410718532,-11.451552599969302,6.101999999991676
-0.2064,1.0182,-0.0259,0.2014,0.2116,0.0217,0.2362,-1.3475,-6.4313,-1.5733529562054338,-11.375367541636498,-11.462332599971498,6.109999999993306
-0.1908,1.0147,-0.0268,0.2021,0.2114,0.019,0.0525,-1.295,-6.8338,-1.5652975113642307,-10.920743049309374,-11.472692599973609,6.117999999994936
-0.2027,1.0147,-0.0268,0.2021,0.2114,0.019,0.42,-1.5313,-6.5363,-1.5473522761873217,-11.134988492748493,-11.486474299970846,6.1269999999931315
-0.2046,1.0149,-0.0292,0.2006,0.2117,0.0206,0.42,-1.5313,-6.5363,-1.5818488667082302,-11.28360209136306,-11.49872469997334,6.134999999994761
-0.2021,1.0122,-0.0284,0.2006,0.2117,0.0206,0.2887,-1.365,-6.09,-1.5889525400624191,-11.285266711559679,-11.509644699965634,6.142999999989115
-0.2044,1.0158,-0.0272,0.2006,0.2117,0.0206,0.455,-1.435,-5.9412,-1.5692513475849625,-11.323243653595743,-11.5196896999729,6.149999999994179
-0.2031,1.0145,-0.0296,0.2047,0.2141,0.0242,0.595,-1.3125,-5.7663,-1.6111171426167425,-11.320606715975282,-11.53018969997504,6.157999999995809
-0.2031,1.0145,-0.0296,0.2047,0.2141,0.0242,0.595,-1.3125,-5.7663,-1.6357974338532566,-11.318943382391451,-11.540689699977179,6.165999999997439
-0.2025,1.0173,-0.0292,0.2009,0.2128,0.0292,0.28,-1.3825,-5.5475,-1.638098806383747,-11.30136797986982,-11.551749699979432,6.173999999999069
-0.1993,1.0189,-0.0295,0.2009,0.2128,0.0292,0.3063,-1.6013,-5.3987,-1.6439804508661935,-11.258742522000878,-11.564560099970391,6.1819999999934225
-0.2047,1.0135,-0.0314,0.2009,0.2128,0.0292,0.3063,-1.8725,-5.5213,-1.6817928843039895,-11.297980940914552,-11.579540099973443,6.189999999995052
-0.2025,1.015,-0.0315,0.2018,0.211,0.0256,0.2537,-1.8725,-5.5213,-1.7068882240794683,-11.292780638635527,-11.594520099976494,6.197999999996682
-0.2025,1.018,-0.0309,0.2018,0.211,0.0256,-0.2013,-2.0387,-5.705,-1.7097705789946676,-11.276469457725328,-11.612868399972815,6.206999999994878
-0.2036,1.018,-0.0309,0.2013,0.212,0.0234,-0.1925,-2.1962,-5.495,-1.7121795823671755,-11.28325435001791,-11.630437999976394,6.2149999999965075
-0.2056,1.0158,-0.0311,0.2013,0.212,0.0234,-0.1925,-2.1962,-5.495,-1.7156434498533737,-11.31999407926527,-11.645811399971537,6.221999999994296
-0.2041,1.0161,-0.0315,0.2013,0.212,0.0234,0.0962,-1.7938,-5.7225,-1.7255413945105544,-11.331351881952816,-11.66016179997446,6.2299999999959255
-0.2048,1.0158,-0.0348,0.2012,0.2102,0.0274,-0.1575,-1.5137,-5.9763,-1.7381239380400764,-11.358370520409943,-11.672271399965913,6.237999999990279
-0.2047,1.018,-0.0339,0.2012,0.2102,0.0274,-0.21,-1.6013,-5.8362,-1.754704869066209,-11.360327840106113,-11.685081799968524,6.245999999991909
-0.2047,1.018,-0.0339,0.1966,0.2124,0.0236,-0.21,-1.6013,-5.8362,-1.7696604972044212,-11.36151034413797,-11.697892199971134,6.253999999993539
-0.2041,1.0174,-0.0284,0.1966,0.2124,0.0236,-0.1312,-2.205,-6.0725,-1.7647086331483788,-11.35099438980836,-11.715532199974728,6.261999999995169
-0.2071,1.0185,-0.032,0.1966,0.2124,0.0236,-0.2625,-2.345,-6.3175,-1.7695475030976657,-11.423984716861954,-11.734292199961487,6.269999999989523
-0.2076,1.0178,-0.0304,0.201,0.213,0.0296,-0.3237,-2.31,-6.1775,-1.7588640230746273,-11.473627378958534,-11.752772199965252,6.277999999991152
-0.2089,1.0183,-0.0311,0.201,0.213,0.0296,-0.3237,-2.31,-6.1775,-1.7571299978802983,-11.530658321120807,-11.771252199969016,6.285999999992782
-0.2089,1.014,-0.0323,0.203,0.2135,0.0261,-0.4725,-1.8637,-6.3175,-1.7753629828718809,-11.586283949580785,-11.786161799972053,6.293999999994412
-0.2069,1.014,-0.0323,0.203,0.2135,0.0261,-0.6212,-2.625,-5.9412,-1.7921653364382524,-11.560605016899697,-11.807161799976331,6.301999999996042
-0.2048,1.018,-0.0287,0.2021,0.2126,0.0254,-0.5775,-2.8525,-5.3375,-1.7349795441362015,-11.534869398242625,-11.832834299971184,6.310999999994237
-0.2008,1.0141,-0.0306,0.2021,0.2126,0.0254,-0.5775,-2.8525,-5.3375,-1.732840804448592,-11.488894236025319,-11.852801799964874,6.3179999999920256
-0.2019,1.0112,-0.0334,0.2021,0.2126,0.0254,-0.7175,-2.0387,-5.32,-1.7934430775960484,-11.464056611282777,-11.871150099961195,6.326999999990221
-0.2,1.01,-0.0278,0.2026,0.2131,0.0238,-0.8487,-1.995,-5.4163,-1.7007195992287116,-11.413117953145148,-11.885115099971298,6.333999999995285
-0.2,1.01,-0.0278,0.2026,0.2131,0.0238,-0.4288,-2.2225,-5.2413,-1.6701138547135663,-11.400801736717636,-11.90289509997492,6.341999999996915
-0.1982,1.0092,-0.0279,0.2024,0.2122,0.0282,-0.4288,-2.2225,-5.2413,-1.6487658890429724,-11.38408156920554,-11.920675099978542,6.349999999998545
-0.202,1.0142,-0.0304,0.2024,0.2122,0.0282,-0.7262,-2.0038,-5.0925,-1.674964432963728,-11.373945273939945,-11.936705499967228,6.357999999992899
-0.1979,1.0161,-0.0266,0.2024,0.2122,0.0282,-0.9712,-1.715,-5.3725,-1.5933731270289981,-11.316651049652103,-11.952140499964134,6.366999999991094
-0.1977,1.0149,-0.0308,0.2003,0.2128,0.024,-0.9712,-1.715,-5.5912,-1.6607790936248379,-11.229798623564474,-11.964145499972819,6.373999999996158
-0.1977,1.0305,-0.03,0.2003,0.2128,0.024,-0.8225,-1.5838,-5.5912,-1.6636070743105735,-11.120965622342437,-11.976815899975401,6.381999999997788
-0.1995,1.0177,-0.03,0.2014,0.2134,0.0264,-0.6737,-1.2425,-6.2038,-1.6726647597805784,-11.103472043921649,-11.986755899977426,6.389999999999418
-0.1982,1.018,-0.027,0.2014,0.2134,0.0264,-0.8487,-0.8575,-6.7987,-1.6070585995430937,-11.047945133055274,-11.993615899972585,6.397999999993772
-0.2029,1.0164,-0.031,0.2014,0.2134,0.0264,-0.8487,-0.8575,-6.7987,-1.666899855322253,-11.193961418641607,-12.000475899973983,6.405999999995402
-0.2003,1.0156,-0.0231,0.2032,0.2142,0.0234,-0.525,-0.6212,-6.615,-1.558599406252464,-11.170456242269761,-12.005445499974996,6.413999999997031
-0.2069,1.0131,-0.0274,0.2032,0.2142,0.0234,-0.8838,-0.315,-6.8513,-1.5544850308872542,-11.400598937955396,-12.00796549997551,6.421999999998661
-0.2069,1.0131,-0.0274,0.2018,0.2127,0.0274,-0.4025,-0.0088,-6.7725,-1.5532679578288784,-11.485215044653796,-12.008035899975525,6.430000000000291
-0.2102,1.0141,-0.0283,0.2018,0.2127,0.0274,-0.4025,-0.0088,-6.7725,-1.5637400491062787,-11.620719818026794,-12.008106299975475,6.437999999994645
-0.212,1.0164,-0.0276,0.2018,0.2127,0.0274,-0.42,-0.3325,-5.6087,-1.561740364580535,-11.66771181880626,-12.01043379997474,6.444999999992433
-0.2114,1.0144,-0.0254,0.2018,0.2136,0.0238,-0.1575,-0.84,-5.355,-1.5549650430598947,-11.682624310290668,-12.017153799976109,6.452999999994063
-0.2137,1.0187,-0.0275,0.2018,0.2136,0.0238,-0.035,-1.0762,-5.2675,-1.5544282514351837,-11.695425347491957,-12.025763399977864,6.460999999995693
-0.2137,1.0187,-0.0245,0.2014,0.2137,0.0282,-0.035,-1.0762,-5.2675,-1.5434366199391925,-11.707275742417327,-12.035449199975922,6.469999999993888
-0.2116,1.0197,-0.0245,0.2014,0.2137,0.0282,-0.14,-1.4875,-5.18,-1.537215615515103,-11.707287930669583,-12.047349199978346,6.477999999995518
-0.2106,1.0192,-0.029,0.2022,0.2152,0.0244,-0.2975,-1.75,-4.8738,-1.552405626946108,-11.698590427022042,-12.059599199974475,6.484999999993306
-0.2144,1.0216,-0.0262,0.2022,0.2152,0.0244,-0.0787,-2.2313,-4.8038,-1.5505622745936447,-11.739697864449994,-12.079680899970448,6.493999999991502
-0.2098,1.02,-0.029,0.2022,0.2152,0.0244,-0.0787,-2.2313,-4.8038,-1.552287906633,-11.706447373778957,-12.097531299974085,6.5019999999931315
-0.2092,1.0197,-0.03,0.2016,0.213,0.0261,-0.3063,-2.1525,-4.6375,-1.5748937614225391,-11.665077664875971,-12.112598799984985,6.508999999998196
-0.2092,1.0197,-0.03,0.2016,0.213,0.0261,-0.1575,-2.1088,-4.375,-1.580759561219343,-11.631106007403924,-12.129469199988423,6.516999999999825
-0.2103,1.0193,-0.0299,0.203,0.2121,0.0229,-0.1575,-2.1088,-4.41,-1.5860498161262453,-11.640509216064341,-12.146339599976516,6.524999999994179
-0.2068,1.0167,-0.0279,0.203,0.2121,0.0229,-0.5688,-2.4237,-4.41,-1.581542424717077,-11.576330202210944,-12.165729199980467,6.532999999995809
-0.205,1.016,-0.033,0.203,0.2121,0.0229,-0.6125,-2.695,-4.1475,-1.67584634350628,-11.487551747088144,-12.187289199984859,6.540999999997439
-0.2053,1.0175,-0.0275,0.2022,0.2134,0.0258,-0.35,-2.7125,-3.8675,-1.6504170094697388,-11.439720534731073,-12.20898919998928,6.548999999999069
-0.2053,1.0175,-0.0297,0.2022,0.2134,0.0258,-0.35,-2.7125,-3.8675,-1.6547038583285292,-11.418662569477085,-12.2306891999937,6.5570000000006985
-0.2029,1.0158,-0.0297,0.203,0.2116,0.0256,-0.07,-2.17,-3.85,-1.6553124003114763,-11.345842025055296,-12.248049199981448,6.564999999995052
-0.2014,1.0158,-0.0282,0.203,0.2116,0.0256,-0.6737,-2.4675,-3.7275,-1.6316105581654679,-11.265507940271883,-12.267789199967517,6.572999999989406
-0.2006,1.0134,-0.0276,0.203,0.2116,0.0256,-1.0237,-2.3363,-3.8763,-1.597283612765139,-11.224328965606121,-12.286479599971324,6.580999999991036
-0.1996,1.0131,-0.0289,0.2011,0.2127,0.0234,-1.0237,-2.3363,-3.8763,-1.614897522784217,-11.177266025762627,-12.305169999975131,6.588999999992666
-0.1997,1.0105,-0.0296,0.2011,0.2127,0.0234,-0.91,-2.52,-3.9113,-1.6430453980490125,-11.175636706241024,-12.325329999979239,6.596999999994296
-0.1997,1.0105,-0.0296,0.2022,0.2133,0.0257,-0.945,-2.0563,-4.1038,-1.6589734408499925,-11.174971236895615,-12.345892999983429,6.606999999996333
-0.1975,1.012,-0.0304,0.2022,0.2133,0.0257,-0.9013,-2.0738,-4.865,-1.6863717105411304,-11.142103013777438,-12.36248339998681,6.614999999997963
-0.1955,1.0138,-0.028,0.2022,0.2133,0.0257,-0.9013,-2.0738,-4.865,-1.640003719031825,-11.086568929578917,-12.3790737999751,6.622999999992317
-0.1951,1.0115,-0.027,0.2021,0.2123,0.0249,-0.6212,-1.925,-4.9875,-1.6020467008793786,-11.058506100473577,-12.392548799984848,6.629999999997381
-0.1967,1.0139,-0.0292,0.2021,0.2123,0.0249,-0.9013,-1.7763,-5.2675,-1.623200859366103,-11.051835413082301,-12.406759199987743,6.6379999999990105
-0.1967,1.0139,-0.0292,0.2016,0.2108,0.0245,-1.1113,-1.82,-5.4075,-1.6364882378783319,-11.037597672773723,-12.419499199983717,6.644999999996799
-0.1961,1.0122,-0.0264,0.2016,0.2108,0.0245,-1.1113,-1.82,-5.4075,-1.5649098780516415,-11.023415353118281,-12.43405919997344,6.652999999991152
-0.1976,1.0119,-0.0274,0.2016,0.2133,0.0276,-1.085,-1.9688,-5.5125,-1.5580435097703549,-11.028915456080272,-12.449809599976648,6.660999999992782
-0.2014,1.0132,-0.0287,0.2018,0.2133,0.0276,-0.5425,-1.3388,-5.495,-1.5777847962911031,-11.078907137854987,-12.46051999997883,6.668999999994412
-0.1992,1.0141,-0.0271,0.2018,0.2133,0.0276,-0.5425,-1.7237,-5.7663,-1.5633902244746667,-11.090117778682357,-12.47430959998164,6.676999999996042
-0.1982,1.0153,-0.0224,0.2017,0.211,0.0299,-0.6037,-1.7237,-5.7663,-1.4632378072207002,-11.072852986620811,-12.488099199984449,6.684999999997672
-0.1982,1.0153,-0.0224,0.2017,0.211,0.0299,-1.12,-1.7237,-6.0113,-1.3626367233164662,-11.059472234326226,-12.501888799974717,6.6929999999920256
-0.2008,1.0158,-0.0289,0.2019,0.2126,0.0224,-0.7788,-2.0475,-5.6262,-1.470475485386106,-11.095824311738191,-12.518268799978054,6.700999999993655
-0.2037,1.0145,-0.0268,0.2019,0.2126,0.0224,-0.7788,-2.0475,-5.6262,-1.4877417863525555,-11.173978188612411,-12.534648799981392,6.708999999995285
-0.2022,1.016,-0.0264,0.2019,0.2126,0.0224,-0.7175,-1.5925,-6.1775,-1.4880129554432455,-11.212919723975492,-12.547388799983988,6.716999999996915
-0.2021,1.0159,-0.0277,0.1993,0.213,0.031,-1.0412,-1.085,-6.055,-1.523795103245966,-11.228944473877633,-12.556068799985756,6.724999999998545
-0.2021,1.0159,-0.0277,0.1993,0.213,0.031,-0.8225,-1.1113,-5.8625,-1.5397469857206683,-11.23637543389614,-12.564959199987566,6.733000000000175
-0.2044,1.0171,-0.0232,0.2021,0.2126,0.0266,-0.8225,-1.1113,-5.8625,-1.4420946020896899,-11.28653255458007,-12.573849599981292,6.7409999999945285
-0.205,1.0158,-0.0251,0.2021,0.2126,0.0266,-0.9538,-0.98,-5.7137,-1.4298411160668496,-11.328160220832594,-12.581689599982889,6.748999999996158
-0.2044,1.0142,-0.0259,0.2021,0.2126,0.0266,-0.7262,-1.1375,-5.7312,-1.4425412515153502,-11.3504753313017,-12.590789599984744,6.756999999997788
-0.2072,1.0167,-0.0239,0.2024,0.2122,0.02,-0.9275,-1.785,-5.67,-1.3991495197608017,-11.404786589145301,-12.605069599987653,6.764999999999418
-0.2037,1.0126,-0.0209,0.2024,0.2122,0.02,-0.9275,-1.785,-5.67,-1.3010964968806715,-11.393939554832254,-12.619349599990562,6.773000000001048
-0.2037,1.0126,-0.0209,0.2018,0.2123,0.0259,-0.8487,-2.24,-6.3,-1.2503341857652994,-11.382226288412147,-12.637269599961616,6.780999999988126
-0.2059,1.0127,-0.0229,0.2018,0.2123,0.0259,-0.6825,-1.8025,-6.2913,-1.2668978755770615,-11.438795922630948,-12.651689599964554,6.7889999999897555
-0.2039,1.0172,-0.0212,0.2018,0.2123,0.0259,-0.4025,-1.5662,-6.3263,-1.250015071311527,-11.382019161912703,-12.664219199967107,6.796999999991385
-0.2025,1.0095,-0.0237,0.1998,0.2129,0.0318,-0.4025,-1.5662,-6.3263,-1.2719738418973223,-11.359388413614749,-12.67674879996966,6.804999999993015
-0.202,1.0097,-0.0216,0.1998,0.2129,0.0318,-0.4025,-1.75,-5.81,-1.2612197493953305,-11.340582181812875,-12.690748799972512,6.812999999994645
-0.202,1.0097,-0.0216,0.2028,0.2118,0.0231,-0.28,-1.6275,-5.7575,-1.255806917152933,-11.329648927250906,-12.703768799963322,6.820999999988999
-0.199,1.0158,-0.0216,0.2028,0.2118,0.0231,-0.3325,-1.0938,-5.5563,-1.2487371944474812,-11.261981312655655,-12.713612999969307,6.82999999999447
-0.2016,1.0148,-0.0242,0.2028,0.2118,0.0273,-0.3325,-1.0938,-5.5563,-1.270769862363743,-11.254063659480801,-12.721269599966888,6.836999999992258
-0.206,1.0159,-0.0237,0.2017,0.2125,0.0273,-0.6562,-1.0063,-5.3812,-1.2941959820646236,-11.288376850673393,-12.730326299972393,6.84599999999773
-0.2064,1.0166,-0.0235,0.2017,0.2125,0.0273,-0.7175,-1.6187,-5.2937,-1.3056461727871782,-11.307158746255773,-12.741657199968813,6.852999999995518
-0.2076,1.0134,-0.0239,0.2028,0.2122,0.0242,-0.7175,-1.6187,-5.2762,-1.3229420408837749,-11.330362820812061,-12.754606799971452,6.860999999997148
-0.2076,1.0134,-0.0239,0.2028,0.2122,0.0242,0.6037,-0.9363,-5.2762,-1.3345488290108256,-11.351549248317703,-12.762097199966165,6.868999999991502
-0.2066,1.0188,-0.0262,0.2024,0.2102,0.0332,0.3675,-1.4875,-5.4425,-1.378779733650063,-11.373977775628058,-12.772509699973698,6.875999999996566
