AcclX,AcclY,AcclZ,MagX,MagY,MagZ,GyroX,GyroY,GyroZ,Roll,Pitch,Yaw,Time Elapsed(s)
-0.0163,1.0262,-0.0967,0.1333,0.1654,0.0047,-0.385,-6.6238,-4.9088,0,0,0,0.006999999997788109
-0.0148,1.0319,-0.0894,0.1333,0.1654,0.0047,-0.875,-7.9538,-5.81,0,0,0,0.014000000002852175
-0.0124,1.027,-0.0838,0.1333,0.1654,0.0047,-1.8725,-8.9425,-7.2625,0,0,0,0.017999999996391125
-0.0114,1.0239,-0.0848,0.1327,0.1667,0.011,-2.5113,-9.7475,-8.1375,0,0,0,0.02500000000145519
-0.0114,1.0232,-0.0813,0.1327,0.1667,0.011,-2.5113,-9.7475,-8.1375,0,0,0,0.033000000003085006
-0.013,1.0232,-0.0813,0.1346,0.1647,0.0118,-3.0625,-10.2113,-8.7413,0,0,0,0.04200000000128057
-0.0187,1.0252,-0.0824,0.1346,0.1647,0.0118,-3.2725,-10.2638,-9.7475,0,0,0,0.04899999999906868
-0.0325,1.0245,-0.0904,0.1346,0.1647,0.0118,-3.0625,-10.7537,-10.1587,0,0,0,0.05799999999726424
-0.0456,1.0236,-0.0903,0.1346,0.167,0.0206,-3.0625,-10.7537,-10.1587,0,0,0,0.06599999999889405
-0.0572,1.0204,-0.0911,0.1346,0.167,0.0206,-2.4675,-11.585,-10.7712,0,0,0,0.07400000000052387
-0.0572,1.0204,-0.0911,0.1354,0.1666,0.0194,-2.1437,-12.3462,-11.5937,0,0,0,0.08099999999831198
-0.0648,1.0192,-0.0887,0.1354,0.1666,0.0194,-1.645,-13.0725,-12.4075,0,0,0,0.08899999999994179
-0.0689,1.0199,-0.0869,0.1354,0.1666,0.0194,-1.645,-13.0725,-12.4075,0,0,0,0.09699999999429565
-0.0697,1.022,-0.0942,0.1372,0.1681,0.0089,-1.6538,-13.5363,-12.0138,0,0,0,0.10499999999592546
-0.0711,1.0263,-0.0967,0.1372,0.1681,0.0089,-2.0563,-14.1838,-11.1825,0,0,0,0.11299999999755528
-0.0711,1.0239,-0.0977,0.1378,0.1676,0.0107,-2.0563,-14.1838,-10.29,0,0,0,0.12099999999918509
-0.0707,1.0239,-0.0977,0.1378,0.1676,0.0107,-1.4175,-14.4375,-10.29,0,0,0,0.1290000000008149
-0.0644,1.0251,-0.0989,0.1384,0.168,0.0129,-0.665,-14.5775,-8.6975,0,0,0,0.13699999999516876
-0.0566,1.0217,-0.095,0.1384,0.168,0.0129,-0.5337,-13.895,-7.945,0,0,0,0.14499999999679858
-0.0479,1.0199,-0.0971,0.1384,0.168,0.0129,-0.5337,-13.895,-7.945,0,0,0,0.1529999999984284
-0.0395,1.0221,-0.0986,0.1386,0.1684,0.0251,-0.0525,-13.0813,-6.8075,0,0,0,0.1610000000000582
-0.0395,1.0221,-0.0986,0.1386,0.1684,0.0251,0.1312,-11.69,-5.6525,0,0,0,0.16900000000168802
-0.031,1.0222,-0.0925,0.1382,0.1665,0.0205,-0.2362,-10.7887,-4.935,0,0,0,0.17699999999604188
-0.0295,1.0165,-0.0964,0.1382,0.1665,0.0205,-0.2362,-10.7887,-4.935,0,0,0,0.1849999999976717
-0.023,1.0221,-0.0956,0.1382,0.1665,0.0205,-0.7613,-9.905,-4.2787,0,0,0,0.1929999999993015
-0.0217,1.0166,-0.0933,0.1392,0.1671,0.0207,-1.2862,-9.1438,-3.7538,0,0,0,0.20100000000093132
-0.0217,1.0081,-0.1021,0.1392,0.1671,0.0207,-1.0325,-8.0937,-3.7013,0,0,0,0.20900000000256114
-0.0242,1.0081,-0.1021,0.138,0.1675,0.0184,-1.0325,-8.0937,-3.7013,0,0,0,0.21700000000419095
-0.0213,1.0108,-0.0971,0.138,0.1675,0.0184,-0.245,-6.9125,-4.8738,0,0,0,0.2249999999985448
-0.0164,1.0055,-0.0942,0.138,0.1675,0.0184,0.28,-5.7575,-4.9963,0,0,0,0.23300000000017462
-0.007,1.0021,-0.095,0.1388,0.1678,0.0212,0.4725,-4.4887,-5.0312,0,0,0,0.24100000000180444
-0.0013,1.0035,-0.0953,0.1388,0.1678,0.0212,0.4725,-4.4887,-5.0312,0,0,0,0.24900000000343425
-0.0013,1.0035,-0.0953,0.1375,0.1678,0.0191,0.7525,-3.2638,-4.8825,0,0,0,0.25700000000506407
-0.002,1.007,-0.1001,0.1375,0.1678,0.0191,1.47,-1.6888,-4.795,0,0,0,0.26600000000325963
-0.008,1.0117,-0.1051,0.1375,0.1678,0.0191,2.4675,-0.9975,-5.2937,0,0,0,0.2739999999976135
-0.0098,1.013,-0.1047,0.1379,0.1677,0.0221,2.4675,-0.9975,-5.2937,0,0,0,0.2819999999992433
-0.0114,1.0124,-0.1093,0.1379,0.1677,0.0221,3.185,-0.5863,-6.1337,0,0,0,0.2889999999970314
-0.0114,1.0183,-0.1051,0.1382,0.167,0.022,3.22,0.2362,-5.7225,0,0,0,0.2969999999986612
-0.0032,1.0183,-0.1051,0.1382,0.167,0.022,3.22,0.2362,-5.7225,0,0,0,0.30500000000029104
0.0014,1.0212,-0.1009,0.1382,0.1682,0.018,3.0275,0.805,-5.635,0,0,0,0.3129999999946449
0.0034,1.0155,-0.1041,0.1382,0.1682,0.018,3.2812,1.5925,-5.18,0,0,0,0.3209999999962747
-0.0014,1.0132,-0.1032,0.1382,0.1682,0.018,2.5725,2.73,-5.6087,0,0,0,0.3289999999979045
-0.0011,1.0185,-0.1094,0.1362,0.1666,0.0142,2.5725,2.73,-5.6087,0,0,0,0.33699999999953434
-0.0011,1.0185,-0.1094,0.1362,0.1666,0.0142,2.5638,3.675,-5.1625,0,0,0,0.34500000000116415
-0.0058,1.0094,-0.1141,0.1387,0.1687,0.0156,3.325,4.4538,-4.8825,0,0,0,0.352999999995518
-0.0123,1.0052,-0.1183,0.1387,0.1687,0.0156,3.85,4.69,-5.2325,0,0,0,0.3609999999971478
-0.0123,1.0072,-0.1215,0.1387,0.1687,0.0156,3.85,4.69,-5.2325,0,0,0,0.36899999999877764
-0.015,1.0064,-0.1248,0.1388,0.1684,0.0156,4.795,4.41,-5.285,0,0,0,0.37700000000040745
-0.015,1.0085,-0.119,0.1388,0.1684,0.0156,5.3025,4.13,-5.11,0,0,0,0.38500000000203727
-0.017,1.0085,-0.119,0.1389,0.1679,0.0118,5.7838,4.4538,-5.81,0,0,0,0.3929999999963911
-0.0148,1.0083,-0.1177,0.1389,0.1679,0.0118,5.7838,4.4538,-5.81,0,0,0,0.39999999999417923
-0.0185,1.0053,-0.1216,0.1389,0.1679,0.0118,6.7025,4.305,-5.9062,0,0,0,0.40799999999580905
-0.0176,1.0063,-0.1232,0.1385,0.1675,0.0116,6.8162,4.095,-5.915,0,0,0,0.41599999999743886
-0.0162,1.0086,-0.1228,0.1385,0.1675,0.0116,6.8863,3.9725,-6.1687,0,0,0,0.4239999999990687
-0.0162,1.0086,-0.1228,0.1375,0.1684,0.0166,6.8863,3.9725,-6.1687,0,0,0,0.4320000000006985
-0.016,1.0128,-0.1315,0.1375,0.1684,0.0166,6.1863,3.9462,-6.65,0,0,0,0.43999999999505235
-0.0172,1.016,-0.1235,0.1375,0.1684,0.0166,6.4575,3.815,-7.21,0,0,0,0.44799999999668216
-0.0164,1.0152,-0.1263,0.1374,0.1689,0.0114,6.4575,3.815,-7.175,0,0,0,0.455999999998312
-0.0205,1.0184,-0.1254,0.1374,0.1689,0.0114,6.16,4.06,-7.175,0,0,0,0.4639999999999418
-0.0205,1.0028,-0.1238,0.138,0.1706,0.0099,5.5475,4.0687,-7.0963,0,0,0,0.4720000000015716
-0.0257,1.0132,-0.1238,0.138,0.1706,0.0099,5.1537,4.4012,-7.3238,0,0,0,0.47999999999592546
-0.0296,1.0056,-0.1259,0.1378,0.1699,0.0062,5.1537,4.4012,-7.3238,0,0,0,0.4879999999975553
-0.0367,1.0051,-0.1276,0.1378,0.1699,0.0062,4.8387,4.165,-6.755,0,0,0,0.4959999999991851
-0.0295,1.0122,-0.1246,0.1378,0.1699,0.0062,5.1887,3.6488,-6.6588,0,0,0,0.5040000000008149
-0.0314,1.0101,-0.1297,0.1382,0.1702,0.0038,5.2413,3.2113,-6.3787,0,0,0,0.5120000000024447
-0.0314,1.0101,-0.1297,0.1382,0.1702,0.0038,5.2413,3.2113,-6.3787,0,0,0,0.5199999999967986
-0.0373,1.009,-0.138,0.1371,0.1692,0.0016,5.075,2.5988,-5.6525,0,0,0,0.5279999999984284
-0.0418,1.011,-0.1372,0.1371,0.1692,0.0016,5.3725,1.7675,-5.5912,0,0,0,0.5360000000000582
-0.0369,1.0196,-0.139,0.1371,0.1692,0.0016,5.3463,0.875,-5.32,0,0,0,0.544000000001688
-0.034,1.0224,-0.1333,0.1374,0.1701,-0.003,5.3463,0.875,-5.32,0,0,0,0.5520000000033178
-0.034,1.0224,-0.1337,0.1374,0.1701,-0.003,4.6375,0.21,-5.3463,0,0,0,0.5599999999976717
-0.0288,1.0194,-0.1337,0.1372,0.1698,0.0032,3.815,-0.2275,-5.1887,0,0,0,0.5679999999993015
-0.0304,1.0129,-0.1345,0.1372,0.1698,0.0032,3.2287,-0.3237,-4.935,0,0,0,0.5760000000009313
-0.0312,1.0077,-0.1362,0.1372,0.1698,0.0032,3.2287,-0.3237,-4.935,0,0,0,0.5840000000025611
-0.0265,1.0056,-0.1343,0.137,0.1706,0.0086,3.0187,-0.4462,-4.7425,0,0,0,0.592000000004191
-0.0265,1.0073,-0.138,0.137,0.1706,0.0086,3.4388,-0.91,-4.2088,0,0,0,0.6000000000058208
-0.0265,1.0073,-0.138,0.1375,0.1702,-0.0015,3.5087,-1.1463,-3.9987,0,0,0,0.6079999999928987
-0.023,1.0117,-0.1366,0.1375,0.1702,-0.0015,3.5087,-1.1463,-3.9987,0,0,0,0.6159999999945285
-0.019,1.0119,-0.134,0.1375,0.1702,-0.0015,3.0187,-1.1638,-3.745,0,0,0,0.6239999999961583
-0.0142,1.0125,-0.1358,0.1371,0.1694,0.0061,2.9225,-1.0938,-3.57,0,0,0,0.6319999999977881
-0.0185,1.0152,-0.1305,0.1371,0.1694,0.0061,2.9225,-1.0938,-3.57,0,0,0,0.6399999999994179
-0.0185,1.0152,-0.1355,0.1355,0.1693,0.0028,2.1613,-0.525,-3.8325,0,0,0,0.6480000000010477
-0.0183,1.016,-0.1355,0.1355,0.1693,0.0028,1.8813,-0.805,-3.955,0,0,0,0.6559999999954016
-0.0216,1.0217,-0.1349,0.1357,0.1702,-0.0029,1.4438,-0.8575,-3.9462,0,0,0,0.6639999999970314
-0.0242,1.024,-0.1297,0.1357,0.1702,-0.0029,1.4438,-0.8575,-3.9462,0,0,0,0.6719999999986612
-0.0277,1.0263,-0.1304,0.1357,0.1702,-0.0029,0.8662,-0.9275,-4.3137,0,0,0,0.680000000000291
-0.0329,1.026,-0.129,0.1373,0.1702,0.0026,-0.2713,-1.2163,-5.1712,0,0,0,0.6880000000019209
-0.0329,1.026,-0.129,0.1373,0.1702,0.0026,-1.19,-1.82,-6.0375,0,0,0,0.6959999999962747
-0.0389,1.0286,-0.1252,0.1366,0.171,0.0006,-1.19,-1.82,-6.0375,0,0,0,0.7039999999979045
-0.0471,1.0249,-0.1242,0.1366,0.171,0.0006,-1.7237,-2.135,-6.9825,0,0,0,0.7139999999999418
-0.057,1.0243,-0.1268,0.1366,0.171,0.0006,-2.4237,-2.9925,-7.84,0,0,0,0.7220000000015716
-0.0631,1.0236,-0.1248,0.1374,0.1707,0.0026,-2.625,-4.1125,-9.0037,0,0,0,0.7300000000032014
-0.0631,1.0236,-0.1266,0.1374,0.1707,0.0026,-2.625,-4.1125,-9.0037,0,0,0,0.7380000000048312
-0.0691,1.0224,-0.1266,0.1374,0.1694,0.0011,-3.0187,-5.3637,-9.695,0,0,0,0.7459999999991851
-0.0726,1.0219,-0.1268,0.1374,0.1694,0.0011,-3.1325,-5.8713,-10.1938,0,0,0,0.7540000000008149
-0.0687,1.0205,-0.1273,0.1374,0.1694,0.0011,-3.3163,-6.6238,-10.43,0,0,0,0.7619999999951688
-0.0673,1.0158,-0.1265,0.1382,0.1727,-0.0049,-3.3163,-6.6238,-10.43,0,0,0,0.7699999999967986
-0.0644,1.0128,-0.1246,0.1382,0.1727,-0.0049,-3.395,-6.9388,-10.22,0,0,0,0.7779999999984284
-0.0644,1.0128,-0.1246,0.1401,0.1716,0.0048,-3.2462,-6.9475,-9.2662,0,0,0,0.7860000000000582
-0.064,1.0054,-0.1295,0.1401,0.1716,0.0048,-3.2462,-6.9475,-8.6713,0,0,0,0.7939999999944121
-0.0631,1.0081,-0.1311,0.1401,0.1716,0.0048,-2.87,-7.3763,-8.6713,-6.040735930277573,-2.542689822681631,0.0,0.8019999999960419
-0.0583,1.0116,-0.1304,0.1398,0.174,0.0009,-2.555,-7.0437,-7.9975,-7.089322540046156,-3.0153340491443954,-0.4226219999836001,0.8619999999937136
-0.0513,1.0125,-0.1316,0.1398,0.174,0.0009,-2.3012,-7.1137,-7.1575,-7.340249370445939,-2.945638804288844,-0.4510768000411561,0.8660000000018044
-0.0513,1.0125,-0.1297,0.1386,0.1738,0.0086,-2.3012,-7.1137,-7.1575,-7.308121121660492,-2.9112368150416565,-0.4866453000225228,0.8709999999991851
-0.05,1.0147,-0.1297,0.1386,0.1738,0.0086,-2.0475,-6.685,-5.9325,-7.289338248401188,-2.8909354955107758,-0.5133853000279704,0.875
-0.043,1.019,-0.1275,0.1413,0.1711,0.005,-1.7587,-5.4862,-5.1537,-7.168525834831021,-2.644564581227804,-0.5463025000346766,0.8810000000012224
-0.0394,1.0182,-0.1277,0.1413,0.1711,0.005,-1.47,-4.5413,-4.4538,-7.153537092653324,-2.3640258003005763,-0.5644677000383773,0.8850000000020373
-0.0414,1.0194,-0.1313,0.1413,0.1711,0.005,-1.47,-4.5413,-4.4538,-7.293056719628761,-2.327881149864319,-0.5780916000246317,0.8879999999990105
-0.0435,1.0185,-0.1316,0.1391,0.1717,-0.004,-1.5313,-4.3488,-4.3225,-7.345362028042602,-2.3909754165434087,-0.5867892000264036,0.8899999999994179
-0.0435,1.0185,-0.1316,0.1391,0.1717,-0.004,-1.575,-3.6225,-4.6287,-7.358243721489541,-2.4117975232640116,-0.5940342000278795,0.8919999999998254
-0.0448,1.0162,-0.1324,0.1393,0.1712,0.0051,-1.0938,-2.87,-4.6375,-7.405348947605823,-2.466824060199819,-0.5997742000290489,0.8940000000002328
-0.0452,1.0165,-0.1264,0.1393,0.1712,0.0051,-1.0938,-2.87,-4.6375,-7.175434910112446,-2.502836302511218,-0.6055142000302183,0.8960000000006403
-0.0461,1.0106,-0.1267,0.1393,0.1712,0.0051,-0.9013,-2.6163,-5.6175,-7.154509308767486,-2.533725643775883,-0.6107468000312843,0.8980000000010477
-0.0434,1.0085,-0.1307,0.1386,0.1727,0.0014,-1.19,-2.1788,-5.9325,-7.3227343271065655,-2.517554754483282,-0.6238196000339477,0.9040000000022701
-0.0434,1.0085,-0.128,0.1386,0.1727,0.0014,-0.9013,-1.6625,-6.055,-7.2593158970945995,-2.5111260169738645,-0.6371196000245609,0.911999999996624
-0.0451,1.0033,-0.128,0.1391,0.1715,0.0078,-0.9013,-1.6625,-6.055,-7.267225873860382,-2.5148269204147264,-0.6504196000272705,0.9199999999982538
-0.0466,1.0008,-0.1292,0.1391,0.1715,0.0078,0.0437,-1.33,-6.23,-7.320489996587309,-2.5242196045855314,-0.6610596000294382,0.9279999999998836
-0.0493,1.0072,-0.1313,0.1391,0.1715,0.0078,0.2537,-0.98,-6.3963,-7.380632065450591,-2.5742653876731256,-0.667919600034401,0.9350000000049477
-0.0497,1.0099,-0.1291,0.1387,0.1717,0.0058,0.1488,-1.3388,-6.4488,-7.324860953959383,-2.6247712712827336,-0.6786300000268419,0.9429999999993015
-0.05,1.0116,-0.134,0.1387,0.1717,0.0058,0.1488,-1.3388,-6.4488,-7.453447041846245,-2.6661033893847845,-0.6893404000192829,0.9509999999936554
-0.05,1.0116,-0.134,0.1397,0.1725,0.0042,0.56,-1.0675,-7.3238,-7.499164936684317,-2.7411501117408994,-0.6978804000210227,0.9589999999952852
-0.0526,1.0161,-0.1337,0.1397,0.1725,0.0042,0.6562,-1.1988,-7.245,-7.4976789214777835,-2.844008385560486,-0.7074708000229765,0.966999999996915
-0.0529,1.0175,-0.1304,0.1397,0.1725,0.0042,0.6562,-1.1988,-7.3325,-7.4061995673284695,-2.9025033614206315,-0.7170612000249302,0.9749999999985448
-0.0573,1.0192,-0.1336,0.1391,0.1716,0.0071,-0.1575,-1.5488,-7.3325,-7.445075642755187,-3.058487577399596,-0.7310004000334045,0.9840000000040163
-0.0553,1.0196,-0.1303,0.1391,0.1716,0.0071,0.0,-1.6538,-7.0525,-7.346518919417485,-3.068451252001887,-0.7442308000240669,0.9919999999983702
-0.0553,1.0196,-0.1339,0.139,0.1726,0.0098,-0.7962,-2.135,-7.35,-7.4411568241609665,-3.0737264891732083,-0.7613108000275466,1.0
-0.057,1.0193,-0.1339,0.139,0.1726,0.0098,-0.7962,-2.135,-7.35,-7.4710221220102895,-3.128104628464172,-0.7783908000310262,1.0080000000016298
-0.0581,1.021,-0.133,0.139,0.1726,0.0022,-0.875,-2.45,-7.3587,-7.436208344445052,-3.183655570131438,-0.8102408000107758,1.0209999999933643
-0.0583,1.0177,-0.1313,0.1394,0.1726,0.0022,-0.91,-2.7125,-7.2187,-7.376020910795482,-3.218819335571968,-0.8183783000223016,1.0239999999976135
-0.058,1.0178,-0.1321,0.1394,0.1726,0.0022,-0.9538,-3.1325,-7.1575,-7.389619200451154,-3.2266524551957634,-0.8403058000381648,1.0310000000026776
-0.0552,1.0211,-0.1255,0.1426,0.1731,0.0049,-0.9538,-3.1325,-7.1575,-7.1163381424021415,-3.1487447853239967,-0.8653658000204782,1.0389999999970314
-0.0552,1.0211,-0.1255,0.1426,0.1731,0.0049,-0.8487,-2.8788,-6.7725,-7.039159569102413,-3.119076609565373,-0.8883962000251702,1.0469999999986612
-0.0514,1.0181,-0.127,0.141,0.173,0.0051,-0.9363,-2.9225,-6.58,-7.089975558516596,-3.0437744661322204,-0.9117762000299333,1.055000000000291
-0.0519,1.0187,-0.1263,0.141,0.173,0.0051,-0.84,-2.9838,-6.4225,-7.074181233216755,-3.011938024726999,-0.9356466000347964,1.0630000000019209
-0.0537,1.0182,-0.1252,0.141,0.173,0.0051,-0.84,-2.9838,-6.4225,-7.028985195146254,-3.0086394869943973,-0.9595170000396595,1.0710000000035507
-0.0512,1.0174,-0.1243,0.1422,0.1734,0.0097,-0.175,-2.5812,-6.16,-6.9888838436956515,-3.007397914725241,-0.9801666000250856,1.0789999999979045
-0.0512,1.0174,-0.1399,0.1422,0.1734,0.0097,0.3588,-2.5287,-5.7925,-7.444659660032255,-2.9669024346590263,-1.0003962000292068,1.0869999999995343
-0.0536,1.0189,-0.1283,0.1402,0.1731,0.0072,0.3325,-2.59,-6.2387,-7.298032242290135,-2.968573808342591,-1.021116200033428,1.0950000000011642
-0.0522,1.0193,-0.1244,0.1402,0.1731,0.0072,0.3325,-2.59,-6.2387,-7.111939102364682,-2.9638879178391444,-1.0444262000287545,1.1039999999993597
-0.0564,1.0144,-0.1265,0.1402,0.1731,0.0072,0.175,-3.1063,-6.0287,-7.109854998763619,-2.98512372228242,-1.0723829000231495,1.1129999999975553
-0.0567,1.0124,-0.1315,0.141,0.1741,0.0038,0.3325,-3.0975,-5.4862,-7.269123160021828,-3.0625387688124963,-1.0940654000388355,1.1200000000026193
-0.0593,1.0144,-0.1298,0.141,0.1741,0.0038,0.3325,-3.0975,-5.6438,-7.281539596445027,-3.1487762492464295,-1.1188454000213466,1.1279999999969732
-0.0593,1.0144,-0.1298,0.142,0.1739,0.0069,0.91,-2.9488,-5.6438,-7.285515712217791,-3.2059707583295283,-1.1394870000362796,1.1350000000020373
-0.0593,1.0169,-0.1329,0.142,0.1739,0.0069,1.1812,-3.2987,-5.6438,-7.328128750350951,-3.240775053395918,-1.1658766000176546,1.1429999999963911
-0.0584,1.0175,-0.1282,0.142,0.1739,0.0069,1.3825,-3.6837,-5.7575,-7.307784163276224,-3.2459860701358423,-1.1953462000236583,1.150999999998021
-0.0534,1.0179,-0.1322,0.1418,0.1722,0.0056,1.3825,-3.6837,-5.7575,-7.32053194329376,-3.1702501144274122,-1.224815800029662,1.1589999999996508
-0.0502,1.0154,-0.1316,0.1418,0.1722,0.0056,0.7525,-4.165,-5.775,-7.348822767296829,-3.070844323959218,-1.2581358000061458,1.1669999999940046
-0.0502,1.0154,-0.1316,0.1432,0.1742,0.0082,1.2075,-4.1125,-5.5563,-7.357814764095935,-2.9723457923672996,-1.2910358000128483,1.1749999999956344
-0.0491,1.015,-0.1315,0.1432,0.1742,0.0082,0.8838,-4.62,-5.4513,-7.367397396204568,-2.879356464264374,-1.327995800020378,1.1829999999972642
-0.0479,1.0167,-0.1329,0.1432,0.173,0.0066,0.8838,-4.62,-5.4513,-7.399150365495083,-2.7950541839816756,-1.3649558000279076,1.190999999998894
-0.0468,1.0157,-0.1341,0.1414,0.173,0.0066,0.77,-4.3488,-5.075,-7.452324627780051,-2.7019469709299186,-1.3997462000349954,1.1990000000005239
-0.0462,1.0163,-0.1304,0.1414,0.173,0.0066,0.77,-4.06,-5.145,-7.3909599278979545,-2.641617130047213,-1.432226200012072,1.2069999999948777
-0.0456,1.0134,-0.1321,0.1403,0.1738,0.0122,0.8487,-3.8937,-5.2238,-7.405654933210598,-2.5998427913951923,-1.463375800018418,1.2149999999965075
-0.0456,1.0134,-0.1321,0.1403,0.1738,0.0122,0.8487,-3.8937,-5.2238,-7.4143273566918415,-2.5781732767470835,-1.494525400024764,1.2229999999981374
-0.0483,1.0143,-0.1358,0.1409,0.1739,0.0082,0.7262,-3.8588,-5.5213,-7.509376183335273,-2.6261374157740556,-1.5253958000310532,1.2309999999997672
-0.0437,1.0119,-0.1324,0.1409,0.1739,0.0082,0.8662,-3.9725,-5.4425,-7.487184554391995,-2.553876371221559,-1.5571758000375278,1.239000000001397
-0.0453,1.0103,-0.1349,0.1409,0.1739,0.0082,1.19,-3.9987,-5.88,-7.518041112505098,-2.5519299697214612,-1.589165400044045,1.2470000000030268
-0.044,1.0113,-0.1365,0.1414,0.1746,0.0059,1.19,-3.9987,-5.88,-7.562144345196956,-2.534199011837441,-1.6211550000214676,1.2549999999973807
-0.044,1.0113,-0.1365,0.1414,0.1746,0.0059,1.4175,-3.3863,-5.9062,-7.576084705922934,-2.5213352089836594,-1.6482454000269866,1.2629999999990105
-0.0454,1.0151,-0.1353,0.1416,0.174,0.0054,1.4963,-3.2812,-6.1775,-7.5767994734564805,-2.5217663571946747,-1.6744950000323344,1.2710000000006403
-0.0436,1.0161,-0.1372,0.1416,0.174,0.0054,1.3563,-3.2725,-6.3175,-7.594607859238971,-2.5094106551003694,-1.700675000037668,1.27900000000227
-0.0434,1.0171,-0.1362,0.1416,0.174,0.0054,1.3563,-3.2725,-6.3175,-7.599725154265655,-2.496937688216229,-1.7268550000430016,1.2870000000039
-0.0378,1.0166,-0.1337,0.1419,0.1733,0.0072,1.715,-2.7825,-6.1512,-7.5839801703823255,-2.496786180569094,-1.7491150000272913,1.2949999999982538
-0.0406,1.0177,-0.1369,0.1419,0.1733,0.0072,1.5488,-2.5988,-5.9763,-7.5844148739950255,-2.462091460128607,-1.7699054000315269,1.3029999999998836
-0.0406,1.0177,-0.1369,0.1422,0.1739,0.0067,1.5488,-2.5988,-6.0113,-7.5848471361908425,-2.4377403725498987,-1.7906958000357625,1.3110000000015134
-0.0414,1.0196,-0.1362,0.1422,0.1739,0.0067,1.4262,-1.9075,-6.0113,-7.587337370292604,-2.4213745683601253,-1.8059558000388714,1.3190000000031432
-0.0422,1.0192,-0.136,0.1422,0.1739,0.0067,1.0325,-1.6275,-5.8975,-7.59179860845669,-2.4069480591697543,-1.818975800041524,1.327000000004773
-0.0448,1.0175,-0.1408,0.1445,0.1741,0.0066,0.5163,-1.5925,-5.6087,-7.737030281199428,-2.4387431948261913,-1.8317158000325324,1.3349999999991269
-0.0475,1.0178,-0.1398,0.1445,0.1741,0.0066,0.5163,-1.5925,-5.6087,-7.779534425758828,-2.512090619998144,-1.8444558000351279,1.3430000000007567
-0.0475,1.0178,-0.1554,0.142,0.1731,0.0078,1.0675,-0.5775,-5.4775,-8.07010897572131,-2.5641776014174846,-1.8490758000318672,1.3509999999951106
-0.0457,1.0174,-0.1416,0.142,0.1731,0.0078,0.9975,-1.4787,-5.6175,-8.018327852617439,-2.5583316193802395,-1.8609054000342773,1.3589999999967404
-0.0456,1.0157,-0.1407,0.142,0.1749,0.0048,0.875,-1.6625,-5.5475,-7.965612671962696,-2.5537983592834648,-1.8742054000369868,1.3669999999983702
-0.0474,1.0193,-0.1408,0.1426,0.1749,0.0048,0.875,-1.6625,-5.5475,-7.925203986900146,-2.585309025947579,-1.8875054000396962,1.375
-0.0448,1.021,-0.1392,0.1426,0.1749,0.0048,0.7262,-1.2687,-5.5912,-7.852570895976594,-2.5508802721716606,-1.897655000032533,1.3829999999943539
-0.045,1.018,-0.139,0.1419,0.172,0.0004,0.4725,-1.085,-5.8187,-7.81257177372428,-2.540129292994624,-1.9063350000343013,1.3909999999959837
-0.045,1.018,-0.139,0.1419,0.172,0.0004,0.35,-1.2075,-5.95,-7.7922468385108,-2.5347110133487063,-1.9159950000362693,1.3989999999976135
-0.0461,1.0186,-0.142,0.1433,0.1742,0.0099,0.35,-1.2075,-5.95,-7.870609256683275,-2.540052601873697,-1.9256550000382373,1.4069999999992433
-0.045,1.0192,-0.1389,0.1433,0.1742,0.0099,0.28,-0.7962,-5.5825,-7.809237004410604,-2.5273290602792104,-1.932024600039535,1.4150000000008731
-0.045,1.0178,-0.1373,0.1433,0.1742,0.0099,0.4025,-0.525,-5.4163,-7.741839789538353,-2.5195093700146374,-1.9356996000383737,1.4219999999986612
-0.0436,1.0167,-0.1373,0.1416,0.1745,0.0102,0.5512,-0.2187,-5.2587,-7.716505664834169,-2.4789360402869005,-1.9374492000387302,1.430000000000291
-0.0436,1.0167,-0.1373,0.1416,0.1745,0.0102,0.5512,-0.2187,-5.2587,-7.703787424282093,-2.4575014796816586,-1.9391988000390867,1.4380000000019209
-0.0489,1.0168,-0.1418,0.1414,0.1724,0.0065,-0.0962,-0.6037,-5.4862,-7.849945400207431,-2.565177490487436,-1.9440284000400707,1.4460000000035507
-0.0491,1.0177,-0.14,0.1414,0.1724,0.0065,0.0437,-0.4112,-4.9963,-7.839621927298804,-2.6569688797550732,-1.9473180000407408,1.4540000000051805
-0.0464,1.0167,-0.1401,0.1414,0.1724,0.0065,0.0437,-0.735,-4.97,-7.84337378186658,-2.619947248075801,-1.953198000036591,1.4619999999995343
-0.0462,1.0152,-0.1391,0.1415,0.1746,0.0002,-0.4988,-0.735,-4.97,-7.815556293185917,-2.5991491385779777,-1.9590780000377888,1.4700000000011642
-0.0456,1.0142,-0.1372,0.1415,0.1746,0.0002,-0.7613,-0.5512,-4.7863,-7.737863099198167,-2.571452502286079,-1.9634876000346766,1.477999999995518
-0.0456,1.0142,-0.1372,0.141,0.1745,0.0067,-1.0063,-0.875,-4.8212,-7.713647186546468,-2.5598713453054893,-1.9704876000361027,1.4859999999971478
-0.0448,1.0139,-0.1358,0.141,0.1745,0.0067,-1.0063,-0.875,-4.8212,-7.65262881606194,-2.5300594839703754,-1.9774876000375288,1.4939999999987776
-0.0461,1.0135,-0.1382,0.141,0.1745,0.0067,-0.9538,-0.6475,-5.1188,-7.732804372647694,-2.5556915309599337,-1.982667600033873,1.5019999999931315
-0.0453,1.0134,-0.1368,0.142,0.1742,0.0022,-0.5163,-1.0063,-5.145,-7.70260959351848,-2.5460638068686587,-1.9907180000355131,1.5099999999947613
-0.0443,1.0167,-0.1372,0.142,0.1742,0.0022,-0.0875,-0.6388,-5.32,-7.6919614091800215,-2.5126864132482845,-1.9958284000365543,1.5179999999963911
-0.0443,1.0167,-0.1372,0.1418,0.1733,0.0072,-0.0875,-0.6388,-5.32,-7.68791367335694,-2.4944632634435115,-2.0009388000375954,1.525999999998021
-0.0436,1.0147,-0.1363,0.1418,0.1733,0.0072,-0.0613,-0.9187,-5.5213,-7.664856275218695,-2.4728341518922625,-2.008288400039093,1.5339999999996508
-0.0419,1.0127,-0.1332,0.1418,0.1733,0.003,-0.525,-0.6913,-5.6087,-7.549064797530177,-2.429270290568,-2.0138188000402195,1.5420000000012806
-0.0398,1.0134,-0.1402,0.1418,0.1732,0.003,-1.2862,-0.9975,-5.8713,-7.791106322040435,-2.3851770199952904,-2.0217988000345875,1.5499999999956344
-0.0425,1.0146,-0.1341,0.1418,0.1732,0.003,-1.2862,-0.9975,-5.8713,-7.597565783600196,-2.3835995303705735,-2.029778800036213,1.5579999999972642
-0.0448,1.0118,-0.1343,0.1442,0.1739,0.0098,-0.7613,-0.77,-5.3637,-7.5719866201376504,-2.440732101295575,-2.0367088000348237,1.5669999999954598
-0.0448,1.0118,-0.1343,0.1442,0.1739,0.0098,-0.98,-1.0237,-5.5125,-7.564037286875267,-2.4690054331430975,-2.043874700040008,1.5740000000005239
-0.0495,1.0133,-0.1396,0.1417,0.1697,0.0102,-0.84,-0.9363,-5.95,-7.761338738719175,-2.519598462499052,-2.051365100041534,1.5820000000021537
-0.0503,1.0161,-0.137,0.1417,0.1697,0.0102,-0.84,-0.9363,-5.95,-7.703224716508406,-2.568089189862849,-2.0588555000362474,1.5899999999965075
-0.0454,1.0198,-0.1373,0.1417,0.1697,0.0102,-0.1838,-1.4525,-6.0813,-7.6808320566936485,-2.565343153848759,-2.0704755000386146,1.5979999999981374
-0.0451,1.0208,-0.1352,0.1434,0.1748,0.0034,-0.4025,-1.96,-6.335,-7.590872828751052,-2.5564357562657785,-2.086155500041809,1.6059999999997672
-0.0451,1.0208,-0.1352,0.1434,0.1748,0.0034,-0.5163,-2.03,-6.6062,-7.559749317621259,-2.541257377858619,-2.1023955000451178,1.614000000001397
-0.0457,1.018,-0.1366,0.144,0.1742,-0.0007,-0.5163,-2.03,-6.6062,-7.615495747372841,-2.543236715429759,-2.1186355000484265,1.6220000000030268
-0.0424,1.0164,-0.1355,0.144,0.1742,-0.0007,-0.4725,-1.7675,-6.93,-7.600817678237513,-2.466462828415089,-2.132775500051307,1.6300000000046566
-0.0418,1.0135,-0.1347,0.144,0.1742,-0.0007,-0.6913,-1.6712,-6.8863,-7.579923422475613,-2.413393021795526,-2.1461451000418714,1.6379999999990105
-0.0442,1.0135,-0.1345,0.1422,0.174,0.0015,-0.6913,-1.6712,-6.5712,-7.5657880285711645,-2.4317452906109547,-2.1595147000445953,1.6460000000006403
-0.0442,1.0127,-0.1324,0.1422,0.174,0.0015,-0.665,-1.7237,-6.5712,-7.485114631532806,-2.445436765309008,-2.1733043000474046,1.65400000000227
-0.0449,1.0127,-0.1324,0.143,0.1739,0.0058,-1.05,-1.3563,-6.2913,-7.4587480537712745,-2.4542411305907885,-2.184154700049615,1.6620000000039
-0.0482,1.0112,-0.1331,0.143,0.1739,0.0058,-0.9275,-1.365,-6.2125,-7.487043339470663,-2.4686774746476465,-2.1950747000518396,1.6700000000055297
-0.0468,1.0124,-0.1383,0.143,0.1739,0.0058,-0.9275,-1.365,-6.2125,-7.694738372861149,-2.4775024268604713,-2.2059947000441325,1.6779999999998836
-0.0492,1.0134,-0.1349,0.1431,0.175,0.0018,0.0088,-1.33,-6.1775,-7.626739522682079,-2.4845158024138514,-2.216634700036623,1.6859999999942374
-0.0462,1.0135,-0.1347,0.1431,0.175,0.0018,0.0088,-1.0412,-6.5012,-7.592734763078788,-2.511136047265785,-2.22496430003832,1.6939999999958673
-0.0462,1.0135,-0.1347,0.1438,0.1748,0.0088,-0.315,-1.1025,-6.5712,-7.578326533463734,-2.533642472416468,-2.2337843000401167,1.701999999997497
-0.0456,1.0185,-0.1326,0.1438,0.1748,0.0088,-0.315,-1.1025,-6.5712,-7.4738989778626035,-2.5361405256461147,-2.2426043000419136,1.7099999999991269
-0.0472,1.0175,-0.1322,0.1438,0.1748,0.0088,-0.9887,-1.435,-7.0613,-7.4229014009200185,-2.5826798123068326,-2.2540843000338113,1.7179999999934807
-0.0448,1.0172,-0.1317,0.144,0.177,0.0073,-0.98,-1.4175,-6.8425,-7.390186515082193,-2.5492929231444115,-2.2654243000361216,1.7259999999951106
-0.0487,1.0182,-0.1364,0.144,0.177,0.0073,-1.1113,-1.1725,-7.0,-7.5643960460433615,-2.6249535575111835,-2.2748043000380327,1.7339999999967404
-0.0487,1.017,-0.1322,0.1442,0.1739,0.0042,-1.1113,-1.1725,-7.0,-7.449603427494785,-2.6679959518974723,-2.2841843000399438,1.7419999999983702
-0.0508,1.017,-0.1322,0.1442,0.1739,0.0042,-1.1463,-1.26,-7.5338,-7.4180794492323905,-2.7653457566046304,-2.2942643000419976,1.75
-0.0524,1.0155,-0.1335,0.1416,0.1738,0.002,-1.33,-1.155,-7.5075,-7.470904155660711,-2.8593613800875093,-2.30350430004388,1.7580000000016298
-0.0535,1.0139,-0.136,0.1416,0.1738,0.002,-1.1725,-1.54,-7.5075,-7.594342927438724,-2.9366989178130924,-2.3158243000351852,1.7659999999959837
-0.0521,1.0172,-0.1315,0.1416,0.1738,0.002,-1.1725,-1.54,-7.5075,-7.427557168030538,-2.9201332335183947,-2.328144300037695,1.7739999999976135
-0.0528,1.0146,-0.1299,0.1447,0.1748,0.0046,-0.8925,-1.2425,-7.1312,-7.3342419978921125,-2.937347758603059,-2.33808430003972,1.7819999999992433
-0.0528,1.0146,-0.1299,0.1447,0.1748,0.0046,-0.6388,-1.5838,-7.21,-7.307970273268883,-2.946383517196317,-2.3507547000423012,1.7900000000008731
-0.0528,1.0153,-0.1308,0.145,0.1761,0.0034,-0.6388,-1.2337,-7.1575,-7.330564333151642,-2.9494957657794347,-2.360624300044312,1.798000000002503
-0.0489,1.0157,-0.1282,0.145,0.1761,0.0034,-0.805,-1.2337,-7.1575,-7.234605345076519,-2.841763521183877,-2.3704939000373466,1.8059999999968568
-0.0484,1.0174,-0.128,0.145,0.1761,0.0034,-1.0412,-1.2425,-6.755,-7.188570510954063,-2.7893036649517207,-2.3804339000393715,1.8139999999984866
-0.0512,1.0134,-0.1294,0.1451,0.1762,0.0166,-1.1463,-1.225,-7.0087,-7.252785466708309,-2.826104137263833,-2.390233900041368,1.8220000000001164
-0.0512,1.0094,-0.1324,0.1451,0.1762,0.0166,-1.1463,-1.225,-7.0087,-7.413062314726593,-2.850571134796984,-2.4000339000433644,1.8300000000017462
-0.0561,1.0094,-0.1324,0.1461,0.1754,0.0073,-0.9887,-0.7788,-7.0087,-7.455783452869236,-2.990670016364899,-2.4062643000446338,1.838000000003376
-0.0576,1.0084,-0.1301,0.1461,0.1754,0.0073,-0.63,-0.9363,-6.7987,-7.384349201707767,-3.0895597067264307,-2.4137547000461597,1.8460000000050059
-0.0545,1.0121,-0.128,0.1461,0.1754,0.0073,-0.4462,-0.8487,-6.9475,-7.266935438321141,-3.075572760682648,-2.420544300041368,1.8539999999993597
-0.0535,1.017,-0.127,0.1446,0.1766,0.0046,-0.4462,-0.8487,-6.9475,-7.167876771365207,-3.0368256655368775,-2.427333900042751,1.8620000000009895
-0.0556,1.0214,-0.1302,0.1446,0.1766,0.0046,-0.7,-1.1113,-6.5275,-7.2346622478250255,-3.051589313320656,-2.435113000040293,1.8689999999987776
-0.0556,1.0214,-0.1302,0.1447,0.1762,0.0066,-0.4725,-0.9275,-6.8688,-7.2545624576650445,-3.0679927607884303,-2.4425330000418044,1.8770000000004075
-0.0524,1.0216,-0.128,0.1447,0.1762,0.0066,-0.3588,-0.9538,-7.245,-7.180514707900942,-2.9873033741911854,-2.450163400036419,1.8849999999947613
-0.0506,1.0182,-0.1324,0.1447,0.1762,0.0066,-0.3588,-0.9538,-7.245,-7.330129663227583,-2.9005934542004694,-2.4577938000379733,1.8929999999963911
-0.0541,1.0181,-0.1294,0.1458,0.1762,0.0002,-0.5163,-0.7,-7.2888,-7.271766524944448,-2.962801486390074,-2.463393800039114,1.900999999998021
-0.0536,1.0163,-0.1293,0.1458,0.1762,0.0002,-0.945,-0.805,-6.8425,-7.256648141811345,-2.9759188777896757,-2.469833800040426,1.9089999999996508
-0.0536,1.0007,-0.1327,0.1454,0.1757,0.0046,-0.5775,-0.7875,-7.0788,-7.458552019317596,-3.0064697837676144,-2.4761338000417092,1.9170000000012806
-0.057,1.014,-0.1327,0.1454,0.1757,0.0046,-0.5775,-0.7875,-7.0788,-7.456684909252459,-3.094882788687813,-2.4824338000429926,1.9250000000029104
-0.0624,1.0142,-0.1341,0.147,0.1762,0.0132,-0.1925,-0.3413,-7.2888,-7.504530371822178,-3.3053679600438146,-2.4851642000410656,1.9329999999972642
-0.0601,1.0175,-0.1291,0.147,0.1762,0.0132,-0.5425,-0.8838,-6.5712,-7.3196651016832215,-3.3195951886629556,-2.492234600042506,1.940999999998894
-0.0594,1.0177,-0.1294,0.147,0.1762,0.0132,-0.1312,-0.7175,-6.3175,-7.273697847547639,-3.3187660343490304,-2.4979746000436758,1.9490000000005239
-0.0596,1.0182,-0.1336,0.1478,0.1761,0.0079,-0.1312,-0.7175,-6.3175,-7.399845511809843,-3.3191636992281137,-2.5037146000448454,1.9570000000021537
-0.0596,1.0182,-0.1336,0.1478,0.1761,0.0079,-0.245,-1.5225,-6.4837,-7.448164789649608,-3.319761272887053,-2.515894600047327,1.9650000000037835
-0.0599,1.0204,-0.1302,0.1471,0.1766,0.0078,-0.4988,-1.82,-6.965,-7.329561587331635,-3.3255158620182668,-2.530454600037051,1.9729999999981374
-0.0581,1.0187,-0.1279,0.1471,0.1766,0.0078,-0.4988,-1.82,-6.9125,-7.213166589642873,-3.2880743720899153,-2.5450146000400173,1.9809999999997672
-0.0608,1.0186,-0.133,0.1471,0.1766,0.0078,-0.1925,-1.54,-6.9125,-7.35651336003047,-3.330922532135624,-2.557334600042527,1.989000000001397
-0.0608,1.0193,-0.1272,0.1477,0.1758,0.011,-0.56,-1.5488,-7.2013,-7.1916457300384975,-3.359829076765794,-2.5697250000450516,1.9970000000030268
-0.0608,1.0193,-0.129,0.1477,0.1758,0.011,-0.4375,-1.4963,-7.2713,-7.205743615680999,-3.3739855338955698,-2.58169540004749,2.0050000000046566
-0.0614,1.0178,-0.129,0.1464,0.1773,0.0065,-0.4375,-1.4963,-7.2713,-7.217462576129885,-3.400890502842217,-2.5936658000499286,2.0130000000062864
-0.0604,1.0152,-0.1334,0.1464,0.1773,0.0065,-0.7525,-1.75,-7.0087,-7.4044688144504365,-3.3893495400647855,-2.607665800027315,2.0209999999933643
-0.062,1.0165,-0.1279,0.1464,0.1773,0.0065,-0.595,-1.9863,-6.9825,-7.245731916835484,-3.4228253596432157,-2.6235562000305523,2.028999999994994
-0.0608,1.0157,-0.1286,0.147,0.1764,0.0111,-1.0412,-2.4325,-6.5363,-7.224257956752741,-3.4160895820308737,-2.6430162000345168,2.036999999996624
-0.0603,1.0146,-0.1319,0.147,0.1764,0.0111,-1.0412,-2.4325,-6.5363,-7.356033437105925,-3.404091067440732,-2.6649087000478264,2.0460000000020955
-0.0603,1.0146,-0.1319,0.1471,0.1781,0.0046,-1.2775,-2.38,-6.4225,-7.3936773680162675,-3.3974428708924953,-2.681568700042562,2.0529999999998836
-0.0617,1.0172,-0.1319,0.1471,0.1781,0.0046,-0.6037,-2.205,-6.895,-7.390008820575528,-3.4166005832385657,-2.699208700030112,2.0609999999942374
-0.0582,1.0175,-0.1312,0.1471,0.1781,0.0046,-0.245,-1.7938,-6.6325,-7.3626670300965715,-3.3614834746841167,-2.7135591000330357,2.0689999999958673
-0.0597,1.0177,-0.1306,0.1475,0.1768,-0.0029,-0.245,-1.7938,-6.6325,-7.330633090980619,-3.3512513140524773,-2.7279095000359592,2.076999999997497
-0.0569,1.0189,-0.1294,0.1475,0.1768,-0.0029,-0.6212,-1.715,-6.8162,-7.267137462357751,-3.279252475563124,-2.743344500045343,2.0860000000029686
-0.0569,1.0189,-0.1288,0.1475,0.177,0.0086,-1.0325,-2.065,-6.3787,-7.22208531853468,-3.259245748227734,-2.7577995000407753,2.0930000000007567
-0.059,1.0192,-0.1288,0.1475,0.177,0.0086,-0.6913,-1.9863,-6.4488,-7.208552029421289,-3.265601501057347,-2.7736899000295603,2.1009999999951106
-0.0598,1.0149,-0.1325,0.147,0.1782,0.0021,-0.6913,-1.9863,-6.4488,-7.367175675702743,-3.2835122218844934,-2.7895803000327977,2.1089999999967404
-0.0627,1.0146,-0.1299,0.147,0.1782,0.0021,-0.035,-1.5925,-6.8775,-7.323564277335979,-3.3778017498089694,-2.8023203000353933,2.11699999999837
-0.0598,1.0142,-0.1299,0.147,0.1782,0.0021,-0.2713,-1.54,-6.8775,-7.307583685610587,-3.3649008635973994,-2.814640300037903,2.125
-0.0609,1.0135,-0.1331,0.1486,0.1782,0.0086,-0.2713,-1.3475,-6.8863,-7.419816912837757,-3.383787656446449,-2.8254203000400993,2.13300000000163
-0.0609,1.0135,-0.1331,0.1486,0.1782,0.0086,-0.7962,-1.3475,-6.8863,-7.463148973416297,-3.3946752546685404,-2.8362003000422953,2.1410000000032596
-0.0637,1.0158,-0.1285,0.148,0.1772,0.0066,-0.595,-1.7062,-7.0437,-7.290459880797931,-3.472612707621703,-2.849849900032662,2.1489999999976135
-0.064,1.0108,-0.1293,0.148,0.1772,0.0066,-0.7088,-1.7062,-7.14,-7.289864990950659,-3.5328077455419975,-2.863499500035443,2.1569999999992433
-0.0651,1.0093,-0.1346,0.148,0.1772,0.0066,-0.7088,-1.7062,-7.14,-7.501951683641663,-3.595126719396153,-2.8771491000382237,2.165000000000873
-0.0676,1.0105,-0.1307,0.1486,0.1788,0.0039,-0.2887,-2.03,-7.5775,-7.4164854902496735,-3.713032944995509,-2.8933891000415324,2.173000000002503
-0.0676,1.0105,-0.1319,0.1486,0.1788,0.0039,0.4812,-1.8375,-7.525,-7.426917380837792,-3.7605496211886895,-2.9080891000445273,2.1810000000041327
-0.0644,1.015,-0.1319,0.1498,0.177,0.007,0.6825,-1.4088,-7.6213,-7.416380023909025,-3.6651626986910504,-2.919359500036573,2.1889999999984866
-0.061,1.0238,-0.1319,0.1498,0.177,0.007,0.6825,-1.4088,-7.6213,-7.381601521428842,-3.496581715555229,-2.9306299000388694,2.1970000000001164
-0.0566,1.0231,-0.1244,0.1498,0.177,0.007,0.5688,-1.995,-7.0,-7.160033769584403,-3.334468249113221,-2.9465899000421207,2.2050000000017462
-0.0586,1.0197,-0.1263,0.1482,0.1789,-0.0001,-0.1312,-2.1263,-6.7463,-7.09783855806474,-3.3082489513404263,-2.965726600038284,2.213999999999942
-0.0608,1.0202,-0.1317,0.1482,0.1789,-0.0001,-0.4288,-1.33,-6.7288,-7.268978191998885,-3.335448718387123,-2.9763666000404516,2.2220000000015716
-0.0608,1.0202,-0.1317,0.1494,0.1765,0.0059,-0.4288,-1.33,-6.7288,-7.326563117305265,-3.3526942461122076,-2.987006600042619,2.2300000000032014
-0.0668,1.0183,-0.1309,0.1494,0.1765,0.0059,-0.385,-1.3038,-6.125,-7.3255749230621605,-3.3622777409281466,-2.9961332000302487,2.2369999999937136
-0.0693,1.0135,-0.1364,0.1494,0.1765,0.0059,-0.7175,-1.26,-5.9412,-7.560895049486128,-3.4517089208490686,-3.0062132000323025,2.2449999999953434
-0.0702,1.019,-0.1301,0.1502,0.1782,0.0059,0.0525,-0.4812,-5.5388,-7.390283362428348,-3.625576815372282,-3.010062800033087,2.252999999996973
-0.0699,1.0186,-0.1309,0.1502,0.1782,0.0059,0.0525,-0.4812,-5.5388,-7.349971531098503,-3.7274778101214854,-3.0139124000338713,2.260999999998603
-0.0699,1.0186,-0.1305,0.1502,0.178,0.0121,-0.245,-1.1988,-5.8275,-7.318431443698928,-3.7682269147765797,-3.0235028000358253,2.269000000000233
-0.0659,1.0159,-0.1305,0.1502,0.178,0.0121,-0.0437,-1.3825,-5.8888,-7.3193853743775135,-3.750143551657604,-3.0345628000280196,2.2769999999945867
-0.0612,1.0178,-0.1282,0.1513,0.1794,0.0104,-0.1838,-0.945,-5.7137,-7.230513598887332,-3.6478123419360213,-3.04212280002956,2.2849999999962165
-0.0615,1.017,-0.135,0.1513,0.1794,0.0104,-0.1838,-0.945,-5.7137,-7.44007871972211,-3.5816492615475695,-3.0496828000311003,2.2929999999978463
-0.0655,1.0153,-0.1341,0.1513,0.1794,0.0104,-0.4112,-1.19,-5.3987,-7.4956136878059105,-3.6150917003971097,-3.05920280003304,2.300999999999476
-0.0671,1.0149,-0.1316,0.1509,0.1791,0.013,-0.91,-1.4,-5.6087,-7.419307627848029,-3.663013482184591,-3.0704028000353216,2.309000000001106
-0.0671,1.0149,-0.1316,0.1509,0.1791,0.013,-0.91,-1.4,-5.81,-7.397210118106821,-3.6854888544687627,-3.081602800027417,2.31699999999546
-0.0686,1.0194,-0.1347,0.1501,0.1794,0.0024,-0.1138,-1.7325,-5.81,-7.478312975766377,-3.718925075474893,-3.0954628000302407,2.3249999999970896
-0.0662,1.0228,-0.1321,0.1501,0.1794,0.0024,0.35,-1.995,-5.915,-7.413571887100925,-3.71010791067301,-3.1094278000403435,2.3320000000021537
-0.0631,1.0244,-0.1288,0.1501,0.1794,0.0024,0.1138,-1.5925,-5.8012,-7.268094274824046,-3.6548974552409415,-3.122167800042939,2.3400000000037835
-0.0619,1.021,-0.1315,0.1501,0.1777,0.0084,0.1138,-1.5925,-5.8012,-7.309827339078483,-3.599412339790685,-3.134907800045535,2.3480000000054133
-0.0619,1.021,-0.1315,0.1501,0.1777,0.0084,-0.2625,-1.785,-6.1163,-7.328617968659693,-3.5940141721048344,-3.1491878000354565,2.355999999999767
-0.0666,1.0187,-0.1305,0.1522,0.1785,0.0075,-0.3938,-1.575,-6.0375,-7.309799587760674,-3.6059222120106806,-3.161787800026564,2.363999999994121
-0.0653,1.013,-0.1295,0.1522,0.1785,0.0075,-0.5075,-1.7062,-6.1163,-7.293176146171869,-3.6077181481608864,-3.175437400029345,2.371999999995751
-0.0691,1.0136,-0.1309,0.1522,0.1785,0.0075,-0.5075,-1.7062,-6.1163,-7.337192345794878,-3.6165897330724284,-3.1890870000321256,2.3799999999973807
-0.0659,1.0136,-0.1292,0.1491,0.1797,0.013,-0.2537,-1.715,-5.9062,-7.290244882430927,-3.6310783594577947,-3.202807000034921,2.3879999999990105
-0.0703,1.0133,-0.1305,0.1491,0.1797,0.013,0.2625,-1.4525,-5.8275,-7.31737757490398,-3.7057765415478334,-3.214427000037288,2.3960000000006403
-0.0703,1.0133,-0.1305,0.1524,0.1786,0.0067,0.2625,-1.5662,-5.7925,-7.329274476523804,-3.7666738566299527,-3.226956600028445,2.403999999994994
-0.0697,1.0152,-0.1291,0.1524,0.1786,0.0067,0.2625,-1.5662,-5.7925,-7.283207944733894,-3.800917700968447,-3.239486200030998,2.411999999996624
-0.0698,1.0132,-0.1291,0.1524,0.1786,0.0067,0.0088,-1.6187,-5.6875,-7.2699988153100055,-3.835307374315385,-3.252435800033636,2.4199999999982538
-0.0713,1.0158,-0.1334,0.1508,0.1782,0.008,0.0437,-2.0387,-5.6175,-7.396915941297547,-3.886027115621558,-3.2687454000369587,2.4279999999998836
-0.0701,1.0177,-0.129,0.1508,0.1782,0.008,0.1138,-1.995,-5.5738,-7.295225798394161,-3.894503711862955,-3.28470540004021,2.4360000000015134
-0.0701,1.0177,-0.129,0.1507,0.1782,0.0077,0.1138,-1.995,-5.5738,-7.253366840571916,-3.899876150605805,-3.300665400028946,2.4439999999958673
-0.0657,1.016,-0.1348,0.1507,0.1782,0.0077,0.3675,-2.2838,-5.8713,-7.417819307893825,-3.8490783313227395,-3.3189358000326683,2.451999999997497
-0.0662,1.017,-0.1358,0.1507,0.1789,0.0087,-0.2013,-2.31,-5.915,-7.537250456509459,-3.8189579742772106,-3.337415800036433,2.459999999999127
-0.0651,1.0187,-0.1299,0.1514,0.1789,0.0087,-0.2013,-0.07,-5.6875,-7.365395355014496,-3.7581808582213787,-3.3379758000365474,2.4680000000007567
-0.0672,1.0181,-0.1363,0.1514,0.1789,0.0087,-0.1925,-1.8288,-5.6875,-7.530253739293496,-3.7533844346619185,-3.352606200039528,2.4760000000023865
-0.0637,1.0204,-0.1322,0.1502,0.1792,0.0105,0.21,-1.8988,-5.6,-7.445515152469676,-3.678453237948798,-3.367796600028807,2.4839999999967404
-0.0637,1.0204,-0.1322,0.1502,0.1792,0.0105,-0.175,-2.0738,-5.9062,-7.405337052824722,-3.6516862395924057,-3.384387000032187,2.49199999999837
-0.0626,1.0197,-0.133,0.151,0.1786,0.0069,-0.175,-2.0738,-5.9062,-7.421664719020816,-3.618562623448304,-3.400977400035567,2.5
-0.0612,1.0171,-0.1333,0.151,0.1786,0.0069,-0.2013,-1.7325,-5.985,-7.4502051546060875,-3.5893889166952198,-3.4148374000383908,2.50800000000163
-0.0657,1.0174,-0.1336,0.151,0.1786,0.0069,-0.2713,-1.3563,-6.3263,-7.470057039465468,-3.6004049547210513,-3.4256878000406012,2.5160000000032596
-0.0683,1.0154,-0.1321,0.1501,0.179,-0.0091,-1.05,-1.6888,-6.44,-7.42841027438421,-3.6486860388273707,-3.4391982000433536,2.5240000000048894
-0.0683,1.0154,-0.1321,0.1501,0.179,-0.0091,-1.05,-1.6888,-6.44,-7.416819680643321,-3.6861595111900005,-3.4527086000338185,2.5319999999992433
-0.0669,1.0165,-0.1319,0.1515,0.1772,0.0062,-0.9538,-1.9512,-6.5275,-7.400048334206656,-3.6992903888075275,-3.4683182000369985,2.540000000000873
-0.0629,1.016,-0.1321,0.1515,0.1772,0.0062,-0.9363,-1.7938,-6.7288,-7.40572982223519,-3.63116284382655,-3.482668600039922,2.548000000002503
-0.0659,1.017,-0.1316,0.1515,0.1772,0.0062,-1.3563,-1.435,-6.58,-7.381478561542522,-3.6448869385560716,-3.49414860003182,2.555999999996857
-0.0672,1.0154,-0.1311,0.1506,0.1769,0.0142,-1.3563,-1.435,-6.58,-7.363169874479462,-3.6779958500947654,-3.5056286000341585,2.5639999999984866
-0.0666,1.0121,-0.1319,0.1506,0.1769,0.0142,-1.2425,-1.1287,-6.65,-7.408752202298316,-3.6964148585456975,-3.5146582000359983,2.5720000000001164
-0.0666,1.0121,-0.1319,0.1512,0.1792,0.0065,-0.9712,-1.1812,-6.7987,-7.420459332756798,-3.710933848300221,-3.524107800029329,2.5799999999944703
-0.0689,1.0124,-0.1297,0.1512,0.1792,0.0065,-0.42,-1.33,-6.5012,-7.34096853272082,-3.7500298674424632,-3.5347478000314965,2.5879999999961
-0.0678,1.0138,-0.1287,0.1512,0.1792,0.0065,-0.42,-1.33,-6.5012,-7.270690202457308,-3.761861702255478,-3.545387800033664,2.59599999999773
-0.0696,1.0142,-0.131,0.1515,0.1782,0.0096,-0.8575,-1.4175,-6.3088,-7.333672398871526,-3.7797519962765977,-3.5567278000359743,2.6039999999993597
-0.0707,1.0197,-0.1275,0.1515,0.1782,0.0096,-0.8925,-1.0588,-5.985,-7.187219735747476,-3.80201560456231,-3.5651982000377,2.6120000000009895
-0.0707,1.0197,-0.1275,0.1521,0.1794,0.011,-0.525,-0.9625,-6.055,-7.14668870775366,-3.813787299221924,-3.5728982000322653,2.6199999999953434
-0.0719,1.02,-0.1265,0.1521,0.1794,0.011,-0.525,-0.9625,-6.055,-7.094793903510927,-3.8303276830690782,-3.580598200033834,2.627999999996973
-0.0741,1.0186,-0.1287,0.1521,0.1794,0.006,-0.6037,-1.2513,-6.09,-7.167357073870281,-3.8476016983262893,-3.5906086000358735,2.635999999998603
-0.0735,1.0176,-0.1309,0.1512,0.1789,0.006,-0.5863,-1.3913,-6.4488,-7.278059940306124,-3.904875749135377,-3.601739000038141,2.644000000000233
-0.0746,1.0166,-0.1282,0.1512,0.1789,0.006,-0.5863,-1.3913,-6.4488,-7.216395482485225,-3.964264154649393,-3.6128694000404082,2.6520000000018626
-0.078,1.0178,-0.1286,0.1518,0.1792,0.006,-0.4288,-1.5225,-5.8888,-7.206324052379029,-4.044103025417269,-3.625049400031812,2.6599999999962165
-0.078,1.0178,-0.1286,0.1518,0.1792,0.006,-0.4288,-1.7675,-5.6175,-7.2029352257404415,-4.149873825784166,-3.6391894000346925,2.6679999999978463
-0.0777,1.0186,-0.128,0.1518,0.1778,0.0035,-0.21,-1.82,-5.7838,-7.177121680373514,-4.197833568628524,-3.653749400037659,2.675999999999476
-0.0784,1.0194,-0.1322,0.1518,0.1778,0.0035,-0.21,-1.82,-5.7838,-7.312114170582082,-4.241833505520467,-3.6683094000406253,2.684000000001106
-0.0782,1.0211,-0.1299,0.1518,0.1778,0.0035,-0.105,-2.0387,-5.6087,-7.2734444275552566,-4.277964452167558,-3.684619000043948,2.6920000000027358
-0.0748,1.0211,-0.1321,0.1517,0.1786,0.0142,-0.0875,-2.1525,-5.6613,-7.334181738171693,-4.237568089646252,-3.7018390000317947,2.6999999999970896
-0.0748,1.0211,-0.1321,0.1517,0.1786,0.0142,-0.3063,-2.2487,-5.6962,-7.358357267353349,-4.211787512415703,-3.7198286000354597,2.7079999999987194
-0.0752,1.0217,-0.1326,0.1515,0.1794,0.0067,-0.3063,-2.2487,-5.6962,-7.381961503041006,-4.200168390921705,-3.7378182000391247,2.7160000000003492
-0.0737,1.02,-0.1309,0.1515,0.1794,0.0067,-0.6037,-2.485,-5.2238,-7.334905057212998,-4.151583241759816,-3.757698200043175,2.724000000001979
-0.0721,1.0185,-0.134,0.1515,0.1794,0.0067,-0.4462,-2.7912,-5.425,-7.441531471439962,-4.094001155899937,-3.780027800047724,2.732000000003609
-0.0708,1.0189,-0.1277,0.1533,0.181,-0.0035,-0.6913,-2.345,-5.11,-7.235782513504505,-4.017547862302557,-3.798787800051546,2.7400000000052387
-0.0693,1.0188,-0.1305,0.1533,0.181,-0.0035,-0.6913,-2.345,-5.11,-7.279714242605531,-3.937114618165248,-3.8175478000383056,2.7479999999995925
-0.0693,1.0188,-0.1305,0.1509,0.181,0.0072,-0.315,-2.2838,-4.9963,-7.29249637121627,-3.895721956226495,-3.835818200042028,2.7560000000012224
-0.0681,1.0157,-0.1309,0.1509,0.181,0.0072,-0.175,-2.1088,-4.6287,-7.324804669142267,-3.8406089013037623,-3.8505798000373637,2.7629999999990105
-0.0666,1.0179,-0.1327,0.1509,0.181,0.0072,-0.2275,-2.1437,-4.5325,-7.39047149754951,-3.761189016102122,-3.8677294000408575,2.7710000000006403
-0.0678,1.0155,-0.1292,0.1509,0.179,0.0048,-0.2275,-2.1437,-4.5325,-7.301128538061576,-3.7785279711202406,-3.8848790000443514,2.77900000000227
-0.0667,1.0175,-0.1355,0.1509,0.179,0.0048,-0.1925,-1.7237,-4.2613,-7.4815003806588924,-3.738815111418595,-3.898668600034619,2.786999999996624
-0.0667,1.0175,-0.1355,0.15,0.1795,0.0093,-0.0437,-1.6625,-4.3488,-7.545249021520977,-3.7253019528074804,-3.9119686000373286,2.7949999999982538
-0.0651,1.0182,-0.134,0.15,0.1795,0.0093,-0.0437,-1.6625,-4.5062,-7.515843802552294,-3.6642299444462987,-3.925268600040038,2.8029999999998836
-0.0648,1.0179,-0.1333,0.15,0.1795,0.0093,0.245,-1.0675,-4.5062,-7.484730865135698,-3.631622702597782,-3.934876100038112,2.811999999998079
-0.0664,1.0178,-0.1312,0.1505,0.178,0.0066,-0.2362,-0.6212,-5.18,-7.395424741563482,-3.666339138373869,-3.9398457000391245,2.819999999999709
-0.0654,1.0177,-0.1286,0.1505,0.178,0.0066,-0.4462,-0.6913,-4.9262,-7.2666492571783206,-3.6562335642940025,-3.945376100040251,2.8280000000013388
-0.0654,1.0152,-0.131,0.1522,0.1782,0.0094,-0.4462,-0.6913,-4.9262,-7.323939212452178,-3.6559508266034246,-3.950906500036348,2.8359999999956926
-0.0637,1.0152,-0.131,0.1522,0.1782,0.0094,-0.3675,-0.56,-5.0838,-7.342843406110774,-3.606888709896212,-3.954826500039184,2.8430000000007567
-0.0647,1.0127,-0.1326,0.1517,0.1795,0.0056,-0.2362,-0.9013,-5.2762,-7.4176588379993795,-3.61521344948463,-3.962036900040653,2.8510000000023865
-0.0656,1.0127,-0.1288,0.1517,0.1795,0.0056,-0.1138,-0.8487,-5.2937,-7.3120008568602985,-3.6436298403984257,-3.968826500042036,2.8590000000040163
-0.0647,1.0111,-0.1303,0.1517,0.1795,0.0056,-0.1138,-0.8487,-5.2937,-7.331463308788626,-3.6379827212024094,-3.9756161000372443,2.86699999999837
-0.07,1.0132,-0.1296,0.1517,0.1791,0.0079,-0.5512,-0.4988,-5.5213,-7.3028657292434005,-3.747143018047395,-3.979606500038057,2.875
-0.07,1.0132,-0.1296,0.1517,0.1791,0.0079,-0.8925,-0.4025,-5.81,-7.293185499359227,-3.791240155968429,-3.9832290000373307,2.8839999999981956
-0.0677,1.0156,-0.1309,0.1501,0.1787,0.009,-0.5688,-0.4638,-5.4862,-7.327891034767893,-3.7877494712497293,-3.9864756000363046,2.8909999999959837
-0.0682,1.0159,-0.1323,0.1501,0.1787,0.009,-0.5688,-0.4638,-5.4862,-7.39028911554749,-3.7960748612686417,-3.9901860000370606,2.8989999999976135
-0.07,1.0171,-0.1319,0.1501,0.1787,0.009,-0.175,-0.5775,-6.0287,-7.389485891740852,-3.8079383819509114,-3.9953835000402202,2.908000000003085
-0.0697,1.0162,-0.1296,0.152,0.1787,0.0106,-0.5075,-0.8138,-6.2387,-7.307770841714725,-3.8146963690046727,-4.001080100032499,2.914999999993597
-0.0697,1.0174,-0.1297,0.152,0.1787,0.0106,-0.665,-1.1113,-6.0025,-7.278320407301191,-3.824172048993077,-4.00997050003431,2.922999999995227
-0.0695,1.0174,-0.1297,0.1512,0.1776,0.0082,-0.665,-1.1113,-6.0025,-7.269140532278582,-3.8309752722963077,-4.018860900036121,2.930999999996857
-0.0705,1.0196,-0.1295,0.1512,0.1776,0.0082,-0.7962,-1.12,-6.1075,-7.247615565611963,-3.8349030962110313,-4.028940900042249,2.9400000000023283
-0.068,1.018,-0.1268,0.1512,0.1776,0.0082,-0.5775,-1.3825,-6.2825,-7.147355415507606,-3.8299747748544264,-4.038618400039192,2.9470000000001164
-0.0658,1.0172,-0.1301,0.1504,0.179,0.0003,-0.8838,-1.5225,-6.195,-7.247359883071683,-3.823375082644042,-4.050798400041673,2.9550000000017462
-0.0705,1.0176,-0.1294,0.1504,0.179,0.0003,-0.8838,-1.5225,-6.195,-7.2470686223053375,-3.8278772632549156,-4.062978400033077,2.9629999999961
-0.0705,1.0176,-0.1294,0.1496,0.1783,0.0032,-1.155,-1.1113,-6.1337,-7.246981062970151,-3.829700504664975,-4.071868800034888,2.97099999999773
-0.0686,1.0167,-0.1261,0.1496,0.1783,0.0032,-1.0237,-1.225,-5.8888,-7.119773541804074,-3.8299323560400653,-4.081668800036885,2.9789999999993597
-0.0717,1.0147,-0.1307,0.1496,0.1783,0.0032,-1.0237,-1.225,-5.8888,-7.27801157980535,-3.867169117839159,-4.091468800038882,2.9870000000009895
-0.0719,1.017,-0.1266,0.1518,0.1795,0.0124,-0.5425,-1.33,-5.7575,-7.154913473983533,-3.9084230962942255,-4.10210880004105,2.9950000000026193
-0.0709,1.0175,-0.1258,0.1518,0.1795,0.0124,-0.665,-1.1463,-5.8012,-7.081377105150555,-3.920751803415373,-4.111279200034578,3.002999999996973
-0.0709,1.0163,-0.1288,0.1515,0.18,0.001,-0.385,-1.295,-5.8713,-7.174522666851585,-3.9291442968559567,-4.121639200036689,3.010999999998603
-0.0664,1.0163,-0.1288,0.1515,0.18,0.001,-0.385,-1.295,-5.8713,-7.206333024271907,-3.880845284025968,-4.131999200038799,3.019000000000233
-0.0627,1.0181,-0.1241,0.1513,0.1783,0.0108,-0.2625,-0.7788,-5.8888,-7.041177380186215,-3.8012356672093044,-4.138229600040068,3.0270000000018626
-0.0622,1.0177,-0.124,0.1513,0.1783,0.0108,-0.6913,-0.4288,-5.67,-6.976026280108975,-3.694169258645423,-4.141660000040767,3.0350000000034925
-0.0702,1.0161,-0.1277,0.1513,0.1783,0.0108,-1.0938,-0.6212,-5.74,-7.111723560681377,-3.7604262177635195,-4.14662960003726,3.0429999999978463
-0.0745,1.0155,-0.1288,0.152,0.1801,0.0103,-1.0938,-0.6212,-5.74,-7.19636323685607,-3.8777029414883892,-4.151599200038272,3.050999999999476
-0.0745,1.0155,-0.1288,0.152,0.1801,0.0103,-0.9363,-0.6562,-5.5738,-7.21923589421509,-3.9820466086418436,-4.1568488000393415,3.059000000001106
-0.0747,1.0155,-0.1297,0.152,0.1799,0.0075,-0.56,-1.0325,-5.6,-7.2593548058398,-4.0500411109784205,-4.165108800041025,3.0670000000027358
-0.0777,1.0205,-0.1293,0.152,0.1799,0.0075,-0.2187,-1.3825,-5.635,-7.234917301121938,-4.141876763730604,-4.1761688000432775,3.0750000000043656
-0.0722,1.0212,-0.1247,0.152,0.1799,0.0075,-0.2187,-1.3825,-5.635,-7.060811370022304,-4.098463785498141,-4.187228800035472,3.0829999999987194
-0.073,1.0237,-0.1283,0.1529,0.179,0.011,-0.1138,-1.7325,-5.9938,-7.112449871072362,-4.091490614216944,-4.2010888000382955,3.0910000000003492
-0.073,1.0225,-0.124,0.1529,0.179,0.011,-0.3938,-1.7675,-6.4225,-6.981948555557357,-4.083504185445114,-4.215228800028316,3.098999999994703
-0.0711,1.0225,-0.124,0.1526,0.1798,0.0073,0.0088,-1.5662,-6.5363,-6.941158518461489,-4.046092815159078,-4.227758400030869,3.106999999996333
-0.0711,1.0184,-0.1289,0.1526,0.1798,0.0073,0.0088,-1.5662,-6.5363,-7.106119426923391,-4.022768068970309,-4.240288000033421,3.1149999999979627
-0.0745,1.0185,-0.1279,0.1526,0.1798,0.0073,-0.5863,-1.4963,-6.1425,-7.14111932072545,-4.023924156114127,-4.25225840003586,3.1229999999995925
-0.0735,1.0151,-0.126,0.1527,0.18,0.0153,-0.6562,-1.5225,-5.8888,-7.096139520308872,-4.041823985571411,-4.264438400027264,3.1309999999939464
-0.0766,1.0122,-0.1274,0.1527,0.18,0.0153,-0.6562,-1.5225,-5.8538,-7.149511544083795,-4.099679105680984,-4.276618400029745,3.138999999995576
-0.0766,1.0122,-0.1274,0.153,0.18,0.0125,-0.63,-1.8112,-5.8538,-7.166131051822447,-4.144258726706503,-4.291108000032697,3.146999999997206
-0.0764,1.0134,-0.1267,0.153,0.18,0.0125,-0.5688,-1.5488,-5.74,-7.1391727099506515,-4.183307159482763,-4.303498400035221,3.154999999998836
-0.0772,1.0122,-0.1268,0.153,0.18,0.0125,-0.28,-1.3737,-5.5563,-7.139928325734119,-4.237218626640589,-4.31448800003746,3.1630000000004657
-0.076,1.0136,-0.1294,0.1527,0.1799,0.0054,-0.28,-1.3737,-5.5563,-7.227311768564868,-4.243344308823466,-4.325477600039698,3.1710000000020955
-0.0703,1.0163,-0.1292,0.1527,0.1799,0.0054,-0.0962,-1.5137,-5.075,-7.238313199870839,-4.078557726889283,-4.337587200031152,3.1789999999964493
-0.0703,1.0196,-0.1318,0.1522,0.1797,0.0029,-0.2713,-1.7237,-5.25,-7.320356729708792,-3.9994828674732545,-4.351376800033961,3.186999999998079
-0.0709,1.0196,-0.1318,0.1522,0.1797,0.0029,-0.07,-1.9075,-5.3375,-7.348269919733676,-3.975059417980487,-4.364729300043621,3.194000000003143
-0.0702,1.0197,-0.1271,0.1522,0.1802,0.0058,-0.07,-1.9075,-5.3375,-7.198069975785548,-3.9450094454862596,-4.37998930004673,3.202000000004773
-0.0699,1.0183,-0.1284,0.1522,0.1802,0.0058,0.2362,-1.505,-5.4338,-7.191595185044552,-3.9245667382916176,-4.392029300038232,3.209999999999127
-0.0723,1.0175,-0.1288,0.1522,0.1802,0.0058,0.3237,-0.91,-5.8012,-7.20412631501485,-3.952530219286475,-4.399309300039715,3.2180000000007567
-0.0708,1.015,-0.1296,0.1534,0.1802,0.0025,-0.1663,-1.4875,-5.9938,-7.249739920189687,-3.9532890225150306,-4.411209300031317,3.2259999999951106
-0.0708,1.015,-0.1296,0.1534,0.1802,0.0025,-0.1663,-1.4875,-5.9938,-7.266574913086713,-3.9539444101607977,-4.423109300033741,3.2339999999967404
-0.0735,1.0144,-0.1304,0.1529,0.1802,0.0071,-0.3675,-1.4175,-6.0375,-7.305016832616299,-3.969978154846893,-4.434449300036051,3.24199999999837
-0.0734,1.0159,-0.1276,0.1529,0.1802,0.0071,-0.9013,-1.3913,-5.775,-7.201410894133933,-4.005658017810566,-4.445579700038318,3.25
-0.0749,1.016,-0.1301,0.1529,0.1802,0.0071,-0.56,-1.645,-6.1075,-7.26625134806708,-4.0131143439949035,-4.458739700029031,3.257999999994354
-0.0755,1.0178,-0.1268,0.1537,0.1803,0.009,-0.56,-1.645,-6.1075,-7.1545633993405096,-4.021428210412825,-4.471899700031712,3.2659999999959837
-0.0755,1.0022,-0.1259,0.1537,0.1803,0.009,-0.1138,-1.6625,-6.2387,-7.15807554427434,-4.041724239804953,-4.485199700034422,3.2739999999976135
-0.0723,1.0146,-0.1259,0.1508,0.1793,0.0065,0.0787,-1.4787,-6.2562,-7.107864705281982,-4.042040647512303,-4.497029300036832,3.2819999999992433
-0.0732,1.0183,-0.1283,0.1508,0.1793,0.0065,-2.1613,-1.3212,-5.95,-7.165534697910867,-4.048319333615181,-4.507598900038985,3.290000000000873
-0.0703,1.0201,-0.1258,0.1508,0.1793,0.0065,-0.2362,-1.3212,-5.95,-7.078951124593053,-4.025574231840374,-4.518168500031526,3.297999999995227
-0.071,1.0173,-0.1281,0.1523,0.1807,0.0037,-0.3588,-1.6013,-5.9588,-7.143212418693408,-4.015163920282613,-4.530978900034135,3.305999999996857
-0.0765,1.0155,-0.1279,0.1523,0.1807,0.0037,-0.2537,-1.61,-5.9237,-7.165870310591269,-4.063285860253536,-4.543858900036759,3.3139999999984866
-0.0765,1.0155,-0.1279,0.153,0.181,0.0064,-0.2537,-1.61,-5.9237,-7.173971522917793,-4.102476522608419,-4.556738900039383,3.3220000000001164
-0.075,1.0147,-0.1274,0.153,0.181,0.0064,-0.105,-1.2337,-6.02,-7.162965398837874,-4.113169910749837,-4.566608500041394,3.3300000000017462
-0.0775,1.0132,-0.1315,0.153,0.181,0.0064,-0.2887,-1.05,-6.2387,-7.312998001416737,-4.131170081980262,-4.575008500043105,3.338000000003376
-0.077,1.0166,-0.1291,0.1522,0.1804,0.0016,0.0,-1.4175,-6.3088,-7.267103186133227,-4.153709668044774,-4.586348500035101,3.34599999999773
-0.0749,1.0173,-0.1276,0.1522,0.1804,0.0016,0.0,-1.4175,-6.3088,-7.195607524198186,-4.1570440791196015,-4.597688500037411,3.3539999999993597
-0.0749,1.0173,-0.13,0.1536,0.1777,0.0142,-0.1488,-1.7413,-6.0813,-7.250105320588789,-4.158356721651718,-4.611618900040249,3.3620000000009895
-0.0748,1.0184,-0.13,0.1536,0.1777,0.0142,0.2013,-1.3212,-5.8362,-7.264102547337682,-4.16044247775106,-4.622188500042403,3.3700000000026193
-0.0722,1.0186,-0.1286,0.1528,0.1793,0.001,-0.245,-1.8375,-5.7925,-7.22018213937276,-4.1240248497194,-4.636888500045397,3.378000000004249
-0.0735,1.0194,-0.1313,0.1528,0.1793,0.001,-0.245,-1.8375,-5.7925,-7.296615779874765,-4.115110892515433,-4.6515885000350226,3.385999999998603
-0.0761,1.021,-0.1291,0.1528,0.1793,0.001,-0.49,-1.9338,-5.565,-7.236211223476384,-4.157253146470616,-4.667058900038175,3.394000000000233
-0.0747,1.0195,-0.1287,0.1522,0.1786,0.0065,-0.14,-1.715,-5.6525,-7.210275477925067,-4.157422304622679,-4.68077890004097,3.4020000000018626
-0.0747,1.0195,-0.1287,0.1522,0.1786,0.0065,-0.63,-2.3275,-5.4775,-7.199722509783086,-4.157558779178733,-4.699398900044764,3.4100000000034925
-0.077,1.0186,-0.1307,0.1539,0.1801,0.0072,-0.63,-2.3275,-5.4775,-7.276521243749956,-4.210070382868749,-4.718018900048557,3.4180000000051223
-0.0759,1.018,-0.1299,0.1539,0.1801,0.0072,-0.4638,-2.0563,-5.8713,-7.273385808747977,-4.214388895584147,-4.734469300036947,3.425999999999476
-0.0788,1.0167,-0.1321,0.1539,0.1801,0.0072,-0.3675,-2.2313,-5.8187,-7.358454188629108,-4.2595194091351045,-4.752319700024349,3.43399999999383
-0.0777,1.0173,-0.1318,0.1532,0.1806,0.0062,0.105,-2.2838,-5.4425,-7.372367937904573,-4.2894380134433145,-4.772873900036845,3.4429999999993015
-0.0777,1.0173,-0.1287,0.1532,0.1806,0.0062,0.105,-2.2838,-5.4425,-7.276749447274993,-4.307630933764431,-4.791144300040567,3.4510000000009313
-0.0753,1.0187,-0.1287,0.1535,0.1806,0.0064,0.14,-2.3625,-5.7663,-7.232204057849727,-4.276100743173825,-4.810044300044417,3.459000000002561
-0.0721,1.0178,-0.1288,0.1535,0.1806,0.0064,-0.42,-2.1788,-5.7925,-7.219016047820117,-4.208449755589029,-4.8274747000479685,3.467000000004191
-0.0718,1.0178,-0.1293,0.1535,0.1806,0.0064,-0.42,-2.1788,-5.915,-7.232918239498509,-4.169168290269204,-4.844905100035667,3.474999999998545
-0.0716,1.0169,-0.1307,0.1536,0.1805,0.0072,0.0437,-2.0125,-5.915,-7.2875305169783156,-4.13580700805693,-4.8610051000389465,3.4830000000001746
-0.0731,1.0185,-0.1295,0.1536,0.1805,0.0072,-0.2625,-1.82,-5.9237,-7.260898272821208,-4.12406297505954,-4.8755651000419125,3.4910000000018044
-0.0731,1.0185,-0.1295,0.155,0.18,0.0076,-0.2713,-1.575,-5.5563,-7.251389480813089,-4.104833094202015,-4.888165100044479,3.4990000000034343
-0.0739,1.0152,-0.1307,0.155,0.18,0.0076,-0.2713,-1.575,-5.5563,-7.305990516472263,-4.114021502226806,-4.900765100035587,3.506999999997788
-0.0737,1.0158,-0.1329,0.155,0.18,0.0076,-0.2187,-1.19,-5.6175,-7.400302398141058,-4.114292955300706,-4.910285100037526,3.514999999999418
-0.0743,1.0179,-0.1265,0.153,0.1797,0.0111,0.2975,-0.9712,-5.5563,-7.224928023714831,-4.125024615835836,-4.918054700032043,3.522999999993772
-0.0754,1.0163,-0.1293,0.153,0.1797,0.0111,0.2887,-0.3675,-5.1188,-7.2391971799862,-4.167808413230518,-4.920994700032642,3.5309999999954016
-0.0754,1.0163,-0.1293,0.1529,0.1814,0.0071,0.2887,-0.3675,-5.1188,-7.245526503596269,-4.188855217993562,-4.923934700033241,3.5389999999970314
-0.0768,1.0147,-0.1311,0.1529,0.1814,0.0071,-0.1225,-0.9363,-5.04,-7.318227630016156,-4.24355841177499,-4.931425100034767,3.5469999999986612
-0.076,1.0183,-0.1303,0.1529,0.1798,0.0019,0.0437,-1.4438,-4.7688,-7.302402807466522,-4.237963254533668,-4.94297550003712,3.555000000000291
-0.0727,1.0177,-0.1318,0.1546,0.1798,0.0019,-0.1838,-1.2687,-4.8475,-7.351020747201004,-4.132873722278313,-4.9518564000343135,3.561999999998079
-0.0754,1.0193,-0.1303,0.1546,0.1798,0.0019,-0.1838,-1.2687,-4.8475,-7.309066173920344,-4.1689258146128365,-4.962006000036381,3.569999999999709
-0.0692,1.015,-0.1258,0.1531,0.1778,0.0034,-0.5688,-1.2513,-5.04,-7.1436047141086965,-4.011939481236996,-4.9707651000336135,3.576999999997497
-0.0692,1.015,-0.1258,0.1531,0.1778,0.0034,-0.0175,-0.5688,-5.2413,-7.095855269899754,-3.9446422399419117,-4.97531550003454,3.584999999999127
-0.0742,1.0146,-0.1303,0.1515,0.1798,0.0014,0.2013,-0.035,-5.39,-7.223229053538587,-4.032893912834372,-4.975595500034342,3.5929999999934807
-0.0759,1.0169,-0.1268,0.1515,0.1798,0.0014,0.2013,-0.035,-5.39,-7.157020433562858,-4.12065121917762,-4.975875500034399,3.6009999999951106
-0.0761,1.0182,-0.1274,0.1515,0.1798,0.0014,0.2187,-0.035,-5.4862,-7.1427309568734,-4.168885192886108,-4.976155500034456,3.6089999999967404
-0.0742,1.0149,-0.1333,0.1538,0.1806,0.0146,0.0088,-0.6212,-5.39,-7.348475669591132,-4.158995258638722,-4.981125100035468,3.61699999999837
-0.0742,1.0149,-0.1333,0.1538,0.1806,0.0146,0.0088,-0.6212,-5.5738,-7.429658043909195,-4.154239796682815,-4.986094700036481,3.625
-0.0761,1.0174,-0.129,0.1545,0.1802,0.0077,-0.0525,-0.7613,-5.5738,-7.30457754778328,-4.187044863212864,-4.992185100037721,3.63300000000163
-0.0745,1.0168,-0.1283,0.1545,0.1802,0.0077,-0.21,-0.8925,-5.4862,-7.2326263467920855,-4.175308648697416,-4.999325100032682,3.6409999999959837
-0.0761,1.016,-0.1304,0.1545,0.1802,0.0077,-0.1663,-0.5688,-5.39,-7.283793859575221,-4.207091077965588,-5.003875500033609,3.6489999999976135
-0.0766,1.0184,-0.1281,0.155,0.1809,0.0036,-0.1663,-0.5688,-5.39,-7.2115749215644005,-4.23340478503046,-5.008425900034536,3.6569999999992433
-0.0748,1.0172,-0.1266,0.155,0.1809,0.0036,-0.1488,-0.5688,-5.3025,-7.137997698680945,-4.205943267256704,-5.012976300035462,3.665000000000873
-0.0748,1.0172,-0.1266,0.1558,0.1811,0.0063,0.1838,-0.9363,-5.5125,-7.112942690756158,-4.193332841741693,-5.020466700036988,3.673000000002503
-0.0788,1.0184,-0.1311,0.1558,0.1811,0.0063,0.3237,-0.7613,-5.2063,-7.235180207022046,-4.2881471256307435,-5.02655710003269,3.680999999996857
-0.0777,1.0188,-0.1287,0.1558,0.1811,0.0063,0.3237,-0.7613,-5.2063,-7.21571791955934,-4.307042644914253,-5.032647500033931,3.6889999999984866
-0.0771,1.0176,-0.1296,0.1526,0.1796,0.0078,-0.0175,-1.0588,-5.8538,-7.241506117631549,-4.305021803118287,-5.0411179000356565,3.6970000000001164
-0.0798,1.0199,-0.1296,0.1526,0.1796,0.0078,-0.6475,-1.5225,-5.8625,-7.241732825757409,-4.334917959680381,-5.053297900038138,3.7050000000017462
-0.0798,1.0199,-0.1296,0.1535,0.1806,0.0017,-0.5688,-1.5488,-5.7137,-7.241803059344196,-4.3664113355565455,-5.065688300040662,3.713000000003376
-0.0767,1.0174,-0.1254,0.1535,0.1806,0.0017,-0.5688,-1.5488,-5.7137,-7.095735038282297,-4.339795542059079,-5.078078700043187,3.721000000005006
-0.0759,1.0164,-0.1311,0.1535,0.1806,0.006,-0.5512,-1.4612,-5.8275,-7.267623829092568,-4.3143151019720225,-5.089768300034937,3.7289999999993597
-0.0753,1.0172,-0.1301,0.1536,0.1802,0.006,-0.28,-1.4525,-5.6175,-7.2811477766376775,-4.274381061221571,-5.104293300027328,3.738999999994121
-0.0713,1.0181,-0.1277,0.1536,0.1802,0.006,-0.42,-1.6712,-5.53,-7.193767652154274,-4.159612259981647,-5.11432050004153,3.7450000000026193
-0.0753,1.0183,-0.1286,0.1532,0.1796,0.0072,-0.42,-1.6712,-5.53,-7.196384778541107,-4.173534948025252,-5.127690100044254,3.753000000004249
-0.0753,1.0183,-0.1286,0.1532,0.1796,0.0072,-0.6562,-1.4525,-5.2325,-7.19730121738149,-4.184262000728172,-5.139310100046622,3.761000000005879
-0.0771,1.0187,-0.128,0.1533,0.1814,0.0066,-0.3762,-1.4875,-5.74,-7.1738960953601625,-4.216411581382349,-5.1512101000274,3.768999999992957
-0.0742,1.0175,-0.1256,0.1533,0.1814,0.0066,-0.5075,-1.4963,-5.8187,-7.081862345395208,-4.197211929330429,-5.163180500029839,3.7769999999945867
-0.0717,1.0157,-0.1265,0.1533,0.1814,0.0066,-0.5075,-1.4963,-5.8187,-7.093601839232435,-4.149719285130496,-5.175150900032278,3.7849999999962165
-0.0691,1.0134,-0.1229,0.1538,0.1818,0.0051,-0.4462,-1.1988,-5.8713,-6.9745948610930215,-4.08901999656285,-5.184741300034232,3.7929999999978463
-0.0691,1.0134,-0.1229,0.1538,0.1818,0.0051,-0.5688,-1.1812,-5.5125,-6.933996178000684,-4.004583187189597,-5.1941909000361575,3.800999999999476
-0.0695,1.0125,-0.1258,0.1553,0.1805,0.0073,-0.5688,-1.1812,-5.1887,-7.034798237952666,-3.951742761359063,-5.203640500029488,3.80899999999383
-0.0722,1.0122,-0.1277,0.1553,0.1805,0.0073,-0.4375,-1.2337,-5.1887,-7.138259075566943,-3.998963960141533,-5.213510100031499,3.81699999999546
-0.0808,1.0123,-0.1243,0.1553,0.1805,0.0073,0.0175,-1.0588,-5.355,-7.054916709474071,-4.234285774977796,-5.221980500033225,3.8249999999970896
-0.078,1.0153,-0.131,0.1536,0.1815,0.0158,0.49,-0.7788,-5.2937,-7.20731469700602,-4.291004195584611,-5.228210900034494,3.8329999999987194
-0.0787,1.0188,-0.1301,0.1536,0.1815,0.0158,0.49,-0.7788,-5.2937,-7.243183467675659,-4.332909055875789,-5.234441300035763,3.8410000000003492
-0.0787,1.0188,-0.1301,0.1546,0.1813,0.0067,0.2362,-1.5137,-5.6875,-7.262478544621173,-4.348392501974511,-5.24655090003823,3.849000000001979
-0.0763,1.0233,-0.1272,0.1546,0.1813,0.0067,0.3063,-1.61,-5.6438,-7.164748316183275,-4.309122574901969,-5.259430900029139,3.856999999996333
-0.0761,1.0231,-0.1301,0.1546,0.1813,0.0067,0.245,-1.1812,-6.0113,-7.211199580823608,-4.29816617841608,-5.268880500031065,3.8649999999979627
-0.0759,1.0232,-0.1309,0.1538,0.1818,0.0062,0.245,-1.1812,-6.0113,-7.255915729637032,-4.287097900720675,-5.27833010003299,3.8729999999995925
-0.0763,1.0191,-0.1267,0.1538,0.1818,0.0062,0.07,-1.6013,-6.125,-7.155273130301345,-4.2861149834673915,-5.2911405000356,3.8810000000012224
-0.0763,1.0191,-0.1267,0.1524,0.1808,0.0142,-0.1838,-1.855,-6.2038,-7.112008095401137,-4.284281077025997,-5.305980500038623,3.889000000002852
-0.079,1.0175,-0.131,0.1524,0.1808,0.0142,-0.1225,-1.785,-6.2562,-7.252157483113777,-4.295562725270771,-5.320260500028544,3.896999999997206
-0.0781,1.0174,-0.1274,0.1524,0.1808,0.007,-0.1225,-1.785,-6.2562,-7.180508013232517,-4.30126504011835,-5.334540500031453,3.904999999998836
-0.0774,1.0152,-0.1297,0.153,0.1806,0.007,-0.2362,-1.75,-5.8888,-7.244560520350532,-4.3061717839836335,-5.348540500034305,3.9130000000004657
-0.0809,1.015,-0.1279,0.153,0.1806,0.007,-0.2713,-2.1088,-5.7488,-7.204215008113741,-4.367996933244921,-5.365410900037742,3.9210000000020955
-0.0798,1.0153,-0.1318,0.1535,0.1811,0.0034,-0.1138,-2.3975,-5.6962,-7.324081722970707,-4.395789964323743,-5.384590900041649,3.9290000000037253
-0.0798,1.0153,-0.1318,0.1535,0.1811,0.0034,-0.1138,-2.3975,-5.6962,-7.3691960926909585,-4.4148865458510835,-5.403770900045557,3.937000000005355
-0.0817,1.0164,-0.1282,0.1524,0.181,0.0093,0.3413,-2.2838,-5.6175,-7.270749494513567,-4.465296434075616,-5.422041300032662,3.944999999999709
-0.0797,1.0166,-0.127,0.1524,0.181,0.0093,-0.1488,-2.0213,-6.0725,-7.176537031479549,-4.464050830871843,-5.438211700035956,3.9530000000013388
-0.0771,1.0171,-0.1315,0.1524,0.181,0.0093,-0.1488,-2.0213,-5.7925,-7.29615736839541,-4.420520291418828,-5.4543821000392505,3.9610000000029686
-0.0766,1.0216,-0.131,0.1539,0.1815,0.0002,-0.2537,-2.0475,-5.7925,-7.303235275276004,-4.37634899589731,-5.47076210002769,3.9689999999973224
-0.0766,1.0216,-0.131,0.1539,0.1815,0.0002,0.2975,-2.0038,-5.2937,-7.30542025197882,-4.3195493506068665,-5.486792500030956,3.9769999999989523
-0.0752,1.0196,-0.1303,0.1552,0.1827,0.0076,-0.4812,-2.0125,-5.5912,-7.290180151867583,-4.270966361917112,-5.502892500019593,3.984999999993306
-0.0758,1.0197,-0.1323,0.1552,0.1827,0.0076,-0.4812,-2.0125,-5.5912,-7.358661375690606,-4.2512574932360545,-5.518992500022873,3.992999999994936
-0.0745,1.0194,-0.1315,0.1552,0.1827,0.0076,-0.8313,-1.9162,-5.1188,-7.35286061630918,-4.197597861842882,-5.534322100025996,4.000999999996566
-0.076,1.0173,-0.131,0.1554,0.1817,0.0117,-0.4288,-2.03,-5.4163,-7.342817774224864,-4.214560516366694,-5.550562100029304,4.008999999998196
-0.0766,1.018,-0.1293,0.1554,0.1817,0.0117,-0.8925,-1.6013,-5.4513,-7.26892888710641,-4.236972616833945,-5.563372500031914,4.016999999999825
-0.0766,1.018,-0.1293,0.1541,0.1809,0.0055,-0.8925,-1.6013,-5.4513,-7.247422376226246,-4.250153933505397,-5.576182900022872,4.024999999994179
-0.0741,1.0164,-0.129,0.1541,0.1809,0.0055,-0.6388,-1.1638,-4.935,-7.237685848515093,-4.187866318699467,-5.585493300024769,4.032999999995809
-0.0785,1.0178,-0.1306,0.1541,0.1809,0.0055,-0.1575,-0.8662,-4.9175,-7.284487818147547,-4.291017582233894,-5.592422900026181,4.040999999997439
-0.0786,1.0166,-0.1262,0.1536,0.1808,-0.0021,-0.0962,-0.8138,-5.2063,-7.1552744926021115,-4.337936593300766,-5.598933300027507,4.048999999999069
-0.0789,1.0161,-0.1311,0.1536,0.1808,-0.0021,-0.0962,-0.8138,-5.2063,-7.2773667069264025,-4.369913419180215,-5.604629900031629,4.056000000004133
-0.0789,1.0161,-0.1311,0.1538,0.1825,0.0147,-0.1225,-1.1375,-5.1712,-7.323903513108739,-4.386659675310168,-5.6137299000252066,4.063999999998487
-0.0757,1.018,-0.1262,0.1538,0.1825,0.0147,-0.5863,-1.2513,-5.0925,-7.148970600641777,-4.301238170680963,-5.623740300027246,4.072000000000116
-0.0759,1.0163,-0.1285,0.1538,0.1825,0.0073,-0.4988,-0.6388,-5.3025,-7.187376258243011,-4.271951573614884,-5.628850700028288,4.080000000001746
-0.0788,1.016,-0.1332,0.1542,0.1811,0.0073,-0.4988,-0.6388,-5.3025,-7.376429708681474,-4.3295785077009965,-5.633961100029329,4.088000000003376
-0.0773,1.0153,-0.1255,0.1542,0.1811,0.0073,-0.0525,-0.9013,-5.25,-7.173620016802722,-4.325540809857952,-5.64117150002424,4.09599999999773
-0.0802,1.0155,-0.1301,0.1538,0.1815,0.0035,-0.7525,-1.0412,-5.2762,-7.26209523444356,-4.397243781415151,-5.649501100025937,4.10399999999936
-0.0802,1.0155,-0.1301,0.1538,0.1815,0.0035,-0.2625,-1.1287,-5.53,-7.286898898301892,-4.428641517810187,-5.658530700019564,4.111999999993714
-0.08,1.0176,-0.131,0.1534,0.1815,0.0094,-0.2625,-1.1287,-5.53,-7.318232296926157,-4.440085926490943,-5.667560300021403,4.119999999995343
-0.0777,1.0172,-0.126,0.1534,0.1815,0.0094,-0.4112,-1.9688,-5.1712,-7.148219801405015,-4.388121577887905,-5.683310700024612,4.127999999996973
-0.0796,1.0169,-0.1315,0.1534,0.1815,0.0094,-0.455,-1.8288,-5.2675,-7.294888009949379,-4.412000510283604,-5.697941100027593,4.135999999998603
-0.0786,1.0176,-0.1305,0.1543,0.183,-0.0005,-0.455,-1.8288,-4.8562,-7.303553381270576,-4.394534365577107,-5.712571500030573,4.144000000000233
-0.0786,1.0176,-0.1305,0.1543,0.183,-0.0005,0.0525,-1.4963,-4.8562,-7.306148886280148,-4.386925148024167,-5.724541900022125,4.151999999994587
-0.0756,1.0162,-0.1308,0.1534,0.1814,0.0082,0.14,-1.4175,-4.9175,-7.322695891330556,-4.294708452049048,-5.7358819000244345,4.1599999999962165
-0.0764,1.0165,-0.1288,0.1534,0.1814,0.0082,-0.1925,-1.6187,-5.2762,-7.258443769501983,-4.280511114388496,-5.748831500027073,4.167999999997846
-0.0754,1.0182,-0.1288,0.1534,0.1814,0.0082,-0.1925,-1.6187,-5.2762,-7.227387743345475,-4.243764902153604,-5.761781100029712,4.175999999999476
-0.0762,1.0174,-0.1308,0.1532,0.179,0.0047,-0.7,-1.7763,-5.1887,-7.295546528927268,-4.246056621761891,-5.775991500032607,4.184000000001106
-0.0772,1.0202,-0.1282,0.1532,0.179,0.0047,-0.8313,-2.1525,-5.39,-7.201814294563029,-4.266682992000395,-5.793211500020454,4.19199999999546
-0.0772,1.0202,-0.1282,0.1536,0.1808,0.0073,-0.5425,-2.205,-5.9412,-7.1751321657432365,-4.271390648301865,-5.8108515000240475,4.19999999999709
-0.0773,1.0182,-0.1279,0.1536,0.1808,0.0073,-0.5425,-2.205,-5.9412,-7.164662351521844,-4.277709967389447,-5.828491500027641,4.207999999998719
-0.0781,1.0157,-0.1321,0.1536,0.1808,0.0073,-0.5512,-2.0387,-5.95,-7.3308395771169685,-4.291582929472547,-5.844801100030963,4.216000000000349
-0.0782,1.0172,-0.1276,0.1533,0.1814,0.0065,-0.3938,-2.2487,-5.9675,-7.211555537113663,-4.302541379802096,-5.862790700034628,4.224000000001979
-0.0762,1.0158,-0.1317,0.1533,0.1814,0.0065,-0.5163,-2.3975,-5.95,-7.329840637918412,-4.2944844087990255,-5.8819707000385355,4.232000000003609
-0.0762,1.0158,-0.1317,0.1546,0.181,0.0017,-0.5163,-2.3975,-5.95,-7.368502823435541,-4.287779167504286,-5.901150700024999,4.239999999997963
-0.078,1.0153,-0.1253,0.1546,0.181,0.0017,-0.5512,-2.0563,-6.1512,-7.1430497856994375,-4.287807596578021,-5.91760110002835,4.2479999999995925
-0.0745,1.016,-0.1321,0.1546,0.181,0.0054,0.0088,-1.5313,-6.2475,-7.303469292528459,-4.276528761855483,-5.929851500030846,4.256000000001222
-0.0769,1.0178,-0.1311,0.1542,0.18,0.0054,0.3063,-1.9863,-6.0287,-7.323501187846868,-4.277511562798109,-5.945741900034084,4.264000000002852
-0.0754,1.0178,-0.1276,0.1542,0.18,0.0054,0.3063,-1.9863,-6.0287,-7.2252429695957465,-4.26946839844892,-5.961632300037321,4.272000000004482
-0.0778,1.0167,-0.1319,0.1587,0.1813,0.005,0.3237,-1.855,-5.7312,-7.316807056711106,-4.290236394594938,-5.976472300026847,4.279999999998836
-0.0778,1.0167,-0.1319,0.1587,0.1813,0.005,0.0088,-1.9512,-5.4075,-7.362265915489467,-4.311312807516059,-5.992081900030027,4.288000000000466
-0.0765,1.0174,-0.1301,0.1571,0.1813,0.0038,0.0088,-1.4612,-5.39,-7.316788066073088,-4.291493499312885,-6.003771500032409,4.2960000000020955
-0.0778,1.0183,-0.1321,0.1571,0.1813,0.0038,-0.0613,-1.4612,-5.39,-7.362797888019411,-4.309372900988562,-6.015461100024159,4.303999999996449
-0.0774,1.0209,-0.13,0.1571,0.1813,0.0038,0.07,-1.6013,-4.8913,-7.2997249143441225,-4.304711472694585,-6.028271500026769,4.311999999998079
-0.0752,1.0194,-0.1266,0.1548,0.182,0.0054,0.0175,-1.9338,-4.9612,-7.166608127935372,-4.240715196406945,-6.043741900029921,4.319999999999709
-0.0752,1.0194,-0.1266,0.1548,0.182,0.0054,0.0175,-1.9338,-4.9612,-7.113902218170783,-4.211498395454952,-6.059212300019002,4.327999999994063
-0.077,1.0177,-0.1328,0.1533,0.1816,0.0067,-0.6037,-1.715,-5.1013,-7.332646251751817,-4.252000638810071,-6.072932300021797,4.335999999995693
-0.0769,1.0191,-0.1261,0.1533,0.1816,0.0067,-0.4375,-1.9688,-5.7838,-7.147307697372465,-4.26026914443377,-6.088682700025006,4.3439999999973224
-0.0787,1.0157,-0.1282,0.1533,0.1816,0.0067,-0.2625,-1.5313,-6.0725,-7.177190181881587,-4.2702093341115415,-6.100933100027502,4.351999999998952
-0.0799,1.0165,-0.1333,0.155,0.1807,0.0056,-0.2625,-1.5313,-6.0725,-7.366229941226868,-4.283855123069003,-6.113183500029998,4.360000000000582
-0.0643,1.0166,-0.1279,0.155,0.1807,0.0056,-0.35,-1.155,-5.6875,-7.238344950329387,-4.064202129016651,-6.122423500023477,4.367999999994936
-0.078,1.0166,-0.1279,0.1536,0.1822,0.006,-0.3237,-1.1463,-5.4687,-7.194356495345041,-4.181519796329505,-6.131593900025345,4.375999999996566
-0.0777,1.0173,-0.1337,0.1536,0.1822,0.006,-0.77,-1.4175,-5.3725,-7.398854852357225,-4.246802994723498,-6.142933900027655,4.383999999998196
-0.0776,1.0178,-0.1302,0.1536,0.1822,0.006,-0.77,-1.4175,-5.3725,-7.322753428391943,-4.2809820572394575,-6.154273900029965,4.391999999999825
-0.0748,1.0174,-0.1291,0.1536,0.1822,0.0062,-0.4025,-1.6625,-5.4075,-7.262632022982787,-4.234286804564552,-6.167573900032675,4.400000000001455
-0.0747,1.0177,-0.1316,0.1536,0.1822,0.0062,-0.5512,-1.19,-5.3375,-7.334015165765819,-4.2025142490837375,-6.177093900025956,4.407999999995809
-0.0747,1.0177,-0.1316,0.1538,0.1823,0.0056,-0.595,-1.1988,-5.4163,-7.357237752269458,-4.18597690575196,-6.18668430002791,4.415999999997439
-0.0773,1.0189,-0.1315,0.1538,0.1823,0.0056,-0.595,-1.1988,-5.4163,-7.355021646696458,-4.235539810285856,-6.196274700029863,4.423999999999069
-0.0764,1.0164,-0.1267,0.1538,0.1823,0.0056,-0.455,-1.5137,-5.4775,-7.188784538866973,-4.24772066035713,-6.20838430003233,4.4320000000006985
-0.0776,1.0139,-0.1272,0.1542,0.1826,0.013,-0.7525,-1.3212,-5.81,-7.162290000108736,-4.2719180700892885,-6.218953900034483,4.440000000002328
-0.0809,1.0155,-0.1291,0.1542,0.1826,0.013,-0.5163,-0.9363,-5.6438,-7.218045552795651,-4.35500996235841,-6.226444300036009,4.448000000003958
-0.0809,1.0146,-0.1283,0.155,0.1814,0.0044,-0.5163,-0.9363,-5.6438,-7.210620618532948,-4.411590453192113,-6.233934700030723,4.455999999998312
-0.081,1.0146,-0.1283,0.155,0.1814,0.0044,-0.3237,-1.0938,-6.16,-7.208272902559491,-4.412565804753292,-6.242685100032506,4.463999999999942
-0.0791,1.0144,-0.129,0.1537,0.1803,0.011,-0.0613,-1.2687,-6.16,-7.232335659414539,-4.412654946972748,-6.252834700034573,4.472000000001572
-0.0825,1.0177,-0.1291,0.1537,0.1803,0.011,-0.0613,-1.2687,-6.3263,-7.230664180639524,-4.440200739313884,-6.262984300036641,4.480000000003201
-0.0778,1.0189,-0.1279,0.1537,0.1803,0.011,0.0787,-1.12,-6.3263,-7.185568314984959,-4.424195335683073,-6.2719443000384665,4.488000000004831
-0.0786,1.0197,-0.1303,0.1539,0.1813,0.0127,-0.105,-1.7062,-6.23,-7.245551208323371,-4.4204233876965375,-6.285593900028833,4.495999999999185
-0.0786,1.0197,-0.1303,0.1539,0.1813,0.0127,-0.5425,-2.0563,-6.0813,-7.270150638675521,-4.4172638739310806,-6.302044300032184,4.504000000000815
-0.0804,1.0199,-0.1319,0.1555,0.1805,0.0093,-0.5425,-2.0563,-6.0813,-7.336935159207885,-4.420747172279294,-6.318494700020574,4.511999999995169
-0.0802,1.0182,-0.1292,0.1555,0.1805,0.0093,-0.6737,-1.96,-5.7575,-7.26437774024653,-4.434106931875885,-6.334174700023769,4.519999999996799
-0.0831,1.0197,-0.1318,0.1555,0.1805,0.0093,-0.665,-1.8463,-6.1337,-7.333538417507025,-4.437387455074868,-6.347098800033119,4.527000000001863
-0.0816,1.0196,-0.1297,0.1555,0.1814,0.0204,-0.3675,-1.6712,-6.02,-7.278355968374917,-4.449236985207256,-6.360468400023683,4.5349999999962165
-0.0816,1.018,-0.1285,0.1555,0.1814,0.0204,-0.3675,-1.6712,-6.02,-7.223163547262247,-4.460598996527857,-6.3738380000264065,4.542999999997846
-0.0791,1.018,-0.1285,0.1558,0.1813,0.0074,-1.085,-1.8463,-5.8975,-7.202238672945651,-4.449980961581989,-6.388608400029415,4.550999999999476
-0.0783,1.016,-0.1312,0.1558,0.1813,0.0074,-0.9712,-2.0213,-5.7137,-7.3137537842114915,-4.425852010531806,-6.40477880003271,4.559000000001106
-0.0779,1.0188,-0.1277,0.1558,0.1813,0.0074,-1.1287,-2.0213,-5.5037,-7.19051939061629,-4.391568264371482,-6.420949200036004,4.567000000002736
-0.0799,1.0174,-0.1265,0.1555,0.1826,0.0006,-1.1287,-2.0213,-5.5037,-7.115618295212926,-4.416998304162637,-6.437119600024592,4.57499999999709
-0.0769,1.0161,-0.1291,0.1555,0.1826,0.0006,-1.155,-1.89,-6.195,-7.207012788235663,-4.4118645999597685,-6.4522396000276725,4.582999999998719
-0.0769,1.0161,-0.1291,0.1551,0.1821,0.0078,-0.525,-1.9338,-6.3875,-7.229845589635786,-4.389289685884452,-6.4677100000308245,4.591000000000349
-0.0762,1.0147,-0.1281,0.1551,0.1821,0.0078,-0.0088,-1.54,-6.5538,-7.208774177481792,-4.352472224000862,-6.480030000033334,4.599000000001979
-0.0719,1.0147,-0.1225,0.1551,0.1821,0.0078,-0.0088,-1.54,-6.5538,-7.011106106287263,-4.258251122857342,-6.492350000035844,4.607000000003609
-0.0689,1.0135,-0.1229,0.1554,0.1811,0.0088,-0.8138,-1.6187,-6.6937,-6.942995125248629,-4.118572866447413,-6.505299600038483,4.615000000005239
-0.0778,1.0137,-0.1251,0.1554,0.1811,0.0088,-1.12,-1.3475,-6.475,-7.010072855308105,-4.176557016170763,-6.516079600030874,4.6229999999995925
-0.0778,1.0111,-0.1275,0.1566,0.1805,0.0066,-1.12,-1.4175,-6.4313,-7.13875888788842,-4.217869450368382,-6.527419600033184,4.631000000001222
-0.0806,1.0111,-0.1275,0.1566,0.1805,0.0066,-0.6913,-1.4175,-6.4313,-7.172140382387633,-4.2843531343053485,-6.53875960002518,4.638999999995576
-0.0858,1.0121,-0.1307,0.1562,0.1819,0.0123,-0.4025,-1.47,-6.2562,-7.2951064546605435,-4.333744156937894,-6.5505196000275765,4.646999999997206
-0.082,1.0177,-0.1243,0.1562,0.1819,0.0123,-0.4812,-2.0738,-6.37,-7.07315273291858,-4.3765881312508474,-6.567110000030956,4.654999999998836
-0.0816,1.0208,-0.1298,0.1562,0.1819,0.0123,-0.4812,-2.0738,-6.37,-7.189227339291312,-4.4048050141449915,-6.583700400034336,4.663000000000466
-0.0822,1.0233,-0.1302,0.1566,0.1829,0.0083,0.6737,-1.26,-6.9738,-7.217999054347661,-4.473044590617853,-6.593780400027222,4.6709999999948195
-0.0822,1.0233,-0.1302,0.1566,0.1829,0.0083,0.0,-1.7325,-7.0788,-7.238078722344256,-4.512974974928661,-6.6076404000300455,4.678999999996449
-0.0811,1.0247,-0.1272,0.1564,0.1818,0.0083,-0.5863,-2.065,-6.5012,-7.12789369155844,-4.507262363620932,-6.624160400033411,4.686999999998079
-0.0806,1.0213,-0.1296,0.1564,0.1818,0.0083,-0.5863,-2.065,-6.5012,-7.19874315035314,-4.499325411969895,-6.640680400036776,4.694999999999709
-0.0874,1.0212,-0.1297,0.1564,0.1818,0.0083,-0.6388,-2.2313,-6.475,-7.225824955368643,-4.585748564410491,-6.658530800040412,4.703000000001339
-0.0861,1.0194,-0.1293,0.1565,0.1841,0.007,-0.8662,-1.9425,-6.3088,-7.2278966863370355,-4.61344623105196,-6.674070800029445,4.710999999995693
-0.0861,1.0171,-0.1291,0.1565,0.1841,0.007,-1.015,-1.8637,-6.1775,-7.2321711622187275,-4.61816629160261,-6.688980400032483,4.7189999999973224
-0.0871,1.0171,-0.1291,0.1558,0.1816,0.0085,-1.015,-1.8637,-6.1775,-7.233372481297196,-4.624168389302847,-6.70389000003552,4.726999999998952
-0.0897,1.0179,-0.1291,0.1558,0.1816,0.0085,-0.9887,-2.065,-6.615,-7.229676662400069,-4.741985151922239,-6.720410000038886,4.735000000000582
-0.0886,1.0172,-0.1295,0.1558,0.1816,0.0085,-0.21,-2.4588,-6.8162,-7.246000086050053,-4.820383301917092,-6.740080400042893,4.743000000002212
-0.088,1.0164,-0.1346,0.1562,0.1834,0.0064,-0.5425,-2.7738,-6.3787,-7.447208812730193,-4.836176288036701,-6.762270800027232,4.750999999996566
-0.0851,1.0182,-0.1283,0.1562,0.1834,0.0064,-0.5425,-2.7738,-6.3787,-7.267814095488646,-4.818432126078521,-6.784461200031753,4.758999999998196
-0.0851,1.0182,-0.1283,0.1557,0.1831,0.0036,-0.2275,-2.1175,-5.8538,-7.212844943499846,-4.800504035823123,-6.801401200035205,4.766999999999825
-0.0829,1.0189,-0.1275,0.1557,0.1831,0.0036,-0.3675,-1.9688,-5.9062,-7.160188639916697,-4.764075959966519,-6.817151600038414,4.775000000001455
-0.0838,1.0193,-0.131,0.1557,0.1831,0.0036,-0.3588,-1.9075,-5.81,-7.2672130061794675,-4.738017766136544,-6.832411600041523,4.783000000003085
-0.0835,1.0205,-0.1268,0.1583,0.1827,0.0072,-0.3588,-1.9075,-5.81,-7.146387689595437,-4.713603585807751,-6.847671600030752,4.790999999997439
-0.0824,1.0203,-0.1277,0.1583,0.1827,0.0072,-0.4025,-1.575,-5.6875,-7.138206143939738,-4.671769089937136,-6.860271600033319,4.798999999999069
-0.0824,1.0185,-0.1326,0.1564,0.1826,0.0125,-0.6913,-1.5662,-5.8975,-7.331288009856409,-4.654553616901251,-6.872801200035871,4.8070000000006985
-0.0862,1.0185,-0.1326,0.1564,0.1826,0.0125,-0.6913,-1.5662,-6.1687,-7.390983397488276,-4.656955559435693,-6.885330800038424,4.815000000002328
-0.0855,1.02,-0.1279,0.1586,0.1818,0.0029,-0.63,-1.2075,-6.1687,-7.223984796229903,-4.658595744184373,-6.894990800040392,4.823000000003958
-0.0878,1.0169,-0.1308,0.1586,0.1818,0.0029,-0.8925,-1.225,-6.4837,-7.298784423078075,-4.717434400802758,-6.904790800042389,4.831000000005588
-0.0909,1.0168,-0.1301,0.1586,0.1818,0.0029,-0.5512,-1.5137,-6.3088,-7.293787825067442,-4.764985479390368,-6.9169004000338425,4.838999999999942
-0.0867,1.0175,-0.1238,0.1592,0.184,0.0085,-0.5512,-1.5137,-6.3088,-7.0523864169755734,-4.774477702111888,-6.929010000025296,4.846999999994296
-0.0867,1.0175,-0.1238,0.1592,0.184,0.0085,-0.4025,-1.5225,-6.09,-6.9762532580239425,-4.777980937757768,-6.9411900000277775,4.8549999999959255
-0.0886,1.018,-0.1303,0.1577,0.1834,0.0098,-0.7175,-1.54,-5.775,-7.19653369720352,-4.820679412298752,-6.953510000030287,4.862999999997555
-0.0891,1.0171,-0.129,0.1577,0.1834,0.0098,-0.5688,-1.82,-5.8012,-7.218090863374403,-4.858608723118483,-6.968070000033253,4.870999999999185
-0.0822,1.0167,-0.1271,0.1577,0.1834,0.0098,-0.5688,-1.82,-5.8012,-7.155395787029651,-4.788068430355384,-6.982630000036219,4.879000000000815
-0.0842,1.0166,-0.1267,0.1586,0.1826,0.0002,-0.735,-1.4612,-6.0462,-7.119821082406318,-4.7795320286989655,-6.9943196000279695,4.886999999995169
-0.0842,1.0166,-0.1259,0.1586,0.1826,0.0002,-0.7525,-1.2687,-5.9062,-7.078014072296015,-4.763661287872771,-7.004469200030037,4.894999999996799
-0.085,1.0166,-0.1259,0.1574,0.1829,0.0082,-0.9275,-1.9338,-5.775,-7.065049936717679,-4.7581265499339835,-7.019939600033189,4.902999999998428
-0.0856,1.0158,-0.1264,0.1574,0.1829,0.0082,-0.9275,-1.9338,-5.775,-7.085004012229042,-4.764154158267242,-7.035410000036341,4.911000000000058
-0.0864,1.0116,-0.1267,0.1574,0.1829,0.0082,-0.9712,-2.1175,-5.5037,-7.123605368281321,-4.795577473205335,-7.052350000039793,4.919000000001688
-0.0861,1.014,-0.1292,0.1575,0.1833,0.0074,-0.7175,-1.8025,-5.635,-7.219058574346141,-4.8020821552956665,-7.066770000029615,4.926999999996042
-0.0854,1.0162,-0.1251,0.1575,0.1833,0.0074,-0.9712,-1.9425,-6.265,-7.075300318463633,-4.798604842809175,-7.082310000032781,4.934999999997672
-0.0854,1.0162,-0.1251,0.1581,0.1824,0.0072,-0.9712,-1.9425,-6.265,-7.034394269245309,-4.7954817148905535,-7.0978500000359475,4.9429999999993015
-0.0809,1.0146,-0.1264,0.1581,0.1824,0.0072,-0.8575,-1.6975,-6.0637,-7.081684961776379,-4.773552798435506,-7.111430000038714,4.951000000000931
-0.0827,1.0174,-0.1282,0.1581,0.1824,0.0072,-0.2362,-1.2862,-6.09,-7.145807812941824,-4.764110255727764,-7.1217196000408105,4.959000000002561
-0.0835,1.0192,-0.1254,0.1588,0.1833,0.0155,-0.21,-1.4438,-5.9237,-7.062057761219742,-4.742692722320841,-7.133270000032659,4.966999999996915
-0.0841,1.0197,-0.1275,0.1588,0.1833,0.0155,-0.21,-1.4438,-5.9237,-7.103469627156795,-4.730787084799292,-7.1448204000350115,4.974999999998545
-0.0841,1.0197,-0.1301,0.1592,0.1839,0.0055,-0.2887,-1.4088,-5.8187,-7.211768085743961,-4.717370758599967,-7.156090800037307,4.983000000000175
-0.0852,1.0196,-0.1301,0.1592,0.1839,0.0055,-0.4812,-1.3563,-5.915,-7.251812078918096,-4.721398320878907,-7.166941200039518,4.991000000001804
-0.0865,1.0191,-0.126,0.1582,0.1844,0.0143,-0.4812,-1.3563,-5.915,-7.115521323136592,-4.739322175844007,-7.177791600041728,4.999000000003434
-0.0865,1.0192,-0.1251,0.1582,0.1844,0.0143,-1.0762,-1.4963,-5.775,-7.030233332041227,-4.760061032660003,-7.18976200003328,5.006999999997788
-0.0892,1.0185,-0.1297,0.1582,0.1844,0.0143,-0.5163,-1.54,-6.0637,-7.183028493364521,-4.776641518182561,-7.20208200003579,5.014999999999418
-0.089,1.0167,-0.1265,0.159,0.1835,0.0046,-0.63,-1.4,-6.195,-7.120971326239206,-4.784465967470117,-7.213282000038071,5.023000000001048
-0.089,1.0167,-0.1265,0.159,0.1835,0.0046,-0.63,-1.4,-6.195,-7.101414378722884,-4.791964910152653,-7.224482000040353,5.0310000000026776
-0.0887,1.0147,-0.1265,0.1569,0.1833,0.0053,-0.2713,-1.3825,-6.0287,-7.104532881581478,-4.81009558545853,-7.235542000042606,5.039000000004307
-0.0917,1.0153,-0.1279,0.1569,0.1833,0.0053,-0.175,-1.0063,-5.8187,-7.152159632502098,-4.887643069125561,-7.243592400036924,5.046999999998661
-0.0906,1.0163,-0.1257,0.1569,0.1833,0.0053,-0.315,-1.4438,-5.9763,-7.086237604149983,-4.912745972325982,-7.2536990000337305,5.053999999996449
-0.0877,1.0177,-0.1274,0.1582,0.1831,0.0122,-0.315,-1.4438,-5.9763,-7.118205625363936,-4.908953763915647,-7.265249400036083,5.061999999998079
-0.0877,1.0177,-0.1258,0.1582,0.1831,0.0122,0.0263,-1.855,-5.9062,-7.07511297537598,-4.904875665744403,-7.280089400039106,5.069999999999709
-0.0889,1.0196,-0.1258,0.1591,0.1837,0.0083,-0.1312,-2.0563,-5.8538,-7.049187742510785,-4.914257697528443,-7.296539800042457,5.078000000001339
-0.0869,1.0192,-0.1236,0.1591,0.1837,0.0083,-0.3938,-1.8988,-6.195,-6.960415640219732,-4.911091261542601,-7.311730200045552,5.086000000002969
-0.0886,1.0189,-0.1258,0.1591,0.1837,0.0083,-0.3938,-1.8988,-6.195,-7.0119050923431026,-4.911980831839511,-7.326920600034832,5.0939999999973224
-0.0904,1.0178,-0.1305,0.1562,0.1828,0.0092,-0.14,-1.5662,-6.0375,-7.196686573313775,-4.924541713468518,-7.339450200037384,5.101999999998952
-0.0914,1.0191,-0.1254,0.1562,0.1828,0.0092,-0.105,-1.5925,-6.3263,-7.083588935077483,-4.948675075879778,-7.3521902000399795,5.110000000000582
-0.0914,1.0191,-0.1254,0.1596,0.1834,0.0058,-0.5163,-2.4588,-6.1075,-7.03739719695347,-4.9545086939570995,-7.371860600043987,5.118000000002212
-0.0881,1.0171,-0.126,0.1596,0.1834,0.0058,-0.5163,-2.4588,-6.1075,-7.053901409932374,-4.952762734874623,-7.391531000047994,5.126000000003842
-0.0899,1.0178,-0.1269,0.1596,0.1834,0.0058,-0.2537,-2.3975,-5.9325,-7.088015927568017,-4.962891867617527,-7.410711000034458,5.133999999998196
-0.0887,1.0179,-0.1282,0.1586,0.1832,0.0092,-0.5775,-2.17,-6.0287,-7.149405565998815,-4.960533630199371,-7.428071000037995,5.141999999999825
-0.0863,1.0185,-0.1271,0.1586,0.1832,0.0092,-0.5775,-2.17,-5.6875,-7.124833018033194,-4.911593910040601,-7.445431000041531,5.150000000001455
-0.0863,1.0185,-0.1267,0.1588,0.1848,0.011,-0.6737,-1.9863,-5.6875,-7.101577876721765,-4.87824032853801,-7.461321400044769,5.158000000003085
-0.0883,1.016,-0.1267,0.1588,0.1848,0.011,-0.1925,-1.9863,-5.775,-7.105879554595624,-4.892147200879378,-7.477211800048006,5.166000000004715
-0.0903,1.0173,-0.126,0.159,0.1825,0.0122,-0.8487,-1.9775,-5.95,-7.073907863897181,-4.915990041022236,-7.4930318000368406,5.173999999999069
-0.0884,1.018,-0.1282,0.159,0.1825,0.0122,-0.8487,-1.9775,-5.95,-7.147068717685167,-4.9173741795477675,-7.508851800025675,5.1819999999934225
-0.0894,1.0183,-0.1314,0.159,0.1825,0.0122,-0.9975,-2.1175,-5.6875,-7.294648898989662,-4.936045339511399,-7.525791800029126,5.189999999995052
-0.0889,1.0189,-0.1263,0.1586,0.1839,0.0096,-0.91,-1.855,-5.6,-7.132342758468397,-4.940579159719879,-7.540631800032149,5.197999999996682
-0.0889,1.0189,-0.1263,0.1586,0.1839,0.0096,-1.085,-1.855,-5.6175,-7.084416282315516,-4.943440771701332,-7.555471800035172,5.205999999998312
-0.0866,1.0189,-0.126,0.1594,0.1841,0.0078,-1.085,-1.855,-5.6175,-7.059170993051617,-4.90100402528757,-7.570311800038195,5.213999999999942
-0.0878,1.0173,-0.1262,0.1594,0.1841,0.0078,-0.9013,-1.9688,-6.0025,-7.068016263972067,-4.900284201555712,-7.5860622000270785,5.221999999994296
-0.0855,1.0194,-0.1325,0.1594,0.1841,0.0078,-0.0962,-1.8025,-6.2038,-7.277755702626521,-4.893052439204997,-7.600482200030016,5.2299999999959255
-0.0838,1.0184,-0.1227,0.1594,0.1834,0.0098,-0.315,-2.1613,-5.7838,-7.012702543678068,-4.833186029830046,-7.617772600033539,5.237999999997555
-0.0838,1.0184,-0.1264,0.1594,0.1834,0.0098,-0.315,-2.1613,-5.7838,-7.053304621007044,-4.788870170676605,-7.635063000037062,5.245999999999185
-0.0824,1.0161,-0.1264,0.1597,0.1834,0.0083,-0.8575,-1.295,-6.0637,-7.079920592158579,-4.773684689696129,-7.645423000039172,5.254000000000815
-0.0849,1.0152,-0.1276,0.1597,0.1834,0.0083,-1.0325,-1.4438,-6.02,-7.140422036430935,-4.770152176972486,-7.656973400041525,5.262000000002445
-0.0841,1.0163,-0.1252,0.1597,0.1834,0.0083,-0.875,-0.8662,-5.8538,-7.057348986460384,-4.752949171082769,-7.663903000036634,5.269999999996799
-0.0844,1.0144,-0.1247,0.1606,0.1818,0.0118,-0.875,-0.8662,-5.8538,-7.02257772544332,-4.745569676385254,-7.670832600038046,5.277999999998428
-0.0874,1.0163,-0.1268,0.1606,0.1818,0.0118,-0.9538,-0.9013,-5.6438,-7.086308882323507,-4.7900378626833815,-7.678043000039515,5.286000000000058
-0.0874,1.0163,-0.1268,0.1616,0.1858,0.0077,-0.6825,-0.5775,-5.7312,-7.103919774424445,-4.815956350485102,-7.682663000040456,5.294000000001688
-0.0861,1.0177,-0.1236,0.1616,0.1858,0.0077,-0.4462,-0.7,-5.9588,-6.984637693310497,-4.813497365945869,-7.688263000041597,5.302000000003318
-0.0897,1.0181,-0.1259,0.1616,0.1858,0.0077,-0.4462,-0.7,-5.9588,-7.0278061958346365,-4.8431880403599274,-7.693863000037645,5.309999999997672
-0.0906,1.0194,-0.1283,0.1595,0.1836,0.0098,-0.5863,-0.8838,-6.3963,-7.12689962348019,-4.881746432487755,-7.700933400039085,5.3179999999993015
-0.0917,1.02,-0.1196,0.1595,0.1836,0.0098,-0.4112,-0.9013,-6.475,-6.836344456943261,-4.935674095634222,-7.708143800040554,5.326000000000931
-0.0917,1.02,-0.1252,0.1598,0.1853,0.0163,-0.4112,-0.9013,-6.1163,-6.94313174863339,-4.9412461964394465,-7.715354200042023,5.334000000002561
-0.0906,1.0177,-0.1252,0.1598,0.1853,0.0163,-0.1488,-1.05,-6.1163,-6.987315857929104,-4.944934366341267,-7.723754200043735,5.342000000004191
-0.0942,1.0175,-0.1244,0.1598,0.1826,0.0168,0.2013,-0.8313,-6.2475,-6.977631503038381,-4.971674079043594,-7.730404600039042,5.349999999998545
-0.0924,1.0194,-0.1232,0.1605,0.1826,0.0168,-0.315,-1.2337,-6.825,-6.921364850001084,-5.0402209688591775,-7.7402742000410525,5.358000000000175
-0.0923,1.0191,-0.1253,0.1605,0.1826,0.0168,-0.315,-1.2337,-6.825,-6.978617855267909,-5.079043460920456,-7.750143800043063,5.366000000001804
-0.0925,1.0198,-0.1279,0.1603,0.1844,0.006,-0.3762,-1.19,-6.5363,-7.090325174410771,-5.096731144462725,-7.7596638000450024,5.374000000003434
-0.0925,1.0198,-0.1279,0.1603,0.1844,0.006,-0.4112,-1.3563,-6.1863,-7.128825778934287,-5.098273343967916,-7.770514200037344,5.381999999997788
-0.0932,1.0196,-0.1219,0.1612,0.1838,0.0098,-0.7962,-1.54,-5.845,-6.910892492701786,-5.118875334473262,-7.782834200039854,5.389999999999418
-0.091,1.0157,-0.1247,0.1612,0.1838,0.0098,-0.7962,-1.54,-5.845,-6.9728379171803345,-5.110152197189321,-7.795154200031159,5.397999999993772
-0.0939,1.0178,-0.1258,0.1612,0.1838,0.0098,-0.7088,-1.8725,-5.9588,-7.023514791459379,-5.129762031540649,-7.810134200034211,5.405999999995402
-0.0928,1.0205,-0.1208,0.159,0.183,0.0137,-0.1925,-1.8375,-5.7575,-6.85053891559802,-5.138343131851072,-7.8248342000372055,5.413999999997031
-0.0928,1.0205,-0.1218,0.159,0.183,0.0137,-0.4812,-2.415,-5.8275,-6.820888125470225,-5.143528471396468,-7.8441542000411415,5.421999999998661
-0.0899,1.0135,-0.1218,0.1606,0.183,0.0094,-0.4812,-2.415,-5.8275,-6.842251449084568,-5.116471543149789,-7.8634742000450775,5.430000000000291
-0.0849,1.0167,-0.1232,0.1606,0.183,0.0094,-1.19,-2.0563,-6.0375,-6.891271988968449,-5.077807887924569,-7.879924600033467,5.437999999994645
-0.0877,1.0189,-0.1205,0.1606,0.183,0.0094,-0.98,-1.4963,-6.0725,-6.786334605958532,-5.063721734247058,-7.891895000035906,5.445999999996275
-0.0894,1.0136,-0.1221,0.1596,0.1841,0.0094,-0.7875,-1.8463,-5.9938,-6.844076215232627,-5.055647517526289,-7.906665400038915,5.4539999999979045
-0.0932,1.0141,-0.1246,0.1596,0.1841,0.0094,-0.7875,-1.8463,-5.9938,-6.956463738799311,-5.0769555795783665,-7.921435800041924,5.461999999999534
-0.0932,1.0141,-0.1246,0.1602,0.1857,0.0102,-0.07,-2.0125,-6.23,-6.986231850629451,-5.0867737000942475,-7.937535800045204,5.470000000001164
-0.092,1.0152,-0.1227,0.1602,0.1857,0.0102,-0.315,-1.8725,-6.2825,-6.924648486673522,-5.093043038795381,-7.952515800048256,5.478000000002794
-0.0921,1.018,-0.1232,0.1602,0.1857,0.0102,-0.315,-2.03,-6.5363,-6.9089291540202575,-5.103954155374792,-7.968755800036795,5.485999999997148
-0.0902,1.0227,-0.1201,0.1596,0.1842,0.0054,0.035,-2.03,-6.5363,-6.781982894075879,-5.076768115616953,-7.984995800040103,5.493999999998778
-0.0868,1.0216,-0.1185,0.1596,0.1842,0.0054,-0.035,-1.925,-6.685,-6.680642556300391,-4.9889335185458075,-8.00039580004324,5.5020000000004075
-0.0868,1.0216,-0.1185,0.159,0.1846,0.0126,-0.7875,-1.995,-7.0087,-6.6357078723759475,-4.912935019057676,-8.016355800046492,5.510000000002037
-0.09,1.0182,-0.1216,0.159,0.1846,0.0126,-0.7875,-1.995,-7.0087,-6.757932737889442,-4.96043768453183,-8.032315800049744,5.518000000003667
-0.0928,1.018,-0.124,0.159,0.1847,0.0102,-0.665,-1.8112,-6.9475,-6.886580955098447,-5.053590299480693,-8.046805400039519,5.525999999998021
-0.0924,1.0172,-0.1211,0.1608,0.1847,0.0102,-0.5863,-2.0038,-6.93,-6.820344145835544,-5.0976123687389325,-8.062835800042784,5.533999999999651
-0.0964,1.0186,-0.1251,0.1608,0.1847,0.0102,-0.3762,-1.6187,-6.405,-6.939613312863467,-5.151928268766417,-8.074166700039203,5.540999999997439
-0.0996,1.0199,-0.1241,0.1586,0.185,0.01,-0.3762,-1.6187,-6.405,-6.938267083021285,-5.229788907541455,-8.087116300041842,5.548999999999069
-0.0996,1.0199,-0.1241,0.1586,0.185,0.01,-0.4988,-1.7763,-6.58,-6.937796259928416,-5.321940733176553,-8.101326700044737,5.5570000000006985
-0.0973,1.0183,-0.1224,0.1591,0.1846,0.0127,-0.8487,-1.9863,-6.5975,-6.878767564823205,-5.351980152964717,-8.117217100033523,5.564999999995052
-0.0999,1.018,-0.1238,0.1591,0.1846,0.0127,-0.0175,-1.7325,-6.5625,-6.912277533191282,-5.413717213920406,-8.131077100036347,5.572999999996682
-0.0985,1.0183,-0.1218,0.1591,0.1846,0.0127,-0.0175,-1.7325,-6.5625,-6.856528774786672,-5.434814706251663,-8.14493710003917,5.580999999998312
-0.096,1.0192,-0.1255,0.1618,0.1856,0.0106,0.1838,-1.7938,-6.3437,-6.950612320146626,-5.4196642349514645,-8.159287500042094,5.588999999999942
-0.096,1.0192,-0.1255,0.1618,0.1856,0.0106,0.035,-1.8813,-6.5275,-6.992229534390756,-5.398117856388986,-8.17433790004516,5.597000000001572
-0.0969,1.0205,-0.1252,0.1607,0.1854,0.0096,-0.0613,-1.995,-6.9563,-6.993553008651542,-5.3918412803815015,-8.190297900033896,5.6049999999959255
-0.0959,1.0183,-0.125,0.1607,0.1854,0.0096,-0.0613,-1.995,-6.9563,-6.996448349643489,-5.368815763397019,-8.206257900037148,5.612999999997555
-0.0952,1.0196,-0.1255,0.1607,0.1854,0.0096,0.0437,-1.8025,-6.5363,-7.008836259196675,-5.3481722106040115,-8.220677900040085,5.620999999999185
-0.0928,1.0192,-0.1232,0.1633,0.1858,0.0156,-0.0175,-1.505,-6.3963,-6.937885425332828,-5.312189455509886,-8.232717900042537,5.629000000000815
-0.0908,1.018,-0.121,0.1633,0.1858,0.0156,-0.4375,-1.5137,-6.1512,-6.83190931189663,-5.312090988366755,-8.244827500045005,5.637000000002445
-0.0908,1.018,-0.121,0.1626,0.186,0.0107,-0.4375,-1.5137,-6.1512,-6.796354636799974,-5.311992559906009,-8.258450800042274,5.64600000000064
-0.0919,1.0175,-0.1235,0.1626,0.186,0.0107,-0.63,-1.1375,-5.6788,-6.8813599609199905,-5.251488854797325,-8.266413300039758,5.652999999998428
-0.0956,1.0168,-0.1225,0.1626,0.186,0.0107,-0.3237,-0.7788,-5.285,-6.873739628239273,-5.28926106095689,-8.272643700041028,5.661000000000058
-0.0966,1.0157,-0.1229,0.1633,0.1857,0.0195,-0.3237,-0.7788,-5.285,-6.890361913267462,-5.337781290733615,-8.278874100042298,5.669000000001688
-0.0983,1.0163,-0.1235,0.1633,0.1857,0.0195,-0.595,-0.7962,-5.4338,-6.9163933589559194,-5.399113668779844,-8.285243700043596,5.677000000003318
-0.0983,1.0163,-0.1235,0.1624,0.1861,0.0168,-0.1488,-0.5863,-5.53,-6.92404545546065,-5.431866951904803,-8.289934100044551,5.685000000004948
-0.0994,1.0152,-0.1197,0.1624,0.1861,0.0168,0.0263,-0.8575,-5.3025,-6.803827054939103,-5.4878926505168755,-8.29679410003971,5.6929999999993015
-0.0967,1.0166,-0.1207,0.1624,0.1861,0.0077,0.0263,-0.8575,-5.3025,-6.7840302237875,-5.445700282196221,-8.303654100041108,5.701000000000931
-0.0994,1.0184,-0.1193,0.1623,0.1878,0.0077,-0.035,-0.7788,-5.4862,-6.721229730702636,-5.482186186564356,-8.309884500042378,5.709000000002561
-0.0995,1.02,-0.1202,0.1623,0.1878,0.0077,0.0613,-0.5688,-5.3375,-6.721043395393631,-5.505200390459398,-8.314434900039165,5.716999999996915
-0.1013,1.0171,-0.1229,0.162,0.1858,0.0111,0.1838,-0.4025,-5.4862,-6.818308234006431,-5.561822239269856,-8.317654900039821,5.724999999998545
-0.1013,1.0171,-0.1229,0.162,0.1858,0.0111,0.1838,-0.4025,-5.4862,-6.859533468143942,-5.595821330661772,-8.320874900037548,5.732999999992899
-0.1046,1.0139,-0.1242,0.1626,0.1848,0.0082,0.6125,-0.5337,-5.5563,-6.91942739811883,-5.68945343427155,-8.325144500038418,5.7409999999945285
-0.1055,1.0171,-0.1222,0.1626,0.1848,0.0082,0.0088,-0.7,-4.8825,-6.877995192731678,-5.79597706983061,-8.33074450003956,5.748999999996158
-0.1032,1.017,-0.1224,0.1626,0.1848,0.0082,0.315,-1.68,-4.6813,-6.869601094727971,-5.770407106303365,-8.344184500042298,5.756999999997788
-0.1039,1.0216,-0.1263,0.1605,0.1872,0.0123,0.315,-1.68,-4.6813,-6.967765046502907,-5.766365568763045,-8.357624500045036,5.764999999999418
-0.1039,1.0216,-0.1263,0.1605,0.1872,0.0123,0.28,-2.5113,-4.5937,-7.012376030655989,-5.764691404835761,-8.37771490004913,5.773000000001048
-0.1004,1.0243,-0.1229,0.161,0.1853,0.0088,0.4025,-2.24,-4.8387,-6.921532707583219,-5.647664985084608,-8.395634900036482,5.780999999995402
-0.0978,1.0218,-0.1258,0.161,0.1853,0.0088,0.0263,-3.045,-5.355,-6.980100073273859,-5.549645301228269,-8.419994900041445,5.788999999997031
-0.0985,1.0223,-0.1253,0.161,0.1853,0.0088,0.0263,-3.045,-5.355,-6.984684008330141,-5.511186376868967,-8.444354900046408,5.796999999998661
-0.097,1.0224,-0.1224,0.1622,0.1862,0.01,-0.2275,-3.0363,-5.5388,-6.883824262907528,-5.46191237042442,-8.468645300051357,5.805000000000291
-0.097,1.0194,-0.1232,0.1622,0.1862,0.01,-0.8138,-2.94,-5.6087,-6.888921314873647,-5.438904369817996,-8.492165300056149,5.813000000001921
-0.0973,1.0194,-0.1232,0.1629,0.1865,0.0086,-0.8138,-2.94,-5.8275,-6.890439671992283,-5.43259208195407,-8.515685300039548,5.820999999996275
-0.0967,1.0183,-0.1222,0.1629,0.1865,0.0086,-0.56,-3.1762,-5.8275,-6.858284378405269,-5.421249218579789,-8.541094900044724,5.8289999999979045
-0.0961,1.0171,-0.1216,0.1629,0.1865,0.0086,-0.3237,-3.4125,-5.9938,-6.831837710609869,-5.412845244129647,-8.568394900050286,5.836999999999534
-0.0956,1.0151,-0.126,0.1629,0.1855,0.0055,-0.3325,-3.3425,-5.5738,-6.99088982531078,-5.385946550057684,-8.595134900055735,5.845000000001164
-0.098,1.0157,-0.1263,0.1629,0.1855,0.0055,-0.3325,-3.3425,-5.5738,-7.05437150470409,-5.416460187318803,-8.621874900061183,5.853000000002794
-0.098,1.0157,-0.1263,0.1628,0.185,0.0094,-0.385,-2.6337,-5.075,-7.076658103398316,-5.443839457604072,-8.642944500065475,5.861000000004424
-0.0952,1.0158,-0.1249,0.1628,0.185,0.0094,-0.1575,-2.8963,-5.3463,-7.034523923914498,-5.386050080796757,-8.666114900049122,5.868999999998778
-0.0964,1.0172,-0.1235,0.1628,0.185,0.0094,0.28,-2.2838,-5.3725,-6.971997586733116,-5.380999040355136,-8.684385300052844,5.8770000000004075
-0.0963,1.0163,-0.1286,0.1613,0.1856,0.0066,0.28,-2.2838,-5.3725,-7.105803384791739,-5.376338983103797,-8.702655700056566,5.885000000002037
-0.0945,1.0183,-0.1224,0.1613,0.1856,0.0066,0.2975,-2.2575,-5.3463,-6.966178383920798,-5.326354148950126,-8.720715700060245,5.893000000003667
-0.0945,1.0176,-0.1261,0.1624,0.1848,0.0124,0.035,-2.3187,-5.46,-7.025014050338315,-5.301491818377255,-8.739265300064023,5.901000000005297
-0.0968,1.0176,-0.1261,0.1624,0.1848,0.0124,-0.0175,-2.5463,-5.6087,-7.04879072280544,-5.333673565264022,-8.759635700049646,5.908999999999651
-0.0969,1.0169,-0.1289,0.1623,0.1856,0.0106,-0.0175,-2.5463,-5.6087,-7.1556735076127564,-5.35711841029945,-8.780006100053797,5.917000000001281
-0.0942,1.0175,-0.1257,0.1623,0.1856,0.0106,0.07,-2.0387,-5.4075,-7.088277850653298,-5.311279294486901,-8.796315700042285,5.924999999995634
-0.0954,1.0175,-0.1305,0.1623,0.1856,0.0106,0.2537,-1.5225,-5.705,-7.212366723523086,-5.311835208745029,-8.808495700044766,5.932999999997264
-0.0946,1.018,-0.1289,0.1636,0.1859,0.0135,0.315,-1.4438,-5.32,-7.2146095667123,-5.291605021195813,-8.820046100047119,5.940999999998894
-0.0946,1.018,-0.1289,0.1636,0.1859,0.0135,0.315,-1.4438,-5.32,-7.215616160153509,-5.2805598885985505,-8.831596500038966,5.948999999993248
-0.0933,1.0185,-0.1283,0.163,0.1872,0.0134,0.4288,-1.4,-5.1625,-7.196690547927116,-5.237107089095746,-8.842796500041247,5.956999999994878
-0.0954,1.0174,-0.1274,0.163,0.1872,0.0134,0.4462,-1.0675,-5.53,-7.165722834590795,-5.267194893551447,-8.851336500042986,5.9649999999965075
-0.0963,1.0192,-0.1264,0.163,0.1872,0.0134,-0.14,-1.4088,-5.2675,-7.1054610574013815,-5.309250668785901,-8.862606900045282,5.972999999998137
-0.0973,1.0186,-0.1279,0.163,0.1866,0.0054,-0.14,-1.4088,-5.2675,-7.137703836065978,-5.358527452286944,-8.873877300047578,5.980999999999767
-0.0973,1.0227,-0.1271,0.163,0.1866,0.0054,-0.0525,-1.2425,-5.3637,-7.104893201957809,-5.37395458435464,-8.883817300049603,5.989000000001397
-0.0975,1.0227,-0.1271,0.1617,0.1854,0.0104,-0.3063,-1.6888,-5.3375,-7.091546985580801,-5.387687127383465,-8.897327700040067,5.996999999995751
-0.0953,1.0194,-0.1232,0.1617,0.1854,0.0104,-0.3063,-1.6888,-5.3375,-6.961435336192536,-5.349453864379073,-8.90914930004862,6.004000000000815
-0.0963,1.0174,-0.1304,0.1617,0.1854,0.0104,-0.315,-1.4875,-5.3725,-7.1839955748245155,-5.355602341106837,-8.921049300051044,6.012000000002445
-0.0985,1.0181,-0.1274,0.1614,0.187,0.0123,-0.28,-1.5925,-5.6,-7.150827818905509,-5.4011051330178335,-8.93378930005364,6.0200000000040745
-0.1006,1.0198,-0.1254,0.1614,0.187,0.0123,-0.875,-1.6187,-5.8713,-7.051342074293989,-5.442890841285666,-8.946738900056278,6.028000000005704
-0.1006,1.0198,-0.1254,0.1635,0.1863,0.0114,-0.875,-1.6187,-5.8713,-7.022236948304414,-5.475528454916168,-8.95968850004714,6.036000000000058
-0.0983,1.0168,-0.1283,0.1635,0.1863,0.0114,-0.4462,-1.7237,-6.0637,-7.134934774915634,-5.475791325673932,-8.973478100049949,6.044000000001688
-0.0967,1.0187,-0.1261,0.1635,0.1863,0.0114,-1.1025,-1.9512,-6.1425,-7.077996439032889,-5.4749436206346,-8.989087700038931,6.051999999996042
-0.0966,1.0182,-0.1233,0.1626,0.186,0.005,-0.7437,-1.5575,-5.845,-6.957405378933632,-5.45279273871695,-9.00154770004147,6.059999999997672
-0.0985,1.0178,-0.1246,0.1626,0.186,0.005,-0.7437,-1.5575,-5.845,-6.972758930977683,-5.460821651984565,-9.01400770004401,6.0679999999993015
-0.0985,1.0182,-0.1247,0.1622,0.1842,0.013,-0.6037,-1.435,-5.915,-6.979269412301999,-5.465415811302697,-9.025487700035908,6.075999999993655
-0.1002,1.0182,-0.1247,0.1622,0.1842,0.013,-0.6388,-1.5925,-6.1425,-6.9813489297082345,-5.466438457988457,-9.038227700038505,6.083999999995285
-0.1003,1.0183,-0.1265,0.1636,0.1854,0.0101,-0.2013,-1.5662,-6.0637,-7.044934283572278,-5.475832096060652,-9.050757300041058,6.091999999996915
-0.0992,1.0168,-0.1258,0.1636,0.1854,0.0101,-0.2013,-1.5662,-6.0637,-7.049983643936242,-5.4802324046136786,-9.063286900043611,6.099999999998545
-0.0978,1.0175,-0.1233,0.1636,0.1854,0.0101,-0.3938,-1.8988,-5.9938,-6.957252206544642,-5.4762013146165645,-9.078477300046705,6.108000000000175
-0.0978,1.0184,-0.1246,0.163,0.185,0.0082,-0.805,-1.7587,-6.125,-6.969980647615008,-5.475395847337447,-9.094305600056328,6.117000000005646
-0.0978,1.0184,-0.1246,0.163,0.185,0.0082,-0.945,-1.855,-5.8012,-6.973847258918762,-5.467536693092591,-9.107290600038729,6.123999999996158
-0.1003,1.0195,-0.1269,0.1634,0.184,0.0132,-0.945,-1.855,-5.8012,-7.060461174470151,-5.495683112426148,-9.122130600041752,6.131999999997788
-0.0967,1.018,-0.1265,0.1634,0.184,0.0132,-0.9625,-1.7413,-5.81,-7.076892342719031,-5.467522583699654,-9.13606100004459,6.139999999999418
-0.0971,1.0157,-0.1259,0.1634,0.184,0.0132,-0.9187,-1.7938,-5.8362,-7.069142897025541,-5.456032781455727,-9.150411400047513,6.148000000001048
-0.0999,1.0163,-0.1308,0.1615,0.1868,0.0104,-0.9187,-1.7938,-5.9325,-7.257332508901853,-5.47622258768793,-9.164761800050437,6.1560000000026776
-0.0999,1.0182,-0.1236,0.1615,0.1868,0.0104,-1.0063,-1.8112,-5.9325,-7.015978817232103,-5.491822154192137,-9.179251400040211,6.163999999997031
-0.0971,1.0182,-0.1236,0.1639,0.1856,0.0109,-0.9712,-1.8725,-5.6262,-6.948247749030175,-5.462964922466632,-9.194231400043263,6.171999999998661
-0.0952,1.0195,-0.1229,0.1639,0.1856,0.0109,-0.4375,-1.75,-5.6962,-6.898774718847675,-5.410919438254897,-9.208231400046115,6.180000000000291
-0.0957,1.0192,-0.1236,0.1639,0.1856,0.0109,-0.4375,-1.75,-5.6962,-6.9092805762862275,-5.38415846099208,-9.222231400048967,6.188000000001921
-0.0937,1.021,-0.1244,0.164,0.1864,0.0119,-0.84,-1.8988,-5.6175,-6.9356772083844485,-5.321862695799309,-9.237421800052061,6.196000000003551
-0.0955,1.0192,-0.1254,0.164,0.1864,0.0119,-1.0588,-1.54,-5.1013,-6.992462514109966,-5.317427800933992,-9.249741800043367,6.2039999999979045
-0.0955,1.0192,-0.1254,0.1614,0.1851,0.0157,-1.1375,-1.0938,-5.2238,-7.008357215309398,-5.315395614488377,-9.258492200045149,6.211999999999534
-0.0983,1.0201,-0.1283,0.1614,0.1851,0.0157,-1.1375,-1.0938,-5.2238,-7.125036601055035,-5.385682941265177,-9.26724260004693,6.220000000001164
-0.0969,1.0199,-0.1235,0.1614,0.1851,0.0157,-1.295,-0.7875,-5.7137,-6.961846964989999,-5.386454358558006,-9.273542600048215,6.228000000002794
-0.0965,1.0163,-0.1205,0.1628,0.1862,0.0127,-1.295,-0.9538,-5.7488,-6.813950458270989,-5.386495056202979,-9.281173000049769,6.236000000004424
-0.0946,1.0141,-0.1246,0.1628,0.1862,0.0127,-0.875,-1.05,-5.5912,-6.948884679659583,-5.35178438457076,-9.28957300005148,6.244000000006054
-0.0946,1.0147,-0.1219,0.1636,0.1872,0.0086,-0.875,-1.05,-5.5912,-6.879172372677004,-5.329040573044122,-9.297973000045552,6.2520000000004075
-0.093,1.0147,-0.1219,0.1636,0.1872,0.0086,-1.085,-0.4288,-5.5738,-6.858289469994041,-5.281603933393608,-9.301403400043132,6.259999999994761
-0.0976,1.0135,-0.1208,0.1635,0.1874,0.0069,-1.3563,-0.4725,-5.6438,-6.812769792506279,-5.342422468845996,-9.305183400043902,6.267999999996391
-0.1025,1.013,-0.1248,0.1635,0.1874,0.0069,-0.7088,-0.4112,-5.985,-6.958601256489444,-5.3984439646394025,-9.308473000044572,6.275999999998021
-0.1061,1.0142,-0.1236,0.1635,0.1874,0.0069,-0.7088,-0.4112,-5.985,-6.951496274867212,-5.474165433143334,-9.311762600045242,6.283999999999651
-0.1017,1.0167,-0.1208,0.1615,0.185,0.009,-0.0525,-0.8925,-6.055,-6.843535560196482,-5.491647071791729,-9.318902600040202,6.291999999994005
-0.1017,1.0167,-0.1208,0.1615,0.185,0.009,-0.2887,-0.9187,-5.95,-6.799768497548908,-5.522010761350843,-9.326252200041699,6.299999999995634
-0.1016,1.0208,-0.1232,0.1654,0.1854,0.0103,-0.105,-1.1025,-6.2562,-6.850775583437226,-5.5334906033406,-9.335072200043497,6.307999999997264
-0.0993,1.0234,-0.1238,0.1654,0.1854,0.0103,-0.105,-1.1025,-6.2562,-6.879866143834341,-5.530524467863783,-9.343892200045294,6.315999999998894
-0.0982,1.026,-0.1188,0.1654,0.1854,0.0103,-0.525,-1.7938,-6.5712,-6.694475986234403,-5.501149416307054,-9.358242600048218,6.324000000000524
-0.0994,1.0205,-0.126,0.1639,0.187,0.0062,-0.8662,-2.0475,-6.5712,-6.937681294841965,-5.507188025548133,-9.374622600036657,6.331999999994878
-0.0994,1.0207,-0.1229,0.1639,0.187,0.0062,-0.8662,-2.0475,-6.3525,-6.886878247881008,-5.509753386221253,-9.391002600039995,6.3399999999965075
-0.1025,1.0207,-0.1229,0.1631,0.1857,0.01,-1.0325,-2.0125,-6.3525,-6.871689518428024,-5.540516754668062,-9.407102600043276,6.347999999998137
-0.1014,1.0194,-0.1196,0.1631,0.1857,0.01,-1.6538,-1.68,-6.1687,-6.734489918235663,-5.5422252214251975,-9.420542600046014,6.355999999999767
-0.1052,1.0175,-0.1247,0.1631,0.1857,0.01,-0.7175,-1.8463,-5.7838,-6.909598666921576,-5.62749705940451,-9.435313000049023,6.364000000001397
-0.1043,1.0153,-0.1224,0.1621,0.1868,0.0045,-0.7175,-1.8463,-5.7838,-6.885019837783494,-5.680187482321366,-9.450083400052032,6.372000000003027
-0.1049,1.0143,-0.1199,0.1621,0.1868,0.0045,-0.9275,-2.1525,-5.81,-6.782942180071165,-5.727004174678253,-9.467303400039878,6.379999999997381
-0.1049,1.0143,-0.1199,0.1642,0.1865,0.0101,-0.7962,-1.68,-6.265,-6.753998583738543,-5.740963925918502,-9.480743400042616,6.3879999999990105
-0.105,1.0139,-0.1223,0.1642,0.1865,0.0101,-0.6475,-1.5575,-5.9763,-6.839121144417079,-5.760247023491651,-9.493203400045156,6.39600000000064
-0.1046,1.0153,-0.1213,0.1642,0.1865,0.0101,-0.6475,-1.5575,-5.9763,-6.821154634325445,-5.772265318043738,-9.505663400047695,6.40400000000227
-0.1011,1.0156,-0.1194,0.1636,0.1858,0.0082,-0.455,-1.855,-5.9412,-6.743911486241535,-5.7503636526632,-9.520503400050718,6.4120000000039
-0.0992,1.02,-0.1242,0.1636,0.1858,0.0082,-0.4812,-1.6888,-5.9938,-6.876788236533416,-5.718197948822266,-9.534013800041182,6.419999999998254
-0.0992,1.0192,-0.1232,0.1642,0.187,0.0106,-0.805,-1.4262,-5.705,-6.88775341634524,-5.656773346069168,-9.545423400043505,6.427999999999884
-0.0989,1.0192,-0.1232,0.1642,0.187,0.0106,-0.805,-1.4262,-5.705,-6.891028410972671,-5.609190530201043,-9.55683300004583,6.436000000001513
-0.0994,1.0183,-0.1218,0.1642,0.1849,0.0145,-0.21,-1.2513,-5.6962,-6.846313028585207,-5.586281600746441,-9.566843400047869,6.444000000003143
-0.1015,1.0188,-0.1216,0.1642,0.1849,0.0145,-0.3063,-0.8575,-5.6875,-6.820408500395192,-5.606351223544635,-9.573703400049267,6.452000000004773
-0.1015,1.0192,-0.1216,0.1642,0.1849,0.0145,-0.7,-0.8313,-5.53,-6.808890442280157,-5.622095358502896,-9.580353800044573,6.459999999999127
-0.1013,1.0189,-0.1241,0.164,0.1868,0.015,-0.7,-0.8313,-5.53,-6.902553154632706,-5.627563448279215,-9.58700420003988,6.467999999993481
-0.1013,1.0189,-0.1241,0.164,0.1868,0.015,-0.9538,-0.6125,-5.7312,-6.932367724608261,-5.630167061534033,-9.591904200040878,6.475999999995111
-0.1041,1.0204,-0.1226,0.1632,0.1878,0.0091,-0.9887,-0.9013,-5.88,-6.874172280831374,-5.662976977620797,-9.599114600042347,6.48399999999674
-0.1028,1.0169,-0.1197,0.1632,0.1878,0.0091,-0.9887,-0.8225,-6.0113,-6.758944165066635,-5.6716157757074015,-9.605694600043687,6.49199999999837
-0.1025,1.0163,-0.1211,0.1632,0.1878,0.0091,-0.7525,-0.8225,-6.0113,-6.784195523459383,-5.677441241314878,-9.612274600045028,6.5
-0.1046,1.0172,-0.1195,0.1651,0.188,0.01,-1.015,-0.8225,-6.3963,-6.723920876894169,-5.707697429776961,-9.618854600040384,6.507999999994354
-0.1046,1.0172,-0.1199,0.1651,0.188,0.01,-0.6562,-1.1463,-6.5538,-6.723000573052329,-5.743087050823657,-9.628025000042253,6.515999999995984
-0.103,1.0197,-0.1199,0.1652,0.1872,0.0118,-0.6562,-1.1463,-6.5538,-6.711486072442517,-5.7389568188805375,-9.637195400044122,6.5239999999976135
-0.1011,1.0172,-0.1229,0.1652,0.1872,0.0118,-0.5863,-0.8575,-6.0813,-6.832405480016946,-5.732148877716946,-9.64405540004552,6.531999999999243
-0.1031,1.0192,-0.1213,0.1652,0.1872,0.0118,-0.875,-1.0675,-6.09,-6.8003733893237515,-5.7323755368813725,-9.65259540004726,6.540000000000873
-0.1038,1.0183,-0.1158,0.1638,0.1877,0.0113,-0.7788,-1.3038,-6.3437,-6.5818547045001505,-5.740581834460862,-9.663025800039899,6.547999999995227
-0.1038,1.0141,-0.1171,0.1638,0.1877,0.0113,-0.7788,-1.3038,-6.3437,-6.585365107346265,-5.7511149767733105,-9.673456200042024,6.555999999996857
-0.1038,1.0141,-0.1171,0.1646,0.1876,0.0095,-0.8925,-1.5225,-6.2213,-6.586436897567875,-5.754687921654138,-9.685636200044504,6.563999999998487
-0.1045,1.0149,-0.1229,0.1646,0.1876,0.0095,-0.3325,-1.2687,-6.09,-6.793993403079412,-5.7594316593629244,-9.694517100050929,6.571000000003551
-0.1032,1.0188,-0.1175,0.1646,0.1876,0.0095,-0.2275,-1.6013,-5.985,-6.656568689229774,-5.757549353010578,-9.70732750005354,6.5790000000051805
-0.1033,1.0188,-0.1203,0.1667,0.189,0.0061,-0.2275,-1.6013,-5.985,-6.706249845333717,-5.756467525521641,-9.720137900044499,6.586999999999534
-0.1035,1.0208,-0.1182,0.1667,0.189,0.0061,-0.875,-1.925,-5.8888,-6.6345873359986784,-5.755397938985323,-9.73553790003363,6.594999999993888
-0.1035,1.0208,-0.1207,0.1647,0.1882,0.015,-0.7262,-1.5137,-6.0287,-6.710101662973485,-5.754775765995472,-9.747647500036098,6.602999999995518
-0.1021,1.0207,-0.1207,0.1647,0.1882,0.015,-0.5512,-1.995,-6.6325,-6.733066726540395,-5.728218204403482,-9.76360750003935,6.610999999997148
-0.1047,1.0222,-0.1198,0.166,0.1867,0.0146,-0.5512,-1.995,-6.6325,-6.700174208519479,-5.754356711143847,-9.779567500042603,6.618999999998778
-0.1038,1.0225,-0.1167,0.166,0.1867,0.0146,-0.5688,-2.1088,-6.5538,-6.571863966376108,-5.755814238630965,-9.79643790004604,6.6270000000004075
-0.1069,1.0202,-0.1172,0.166,0.1867,0.0146,-0.9187,-2.1525,-6.5887,-6.558718353664098,-5.812751735172215,-9.813657900033887,6.634999999994761
-0.1064,1.0169,-0.1188,0.166,0.1888,0.0106,-0.8662,-1.785,-6.2038,-6.632703821269147,-5.818726040256328,-9.827937900036796,6.642999999996391
-0.1064,1.0169,-0.1188,0.166,0.1888,0.0106,-0.8662,-1.785,-6.2038,-6.6544045631124815,-5.824403920259134,-9.842217900039705,6.650999999998021
-0.1066,1.0199,-0.1175,0.1662,0.187,0.0166,-0.9275,-1.8112,-6.3175,-6.595688191395548,-5.839140367185439,-9.856707500042656,6.658999999999651
-0.1065,1.0167,-0.1189,0.1662,0.187,0.0166,-0.665,-2.205,-5.88,-6.6470223653741325,-5.860634355946817,-9.87434750004625,6.667000000001281
-0.1061,1.017,-0.1177,0.1662,0.187,0.0166,-0.665,-2.205,-6.0725,-6.615770088313106,-5.864744469054441,-9.8919875000338,6.674999999995634
-0.1066,1.0191,-0.1181,0.1654,0.1874,0.0078,0.1312,-2.135,-6.0725,-6.612582457116062,-5.869683404659826,-9.90906750003728,6.682999999997264
-0.1066,1.0191,-0.1202,0.1654,0.1874,0.0078,-0.3762,-1.6888,-5.6438,-6.687674892676713,-5.890242065107349,-9.922577900040032,6.690999999998894
-0.1046,1.0179,-0.1202,0.1658,0.187,0.0123,-0.4288,-1.7413,-5.8187,-6.718847933982279,-5.874434576032773,-9.93650830004287,6.699000000000524
-0.1027,1.0203,-0.1196,0.1658,0.187,0.0123,-0.4288,-1.7413,-5.8187,-6.696870197515548,-5.833120551329505,-9.950438700045709,6.707000000002154
-0.1004,1.0196,-0.1189,0.1658,0.187,0.0123,-0.315,-1.75,-6.2125,-6.667353314727822,-5.81894315744268,-9.964438700035828,6.7149999999965075
-0.1032,1.0163,-0.1228,0.1657,0.1886,0.0138,-0.35,-1.5838,-6.2562,-6.8128311469981755,-5.813041881190966,-9.97710910003841,6.722999999998137
-0.1039,1.0179,-0.1196,0.1657,0.1886,0.0138,-0.1488,-1.3737,-6.125,-6.742759862695024,-5.812409094663959,-9.988098700040648,6.730999999999767
-0.1039,1.0179,-0.1196,0.1658,0.1885,0.0094,-0.1488,-1.3737,-6.125,-6.716729946744388,-5.811792699922316,-9.999088300042887,6.739000000001397
-0.1058,1.018,-0.12,0.1658,0.1885,0.0094,0.2975,-1.295,-5.95,-6.720151696723285,-5.825399638556963,-10.009448300044998,6.747000000003027
-0.1074,1.0201,-0.1206,0.1658,0.1885,0.0094,0.1488,-1.4175,-5.8888,-6.733121333427813,-5.855264834377769,-10.020788300047307,6.755000000004657
-0.1094,1.0187,-0.1214,0.1657,0.1892,0.013,-0.5425,-1.3563,-5.8012,-6.77560382416798,-5.915357952423799,-10.03163870003965,6.7629999999990105
-0.1086,1.0172,-0.1249,0.1657,0.1892,0.013,-0.5425,-1.3563,-5.8012,-6.927410498374305,-5.950017766461067,-10.04248910004186,6.77100000000064
-0.1086,1.0172,-0.1228,0.1665,0.1874,0.0125,-0.63,-1.5313,-6.09,-6.897432674478189,-5.955843165480589,-10.054739500044356,6.77900000000227
-0.1123,1.0174,-0.1228,0.1665,0.1874,0.0125,-0.2975,-1.925,-6.16,-6.887625786515211,-5.958326789832513,-10.070139500047492,6.7870000000039
-0.1134,1.0174,-0.1219,0.1658,0.1894,0.0114,-0.56,-1.9162,-6.3525,-6.850153361652141,-6.0180254602715735,-10.175530500034109,6.841999999996915
-0.1113,1.0216,-0.126,0.1658,0.1894,0.0114,-0.56,-1.9162,-6.3525,-6.972803378161245,-6.043662750702447,-10.18894390002987,6.848999999994703
-0.103,1.0239,-0.1178,0.1658,0.1894,0.0114,-0.3675,-2.6425,-6.7812,-6.703821025459675,-5.913588437208605,-10.204798900052326,6.855000000003201
-0.1029,1.0195,-0.1222,0.1663,0.188,0.014,-0.315,-2.7213,-6.3875,-6.789114617625965,-5.877163803675331,-10.212962800044089,6.858000000000175
-0.1029,1.0195,-0.1222,0.1663,0.188,0.014,-0.5163,-1.8725,-5.9062,-6.820013530404501,-5.846740237967536,-10.218580300038422,6.860999999997148
-0.1032,1.0178,-0.1181,0.1685,0.185,0.0136,-0.5163,-1.8725,-5.9062,-6.684495888493409,-5.827954353891517,-10.224197800046378,6.864000000001397
-0.1042,1.0148,-0.1182,0.1685,0.185,0.0136,-0.5075,-2.135,-5.9062,-6.657043101620232,-5.827078065640464,-10.230602800039916,6.86699999999837
-0.1064,1.0164,-0.122,0.1685,0.185,0.0136,-0.6125,-2.1875,-5.6262,-6.785131763591481,-5.863854555016288,-10.239352800041699,6.870999999999185
-0.1047,1.0172,-0.1166,0.1666,0.189,0.0155,-0.6125,-2.1875,-5.6175,-6.617121329513177,-5.855121064855054,-10.245915300050994,6.874000000003434
-0.1047,1.0172,-0.1163,0.1666,0.189,0.0155,-0.6125,-1.7062,-5.6175,-6.552486317760439,-5.849495409318364,-10.25103390004583,6.8770000000004075
-0.1054,1.0153,-0.1163,0.1658,0.1879,0.0117,-0.91,-1.54,-5.7312,-6.539781748803509,-5.861042152104321,-10.255653900041168,6.879999999997381
-0.1074,1.0176,-0.1197,0.1658,0.1879,0.0117,-0.7875,-1.19,-6.0813,-6.658093419888907,-5.869109600808642,-10.259223900046225,6.88300000000163
-0.1036,1.0177,-0.1155,0.1658,0.1879,0.0117,-0.7875,-1.19,-6.0813,-6.5298761332063355,-5.862978599829045,-10.267553900043593,6.889999999999418
-0.1081,1.0191,-0.1191,0.1657,0.1886,0.0109,-0.5512,-0.7525,-5.8275,-6.621870522685303,-5.900021914068685,-10.27357390004482,6.898000000001048
-0.1074,1.0196,-0.1168,0.1657,0.1886,0.0109,-0.315,-0.6212,-5.4513,-6.565404272579657,-5.930620499972849,-10.278543500045833,6.9060000000026776
-0.1074,1.0196,-0.1168,0.166,0.1883,0.0126,-0.2713,-0.7962,-5.46,-6.545813148835134,-5.948484400041232,-10.284913100047131,6.914000000004307
-0.1069,1.0189,-0.1156,0.166,0.1883,0.0126,-0.2713,-0.7962,-5.46,-6.498776703296819,-5.94971232989008,-10.291282700042636,6.921999999998661
-0.1114,1.0192,-0.1186,0.166,0.1883,0.0126,-0.1838,-0.245,-5.6087,-6.5865757736011386,-6.0364663006510755,-10.293242700041253,6.929999999993015
-0.1113,1.0205,-0.1179,0.1654,0.188,0.019,-0.3938,-0.4812,-5.1013,-6.589002651021267,-6.111790124337841,-10.297092300042037,6.937999999994645
