AcclX,AcclY,AcclZ,MagX,MagY,MagZ,GyroX,GyroY,GyroZ,Roll,Pitch,Yaw,Time Elapsed(s)
0.2444,0.9332,-0.2569,0.0268,0.1311,-0.0887,1.7763,2.975,-0.0525,0,0,0,0.0
0.2506,0.9396,-0.2568,0.0246,0.1318,-0.0768,1.7763,2.975,-0.0525,0,0,0,0.01599999999598367
0.2584,0.9407,-0.253,0.0246,0.1318,-0.0768,0.875,3.1237,-0.4812,0,0,0,0.01599999999598367
0.2623,0.941,-0.2522,0.0246,0.1318,-0.0768,0.6825,3.1412,-0.6913,0,0,0,0.031000000002677552
0.2622,0.9396,-0.2489,0.0254,0.1306,-0.0834,0.6825,3.1412,-0.9363,0,0,0,0.031000000002677552
0.2622,0.9396,-0.2489,0.0254,0.1306,-0.0834,0.2537,3.0538,-0.9363,0,0,0,0.046999999998661224
0.2622,0.9387,-0.2472,0.0238,0.1319,-0.0898,-0.2275,3.3775,-1.1988,0,0,0,0.046999999998661224
0.256,0.9421,-0.2464,0.0238,0.1319,-0.0898,-0.8838,3.6488,-1.8463,0,0,0,0.06199999999807915
0.2481,0.9443,-0.2472,0.0238,0.1319,-0.0898,-0.8838,3.6488,-1.8463,0,0,0,0.06199999999807915
0.2467,0.9448,-0.243,0.0227,0.1318,-0.0807,-1.5488,3.4388,-2.6775,0,0,0,0.07800000000133878
0.2467,0.9448,-0.2416,0.0227,0.1318,-0.0807,-2.2225,2.8263,-3.6837,0,0,0,0.07800000000133878
0.2427,0.9467,-0.2416,0.023,0.1301,-0.0854,-2.905,2.205,-4.305,0,0,0,0.09399999999732245
0.2403,0.9462,-0.238,0.023,0.1301,-0.0854,-2.905,2.205,-4.305,0,0,0,0.09399999999732245
0.2358,0.9457,-0.2314,0.023,0.1301,-0.0854,-3.0363,0.875,-5.7575,0,0,0,0.10900000000401633
0.2269,0.9414,-0.2336,0.0233,0.1302,-0.0866,-3.4388,0.0437,-6.86,0,0,0,0.10900000000401633
0.2218,0.941,-0.2319,0.0233,0.1302,-0.0866,-3.7887,-1.2775,-7.8663,0,0,0,0.125
0.2218,0.941,-0.2319,0.0241,0.13,-0.0787,-3.7887,-1.2775,-7.8663,0,0,0,0.125
0.2214,0.9407,-0.2306,0.0241,0.13,-0.0787,-4.3575,-2.3187,-8.5312,0,0,0,0.13999999999941792
0.2233,0.9411,-0.2325,0.0241,0.13,-0.0787,-4.2613,-3.7887,-9.4325,0,0,0,0.13999999999941792
0.2322,0.9403,-0.2286,0.0257,0.1303,-0.085,-4.0163,-4.97,-9.6687,0,0,0,0.15600000000267755
0.2364,0.942,-0.2313,0.0257,0.1303,-0.085,-4.0163,-4.97,-9.6687,0,0,0,0.15600000000267755
0.2364,0.942,-0.2273,0.025,0.1299,-0.089,-3.3863,-4.725,-9.3188,0,0,0,0.17199999999866122
0.2408,0.9391,-0.2273,0.025,0.1299,-0.089,-3.0712,-4.5937,-8.5837,0,0,0,0.17199999999866122
0.238,0.9386,-0.2324,0.0257,0.1314,-0.0847,-2.4675,-4.2263,-8.1287,0,0,0,0.1870000000053551
0.2331,0.9418,-0.2336,0.0257,0.1314,-0.0847,-2.4675,-4.2263,-8.1287,0,0,0,0.1870000000053551
0.2314,0.9406,-0.2369,0.0257,0.1314,-0.0847,-1.8025,-4.4887,-7.7,0,0,0,0.20300000000133878
0.2397,0.942,-0.2342,0.0278,0.1314,-0.0816,-1.645,-4.2525,-7.2187,0,0,0,0.20300000000133878
0.2397,0.942,-0.2342,0.0278,0.1314,-0.0816,-1.645,-4.2525,-6.2562,0,0,0,0.2180000000007567
0.2366,0.9457,-0.2293,0.0262,0.131,-0.0774,-1.6275,-3.6137,-6.2562,0,0,0,0.2180000000007567
0.2366,0.94,-0.2315,0.0262,0.131,-0.0774,-0.21,-2.8175,-5.4075,0,0,0,0.23399999999674037
0.2342,0.9368,-0.2357,0.0262,0.131,-0.0774,0.315,-2.5725,-4.9788,0,0,0,0.23399999999674037
0.2344,0.9368,-0.2353,0.0278,0.1307,-0.0821,0.315,-2.5725,-4.9788,0,0,0,0.25
0.2344,0.9368,-0.2435,0.0278,0.1307,-0.0821,0.315,-2.6775,-4.8738,0,0,0,0.2650000000066939
0.2361,0.9355,-0.2435,0.0255,0.1312,-0.0822,0.5163,-2.8175,-4.0163,0,0,0,0.26600000000325963
0.2356,0.9429,-0.2394,0.0255,0.1312,-0.0822,0.8487,-3.4037,-3.8412,0,0,0,0.26600000000325963
0.2388,0.9448,-0.242,0.0255,0.1312,-0.0822,0.8487,-3.4037,-3.8412,0,0,0,0.2819999999992433
0.2406,0.9424,-0.2392,0.0269,0.133,-0.0857,0.9625,-3.8588,-3.85,0,0,0,0.2969999999986612
0.2361,0.9416,-0.2408,0.0269,0.133,-0.0857,1.435,-3.8412,-3.8412,0,0,0,0.2969999999986612
0.2361,0.9416,-0.2408,0.027,0.1307,-0.0865,1.6975,-3.8937,-4.235,0,0,0,0.3129999999946449
0.2342,0.9392,-0.2414,0.027,0.1307,-0.0865,1.6975,-3.8937,-4.235,0,0,0,0.3129999999946449
0.2325,0.9371,-0.2397,0.027,0.1307,-0.0865,1.82,-3.85,-4.1825,0,0,0,0.3289999999979045
0.2344,0.9338,-0.2416,0.0271,0.1306,-0.0879,2.5638,-4.9088,-4.55,0,0,0,0.3289999999979045
0.2367,0.9306,-0.246,0.0271,0.1306,-0.0879,3.045,-4.725,-4.445,0,0,0,0.3440000000045984
0.2367,0.9306,-0.2496,0.0266,0.1311,-0.0856,3.045,-4.725,-4.445,0,0,0,0.3440000000045984
0.2431,0.9324,-0.2496,0.0266,0.1311,-0.0856,2.9838,-4.235,-3.3075,0,0,0,0.3600000000005821
0.2485,0.9337,-0.2481,0.0266,0.1325,-0.084,3.08,-4.1737,-2.8788,0,0,0,0.3600000000005821
0.2485,0.936,-0.2514,0.0259,0.1325,-0.084,2.8437,-4.2175,-2.5638,0,0,0,0.375
0.2494,0.9382,-0.2595,0.0259,0.1325,-0.084,2.8437,-4.2175,-2.5638,0,0,0,0.375
0.2478,0.942,-0.2588,0.0266,0.1302,-0.0874,3.1588,-3.9288,-1.8988,0,0,0,0.39099999999598367
0.2478,0.942,-0.2588,0.0266,0.1302,-0.0874,3.4125,-4.1737,-1.4,0,0,0,0.39099999999598367
0.2459,0.9414,-0.2618,0.0254,0.1306,-0.0854,3.4125,-4.1737,-1.1638,0,0,0,0.40899999999965075
0.2466,0.9378,-0.2611,0.0254,0.1306,-0.0854,2.6513,-4.9262,-1.1638,0,0,0,0.4110000000000582
0.2455,0.9325,-0.262,0.0254,0.1306,-0.0854,2.17,-5.32,-0.6825,0,0,0,0.4110000000000582
0.2467,0.9285,-0.2603,0.0242,0.1317,-0.089,2.2225,-5.9062,-1.0412,0,0,0,0.42599999999947613
0.2467,0.9285,-0.2603,0.0242,0.1317,-0.089,2.2225,-5.9062,-1.0412,0,0,0,0.42599999999947613
0.2475,0.9286,-0.2595,0.0245,0.1306,-0.0849,2.3975,-5.635,-1.3212,0,0,0,0.44200000000273576
0.2541,0.9274,-0.2561,0.0245,0.1306,-0.0849,1.575,-5.3812,-1.5838,0,0,0,0.44200000000273576
0.2522,0.924,-0.2625,0.0245,0.1306,-0.0849,0.8575,-5.5388,-1.9863,0,0,0,0.4570000000021537
0.251,0.9218,-0.261,0.0243,0.1324,-0.0858,0.8575,-5.5388,-1.9863,0,0,0,0.4570000000021537
0.2489,0.9182,-0.2602,0.0243,0.1324,-0.0858,1.1375,-5.6262,-2.6425,0,0,0,0.4730000000054133
0.2489,0.9182,-0.2602,0.0242,0.1304,-0.0848,1.1025,-4.9088,-2.8525,0,0,0,0.4730000000054133
0.2503,0.9152,-0.2633,0.0242,0.1304,-0.0848,1.47,-5.2325,-3.1937,0,0,0,0.488999999994121
0.2469,0.9191,-0.2646,0.0242,0.1304,-0.0848,1.47,-5.2325,-3.1937,0,0,0,0.5040000000008149
0.2479,0.9238,-0.2655,0.0247,0.133,-0.0839,1.5225,-5.635,-3.9638,0,0,0,0.5040000000008149
0.2467,0.9224,-0.2635,0.0247,0.133,-0.0839,2.1263,-6.09,-4.8825,0,0,0,0.5200000000040745
0.2467,0.9224,-0.2791,0.0257,0.1309,-0.0888,2.3187,-6.2125,-5.4862,0,0,0,0.5200000000040745
0.248,0.9185,-0.2659,0.0257,0.1309,-0.0888,2.3187,-6.2125,-5.4862,0,0,0,0.5350000000034925
0.2439,0.9171,-0.2733,0.0257,0.1318,-0.0867,1.9775,-6.5975,-6.1337,0,0,0,0.5350000000034925
0.245,0.9149,-0.2703,0.0252,0.1318,-0.0867,2.5812,-6.9913,-6.93,0,0,0,0.5509999999994761
0.2423,0.9169,-0.271,0.0252,0.1318,-0.0867,3.1762,-7.5075,-7.525,0,0,0,0.5509999999994761
0.248,0.9185,-0.2675,0.0241,0.1298,-0.0802,3.1762,-7.5075,-7.525,0,0,0,0.5669999999954598
0.248,0.9185,-0.2675,0.0241,0.1298,-0.0802,2.3537,-7.5075,-7.805,0,0,0,0.5669999999954598
0.2552,0.9174,-0.2667,0.0258,0.1317,-0.0918,2.94,-8.0675,-7.9275,0,0,0,0.5820000000021537
0.2547,0.9213,-0.2622,0.0258,0.1317,-0.0918,2.94,-8.0675,-7.77,0,0,0,0.5820000000021537
0.2566,0.9272,-0.2578,0.0258,0.1317,-0.0918,2.6337,-7.8663,-7.77,0,0,0,0.5979999999981374
0.2571,0.9346,-0.2531,0.0266,0.1325,-0.0846,3.0013,-8.0763,-7.9887,0,0,0,0.5979999999981374
0.2571,0.9346,-0.2546,0.0266,0.1325,-0.0846,2.5287,-7.7438,-8.5138,0,0,0,0.6129999999975553
0.2569,0.9363,-0.2546,0.0278,0.133,-0.0868,2.5287,-7.7438,-8.5138,0,0,0,0.6129999999975553
0.2493,0.9356,-0.2574,0.0278,0.133,-0.0868,2.3888,-7.2713,-9.5813,0,0,0,0.6290000000008149
0.2417,0.9331,-0.2627,0.0278,0.133,-0.0868,2.5375,-7.4025,-10.045,0,0,0,0.6290000000008149
0.2318,0.9282,-0.2685,0.0298,0.1321,-0.0865,2.6163,-7.91,-10.9462,0,0,0,0.6449999999967986
0.2292,0.921,-0.2716,0.0298,0.1321,-0.0865,2.6163,-7.91,-10.9462,0,0,0,0.6449999999967986
0.2292,0.921,-0.2716,0.0291,0.1334,-0.088,3.7713,-8.9513,-11.935,0,0,0,0.6600000000034925
0.2315,0.9142,-0.2797,0.0291,0.1334,-0.088,4.6463,-10.0363,-12.5037,0,0,0,0.6600000000034925
0.2328,0.917,-0.2843,0.0291,0.1334,-0.088,5.7488,-10.7625,-12.915,0,0,0,0.6759999999994761
0.2428,0.9229,-0.2868,0.0324,0.1338,-0.0836,5.7488,-10.7625,-12.915,0,0,0,0.6759999999994761
0.248,0.9333,-0.2897,0.0324,0.1338,-0.0836,6.93,-10.675,-12.9412,0,0,0,0.690999999998894
0.248,0.9333,-0.2913,0.0335,0.135,-0.0912,6.9475,-10.4213,-12.8275,0,0,0,0.690999999998894
0.2506,0.9381,-0.2913,0.0335,0.135,-0.0912,6.37,-9.1088,-11.8562,0,0,0,0.7070000000021537
0.2488,0.9439,-0.2874,0.0359,0.1358,-0.0838,6.37,-9.1088,-11.8562,0,0,0,0.7070000000021537
0.2497,0.9512,-0.2828,0.0359,0.1358,-0.0838,5.3637,-7.8837,-11.8387,0,0,0,0.7229999999981374
0.2434,0.9578,-0.2875,0.0359,0.1358,-0.0838,3.6225,-6.3437,-11.5937,0,0,0,0.7229999999981374
0.2323,0.9641,-0.2882,0.0348,0.1361,-0.0886,1.575,-5.005,-11.025,0,0,0,0.7380000000048312
0.2323,0.9641,-0.2882,0.0348,0.1361,-0.0886,1.575,-5.005,-11.025,0,0,0,0.7380000000048312
0.2138,0.972,-0.291,0.037,0.1366,-0.0905,-0.5688,-5.1975,-11.9175,0,0,0,0.7540000000008149
0.2042,0.9749,-0.2911,0.037,0.1366,-0.0905,-2.0125,-5.0662,-13.6412,0,0,0,0.7540000000008149
0.1931,0.9767,-0.291,0.037,0.1366,-0.0905,-2.0125,-5.0662,-15.4,0,0,0,0.7690000000002328
0.185,0.9744,-0.2836,0.0391,0.1369,-0.0943,-4.0775,-4.9525,-15.4,0,0,0,0.7690000000002328
0.185,0.9744,-0.2834,0.0391,0.1369,-0.0943,-5.3987,-4.9262,-16.7213,0,0,0,0.7850000000034925
0.1792,0.9746,-0.2834,0.0406,0.1358,-0.0885,-7.56,-4.235,-18.305,0,0,0,0.8009999999994761
0.1804,0.977,-0.2747,0.0406,0.1358,-0.0885,-7.56,-4.235,-18.305,-14.050843121349653,9.31235525519815,0.0,0.8009999999994761
0.1812,0.9744,-0.2691,0.0406,0.1358,-0.0885,-9.2312,-3.9025,-19.4513,-15.314311412127202,10.102882263957994,-0.24195499999250386,0.8629999999975553
0.1809,0.9689,-0.267,0.0419,0.1364,-0.0905,-9.9312,-3.6312,-19.3725,-15.39884460366772,10.196715990978193,-0.24195499999250386,0.8629999999975553
0.1766,0.9622,-0.2691,0.0419,0.1364,-0.0905,-10.2987,-3.185,-19.0487,-15.606331526876865,10.036251334371768,-0.24195499999250386,0.8629999999975553
0.1766,0.9622,-0.2691,0.0462,0.1378,-0.0849,-10.2987,-3.185,-19.0487,-15.623287285510127,10.024695394753982,-0.2929150000028858,0.8790000000008149
0.1729,0.9593,-0.2621,0.0462,0.1378,-0.0849,-9.9838,-3.1325,-18.585,-15.310072415399418,9.87506931424144,-0.2929150000028858,0.8790000000008149
0.1669,0.9557,-0.2681,0.0462,0.1378,-0.0849,-9.3888,-3.2725,-17.4737,-15.638462559604223,9.57157621021983,-0.2929150000028858,0.8790000000008149
0.1701,0.9501,-0.2615,0.0474,0.1386,-0.0936,-7.9275,-3.8063,-15.75,-15.414038551224275,9.772631135033613,-0.2929150000028858,0.8790000000008149
0.1762,0.9508,-0.2589,0.0474,0.1386,-0.0936,-7.9275,-3.8063,-15.75,-15.25060505183878,10.103277272380774,-0.2929150000028858,0.8790000000008149
0.1762,0.9508,-0.2596,0.0486,0.1377,-0.0846,-6.8775,-2.7475,-13.8075,-15.269071439969636,10.132135788105296,-0.33412750000128655,0.8940000000002328
0.179,0.9528,-0.2596,0.0486,0.1377,-0.0846,-5.7488,-2.1088,-12.53,-15.24453919400175,10.254639861136337,-0.33412750000128655,0.8940000000002328
0.1821,0.9543,-0.2556,0.0498,0.1382,-0.0765,-5.1712,-1.4088,-11.3488,-15.02939391144627,10.413165631522574,-0.33412750000128655,0.8940000000002328
0.1881,0.9537,-0.2525,0.0498,0.1382,-0.0765,-5.1712,-1.4088,-11.3488,-14.857433664514522,10.732941228454154,-0.33412750000128655,0.8940000000002328
0.1831,0.9565,-0.2529,0.0498,0.1382,-0.0765,-4.62,-0.3063,-10.255,-14.817384325675539,10.53365565089188,-0.33902830000005635,0.9099999999962165
0.1782,0.9499,-0.2595,0.0506,0.1368,-0.0839,-4.48,0.5425,-10.115,-15.207596170602297,10.313382568963934,-0.33902830000005635,0.9099999999962165
0.1782,0.9499,-0.2595,0.0506,0.1368,-0.0839,-3.6488,1.155,-9.835,-15.266723975448699,10.269577218236105,-0.32170329999232494,0.9250000000029104
0.1707,0.9495,-0.2607,0.0518,0.1364,-0.0782,-3.6488,1.155,-9.835,-15.337645911906016,9.92817990083828,-0.32170329999232494,0.9250000000029104
0.1663,0.9524,-0.2623,0.0518,0.1364,-0.0782,-3.1675,1.3038,-9.6163,-15.3862287008603,9.63940563940804,-0.3008424999975614,0.940999999998894
0.1677,0.9476,-0.2658,0.0518,0.1364,-0.0782,-2.4675,1.4787,-9.7738,-15.604591529312662,9.663482057483895,-0.3008424999975614,0.940999999998894
0.1667,0.9446,-0.2653,0.0523,0.1379,-0.0751,-2.4675,1.4787,-9.7125,-15.668997453988156,9.647217216223282,-0.2771832999927414,0.9570000000021537
0.1667,0.9446,-0.2664,0.0523,0.1379,-0.0751,-1.9338,1.2513,-9.7125,-15.72888217884386,9.641400794454983,-0.2771832999927414,0.9570000000021537
0.167,0.9445,-0.2664,0.0521,0.1385,-0.0821,-1.9162,1.0325,-9.73,-15.745497067471561,9.654141551085317,-0.26169579999334236,0.9720000000015716
0.1649,0.9429,-0.2693,0.0521,0.1385,-0.0821,-0.9975,0.455,-9.7913,-15.873600457642851,9.56909008964436,-0.26169579999334236,0.9720000000015716
0.1634,0.9418,-0.2729,0.0521,0.1385,-0.0821,-0.9975,0.455,-9.7913,-16.062246818479018,9.4843385029685,-0.2544157999951698,0.9879999999975553
0.1662,0.9428,-0.2784,0.0524,0.138,-0.0856,0.3675,1.1725,-8.7937,-16.203642942148388,9.565283695896596,-0.2544157999951698,0.9879999999975553
0.1676,0.943,-0.2826,0.0524,0.138,-0.0856,1.6538,1.2775,-7.7525,-16.40337949077449,9.624632348536885,-0.23525329998661834,1.0030000000042492
0.1676,0.943,-0.2826,0.0537,0.1377,-0.0831,2.4413,0.5688,-7.7263,-16.57099950824378,9.64740217700265,-0.23525329998661834,1.0030000000042492
0.1761,0.9482,-0.2765,0.0537,0.1377,-0.0831,2.4413,0.5688,-7.7263,-16.38242088493745,9.929112534763403,-0.22615249998890283,1.0190000000002328
0.1801,0.9565,-0.2804,0.0537,0.1377,-0.0831,2.7738,0.98,-7.3412,-16.354061122144167,10.09841142105495,-0.22615249998890283,1.0190000000002328
0.1847,0.9618,-0.2813,0.0519,0.1386,-0.095,2.345,1.1988,-6.4138,-16.3240661101884,10.1675961878899,-0.20697169998499518,1.0350000000034925
0.1887,0.9638,-0.2727,0.0519,0.1386,-0.095,1.8025,2.0563,-6.3,-16.08040284552801,10.228090602396446,-0.20697169998499518,1.0350000000034925
0.1887,0.9638,-0.2696,0.0533,0.1408,-0.0795,1.8025,2.0563,-6.3,-15.870531311680052,10.28234138427023,-0.1761271999861921,1.0500000000029104
0.1877,0.9638,-0.2696,0.0533,0.1408,-0.0795,1.3125,2.7387,-5.74,-15.804400000350933,10.383408280904154,-0.1761271999861921,1.0500000000029104
0.1862,0.9603,-0.2707,0.0538,0.1388,-0.0862,0.9275,3.43,-5.5213,-15.803742922982869,10.456795637953858,-0.12124719999996811,1.065999999998894
0.1814,0.9538,-0.2696,0.0538,0.1388,-0.0862,0.63,3.9288,-5.0575,-15.798952854788185,10.411891240411867,-0.12124719999996811,1.065999999998894
0.1773,0.9502,-0.2651,0.0538,0.1388,-0.0862,0.63,3.9288,-5.0575,-15.749430290753493,10.294823128203028,-0.06231519997366919,1.081000000005588
0.1762,0.947,-0.2691,0.053,0.1386,-0.0787,0.8138,3.7713,-4.6638,-15.762006782521281,10.206220583512247,-0.06231519997366919,1.081000000005588
0.1762,0.947,-0.2691,0.053,0.1386,-0.0787,1.0325,3.465,-4.5413,-15.770709604626797,10.169660075985684,-0.006875199987585769,1.0970000000015716
0.1763,0.9468,-0.2694,0.0518,0.1383,-0.0864,1.9338,2.87,-4.0687,-15.826746547198526,10.158970559973309,-0.006875199987585769,1.0970000000015716
0.1806,0.9485,-0.2669,0.0518,0.1383,-0.0864,1.9338,2.87,-4.0687,-15.771576671726972,10.312845361640694,0.03904480000088737,1.1129999999975553
0.1836,0.9497,-0.2669,0.0518,0.1383,-0.0864,1.9162,2.52,-3.5612,-15.734843070860421,10.479043585772823,0.03904480000088737,1.1129999999975553
0.1929,0.9508,-0.2675,0.051,0.1396,-0.073,2.8,1.6187,-3.9375,-15.720973686475894,10.873491701694386,0.06332529999994516,1.1279999999969732
0.1929,0.9508,-0.2688,0.051,0.1396,-0.073,2.8,1.6187,-3.9375,-15.763336503682837,10.993133992038988,0.06332529999994516,1.1279999999969732
0.1993,0.9566,-0.2688,0.0514,0.139,-0.0851,3.0538,0.9013,-4.06,-15.717007173545513,11.22925956152146,0.07774610000288305,1.1440000000002328
0.2001,0.9535,-0.2703,0.0514,0.139,-0.0851,2.4675,1.05,-4.2088,-15.783556139984888,11.351929127727862,0.07774610000288305,1.1440000000002328
0.2011,0.9537,-0.2654,0.0514,0.139,-0.0851,2.03,1.015,-4.5237,-15.662212099290787,11.433346264014009,0.09297110000229225,1.1589999999996508
0.1986,0.9503,-0.2665,0.0521,0.14,-0.089,2.03,1.015,-4.5237,-15.66392918076451,11.398558056326303,0.10921109999821568,1.1749999999956344
0.1965,0.946,-0.2714,0.0521,0.14,-0.089,2.5375,0.7088,-4.5062,-15.875485683305907,11.331692288777809,0.10921109999821568,1.1749999999956344
0.1965,0.946,-0.2714,0.0499,0.1399,-0.0864,1.8813,0.77,-4.7688,-15.939689533579992,11.308189185933852,0.1215311000007256,1.190999999998894
0.1906,0.9446,-0.2719,0.0499,0.1399,-0.0864,1.61,0.2887,-5.2587,-15.987345676270069,11.149402307026083,0.1215311000007256,1.190999999998894
0.191,0.9438,-0.2743,0.0499,0.1399,-0.0864,1.61,0.2887,-5.2587,-16.075061048159768,11.077205684821527,0.12586160000055757,1.205999999998312
0.1857,0.9431,-0.2751,0.0522,0.1397,-0.0938,2.3888,-1.015,-5.7663,-16.185619176816612,10.971272993427977,0.12586160000055757,1.205999999998312
0.1882,0.9442,-0.2724,0.0522,0.1397,-0.0938,2.3012,-0.98,-6.23,-16.13205553839229,10.963103146291504,0.11018159999736313,1.2220000000015716
0.1882,0.9442,-0.2724,0.0498,0.139,-0.0933,2.6075,-1.6013,-6.7987,-16.10747879868908,10.915846968160983,0.11018159999736313,1.2220000000015716
0.1882,0.947,-0.2757,0.0498,0.139,-0.0933,2.6075,-1.6013,-6.7987,-16.185259815649854,10.871907685178579,0.08616209999829522,1.2370000000009895
0.1889,0.9484,-0.2805,0.0498,0.139,-0.087,2.8263,-1.925,-7.14,-16.375445461222792,10.842889612578542,0.08616209999829522,1.2370000000009895
0.1859,0.9515,-0.2781,0.0523,0.1394,-0.087,2.0912,-1.7675,-6.6588,-16.33094115885745,10.769425986123126,0.05788210000539408,1.2529999999969732
0.1837,0.9508,-0.2802,0.0523,0.1394,-0.087,1.3475,-2.03,-7.1137,-16.356862680215972,10.637742969859069,0.05788210000539408,1.2529999999969732
0.1783,0.9501,-0.2832,0.0529,0.1405,-0.0922,1.3475,-2.03,-7.1137,-16.4268724362109,10.42212380843233,0.025402099998777038,1.2690000000002328
0.1783,0.9501,-0.2832,0.0529,0.1405,-0.0922,1.3825,-2.2575,-7.2362,-16.47949335114568,10.304734047739501,0.025402099998777038,1.2690000000002328
0.1763,0.9509,-0.283,0.0522,0.1398,-0.0795,1.1463,-2.4325,-7.2187,-16.495713270471093,10.187413876277388,-0.01108539999980706,1.2839999999996508
0.1768,0.954,-0.2819,0.0522,0.1398,-0.0795,1.1463,-2.4325,-6.9037,-16.489911418663727,10.140779518864099,-0.01108539999980706,1.2839999999996508
0.1756,0.9561,-0.2825,0.0522,0.1398,-0.0795,1.0675,-2.24,-6.9037,-16.486590121613034,10.076327351589393,-0.04692540000710863,1.3000000000029104
0.1758,0.9598,-0.2848,0.0532,0.139,-0.097,0.6037,-2.66,-7.0087,-16.496751210580005,10.022728186905546,-0.04692540000710863,1.3000000000029104
0.1758,0.9598,-0.2848,0.0532,0.139,-0.097,0.035,-2.5025,-6.2562,-16.5111651250918,10.017315436257851,-0.08446290000565199,1.3150000000023283
0.1804,0.9624,-0.2774,0.0542,0.1395,-0.0886,0.035,-2.5025,-6.2562,-16.306055361824768,10.033806862113908,-0.08446290000565199,1.3150000000023283
0.18,0.9579,-0.279,0.0542,0.1395,-0.0886,-0.6212,-3.1937,-6.58,-16.26510254347621,10.090668271169056,-0.13556209999282504,1.330999999998312
0.1757,0.959,-0.2841,0.0542,0.1395,-0.0886,-1.155,-2.7738,-6.51,-16.425223338090465,10.057825695411754,-0.13556209999282504,1.330999999998312
0.1784,0.9566,-0.2813,0.0533,0.1402,-0.0788,-1.3825,-2.66,-6.5188,-16.398246131626482,10.080433433099559,-0.17812210000149564,1.3470000000015716
0.1784,0.9591,-0.2793,0.0533,0.1402,-0.0788,-1.3825,-2.66,-6.5188,-16.284938479530357,10.092308027724263,-0.17812210000149564,1.3470000000015716
0.177,0.9591,-0.2793,0.0534,0.1415,-0.0876,-1.6187,-2.7037,-6.6675,-16.24984114767034,10.077388411495138,-0.21867759999992187,1.3620000000009895
0.1764,0.9571,-0.283,0.0534,0.1415,-0.0876,-1.855,-2.59,-6.2737,-16.41354502150233,10.071966858967023,-0.21867759999992187,1.3620000000009895
0.1804,0.9557,-0.281,0.0534,0.1415,-0.0876,-2.0825,-2.0387,-6.9388,-16.391852633582953,10.156228012084622,-0.2512968000065673,1.3780000000042492
0.1826,0.9558,-0.2776,0.0536,0.1415,-0.0848,-2.0825,-2.0387,-6.9388,-16.24416165268964,10.261010709800171,-0.2512968000065673,1.3780000000042492
0.179,0.9552,-0.2832,0.0536,0.1415,-0.0848,-2.2225,-1.9775,-6.7812,-16.44927136117087,10.232115410019986,-0.28095929999102803,1.3929999999963911
0.179,0.9552,-0.2832,0.0551,0.141,-0.0916,-2.6775,-1.7938,-7.14,-16.50010499834831,10.209021942512166,-0.28095929999102803,1.3929999999963911
0.1814,0.9577,-0.278,0.0551,0.141,-0.0916,-2.7125,-1.9075,-6.7463,-16.25423895933701,10.246072980642879,-0.3114792999972458,1.4089999999996508
0.1829,0.9584,-0.2789,0.0551,0.141,-0.0887,-2.7125,-1.9075,-6.7463,-16.231525966718454,10.296737314573607,-0.3114792999972458,1.4089999999996508
0.1804,0.9593,-0.2771,0.0552,0.1413,-0.0887,-3.3512,-1.54,-7.3763,-16.13435631248326,10.266188457719863,-0.3361193000022656,1.4250000000029104
0.1795,0.9577,-0.2733,0.0552,0.1413,-0.0887,-3.4388,-1.0675,-7.7263,-15.965742689867126,10.236130892616934,-0.3361193000022656,1.4250000000029104
0.181,0.954,-0.2751,0.0553,0.1422,-0.0854,-3.3688,-0.9887,-7.98,-16.06309521110785,10.2976664277279,-0.35193849999829463,1.440999999998894
0.181,0.954,-0.2751,0.0553,0.1422,-0.0854,-3.3688,-0.9887,-7.98,-16.081439179253056,10.319509204095441,-0.35193849999829463,1.440999999998894
0.1748,0.9534,-0.2748,0.0558,0.1402,-0.083,-3.325,-0.8313,-7.91,-16.07918214306691,10.110820970135686,-0.36523930000100435,1.4570000000021537
0.1784,0.9536,-0.2718,0.0558,0.1402,-0.083,-3.255,-0.7088,-8.0937,-15.941677445929635,10.169087680247214,-0.36523930000100435,1.4570000000021537
0.184,0.9532,-0.2723,0.0558,0.1402,-0.083,-3.255,-0.7088,-7.9538,-15.942756798419758,10.391031741581328,-0.37587130000059177,1.4720000000015716
0.1809,0.9547,-0.2728,0.0562,0.1411,-0.0902,-2.7037,0.14,-7.9538,-15.946071133473314,10.349014906651398,-0.37587130000059177,1.4720000000015716
0.1809,0.9547,-0.2728,0.0562,0.1411,-0.0902,-3.1675,1.0063,-7.2713,-15.946802937002802,10.336681312009501,-0.3597705000046334,1.4879999999975553
0.1807,0.9585,-0.2685,0.0565,0.1406,-0.0881,-3.4738,0.9975,-6.93,-15.703942600286997,10.31605807607857,-0.3597705000046334,1.4879999999975553
0.1809,0.9587,-0.2661,0.0565,0.1406,-0.0881,-3.4738,0.9975,-6.93,-15.548040900617979,10.31121417991854,-0.3438105000013819,1.504000000000815
0.177,0.953,-0.2671,0.0565,0.1406,-0.0881,-3.7975,1.855,-6.615,-15.637789365068787,10.257734226580421,-0.3438105000013819,1.504000000000815
0.1753,0.9525,-0.2649,0.058,0.1407,-0.0795,-3.9725,2.2925,-6.86,-15.558034321696042,10.174352075676534,-0.30942300000271633,1.5190000000002328
0.1753,0.9531,-0.2658,0.058,0.1407,-0.0795,-3.5087,2.4938,-6.7638,-15.57816653070511,10.126394796905773,-0.30942300000271633,1.5190000000002328
0.173,0.9531,-0.2658,0.0567,0.14,-0.0853,-3.5087,2.4938,-6.7638,-15.581862576335167,10.047946783553773,-0.2695221999945875,1.5350000000034925
0.1737,0.9522,-0.2619,0.0567,0.14,-0.0853,-3.2375,2.5025,-6.8425,-15.4180080438057,10.01867076073218,-0.2695221999945875,1.5350000000034925
0.1718,0.9547,-0.2623,0.0567,0.14,-0.0853,-2.7825,2.8,-6.6762,-15.374431761898006,9.959431397883971,-0.2275221999962173,1.5500000000029104
0.1728,0.9564,-0.2605,0.057,0.139,-0.0909,-2.31,2.2838,-6.825,-15.268861775616335,9.931296940888105,-0.1909814000053898,1.565999999998894
0.1728,0.9599,-0.2658,0.057,0.139,-0.0909,-2.31,2.2838,-6.825,-15.42847622770787,9.895840294258482,-0.1909814000053898,1.565999999998894
0.1728,0.9599,-0.2658,0.0564,0.1405,-0.0797,-2.3975,2.3012,-6.7725,-15.466281388819027,9.875559773913102,-0.15416219999788874,1.5820000000021537
0.1764,0.9607,-0.2611,0.0564,0.1405,-0.0797,-2.3537,2.66,-6.3263,-15.265602595762168,9.89977473344902,-0.15416219999788874,1.5820000000021537
0.1746,0.9633,-0.2596,0.0564,0.1405,-0.0797,-2.6163,2.3275,-6.8688,-15.122586490138708,9.91092087176821,-0.11924969999924352,1.5970000000015716
0.1733,0.9627,-0.2549,0.0565,0.1398,-0.089,-2.6163,2.3275,-6.8688,-14.89442948544731,9.89466608950524,-0.11924969999924352,1.5970000000015716
0.1701,0.9581,-0.2541,0.0565,0.1398,-0.089,-2.2487,2.66,-6.8863,-14.863349700110438,9.828676216904766,-0.0766896999905729,1.6130000000048312
0.1701,0.9575,-0.2543,0.0575,0.1402,-0.0762,-2.555,2.7037,-6.5363,-14.871375686546994,9.805259213745328,-0.0766896999905729,1.6130000000048312
0.1668,0.9575,-0.2543,0.0575,0.1402,-0.0762,-0.315,2.3975,-6.2913,-14.872653587966344,9.776998316882034,-0.04072720000941254,1.6279999999969732
0.164,0.9564,-0.2526,0.0577,0.1411,-0.0844,-2.1613,2.3975,-6.2913,-14.813836337579408,9.735608428309396,-0.04072720000941254,1.6279999999969732
0.1607,0.9539,-0.2509,0.0577,0.1411,-0.0844,-1.5662,1.3125,-6.475,-14.758544306461266,9.620926751069671,-0.019727200005134275,1.6440000000002328
0.1634,0.9542,-0.2503,0.0577,0.1411,-0.0844,-0.7088,0.5075,-6.0988,-14.721079099886587,9.607940720572355,-0.019727200005134275,1.6440000000002328
0.1629,0.9559,-0.2528,0.0578,0.1419,-0.0794,-0.7088,0.5075,-6.0988,-14.778563113984575,9.59275767945674,-0.011607200003480015,1.6600000000034925
0.1629,0.9559,-0.2528,0.0578,0.1419,-0.0794,-0.2887,-0.2625,-6.0462,-14.797792072386173,9.567984025226501,-0.011607200003480015,1.6600000000034925
0.1665,0.9595,-0.252,0.0571,0.1415,-0.0822,-0.21,-0.6125,-5.7488,-14.753879043804329,9.556128360774604,-0.02079469999866697,1.6749999999956344
0.171,0.9576,-0.2508,0.0571,0.1415,-0.0822,-0.3237,-0.4725,-5.1537,-14.710649243044466,9.679036768433003,-0.02079469999866697,1.6749999999956344
0.1699,0.9608,-0.2554,0.0571,0.1415,-0.0822,-0.3237,-0.4725,-5.1537,-14.8085485742962,9.688556547855255,-0.029299700000399664,1.6929999999993015
0.1698,0.9609,-0.2568,0.0563,0.1398,-0.0753,0.0962,-0.3413,-5.4687,-14.878964058911945,9.688336719918695,-0.029299700000399664,1.6929999999993015
0.1698,0.9573,-0.2604,0.0563,0.1398,-0.0753,0.175,-0.805,-5.5475,-15.02534504213865,9.697479776934342,-0.04137470000578824,1.7080000000059954
0.1693,0.9573,-0.2604,0.0563,0.1393,-0.0838,-0.2537,-1.7325,-5.1188,-15.129634789785104,9.690739040643676,-0.04137470000578824,1.7080000000059954
0.1663,0.9595,-0.2582,0.0563,0.1393,-0.0838,-0.2537,-1.7325,-5.1188,-15.092541043037563,9.593969366332457,-0.06909469999882994,1.724000000001979
0.1649,0.9588,-0.2589,0.0563,0.1393,-0.0838,-0.3938,-1.6625,-4.8475,-15.103034346413404,9.49930402726419,-0.06909469999882994,1.724000000001979
0.1668,0.9593,-0.2585,0.057,0.1414,-0.0861,-0.1312,-2.1088,-5.5125,-15.091711860552124,9.51155941870626,-0.10283550000570385,1.7400000000052387
0.1675,0.9607,-0.2624,0.057,0.1414,-0.0861,0.0525,-2.7912,-5.9325,-15.178657091253172,9.518247186928464,-0.10283550000570385,1.7400000000052387
0.1675,0.9607,-0.2624,0.057,0.1414,-0.094,0.0525,-2.7912,-5.9325,-15.224763317287913,9.523683084294875,-0.1447034999837705,1.7549999999973807
0.1692,0.9628,-0.259,0.057,0.1414,-0.094,-0.0875,-2.7037,-5.67,-15.139580260554718,9.559302109092439,-0.1447034999837705,1.7549999999973807
0.1711,0.9609,-0.2574,0.057,0.1414,-0.094,-0.56,-2.59,-5.5125,-15.053456095686728,9.638102390025011,-0.18614349999221294,1.7710000000006403
0.1718,0.9575,-0.2576,0.057,0.1422,-0.0785,-0.6913,-2.5113,-5.6175,-15.05625494484081,9.705729391943988,-0.18614349999221294,1.7710000000006403
0.1703,0.9594,-0.262,0.057,0.1422,-0.0785,-0.6913,-2.5113,-5.6175,-15.191391229612318,9.709665897837981,-0.22381300000902327,1.7860000000073342
0.1703,0.9578,-0.2607,0.0567,0.141,-0.0866,-0.5425,-2.24,-5.6175,-15.21220610678059,9.718602143611193,-0.22381300000902327,1.7860000000073342
0.1706,0.9578,-0.2607,0.0567,0.141,-0.0866,-0.7788,-1.7763,-5.3812,-15.221089433199682,9.7331706811198,-0.2522337999889648,1.8019999999960419
0.1692,0.957,-0.2612,0.0586,0.1419,-0.0869,-0.7788,-1.7763,-5.4425,-15.249637207598022,9.710668309434546,-0.2522337999889648,1.8019999999960419
0.1734,0.9565,-0.2596,0.0586,0.1419,-0.0869,-0.4288,-1.7587,-5.4425,-15.21210005622359,9.79992261519016,-0.2803729999946975,1.8179999999993015
0.1729,0.9546,-0.2646,0.0586,0.1419,-0.0869,-0.7175,-1.5137,-5.3987,-15.386937351370527,9.843606886267967,-0.2803729999946975,1.8179999999993015
0.1737,0.9579,-0.2611,0.0586,0.141,-0.0818,-0.56,-1.6712,-5.6175,-15.303026244624045,9.871814338757018,-0.30544099999372476,1.8329999999987194
0.1737,0.9579,-0.2611,0.0586,0.141,-0.0818,-0.56,-1.6712,-5.6175,-15.269438411358365,9.89006808058726,-0.30544099999372476,1.8329999999987194
0.1774,0.962,-0.2642,0.0559,0.1413,-0.086,0.1225,-1.4088,-5.4075,-15.308718194410336,9.973138348478441,-0.32798179999831695,1.849000000001979
0.1816,0.9615,-0.2613,0.0559,0.1413,-0.086,-0.9187,-1.47,-5.6,-15.240442727204949,10.101437190573892,-0.32798179999831695,1.849000000001979
0.1775,0.9619,-0.2652,0.0559,0.1413,-0.086,-0.7613,-0.9625,-5.6962,-15.349559576261838,10.096849232628722,-0.3424192999977567,1.864000000001397
0.1774,0.962,-0.2623,0.059,0.1417,-0.082,-0.7613,-0.9625,-5.6962,-15.287881533154989,10.094062180543261,-0.3424192999977567,1.864000000001397
0.1774,0.962,-0.2588,0.059,0.1417,-0.082,-0.8138,-0.6825,-5.7225,-15.141136569504232,10.095010417095907,-0.35333929999501557,1.8799999999973807
0.1781,0.9601,-0.2588,0.057,0.1406,-0.0834,-0.6562,-0.0263,-5.6175,-15.107142181393977,10.116000885260016,-0.3537600999951013,1.8960000000006403
0.1782,0.9586,-0.2613,0.057,0.1406,-0.0834,-1.1988,-0.2187,-5.425,-15.202780088951112,10.138087809309887,-0.3537600999951013,1.8960000000006403
0.1751,0.9567,-0.2622,0.057,0.1406,-0.0834,-1.1988,-0.2187,-5.425,-15.287093508596588,10.083913723960363,-0.35704059999497395,1.9110000000000582
0.1737,0.9596,-0.2609,0.0554,0.141,-0.0882,-1.3737,-0.2713,-5.7137,-15.233378102267784,10.029399340585307,-0.35704059999497395,1.9110000000000582
0.1761,0.9581,-0.2598,0.0554,0.141,-0.0882,-0.875,-0.035,-6.1163,-15.19355544993,10.030729824182085,-0.35760059999508803,1.9270000000033178
0.1761,0.9581,-0.2598,0.0552,0.1405,-0.0786,-1.3563,0.4462,-5.7225,-15.17825964697309,10.039477209590448,-0.35760059999508803,1.9270000000033178
0.1735,0.9589,-0.262,0.0552,0.1405,-0.0786,-1.3563,0.4462,-5.7225,-15.250450018922177,9.997022073349328,-0.3509075999985943,1.9419999999954598
0.1756,0.9572,-0.2563,0.0552,0.1405,-0.0786,-1.3825,0.2625,-5.5912,-15.068356008550154,10.01593125145725,-0.3509075999985943,1.9419999999954598
0.1774,0.9573,-0.2585,0.0587,0.1418,-0.0855,-1.015,0.8138,-5.9588,-15.096687922409531,10.037494036112689,-0.33788679999594157,1.9579999999987194
0.1746,0.957,-0.2586,0.0587,0.1418,-0.0855,-1.0588,1.1113,-5.5475,-15.113083219573666,10.01900233928613,-0.33788679999594157,1.9579999999987194
0.1746,0.957,-0.2577,0.058,0.1418,-0.0898,-1.0588,1.1113,-5.5475,-15.085084558281038,10.008436238034244,-0.32010599999231915,1.974000000001979
0.1712,0.9565,-0.2577,0.058,0.1418,-0.0898,-0.945,1.1812,-5.1275,-15.080838704958387,9.905053861544259,-0.32010599999231915,1.974000000001979
0.1717,0.9519,-0.2586,0.0575,0.1413,-0.0814,-0.3325,0.84,-5.1975,-15.146723495710132,9.889984494176034,-0.3075059999928081,1.989000000001397
0.1693,0.9516,-0.2586,0.0575,0.1413,-0.0814,-0.3325,0.84,-5.4775,-15.17829524937628,9.829734520213043,-0.3075059999928081,1.989000000001397
0.1704,0.9573,-0.2613,0.0575,0.1413,-0.0814,-0.5337,0.9187,-5.4775,-15.23127783691615,9.794759106326996,-0.29280679998981346,2.0050000000046566
0.172,0.9565,-0.2614,0.0558,0.1414,-0.0862,-0.2187,0.63,-5.285,-15.260103815259292,9.816226328373434,-0.29280679998981346,2.0050000000046566
0.172,0.9565,-0.2614,0.0558,0.1414,-0.0862,0.0525,0.665,-5.18,-15.271806768555956,9.828348134261544,-0.28283179999503905,2.0199999999967986
0.1772,0.9606,-0.2557,0.0579,0.1413,-0.0872,0.0525,0.665,-5.18,-15.099889236220173,9.96667219626329,-0.28283179999503905,2.0199999999967986
0.1785,0.9631,-0.2597,0.0579,0.1413,-0.0872,-0.1488,0.5512,-5.6788,-15.095200483762406,10.025011232897278,-0.27401259999324235,2.036000000000058
0.1784,0.9618,-0.2624,0.0579,0.1413,-0.0872,-0.6125,1.12,-5.8538,-15.195488780426565,10.053438737254673,-0.27401259999324235,2.036000000000058
0.1785,0.9612,-0.2572,0.0554,0.1409,-0.0758,-1.26,0.8138,-5.9763,-15.047637427435061,10.071813918264318,-0.26099179999058963,2.052000000003318
0.1785,0.9612,-0.2575,0.0554,0.1409,-0.0758,-1.26,0.8138,-5.9763,-15.012877811419315,10.087178792078372,-0.26099179999058963,2.052000000003318
0.1759,0.9589,-0.2575,0.0566,0.1411,-0.0848,-1.0762,0.9363,-6.02,-15.025262907927523,10.08208780794158,-0.24694729999113463,2.0670000000027358
0.1718,0.9561,-0.2554,0.0566,0.1411,-0.0848,-1.47,1.295,-6.3963,-14.97634432886632,10.037862768285935,-0.24694729999113463,2.0670000000027358
0.1697,0.9586,-0.2569,0.0566,0.1411,-0.0848,-1.575,1.3212,-6.6413,-14.9950182046257,9.929630138041027,-0.225808099996441,2.0829999999987194
0.1682,0.9589,-0.2556,0.0579,0.1418,-0.0922,-1.575,1.3212,-6.6413,-14.945263526272276,9.829329398175881,-0.225808099996441,2.0829999999987194
0.1691,0.9581,-0.2544,0.0579,0.1418,-0.0922,-1.3475,1.1113,-6.0637,-14.893154814547465,9.815917020886259,-0.20913859999708787,2.0979999999981374
0.1691,0.9581,-0.2544,0.0578,0.1402,-0.0819,-1.5488,0.6825,-6.3,-14.876895333117108,9.79958759690635,-0.20913859999708787,2.0979999999981374
0.1692,0.9582,-0.2535,0.0578,0.1402,-0.0819,-1.6888,1.0325,-5.9675,-14.834665660018066,9.78126915577284,-0.1926185999937223,2.114000000001397
0.168,0.9607,-0.2503,0.0578,0.1402,-0.0819,-1.6888,1.0325,-5.9675,-14.666979818365522,9.752434187270026,-0.1926185999937223,2.114000000001397
0.166,0.9584,-0.2555,0.0554,0.1405,-0.0756,-1.2163,0.7,-6.615,-14.844794560609161,9.674134453712282,-0.18141859999144055,2.1300000000046566
0.1653,0.9596,-0.2504,0.0554,0.1405,-0.0756,-0.7875,0.0,-6.8513,-14.705485957039162,9.58802586302944,-0.18141859999144055,2.1300000000046566
0.1653,0.9596,-0.2504,0.0574,0.1418,-0.0845,-0.7875,0.3675,-6.7112,-14.654377768982185,9.543730683913079,-0.17590609999432838,2.1449999999967986
0.167,0.9598,-0.2538,0.0574,0.1418,-0.0845,-0.9887,0.3675,-6.7112,-14.757958466131248,9.54542026090024,-0.17590609999432838,2.1449999999967986
0.1674,0.9626,-0.251,0.0574,0.1406,-0.0848,-0.595,0.07,-6.5975,-14.671174772829936,9.547441081580894,-0.17478609999410022,2.161000000000058
0.1687,0.9606,-0.2546,0.0562,0.1406,-0.0848,-0.4375,-0.105,-6.9125,-14.771551248583139,9.584774087172715,-0.17478609999410022,2.161000000000058
0.1682,0.9617,-0.257,0.0562,0.1406,-0.0848,-0.4375,-0.105,-6.9125,-14.881732261195898,9.587285337499726,-0.1763610999940391,2.175999999999476
0.1672,0.9623,-0.2547,0.0582,0.1411,-0.0886,-0.3588,0.3325,-6.2213,-14.849701786138311,9.58438294691197,-0.1763610999940391,2.175999999999476
0.1672,0.9623,-0.2547,0.0582,0.1411,-0.0886,-0.2013,0.7175,-6.1775,-14.83654904729898,9.583664086226248,-0.1648810999917003,2.1920000000027358
0.1689,0.9618,-0.2497,0.0578,0.143,-0.0896,0.1663,0.5512,-5.8187,-14.713316389892423,9.599767275233011,-0.1648810999917003,2.1920000000027358
0.1684,0.9611,-0.2534,0.0578,0.143,-0.0896,0.1663,0.5512,-5.8187,-14.73812519673811,9.603943502258904,-0.15606189999391412,2.2079999999987194
0.1665,0.9617,-0.2567,0.0578,0.143,-0.0896,0.1925,0.84,-5.5563,-14.82655693838594,9.563267812718554,-0.15606189999391412,2.2079999999987194
0.1664,0.9612,-0.2553,0.0593,0.1412,-0.0831,-0.0175,0.9887,-5.4862,-14.85005364944189,9.537131838214385,-0.1412313999944896,2.2229999999981374
0.1664,0.9612,-0.2553,0.0593,0.1412,-0.0831,-0.4025,0.7,-5.2675,-14.864135271989106,9.518884543600478,-0.1412313999944896,2.2229999999981374
0.1632,0.9614,-0.2517,0.0583,0.1407,-0.0841,-0.4025,0.7,-5.2675,-14.75355637058216,9.42765193566082,-0.13003139999220786,2.239000000001397
0.167,0.9613,-0.2513,0.0583,0.1407,-0.0841,-0.1925,0.4812,-4.7863,-14.698721796153464,9.493196326721511,-0.13003139999220786,2.239000000001397
0.171,0.9604,-0.2514,0.0583,0.1407,-0.0841,0.035,0.63,-4.5325,-14.68459208648662,9.666710247288432,-0.12058139999257457,2.254000000000815
0.1707,0.9593,-0.2519,0.056,0.1409,-0.084,-0.525,0.56,-4.585,-14.70145751454511,9.727095268156171,-0.12058139999257457,2.254000000000815
0.171,0.96,-0.2565,0.056,0.1409,-0.084,-0.525,0.56,-4.585,-14.854609170862343,9.749862973685694,-0.11162139999074917,2.2700000000040745
0.171,0.96,-0.2565,0.0568,0.1412,-0.0846,-0.3762,0.5425,-4.8475,-14.914051805013816,9.758060546072427,-0.10294139999292803,2.286000000000058
0.1707,0.9627,-0.2517,0.0568,0.1412,-0.0846,0.455,1.3475,-5.0312,-14.828713128069234,9.745391603969955,-0.10294139999292803,2.286000000000058
0.1702,0.9635,-0.2544,0.0568,0.1412,-0.0846,-0.3063,0.56,-4.8913,-14.807623978114453,9.71566020875564,-0.09454139999325399,2.300999999999476
0.1735,0.9614,-0.2504,0.0574,0.1398,-0.091,-0.3063,0.56,-4.8913,-14.69169821378948,9.822326191933,-0.09454139999325399,2.300999999999476
0.1741,0.9621,-0.2542,0.0574,0.1398,-0.091,-0.42,0.8225,-4.585,-14.754146555716634,9.884388698204729,-0.08138139999057295,2.3170000000027358
0.1741,0.9621,-0.2542,0.0587,0.1403,-0.0858,-0.0263,0.4112,-5.0487,-14.776720218962705,9.9051175992633,-0.08138139999057295,2.3170000000027358
0.1732,0.9612,-0.2561,0.0587,0.1403,-0.0858,-0.0263,0.4112,-5.04,-14.846661781460023,9.890329546349294,-0.0752133999908123,2.3320000000021537
0.1751,0.9635,-0.2517,0.0587,0.1403,-0.0653,-0.5688,0.5163,-5.04,-14.722720695956134,9.93380327090987,-0.0752133999908123,2.3320000000021537
0.1735,0.9598,-0.2502,0.0573,0.1401,-0.0805,-1.3913,0.5163,-5.1975,-14.644321328721404,9.92794019133793,-0.06695259998912935,2.3480000000054133
0.1715,0.9592,-0.2519,0.0573,0.1401,-0.0805,-1.05,0.21,-5.355,-14.690982444696907,9.875768862721884,-0.06695259998912935,2.3480000000054133
0.1715,0.957,-0.2486,0.0544,0.1403,-0.0885,-1.05,0.21,-5.355,-14.605081950056457,9.859788933344372,-0.06359259999150073,2.363999999994121
0.1674,0.957,-0.2486,0.0544,0.1403,-0.0885,-1.225,0.105,-5.2587,-14.575536101018132,9.740806639040615,-0.06359259999150073,2.363999999994121
0.1692,0.9579,-0.2496,0.058,0.1403,-0.0838,-0.56,0.1488,-5.3025,-14.59308775022868,9.721827258366309,-0.06136059999050468,2.379000000000815
0.1695,0.9567,-0.2508,0.058,0.1403,-0.0838,-0.8313,-0.5425,-5.6,-14.654754313166249,9.722934060876018,-0.06136059999050468,2.379000000000815
0.1728,0.9584,-0.2491,0.058,0.1403,-0.0838,-0.8313,-0.5425,-5.6,-14.60029050442527,9.786192096411835,-0.07004059999227302,2.3950000000040745
0.1766,0.9581,-0.2498,0.0566,0.1391,-0.0814,-0.8662,-1.0237,-5.4862,-14.608521931384594,9.918062005099209,-0.07004059999227302,2.3950000000040745
0.1766,0.9581,-0.2498,0.0566,0.1391,-0.0814,-0.14,-0.4462,-5.6613,-14.610888676732143,9.983158785310128,-0.0767335999920133,2.4100000000034925
0.1757,0.9615,-0.243,0.0565,0.1398,-0.0831,-0.4812,-0.42,-5.4075,-14.360070682217806,10.01043783514631,-0.0767335999920133,2.4100000000034925
0.1771,0.9582,-0.2456,0.0565,0.1398,-0.0831,-0.4812,-0.42,-5.4075,-14.369542546447727,10.07074207473976,-0.08345359999032645,2.425999999999476
0.171,0.9557,-0.2499,0.0565,0.1398,-0.0831,-1.0063,-0.56,-4.7775,-14.557273999703975,9.925663402299078,-0.08345359999032645,2.425999999999476
0.1685,0.9558,-0.2493,0.0558,0.1413,-0.0816,-0.07,-0.3063,-4.7863,-14.588102130956418,9.78373036322333,-0.08835439998909625,2.44199999999546
0.1685,0.9558,-0.2532,0.0558,0.1413,-0.0816,0.2537,-0.9275,-5.1363,-14.68939128076299,9.726676129409105,-0.08835439998909625,2.44199999999546
0.165,0.9568,-0.2532,0.057,0.1406,-0.0854,0.2537,-0.9275,-5.1363,-14.74349510512574,9.594028360097596,-0.10319439999211956,2.4579999999987194
0.1648,0.9592,-0.251,0.057,0.1406,-0.0854,0.245,-1.7325,-4.9612,-14.71100858530034,9.50835214047551,-0.10319439999211956,2.4579999999987194
0.1657,0.9632,-0.247,0.057,0.1406,-0.0854,0.35,-1.8375,-5.1537,-14.589456299361933,9.484455094324566,-0.13259439999810912,2.474000000001979
0.1674,0.9623,-0.2449,0.055,0.142,-0.0762,0.35,-1.8375,-5.18,-14.474229067622174,9.526460739713716,-0.13259439999810912,2.474000000001979
0.1718,0.9607,-0.2508,0.055,0.142,-0.0762,0.525,-2.0738,-5.18,-14.52009189489974,9.670287974940992,-0.163701399996902,2.489000000001397
0.1718,0.9607,-0.2508,0.0578,0.1401,-0.0854,0.7088,-2.1088,-5.2675,-14.540804253164369,9.739418071594972,-0.163701399996902,2.489000000001397
0.1682,0.9618,-0.2487,0.0578,0.1401,-0.0854,0.9013,-2.7037,-5.565,-14.539273512731668,9.690890400132464,-0.20696060000571506,2.5050000000046566
0.1706,0.9603,-0.2494,0.0578,0.1401,-0.0854,0.9013,-2.7037,-5.565,-14.539965145081798,9.7154434130301,-0.20696060000571506,2.5050000000046566
0.1713,0.9602,-0.2505,0.057,0.1412,-0.0787,0.9625,-2.8263,-5.5125,-14.541897284251565,9.746409927918085,-0.25218139999436373,2.5210000000006403
0.1698,0.9564,-0.2486,0.057,0.1412,-0.0787,0.0175,-2.73,-5.1975,-14.55566847253002,9.748155059146804,-0.25218139999436373,2.5210000000006403
0.1698,0.9564,-0.2542,0.0582,0.141,-0.081,0.175,-2.8612,-5.1363,-14.697976900048769,9.742102017477176,-0.2950993999926983,2.536000000000058
0.1681,0.9577,-0.2542,0.0582,0.141,-0.081,0.175,-2.8612,-5.1363,-14.770326130555418,9.684594487765166,-0.2950993999926983,2.536000000000058
0.1668,0.9578,-0.2557,0.0582,0.1406,-0.0899,-0.28,-3.0538,-5.075,-14.867588647132193,9.61494770125552,-0.34396020000265254,2.552000000003318
0.1687,0.9608,-0.2557,0.0582,0.1406,-0.0899,0.0437,-3.2375,-5.3113,-14.884230483931988,9.62189236942372,-0.34396020000265254,2.552000000003318
0.1715,0.9631,-0.2554,0.0582,0.1406,-0.0899,-0.1225,-3.57,-5.215,-14.867716773595822,9.692085893424123,-0.3975102000005745,2.5670000000027358
0.1766,0.9637,-0.2552,0.0581,0.1416,-0.0785,-0.1225,-3.57,-5.215,-14.849434451497226,9.864060302685209,-0.3975102000005745,2.5670000000027358
0.1766,0.9637,-0.2552,0.0581,0.1416,-0.0785,0.21,-3.2725,-5.6438,-14.84217185920928,9.926055268936194,-0.44987020001124167,2.5830000000059954
0.1781,0.9629,-0.257,0.0569,0.1404,-0.0878,-0.1575,-3.3338,-5.8888,-14.895416695868402,9.970382732551718,-0.44987020001124167,2.5830000000059954
0.1756,0.9617,-0.2538,0.0569,0.1404,-0.0878,-0.5688,-3.22,-5.9675,-14.828279919332319,9.9772350799136,-0.5013901999748805,2.598999999994703
0.1773,0.9589,-0.2527,0.0569,0.1404,-0.0878,-0.5688,-3.22,-5.9675,-14.789375525114744,10.003352908431188,-0.5013901999748805,2.598999999994703
0.1757,0.9579,-0.255,0.0574,0.1421,-0.0841,-0.8925,-2.8175,-5.775,-14.865346507894023,10.016731485523284,-0.5436526999937406,2.614000000001397
0.1757,0.9579,-0.2521,0.0574,0.1421,-0.0841,-0.6037,-2.5463,-5.705,-14.792186595518913,10.029881691106839,-0.5436526999937406,2.614000000001397
0.1747,0.959,-0.2521,0.0574,0.1408,-0.0843,-0.6037,-2.2487,-5.9588,-14.753592693212376,10.023463687714813,-0.5796319000010705,2.6300000000046566
0.1724,0.9588,-0.2519,0.0574,0.1408,-0.0843,-0.6212,-2.2487,-5.9588,-14.733321679914816,9.996688576310856,-0.5796319000010705,2.6300000000046566
0.173,0.9584,-0.2499,0.0574,0.1408,-0.0843,-1.0412,-2.0213,-5.95,-14.654249393733602,9.981100038492922,-0.609951399985187,2.6449999999967986
0.1687,0.9565,-0.2529,0.0594,0.1411,-0.0912,-0.56,-2.2313,-6.16,-14.747763662064635,9.980250716879597,-0.609951399985187,2.6449999999967986
0.1676,0.9572,-0.2536,0.0594,0.1411,-0.0912,-0.56,-2.2313,-6.16,-14.802469878444793,9.979208328545157,-0.6456521999924603,2.661000000000058
0.1676,0.9572,-0.2536,0.0581,0.1403,-0.0838,0.385,-2.345,-6.2038,-14.815475598223564,9.964529184634525,-0.683172199983042,2.676999999996042
0.1673,0.9618,-0.2525,0.0581,0.1403,-0.0838,0.3675,-2.17,-6.1775,-14.777090035495798,9.958525633500729,-0.683172199983042,2.676999999996042
0.1715,0.9623,-0.2516,0.0581,0.1403,-0.0838,0.0,-1.9688,-6.3088,-14.716720531456843,9.936152170464966,-0.7127041999962209,2.6920000000027358
0.1684,0.9628,-0.2531,0.0578,0.1422,-0.0852,0.0,-1.9688,-6.3088,-14.722482079980386,9.893481188697969,-0.7127041999962209,2.6920000000027358
0.1681,0.9604,-0.2536,0.0578,0.1422,-0.0852,-0.0175,-1.9162,-5.8362,-14.75631378724757,9.82250968381555,-0.7433633999885249,2.7079999999987194
0.1681,0.9604,-0.238,0.058,0.1409,-0.0902,0.2013,-2.1525,-5.5825,-14.400747659088148,9.756242505306082,-0.7433633999885249,2.7079999999987194
0.1667,0.9578,-0.2488,0.058,0.1409,-0.0902,0.14,-1.995,-4.9,-14.472080077452334,9.647807811338085,-0.7732883999873637,2.7229999999981374
0.1671,0.9626,-0.2541,0.058,0.1409,-0.09,0.14,-1.995,-4.9,-14.611967705768578,9.58088507903309,-0.7732883999873637,2.7229999999981374
0.1691,0.962,-0.2555,0.0577,0.1421,-0.09,-0.3063,-2.2487,-5.0312,-14.75722753237317,9.613279412964287,-0.8092675999946936,2.739000000001397
0.1697,0.9615,-0.2521,0.0577,0.1421,-0.09,-0.7788,-2.8875,-4.795,-14.715960237345861,9.656658787796344,-0.8092675999946936,2.739000000001397
0.1694,0.9633,-0.2522,0.0572,0.1392,-0.0858,-0.3675,-3.1412,-4.9088,-14.690626255111773,9.655588529758184,-0.8595267999820775,2.7549999999973807
0.1694,0.9633,-0.2522,0.0572,0.1392,-0.0858,-0.3675,-3.1412,-4.9088,-14.679638991380353,9.655113703022318,-0.8595267999820775,2.7549999999973807
0.1679,0.9634,-0.2549,0.0594,0.1412,-0.0808,-0.2975,-3.2287,-4.725,-14.757187455010937,9.601046948744353,-0.90795730000369,2.7700000000040745
0.1712,0.9619,-0.2539,0.0594,0.1412,-0.0808,-0.3675,-2.7475,-5.1625,-14.77370860138958,9.68264937741374,-0.90795730000369,2.7700000000040745
0.171,0.9602,-0.2498,0.0594,0.1412,-0.0808,-0.3237,-2.87,-5.74,-14.667025582180836,9.71125508605497,-0.9538772999921632,2.786000000000058
0.1693,0.9608,-0.2511,0.0602,0.1406,-0.0877,-0.3237,-2.87,-5.74,-14.655496340851677,9.700438025667026,-0.9538772999921632,2.786000000000058
0.1693,0.9608,-0.2511,0.0602,0.1406,-0.0877,-0.4112,-3.6575,-5.81,-14.650248902946526,9.693765817166668,-1.0087397999900343,2.800999999999476
0.1719,0.96,-0.2548,0.0584,0.1415,-0.0857,-0.8925,-3.6137,-5.8187,-14.788833573439847,9.725807548445205,-1.0087397999900343,2.800999999999476
0.1712,0.9595,-0.253,0.0584,0.1415,-0.0857,-0.8925,-3.6137,-5.4425,-14.777612045846716,9.752198140934063,-1.0665590000018137,2.8170000000027358
0.1731,0.96,-0.2528,0.0584,0.1415,-0.0857,-0.5512,-2.4588,-5.4425,-14.762864541415798,9.810362142977809,-1.0665590000018137,2.8170000000027358
0.1706,0.9596,-0.2511,0.0583,0.1397,-0.0796,-0.1575,-2.3975,-5.8275,-14.711114542661056,9.797443206071724,-1.1049189999921845,2.8329999999987194
0.1684,0.9595,-0.2525,0.0583,0.1397,-0.0796,-0.0088,-2.2925,-6.0725,-14.72689755113029,9.783822199175859,-1.1049189999921845,2.8329999999987194
0.1684,0.9595,-0.2525,0.0592,0.1417,-0.0835,-0.0088,-2.2925,-6.0725,-14.735003627252912,9.771329266611735,-1.1393065000075302,2.8480000000054133
0.1673,0.9603,-0.255,0.0592,0.1417,-0.0835,0.0,-2.1788,-6.0462,-14.800952351502229,9.749039046260672,-1.1393065000075302,2.8480000000054133
0.1667,0.9583,-0.2555,0.0592,0.1417,-0.0835,-0.245,-2.45,-5.9325,-14.870248461088904,9.710138639012882,-1.1785064999976902,2.864000000001397
0.1646,0.9588,-0.2557,0.06,0.1419,-0.089,-0.2537,-2.03,-6.6062,-14.904117979243898,9.620460912420928,-1.1785064999976902,2.864000000001397
0.1651,0.9609,-0.2549,0.06,0.1419,-0.089,-0.2537,-2.03,-6.6062,-14.878384601563472,9.56173404585532,-1.2089564999965086,2.879000000000815
0.1651,0.9609,-0.2549,0.0597,0.1428,-0.0906,0.4638,-1.575,-6.0113,-14.871437534916105,9.544308779547281,-1.2089564999965086,2.879000000000815
0.1629,0.9628,-0.2578,0.0597,0.1428,-0.0906,0.6037,-1.7587,-6.125,-14.901140526132938,9.534761191857498,-1.2370957000022413,2.8950000000040745
0.1648,0.9626,-0.2553,0.0597,0.1428,-0.0906,0.42,-2.24,-5.9938,-14.885035908084557,9.51473810976033,-1.2370957000022413,2.8950000000040745
0.162,0.9631,-0.256,0.0599,0.1422,-0.0893,0.42,-2.24,-5.9938,-14.88519199160823,9.474058635905545,-1.2729356999932449,2.911000000000058
0.1629,0.9623,-0.2587,0.0599,0.1422,-0.0893,0.6037,-1.9863,-5.9062,-14.925842473369643,9.435339535627394,-1.2729356999932449,2.911000000000058
0.1629,0.9628,-0.2546,0.0594,0.1418,-0.0817,-0.0875,-2.3012,-5.8538,-14.868240540260631,9.400959318775106,-1.3074536999919053,2.925999999999476
0.1663,0.9628,-0.2546,0.0594,0.1418,-0.0817,-0.1488,-2.695,-6.125,-14.838991601590294,9.403841753096133,-1.3074536999919053,2.925999999999476
0.1631,0.9623,-0.2586,0.0601,0.1426,-0.0883,-0.1488,-2.695,-6.125,-14.944622760252928,9.399909848632598,-1.3505736999810813,2.94199999999546
0.164,0.9636,-0.2574,0.0601,0.1426,-0.0883,0.28,-2.1962,-6.1075,-14.949075504359403,9.396643535960418,-1.3505736999810813,2.94199999999546
0.1658,0.9638,-0.2576,0.0601,0.1426,-0.0883,-0.07,-2.3012,-5.4513,-14.956554812992426,9.412984526806724,-1.3850916999964853,2.9570000000021537
0.1668,0.9607,-0.2575,0.0593,0.1411,-0.0816,-0.07,-2.4325,-5.3113,-14.980635454047352,9.462259774947551,-1.3850916999964853,2.9570000000021537
0.1668,0.9607,-0.2575,0.0593,0.1411,-0.0816,-0.3325,-2.4325,-5.3113,-14.99400104257739,9.488873508667254,-1.4240116999867156,2.9729999999981374
0.1654,0.9595,-0.2539,0.0613,0.1406,-0.0794,-0.525,-2.45,-5.3987,-14.891660351472412,9.476867150084203,-1.4240116999867156,2.9729999999981374
0.1655,0.9575,-0.2599,0.0613,0.1406,-0.0794,-0.5163,-1.9338,-4.865,-15.066223977969834,9.473167515059734,-1.454952499993019,2.989000000001397
0.1627,0.961,-0.2564,0.0613,0.1406,-0.0794,-0.5163,-1.9338,-4.865,-14.990736073691698,9.369826799480993,-1.454952499993019,2.989000000001397
0.1636,0.9601,-0.2569,0.0607,0.1423,-0.0826,-0.0437,-1.5925,-5.1013,-14.985448539735719,9.35834162367002,-1.478839999992092,3.004000000000815
0.1636,0.9617,-0.2581,0.0607,0.1423,-0.0826,-0.2713,-2.1962,-5.0575,-15.005988227475596,9.343674356126817,-1.478839999992092,3.004000000000815
0.1657,0.9617,-0.2581,0.0599,0.1431,-0.0842,-0.2887,-2.1175,-5.005,-15.015344106741015,9.399665270798769,-1.5127199999835874,3.0199999999967986
0.1693,0.9609,-0.2586,0.0599,0.1431,-0.0842,-0.2887,-2.1175,-5.005,-15.041443133492061,9.536985107781309,-1.5444824999977618,3.0350000000034925
0.1681,0.9609,-0.2576,0.0599,0.1431,-0.0842,-0.2625,-2.065,-5.9412,-15.022704965045422,9.546761514272044,-1.5444824999977618,3.0350000000034925
0.1696,0.9634,-0.2568,0.0604,0.143,-0.0897,-0.3237,-2.065,-6.0375,-14.96847069706275,9.558682377557654,-1.5775224999894681,3.050999999999476
0.1668,0.9639,-0.2545,0.0604,0.143,-0.0897,-0.5775,-1.9425,-5.5213,-14.86116214763603,9.535111203310516,-1.5775224999894681,3.050999999999476
0.1668,0.9639,-0.2545,0.0598,0.1417,-0.0878,-0.5775,-1.9425,-5.5213,-14.818507605040047,9.520751643562836,-1.6086024999958,3.0670000000027358
0.1704,0.964,-0.2556,0.0598,0.1417,-0.0878,-0.7437,-1.8637,-5.67,-14.838258784037537,9.578573216420766,-1.6086024999958,3.0670000000027358
0.1672,0.9647,-0.2532,0.0598,0.1417,-0.0878,-0.7875,-1.4612,-5.95,-14.75479318475548,9.567695902754568,-1.6305204999949494,3.0820000000021537
0.1678,0.9631,-0.2544,0.0603,0.1435,-0.0826,-0.6125,-1.0063,-5.3288,-14.780181105820327,9.565009007003136,-1.6305204999949494,3.0820000000021537
0.166,0.9628,-0.2545,0.0603,0.1435,-0.0826,-0.6125,-1.0063,-5.3288,-14.796195891035405,9.518870781506791,-1.6466212999909078,3.0979999999981374
0.166,0.9613,-0.2552,0.061,0.1411,-0.0808,-0.3413,-1.26,-5.04,-14.836271600959535,9.495889099062572,-1.6466212999909078,3.0979999999981374
0.1643,0.9613,-0.2552,0.061,0.1411,-0.0808,-0.42,-0.91,-5.0312,-14.854310581889708,9.434429212312105,-1.6602712999969993,3.1130000000048312
0.1629,0.9592,-0.2538,0.0601,0.1423,-0.0799,-0.455,-0.91,-5.1975,-14.834667764151114,9.379988616074447,-1.6602712999969993,3.1130000000048312
0.1624,0.9625,-0.2543,0.0601,0.1423,-0.0799,-0.455,-0.91,-5.1975,-14.814373202094544,9.323523854162586,-1.6748312999933443,3.129000000000815
0.1638,0.9624,-0.2563,0.0601,0.1423,-0.0799,-0.4462,-1.225,-4.8562,-14.871357636106813,9.332665647226586,-1.6748312999933443,3.129000000000815
0.1659,0.9616,-0.2503,0.0614,0.141,-0.0869,-0.4112,-1.1812,-4.8125,-14.709791771869718,9.416599365838849,-1.6937304999971947,3.1450000000040745
0.1659,0.9616,-0.2503,0.0614,0.141,-0.0869,-0.4112,-1.1812,-4.76,-14.641024509177713,9.452889193788428,-1.6937304999971947,3.1450000000040745
0.1696,0.9612,-0.2557,0.0602,0.1414,-0.0874,-0.8313,-1.1287,-4.76,-14.804516522687836,9.5835908308511,-1.7106609999965376,3.1600000000034925
0.1672,0.9601,-0.2541,0.0602,0.1414,-0.0874,-0.7437,-0.9712,-4.9612,-14.816747608524597,9.568674378251599,-1.7106609999965376,3.1600000000034925
0.1662,0.9578,-0.2555,0.0602,0.1414,-0.0874,-1.0938,-0.6825,-4.9437,-14.896841936511024,9.54066085092205,-1.7215809999937965,3.175999999999476
0.1657,0.9584,-0.2558,0.0601,0.1407,-0.0821,-1.0938,-0.6825,-4.9437,-14.928492124816735,9.509202922253003,-1.7215809999937965,3.175999999999476
0.1657,0.9584,-0.2535,0.0601,0.1407,-0.0821,-1.015,-0.9975,-4.9875,-14.853849065836961,9.498258182828565,-1.7365435000004736,3.19100000000617
0.1604,0.9579,-0.2535,0.0616,0.1427,-0.0828,-0.35,-1.4,-5.5738,-14.83649690382354,9.385888339471505,-1.7365435000004736,3.19100000000617
0.1603,0.96,-0.2558,0.0616,0.1427,-0.0828,-0.0437,-1.54,-5.9938,-14.878003389958376,9.354049409102386,-1.7611834999942886,3.2070000000021537
0.1653,0.9655,-0.2527,0.0616,0.1427,-0.0828,-0.0437,-1.54,-5.9938,-14.773464450546038,9.361326897803673,-1.7611834999942886,3.2070000000021537
0.1664,0.966,-0.2513,0.0596,0.141,-0.0873,-0.175,-2.03,-5.8888,-14.672598278176265,9.38354404163514,-1.7936634999861354,3.2229999999981374
0.1635,0.9638,-0.2566,0.0596,0.141,-0.0873,-0.63,-2.4237,-6.09,-14.816631527383223,9.378534833189496,-1.7936634999861354,3.2229999999981374
0.1635,0.9638,-0.2566,0.0612,0.1423,-0.0865,-0.4462,-2.345,-6.1337,-14.86995706086843,9.376589260219973,-1.8288384999847704,3.2379999999975553
0.1605,0.9633,-0.2574,0.0612,0.1423,-0.0865,-0.4462,-2.345,-6.1337,-14.92240527569768,9.370021737769923,-1.8288384999847704,3.2379999999975553
0.1577,0.9646,-0.2517,0.0612,0.1423,-0.0865,-0.7175,-2.4325,-6.4575,-14.736673880329342,9.283331320473591,-1.8677584999926995,3.254000000000815
0.16,0.9601,-0.253,0.0613,0.1431,-0.079,-0.84,-2.415,-6.0725,-14.753303207918023,9.27265406644456,-1.8677584999926995,3.254000000000815
0.1592,0.9605,-0.2558,0.0613,0.1431,-0.079,-0.735,-2.6775,-5.915,-14.853168536773019,9.23825983748126,-1.907920999991141,3.269000000000233
0.1592,0.9605,-0.2511,0.0606,0.143,-0.0877,-0.735,-2.6775,-5.915,-14.726462360158813,9.212841973102828,-1.907920999991141,3.269000000000233
0.1615,0.9619,-0.2511,0.0606,0.143,-0.0877,-1.0588,-2.94,-5.74,-14.662405710094987,9.217125788560018,-1.9549609999793331,3.2849999999962165
0.1589,0.9659,-0.2556,0.0606,0.1425,-0.0844,-0.525,-2.7562,-6.0025,-14.757256288938546,9.192157898654687,-1.9549609999793331,3.2849999999962165
0.1613,0.9666,-0.2554,0.0606,0.1425,-0.0844,-0.4725,-2.6163,-5.7488,-14.782699673400721,9.184188500597184,-1.9968217999878612,3.300999999999476
0.1668,0.9659,-0.2524,0.0606,0.1425,-0.0844,-0.4725,-2.6163,-5.7488,-14.701847194478155,9.272343941492656,-1.9968217999878612,3.300999999999476
0.1659,0.9648,-0.255,0.0614,0.1401,-0.0754,-0.7,-2.45,-5.8625,-14.76585879349696,9.310778323008789,-2.033571799986435,3.315999999998894
0.1659,0.9648,-0.255,0.0614,0.1401,-0.0754,-0.385,-1.7413,-5.67,-14.788113575363147,9.353029246406615,-2.033571799986435,3.315999999998894
0.1658,0.9637,-0.2546,0.062,0.1414,-0.0894,-0.385,-1.7413,-5.67,-14.794234096895362,9.383064256651009,-2.061432599992111,3.3320000000021537
0.1617,0.9634,-0.2497,0.062,0.1414,-0.0894,-0.77,-1.2425,-5.4425,-14.627902544790334,9.318330442711522,-2.061432599992111,3.3320000000021537
0.1624,0.9616,-0.2528,0.062,0.1414,-0.0894,-0.4988,-1.68,-5.1363,-14.687802072566347,9.297140820796956,-2.086632599991133,3.3470000000015716
0.1637,0.96,-0.2574,0.0623,0.1423,-0.0849,-0.3762,-1.4525,-5.0312,-14.870447117677479,9.326705286935026,-2.086632599991133,3.3470000000015716
0.1637,0.96,-0.2574,0.0623,0.1423,-0.0849,-0.3762,-1.4525,-5.0312,-14.949361907315632,9.340574919017483,-2.1098725999852994,3.3629999999975553
0.1623,0.9598,-0.2546,0.062,0.1423,-0.085,0.0175,-1.4438,-5.1013,-14.904768852414168,9.310740605268444,-2.132973399990006,3.379000000000815
0.1663,0.9597,-0.2536,0.062,0.1423,-0.085,0.35,-1.0588,-4.9,-14.866715348193491,9.422275877498661,-2.132973399990006,3.379000000000815
0.1642,0.9629,-0.2521,0.062,0.1423,-0.085,0.3588,-0.6825,-4.6112,-14.795091771043785,9.38897163163351,-2.1432108999896085,3.394000000000233
0.1654,0.9622,-0.2533,0.0611,0.1418,-0.0763,0.3588,-0.6825,-4.6112,-14.778015260004919,9.418911132856783,-2.1432108999896085,3.394000000000233
0.1638,0.9629,-0.2575,0.0611,0.1418,-0.0763,-0.2887,-0.7875,-4.6638,-14.88477025392278,9.366998554706425,-2.1558108999921752,3.4100000000034925
0.1638,0.9629,-0.2575,0.063,0.1423,-0.083,-0.07,-0.7525,-4.9175,-14.928453060635787,9.347791048596717,-2.1558108999921752,3.4100000000034925
0.166,0.9623,-0.2592,0.063,0.1423,-0.083,-0.105,-0.5337,-4.585,-15.003332584398912,9.414484628558784,-2.1638163999918647,3.4250000000029104
0.1674,0.9627,-0.2528,0.063,0.1423,-0.083,-0.105,-0.5337,-4.585,-14.855289212846541,9.49552379559621,-2.1638163999918647,3.4250000000029104
0.1658,0.9636,-0.2531,0.0619,0.1429,-0.0854,-0.0525,-0.6825,-4.935,-14.786428622250277,9.469590762397456,-2.17541889998678,3.44199999999546
0.1618,0.9604,-0.2561,0.0619,0.1429,-0.0854,-0.3325,-0.9712,-5.1275,-14.867359120468231,9.355703952222678,-2.1831884999883626,3.4499999999970896
0.1618,0.9604,-0.2561,0.0628,0.1419,-0.0846,-0.1838,-1.3038,-5.0312,-14.901034093670495,9.297306330495621,-2.185796099988894,3.451999999997497
0.1599,0.9582,-0.2546,0.0628,0.1419,-0.0846,-0.1838,-1.3038,-5.0312,-14.889936191177476,9.225334586421148,-2.185796099988894,3.451999999997497
0.1615,0.9601,-0.2569,0.0628,0.1419,-0.0822,-0.14,-1.4963,-5.5475,-14.936696951460634,9.226964430560669,-2.2097368999937714,3.4680000000007567
0.1648,0.9618,-0.2571,0.0606,0.1416,-0.0822,-0.21,-2.0825,-5.67,-14.952302889284214,9.283798849191772,-2.2097368999937714,3.4680000000007567
0.165,0.9617,-0.2569,0.0606,0.1416,-0.0822,-0.21,-4.3225,-6.0813,-14.954417406826664,9.293437559197967,-2.2745743999912555,3.4830000000001746
0.1683,0.9645,-0.2582,0.0605,0.1414,-0.0912,0.1488,-2.4675,-6.0813,-14.968731762188694,9.314111618878743,-2.2745743999912555,3.4830000000001746
0.1683,0.9645,-0.2582,0.0605,0.1414,-0.0912,-0.5863,-2.4588,-5.7312,-14.979681429544486,9.390590544994652,-2.31391519999927,3.4990000000034343
0.1674,0.9639,-0.251,0.0591,0.1419,-0.0799,-0.8575,-2.4237,-5.5037,-14.733047934756014,9.450043651232507,-2.3502706999978593,3.514000000002852
0.1669,0.9629,-0.2556,0.0591,0.1419,-0.0799,-0.8575,-2.4237,-5.5037,-14.818583399749716,9.474010999025015,-2.3502706999978593,3.514000000002852
0.1658,0.9643,-0.2571,0.0591,0.1419,-0.0799,-0.3063,-2.6163,-5.9763,-14.879711870104348,9.46751188097929,-2.3921314999873515,3.529999999998836
0.164,0.9625,-0.2535,0.063,0.1418,-0.0834,-0.5775,-2.0738,-6.0375,-14.804742629128228,9.455161006744934,-2.3921314999873515,3.529999999998836
0.164,0.9625,-0.2535,0.063,0.1418,-0.0834,-0.2887,-2.0563,-6.125,-14.777492360522867,9.451570944765283,-2.4250322999940543,3.5460000000020955
0.1634,0.9617,-0.2542,0.0619,0.1441,-0.083,-0.2887,-2.0563,-6.125,-14.793203680640126,9.447086353307569,-2.4250322999940543,3.5460000000020955
0.1624,0.9616,-0.255,0.0619,0.1441,-0.083,-0.805,-2.5113,-5.8012,-14.830583029379607,9.400416895986712,-2.4627017999925926,3.5610000000015134
0.1617,0.9634,-0.2555,0.0619,0.1441,-0.083,-1.0412,-2.345,-5.915,-14.845665462586826,9.363609944573533,-2.4627017999925926,3.5610000000015134
0.1618,0.9629,-0.255,0.0622,0.1422,-0.0778,-0.5863,-2.0387,-5.6438,-14.837931289798048,9.316673474260298,-2.4953209999844046,3.576999999997497
0.1624,0.9615,-0.2518,0.0622,0.1422,-0.0778,-0.5863,-2.0387,-5.6438,-14.73965818833924,9.304045079031118,-2.4953209999844046,3.576999999997497
0.1624,0.9615,-0.2518,0.0627,0.1417,-0.0837,-0.3938,-2.065,-5.7225,-14.702838987845984,9.296606722544333,-2.5262959999982275,3.592000000004191
0.1596,0.9615,-0.2548,0.0627,0.1417,-0.0837,-0.2975,-1.7413,-5.5563,-14.779959142223843,9.22824886935522,-2.5262959999982275,3.592000000004191
0.1591,0.9615,-0.2544,0.0627,0.1417,-0.0837,-0.21,-1.7325,-5.4687,-14.801410449661896,9.170942193388889,-2.554015999991269,3.6080000000001746
0.1595,0.9612,-0.2536,0.0636,0.1422,-0.0841,-0.21,-1.7325,-5.4687,-14.789934142542926,9.14814521815703,-2.554015999991269,3.6080000000001746
0.1552,0.9639,-0.2527,0.0636,0.1422,-0.0841,0.0175,-1.2862,-4.7512,-14.742171679865546,8.975178139779436,-2.5745951999954615,3.6240000000034343
0.1552,0.9639,-0.2527,0.0618,0.1409,-0.0879,0.4112,-1.19,-4.6463,-14.724267923658063,8.901337090133904,-2.5745951999954615,3.6240000000034343
0.1559,0.9631,-0.2532,0.0618,0.1409,-0.0879,0.6475,-1.1463,-4.9088,-14.725513841291356,8.89926906906339,-2.591789699986454,3.638999999995576
0.1546,0.9663,-0.2544,0.0618,0.1409,-0.0821,0.6475,-1.1463,-4.9088,-14.730960207888526,8.84128269014451,-2.591789699986454,3.638999999995576
0.1576,0.9648,-0.2571,0.0633,0.1426,-0.0821,0.77,-1.26,-4.8738,-14.758393691801574,8.913577272663904,-2.611949699990561,3.654999999998836
0.1535,0.9656,-0.2577,0.0633,0.1426,-0.0821,0.5512,-1.3038,-4.6112,-14.809870547465815,8.803149038042944,-2.611949699990561,3.654999999998836
0.154,0.9647,-0.2527,0.0632,0.1409,-0.0897,0.5512,-1.3038,-4.7425,-14.773251420235432,8.788718124932208,-2.631506699989802,3.6699999999982538
0.154,0.9647,-0.2527,0.0632,0.1409,-0.0897,0.3762,-1.8288,-4.7425,-14.739209402634213,8.782755669452266,-2.631506699989802,3.6699999999982538
0.155,0.9649,-0.2601,0.0629,0.1406,-0.0773,0.6913,-1.715,-4.9175,-14.807922915504685,8.801440572413295,-2.658946699995392,3.6860000000015134
0.1562,0.9673,-0.261,0.0629,0.1406,-0.0773,0.5075,-1.5575,-5.2063,-14.895899025189308,8.83073019680242,-2.658946699995392,3.6860000000015134
0.1575,0.9653,-0.2561,0.0629,0.1406,-0.0773,0.5075,-1.5575,-5.2063,-14.884673747404621,8.894938189099845,-2.683866700000469,3.702000000004773
0.1596,0.9657,-0.2552,0.0619,0.1419,-0.0925,0.0525,-1.8375,-4.9525,-14.846231611846857,8.995279454671204,-2.683866700000469,3.702000000004773
0.1596,0.9657,-0.2552,0.0619,0.1419,-0.0925,-0.0875,-2.4325,-5.425,-14.824255569103315,9.030478060289406,-2.720354199981354,3.716999999996915
0.1574,0.9642,-0.2588,0.0628,0.1401,-0.0842,-0.5863,-2.5463,-5.0225,-14.94522958974692,8.992771732403932,-2.720354199981354,3.716999999996915
0.159,0.9621,-0.2609,0.0628,0.1401,-0.0842,-0.5863,-2.5463,-5.0225,-15.082443120137878,9.02992065664026,-2.761094999989654,3.7330000000001746
0.1578,0.9629,-0.2603,0.0628,0.1401,-0.0842,-0.98,-2.7562,-5.2325,-15.111833301092465,9.010568428059555,-2.761094999989654,3.7330000000001746
0.1646,0.9617,-0.2572,0.0614,0.1413,-0.0789,-0.4725,-2.625,-5.18,-15.030554175419928,9.197934954857327,-2.800469999988126,3.7479999999995925
0.1642,0.9601,-0.2582,0.0614,0.1413,-0.0789,-0.595,-2.345,-4.7863,-15.043798138418913,9.302273559272201,-2.800469999988126,3.7479999999995925
0.1642,0.9601,-0.2582,0.0603,0.1418,-0.083,-0.595,-2.345,-4.7863,-15.049026171951596,9.346177929618504,-2.83798999999577,3.764000000002852
0.1627,0.9592,-0.261,0.0603,0.1418,-0.083,-0.4375,-2.1875,-4.34,-15.149050245017037,9.31323919133339,-2.83798999999577,3.764000000002852
0.1626,0.9619,-0.2614,0.0603,0.1418,-0.083,-0.5688,-1.8375,-4.2,-15.181596582760697,9.281105916406895,-2.86739000000176,3.780000000006112
0.1645,0.9643,-0.26,0.063,0.144,-0.0822,-0.5163,-1.5925,-4.2438,-15.127068705623335,9.328438604444266,-2.86739000000176,3.780000000006112
0.1639,0.963,-0.2616,0.063,0.144,-0.0822,-0.5163,-1.5925,-4.2438,-15.168931053150091,9.327668574650296,-2.891277499989246,3.7949999999982538
0.1639,0.963,-0.2616,0.0627,0.1427,-0.0784,-0.8575,-1.54,-4.5413,-15.187416951344911,9.327420375655736,-2.891277499989246,3.7949999999982538
0.1652,0.9628,-0.2614,0.0627,0.1427,-0.0784,-0.6037,-1.575,-5.1188,-15.188764148652329,9.365616985540587,-2.91647749999438,3.8110000000015134
0.1648,0.9628,-0.2624,0.0627,0.1427,-0.0989,-0.2887,-0.9887,-5.2238,-15.219773795662501,9.371332809678638,-2.9313079999938045,3.8260000000009313
0.1663,0.9593,-0.2594,0.063,0.1426,-0.0853,-0.2887,-0.9887,-5.2238,-15.17098881692862,9.433718310002938,-2.9313079999938045,3.8260000000009313
0.1645,0.9599,-0.2613,0.063,0.1426,-0.0853,-0.9975,-0.6388,-4.9175,-15.20847607289104,9.40901807175076,-2.941528799995887,3.842000000004191
0.1645,0.9598,-0.2615,0.0633,0.1429,-0.0866,-1.1287,-0.21,-4.795,-15.230037730287219,9.397795431033304,-2.941528799995887,3.842000000004191
0.1655,0.9598,-0.2615,0.0633,0.1429,-0.0866,-1.1287,-0.21,-2.555,-15.23706803535363,9.435260149932216,-2.9448887999950433,3.8580000000001746
0.1654,0.9593,-0.26,0.0637,0.1426,-0.0822,-0.56,-0.0088,-4.4538,-15.193617549265882,9.443428899396551,-2.9448887999950433,3.8580000000001746
0.1676,0.9607,-0.2552,0.0637,0.1426,-0.0822,-0.7437,0.2537,-4.34,-14.994719318072104,9.525514695351573,-2.941083299995191,3.8729999999995925
0.1676,0.9596,-0.2564,0.0637,0.1426,-0.0822,-1.2337,0.2975,-4.4538,-14.970710887361363,9.55842252680444,-2.941083299995191,3.8729999999995925
0.1612,0.9593,-0.2572,0.0599,0.1419,-0.0906,-1.2337,0.2975,-4.4538,-14.99673152609906,9.34435777960688,-2.9363232999942213,3.889000000002852
0.1612,0.9593,-0.2572,0.0599,0.1419,-0.0906,-1.05,0.6125,-4.3663,-15.004702677373157,9.26389111674702,-2.9363232999942213,3.889000000002852
0.1594,0.9611,-0.2525,0.0634,0.1424,-0.0804,-0.9887,0.595,-4.6112,-14.817325096054176,9.172183420985071,-2.927398299998897,3.903999999994994
0.1634,0.9624,-0.2511,0.0634,0.1424,-0.0804,-0.9187,0.5688,-4.515,-14.691053996417372,9.270057161309879,-2.927398299998897,3.903999999994994
0.1626,0.9626,-0.2571,0.0634,0.1424,-0.0804,-0.9187,0.5688,-4.515,-14.861971662113843,9.269262390289455,-2.918297499997043,3.9199999999982538
0.1659,0.9614,-0.2542,0.0624,0.1414,-0.0859,-1.19,0.175,-5.5563,-14.826903338617553,9.345539806161119,-2.918297499997043,3.9199999999982538
0.1659,0.9615,-0.2504,0.0624,0.1414,-0.0859,-1.1287,-0.0175,-5.3812,-14.672027852700648,9.404277899887685,-2.9185774999970997,3.9360000000015134
0.1679,0.9615,-0.2504,0.0606,0.1419,-0.0841,-1.3737,0.4725,-4.9875,-14.619722516718207,9.505485174885692,-2.9185774999970997,3.9360000000015134
0.1654,0.9614,-0.2544,0.0606,0.1419,-0.0841,-1.3737,0.4725,-4.9875,-14.760621957018225,9.471616706715523,-2.9114899999973747,3.9510000000009313
0.1645,0.9592,-0.2558,0.0606,0.1419,-0.0841,-0.84,0.4462,-4.8562,-14.870417473505164,9.436007259753007,-2.9114899999973747,3.9510000000009313
0.1627,0.9609,-0.2557,0.0613,0.1421,-0.0948,-0.035,-0.0175,-5.1188,-14.885675107992924,9.36283202334838,-2.9117699999974316,3.967000000004191
0.1629,0.9628,-0.2565,0.0613,0.1421,-0.0948,-0.0962,-0.49,-4.9788,-14.901964780933758,9.32076215000237,-2.9117699999974316,3.967000000004191
0.1629,0.9628,-0.2565,0.0614,0.1413,-0.0898,-0.0962,-0.49,-4.9788,-14.909971662832499,9.301499361021426,-2.919119999993581,3.981999999996333
0.1673,0.9668,-0.2516,0.0614,0.1413,-0.0898,0.2013,0.105,-4.935,-14.772980728054023,9.414723643264944,-2.919119999993581,3.981999999996333
0.1673,0.9669,-0.2532,0.0614,0.1413,-0.0898,0.1488,0.0613,-4.865,-14.729495259034218,9.46416625036411,-2.9181391999933814,3.9979999999995925
0.1662,0.9654,-0.2531,0.0603,0.1413,-0.083,0.1488,-2.1788,-4.865,-14.712368327308278,9.4587791820903,-2.9181391999933814,3.9979999999995925
0.1635,0.9636,-0.254,0.0603,0.1413,-0.083,-0.805,-0.7788,-4.865,-14.747069022939428,9.37904667645792,-2.9305999999902537,4.013999999995576
0.1635,0.964,-0.2493,0.0616,0.1414,-0.0825,-0.8487,-0.5863,-5.1625,-14.588389242262052,9.352003206724804,-2.9305999999902537,4.013999999995576
0.1604,0.964,-0.2493,0.0616,0.1414,-0.0825,-0.8138,-0.7962,-5.0138,-14.531856768494315,9.244631737679724,-2.942542999995583,4.02900000000227
0.1593,0.9615,-0.2527,0.0617,0.1428,-0.0841,-0.8138,-0.7962,-5.0138,-14.655057741284422,9.169180907985137,-2.942542999995583,4.02900000000227
0.1566,0.9602,-0.2559,0.0617,0.1428,-0.0841,-0.28,-1.0762,-5.3637,-14.802141786601773,9.074323959990323,-2.959762199999091,4.04500000000553
0.1565,0.9604,-0.2563,0.0617,0.1428,-0.0841,-0.28,-1.4438,-5.4338,-14.87905286667702,9.020795412372909,-2.959762199999091,4.04500000000553
0.1574,0.9615,-0.2536,0.0606,0.1441,-0.0807,-0.6212,-1.3038,-5.2762,-14.815977087629987,9.008523556385114,-2.9793191999888458,4.059999999997672
0.1574,0.9615,-0.2536,0.0606,0.1441,-0.0807,-0.6212,-1.3038,-5.2762,-14.7913329034305,9.002018798883755,-2.9793191999888458,4.059999999997672
0.1592,0.962,-0.2542,0.0626,0.1413,-0.083,-0.21,-1.1113,-4.9,-14.7968176611916,9.051180622345724,-2.9970999999924683,4.076000000000931
0.1604,0.9626,-0.2559,0.0626,0.1413,-0.083,-0.5775,-1.3913,-4.97,-14.851347287969347,9.104006929671822,-2.9970999999924683,4.076000000000931
0.1617,0.9654,-0.2539,0.0626,0.1413,-0.083,-0.455,-1.5838,-5.4513,-14.78366734403341,9.144426212981584,-3.022440799986107,4.091999999996915
0.1662,0.9636,-0.2505,0.0624,0.1422,-0.0745,-0.455,-1.5838,-5.4513,-14.6605660672133,9.282678796780244,-3.022440799986107,4.091999999996915
0.1662,0.9623,-0.2526,0.0624,0.1422,-0.0745,-0.9187,-1.295,-5.4075,-14.691458813479505,9.369216365742943,-3.041865799994776,4.107000000003609
0.1665,0.9623,-0.2526,0.0618,0.1394,-0.0819,-0.805,-0.7262,-4.8475,-14.702030622420292,9.443852699835578,-3.041865799994776,4.107000000003609
0.1649,0.9624,-0.2549,0.0618,0.1394,-0.0819,-0.6825,-0.7875,-5.2675,-14.78405363384534,9.425310392063325,-3.0544657999973426,4.1230000000068685
0.1602,0.9611,-0.2517,0.0618,0.1394,-0.0819,-0.6825,-0.7875,-5.2675,-14.71689800896807,9.299927385747408,-3.0544657999973426,4.1230000000068685
0.1654,0.9616,-0.2514,0.0623,0.1434,-0.085,-0.3413,-0.8662,-5.0575,-14.680150422569053,9.377726852462029,-3.067458799990536,4.1379999999990105
0.1636,0.9619,-0.2491,0.0623,0.1434,-0.085,-0.8575,-0.385,-4.6638,-14.57647624021595,9.360967530200702,-3.067458799990536,4.1379999999990105
0.1636,0.9619,-0.2491,0.0621,0.1425,-0.0871,-0.3675,-0.2187,-5.005,-14.54378196737249,9.354968548691861,-3.070957999991249,4.15400000000227
0.1648,0.9614,-0.2499,0.0621,0.1425,-0.0871,-0.3675,-0.2187,-5.005,-14.558993739711136,9.389743461487503,-3.0744571999903707,4.169999999998254
0.16,0.9608,-0.2535,0.0621,0.1425,-0.0871,0.0787,-0.315,-5.5825,-14.661265974043243,9.300651497789644,-3.0744571999903707,4.169999999998254
0.163,0.9613,-0.2527,0.0602,0.1414,-0.076,0.0787,-0.2713,-5.1537,-14.692254439594194,9.30689185501739,-3.078526699990213,4.184999999997672
0.1656,0.9608,-0.2507,0.0602,0.1414,-0.076,0.0787,-0.2713,-5.0662,-14.660718396059098,9.391276466500681,-3.078526699990213,4.184999999997672
0.1656,0.9608,-0.252,0.0606,0.1409,-0.084,-0.2537,-0.455,-5.0662,-14.680223574448652,9.429914174574126,-3.085806699991696,4.201000000000931
0.1682,0.9634,-0.252,0.0606,0.1409,-0.084,0.3588,0.0875,-5.285,-14.672303386584472,9.503430235813154,-3.085806699991696,4.201000000000931
0.1685,0.9654,-0.2523,0.0608,0.1407,-0.084,0.4638,-0.5337,-5.1625,-14.663916231239678,9.544204929115514,-3.0938121999913855,4.216000000000349
0.1697,0.9661,-0.2507,0.0608,0.1407,-0.084,0.4638,-0.5337,-5.1625,-14.626363540925267,9.596783829126935,-3.0938121999913855,4.216000000000349
0.169,0.9639,-0.2537,0.0608,0.1407,-0.084,0.4112,-0.2187,-5.3637,-14.667622340094963,9.608539207473957,-3.0973113999920985,4.232000000003609
0.1673,0.9609,-0.2546,0.0603,0.1428,-0.083,-0.2187,-0.595,-4.9875,-14.760127010864053,9.578726483099025,-3.0973113999920985,4.232000000003609
0.1673,0.9609,-0.2546,0.0603,0.1428,-0.083,0.07,-0.595,-4.865,-14.797285487710445,9.564399684849604,-3.1068313999897086,4.2479999999995925
0.1652,0.9644,-0.2538,0.061,0.1408,-0.0822,0.07,-0.595,-4.865,-14.77259011336141,9.474972633335511,-3.1068313999897086,4.2479999999995925
0.1623,0.9634,-0.253,0.061,0.1408,-0.0822,-0.1838,-0.9275,-4.4275,-14.741760667458667,9.335101225580152,-3.1207438999891686,4.2629999999990105
0.1663,0.9621,-0.2551,0.061,0.1408,-0.0822,0.0175,-0.5775,-4.76,-14.793749175728918,9.422751344099407,-3.1207438999891686,4.2629999999990105
0.1644,0.9614,-0.2561,0.0604,0.1438,-0.0715,0.175,-0.665,-5.0225,-14.846757700129752,9.401405345326697,-3.131383899986498,4.278999999994994
0.1644,0.9614,-0.2527,0.0604,0.1438,-0.0715,0.175,-0.665,-5.0225,-14.794849406339583,9.39572785377991,-3.131383899986498,4.278999999994994
0.1624,0.9626,-0.2527,0.0594,0.1415,-0.0847,-0.1925,-0.8487,-5.11,-14.749438260511495,9.330155837733455,-3.144114399992179,4.294000000001688
0.1637,0.962,-0.2511,0.0594,0.1415,-0.0847,-0.1312,-0.455,-4.97,-14.687133158276573,9.340871296627588,-3.144114399992179,4.294000000001688
0.1662,0.9621,-0.2524,0.0594,0.1415,-0.0847,-0.1838,-0.7525,-5.2937,-14.693871513421536,9.408389285567518,-3.156154399994632,4.310000000004948
0.1646,0.96,-0.2545,0.0605,0.1414,-0.081,-0.1838,-0.7525,-5.2937,-14.77526457783135,9.409269933996246,-3.156154399994632,4.310000000004948
0.1636,0.9601,-0.2561,0.0605,0.1414,-0.081,-0.0875,-0.7,-5.5825,-14.856402493335453,9.387296245358062,-3.1673543999918206,4.326000000000931
0.1636,0.9601,-0.2561,0.0611,0.1418,-0.0816,-0.5688,-0.8838,-5.39,-14.903951802366578,9.370789590889107,-3.1673543999918206,4.326000000000931
0.1632,0.9636,-0.252,0.0611,0.1418,-0.0816,-0.5688,-0.8838,-5.4075,-14.754735350682262,9.342683805687845,-3.180611399991306,4.341000000000349
0.165,0.9639,-0.2477,0.0611,0.1418,-0.0816,-0.5512,-1.0412,-5.4075,-14.549586067703908,9.373199849775814,-3.180611399991306,4.341000000000349
0.1658,0.9607,-0.2542,0.061,0.1418,-0.0838,-1.33,-1.4262,-5.145,-14.737775841921708,9.423050984120591,-3.203430599985578,4.356999999996333
0.1626,0.9612,-0.2527,0.061,0.1418,-0.0838,-0.4812,-1.2687,-5.4425,-14.733079927503786,9.367973726817816,-3.203430599985578,4.356999999996333
0.1626,0.9612,-0.2527,0.0629,0.1421,-0.0849,-0.4812,-1.2687,-5.4425,-14.731139033106352,9.335957593962398,-3.222461099994071,4.372000000003027
0.1644,0.9614,-0.2481,0.0629,0.1421,-0.0849,-1.1463,-1.61,-5.8713,-14.554737032541299,9.350755068191202,-3.222461099994071,4.372000000003027
0.1626,0.9604,-0.2514,0.0629,0.1413,-0.0848,-1.3038,-1.8463,-5.6438,-14.633720817583718,9.333980152851098,-3.252001900000089,4.388000000006286
0.1649,0.9616,-0.2519,0.0602,0.1413,-0.0848,-0.6037,-1.6275,-5.845,-14.66137764694621,9.354456305917338,-3.252001900000089,4.388000000006286
0.1659,0.9595,-0.2507,0.0602,0.1413,-0.0848,-0.6037,-1.6275,-5.845,-14.65022513085637,9.38880296562656,-3.2780418999935526,4.40400000000227
0.1635,0.9614,-0.251,0.0602,0.1407,-0.0858,-0.8575,-1.715,-6.1075,-14.638540176528595,9.386467169335681,-3.2780418999935526,4.40400000000227
0.1635,0.9614,-0.251,0.0602,0.1407,-0.0858,-0.1138,-1.33,-6.1775,-14.635204152115211,9.385855100303308,-3.297991899992778,4.419000000001688
0.162,0.9634,-0.2524,0.0603,0.1412,-0.087,-0.3413,-1.3737,-5.88,-14.660853208130309,9.353496718236684,-3.297991899992778,4.419000000001688
0.1654,0.9623,-0.2507,0.0603,0.1412,-0.087,-0.3413,-1.3737,-5.88,-14.627935326875292,9.373326037646274,-3.319971099987261,4.434999999997672
0.1648,0.9604,-0.2573,0.0603,0.1412,-0.087,-0.5863,-1.7062,-6.1425,-14.851330985590158,9.374079578146956,-3.319971099987261,4.434999999997672
0.1657,0.9636,-0.252,0.0603,0.1411,-0.0787,-0.5863,-1.9688,-6.2913,-14.733205443370904,9.382208767237163,-3.34950310000044,4.450000000004366
0.1657,0.9636,-0.252,0.0603,0.1411,-0.0787,-0.77,-1.61,-6.1075,-14.684333106985807,9.385523593917883,-3.34950310000044,4.450000000004366
0.1663,0.9639,-0.2513,0.0627,0.1423,-0.0843,-0.77,-1.61,-6.1075,-14.638963512872605,9.390368901957679,-3.3752630999939734,4.466000000000349
0.1676,0.9638,-0.2516,0.0627,0.1423,-0.0843,-0.8138,-1.75,-6.4662,-14.633609434097162,9.427742017806253,-3.3752630999939734,4.466000000000349
0.1681,0.964,-0.2491,0.0627,0.1423,-0.0843,-0.455,-1.6625,-6.195,-14.549102277482136,9.432585621746677,-3.4035255999936833,4.483000000000175
0.1642,0.9627,-0.2513,0.0626,0.139,-0.0912,-0.9712,-1.2337,-6.1775,-14.60208850692633,9.431695680832458,-3.4035255999936833,4.483000000000175
0.1617,0.9647,-0.2517,0.0626,0.139,-0.0912,-0.9712,-1.2337,-6.1775,-14.615845354920816,9.428518592441735,-3.422031099992965,4.4979999999995925
0.1617,0.9647,-0.2517,0.0593,0.1407,-0.0834,-1.4963,-1.1463,-6.055,-14.62095226162044,9.407491954809071,-3.422031099992965,4.4979999999995925
0.1604,0.9651,-0.2513,0.0593,0.1407,-0.0834,-0.91,-1.26,-6.195,-14.604119306423874,9.399054514847489,-3.4421910999879044,4.513999999995576
0.1587,0.9636,-0.2507,0.0593,0.1407,-0.0834,-0.91,-1.26,-6.265,-14.59064181480207,9.367256414980135,-3.4421910999879044,4.513999999995576
0.1585,0.9639,-0.2496,0.0624,0.1413,-0.086,-0.7262,-1.3125,-6.265,-14.545103615945562,9.337354446979804,-3.46187859999669,4.52900000000227
0.1578,0.9637,-0.2523,0.0624,0.1413,-0.086,-0.7175,-1.19,-6.3175,-14.623571084235952,9.292312626336388,-3.46187859999669,4.52900000000227
0.1578,0.9637,-0.2523,0.0616,0.1427,-0.0784,-0.7,-1.3737,-5.9763,-14.652998874381034,9.246548791775613,-3.483857800001168,4.54500000000553
0.157,0.9634,-0.2507,0.0616,0.1427,-0.0784,-0.7,-1.3737,-5.9763,-14.611549224104914,9.2018880414041,-3.5058369999956507,4.561000000001513
0.1607,0.9655,-0.2492,0.0616,0.1427,-0.0774,-0.8138,-1.225,-6.1163,-14.522992292064648,9.199809571515305,-3.5058369999956507,4.561000000001513
0.16,0.9648,-0.2508,0.0625,0.1417,-0.0774,-0.6562,-0.8662,-5.6962,-14.552831690040287,9.173904613628341,-3.5188299999951465,4.576000000000931
0.159,0.9652,-0.2544,0.0625,0.1417,-0.0774,-0.77,-0.9887,-5.6262,-14.687142782588468,9.130897561655248,-3.5188299999951465,4.576000000000931
0.1576,0.9672,-0.2496,0.0624,0.1426,-0.0801,-0.77,-0.9887,-5.6262,-14.550363503517545,9.07330068064984,-3.5346491999911755,4.591999999996915
0.1576,0.9672,-0.2496,0.0624,0.1426,-0.0801,-1.1287,-1.1113,-5.5213,-14.496401199460323,9.031353259906743,-3.5346491999911755,4.591999999996915
0.1616,0.9687,-0.2504,0.0618,0.1414,-0.078,-1.1725,-0.91,-5.2063,-14.494221522676009,9.101467904024082,-3.548299199997267,4.607000000003609
0.1617,0.9655,-0.252,0.0618,0.1414,-0.078,-1.6275,-1.3212,-5.6175,-14.590569506798685,9.137903960571514,-3.548299199997267,4.607000000003609
0.1602,0.9641,-0.2492,0.0618,0.1414,-0.078,-1.6275,-1.3212,-5.6175,-14.520060180019518,9.138403020669667,-3.5694384000015735,4.6230000000068685
0.1578,0.9636,-0.2522,0.0623,0.1411,-0.0718,-1.5137,-1.0063,-5.5125,-14.624329118188548,9.08475108995704,-3.5694384000015735,4.6230000000068685
0.1578,0.9636,-0.2522,0.0623,0.1411,-0.0718,-0.9538,-0.8225,-5.4687,-14.652149896346247,9.050948070258597,-3.58259839999827,4.639000000002852
0.1579,0.9653,-0.2463,0.0615,0.1414,-0.0819,-0.8487,-1.2075,-5.9675,-14.435222429784693,9.043661273548903,-3.58259839999827,4.639000000002852
0.1633,0.9627,-0.244,0.0615,0.1414,-0.0819,-0.8487,-1.2075,-5.9675,-14.29872569000402,9.09166689260874,-3.600710899997567,4.65400000000227
0.1678,0.9609,-0.2424,0.0615,0.1414,-0.0819,-1.015,-0.9887,-5.8275,-14.205808857202955,9.221913666083548,-3.600710899997567,4.65400000000227
0.1643,0.9582,-0.2475,0.0625,0.1426,-0.0875,-0.8138,-0.8225,-5.8625,-14.382133251539575,9.269090325163312,-3.6138708999942635,4.669999999998254
0.1589,0.9597,-0.2467,0.0625,0.1426,-0.0875,-0.8138,-0.3237,-5.67,-14.403880643044548,9.216683126232526,-3.6138708999942635,4.669999999998254
0.1589,0.9597,-0.2467,0.063,0.1418,-0.0818,-0.2713,-0.3237,-5.67,-14.410675493464106,9.181576411166255,-3.6187263999964303,4.685000000004948
0.1592,0.9626,-0.2486,0.063,0.1418,-0.0818,-0.5337,0.2625,-5.2675,-14.452393079933254,9.141916409729522,-3.6187263999964303,4.685000000004948
0.1604,0.9642,-0.2514,0.063,0.1418,-0.0818,-0.4288,-0.49,-5.1188,-14.54550537241099,9.143323127180567,-3.6265663999944624,4.701000000000931
0.1626,0.9644,-0.2436,0.0627,0.1431,-0.0834,-0.4288,-0.49,-5.1188,-14.332073181775574,9.21513149999012,-3.6265663999944624,4.701000000000931
0.1663,0.965,-0.2457,0.0627,0.1431,-0.0834,-0.4462,-0.56,-5.4338,-14.304535020883085,9.327269833669558,-3.635526399992213,4.716999999996915
0.1663,0.965,-0.2457,0.0638,0.1417,-0.0824,0.035,0.21,-5.2325,-14.295095080762067,9.401405268989215,-3.635526399992213,4.716999999996915
0.163,0.967,-0.2481,0.0638,0.1417,-0.0824,-0.805,0.175,-5.4163,-14.355280354640731,9.346566370983169,-3.6329013999910416,4.732000000003609
0.1574,0.9647,-0.2491,0.0638,0.1417,-0.0824,-0.805,0.175,-5.4163,-14.433504561547355,9.188722642596032,-3.6329013999910416,4.732000000003609
0.1559,0.9654,-0.2469,0.0626,0.1424,-0.089,-0.315,0.315,-5.5037,-14.38474250331364,9.070827276486693,-3.6278613999923066,4.7479999999995925
0.1563,0.9635,-0.2486,0.0626,0.1424,-0.089,-0.4288,0.105,-5.4775,-14.432697343852139,9.012299471937249,-3.6278613999923066,4.7479999999995925
0.1407,0.9654,-0.2502,0.0626,0.142,-0.0842,-0.4988,-0.1838,-5.9675,-14.489785826506631,8.851866271480967,-3.6306183999921995,4.7629999999990105
0.1537,0.9654,-0.2502,0.0626,0.142,-0.0842,-0.4988,-0.1838,-5.9675,-14.513210980618409,8.8370713464434,-3.6306183999921995,4.7629999999990105
0.1535,0.9686,-0.2519,0.0618,0.1421,-0.0807,-0.3063,-0.42,-6.0287,-14.549003239939022,8.823199274188335,-3.6373383999905124,4.778999999994994
0.1542,0.9683,-0.2484,0.0618,0.1421,-0.0807,-0.105,-1.2163,-6.1512,-14.466768198683688,8.82257742830134,-3.6373383999905124,4.778999999994994
0.1576,0.9664,-0.2449,0.0618,0.1421,-0.0807,-0.2537,-1.3038,-5.8975,-14.332707223608333,8.856239167200597,-3.6581991999947623,4.794999999998254
0.1556,0.9658,-0.2489,0.0625,0.1423,-0.0742,-0.2537,-1.3038,-5.8975,-14.397279805313348,8.858572338902789,-3.6581991999947623,4.794999999998254
0.1556,0.9658,-0.2489,0.0625,0.1423,-0.0742,-0.56,-1.8637,-5.7838,-14.429768799607228,8.86098939545839,-3.6861547000072377,4.810000000004948
0.1548,0.965,-0.2506,0.0628,0.1432,-0.0832,-0.6388,-2.1,-5.39,-14.507954029985006,8.845533116314035,-3.6861547000072377,4.810000000004948
0.1536,0.9651,-0.2472,0.0628,0.1432,-0.0832,0.2887,-0.9887,-5.565,-14.45238044005933,8.815287838268443,-3.7019739000032668,4.826000000000931
0.1569,0.9625,-0.2447,0.0628,0.1432,-0.0832,0.2887,-0.9887,-5.565,-14.378327581522619,8.876087937174496,-3.7019739000032668,4.826000000000931
0.1568,0.963,-0.2428,0.0618,0.1427,-0.0755,0.0787,-1.68,-4.8475,-14.273239051742548,8.930576142118547,-3.7305339000029734,4.843000000000757
0.1568,0.9642,-0.2435,0.0618,0.1427,-0.0755,-0.0962,-1.4963,-4.5062,-14.222364214023976,8.94902140378335,-3.7305339000029734,4.843000000000757
0.1528,0.9642,-0.2435,0.0604,0.1434,-0.0846,-0.0962,-1.4963,-4.6463,-14.197357645831369,8.820138263391867,-3.754474700007851,4.859000000004016
0.1519,0.9665,-0.2523,0.0604,0.1434,-0.0846,-0.3237,-1.2862,-4.6463,-14.438890246780243,8.715603051339436,-3.754474700007851,4.859000000004016
0.1572,0.9663,-0.2462,0.0604,0.1434,-0.0846,-0.7525,-1.4175,-4.3488,-14.347881672291939,8.872324092896399,-3.777154700002158,4.875
0.1583,0.9675,-0.2459,0.0624,0.1409,-0.0898,-0.8575,-2.1175,-4.3663,-14.291667670464069,8.961219512298484,-3.777154700002158,4.875
0.1621,0.9661,-0.2437,0.0624,0.1409,-0.0898,-0.8575,-2.1175,-4.3663,-14.20554265012705,9.140689194155799,-3.8089172000009253,4.889999999999418
0.1621,0.9661,-0.2437,0.0626,0.1392,-0.0835,-0.315,-2.0563,-4.27,-14.178867246257203,9.20605500866238,-3.8089172000009253,4.889999999999418
0.1631,0.9626,-0.2484,0.0626,0.1392,-0.0835,-0.2275,-1.3475,-4.5237,-14.335345435705145,9.275013781333593,-3.830477199995513,4.905999999995402
0.1637,0.9626,-0.2488,0.0626,0.1392,-0.0835,-0.2713,-1.6187,-4.655,-14.421043457498596,9.319997510904487,-3.830477199995513,4.905999999995402
0.1664,0.9643,-0.2448,0.0625,0.1415,-0.0766,-0.2713,-1.6187,-4.655,-14.324324469484743,9.425288973741672,-3.8547577000063487,4.9210000000020955
0.1657,0.9642,-0.2451,0.0625,0.1415,-0.0766,-0.0088,-1.96,-4.2962,-14.294265212555226,9.44536142206515,-3.8547577000063487,4.9210000000020955
0.1657,0.9626,-0.245,0.0617,0.1426,-0.0858,0.2713,-1.4088,-4.5325,-14.288426719749301,9.461153464797626,-3.877298500010941,4.937000000005355
0.1657,0.9626,-0.245,0.0617,0.1426,-0.0858,0.315,-1.1113,-4.7337,-14.285065612650145,9.466852330610042,-3.8950793000064774,4.953000000001339
0.1634,0.9599,-0.2477,0.0629,0.143,-0.087,0.315,-1.1113,-4.7337,-14.3558385171175,9.403823255687726,-3.8950793000064774,4.953000000001339
0.1601,0.961,-0.2474,0.0629,0.143,-0.087,-0.1225,-1.1725,-4.8038,-14.397487069959096,9.266203818452542,-3.9126668000057947,4.968000000000757
0.1625,0.9611,-0.2461,0.0629,0.143,-0.087,0.35,-0.8138,-4.9612,-14.384567038444905,9.285756565743183,-3.9126668000057947,4.968000000000757
0.1617,0.9614,-0.2442,0.062,0.1428,-0.0823,0.35,-0.77,-5.1363,-14.335462340525034,9.272035705752117,-3.924986800002702,4.98399999999674
0.1617,0.9614,-0.2442,0.062,0.1428,-0.0823,0.35,-0.77,-5.1363,-14.304545029230168,9.265264977746567,-3.924986800002702,4.98399999999674
0.1655,0.9625,-0.2506,0.059,0.141,-0.0813,0.2187,-1.0938,-4.8475,-14.425556102919016,9.368779875668702,-3.9413938000100237,4.999000000003434
0.1645,0.9648,-0.2481,0.059,0.141,-0.0813,-0.4288,-1.1113,-4.6025,-14.423069513736424,9.373543663842584,-3.9413938000100237,4.999000000003434
0.1659,0.9663,-0.25,0.059,0.141,-0.0813,-0.175,-1.19,-4.795,-14.46646039915143,9.410221720487577,-3.9604338000052444,5.014999999999418
0.1652,0.9617,-0.2467,0.0599,0.1451,-0.082,-0.175,-1.19,-4.795,-14.424894834129436,9.431461787451497,-3.9604338000052444,5.014999999999418
0.1652,0.9617,-0.2486,0.0599,0.1451,-0.082,-0.4025,-1.0063,-4.7688,-14.464314665575731,9.437927266851695,-3.9765346000085247,5.0310000000026776
0.1631,0.9611,-0.2486,0.0618,0.1402,-0.0814,0.1312,-0.56,-4.8738,-14.481316350839856,9.377158674444754,-3.9765346000085247,5.0310000000026776
0.1638,0.9619,-0.2515,0.0618,0.1402,-0.0814,0.1312,-0.56,-5.0487,-14.557829317081906,9.365705457697201,-3.9849346000081987,5.0460000000020955
0.1605,0.9659,-0.2508,0.0618,0.1402,-0.0814,-0.28,-1.0237,-5.0487,-14.556636154915996,9.245079160518278,-3.9849346000081987,5.0460000000020955
0.1631,0.9648,-0.2467,0.0617,0.1434,-0.0939,-0.315,-1.3212,-5.1975,-14.437945292308045,9.272735299003493,-4.006073800002892,5.061999999998079
0.1636,0.9641,-0.2481,0.0617,0.1434,-0.0939,-0.2975,-1.75,-4.9875,-14.434263567186042,9.304992947400507,-4.006073800002892,5.061999999998079
0.1636,0.9641,-0.2481,0.0638,0.1397,-0.08,-0.2975,-1.75,-4.9875,-14.432616822111099,9.319822025175638,-4.032323800014606,5.077000000004773
0.1621,0.9642,-0.2491,0.0638,0.1397,-0.08,-0.9712,-2.1437,-5.6438,-14.467369083933063,9.294324397195085,-4.032323800014606,5.077000000004773
0.161,0.9642,-0.2492,0.0638,0.1397,-0.08,-0.945,-2.1,-5.5213,-14.482895221754031,9.250937712460711,-4.065923800006172,5.093000000000757
0.1596,0.9627,-0.2484,0.0626,0.1425,-0.0796,-0.2013,-2.2575,-5.5825,-14.47503323901768,9.202735400094047,-4.065923800006172,5.093000000000757
0.1629,0.9617,-0.2489,0.0626,0.1425,-0.0796,-0.2013,-2.2575,-5.5825,-14.493906437871345,9.243125666691427,-4.102043799997105,5.10899999999674
0.1629,0.9617,-0.2483,0.0623,0.1426,-0.0822,-0.6562,-2.6513,-5.67,-14.483492259562139,9.266559332929837,-4.102043799997105,5.10899999999674
0.1596,0.9628,-0.2483,0.0623,0.1426,-0.0822,-0.6562,-2.52,-5.46,-14.469739858434238,9.205666339097823,-4.139843800013974,5.124000000003434
0.1596,0.9639,-0.2481,0.0638,0.143,-0.0821,-0.56,-2.8175,-6.2213,-14.44839797270411,9.200372069609802,-4.139843800013974,5.124000000003434
0.1617,0.9652,-0.2467,0.0638,0.143,-0.0821,-0.56,-2.8175,-6.2213,-14.38191437214908,9.201423578767894,-4.184923800002658,5.139999999999418
0.1642,0.9675,-0.246,0.0638,0.143,-0.0821,-0.4725,-3.3425,-6.0375,-14.314039086477335,9.21690893151502,-4.184923800002658,5.139999999999418
0.1617,0.966,-0.2485,0.0626,0.1426,-0.0839,-0.455,-2.8437,-5.705,-14.37941403899804,9.214204084369586,-4.227579300021693,5.155000000006112
0.1617,0.966,-0.2485,0.0626,0.1426,-0.0839,-0.6388,-2.4062,-5.355,-14.408128661354853,9.211563972316641,-4.227579300021693,5.155000000006112
0.159,0.9653,-0.2491,0.0621,0.141,-0.0881,-0.6388,-2.4062,-5.355,-14.445841903609512,9.144655784745645,-4.266078499994522,5.1709999999948195
0.156,0.9638,-0.2481,0.0621,0.141,-0.0881,-0.6737,-2.1962,-5.705,-14.439514104153858,9.070518696228897,-4.266078499994522,5.1709999999948195
0.1553,0.9635,-0.2465,0.0621,0.141,-0.0881,-0.875,-2.5988,-5.7312,-14.38222473052072,9.011657853438718,-4.388222100009951,5.218000000000757
0.1597,0.9632,-0.2472,0.0626,0.1408,-0.0892,-0.875,-2.9662,-6.055,-14.389806681822977,9.022552406754631,-4.388222100009951,5.218000000000757
0.1597,0.9632,-0.25,0.0626,0.1408,-0.0892,-0.9625,-2.9662,-6.055,-14.494869263798597,9.031773047647352,-4.388222100009951,5.218000000000757
0.1596,0.9634,-0.25,0.0615,0.1428,-0.0828,-0.6212,-2.94,-5.95,-14.526784973019835,9.045490725692956,-4.388222100009951,5.218000000000757
0.1623,0.9615,-0.2481,0.0615,0.1428,-0.0828,-0.4288,-2.8263,-5.7488,-14.49322275228725,9.114924725683904,-4.430616600008306,5.233000000000175
0.1579,0.965,-0.2469,0.0615,0.1428,-0.0828,-0.4288,-2.8263,-5.7488,-14.41139324734188,9.0835057518955,-4.430616600008306,5.233000000000175
0.1595,0.9637,-0.25,0.0638,0.1433,-0.0828,-0.1488,-2.6425,-5.4338,-14.47989690907157,9.091190082891748,-4.430616600008306,5.233000000000175
0.1597,0.9643,-0.2475,0.0638,0.1433,-0.0828,0.0525,-2.4325,-5.3637,-14.440007931474216,9.101030758379402,-4.430616600008306,5.233000000000175
0.1597,0.9643,-0.2475,0.0628,0.1426,-0.0812,-0.1138,-2.3712,-5.3987,-14.416919863953819,9.106364739121782,-4.468555799998782,5.248999999996158
0.1582,0.9669,-0.2514,0.0628,0.1426,-0.0812,-0.1138,-2.3712,-5.3987,-14.497734007671465,9.059477243734834,-4.468555799998782,5.248999999996158
0.1588,0.9673,-0.2496,0.0628,0.1426,-0.0812,-0.6737,-2.0563,-4.935,-14.479915126412541,9.044471328642768,-4.5014566000054845,5.264999999999418
0.1626,0.9668,-0.2451,0.0632,0.1425,-0.0762,-0.6037,-1.8375,-5.145,-14.325724920113858,9.152816028686134,-4.5014566000054845,5.264999999999418
0.159,0.9626,-0.248,0.0632,0.1425,-0.0762,-0.3063,-1.4963,-5.6613,-14.393107635354506,9.131076389819649,-4.525397400010362,5.2810000000026776
0.159,0.9626,-0.2481,0.0632,0.1426,-0.0766,-0.3063,-1.4963,-5.6613,-14.426222957351543,9.116522824510296,-4.525397400010362,5.2810000000026776
0.1549,0.9628,-0.2481,0.0632,0.1426,-0.0766,-0.3325,-1.82,-5.5037,-14.439503565602681,9.0127233577498,-4.554517400003052,5.296999999998661
0.1553,0.9649,-0.2481,0.0632,0.1431,-0.0796,-0.2887,-1.6538,-5.285,-14.42865783564356,8.941286691560125,-4.554517400003052,5.296999999998661
0.1537,0.9624,-0.2458,0.0632,0.1431,-0.0796,-0.175,-1.5838,-5.4075,-14.375230527349762,8.878796926446242,-4.578274400013654,5.312000000005355
0.1601,0.9631,-0.2435,0.0632,0.1431,-0.0796,-0.175,-1.5838,-5.4075,-14.276976511831613,8.997744001137551,-4.578274400013654,5.312000000005355
0.1572,0.9634,-0.2459,0.063,0.1402,-0.0822,0.07,-1.435,-5.495,-14.296303110759874,8.992354294278707,-4.601234400007891,5.328000000001339
0.1572,0.9634,-0.2459,0.063,0.1402,-0.0822,-0.2362,-1.3563,-5.5388,-14.308325555162325,8.98925317864556,-4.622935200002443,5.3439999999973224
0.1557,0.9645,-0.2486,0.0639,0.1436,-0.0799,0.4725,-1.3475,-5.53,-14.354425786490363,8.948720422991249,-4.622935200002443,5.3439999999973224
0.1563,0.9662,-0.2489,0.0639,0.1436,-0.0799,0.4725,-1.3475,-5.53,-14.383435679951559,8.931085831471885,-4.643147700001658,5.35899999999674
0.1563,0.9687,-0.2481,0.0639,0.1436,-0.0799,-0.0875,-1.26,-5.67,-14.374403334342983,8.915458564409912,-4.643147700001658,5.35899999999674
0.1581,0.9683,-0.2502,0.0642,0.1419,-0.0816,-0.4025,-1.4525,-5.3025,-14.439373112566182,8.946783601861108,-4.666387700006393,5.375
0.1581,0.9683,-0.2346,0.0642,0.1419,-0.0816,-0.4025,-1.4525,-5.53,-13.96959013346774,8.97391549742869,-4.666387700006393,5.375
0.1565,0.9672,-0.2497,0.067,0.1421,-0.0811,-0.1488,-1.5313,-5.53,-14.233277996506237,8.946885612511172,-4.6893572000166435,5.390000000006694
0.1548,0.9681,-0.2492,0.067,0.1421,-0.0811,-0.2013,-1.6625,-5.25,-14.340827454163737,8.877982316647566,-4.6893572000166435,5.390000000006694
0.1546,0.969,-0.2446,0.067,0.1421,-0.0811,-0.5163,-1.75,-5.3463,-14.23778714196932,8.840048353457442,-4.717357199996882,5.405999999995402
0.1544,0.9679,-0.2499,0.0644,0.1415,-0.08,-0.5163,-1.75,-5.3463,-14.3794948996758,8.813178331669867,-4.717357199996882,5.405999999995402
0.1579,0.9669,-0.2492,0.0644,0.1415,-0.08,-0.3063,-1.6187,-5.0838,-14.419903088851553,8.90298012702536,-4.743256400002158,5.421999999998661
0.1579,0.9669,-0.2492,0.0632,0.1414,-0.0832,-0.0437,-1.9863,-4.8913,-14.435989256395668,8.949567471337733,-4.743256400002158,5.421999999998661
0.1552,0.968,-0.2485,0.0632,0.1414,-0.0832,0.0613,-1.925,-4.6025,-14.418132376669163,8.87501909168359,-4.7721314000010375,5.436999999998079
0.1564,0.9661,-0.25,0.0632,0.1414,-0.0832,0.0613,-1.925,-4.6025,-14.460266876562743,8.894666130917377,-4.7721314000010375,5.436999999998079
0.1558,0.9628,-0.2481,0.063,0.1406,-0.0755,-0.2275,-1.5838,-4.27,-14.454716048608862,8.901993220575523,-4.7974722000062,5.453000000001339
0.1568,0.9605,-0.2527,0.063,0.1406,-0.0755,0.0088,-1.3212,-4.2875,-14.592161962672899,8.947371917501094,-4.7974722000062,5.453000000001339
0.1568,0.9605,-0.2527,0.0629,0.142,-0.087,0.1138,-1.7763,-4.725,-14.658986590987181,8.961643824161333,-4.824116700005166,5.468000000000757
0.1582,0.964,-0.2505,0.0629,0.142,-0.087,0.1138,-1.7763,-4.725,-14.617157290821567,8.99904946882373,-4.824116700005166,5.468000000000757
0.1589,0.9658,-0.2481,0.0629,0.142,-0.0818,-0.105,-1.9075,-4.8913,-14.509823556090602,9.029878791306338,-4.854636699997505,5.48399999999674
0.1625,0.9623,-0.2445,0.0637,0.1425,-0.0818,0.2013,-1.575,-4.2263,-14.402122917473966,9.204692405229066,-4.854636699997505,5.48399999999674
0.1652,0.9644,-0.2483,0.0637,0.1425,-0.0818,0.77,-1.2775,-4.6463,-14.407308343421855,9.33378978649116,-4.876354200006577,5.501000000003842
0.1624,0.9611,-0.2484,0.0633,0.1438,-0.0769,0.77,-1.2775,-4.6463,-14.419391846304682,9.308083072554798,-4.876354200006577,5.501000000003842
0.1624,0.9611,-0.2484,0.0633,0.1438,-0.0769,0.2887,-1.2425,-4.445,-14.447670927669165,9.297368870451084,-4.894991700005853,5.51600000000326
0.1598,0.9597,-0.2538,0.0621,0.141,-0.0826,0.4638,-1.2075,-4.1038,-14.565288707123264,9.194683222421089,-4.894991700005853,5.51600000000326
0.1573,0.9602,-0.2505,0.0621,0.141,-0.0826,0.49,-1.0938,-4.305,-14.582718778390696,9.072851812244599,-4.91249250000146,5.531999999999243
0.1575,0.9617,-0.2462,0.0621,0.141,-0.0826,0.49,-1.0938,-4.305,-14.513661523000618,9.035357200478057,-4.91249250000146,5.531999999999243
0.1572,0.9633,-0.2522,0.0623,0.1435,-0.0741,1.2075,-1.8988,-4.8212,-14.547084978849774,8.998568616788528,-4.94097450001417,5.547000000005937
0.1572,0.9633,-0.2522,0.0623,0.1435,-0.0741,1.54,-1.5488,-5.1013,-14.593721641905592,8.984448865272666,-4.94097450001417,5.547000000005937
0.1591,0.9664,-0.2524,0.0637,0.1416,-0.0826,1.54,-1.5488,-5.0925,-14.610087299618591,9.018608072005012,-4.96575530000795,5.563000000001921
0.1579,0.9659,-0.2519,0.0637,0.1416,-0.0826,0.5688,-1.54,-5.0925,-14.611889881652473,9.003186997742803,-4.96575530000795,5.563000000001921
0.1583,0.965,-0.2501,0.0637,0.1416,-0.0826,0.6737,-2.0825,-5.145,-14.594698192657855,9.0131543203865,-4.9990752999995856,5.5789999999979045
0.1584,0.9638,-0.2488,0.0638,0.1447,-0.0774,0.0787,-2.1175,-5.1275,-14.539188419407466,9.027736263032342,-4.9990752999995856,5.5789999999979045
0.1593,0.9629,-0.2539,0.0638,0.1447,-0.0774,0.0787,-2.1175,-5.1275,-14.646653427699672,9.058694887208967,-5.030837799998353,5.5939999999973224
0.1593,0.9629,-0.2539,0.0639,0.1432,-0.0824,-0.7175,-2.3187,-5.1975,-14.724600507061249,9.073382440717136,-5.030837799998353,5.5939999999973224
0.1595,0.9643,-0.2538,0.0639,0.1432,-0.0824,-0.49,-2.38,-5.18,-14.736957969666818,9.080577269144069,-5.068917800006111,5.610000000000582
0.1576,0.9633,-0.2522,0.0639,0.1432,-0.0824,-0.14,-2.1437,-5.3288,-14.702853617372405,9.041025806787472,-5.068917800006111,5.610000000000582
0.1613,0.9628,-0.2517,0.0649,0.1427,-0.0714,-0.14,-2.1437,-5.3288,-14.675777655981292,9.116374399618543,-5.101073300004863,5.625
0.1588,0.9641,-0.2545,0.0649,0.1427,-0.0714,0.3762,-1.82,-5.25,-14.715953450851716,9.084131740790292,-5.101073300004863,5.625
0.1588,0.9641,-0.2545,0.0634,0.1427,-0.0788,0.28,-1.9688,-5.39,-14.744327872243671,9.068733785184797,-5.132574099996956,5.640999999995984
0.1585,0.9647,-0.2541,0.0634,0.1427,-0.0788,-0.3675,-1.9688,-5.6525,-14.75117867757309,9.05488224304323,-5.132574099996956,5.640999999995984
0.1581,0.9663,-0.2536,0.0634,0.1427,-0.0854,-0.3675,-1.9688,-5.6525,-14.72521003451871,9.03388433052158,-5.164074900003373,5.656999999999243
0.1591,0.9667,-0.2528,0.0625,0.1421,-0.0854,-0.2362,-1.54,-5.6087,-14.687358468891283,9.038573863709063,-5.164074900003373,5.656999999999243
0.1621,0.9644,-0.2546,0.0625,0.1421,-0.0854,0.1925,-1.1725,-5.6613,-14.730602349306618,9.102767896704,-5.181662400002691,5.671999999998661
0.1609,0.9639,-0.2525,0.0631,0.1418,-0.0868,-0.14,-1.2337,-5.7225,-14.703920089484338,9.124177284011417,-5.181662400002691,5.671999999998661
0.1609,0.9639,-0.2525,0.0631,0.1418,-0.0868,-0.14,-1.2337,-5.7225,-14.691081333668881,9.139041848269633,-5.202635300002475,5.688999999998487
0.1604,0.9647,-0.2515,0.0635,0.1422,-0.0777,-0.3325,-1.05,-5.8975,-14.64678564560324,9.139259517167632,-5.202635300002475,5.688999999998487
0.1624,0.9626,-0.25,0.0635,0.1422,-0.0777,-0.1925,-0.7962,-5.3987,-14.600107586577321,9.197672047033233,-5.214578300007805,5.7040000000051805
0.1581,0.9618,-0.252,0.0635,0.1422,-0.0777,2.0475,-0.5688,-5.1537,-14.643157498838924,9.116001848086025,-5.214578300007805,5.7040000000051805
0.1548,0.9639,-0.2532,0.0638,0.1414,-0.0781,0.0263,-0.5688,-5.1537,-14.678905522938933,8.971892541725271,-5.22367910000552,5.720000000001164
0.1548,0.9639,-0.2532,0.0638,0.1414,-0.0781,0.0875,-0.3762,-5.1975,-14.696924636008838,8.901748323700517,-5.22367910000552,5.720000000001164
0.1542,0.9654,-0.2522,0.0659,0.1426,-0.0836,0.595,0.2362,-4.6463,-14.682552616475968,8.831396291669982,-5.21989990000475,5.736000000004424
0.1549,0.9637,-0.2503,0.0659,0.1426,-0.0836,0.595,0.2362,-4.6463,-14.651139358902949,8.838260135531298,-5.21989990000475,5.736000000004424
0.1584,0.9626,-0.2534,0.0659,0.1426,-0.0836,1.0237,0.105,-4.5588,-14.658783505834782,8.963652880792607,-5.218324900005575,5.750999999996566
0.1621,0.9633,-0.2549,0.0625,0.141,-0.0839,0.1925,-0.0525,-4.3313,-14.728255633900124,9.142245074471584,-5.219164900005746,5.766999999999825
0.1621,0.9684,-0.2522,0.0625,0.141,-0.0839,0.4288,-0.1225,-4.3575,-14.684045908903489,9.180192418954272,-5.219164900005746,5.766999999999825
0.1605,0.9684,-0.2522,0.0622,0.1418,-0.083,0.4288,-0.1225,-4.3575,-14.654757451915494,9.136259083917535,-5.221002400006566,5.782000000006519
0.1619,0.9667,-0.2509,0.0622,0.1418,-0.083,0.0613,-0.2187,-4.3837,-14.605660554824512,9.182116889533381,-5.221002400006566,5.782000000006519
0.1608,0.9609,-0.2525,0.0622,0.1418,-0.083,-0.4375,-0.7,-4.4538,-14.673618836393729,9.189308269732441,-5.232202400003755,5.798000000002503
0.1593,0.9611,-0.2533,0.0626,0.1426,-0.0802,0.1663,-0.4375,-4.83,-14.713293602442992,9.141496144740557,-5.232202400003755,5.798000000002503
0.1595,0.9648,-0.2502,0.0626,0.1426,-0.0802,0.1663,-0.4375,-4.83,-14.636998215771772,9.113057245562299,-5.252764900003169,5.845000000001164
0.1595,0.9648,-0.2502,0.0621,0.1425,-0.0856,0.21,-0.7088,-4.6813,-14.595351469519025,9.100318232088574,-5.263396900002756,5.860000000000582
0.1579,0.9645,-0.2526,0.0621,0.1425,-0.0856,-0.0962,-0.9538,-5.0487,-14.636356728189082,9.047041557617376,-5.263396900002756,5.860000000000582
0.1607,0.9636,-0.2528,0.0621,0.1425,-0.0651,0.2013,-1.3038,-5.3637,-14.66346021149125,9.098781493425342,-5.263396900002756,5.860000000000582
0.159,0.9682,-0.2507,0.0634,0.1423,-0.079,0.2013,-1.3038,-5.3637,-14.601318654969829,9.06967023397725,-5.263396900002756,5.860000000000582
0.1592,0.9666,-0.2495,0.0634,0.1423,-0.079,0.175,-1.3125,-5.2762,-14.54592147861912,9.065545403990741,-5.284396899997485,5.875999999996566
0.1592,0.9643,-0.2502,0.0634,0.1443,-0.0826,-0.63,-1.8375,-5.8625,-14.5455928440345,9.068707915613334,-5.284396899997485,5.875999999996566
0.1617,0.9643,-0.2502,0.0634,0.1443,-0.0826,-1.5925,-2.1613,-5.845,-14.545442641177969,9.105044940166247,-5.284396899997485,5.875999999996566
0.1612,0.9628,-0.2505,0.0632,0.1426,-0.0839,-1.5925,-2.1613,-5.845,-14.572938596880634,9.128875798643854,-5.284396899997485,5.875999999996566
0.1588,0.961,-0.2546,0.0632,0.1426,-0.0839,-0.7788,-1.8813,-5.8187,-14.740828389562028,9.115186990162968,-5.314497700003617,5.891999999999825
0.1541,0.9612,-0.2524,0.0632,0.1426,-0.0839,-0.98,-2.3275,-6.3263,-14.722564815533422,9.072902559880248,-5.314497700003617,5.891999999999825
0.1553,0.9606,-0.2496,0.0626,0.1423,-0.081,-0.98,-2.3275,-6.2475,-14.619321592964498,9.058868157389044,-5.314497700003617,5.891999999999825
0.1553,0.9606,-0.2496,0.0626,0.1423,-0.081,-1.2425,-2.555,-6.2475,-14.582421180877551,9.045929682533531,-5.35282270000213,5.906999999999243
0.1526,0.9611,-0.2535,0.0636,0.1411,-0.0839,-1.05,-2.975,-6.1775,-14.711111431487328,9.041326265859542,-5.35282270000213,5.906999999999243
0.1538,0.9629,-0.2509,0.0636,0.1411,-0.0839,-0.6388,-2.9925,-6.5975,-14.645957323252363,8.964081509802874,-5.541350200007878,5.970000000001164
0.1525,0.9657,-0.2519,0.0636,0.1411,-0.0839,-0.6388,-2.9925,-6.5975,-14.62986828731383,8.880370781447574,-5.586237700006136,5.985000000000582
0.1541,0.9652,-0.2523,0.0637,0.1433,-0.0859,-0.525,-3.2638,-6.1425,-14.641318272425826,8.878391073256138,-5.586237700006136,5.985000000000582
0.1541,0.9676,-0.2535,0.0637,0.1433,-0.0859,-0.4988,-3.2725,-6.3175,-14.66464595252142,8.862283300080138,-5.6385977000168035,6.001000000003842
0.1541,0.9676,-0.2535,0.065,0.1418,-0.0829,-0.1488,-3.3163,-5.7137,-14.673100986194378,8.830014748911227,-5.6385977000168035,6.001000000003842
0.1587,0.9695,-0.2452,0.065,0.1418,-0.0829,-0.1488,-3.3163,-5.7137,-14.423176321402522,8.888088449796241,-5.6385977000168035,6.001000000003842
0.1552,0.9681,-0.2561,0.065,0.1418,-0.0829,-0.0875,-2.4762,-5.6262,-14.622861757073375,8.860739033341224,-5.6385977000168035,6.001000000003842
0.1574,0.9658,-0.2539,0.0634,0.1424,-0.0846,-0.1663,-2.2487,-5.3463,-14.678700395027139,8.904079137152491,-5.6385977000168035,6.001000000003842
0.1562,0.9653,-0.2536,0.0634,0.1424,-0.0846,-0.5337,-1.8463,-5.1975,-14.703230230806492,8.899557334850225,-5.666292200002295,6.015999999995984
0.1562,0.9653,-0.2536,0.0657,0.142,-0.0791,-0.5337,-1.8463,-5.1975,-14.713153468117202,8.897256510953245,-5.666292200002295,6.015999999995984
0.155,0.9647,-0.2518,0.0657,0.142,-0.0791,-0.0175,-1.6538,-5.4425,-14.671838195935743,8.871880454158749,-5.666292200002295,6.015999999995984
0.1554,0.9654,-0.2515,0.0657,0.142,-0.0996,-0.035,-1.4262,-5.285,-14.637286774423826,8.863445059843892,-5.666292200002295,6.015999999995984
0.156,0.9642,-0.2506,0.0651,0.1414,-0.0842,0.2275,-1.155,-5.1712,-14.608955669035872,8.881475849680488,-5.68477220000606,6.031999999999243
0.1561,0.9644,-0.2524,0.0651,0.1414,-0.0842,0.2275,-1.155,-5.1712,-14.63279357421924,8.890489138684599,-5.720577200009153,6.063000000001921
0.1717,0.9646,-0.2535,0.064,0.1429,-0.0827,-0.0175,-0.7262,-4.9875,-14.677637275249584,9.364620116094613,-5.720577200009153,6.063000000001921
0.1593,0.9646,-0.2535,0.064,0.1429,-0.0827,-0.0525,-1.2163,-4.69,-14.700988108930765,9.191990703677277,-5.720577200009153,6.063000000001921
0.1588,0.9633,-0.2509,0.064,0.1425,-0.082,-0.3762,-1.155,-4.865,-14.642973836935584,9.119638972647099,-5.720577200009153,6.063000000001921
0.1607,0.965,-0.2503,0.064,0.1425,-0.082,-0.3762,-1.155,-4.865,-14.584970047120441,9.140735333022747,-5.720577200009153,6.063000000001921
0.1582,0.9652,-0.2566,0.064,0.1425,-0.082,-0.4812,-1.2425,-4.9088,-14.76264203610701,9.062975644549422,-5.740457200013203,6.0790000000051805
0.1577,0.9658,-0.2536,0.0632,0.1437,-0.0779,-0.56,-0.9363,-4.8913,-14.732633818223244,9.013522108458362,-5.740457200013203,6.0790000000051805
0.1577,0.9658,-0.2536,0.0632,0.1437,-0.0779,-0.56,-0.9363,-4.8562,-14.720622166155238,8.991490208821089,-5.740457200013203,6.0790000000051805
0.157,0.9661,-0.2536,0.0667,0.1426,-0.0809,-0.9625,-0.8225,-4.8562,-14.712505021307502,8.95829081367646,-5.752794700006739,6.0939999999973224
0.1566,0.9655,-0.2508,0.0667,0.1426,-0.0809,-0.2013,-0.7525,-4.8212,-14.632040772654035,8.937388472919787,-5.752794700006739,6.0939999999973224
0.1573,0.9635,-0.2552,0.0667,0.1426,-0.0809,0.0088,-0.5775,-5.0225,-14.729878879077773,8.953846129186672,-5.762034700008622,6.110000000000582
0.1573,0.9662,-0.252,0.0636,0.1434,-0.0835,0.0088,-0.5775,-5.0225,-14.675973585062712,8.953072047061351,-5.762034700008622,6.110000000000582
0.1573,0.9634,-0.2569,0.0636,0.1434,-0.0835,-0.385,-0.49,-5.1887,-14.82125580039936,8.95909121078413,-5.769874700010218,6.126000000003842
0.154,0.9634,-0.2569,0.0642,0.1417,-0.0819,-0.07,-0.5337,-5.32,-14.87637716778445,8.877252672956264,-5.769874700010218,6.126000000003842
0.1523,0.9644,-0.2539,0.0642,0.1417,-0.0819,0.2187,-0.2275,-4.9875,-14.823370007847831,8.772305327718527,-5.773287200008431,6.140999999995984
0.1524,0.9681,-0.2533,0.0642,0.1417,-0.0819,0.2187,-0.2275,-4.9875,-14.756072348227335,8.711263512033947,-5.773287200008431,6.140999999995984
0.1555,0.9681,-0.251,0.0649,0.1425,-0.0787,-0.1138,-0.98,-5.0925,-14.642768498403406,8.776657248945034,-5.7889672000116255,6.156999999999243
0.1567,0.9659,-0.2525,0.0649,0.1425,-0.0787,-0.3237,-0.4638,-5.2675,-14.646852320924665,8.844480964753478,-5.7889672000116255,6.156999999999243
0.1567,0.9659,-0.2525,0.0628,0.1442,-0.0877,-0.105,-0.5163,-5.39,-14.648504626369512,8.877504295145151,-5.796711700011325,6.171999999998661
0.1543,0.9632,-0.2536,0.0628,0.1442,-0.0877,-0.105,-0.5163,-5.39,-14.700627881200349,8.846340773050189,-5.796711700011325,6.171999999998661
0.1562,0.9642,-0.2516,0.0628,0.1442,-0.0877,-0.2975,-1.015,-5.39,-14.658685165585918,8.873510785791868,-5.812951700014633,6.188000000001921
0.1546,0.9667,-0.2532,0.0644,0.1422,-0.0867,-1.0588,-1.4787,-4.8738,-14.671100659467339,8.828922009773192,-5.812951700014633,6.188000000001921
0.1588,0.965,-0.2502,0.0644,0.1422,-0.0867,-0.9887,-1.1638,-4.6463,-14.581682868058014,8.96260156090546,-5.831572500018426,6.2040000000051805
0.1588,0.9633,-0.2506,0.0649,0.1403,-0.0857,-0.9887,-1.1638,-4.6463,-14.581975318551695,9.024047638281504,-5.831572500018426,6.2040000000051805
0.1602,0.9633,-0.2506,0.0649,0.1403,-0.0857,-0.9538,-1.5313,-5.2413,-14.582074608986115,9.081159291953217,-5.8545420000063935,6.2189999999973224
0.1571,0.9636,-0.2535,0.0631,0.1425,-0.0833,-0.6475,-1.4175,-5.2675,-14.678417495222046,9.02394671052311,-5.8545420000063935,6.2189999999973224
0.1554,0.9631,-0.2519,0.0631,0.1425,-0.0833,-0.5688,-1.6187,-5.4163,-14.665805227781687,8.959184305287382,-5.88044120001167,6.235000000000582
0.157,0.9607,-0.2496,0.0631,0.1425,-0.0833,-0.5688,-1.6187,-5.4163,-14.604636656150102,8.971537152310034,-5.88044120001167,6.235000000000582
0.1588,0.9623,-0.2488,0.0649,0.143,-0.0844,-0.595,-1.6888,-5.2587,-14.539018311523229,9.021754831957441,-5.905773200010687,6.25
0.1588,0.9623,-0.2488,0.0649,0.143,-0.0844,-0.5337,-1.6187,-5.5825,-14.513534510963423,9.042151218007994,-5.905773200010687,6.25
0.1583,0.9614,-0.2501,0.0646,0.1428,-0.085,-0.5337,-1.6187,-5.635,-14.554188702318429,9.046269739801435,-5.931672400015963,6.26600000000326
0.1642,0.9603,-0.2486,0.0646,0.1428,-0.085,-0.63,-1.8025,-5.635,-14.529620179847711,9.168133156648448,-5.931672400015963,6.26600000000326
0.1645,0.9642,-0.2438,0.0646,0.1428,-0.085,-0.9363,-1.5137,-5.5912,-14.308108399893715,9.249488942929341,-5.955891600020897,6.282000000006519
0.1623,0.963,-0.2461,0.0653,0.1438,-0.0696,-0.3938,-1.05,-5.3288,-14.323717439989412,9.260577540756318,-5.955891600020897,6.282000000006519
0.1623,0.963,-0.2531,0.0653,0.1438,-0.0696,-0.3938,-1.05,-5.3288,-14.553325794996109,9.259313981725095,-5.971641600012647,6.296999999998661
0.1597,0.96,-0.2531,0.0629,0.1422,-0.0824,-0.2187,-0.7437,-5.5125,-14.66938866094385,9.21158044592815,-5.971641600012647,6.296999999998661
0.1581,0.9598,-0.2495,0.0629,0.1422,-0.0824,-0.0787,-0.77,-5.8888,-14.620049039305012,9.178563680561382,-5.9839616000151565,6.313000000001921
0.1536,0.9625,-0.2505,0.0629,0.1422,-0.0824,0.0613,-0.56,-5.4513,-14.605147406790223,9.012614876445083,-5.9839616000151565,6.313000000001921
0.1553,0.9639,-0.2495,0.0642,0.1422,-0.0817,0.0613,-0.56,-5.4513,-14.561707917819652,8.951382774154743,-5.9923616000148305,6.328000000001339
0.1549,0.9694,-0.2484,0.0642,0.1422,-0.0817,0.14,-0.7525,-5.6613,-14.477625561384569,8.900456734867674,-5.9923616000148305,6.328000000001339
0.1549,0.9694,-0.2484,0.0643,0.1398,-0.0791,0.2187,-0.6037,-5.4687,-14.433548728727436,8.858850975274393,-6.0020208000167985,6.344000000004598
0.1553,0.969,-0.2554,0.0643,0.1398,-0.0791,-0.0175,-1.2337,-5.915,-14.595857941421635,8.84902481254632,-6.0020208000167985,6.344000000004598
0.1548,0.9677,-0.2518,0.0643,0.1398,-0.0791,-0.0175,-1.2337,-5.915,-14.59064783830174,8.839330216441317,-6.021760000011843,6.360000000000582
0.1502,0.9686,-0.2551,0.0642,0.1448,-0.09,0.0263,-1.6888,-5.6875,-14.669000714072583,8.739118717477476,-6.021760000011843,6.360000000000582
0.1502,0.9709,-0.2491,0.0642,0.1448,-0.09,-0.2887,-1.365,-6.0287,-14.515157185145966,8.71347863450979,-6.042235000011049,6.375
0.1502,0.9709,-0.2505,0.0648,0.143,-0.0762,-0.28,-1.26,-5.705,-14.488852200116536,8.65251629615229,-6.042235000011049,6.375
0.1487,0.9669,-0.2505,0.0648,0.143,-0.0762,-0.28,-1.26,-5.705,-14.508475697836685,8.594488765513063,-6.062395000015156,6.39100000000326
0.1477,0.9642,-0.2539,0.0648,0.1444,-0.0865,0.4112,-1.3563,-5.5825,-14.592744646087302,8.532686307380901,-6.062395000015156,6.39100000000326
0.1475,0.966,-0.2519,0.065,0.1444,-0.0865,-0.21,-1.8725,-5.285,-14.604811607942231,8.472849985914074,-6.090482500014066,6.4060000000026776
0.1507,0.967,-0.2549,0.065,0.1444,-0.0865,-0.21,-1.8725,-4.9088,-14.691600724507534,8.526743059406433,-6.090482500014066,6.4060000000026776
0.1535,0.9676,-0.2512,0.0641,0.1422,-0.0866,-0.2975,-1.8463,-4.9088,-14.615191356939127,8.639587549398613,-6.120023300006651,6.421999999998661
0.1535,0.9676,-0.2512,0.0641,0.1422,-0.0866,-0.5863,-1.89,-4.8913,-14.57785159589972,8.689959298651258,-6.120023300006651,6.421999999998661
0.1551,0.9658,-0.2524,0.0658,0.1434,-0.0777,-0.2537,-1.5662,-4.9,-14.61490273869653,8.769038572366787,-6.145082500000361,6.437999999994645
0.155,0.9671,-0.2552,0.0658,0.1434,-0.0777,-0.2537,-1.5662,-4.9,-14.70595372275502,8.791316396220145,-6.168575500010845,6.453000000001339
0.1584,0.9661,-0.2507,0.0658,0.1434,-0.0777,-0.7,-2.1613,-5.2325,-14.607383044894148,8.900440121382074,-6.168575500010845,6.453000000001339
0.1572,0.9653,-0.2452,0.066,0.1429,-0.0874,-0.595,-1.0675,-4.795,-14.392596088051901,8.940320405069444,-6.185655500014325,6.469000000004598
0.1572,0.9653,-0.2521,0.066,0.1429,-0.0874,-0.3675,-0.7875,-5.04,-14.530764090805631,8.947690219301423,-6.185655500014325,6.469000000004598
0.159,0.9618,-0.2521,0.0618,0.1431,-0.0821,-0.3675,-0.7875,-5.04,-14.619547977481538,9.020537464154215,-6.197468000008136,6.48399999999674
0.1609,0.9618,-0.2505,0.0618,0.1431,-0.0821,0.0263,-0.7525,-5.2325,-14.60942220631477,9.105013867515279,-6.197468000008136,6.48399999999674
0.1565,0.9626,-0.2537,0.0618,0.1431,-0.0821,-0.2013,-0.6037,-4.8212,-14.692257695764525,9.007294952531923,-6.207127200010104,6.5
0.1593,0.9625,-0.2516,0.0659,0.1438,-0.0758,0.21,-0.2362,-5.075,-14.674225502565761,9.054200377292313,-6.207127200010104,6.5
0.1623,0.9611,-0.2514,0.0659,0.1438,-0.0758,0.21,-0.2362,-5.075,-14.667694061011884,9.171106315628949,-6.210906400009156,6.515999999995984
0.1623,0.9611,-0.2514,0.065,0.143,-0.0826,0.0962,-0.28,-5.39,-14.663594265740208,9.217954755708355,-6.210906400009156,6.515999999995984
0.1615,0.9636,-0.2492,0.065,0.143,-0.0826,0.0613,0.1575,-5.32,-14.587057545172332,9.217344097876223,-6.2085439000081015,6.5310000000026776
0.1602,0.9628,-0.2525,0.065,0.143,-0.0826,0.0088,-0.1575,-5.775,-14.639161511021664,9.196617035912162,-6.2085439000081015,6.5310000000026776
0.159,0.9663,-0.2505,0.064,0.1424,-0.0867,0.0088,-0.1575,-5.775,-14.588127566805683,9.15566271779647,-6.2110639000086145,6.547000000005937
0.1601,0.9653,-0.2524,0.064,0.1424,-0.0867,0.0525,-0.07,-5.81,-14.618714693274784,9.145321563176559,-6.2110639000086145,6.547000000005937
0.1601,0.9653,-0.2524,0.064,0.1432,-0.0795,-0.5163,-0.2013,-5.5475,-14.639178243001613,9.134156104736759,-6.214083400007032,6.561999999998079
0.1568,0.9638,-0.2539,0.064,0.1432,-0.0795,-0.5163,0.245,-5.67,-14.709879027734512,9.070261169502864,-6.214083400007032,6.561999999998079
0.1554,0.9687,-0.2516,0.064,0.1432,-0.077,-0.49,0.245,-5.67,-14.621546344696176,8.989563372863413,-6.210163400006234,6.578000000001339
0.1538,0.9659,-0.2465,0.0649,0.1429,-0.077,-0.2625,-0.07,-5.5825,-14.45507690174844,8.909200067206742,-6.210163400006234,6.578000000001339
0.1552,0.9656,-0.2494,0.0649,0.1429,-0.077,-0.2713,0.1838,-5.0138,-14.469890554549563,8.875159194843867,-6.207222600006972,6.5939999999973224
0.1537,0.9671,-0.2558,0.064,0.1446,-0.0854,-0.2713,0.1838,-5.0138,-14.659122280803986,8.800168992188281,-6.207222600006972,6.5939999999973224
0.1537,0.9671,-0.2558,0.064,0.1446,-0.0854,-0.2362,-0.2013,-4.5237,-14.74362166245487,8.759633548138964,-6.210242100008319,6.609000000004016
0.1545,0.9683,-0.2519,0.065,0.1435,-0.0793,-0.3325,-0.4725,-5.0487,-14.653223432712634,8.769408759863628,-6.210242100008319,6.609000000004016
0.1534,0.967,-0.2498,0.065,0.1435,-0.0793,-0.8225,-0.7788,-5.32,-14.545468622771203,8.752295358530175,-6.222702900005191,6.625
0.1562,0.9665,-0.2517,0.065,0.1435,-0.0793,-0.8225,-0.7788,-5.32,-14.578321801837722,8.81477668449579,-6.222702900005191,6.625
0.156,0.9661,-0.2514,0.0654,0.1444,-0.08,-0.9275,-0.7,-5.2063,-14.583388077067681,8.847524306100194,-6.236702900008043,6.6450000000040745
0.156,0.9661,-0.2514,0.0654,0.1444,-0.08,-0.4112,-0.91,-4.9437,-14.584947719555693,8.86633297786542,-6.237612900004918,6.64600000000064
0.1561,0.9665,-0.2519,0.0645,0.1428,-0.0804,-0.9363,-1.68,-5.5475,-14.600034765112643,8.872632664924634,-6.237612900004918,6.64600000000064
0.1581,0.9655,-0.2512,0.0645,0.1428,-0.0804,-0.9363,-1.68,-5.5475,-14.589359922474147,8.923045658422218,-6.264492899998171,6.661999999996624
0.1582,0.9637,-0.2496,0.0645,0.1428,-0.0804,-1.6275,-1.7763,-5.5563,-14.539904994517773,8.963299230463052,-6.264492899998171,6.661999999996624
0.1607,0.9631,-0.2474,0.0639,0.142,-0.088,-1.7938,-1.715,-5.355,-14.442306263563234,9.060221733315592,-6.291932900003761,6.677999999999884
0.1577,0.962,-0.2481,0.0639,0.142,-0.088,-1.2163,-1.3913,-5.6962,-14.455393285592917,9.047301875534272,-6.312802400002951,6.6929999999993015
0.1577,0.962,-0.2481,0.0646,0.1431,-0.083,-1.2163,-1.3913,-5.6962,-14.45954189147719,9.038492463145374,-6.312802400002951,6.6929999999993015
0.1568,0.9618,-0.2448,0.0646,0.1431,-0.083,-1.26,-1.4525,-5.8362,-14.33605152180073,9.023594750573665,-6.336042400007686,6.709000000002561
0.1587,0.9614,-0.2454,0.0646,0.1431,-0.083,-1.0762,-1.6013,-5.3375,-14.324755954755515,9.052317699587002,-6.339244999996687,6.710999999995693
0.1578,0.9624,-0.2472,0.0654,0.1436,-0.0917,-0.6737,-0.9187,-5.67,-14.374559292143214,9.042897304219766,-6.339244999996687,6.710999999995693
0.1557,0.9636,-0.2463,0.0654,0.1436,-0.0917,-0.6737,-0.9187,-5.67,-14.352021624834597,8.99485184138158,-6.353025500002837,6.7260000000023865
0.1557,0.9636,-0.2463,0.065,0.143,-0.0814,-0.5075,-0.9975,-5.7925,-14.343756732194143,8.968505530458769,-6.353025500002837,6.7260000000023865
0.1534,0.963,-0.2467,0.065,0.143,-0.0814,-0.35,-1.155,-5.8975,-14.357934703347706,8.927339111227068,-6.371505499998198,6.74199999999837
0.1542,0.9643,-0.2454,0.065,0.143,-0.0814,-0.35,-1.155,-5.8625,-14.31284756584677,8.900013400721091,-6.371505499998198,6.74199999999837
0.1549,0.964,-0.2471,0.0641,0.1428,-0.0772,0.1925,-1.0675,-5.8625,-14.340236004409883,8.88782512149918,-6.388585500001678,6.75800000000163
0.1523,0.9662,-0.251,0.0641,0.1428,-0.0772,-0.0263,-1.015,-6.02,-14.449333688792239,8.861154246174724,-6.403810500001088,6.773000000001048
0.1523,0.9658,-0.2505,0.0665,0.143,-0.0779,0.0613,-1.1025,-5.8625,-14.491893913035092,8.81903347990789,-6.403810500001088,6.773000000001048
0.1524,0.9658,-0.2505,0.0665,0.143,-0.0779,0.0613,-1.1025,-5.8625,-14.514569008358356,8.787936266488792,-6.421450499996659,6.788999999997031
0.1518,0.9676,-0.2477,0.0649,0.1428,-0.0851,0.0962,-1.3475,-5.6525,-14.443465451469663,8.738560074377942,-6.421450499996659,6.788999999997031
0.1531,0.9686,-0.2458,0.0649,0.1428,-0.0851,0.2625,-0.9887,-5.7663,-14.361123002328355,8.730560563788606,-6.421450499996659,6.788999999997031
0.1508,0.9683,-0.2525,0.0649,0.1428,-0.0851,0.07,-0.875,-5.565,-14.47926547770289,8.670430569613952,-6.434575500002516,6.804000000003725
0.1461,0.9697,-0.2525,0.0649,0.1402,-0.085,0.07,-0.875,-5.565,-14.533114732422039,8.53013922936487,-6.448575499999002,6.819999999999709
0.1461,0.9697,-0.2525,0.0649,0.1402,-0.085,0.3762,-1.0588,-5.7488,-14.555430656550715,8.461428297430047,-6.448575499999002,6.819999999999709
0.1504,0.9701,-0.2499,0.0646,0.1422,-0.0826,0.2713,-1.3563,-5.215,-14.511431763547481,8.498826793661285,-6.470276300003423,6.836000000002969
0.1511,0.9687,-0.2511,0.0646,0.1422,-0.0826,-0.1575,-1.5925,-4.7075,-14.522181524819501,8.550700261928897,-6.470276300003423,6.836000000002969
0.1511,0.969,-0.2511,0.0646,0.1422,-0.0826,-0.1575,-1.5925,-4.7075,-14.525058045142357,8.570372958621594,-6.494163799990909,6.850999999995111
0.1508,0.9695,-0.25,0.0655,0.1428,-0.0857,-0.5512,-1.2163,-4.6463,-14.485875780465202,8.567340737546754,-6.494163799990909,6.850999999995111
0.1508,0.9689,-0.2452,0.0655,0.1428,-0.0857,-0.5075,-1.6975,-4.9437,-14.317891904268242,8.574449029801457,-6.521323799996443,6.86699999999837
0.154,0.9689,-0.2452,0.0631,0.1426,-0.0838,-0.5425,-1.8725,-4.6287,-14.248537906662598,8.686511571602155,-6.521323799996443,6.86699999999837
0.156,0.9667,-0.2475,0.0631,0.1426,-0.0838,-0.5425,-1.8725,-4.6287,-14.315496744742479,8.80680019790539,-6.549411300008978,6.882000000005064
0.1517,0.9667,-0.2515,0.0631,0.1426,-0.0838,-0.8575,-1.7325,-4.8038,-14.487310145562256,8.708131805284825,-6.549411300008978,6.882000000005064
0.1557,0.9661,-0.2474,0.0666,0.143,-0.0755,-1.12,-1.5575,-4.8038,-14.404118532504864,8.803513484288183,-6.574331300002722,6.898000000001048
0.1567,0.9658,-0.2463,0.0666,0.143,-0.0755,-0.7788,-1.4875,-5.1013,-14.34256805195243,8.871083216865733,-6.574331300002722,6.898000000001048
0.1567,0.9658,-0.2463,0.0639,0.1439,-0.0814,-0.7788,-1.4875,-5.1013,-14.319914704876625,8.90386023889271,-6.598131300007571,6.914000000004307
0.1559,0.9633,-0.2471,0.0639,0.1439,-0.0814,-0.5775,-1.4262,-4.7162,-14.360319146629491,8.907144323967797,-6.598131300007571,6.914000000004307
0.1565,0.9622,-0.2466,0.0639,0.1439,-0.0814,-0.5512,-0.9013,-4.76,-14.368985660525068,8.934317653545916,-6.611650800000489,6.928999999996449
0.1527,0.9628,-0.2503,0.065,0.1419,-0.0774,-0.5512,-0.9013,-5.0138,-14.49084256488297,8.823287614881965,-6.611650800000489,6.928999999996449
0.1515,0.9647,-0.2455,0.065,0.1419,-0.0774,0.1488,-0.9887,-5.0138,-14.39683167090524,8.732561331204618,-6.6274700000037114,6.944999999999709
0.1515,0.9648,-0.2458,0.0649,0.1426,-0.086,0.1925,-1.1638,-5.0662,-14.352502507219565,8.690496371387619,-6.6274700000037114,6.944999999999709
0.1556,0.9648,-0.2458,0.0649,0.1426,-0.086,-0.2187,-1.2775,-4.8825,-14.320618924725073,8.798355695129072,-6.646632500012263,6.960000000006403
0.1576,0.9648,-0.2495,0.0649,0.1442,-0.0847,-0.2187,-1.2775,-4.8825,-14.416410797439223,8.904132030127997,-6.646632500012263,6.960000000006403
