AcclX,AcclY,AcclZ,MagX,MagY,MagZ,GyroX,GyroY,GyroZ,Roll,Pitch,Yaw,Time Elapsed(s)
0.1425,0.9796,-0.2133,0.031,0.168,-0.157,0.3588,1.33,-5.3463,0,0,0,0.0
0.1431,0.9835,-0.2103,0.0296,0.1682,-0.1472,-0.175,1.6275,-5.3375,0,0,0,0.01600000000325963
0.1431,0.9835,-0.2103,0.0296,0.1682,-0.1472,-0.0088,1.6625,-5.11,0,0,0,0.01600000000325963
0.1399,0.9818,-0.209,0.0306,0.1667,-0.1573,-0.2362,1.2075,-5.1887,0,0,0,0.030999999995401595
0.1375,0.9795,-0.2117,0.0306,0.1667,-0.1573,-0.2362,1.2075,-5.1887,0,0,0,0.030999999995401595
0.1338,0.9783,-0.2137,0.0306,0.1667,-0.1573,-0.35,0.98,-4.9,0,0,0,0.046999999998661224
0.1358,0.9806,-0.2102,0.0293,0.1666,-0.147,-0.1225,0.945,-4.9525,0,0,0,0.046999999998661224
0.1358,0.9809,-0.2117,0.0293,0.1666,-0.147,0.0875,0.28,-5.2325,0,0,0,0.06199999999807915
0.1366,0.9809,-0.2117,0.0295,0.1678,-0.1547,0.0875,0.28,-5.2325,0,0,0,0.06199999999807915
0.1387,0.98,-0.2088,0.0295,0.1678,-0.1547,-0.1925,-0.5075,-4.48,0,0,0,0.07799999999406282
0.1388,0.9828,-0.2115,0.0295,0.1678,-0.1547,-0.0088,-0.2887,-4.5763,0,0,0,0.07799999999406282
0.1399,0.9826,-0.2106,0.0299,0.1673,-0.1556,-0.5688,-0.6475,-4.3575,0,0,0,0.09399999999732245
0.1402,0.9766,-0.2123,0.0299,0.1673,-0.1556,-0.5688,-0.6475,-4.3575,0,0,0,0.09399999999732245
0.1402,0.9766,-0.2123,0.0304,0.1675,-0.1579,-0.7613,-0.9275,-4.6988,0,0,0,0.10899999999674037
0.1398,0.9753,-0.2104,0.0304,0.1675,-0.1579,-0.6913,-1.82,-4.8738,0,0,0,0.10899999999674037
0.1391,0.9745,-0.2105,0.0304,0.1675,-0.1579,-0.6913,-1.82,-4.8562,0,0,0,0.125
0.1435,0.9754,-0.2097,0.0284,0.1678,-0.1562,-1.0762,-2.1,-4.8562,0,0,0,0.125
0.1422,0.9766,-0.2125,0.0284,0.1678,-0.1562,-0.8138,-2.6688,-5.2325,0,0,0,0.13999999999214197
0.1422,0.9766,-0.2097,0.0289,0.1659,-0.157,-0.56,-2.6775,-5.005,0,0,0,0.13999999999214197
0.1435,0.9765,-0.2097,0.0289,0.1659,-0.157,-0.56,-2.6775,-5.005,0,0,0,0.1559999999954016
0.145,0.9787,-0.209,0.0285,0.1674,-0.1565,-0.9975,-3.1412,-5.3637,0,0,0,0.1559999999954016
0.1443,0.9755,-0.2104,0.0285,0.1674,-0.1565,-1.4525,-2.4237,-5.565,0,0,0,0.17199999999866122
0.1493,0.9744,-0.2071,0.0285,0.1674,-0.1565,-1.0938,-2.2313,-5.25,0,0,0,0.17199999999866122
0.151,0.9727,-0.2084,0.0288,0.1667,-0.1554,-1.0938,-2.2313,-5.25,0,0,0,0.18699999999807915
0.151,0.9727,-0.2084,0.0288,0.1667,-0.1554,-0.0613,-2.03,-5.2238,0,0,0,0.18699999999807915
0.1544,0.9736,-0.2074,0.0314,0.1682,-0.154,-0.315,-2.2925,-5.53,0,0,0,0.20300000000133878
0.151,0.9751,-0.2089,0.0314,0.1682,-0.154,-0.3413,-2.0038,-5.32,0,0,0,0.21799999999348074
0.1502,0.975,-0.2081,0.0314,0.1682,-0.154,-0.3413,-2.0038,-5.32,0,0,0,0.21799999999348074
0.1518,0.9725,-0.2076,0.0312,0.1671,-0.1565,-0.245,-1.4612,-5.6262,0,0,0,0.23399999999674037
0.1518,0.9725,-0.2092,0.0312,0.1671,-0.1565,-0.0263,-1.3913,-5.4425,0,0,0,0.23399999999674037
0.1485,0.9725,-0.2092,0.03,0.1662,-0.155,0.3413,-0.6825,-5.0487,0,0,0,0.25
0.1511,0.9745,-0.2092,0.03,0.1662,-0.155,0.3413,-0.6825,-5.0487,0,0,0,0.25
0.1473,0.9778,-0.2072,0.03,0.1662,-0.155,0.6125,-1.0063,-5.425,0,0,0,0.2649999999994179
0.1485,0.9753,-0.2094,0.028,0.1671,-0.156,0.42,-0.9887,-5.3812,0,0,0,0.2649999999994179
0.1495,0.9765,-0.2084,0.028,0.1671,-0.156,0.2362,-0.7788,-4.76,0,0,0,0.28100000000267755
0.1495,0.9765,-0.2084,0.0302,0.1674,-0.1575,0.2362,-0.7788,-4.76,0,0,0,0.28100000000267755
0.148,0.9769,-0.2131,0.0302,0.1674,-0.1575,0.4288,-0.4025,-4.8125,0,0,0,0.2959999999948195
0.1493,0.9763,-0.2115,0.0302,0.1674,-0.1575,0.385,-0.9013,-4.8212,0,0,0,0.2959999999948195
0.1495,0.9747,-0.2103,0.03,0.168,-0.1584,0.385,-0.9013,-4.8212,0,0,0,0.31199999999807915
0.1462,0.9762,-0.2118,0.03,0.168,-0.1584,0.1663,-0.7262,-5.18,0,0,0,0.31199999999807915
0.1462,0.9762,-0.2126,0.0296,0.1671,-0.1527,-0.0613,-0.8138,-5.2762,0,0,0,0.3280000000013388
0.1477,0.9783,-0.2126,0.0296,0.1671,-0.1527,-0.105,-0.6825,-5.2587,0,0,0,0.3280000000013388
0.1509,0.9748,-0.2081,0.0296,0.1679,-0.155,-0.105,-0.6825,-5.2587,0,0,0,0.3430000000007567
0.149,0.9727,-0.2135,0.028,0.1679,-0.155,-0.0437,-0.7525,-4.7337,0,0,0,0.3430000000007567
0.1464,0.9729,-0.215,0.028,0.1679,-0.155,0.3325,-1.1287,-4.865,0,0,0,0.35899999999674037
0.1459,0.9748,-0.21,0.0288,0.1689,-0.1497,0.1488,-1.4175,-4.3137,0,0,0,0.35899999999674037
0.1459,0.9748,-0.21,0.0288,0.1689,-0.1497,0.1488,-1.4175,-4.3137,0,0,0,0.3739999999961583
0.1516,0.976,-0.2061,0.028,0.1671,-0.1529,-0.6125,-1.5225,-4.7863,0,0,0,0.3739999999961583
0.1556,0.9742,-0.2106,0.028,0.1671,-0.1529,-0.665,-1.5313,-5.1275,0,0,0,0.3899999999994179
0.1536,0.9756,-0.2101,0.028,0.1671,-0.1529,-0.6913,-1.0938,-5.0312,0,0,0,0.3899999999994179
0.1505,0.9729,-0.2078,0.0294,0.168,-0.1482,-0.6913,-1.0938,-5.0312,0,0,0,0.40600000000267755
0.1505,0.9729,-0.2078,0.0294,0.168,-0.1482,-0.4112,-0.7088,-5.3025,0,0,0,0.40600000000267755
0.1475,0.9698,-0.2109,0.0303,0.1672,-0.155,-0.56,-0.84,-4.9175,0,0,0,0.4209999999948195
0.1437,0.9689,-0.2092,0.0303,0.1672,-0.155,-0.5075,-1.0237,-5.1275,0,0,0,0.4209999999948195
0.1435,0.9731,-0.2089,0.0303,0.1672,-0.155,-0.5075,-1.0237,-5.1275,0,0,0,0.43699999999807915
0.1452,0.9762,-0.2106,0.0294,0.1679,-0.1582,0.5163,-1.2075,-5.6525,0,0,0,0.43699999999807915
0.1453,0.9776,-0.2133,0.0294,0.1679,-0.1582,0.7088,-1.6363,-5.4687,0,0,0,0.45199999999749707
0.1453,0.9776,-0.2133,0.0298,0.1692,-0.1548,0.7088,-1.6363,-5.67,0,0,0,0.45199999999749707
0.1477,0.9778,-0.2136,0.0298,0.1692,-0.1548,0.7088,-1.7237,-5.67,0,0,0,0.4680000000007567
0.1462,0.9814,-0.2112,0.0298,0.1692,-0.1548,0.3063,-2.4588,-5.8975,0,0,0,0.4680000000007567
0.1452,0.9804,-0.2114,0.0303,0.1658,-0.1521,0.0088,-2.6513,-5.7225,0,0,0,0.48400000000401633
0.1448,0.979,-0.2119,0.0303,0.1658,-0.1521,0.0088,-2.6513,-5.7225,0,0,0,0.48400000000401633
0.1448,0.979,-0.2119,0.029,0.1677,-0.1535,0.1138,-2.52,-5.5738,0,0,0,0.4989999999961583
0.1417,0.9783,-0.2133,0.029,0.1677,-0.1535,0.4725,-2.485,-5.4687,0,0,0,0.4989999999961583
0.1398,0.9765,-0.2158,0.029,0.1675,-0.1527,0.0875,-2.87,-5.2413,0,0,0,0.5209999999933643
0.1424,0.9769,-0.2151,0.0292,0.1675,-0.1527,0.0875,-2.87,-5.2413,0,0,0,0.5289999999949941
0.1404,0.9769,-0.2149,0.0292,0.1675,-0.1527,0.3063,-3.2987,-5.0312,0,0,0,0.536999999996624
0.1412,0.975,-0.2169,0.0292,0.167,-0.1581,0.21,-3.2025,-5.6525,0,0,0,0.5389999999970314
0.1412,0.975,-0.2169,0.0292,0.167,-0.1581,-0.0962,-3.01,-5.4862,0,0,0,0.5389999999970314
0.1423,0.9772,-0.2138,0.0296,0.1682,-0.1557,-0.0962,-3.01,-5.4862,0,0,0,0.5540000000037253
0.1459,0.9752,-0.2125,0.0296,0.1682,-0.1557,-0.5163,-3.1675,-5.4163,0,0,0,0.5540000000037253
0.1441,0.9768,-0.2184,0.0296,0.1682,-0.1557,-0.9275,-3.2375,-5.3637,0,0,0,0.5760000000009313
0.1463,0.978,-0.2137,0.0284,0.1678,-0.1602,-0.5688,-3.0712,-5.2675,0,0,0,0.5840000000025611
0.1463,0.978,-0.2137,0.0284,0.1678,-0.1602,-0.5688,-3.0712,-5.2675,0,0,0,0.591999999996915
0.1485,0.9753,-0.2126,0.0286,0.1666,-0.1571,-0.2537,-2.7562,-5.39,0,0,0,0.5999999999985448
0.1497,0.9759,-0.213,0.0286,0.1666,-0.1571,-0.385,-2.6775,-5.1188,0,0,0,0.6080000000001746
0.147,0.977,-0.2131,0.0286,0.1666,-0.1571,-0.3325,-2.3363,-5.3637,0,0,0,0.6160000000018044
0.1471,0.974,-0.213,0.0301,0.1671,-0.1528,-0.3325,-2.3363,-5.3637,0,0,0,0.6240000000034343
0.1471,0.972,-0.2145,0.0301,0.1671,-0.1528,-0.1138,-2.31,-5.5213,0,0,0,0.6320000000050641
0.1471,0.972,-0.2145,0.0298,0.1679,-0.1553,-0.1925,-2.1,-5.4163,0,0,0,0.6399999999994179
0.1449,0.974,-0.2156,0.0298,0.1679,-0.1553,-0.1925,-2.1,-5.2413,0,0,0,0.6479999999937718
0.1452,0.9742,-0.2137,0.0298,0.1679,-0.1553,-0.1225,-2.0738,-5.2413,0,0,0,0.6559999999954016
0.1496,0.9761,-0.2128,0.031,0.1683,-0.1536,-0.2187,-1.8375,-5.1975,0,0,0,0.6639999999970314
0.152,0.9761,-0.2127,0.031,0.1683,-0.1536,0.0,-2.0213,-5.04,0,0,0,0.6719999999986612
0.152,0.9761,-0.2127,0.0301,0.1682,-0.1516,0.0,-2.0213,-5.04,0,0,0,0.6810000000041327
0.152,0.9761,-0.2139,0.0301,0.1682,-0.1516,-0.1925,-1.82,-4.8825,0,0,0,0.6879999999946449
0.1516,0.9755,-0.2129,0.0301,0.167,-0.1555,0.1138,-0.9275,-4.7337,0,0,0,0.6959999999962747
0.1527,0.9736,-0.2097,0.0304,0.167,-0.1555,-0.2275,-1.4088,-4.4713,0,0,0,0.7039999999979045
0.1504,0.9747,-0.2148,0.0304,0.167,-0.1555,-0.2275,-1.4088,-4.4713,0,0,0,0.7119999999995343
0.1486,0.9768,-0.215,0.0296,0.1677,-0.1542,-0.6825,-1.0675,-4.3137,0,0,0,0.7200000000011642
0.1486,0.9768,-0.215,0.0296,0.1677,-0.1542,-0.6125,-1.1725,-4.5325,0,0,0,0.727999999995518
0.1504,0.9752,-0.2139,0.0286,0.1661,-0.1558,0.0787,-1.1812,-4.8038,0,0,0,0.7359999999971478
0.15,0.9747,-0.2119,0.0286,0.1661,-0.1558,0.0787,-1.1812,-4.8038,0,0,0,0.7439999999987776
0.1485,0.9751,-0.2181,0.0286,0.1661,-0.1558,0.245,-1.1812,-5.0138,0,0,0,0.7520000000004075
0.1496,0.9762,-0.2114,0.0296,0.1665,-0.1429,-0.1663,-1.4875,-5.3987,0,0,0,0.7600000000020373
0.1496,0.9762,-0.2114,0.0296,0.1665,-0.1429,-0.5075,-1.6013,-5.2413,0,0,0,0.7690000000002328
0.1499,0.974,-0.2135,0.0294,0.1658,-0.1546,-0.5075,-1.6013,-5.2413,0,0,0,0.7759999999980209
0.1484,0.9734,-0.2175,0.0294,0.1658,-0.1546,-0.63,-0.9538,-5.1013,0,0,0,0.7839999999996508
0.1478,0.9746,-0.2098,0.0294,0.1658,-0.1546,-0.315,-1.6538,-5.285,0,0,0,0.7920000000012806
0.1488,0.9761,-0.2097,0.0288,0.1664,-0.1563,-0.2887,-1.925,-5.2762,0,0,0,0.7989999999990687
0.1494,0.9742,-0.2145,0.0288,0.1664,-0.1563,-0.2887,-1.925,-5.2762,-1.2413558641201599,2.685909439497514,0.0,0.7989999999990687
0.1494,0.9742,-0.2145,0.0304,0.1673,-0.1559,-0.2013,-1.8988,-5.4425,-1.499816172737304,4.933044346200743,-0.030380799992373794,0.8149999999950523
0.1456,0.9751,-0.213,0.0304,0.1673,-0.1559,0.28,-1.1725,-5.4163,-4.897500551202567,6.196385150140412,-0.030380799992373794,0.8149999999950523
0.1466,0.9758,-0.2131,0.0304,0.1673,-0.1559,0.28,-1.1725,-5.3812,-7.227540952931211,6.9743919031978825,-0.04796830000022237,0.8300000000017462
0.1466,0.974,-0.2121,0.0275,0.1674,-0.1596,-0.1838,-1.4963,-5.3812,-7.258574366891498,7.477227400881526,-0.04796830000022237,0.8300000000017462
0.1454,0.9763,-0.2125,0.0275,0.1674,-0.1596,-0.5337,-2.5113,-5.775,-8.576926079533495,7.8701411232613925,-0.08814909999013616,0.8459999999977299
0.1454,0.9763,-0.2125,0.031,0.1655,-0.1564,-0.0437,-2.3888,-5.5912,-9.014217753892988,8.049035463311208,-0.08814909999013616,0.8459999999977299
0.1446,0.9759,-0.2144,0.031,0.1655,-0.1564,-0.0437,-2.3888,-5.5912,-9.413011585976415,8.130111137058288,-0.1239810999887457,0.8609999999971478
0.1454,0.976,-0.2134,0.031,0.1682,-0.151,0.0525,-2.31,-5.4775,-9.959359531195698,8.190017264077255,-0.1239810999887457,0.8609999999971478
0.1482,0.9766,-0.2101,0.03,0.1682,-0.151,-0.3063,-2.24,-5.8538,-10.20810228994957,8.316664480575437,-0.15982109999604727,0.8770000000004075
0.1467,0.9755,-0.2151,0.03,0.1682,-0.151,-0.2887,-2.415,-5.6262,-10.430711824925256,8.333623049434363,-0.15982109999604727,0.8770000000004075
0.1465,0.9767,-0.2127,0.0302,0.1678,-0.153,-0.2887,-2.415,-5.6262,-10.616156573816228,8.335536496173344,-0.19846109998634784,0.8929999999963911
0.1465,0.9767,-0.2127,0.0302,0.1678,-0.153,0.1225,-2.135,-5.5563,-11.001564200893943,8.336540967499738,-0.19846109998634784,0.8929999999963911
0.1458,0.9756,-0.2167,0.031,0.1682,-0.1511,-0.1838,-2.2487,-5.5125,-11.010901202093725,8.321688385596936,-0.23219160000140038,0.908000000003085
0.1456,0.9745,-0.2141,0.031,0.1682,-0.1511,-0.7437,-2.4237,-5.3637,-11.509808199262892,8.314909600919197,-0.23219160000140038,0.908000000003085
0.1443,0.9751,-0.2136,0.031,0.1682,-0.1511,-0.7437,-2.4237,-5.3637,-11.815576896369546,8.283269078013197,-0.270970799991666,0.9239999999990687
0.1434,0.9726,-0.2126,0.03,0.1671,-0.1505,-0.5337,-2.0475,-5.9237,-11.950732101357659,8.237630557548583,-0.270970799991666,0.9239999999990687
0.1434,0.9726,-0.2126,0.03,0.1671,-0.1505,-0.3762,-2.3888,-6.2387,-12.013617532657854,8.213440929839964,-0.30680279999027554,0.9389999999984866
0.1441,0.9751,-0.2164,0.031,0.1678,-0.1546,-0.63,-2.5113,-5.8538,-12.16904622558188,8.211383155774577,-0.30680279999027554,0.9389999999984866
0.1437,0.9762,-0.2139,0.031,0.1678,-0.1546,-0.63,-2.5113,-5.8538,-12.228224040932599,8.196718178248195,-0.34698359998018935,0.9549999999944703
0.1456,0.9765,-0.2125,0.031,0.1678,-0.1546,-0.6388,-2.205,-6.125,-12.243603790934966,8.249229424702746,-0.34698359998018935,0.9549999999944703
0.1466,0.9786,-0.2137,0.0308,0.1684,-0.1617,0.0613,-2.0912,-5.985,-12.258043951512459,8.290887642143762,-0.3804427999870059,0.9709999999977299
0.1482,0.9763,-0.2147,0.0308,0.1684,-0.1617,-0.7175,-2.1788,-5.635,-12.308726293189682,8.354871062822951,-0.4131248000015906,0.9860000000044238
0.1482,0.9763,-0.2147,0.0294,0.1668,-0.1542,-0.7175,-2.1788,-5.635,-12.341639597575124,8.390039290582594,-0.4131248000015906,0.9860000000044238
0.1438,0.9755,-0.2153,0.0294,0.1668,-0.1542,-0.2713,-2.1613,-5.7488,-12.350584039932583,8.294108511259621,-0.4131248000015906,0.9860000000044238
0.1432,0.9769,-0.2144,0.0294,0.1668,-0.1542,0.0437,-2.3888,-5.6875,-12.355631464147168,8.226122245195416,-0.45134559997461554,1.0019999999931315
0.1463,0.9789,-0.2122,0.0314,0.1678,-0.1534,0.0437,-2.3888,-5.5563,-12.333044703664088,8.261779410442616,-0.4871775999906059,1.0169999999998254
0.1479,0.976,-0.2119,0.0314,0.1678,-0.1534,-0.6562,-2.1788,-5.5563,-12.30597718145577,8.330606560546643,-0.4871775999906059,1.0169999999998254
0.1479,0.976,-0.2119,0.0314,0.1675,-0.1548,-0.6913,-2.1962,-5.8012,-12.286783661253462,8.37673231695751,-0.5223167999817853,1.032999999995809
0.1498,0.9766,-0.2073,0.0314,0.1675,-0.1548,-0.6475,-1.7763,-5.4687,-12.190033935995237,8.438607550549985,-0.5223167999817853,1.032999999995809
0.1458,0.974,-0.2104,0.0314,0.1667,-0.1641,-0.6475,-1.7763,-5.4687,-12.189873625322024,8.393443101553823,-0.5507375999875753,1.0489999999990687
0.1406,0.9711,-0.2123,0.0299,0.1667,-0.1641,-0.9538,-1.6888,-5.5125,-12.251926143685177,8.252695322299141,-0.5507375999875753,1.0489999999990687
0.1402,0.9719,-0.2145,0.0299,0.1667,-0.1641,-0.525,-1.9775,-5.3288,-12.301900113440757,8.173149582868774,-0.5804000999864243,1.0639999999984866
0.1405,0.9742,-0.2112,0.0295,0.1673,-0.1571,0.07,-2.2313,-5.775,-12.288036592529393,8.099536387106479,-0.5804000999864243,1.0639999999984866
0.1405,0.9742,-0.2112,0.0295,0.1673,-0.1571,0.07,-2.2313,-5.775,-12.276924672040911,8.061966232181717,-0.6161008999774626,1.0799999999944703
0.1437,0.9779,-0.215,0.0306,0.1682,-0.1525,0.6562,-2.5812,-5.5912,-12.332752387916777,8.107977378154317,-0.6161008999774626,1.0799999999944703
0.1447,0.9789,-0.2169,0.0306,0.1682,-0.1525,0.8313,-2.1962,-5.3025,-12.413472172464704,8.142088476596582,-0.6490438999921637,1.0950000000011642
0.1446,0.9823,-0.2151,0.0306,0.1682,-0.1525,0.2362,-2.4938,-5.2675,-12.395314594228836,8.154803026607318,-0.6490438999921637,1.0950000000011642
0.1463,0.9775,-0.2169,0.0305,0.1677,-0.1549,0.2362,-2.4938,-5.2675,-12.429119536865214,8.20399835002796,-0.6889446999821478,1.1109999999971478
0.1463,0.9775,-0.2169,0.0305,0.1677,-0.1549,0.3237,-1.9775,-5.3463,-12.456397230861779,8.241743445378118,-0.6889446999821478,1.1109999999971478
0.1447,0.9776,-0.2169,0.0306,0.1678,-0.1552,0.0787,-2.0563,-5.4338,-12.467245745359655,8.234361327710925,-0.7218454999888506,1.1270000000004075
0.1452,0.9767,-0.2175,0.0306,0.1678,-0.1552,-0.0088,-2.415,-5.32,-12.479815827475793,8.24179233128172,-0.7218454999888506,1.1270000000004075
0.1429,0.9771,-0.2133,0.0306,0.1678,-0.1552,-0.0088,-2.415,-5.32,-12.455926989756291,8.204856054064065,-0.7580704999874449,1.1419999999998254
0.1451,0.9745,-0.2152,0.0309,0.1668,-0.1477,-0.175,-2.7738,-5.3463,-12.45591889407597,8.228303665679693,-0.7580704999874449,1.1419999999998254
0.1432,0.9738,-0.2165,0.0309,0.1668,-0.1477,-0.2975,-3.36,-5.5037,-12.464321245380662,8.204084364433935,-0.8118304999739501,1.157999999995809
0.1432,0.9738,-0.2165,0.0318,0.168,-0.1558,-0.4725,-2.9137,-5.32,-12.480283153577705,8.192283207972709,-0.8118304999739501,1.157999999995809
0.1412,0.9769,-0.2164,0.0318,0.168,-0.1558,-0.4725,-2.9137,-5.32,-12.482564131715675,8.138688995140816,-0.855535999993454,1.173000000002503
0.1429,0.9764,-0.215,0.0318,0.168,-0.1558,-0.2013,-2.6688,-5.145,-12.481074796532774,8.137573457382027,-0.855535999993454,1.173000000002503
0.1452,0.9769,-0.2112,0.031,0.1673,-0.1537,-0.385,-3.36,-5.1887,-12.432670876434686,8.172448930871324,-0.9092959999799591,1.1889999999984866
0.1412,0.9761,-0.2136,0.031,0.1673,-0.1537,-0.385,-3.36,-5.5037,-12.417348975040225,8.119848740711957,-0.9092959999799591,1.1889999999984866
0.1412,0.9761,-0.2136,0.0315,0.1674,-0.153,-0.4988,-3.2287,-5.5037,-12.399387635597877,8.088688468991007,-0.9609551999904835,1.2050000000017462
0.1407,0.9746,-0.2108,0.0315,0.1674,-0.153,-0.2187,-2.7213,-5.6087,-12.391707273633843,8.063456408996666,-0.9609551999904835,1.2050000000017462
0.1402,0.9739,-0.2121,0.0315,0.1686,-0.1623,0.0875,-3.2725,-6.0287,-12.369610393164425,8.032349042629875,-1.010042699964768,1.2199999999938882
0.1407,0.9726,-0.2109,0.0314,0.1686,-0.1623,0.0875,-3.2725,-6.0287,-12.341335387607591,8.040401699810499,-1.010042699964768,1.2199999999938882
0.1412,0.973,-0.2142,0.0314,0.1686,-0.1623,0.385,-3.0712,-5.7838,-12.367959875393723,8.0532397256019,-1.059181899974779,1.2359999999971478
0.1425,0.9733,-0.2072,0.0338,0.1675,-0.1494,0.3938,-3.4213,-5.1625,-12.240683491204871,8.077994330386048,-1.059181899974779,1.2359999999971478
0.1425,0.9733,-0.2072,0.0338,0.1675,-0.1494,0.7262,-3.6488,-5.0575,-12.134942005355832,8.091893595219863,-1.1139138999992038,1.2510000000038417
0.1422,0.9758,-0.2116,0.0318,0.1679,-0.1607,0.7262,-3.6488,-5.0575,-12.182458189700204,8.094517319205591,-1.1139138999992038,1.2510000000038417
0.1422,0.9744,-0.2125,0.0318,0.1679,-0.1607,0.6037,-3.4388,-4.9525,-12.235157868817575,8.096959218351401,-1.1689346999853925,1.2669999999998254
0.142,0.9743,-0.2149,0.0318,0.1679,-0.1607,1.3125,-2.8963,-4.9088,-12.356834598119452,8.097235647993628,-1.1689346999853925,1.2669999999998254
0.145,0.9744,-0.2119,0.0306,0.166,-0.1551,0.945,-2.7825,-4.5413,-12.310339805187782,8.135170045779702,-1.2134546999944624,1.283000000003085
0.145,0.9744,-0.2119,0.0306,0.166,-0.1551,0.945,-2.7825,-4.5413,-12.28843543158091,8.16493776037084,-1.2134546999944624,1.283000000003085
0.151,0.9739,-0.2144,0.0312,0.1666,-0.1546,0.8138,-3.3163,-4.7512,-12.351637751999087,8.19190637667932,-1.263199199968403,1.297999999995227
0.1513,0.9755,-0.2186,0.0312,0.1666,-0.1546,0.6825,-3.3775,-4.445,-12.48070374362383,8.303938436489386,-1.263199199968403,1.297999999995227
0.1463,0.9754,-0.2212,0.0312,0.1666,-0.1546,0.8662,-3.2638,-4.4363,-12.632207843992072,8.30889245959996,-1.3154199999790417,1.3139999999984866
0.1505,0.974,-0.218,0.0309,0.1685,-0.1525,0.8662,-3.2638,-4.4363,-12.623918872696779,8.382035089554625,-1.3154199999790417,1.3139999999984866
0.1509,0.9751,-0.2183,0.0309,0.1685,-0.1525,0.7437,-3.2462,-4.0775,-12.621554504310343,8.469351933106362,-1.3641130000007713,1.3290000000051805
0.1509,0.9751,-0.2183,0.0334,0.1676,-0.154,1.0325,-2.9575,-4.1125,-12.620149377970359,8.518188953935121,-1.3641130000007713,1.3290000000051805
0.1517,0.976,-0.2215,0.0334,0.1676,-0.154,1.2775,-2.6337,-4.2088,-12.718745608653002,8.556280529251355,-1.406252199971031,1.3449999999938882
0.149,0.9768,-0.2216,0.0334,0.1676,-0.154,1.2775,-2.6337,-4.2088,-12.756208425191632,8.520374036529523,-1.406252199971031,1.3449999999938882
0.151,0.9759,-0.2197,0.031,0.1689,-0.1572,0.7437,-2.3537,-4.4275,-12.723130900723774,8.538178586948396,-1.443911399978703,1.3609999999971478
0.1499,0.9759,-0.2223,0.031,0.1689,-0.1572,0.945,-2.065,-4.515,-12.780937717075226,8.533426460094747,-1.443911399978703,1.3609999999971478
0.1499,0.9759,-0.2223,0.0315,0.1676,-0.1538,0.945,-2.065,-4.9963,-12.80817134954343,8.531007915755811,-1.474886399977501,1.3759999999965657
0.1488,0.9762,-0.2241,0.0315,0.1676,-0.1538,1.0063,-2.5113,-4.9963,-12.873681991962734,8.518651170504198,-1.5150671999856868,1.3919999999998254
0.146,0.9748,-0.224,0.0315,0.1701,-0.1546,0.105,-2.3187,-4.7425,-12.888598315766469,8.504075658418857,-1.5150671999856868,1.3919999999998254
0.1496,0.9756,-0.2205,0.0307,0.1701,-0.1546,0.1838,-2.73,-5.1188,-12.848010485645785,8.50466490568749,-1.5560171999840977,1.4069999999992433
0.1504,0.9744,-0.2208,0.0307,0.1701,-0.1546,0.1838,-2.73,-5.1188,-12.826680190752887,8.517709351890025,-1.5560171999840977,1.4069999999992433
0.1473,0.9718,-0.2196,0.0307,0.1686,-0.1521,0.1225,-2.59,-5.4862,-12.805147831893688,8.474500314082388,-1.5974571999736955,1.422999999995227
0.1473,0.9718,-0.2196,0.0307,0.1686,-0.1521,0.28,-1.9162,-5.4163,-12.782623465994325,8.45031966562981,-1.5974571999736955,1.422999999995227
0.1457,0.9725,-0.2173,0.033,0.1691,-0.1585,0.2013,-2.0213,-5.9763,-12.731212969281014,8.379522662753851,-1.6297979999802843,1.4389999999984866
0.148,0.9724,-0.2205,0.033,0.1691,-0.1585,0.2013,-2.0213,-5.9763,-12.743588761862956,8.413570777721796,-1.6297979999802843,1.4389999999984866
0.1453,0.9725,-0.2192,0.033,0.1691,-0.1585,0.07,-1.6625,-5.495,-12.735356448330808,8.364630848836828,-1.6547354999793167,1.4539999999979045
0.1468,0.9722,-0.2208,0.0326,0.17,-0.1562,0.4288,-1.8025,-5.8187,-12.758100325415713,8.370569680562834,-1.6547354999793167,1.4539999999979045
0.1468,0.9722,-0.2208,0.0326,0.17,-0.1562,0.7,-1.5137,-6.4925,-12.775630533735896,8.37427860178078,-1.6789546999842508,1.4700000000011642
0.1482,0.9742,-0.2201,0.0334,0.1699,-0.1554,0.7,-1.5137,-6.4925,-12.754785828054136,8.415599240394943,-1.6789546999842508,1.4700000000011642
0.1469,0.9755,-0.22,0.0334,0.1699,-0.1554,-0.3237,-2.5375,-6.3963,-12.748954149328748,8.37969341928355,-1.7170171999643111,1.4849999999933061
0.1456,0.9743,-0.2209,0.0334,0.1699,-0.1554,-0.56,-2.6163,-6.72,-12.756026928564523,8.322194039315526,-1.7170171999643111,1.4849999999933061
0.1438,0.9739,-0.2203,0.0322,0.1702,-0.1617,-0.21,-3.01,-7.0262,-12.755713198123027,8.234698728242774,-1.7651771999741226,1.5009999999965657
0.1441,0.9748,-0.219,0.0322,0.1702,-0.1617,-0.21,-3.01,-7.0262,-12.75277196893007,8.21575253133446,-1.7651771999741226,1.5009999999965657
0.1441,0.9748,-0.219,0.0318,0.1685,-0.1566,-0.0175,-3.185,-6.7112,-12.740232209626667,8.210141721779486,-1.8161371999845044,1.5169999999998254
0.1455,0.9752,-0.2192,0.0318,0.1685,-0.1566,-0.0787,-3.08,-6.6762,-12.733737031946786,8.257053751143031,-1.8161371999845044,1.5169999999998254
0.1427,0.975,-0.2211,0.0318,0.1685,-0.1566,-0.0787,-3.08,-6.6062,-12.737616446495458,8.171193472172247,-1.8684971999615567,1.5339999999923748
0.1407,0.977,-0.2222,0.0315,0.1689,-0.1537,-0.5863,-3.4913,-6.6062,-12.759452472550429,8.057218502806647,-1.8684971999615567,1.5339999999923748
0.1418,0.9738,-0.2203,0.0315,0.1689,-0.1537,-0.1663,-3.9113,-6.8863,-12.759316246453897,8.074896782898831,-1.9310779999743062,1.5499999999956344
0.1418,0.9738,-0.2203,0.0354,0.1709,-0.1562,-0.595,-4.13,-7.3675,-12.755774441143846,8.08103063576598,-1.993028000001952,1.5650000000023283
0.1414,0.9719,-0.2245,0.0354,0.1709,-0.1562,-0.595,-4.13,-7.3675,-12.829656114437254,8.071840214060963,-1.993028000001952,1.5650000000023283
0.1399,0.9744,-0.222,0.0354,0.1709,-0.1506,-0.2625,-4.0512,-7.2975,-12.830055441653977,7.998501106737458,-1.993028000001952,1.5650000000023283
0.1423,0.977,-0.2231,0.0338,0.1708,-0.1506,-0.1488,-4.5062,-7.3412,-12.830980125316433,8.058086205851334,-2.065127199983854,1.580999999998312
0.1418,0.9758,-0.222,0.0338,0.1708,-0.1506,-0.1663,-4.165,-7.3938,-12.830823052344623,8.062987883560023,-2.065127199983854,1.580999999998312
0.1391,0.975,-0.2272,0.0349,0.1682,-0.1578,-0.1663,-4.165,-7.3938,-12.834031375052183,7.952949258496993,-2.13176719999743,1.5970000000015716
0.1391,0.975,-0.2272,0.0349,0.1682,-0.1578,-0.0875,-4.305,-7.2888,-12.857450727710377,7.922556960593152,-2.13176719999743,1.5970000000015716
0.14,0.9761,-0.2266,0.0347,0.1694,-0.1636,-0.3413,-4.48,-7.28,-12.887292404620077,7.9445382971285605,-2.198967199962226,1.6119999999937136
0.1417,0.9777,-0.2237,0.0347,0.1694,-0.1636,0.3413,-3.8325,-6.9913,-12.887387796632888,8.011027205792528,-2.198967199962226,1.6119999999937136
0.1436,0.9798,-0.2252,0.0347,0.1694,-0.1636,0.3413,-3.8325,-6.9913,-12.906800953297871,8.09180120704357,-2.2602871999747185,1.6279999999969732
0.1398,0.9787,-0.2245,0.0346,0.1671,-0.1621,-0.1225,-3.85,-6.7112,-12.907456253918154,7.983355481388681,-2.2602871999747185,1.6279999999969732
0.1398,0.9787,-0.2245,0.0346,0.1671,-0.1621,-0.7088,-3.3163,-6.4575,-12.91158004220995,7.94780036296415,-2.3100316999969173,1.643000000003667
0.1371,0.9781,-0.2224,0.0346,0.1679,-0.1535,-0.2013,-3.0888,-6.2387,-12.909232915550549,7.851021409813586,-2.3100316999969173,1.643000000003667
0.1376,0.9778,-0.2262,0.0346,0.1679,-0.1535,-0.2013,-3.0888,-6.2387,-12.911920045400382,7.825030216632014,-2.3594524999845117,1.6589999999996508
0.1357,0.9778,-0.2244,0.0346,0.1679,-0.1535,-0.4375,-2.8087,-6.16,-12.91467355177952,7.755245527449418,-2.3594524999845117,1.6589999999996508
0.1387,0.9781,-0.2216,0.0368,0.1704,-0.1587,-0.3413,-2.7475,-6.1075,-12.893695004506718,7.822231276146618,-2.4034124999934674,1.6750000000029104
0.1456,0.9787,-0.2235,0.0368,0.1704,-0.1587,-0.4375,-2.2662,-5.9588,-12.887511009911915,8.051657306986442,-2.4034124999934674,1.6750000000029104
0.1456,0.9787,-0.2235,0.0362,0.1708,-0.1563,-0.4375,-2.2662,-5.9588,-12.882602586851512,8.158708007911585,-2.4374054999756596,1.6899999999950523
0.1407,0.9777,-0.2239,0.0362,0.1708,-0.1563,-0.5775,-1.8637,-5.39,-12.88720326899173,8.095416662059034,-2.4374054999756596,1.6899999999950523
0.1369,0.9748,-0.2262,0.0362,0.1708,-0.1563,-0.035,-1.7325,-5.6525,-12.909288918550827,7.956246390100887,-2.465125499981307,1.705999999998312
0.1366,0.9755,-0.2233,0.0355,0.171,-0.1549,-0.035,-1.7325,-5.46,-12.907298201287675,7.8843795709676305,-2.465125499981307,1.705999999998312
0.1334,0.9759,-0.2294,0.0355,0.171,-0.1549,0.0875,-1.6187,-5.46,-12.974523677708333,7.764977572090716,-2.489405999980365,1.72099999999773
0.1334,0.9759,-0.2294,0.0376,0.1681,-0.1557,0.07,-1.6187,-5.3987,-13.024849791448382,7.696727938904411,-2.489405999980365,1.72099999999773
0.1329,0.977,-0.2265,0.0376,0.1681,-0.1557,0.3413,-1.925,-5.7838,-13.034270333409475,7.6238256791084185,-2.5202059999866395,1.7370000000009895
0.135,0.9805,-0.2247,0.0376,0.1674,-0.1586,0.3413,-1.925,-5.7838,-12.990968821033755,7.633628662367995,-2.551005999978908,1.7529999999969732
0.1362,0.9809,-0.2255,0.0355,0.1674,-0.1586,0.5163,-1.6975,-5.6262,-12.97288644228127,7.666287321332262,-2.551005999978908,1.7529999999969732
0.1323,0.9797,-0.2288,0.0355,0.1674,-0.1586,0.2887,-1.3913,-5.39,-13.027717777065307,7.602546398222243,-2.5718754999780984,1.7679999999963911
0.1325,0.9805,-0.2247,0.0356,0.1689,-0.1554,0.35,-1.8112,-5.2587,-12.986204223314049,7.572238361290159,-2.5718754999780984,1.7679999999963911
0.1325,0.9805,-0.2247,0.0356,0.1689,-0.1554,0.35,-1.8112,-5.2587,-12.959029015670776,7.55123564210238,-2.6008546999840023,1.7839999999996508
0.1356,0.978,-0.2223,0.0374,0.1702,-0.1578,0.2713,-1.9425,-4.9262,-12.91154897267732,7.566024348046178,-2.6008546999840023,1.7839999999996508
0.136,0.9773,-0.2289,0.0374,0.1702,-0.1578,0.1225,-2.0825,-5.2325,-12.973984102958088,7.6101896751137,-2.632092199967638,1.7989999999917927
0.1345,0.9772,-0.227,0.0374,0.1702,-0.1578,-0.2887,-2.065,-5.3987,-12.984348854067262,7.61970323844296,-2.632092199967638,1.7989999999917927
0.1365,0.9767,-0.2258,0.0363,0.1702,-0.1702,-0.2887,-2.065,-5.3987,-12.987645153610556,7.669160422760704,-2.6651321999743693,1.8149999999950523
0.1365,0.9767,-0.2258,0.0363,0.1702,-0.1702,-0.0175,-2.03,-5.3375,-12.991741257406924,7.69824728225397,-2.6651321999743693,1.8149999999950523
0.1349,0.977,-0.2283,0.0358,0.1698,-0.1556,0.1312,-2.2662,-5.1363,-13.029687430491352,7.688403547719317,-2.7013913999817563,1.830999999998312
0.1324,0.9767,-0.227,0.0358,0.1698,-0.1556,-0.49,-2.6425,-5.0487,-13.04264532706343,7.656910914881094,-2.7013913999817563,1.830999999998312
0.1358,0.9761,-0.2267,0.0358,0.1698,-0.1556,-0.49,-2.6425,-5.0487,-13.050390689923319,7.668381729586719,-2.741028899980218,1.84599999999773
0.1366,0.9756,-0.2266,0.035,0.1692,-0.1466,-0.56,-2.0475,-4.9875,-13.057497744304394,7.682758393674414,-2.741028899980218,1.84599999999773
0.136,0.9777,-0.2289,0.035,0.1692,-0.1466,-0.84,-2.0387,-5.0138,-13.105037374000178,7.687789967579032,-2.7736480999868633,1.8620000000009895
0.136,0.9777,-0.2289,0.0382,0.1704,-0.1559,-0.1925,-1.7938,-5.2937,-13.106089258773142,7.696002729719203,-2.7736480999868633,1.8620000000009895
0.1394,0.9792,-0.2269,0.0382,0.1704,-0.1559,-0.1925,-1.7938,-5.2937,-13.105213196204256,7.760618942559425,-2.8005550999727675,1.8769999999931315
0.1398,0.9767,-0.2265,0.0382,0.1704,-0.1559,-0.455,-1.19,-5.3288,-13.09459113754768,7.820721963243073,-2.8005550999727675,1.8769999999931315
0.14,0.9778,-0.2311,0.0368,0.1689,-0.1543,-0.7437,-1.3563,-4.9963,-13.167993322272185,7.837825510120711,-2.8222558999771885,1.8929999999963911
0.1388,0.9772,-0.2268,0.0368,0.1689,-0.1543,-0.7437,-1.3563,-4.97,-13.131320552342498,7.843127638267968,-2.8222558999771885,1.8929999999963911
0.1388,0.9772,-0.2268,0.0369,0.169,-0.1531,-0.7175,-1.2862,-4.97,-13.108607383345639,7.847720798373461,-2.842835099981381,1.9089999999996508
0.1383,0.9759,-0.2247,0.0369,0.169,-0.1531,-0.9275,-0.7437,-4.8562,-13.047630225742099,7.848313165003448,-2.842835099981381,1.9089999999996508
0.1394,0.975,-0.2256,0.0369,0.1706,-0.1551,-0.1575,-0.595,-5.1275,-13.047244687524199,7.867717892581826,-2.8517600999810346,1.9239999999990687
0.1374,0.9756,-0.2253,0.0365,0.1706,-0.1551,-0.1575,-0.595,-5.1275,-13.046384092693941,7.85485286970322,-2.8517600999810346,1.9239999999990687
0.1391,0.9767,-0.2241,0.0365,0.1706,-0.1551,-0.385,-1.1287,-4.9175,-13.025126650798818,7.859285202711682,-2.8698192999847136,1.9400000000023283
0.1439,0.9758,-0.2244,0.0368,0.1699,-0.1506,-0.3938,-1.33,-4.8038,-13.011927309144692,7.863021570778484,-2.8698192999847136,1.9400000000023283
0.1439,0.9758,-0.2244,0.0368,0.1699,-0.1506,-0.2625,-0.7875,-5.2413,-13.00715043079967,7.957185187205592,-2.8816317999785253,1.9549999999944703
0.141,0.9755,-0.2294,0.0354,0.1692,-0.1552,-0.2625,-0.7875,-5.2413,-13.024844376162184,7.972690355806017,-2.8816317999785253,1.9549999999944703
0.1421,0.975,-0.2234,0.0354,0.1692,-0.1552,-1.1025,-0.2713,-4.2875,-12.967412211851823,8.011665029529581,-2.8859725999794095,1.97099999999773
0.1408,0.9738,-0.2231,0.0354,0.1692,-0.1552,-0.945,-0.5337,-4.375,-12.939842336947226,8.014901065515057,-2.8859725999794095,1.97099999999773
0.1415,0.9751,-0.2273,0.0354,0.1692,-0.1617,-0.7088,-0.2362,-3.92,-13.002887051359059,8.028661801078622,-2.8897517999801794,1.9870000000009895
0.1415,0.9751,-0.2273,0.0354,0.1692,-0.1617,-0.7088,-0.2362,-3.92,-13.044061153330375,8.035920924514347,-2.8897517999801794,1.9870000000009895
0.1433,0.977,-0.2281,0.0361,0.1706,-0.155,-0.875,-0.5688,-4.0425,-13.084068730663793,8.076380538255647,-2.8982837999798483,2.0020000000004075
0.1458,0.9772,-0.2251,0.0361,0.1706,-0.155,-0.8313,-0.385,-4.235,-13.039737638909621,8.14842710743666,-2.8982837999798483,2.0020000000004075
0.1431,0.9759,-0.2253,0.0361,0.1706,-0.155,-0.1663,-0.5512,-4.7425,-13.039289946722281,8.147249462328585,-2.907102999981645,2.018000000003667
0.1412,0.978,-0.2244,0.0366,0.1693,-0.166,-0.1663,-0.5512,-4.7425,-13.037984401318964,8.137897377535406,-2.907102999981645,2.018000000003667
0.1398,0.9775,-0.2247,0.0366,0.1693,-0.166,-0.2013,-0.7,-5.005,-13.035852628181347,8.10558208367028,-2.9176029999761446,2.032999999995809
0.1398,0.9775,-0.2247,0.0362,0.1687,-0.1552,-0.8225,-1.0325,-4.9875,-13.000549631357385,8.080554443571112,-2.9176029999761446,2.032999999995809
0.142,0.9739,-0.2236,0.0362,0.1687,-0.1552,-0.8487,-0.8662,-5.0312,-12.972451046928471,8.081882457366959,-2.9314621999789683,2.0489999999990687
0.1404,0.9732,-0.2258,0.0362,0.1687,-0.1552,-0.8487,-0.8662,-5.0312,-13.008626913749696,8.067287210252946,-2.9314621999789683,2.0489999999990687
0.139,0.9726,-0.2241,0.0358,0.1685,-0.1643,-0.8138,-1.1463,-5.145,-12.995651093736923,8.032879012928356,-2.9498029999827047,2.0650000000023283
0.1411,0.973,-0.2226,0.0358,0.1685,-0.1643,-0.9363,-1.19,-5.3113,-12.948432185535857,8.03729354387751,-2.9498029999827047,2.0650000000023283
0.1411,0.973,-0.2226,0.0357,0.1686,-0.1614,-0.9363,-1.19,-5.355,-12.921583032025277,8.0404141697373,-2.9676529999733536,2.0799999999944703
0.142,0.9725,-0.2215,0.0357,0.1686,-0.1614,-0.6562,-1.015,-5.355,-12.892264143405,8.062240960489302,-2.9838929999766624,2.09599999999773
0.1408,0.973,-0.2242,0.0357,0.1677,-0.1547,-0.6125,-1.4175,-5.495,-12.917549176842662,8.047772177599281,-2.9838929999766624,2.09599999999773
0.1412,0.9744,-0.2244,0.035,0.1677,-0.1547,-0.7088,-1.9512,-5.74,-12.935344839640495,8.04297406687955,-3.0131609999755264,2.110999999997148
0.1416,0.9739,-0.2211,0.035,0.1677,-0.1547,-0.7088,-1.9512,-5.74,-12.885197317326039,8.055953554773346,-3.0131609999755264,2.110999999997148
0.1412,0.9733,-0.2237,0.0343,0.1687,-0.1593,-0.4725,-1.7062,-5.7137,-12.898559529921194,8.051975023742578,-3.040460199981088,2.1270000000004075
0.1412,0.9733,-0.2237,0.0343,0.1687,-0.1593,-0.1925,-1.4,-5.6175,-12.899223666723454,8.050003526459415,-3.040460199981088,2.1270000000004075
0.1418,0.9734,-0.2207,0.037,0.1701,-0.1574,-0.1488,-1.7237,-5.565,-12.89573614647319,8.065356985611043,-3.0680393999867066,2.143000000003667
0.1422,0.9726,-0.2201,0.037,0.1701,-0.1574,-0.1488,-1.7237,-5.565,-12.891689114044242,8.086911376343698,-3.0680393999867066,2.143000000003667
0.1444,0.9751,-0.2231,0.037,0.1701,-0.1574,-0.1312,-1.505,-6.0025,-12.89149376771397,8.1560535894243,-3.0906143999748803,2.157999999995809
0.1415,0.9764,-0.2248,0.0347,0.1691,-0.1522,-0.3762,-1.5662,-5.9763,-12.90374993673256,8.092885950691425,-3.0906143999748803,2.157999999995809
0.1415,0.9764,-0.2248,0.0347,0.1691,-0.1522,-0.3413,-1.26,-5.9062,-12.912431155937824,8.0644951370464,-3.1107743999789874,2.1739999999990687
0.143,0.9795,-0.2225,0.0346,0.169,-0.1552,-0.3413,-1.26,-5.9062,-12.896328391519566,8.084332490559188,-3.1107743999789874,2.1739999999990687
0.1408,0.9776,-0.221,0.0346,0.169,-0.1552,-0.49,-0.8487,-5.4425,-12.858734651582,8.05054836906761,-3.1235048999784936,2.1889999999984866
0.141,0.9783,-0.2252,0.0346,0.169,-0.1552,-0.8138,-0.8838,-5.5388,-12.899425870155483,8.02729379097727,-3.1235048999784936,2.1889999999984866
0.1399,0.9775,-0.2224,0.034,0.1673,-0.1634,-0.7875,-1.4175,-5.8362,-12.868462574422233,7.9854928038472615,-3.146184899983114,2.2050000000017462
0.1383,0.9753,-0.2195,0.034,0.1673,-0.1634,-0.7875,-1.4175,-5.8362,-12.798429940831195,7.930406185918324,-3.146184899983114,2.2050000000017462
0.1383,0.9753,-0.2195,0.0353,0.1685,-0.1534,-0.455,-1.3737,-5.9763,-12.773495018677044,7.9014108650512584,-3.168164099977597,2.22099999999773
0.1369,0.9766,-0.222,0.0353,0.1685,-0.1534,-0.28,-1.1463,-6.0025,-12.77658811593895,7.837520964175626,-3.168164099977597,2.22099999999773
0.1349,0.9776,-0.2223,0.0353,0.1685,-0.1534,-0.7,-1.2163,-5.81,-12.788345180006493,7.750739183586893,-3.1864085999768887,2.235999999997148
0.136,0.9785,-0.2178,0.0362,0.1674,-0.1549,-0.7,-1.2163,-5.81,-12.70609687907058,7.738423323255062,-3.1864085999768887,2.235999999997148
0.1368,0.9803,-0.2241,0.0362,0.1674,-0.1549,-1.61,-1.6363,-5.7575,-12.806589303878678,7.742555942377263,-3.2125893999822224,2.2520000000004075
0.1368,0.9803,-0.2241,0.0364,0.1698,-0.1515,-1.2075,-1.6625,-6.1075,-12.842184542577245,7.745029195665309,-3.2125893999822224,2.2520000000004075
0.1364,0.9786,-0.2249,0.0364,0.1698,-0.1515,-1.2075,-1.6625,-5.9325,-12.893266172370799,7.740160148980347,-3.2375268999812548,2.2669999999998254
0.1359,0.9803,-0.2192,0.0364,0.1679,-0.1549,-0.7088,-1.435,-5.9325,-12.793016966596943,7.721488435954419,-3.2375268999812548,2.2669999999998254
0.1373,0.9768,-0.223,0.0364,0.1679,-0.1549,-0.8313,-1.5925,-5.6788,-12.81950601635672,7.759224116185293,-3.2630068999864457,2.283000000003085
0.1351,0.9798,-0.2215,0.0364,0.1679,-0.1549,-0.49,-1.9075,-5.7575,-12.800232916871357,7.711014689757768,-3.2630068999864457,2.283000000003085
0.1364,0.9796,-0.2212,0.0336,0.1698,-0.1586,-0.49,-1.9075,-5.7575,-12.782172459793841,7.722471166501865,-3.2935268999787843,2.2989999999990687
0.1364,0.9796,-0.2212,0.0336,0.1698,-0.1586,-1.155,-1.6625,-5.5388,-12.753594855337354,7.727575914460667,-3.2935268999787843,2.2989999999990687
0.1394,0.9777,-0.2191,0.0346,0.1684,-0.1573,-1.085,-1.3737,-4.9262,-12.695345125452675,7.746795893639231,-3.314132399977985,2.3139999999984866
0.1387,0.9774,-0.221,0.0346,0.1684,-0.1573,-0.7613,-0.98,-4.4187,-12.712137516608507,7.784762436738248,-3.314132399977985,2.3139999999984866
0.1367,0.9738,-0.2198,0.0346,0.1684,-0.1573,-0.7613,-0.98,-4.4187,-12.714776956863497,7.7882952352848065,-3.3298123999811793,2.3300000000017462
0.1371,0.9719,-0.2161,0.0357,0.1684,-0.1531,-0.7,-1.2425,-4.6112,-12.653321057199715,7.797136883692301,-3.3298123999811793,2.3300000000017462
0.1371,0.9719,-0.2217,0.0357,0.1684,-0.1531,-0.6825,-1.2862,-4.48,-12.719260986427987,7.805602958240317,-3.3491053999804308,2.345000000001164
0.1408,0.9755,-0.2217,0.0343,0.1674,-0.1534,-0.6737,-1.225,-4.6638,-12.747363121939237,7.832758273878285,-3.3491053999804308,2.345000000001164
0.1444,0.9767,-0.2186,0.0343,0.1674,-0.1534,-0.6737,-1.225,-4.6638,-12.703718033198037,7.882452550057188,-3.3687053999844236,2.361000000004424
0.1474,0.9748,-0.2148,0.0343,0.1674,-0.1534,-0.9187,-1.085,-4.8913,-12.585808808909796,7.918855961725837,-3.3687053999844236,2.361000000004424
0.1457,0.9748,-0.2143,0.0362,0.168,-0.1574,-0.5163,-0.8313,-4.865,-12.538464750620248,7.937036124896128,-3.382006199975036,2.3769999999931315
0.1415,0.9753,-0.2159,0.0362,0.168,-0.1574,-1.0237,-0.84,-4.3575,-12.51265394431487,7.976472509229107,-3.382006199975036,2.3769999999931315
0.1415,0.9753,-0.2159,0.0353,0.1684,-0.1566,-1.0237,-0.84,-4.3575,-12.498672486201395,8.003518056991423,-3.394606199980659,2.3919999999998254
0.1374,0.9726,-0.2164,0.0353,0.1684,-0.1566,-0.9538,-0.7613,-4.305,-12.518382753160134,7.952130164238067,-3.4067869999831406,2.408000000003085
0.1398,0.9719,-0.2183,0.0353,0.1684,-0.1566,-0.105,-0.3063,-4.305,-12.527917261998198,7.964597555209511,-3.4067869999831406,2.408000000003085
0.1391,0.9726,-0.2194,0.0343,0.1677,-0.1568,0.2713,-0.3588,-4.6112,-12.584970822966095,7.960803532011584,-3.412168999980321,2.422999999995227
0.1393,0.979,-0.2191,0.0343,0.1677,-0.1568,0.2713,-0.3588,-4.6112,-12.59424810657752,7.951357901565498,-3.412168999980321,2.422999999995227
0.1393,0.979,-0.2203,0.0349,0.1674,-0.1532,1.1025,-1.1638,-4.83,-12.643388752229681,7.95067524398514,-3.430789799984115,2.4389999999984866
0.1414,0.9775,-0.2203,0.0349,0.1674,-0.1532,0.6212,-1.75,-5.1188,-12.668797824254519,7.969658346436895,-3.430789799984115,2.4389999999984866
0.143,0.9784,-0.222,0.0352,0.1686,-0.1569,0.6212,-1.75,-5.1625,-12.719963929343553,8.00630322302876,-3.4587897999770862,2.4549999999944703
0.1434,0.977,-0.2189,0.0352,0.1686,-0.1569,0.4725,-1.4612,-5.1625,-12.684023269692718,8.043502991320747,-3.4587897999770862,2.4549999999944703
0.1417,0.9736,-0.2186,0.0352,0.1686,-0.1569,0.6475,-1.1025,-4.8738,-12.670727817898035,8.045638094165925,-3.475327299984466,2.470000000001164
0.1387,0.9716,-0.2198,0.0339,0.1685,-0.1538,-0.2537,-1.2687,-4.76,-12.676131220942837,8.039366420710067,-3.475327299984466,2.470000000001164
0.1387,0.9716,-0.2198,0.0339,0.1685,-0.1538,-0.2537,-1.2687,-4.76,-12.68115262564623,8.033425350015168,-3.4956264999793705,2.485999999997148
0.1381,0.9739,-0.2236,0.035,0.1689,-0.1509,-0.2713,-1.8025,-5.0662,-12.702516265984416,8.000427640090265,-3.4956264999793705,2.485999999997148
0.1377,0.9747,-0.2181,0.035,0.1689,-0.1509,-0.2275,-2.2575,-5.4338,-12.698254572509157,7.942810036558189,-3.5294889999780565,2.5009999999965657
0.1356,0.9737,-0.2212,0.035,0.1689,-0.1509,-0.1312,-2.3012,-5.3725,-12.70272094048133,7.867978409770012,-3.5294889999780565,2.5009999999965657
0.1362,0.9745,-0.2219,0.0354,0.1678,-0.1566,-0.1312,-2.3012,-5.3725,-12.708274550025752,7.829434640403605,-3.5663081999855577,2.5169999999998254
0.1362,0.9745,-0.2226,0.0354,0.1678,-0.1566,0.1488,-1.855,-5.2587,-12.747340679885978,7.807816790596354,-3.5663081999855577,2.5169999999998254
0.1402,0.9758,-0.2226,0.0336,0.1675,-0.156,-0.0437,-2.2662,-5.4425,-12.759518331881335,7.871856845149883,-3.602567399976456,2.532999999995809
0.1432,0.9773,-0.22,0.0336,0.1675,-0.156,-0.3762,-2.8788,-5.4687,-12.74740145921648,7.975915844678727,-3.602567399976456,2.532999999995809
0.1454,0.976,-0.2234,0.0336,0.1675,-0.156,-0.3762,-2.8788,-5.4687,-12.771446376096302,8.0892203468427,-3.6515069999759535,2.5499999999956344
0.1451,0.978,-0.2202,0.0338,0.169,-0.1425,-0.3325,-2.835,-5.3812,-12.760356066725198,8.142183246483235,-3.6515069999759535,2.5499999999956344
0.146,0.9769,-0.2181,0.0338,0.169,-0.1425,-0.1838,-2.4675,-5.355,-12.75928194475982,8.197030053964417,-3.6909869999839966,2.565999999998894
0.146,0.9769,-0.2181,0.0367,0.1673,-0.1518,-0.8138,-2.3187,-5.6087,-12.691637302963425,8.24200672833477,-3.6909869999839966,2.565999999998894
0.1435,0.9761,-0.227,0.0367,0.1673,-0.1518,-0.8138,-2.3187,-5.6087,-12.84726397148544,8.200839194774659,-3.725767499982647,2.580999999998312
0.1398,0.9762,-0.2233,0.0367,0.1673,-0.1518,-0.8925,-1.575,-5.11,-12.862746362144271,8.143176537902892,-3.725767499982647,2.580999999998312
0.1402,0.977,-0.221,0.0349,0.1675,-0.1558,-0.9625,-1.2687,-5.1975,-12.81138835585175,8.094660846978616,-3.7460666999867827,2.5970000000015716
0.138,0.9769,-0.2224,0.0349,0.1675,-0.1558,-0.6037,-1.2337,-5.32,-12.81554622383422,8.010123460338473,-3.7460666999867827,2.5970000000015716
0.138,0.9769,-0.2242,0.0349,0.1692,-0.1625,-0.6037,-1.2337,-5.32,-12.848437534553062,7.952889174038966,-3.7658058999818276,2.6129999999975553
0.1365,0.9778,-0.2242,0.0349,0.1692,-0.1625,-0.4375,-1.7062,-5.285,-12.861989068590416,7.887614595809705,-3.7658058999818276,2.6129999999975553
0.1396,0.9797,-0.2191,0.035,0.1697,-0.1525,-0.945,-1.9512,-5.2413,-12.75092327446629,7.8962817139470785,-3.7950738999806917,2.627999999996973
0.143,0.979,-0.2187,0.035,0.1697,-0.1525,-0.945,-1.9512,-4.9437,-12.68218904678709,7.920890354769126,-3.7950738999806917,2.627999999996973
0.1437,0.9779,-0.2209,0.035,0.1697,-0.1525,-0.7875,-1.785,-4.9437,-12.699934435848277,7.947691539271359,-3.8236338999865103,2.644000000000233
0.1419,0.9751,-0.2223,0.0336,0.1676,-0.1574,-0.3325,-1.995,-5.0575,-12.719067807162679,7.9725642031411,-3.8236338999865103,2.644000000000233
0.1419,0.9751,-0.2223,0.0336,0.1676,-0.1574,-1.0938,-1.365,-4.4187,-12.778136315584037,8.001787110189262,-3.8441088999857156,2.6589999999996508
0.1421,0.9733,-0.2196,0.0335,0.168,-0.1593,-1.0938,-1.365,-4.4187,-12.747670769172123,8.031243794082764,-3.8441088999857156,2.6589999999996508
0.1444,0.9708,-0.2196,0.0335,0.168,-0.1593,-1.0588,-1.1638,-4.2,-12.746931042671756,8.116414312682126,-3.8627296999895093,2.6750000000029104
0.1443,0.9734,-0.2206,0.0335,0.168,-0.1593,-0.0263,-1.085,-4.2787,-12.749851739957418,8.154925594887981,-3.8627296999895093,2.6750000000029104
0.1421,0.9755,-0.2198,0.034,0.1704,-0.1609,-0.1488,-1.1375,-4.4363,-12.748394806946678,8.136501725025187,-3.8809296999849408,2.690999999998894
0.1421,0.9755,-0.2189,0.034,0.1704,-0.1609,-0.1488,-1.1375,-4.4363,-12.745568890659838,8.12357824650282,-3.8809296999849408,2.690999999998894
0.1442,0.9743,-0.2189,0.0349,0.1695,-0.1526,0.035,-1.2862,-4.6025,-12.731022713013374,8.139980765238864,-3.9002226999841922,2.705999999998312
0.1435,0.9742,-0.2216,0.0349,0.1695,-0.1526,-0.315,-1.0675,-4.7425,-12.741158642755638,8.142270100966087,-3.9002226999841922,2.705999999998312
0.1425,0.9747,-0.2221,0.0349,0.1695,-0.1526,-0.7262,-1.6538,-4.9437,-12.774943098941309,8.138899285721836,-3.926683499989583,2.7220000000015716
0.1443,0.975,-0.2155,0.0324,0.1691,-0.1507,-0.7262,-1.6538,-4.9437,-12.664601333933625,8.148447551852968,-3.926683499989583,2.7220000000015716
0.1434,0.9739,-0.2185,0.0324,0.1691,-0.1507,-0.4725,-1.9775,-4.9437,-12.66019249026347,8.151555447119206,-3.9563459999884323,2.7370000000009895
0.1434,0.9739,-0.2185,0.0338,0.1684,-0.1526,-0.315,-1.925,-4.9525,-12.658386607858796,8.154477086619291,-3.9563459999884323,2.7370000000009895
0.1403,0.9736,-0.2158,0.0338,0.1684,-0.1526,0.6475,-1.4875,-5.1275,-12.585718041008992,8.119744309050535,-3.980145999993281,2.753000000004249
0.138,0.972,-0.2151,0.0338,0.1684,-0.1526,0.6475,-1.4875,-5.1275,-12.537129235839178,8.065637540765007,-3.980145999993281,2.753000000004249
0.1357,0.9704,-0.2176,0.0337,0.1678,-0.1466,0.5337,-1.7587,-4.9262,-12.579385273383686,8.036214228894439,-4.020596099982328,2.775999999998021
0.1268,0.9706,-0.2205,0.0337,0.1678,-0.1466,1.155,-1.6275,-4.3137,-12.70494401811813,7.776830300585259,-4.031988599990569,2.783000000003085
0.1268,0.955,-0.2138,0.0321,0.1677,-0.1568,1.0938,-2.31,-3.5263,-12.656826512330671,7.554773255791933,-4.038918599983577,2.786000000000058
0.1208,0.9672,-0.2138,0.0321,0.1677,-0.1568,1.0938,-2.31,-3.5263,-12.549347871923008,7.215879199767429,-4.038918599983577,2.786000000000058
0.1179,0.9576,-0.2137,0.0336,0.1707,-0.1586,2.2225,-2.8612,-2.5638,-12.571064634799272,6.963943195040165,-4.081836599981912,2.800999999999476
0.1075,0.9627,-0.2137,0.0336,0.1707,-0.1586,5.0838,-3.1588,0.8838,-12.524435909711858,6.332185345073,-4.081836599981912,2.800999999999476
0.103,0.9888,-0.2105,0.0336,0.1707,-0.1586,5.0838,-3.1588,5.565,-12.098852750136743,5.862656846990039,-4.132377399969226,2.81699999999546
0.0967,0.9989,-0.2154,0.0325,0.1693,-0.1537,6.965,-3.0888,5.565,-12.160184707777693,5.446014251732326,-4.132377399969226,2.81699999999546
0.0967,0.9989,-0.2154,0.0325,0.1693,-0.1537,7.3412,-2.2838,10.465,-12.167763486088186,5.408343062710993,-4.184904799988235,2.8400000000037835
0.0899,1.0091,-0.2275,0.0298,0.1678,-0.1525,6.3875,-3.5263,14.9362,-12.633842512020507,4.988251338239579,-4.184904799988235,2.8400000000037835
0.0894,1.0136,-0.2231,0.0298,0.1678,-0.1525,6.3875,-3.5263,14.9362,-12.442401736556713,4.926357985830493,-4.241325599974072,2.855999999999767
0.0872,1.0106,-0.2282,0.0298,0.1678,-0.1525,4.5675,-5.0225,17.36,-12.675278615769647,4.816010400192095,-4.241325599974072,2.855999999999767
0.0903,0.9983,-0.2317,0.027,0.1654,-0.1621,3.2025,-7.2975,19.0313,-12.977330929229073,5.026593811204944,-4.358085599997859,2.872000000003027
0.0903,0.9892,-0.2271,0.027,0.1654,-0.1621,2.24,-10.045,19.355,-12.943762578392327,5.082000393537028,-4.358085599997859,2.872000000003027
0.1041,0.9892,-0.2271,0.024,0.1658,-0.1562,2.24,-10.045,19.355,-12.933940453081734,5.82548847484803,-4.508760599918926,2.8869999999951688
0.1193,0.9772,-0.2281,0.024,0.1658,-0.1562,2.0213,-11.9263,19.915,-13.074788308065953,6.742841113130716,-4.508760599918926,2.8869999999951688
0.1267,0.971,-0.2183,0.024,0.1658,-0.1562,2.7738,-13.4575,20.1075,-12.772855215619087,7.235333361026259,-4.724080599962792,2.9029999999984284
0.1398,0.9637,-0.2195,0.0213,0.1649,-0.1512,4.8475,-13.0988,21.9713,-12.821554141894854,8.021359531032397,-4.724080599962792,2.9029999999984284
0.1398,0.9663,-0.2266,0.0213,0.1649,-0.1512,4.8475,-13.0988,21.9713,-13.13514410396257,8.01775692562658,-4.920562599955168,2.9179999999978463
0.1398,0.9663,-0.2266,0.0169,0.1658,-0.162,6.1337,-12.7925,24.08,-13.189013196731958,8.017626933231895,-4.920562599955168,2.9179999999978463
0.1482,0.9709,-0.232,0.0169,0.1658,-0.162,6.3437,-12.8888,26.4075,-13.405787223946977,8.431326260686097,-5.12678339999718,2.934000000001106
0.1562,0.9708,-0.2333,0.0169,0.1658,-0.162,5.9412,-13.2738,28.5863,-13.497870708181594,8.878139362304713,-5.12678339999718,2.934000000001106
0.167,0.9643,-0.2354,0.0125,0.1654,-0.1515,5.9412,-13.2738,28.5863,-13.687464798056194,9.530598071112902,-5.352437999994862,2.9510000000009313
0.175,0.9601,-0.2314,0.0125,0.1654,-0.1515,6.0375,-13.7638,29.8025,-13.569735425318365,10.033892982458163,-5.462548400017295,2.959000000002561
0.175,0.9558,-0.2378,0.0076,0.1628,-0.1591,6.265,-13.475,30.4237,-13.917382602745974,10.073822749819405,-5.570348399941213,2.966999999996915
0.1825,0.9558,-0.2378,0.0076,0.1628,-0.1591,7.7613,-12.705,31.045,-13.96530650774326,10.485842910493538,-5.671988399961919,2.974999999998545
0.1857,0.9533,-0.2362,0.002,0.1622,-0.1626,7.7613,-12.705,31.045,-13.921494106722603,10.7010606825322,-5.773628399982626,2.9830000000001746
0.1898,0.9498,-0.2317,0.002,0.1622,-0.1626,7.8837,-12.3462,31.5525,-13.73273693306233,10.979004331415767,-5.8723980000027485,2.9910000000018044
0.1967,0.9439,-0.2347,0.002,0.1622,-0.1626,8.4,-11.83,32.3662,-13.939297673015167,11.42100197701596,-5.978867999981402,3.0
0.1954,0.9345,-0.2439,-0.002,0.1614,-0.1614,8.4,-11.83,33.5913,-14.555745671591136,11.437183539242922,-6.06167800004131,3.007000000005064
0.1954,0.9345,-0.2439,-0.002,0.1614,-0.1614,8.365,-11.7688,33.5913,-14.62008149011663,11.437594166390134,-6.155828399974862,3.014999999999418
0.207,0.9368,-0.2438,-0.0041,0.1618,-0.1598,8.8112,-12.3375,34.1162,-14.590767481126973,12.054598878690577,-6.254528399994969,3.0230000000010477
0.217,0.9281,-0.2439,-0.0041,0.1618,-0.1598,9.3538,-13.0638,34.3963,-14.711451446044617,12.725050898269352,-6.359038799921209,3.0309999999954016
0.2266,0.922,-0.2513,-0.0041,0.1618,-0.1598,9.3538,-13.0638,34.3963,-15.195404804814025,13.324332021406686,-6.463549199942501,3.0389999999970314
0.2358,0.9166,-0.2519,-0.0097,0.1615,-0.1652,9.6687,-13.5275,34.9125,-15.350872555442589,13.916572821976153,-6.571769199964549,3.0469999999986612
0.2358,0.9184,-0.2565,-0.0097,0.1615,-0.1652,10.2025,-13.2388,35.0612,-15.582231966028228,13.89052433485744,-6.6776795998898,3.054999999993015
0.2463,0.9184,-0.2565,-0.0157,0.1599,-0.1615,11.27,-13.6412,36.1375,-15.602730058368225,14.468764745050741,-6.7868091999120335,3.062999999994645
0.2555,0.9178,-0.2554,-0.0157,0.1599,-0.1615,11.27,-13.6412,36.1375,-15.554704755236676,15.00004557797534,-6.8959387999342665,3.0709999999962747
0.263,0.9163,-0.2586,-0.0157,0.1599,-0.1615,13.4137,-13.4312,37.7038,-15.746147169371277,15.431794358387428,-7.003388399956157,3.0789999999979045
0.275,0.9179,-0.2618,-0.0234,0.1598,-0.1718,13.9913,-12.6438,38.8325,-15.90761502279974,16.057745559688485,-7.104538799976765,3.0869999999995343
0.283,0.9176,-0.2732,-0.0234,0.1598,-0.1718,13.09,-12.635,40.3025,-16.5328889331324,16.45827993725438,-7.205618799905426,3.094999999993888
0.283,0.9176,-0.2732,-0.0278,0.1594,-0.1618,13.09,-12.635,40.3025,-16.57671359676829,16.466964899760917,-7.2687937999642624,3.099999999998545
0.2883,0.9141,-0.2823,-0.0278,0.1594,-0.1618,12.4163,-12.635,41.0112,-17.119103663032032,16.76364584786887,-7.2687937999642624,3.099999999998545
0.2948,0.9098,-0.2814,-0.0278,0.1594,-0.1823,11.9613,-13.3,41.0988,-17.181622470019885,17.19103828465577,-7.468293799956521,3.1149999999979627
0.3043,0.9065,-0.2826,-0.0353,0.1592,-0.1714,12.775,-13.3962,40.1012,-17.305244209453043,17.756747252496638,-7.468293799956521,3.1149999999979627
0.3103,0.8999,-0.2884,-0.0353,0.1592,-0.1714,12.775,-13.3962,40.1012,-17.736336084611576,18.169207090875325,-7.709425399908175,3.132999999994354
0.3259,0.8955,-0.2932,-0.0397,0.1595,-0.1692,14.2362,-13.2037,39.1388,-18.103726524427458,19.05844114240583,-7.709425399908175,3.132999999994354
0.3159,0.8955,-0.2932,-0.0397,0.1595,-0.1692,15.365,-13.3175,39.0687,-18.127674484282803,18.545499740335845,-7.909187899997321,3.1480000000010477
0.3231,0.8924,-0.2962,-0.045,0.1592,-0.1666,14.2362,-12.9587,39.6725,-18.34654050662238,18.95474323589175,-7.909187899997321,3.1480000000010477
0.332,0.8891,-0.2987,-0.045,0.1592,-0.1666,14.2362,-12.9587,39.6725,-18.55566279659703,19.480585543914014,-8.116527099945275,3.1639999999970314
0.3389,0.8859,-0.3057,-0.045,0.1592,-0.1666,12.3725,-12.9237,40.25,-19.00255364147857,19.872508847009414,-8.116527099945275,3.1639999999970314
0.3464,0.8832,-0.3087,-0.0506,0.1591,-0.1716,11.1475,-13.0113,40.4863,-19.244413416223065,20.30725784891863,-8.324707899987686,3.180000000000291
0.3464,0.8832,-0.3087,-0.0506,0.1591,-0.1716,11.1475,-13.0113,39.5325,-19.264036726746987,20.316642921995815,-8.324707899987686,3.180000000000291
0.3555,0.8747,-0.3138,-0.0574,0.1594,-0.1724,9.9663,-13.7638,39.5325,-19.69321890206093,20.920837470046337,-8.572456299938015,3.197999999996682
0.3652,0.861,-0.3155,-0.0574,0.1594,-0.1724,9.31,-14.6038,38.9813,-20.08344111020778,21.697761666269344,-8.689286699961816,3.205999999998312
0.3767,0.858,-0.3167,-0.0574,0.1594,-0.1724,9.3538,-14.8313,38.3162,-20.24307267119811,22.370264508260057,-8.822768400042966,3.2150000000037835
0.3827,0.8509,-0.3148,-0.063,0.1598,-0.1774,9.3538,-14.8313,38.3162,-20.296874506337744,22.859510850086536,-8.926587499902249,3.2219999999942956
0.3914,0.8481,-0.3194,-0.063,0.1598,-0.1774,9.0913,-14.4375,38.0363,-20.603608984418184,23.34761431157433,-9.04208749992578,3.2299999999959255
0.3914,0.8481,-0.3194,-0.0685,0.1594,-0.1754,8.1112,-14.5338,37.3625,-20.63313911554367,23.358740971743142,-9.085688899987536,3.2330000000001746
0.3997,0.8423,-0.3245,-0.0685,0.1594,-0.1754,7.1663,-14.245,36.6275,-21.01712561816245,23.871828724538968,-9.085688899987536,3.2330000000001746
0.4099,0.8366,-0.327,-0.0685,0.1594,-0.1754,7.1663,-14.245,36.6275,-21.30916220175896,24.513563832182054,-9.313608899930324,3.2489999999961583
0.417,0.8309,-0.327,-0.0739,0.1596,-0.1769,4.9788,-14.1488,35.8312,-21.453989992676753,25.020201677934907,-9.313608899930324,3.2489999999961583
0.4255,0.8219,-0.3241,-0.0739,0.1596,-0.1769,5.0225,-14.2275,34.8162,-21.510037591001034,25.698849020849295,-9.527021400025562,3.264000000002852
0.4255,0.8219,-0.3241,-0.0798,0.1604,-0.1799,4.8562,-14.21,33.46,-21.519029430747096,25.715536818805546,-9.75438139996849,3.279999999998836
0.433,0.8162,-0.3303,-0.0798,0.1604,-0.1799,4.8562,-14.21,33.46,-21.94715582992472,26.174400208625432,-9.75438139996849,3.279999999998836
0.4342,0.8129,-0.335,-0.0798,0.1604,-0.1781,4.3575,-14.3325,32.1825,-22.315560910413915,26.27942488913094,-9.98370140001521,3.2960000000020955
0.4415,0.8103,-0.3348,-0.0828,0.1585,-0.1781,4.3225,-14.0087,31.01,-22.42510710219333,26.71620294371928,-9.98370140001521,3.2960000000020955
0.4477,0.8092,-0.3386,-0.0828,0.1585,-0.1781,4.0075,-14.175,29.26,-22.652057515116937,27.029759452638558,-9.98370140001521,3.2960000000020955
0.4501,0.8087,-0.3443,-0.0863,0.1592,-0.1752,4.0075,-14.175,29.26,-22.982646818594397,27.11420058338757,-10.196326399903823,3.3109999999942374
0.4501,0.8087,-0.3443,-0.0863,0.1592,-0.1752,3.2113,-14.42,27.2125,-23.0436403932906,27.116603604209605,-10.427046399950827,3.326999999997497
0.4526,0.8081,-0.3489,-0.0904,0.1586,-0.1708,2.8875,-14.6125,25.0688,-23.276477668431987,27.209119637098926,-10.427046399950827,3.326999999997497
0.4578,0.804,-0.3483,-0.0904,0.1586,-0.1708,2.3012,-14.9888,23.1,-23.38066278627776,27.57324166466133,-10.65187840005116,3.342000000004191
0.4643,0.8014,-0.3525,-0.0904,0.1586,-0.1708,2.3012,-14.9888,23.1,-23.63852142010476,27.92555966999322,-10.65187840005116,3.342000000004191
0.4686,0.7991,-0.3534,-0.0928,0.159,-0.1814,1.8463,-14.4812,21.0963,-23.78494548179305,28.194474338463678,-10.883577599992998,3.3580000000001746
0.4686,0.7991,-0.3534,-0.0928,0.159,-0.1814,0.9887,-14.945,19.6,-23.823896065038323,28.20444402521641,-10.883577599992998,3.3580000000001746
0.4742,0.7979,-0.355,-0.0938,0.16,-0.176,0.9887,-14.945,17.465,-23.91070688669242,28.488839547487657,-11.122697599932975,3.3739999999961583
0.4793,0.7916,-0.3563,-0.0938,0.16,-0.176,-0.2187,-15.5925,17.465,-23.923405130956255,28.886626952256492,-11.122697599932975,3.3739999999961583
0.4823,0.7909,-0.3606,-0.0938,0.16,-0.176,-1.8637,-16.4762,15.2163,-24.291593094622566,29.01764364880638,-11.369840599923384,3.388999999995576
0.4817,0.7895,-0.3614,-0.098,0.1594,-0.1737,-2.0825,-16.4237,12.95,-24.491418613074458,29.020115001768936,-11.369840599923384,3.388999999995576
0.4879,0.7896,-0.3611,-0.098,0.1594,-0.1737,-2.0825,-16.4237,12.95,-24.54660330772634,29.316420863291864,-11.649043499920516,3.4059999999954016
0.4879,0.7896,-0.3611,-0.097,0.1594,-0.177,-2.9488,-16.4325,11.0863,-24.567891540703673,29.332112663876984,-11.649043499920516,3.4059999999954016
0.4911,0.7873,-0.363,-0.097,0.1594,-0.177,-4.1737,-16.1262,8.6538,-24.715936904571706,29.516382704701485,-11.890936500028463,3.4210000000020955
0.4929,0.7876,-0.364,-0.097,0.1594,-0.177,-4.935,-15.8638,6.37,-24.789248260177345,29.593523598966442,-11.890936500028463,3.4210000000020955
0.4964,0.7872,-0.3638,-0.0975,0.1594,-0.1769,-4.935,-15.8638,6.37,-24.80123169842827,29.77165503284165,-12.144757299964748,3.436999999998079
0.501,0.7864,-0.3696,-0.0975,0.1594,-0.1769,-5.3025,-15.855,4.165,-25.112341308720755,29.9471378129318,-12.144757299964748,3.436999999998079
0.501,0.7864,-0.3696,-0.0997,0.1589,-0.1716,-6.7812,-15.6012,1.7587,-25.165063263768086,29.96409814322,-12.394376500015603,3.4530000000013388
0.5006,0.7887,-0.3718,-0.0997,0.1589,-0.1716,-8.7413,-15.2688,-0.4812,-25.231802018329752,29.880348425432835,-12.394376500015603,3.4530000000013388
0.5039,0.7895,-0.3653,-0.0997,0.1589,-0.177,-8.7413,-15.2688,-0.4812,-24.87190759291294,30.043886801505458,-12.623408500006716,3.4680000000007567
0.5065,0.7907,-0.3642,-0.0971,0.158,-0.177,-9.8175,-14.98,-3.0013,-24.744253667454313,30.13916855044886,-12.623408500006716,3.4680000000007567
0.5026,0.7884,-0.368,-0.0971,0.158,-0.177,-10.85,-14.8313,-5.2325,-24.997900764636604,30.102183780255224,-12.86070929994715,3.4839999999967404
0.5009,0.7877,-0.3611,-0.0951,0.1573,-0.1646,-12.2762,-14.595,-7.6825,-24.65607580580089,30.048916634998154,-12.86070929994715,3.4839999999967404
0.5009,0.7877,-0.3611,-0.0951,0.1573,-0.1646,-12.2762,-14.595,-7.6825,-24.629979456775736,30.035141312983825,-13.079634300044846,3.4990000000034343
0.4928,0.7842,-0.3708,-0.0939,0.1562,-0.175,-13.5712,-14.8313,-10.29,-25.259582287462035,29.668146507455162,-13.079634300044846,3.4990000000034343
0.4899,0.7835,-0.37,-0.0939,0.1562,-0.175,-15.1812,-15.3212,-12.4687,-25.27736731911648,29.504996498901146,-13.324773499983312,3.514999999999418
0.4882,0.784,-0.3645,-0.0939,0.1562,-0.175,-15.8988,-16.1788,-14.6125,-24.955307937443255,29.456639807651246,-13.324773499983312,3.514999999999418
0.4883,0.7852,-0.3622,-0.0914,0.1549,-0.1834,-15.8988,-16.1788,-14.6125,-24.774602693334856,29.453569556290358,-13.58363430003605,3.5310000000026776
0.4883,0.7852,-0.3622,-0.0914,0.1549,-0.1834,-17.3862,-16.7563,-16.4237,-24.763739569511255,29.453281021160244,-13.58363430003605,3.5310000000026776
0.4846,0.7864,-0.3619,-0.0899,0.1539,-0.1667,-18.865,-17.395,-18.9,-24.71444810820105,29.25395447231686,-13.844559299899359,3.5459999999948195
0.4813,0.7904,-0.3591,-0.0899,0.1539,-0.1667,-18.865,-19.635,-21.4463,-24.447843551146313,29.018043382063613,-13.844559299899359,3.5459999999948195
0.4774,0.7934,-0.3551,-0.0899,0.1539,-0.1667,-19.9237,-18.165,-21.4463,-24.12793581982638,28.7899610619399,-14.207859299973373,3.565999999998894
0.4735,0.7965,-0.3592,-0.0847,0.1515,-0.1534,-21.2537,-18.7425,-23.3713,-24.267469048672734,28.471229153716457,-14.376541799939554,3.5749999999970896
0.4705,0.7988,-0.3577,-0.0847,0.1515,-0.1534,-22.4,-19.5825,-25.515,-24.128912457535613,28.2709021182243,-14.49403679996349,3.580999999998312
0.4705,0.7988,-0.3577,-0.0808,0.151,-0.1605,-22.4,-19.5825,-25.515,-24.122945944760595,28.261670182346204,-14.49403679996349,3.580999999998312
0.4699,0.8032,-0.3553,-0.0808,0.151,-0.1605,-23.52,-20.475,-27.7725,-23.87317037540042,28.15266859461956,-14.801161799951572,3.59599999999773
0.4706,0.8059,-0.3476,-0.0808,0.151,-0.1605,-24.7712,-20.65,-29.7938,-23.352621569781252,28.198115378164303,-14.801161799951572,3.59599999999773
0.4652,0.8115,-0.3489,-0.0742,0.1488,-0.1606,-25.8563,-20.79,-32.2525,-23.26830679093793,27.788305972776897,-15.13380180001934,3.6120000000009895
0.4617,0.8188,-0.3406,-0.0742,0.1488,-0.1606,-25.8563,-20.79,-32.2525,-22.611642129829605,27.512740293950852,-15.13380180001934,3.6120000000009895
0.4617,0.8188,-0.3406,-0.067,0.1494,-0.1586,-27.2038,-21.595,-34.4313,-22.58698220174326,27.503024716558535,-15.479321799932608,3.627999999996973
0.457,0.8211,-0.3332,-0.067,0.1494,-0.1586,-28.0613,-21.8663,-36.4963,-22.104475863015896,27.28808884096713,-15.479321799932608,3.627999999996973
0.4502,0.8275,-0.3351,-0.067,0.1466,-0.1516,-28.5688,-21.28,-38.6138,-22.047716025793445,26.77560479546546,-15.798521799920222,3.642999999996391
0.4432,0.8306,-0.3312,-0.0618,0.1466,-0.1516,-28.5688,-21.28,-38.6138,-21.750022995885118,26.3766477663265,-15.798521799920222,3.642999999996391
0.435,0.8345,-0.3229,-0.0618,0.1466,-0.1516,-29.2337,-20.8512,-41.4925,-21.173213670592265,25.938461576795273,-16.132140999988188,3.6589999999996508
0.4274,0.837,-0.3207,-0.0562,0.1439,-0.1502,-29.4263,-20.79,-44.2575,-20.971438943646554,25.504231669645772,-16.132140999988188,3.6589999999996508
0.4274,0.837,-0.3207,-0.0562,0.1439,-0.1502,-30.1788,-20.44,-47.11,-20.964762876510186,25.493476591916657,-16.43874099982757,3.6739999999917927
0.4187,0.8406,-0.3246,-0.0474,0.1429,-0.1426,-30.1788,-20.44,-47.11,-21.109384298091207,24.935438121077993,-16.43874099982757,3.6739999999917927
0.4101,0.8464,-0.3156,-0.0474,0.1429,-0.1426,-31.045,-20.09,-50.1813,-20.46986304874817,24.428712715717065,-16.760180999893056,3.6899999999950523
0.4052,0.8525,-0.3072,-0.0474,0.1429,-0.1426,-32.3488,-19.9237,-53.4538,-19.836413766159364,24.09911097805894,-16.760180999893056,3.6899999999950523
0.3922,0.8595,-0.3067,-0.0372,0.1428,-0.1397,-33.0838,-19.9237,-56.8225,-19.64404376036329,23.272467306366995,-17.078960199958,3.705999999998312
0.3922,0.8595,-0.3026,-0.0372,0.1428,-0.1397,-33.0838,-19.9237,-56.8225,-19.402723537930353,23.28751985004982,-17.078960199958,3.705999999998312
0.3847,0.8642,-0.3026,-0.0272,0.1414,-0.1303,-34.3438,-19.5037,-60.1388,-19.300709970268812,22.798087038761363,-17.37151569994665,3.72099999999773
0.3793,0.8695,-0.2953,-0.0272,0.1414,-0.1303,-35.8925,-19.635,-63.6213,-18.77330594454556,22.449310306231375,-17.37151569994665,3.72099999999773
0.3695,0.8736,-0.2959,-0.0272,0.1414,-0.1303,-35.8925,-19.18,-66.8675,-18.713599423241327,21.841143427435,-17.67839570000917,3.7370000000009895
0.3626,0.8763,-0.2923,-0.0164,0.1414,-0.1258,-36.82,-19.18,-66.8675,-18.45380703606533,21.437713020350593,-17.67839570000917,3.7370000000009895
0.3559,0.8788,-0.281,-0.0164,0.1414,-0.1258,-37.8613,-18.1825,-69.755,-17.75055802064129,21.09904260871832,-17.95113319986629,3.7519999999931315
0.3559,0.8788,-0.281,-0.0063,0.1414,-0.1131,-38.8325,-17.5963,-73.29,-17.732366727075707,21.09390249503133,-17.95113319986629,3.7519999999931315
0.3421,0.8816,-0.2685,-0.0063,0.1414,-0.1131,-38.8325,-17.5963,-77.77,-16.95864883405195,20.375283198927733,-18.232673999923648,3.767999999996391
0.3287,0.8938,-0.2663,-0.0063,0.1414,-0.1131,-38.36,-16.3013,-76.8688,-16.60035521268544,19.427904167761575,-18.232673999923648,3.767999999996391
0.317,0.9046,-0.2603,0.0063,0.1413,-0.118,-38.4038,-14.9012,-80.9463,-16.067199175327804,18.622362059317,-18.47109319997222,3.7839999999996508
0.3053,0.9138,-0.2548,0.0063,0.1413,-0.118,-37.8,-13.2125,-84.5863,-15.592969444644833,17.849051871862216,-18.47109319997222,3.7839999999996508
0.3053,0.9138,-0.24,0.0184,0.1408,-0.11,-37.8,-13.2125,-84.5863,-14.73849450046263,17.907002602459556,-18.669280699964528,3.7989999999990687
0.2926,0.9152,-0.24,0.0184,0.1408,-0.11,-37.5812,-11.5413,-86.9925,-14.695398646170567,17.193161582978746,-18.669280699964528,3.7989999999990687
0.2768,0.9231,-0.2307,0.0325,0.1438,-0.1049,-37.0737,-8.6538,-88.2087,-14.049371427371513,16.231858141893508,-18.807741499992737,3.8150000000023283
0.2574,0.9262,-0.2344,0.0325,0.1438,-0.1049,-36.89,-6.2737,-88.5762,-14.1980076705185,15.09198443004376,-18.807741499992737,3.8150000000023283
0.2373,0.9362,-0.2285,0.0325,0.1438,-0.1049,-36.89,-6.2737,-88.5762,-13.728896381160183,13.84832022008958,-18.901846999943437,3.8299999999944703
0.2173,0.9434,-0.2281,0.0466,0.147,-0.1019,-35.9625,-4.2525,-89.5212,-13.596109394483834,12.633944842929424,-18.9698869999573,3.84599999999773
0.2173,0.9434,-0.2281,0.0466,0.147,-0.1019,-35.77,-2.7213,-91.4025,-13.592500099371366,12.61977209366806,-18.9698869999573,3.84599999999773
0.1973,0.9416,-0.2268,0.0586,0.1485,-0.0945,-34.9212,-1.6625,-92.2513,-13.544066901628534,11.526730790412682,-18.99648699996272,3.8620000000009895
0.1738,0.9367,-0.2151,0.0586,0.1485,-0.0945,-34.9212,-1.6625,-92.2513,-12.95004989190546,10.264916978498952,-18.99648699996272,3.8620000000009895
0.1493,0.9377,-0.207,0.0586,0.1485,-0.0945,-33.0925,-0.1838,-91.91,-12.463345610778584,8.853574856638204,-18.999243999962612,3.8770000000004075
0.1265,0.947,-0.2051,0.0706,0.1518,-0.0931,-31.9988,0.945,-91.3412,-12.227711735221305,7.454236729915492,-18.999243999962612,3.8770000000004075
0.1265,0.9545,-0.2041,0.0706,0.1518,-0.0931,-32.0513,1.3388,-90.5625,-12.074553529648606,7.385200087676341,-18.977823199958248,3.893000000003667
0.1035,0.9545,-0.2041,0.0844,0.1547,-0.0874,-32.0513,1.3388,-90.5625,-12.069894536997747,6.0681951942922145,-18.977823199958248,3.893000000003667
0.0902,0.9602,-0.1888,0.0844,0.1547,-0.0874,-32.305,1.2687,-91.6387,-11.152471142102936,5.275423619624913,-18.958792699968217,3.907999999995809
0.0766,0.9626,-0.1746,0.0844,0.1547,-0.0874,-32.2438,1.9775,-92.5925,-10.307113085661015,4.4860358213705585,-18.958792699968217,3.907999999995809
0.061,0.9666,-0.1606,0.0972,0.1586,-0.087,-32.2438,2.5725,-93.2312,-9.459903678452521,3.572645733905579,-18.91763269995983,3.9239999999990687
0.0439,0.9646,-0.1586,0.0972,0.1586,-0.087,-32.5763,2.5725,-93.2312,-9.34073650079234,2.5825164460630345,-18.91763269995983,3.9239999999990687
0.0439,0.9646,-0.1586,0.1104,0.1667,-0.0845,-33.1188,3.6662,-93.3187,-9.337166719324273,2.571442978387801,-18.858973499947883,3.9400000000023283
0.0215,0.963,-0.1532,0.1104,0.1667,-0.0845,-32.6287,4.5937,-93.5813,-9.04812600643333,1.2776735039065241,-18.858973499947883,3.9400000000023283
0.0009,0.9631,-0.153,0.1104,0.1667,-0.0845,-32.6287,4.5937,-93.5813,-9.027331821291341,0.0665231435319909,-18.79006799998398,3.9549999999944703
-0.0162,0.9589,-0.1559,0.1253,0.1699,-0.0731,-31.8325,4.69,-94.0625,-9.228127292055047,-0.9440188155419348,-18.79006799998398,3.9549999999944703
-0.0346,0.9533,-0.1519,0.1253,0.1699,-0.0731,-30.17,4.0338,-95.0863,-9.05910633239934,-2.0406150801553467,-18.72552719997083,3.97099999999773
-0.0346,0.9464,-0.1342,0.1362,0.1764,-0.0704,-27.44,3.6925,-95.095,-8.105733912398117,-2.072702714250685,-18.72552719997083,3.97099999999773
-0.0516,0.9464,-0.1342,0.1362,0.1764,-0.0704,-27.44,3.6925,-95.095,-8.072000991731183,-3.078818883900938,-18.67013969997298,3.985999999997148
-0.0684,0.9511,-0.1265,0.1476,0.1821,-0.068,-24.6225,4.3313,-92.47,-7.595585940221374,-4.0663903809556965,-18.67013969997298,3.985999999997148
-0.0856,0.961,-0.1267,0.1476,0.1821,-0.068,-21.6125,5.0925,-88.0512,-7.514448261318435,-5.035042446749612,-18.58865969995638,4.0020000000004075
-0.1062,0.9769,-0.1318,0.1476,0.1821,-0.068,-19.2237,5.075,-83.1687,-7.675307457201867,-6.13501230342198,-18.58865969995638,4.0020000000004075
-0.1158,0.9878,-0.1324,0.157,0.186,-0.0714,-19.2237,5.075,-83.1687,-7.636205971551261,-6.6213370406327705,-18.507459699939837,4.018000000003667
-0.1158,0.9878,-0.1324,0.157,0.186,-0.0714,-17.6138,4.4713,-78.5925,-7.634264333890199,-6.627460874212363,-18.507459699939837,4.018000000003667
-0.1256,0.9907,-0.1298,0.1668,0.1917,-0.0714,-16.8,3.815,-74.9875,-7.4739344073366505,-7.157219865085861,-18.450234699969815,4.032999999995809
-0.1528,0.9942,-0.1277,0.1668,0.1917,-0.0714,-16.5025,2.6513,-73.7012,-7.328206201460357,-8.645780867486904,-18.450234699969815,4.032999999995809
-0.1745,1.0029,-0.1216,0.1668,0.1917,-0.0714,-16.5025,2.6513,-73.7012,-6.9372245442323734,-9.783505193753554,-18.407813899961173,4.048999999999069
-0.1857,1.0144,-0.1173,0.175,0.1993,-0.0687,-16.695,1.7763,-73.255,-6.61556757581581,-10.299193063810872,-18.407813899961173,4.048999999999069
-0.2013,1.0232,-0.1143,0.175,0.1993,-0.0687,-16.7125,1.12,-73.2463,-6.387769228387737,-11.051886731382673,-18.391013899961823,4.063999999998487
-0.1981,1.0232,-0.1143,0.1852,0.2039,-0.0639,-16.6775,-0.1663,-73.0713,-6.374779640122341,-10.893580859442395,-18.391013899961823,4.063999999998487
-0.2069,1.0163,-0.1075,0.1852,0.2039,-0.0639,-16.6775,-0.1663,-73.0713,-6.057299170087656,-11.437003724218032,-18.393674699962364,4.080000000001746
-0.2136,1.0112,-0.1066,0.1852,0.2039,-0.0639,-15.4438,-0.4638,-72.8262,-6.020279235734418,-11.857445150685878,-18.393674699962364,4.080000000001746
-0.223,1.013,-0.111,0.1964,0.2081,-0.0624,-14.2712,-0.84,-71.9075,-6.237830904894388,-12.336238196779677,-18.407114699958992,4.09599999999773
-0.2342,1.0111,-0.1104,0.1964,0.2081,-0.0624,-14.2625,-2.24,-71.1725,-6.231758360313866,-12.957570478828194,-18.407114699958992,4.09599999999773
-0.2342,1.0111,-0.1104,0.2026,0.2138,-0.0646,-14.2625,-2.24,-71.1725,-6.231355801791964,-12.966794963856444,-18.440714699957688,4.110999999997148
-0.2309,1.0164,-0.0997,0.2026,0.2138,-0.0646,-14.1138,-2.835,-70.8225,-5.644411849797799,-12.743159346783694,-18.440714699957688,4.110999999997148
-0.2405,1.0146,-0.0972,0.2026,0.2138,-0.0441,-14.0787,-2.6337,-69.7988,-5.483859235480277,-13.268520976044021,-18.482853899966273,4.1270000000004075
-0.2531,1.0094,-0.1,0.2098,0.2195,-0.0594,-14.0787,-2.6337,-68.3725,-5.646089724811045,-13.998946185941673,-18.482853899966273,4.1270000000004075
-0.2632,1.0058,-0.0903,0.2098,0.2195,-0.0594,-13.195,-2.6513,-68.3725,-5.167021802469953,-14.598795915597584,-18.52262339996473,4.141999999999825
-0.2788,1.001,-0.0964,0.2173,0.2258,-0.0589,-12.2063,-2.7825,-66.6838,-5.475210402046296,-15.48117746652113,-18.567143399973798,4.158000000003085
-0.272,1.001,-0.0964,0.2173,0.2258,-0.0589,-12.3638,-2.38,-64.7675,-5.498888531313945,-15.140719251367665,-18.567143399973798,4.158000000003085
-0.2766,0.9961,-0.0928,0.2252,0.2309,-0.0534,-12.3638,-2.38,-64.7675,-5.33587934081293,-15.450197912015552,-18.60522339996424,4.173999999999069
-0.286,0.9928,-0.0883,0.2252,0.2309,-0.0534,-12.0925,-2.3975,-62.3175,-5.102150935421833,-16.000804692558425,-18.607620899956004,4.174999999995634
-0.3001,0.9864,-0.0839,0.2252,0.2309,-0.0534,-11.4362,-1.96,-60.62,-4.881307913575722,-16.849113220701337,-18.607620899956004,4.174999999995634
-0.3126,0.9977,-0.0847,0.2326,0.2371,-0.0622,-11.0075,-2.52,-59.8675,-4.854939488345399,-17.329513299198602,-18.645420899954537,4.189999999995052
-0.3126,0.9977,-0.0847,0.2326,0.2371,-0.0622,-11.0075,-2.52,-59.8675,-4.85271051910783,-17.338083936078302,-18.685740899962752,4.205999999998312
-0.3311,1.0058,-0.0803,0.237,0.2422,-0.0546,-10.78,-2.1962,-58.7388,-4.58946696480172,-18.151978266047433,-18.685740899962752,4.205999999998312
-0.3481,1.0044,-0.0759,0.237,0.2422,-0.0546,-10.5612,-2.5463,-57.5575,-4.345026662659609,-19.047642324937282,-18.72393539996127,4.22099999999773
-0.3589,0.9988,-0.0755,0.237,0.2422,-0.0546,-9.9137,-2.5812,-56.0612,-4.324877218099969,-19.70032137398597,-18.72393539996127,4.22099999999773
-0.3703,0.9983,-0.0694,0.2442,0.2463,-0.0524,-9.9137,-2.5812,-56.0612,-4.009130981282597,-20.294763933861823,-18.767815799960818,4.237999999997555
-0.3779,0.9963,-0.0726,0.2442,0.2463,-0.0524,-9.2575,-2.555,-54.5737,-4.152018346433702,-20.71323871313782,-18.788255799964983,4.245999999999185
-0.3779,0.9963,-0.0726,0.2463,0.2505,-0.0539,-8.295,-2.6862,-52.5175,-4.166029045076897,-20.721476217827544,-18.807059199959042,4.252999999996973
-0.377,0.9878,-0.0712,0.2463,0.2505,-0.0539,-6.8513,-2.7213,-51.0037,-4.12835836316409,-20.83774149710809,-18.809780499969495,4.254000000000815
-0.3855,0.9875,-0.0585,0.2463,0.2505,-0.0539,-6.8513,-2.7213,-51.0037,-3.4864533648664326,-21.281091605776812,-18.853321299958566,4.269999999996799
-0.4073,0.9886,-0.0608,0.2529,0.255,-0.0631,-4.4975,-1.4875,-47.0925,-3.5131431438695495,-22.32865657402411,-18.853321299958566,4.269999999996799
-0.4202,0.9927,-0.0625,0.2529,0.255,-0.0631,-2.0213,-0.3588,-40.81,-3.57111884635877,-22.886307293516232,-18.85870329996097,4.2850000000034925
-0.4202,0.9927,-0.0625,0.257,0.2595,-0.0512,0.2275,0.4988,-34.0288,-3.5801852851647724,-22.90128724058037,-18.85870329996097,4.2850000000034925
-0.4344,1.0026,-0.062,0.257,0.2595,-0.0512,0.2275,0.4988,-34.0288,-3.5682012164440677,-23.369903192607588,-18.850223699964683,4.301999999996042
-0.4428,1.0119,-0.0667,0.257,0.2595,-0.054,2.3275,0.8838,-27.4575,-3.7133069045593414,-23.57901593195121,-18.843153299963245,4.309999999997672
-0.4529,1.0114,-0.0752,0.2595,0.2604,-0.054,3.57,0.315,-21.9275,-4.138734223438047,-24.036983194271244,-18.840633299962732,4.3179999999993015
-0.4574,1.0136,-0.0735,0.2595,0.2604,-0.054,3.57,0.315,-17.3687,-4.145634757368196,-24.217247172133437,-18.839688299963687,4.320999999996275
-0.4554,1.0166,-0.073,0.2606,0.2623,-0.0572,4.0862,0.1575,-17.3687,-4.114537950081398,-24.086169421784387,-18.839688299963687,4.320999999996275
-0.4554,1.0166,-0.073,0.2606,0.2623,-0.0572,4.4625,-0.385,-14.4113,-4.108537866553749,-24.076713008941315,-18.845463299966262,4.336000000002969
-0.4509,1.018,-0.073,0.2603,0.2632,-0.0517,4.7337,-0.84,-11.515,-4.102786618444489,-23.866828766268327,-18.845463299966262,4.336000000002969
-0.4505,1.0157,-0.0766,0.2603,0.2632,-0.0517,4.7337,-0.84,-11.515,-4.27731638401781,-23.859905951365306,-18.85890329996289,4.351999999998952
-0.4488,1.0141,-0.0792,0.2603,0.2632,-0.0517,5.18,-0.7613,-9.135,-4.436041405444471,-23.817641836321464,-18.85890329996289,4.351999999998952
-0.4457,1.0129,-0.0816,0.2594,0.2632,-0.064,5.4338,-0.9975,-6.7375,-4.5801616833376695,-23.728677862820714,-18.874863299958882,4.367999999994936
-0.4457,1.0129,-0.0816,0.2594,0.2632,-0.064,5.7488,-1.1025,-4.2875,-4.602137019031394,-23.712679199830706,-18.874863299958882,4.367999999994936
-0.4454,1.0072,-0.0877,0.259,0.2639,-0.0569,5.7488,-1.1025,-4.2875,-4.92233897066593,-23.734511534572317,-18.891400799966263,4.38300000000163
-0.4428,1.0025,-0.0846,0.259,0.2639,-0.0569,5.3637,-1.4262,-2.1,-4.838784510369101,-23.750069791024313,-18.891400799966263,4.38300000000163
-0.4394,1.0011,-0.0886,0.259,0.2639,-0.0569,5.88,-1.7325,0.3237,-5.026639285434739,-23.637290734701573,-18.919120799959305,4.3989999999976135
-0.4374,1.0013,-0.0934,0.2594,0.2642,-0.0476,6.3612,-2.0563,2.38,-5.288942977906705,-23.522320355090855,-18.919120799959305,4.3989999999976135
-0.432,1.0017,-0.0914,0.2594,0.2642,-0.0476,6.3612,-2.0563,2.38,-5.223516051374552,-23.27680575787708,-18.94996529995811,4.413999999997031
-0.432,1.0017,-0.0914,0.2583,0.2622,-0.0578,6.5012,-2.2138,4.5588,-5.214813190493904,-23.245974718185856,-18.94996529995811,4.413999999997031
-0.4225,0.9977,-0.0938,0.2583,0.2622,-0.0578,7.035,-2.8788,6.2125,-5.351934723100638,-22.893011465347286,-19.13420849995375,4.477999999995518
-0.4166,0.9967,-0.0946,0.2583,0.2622,-0.0578,7.4725,-3.36,7.6475,-5.413797884902073,-22.614957511318337,-19.157728499970766,4.485000000000582
-0.4096,0.9922,-0.0888,0.2589,0.2621,-0.0578,7.4725,-3.36,7.6475,-5.14886758123897,-22.370897492680456,-19.171168499949058,4.488999999994121
-0.4041,0.9911,-0.0922,0.2589,0.2621,-0.0578,8.2075,-3.4475,8.9338,-5.297130581734343,-22.114605807638245,-19.181510999963706,4.49199999999837
-0.4041,0.9911,-0.0922,0.2549,0.2592,-0.0671,8.5225,-3.2725,11.1038,-5.312989419589172,-22.097067362109826,-19.18805599996504,4.493999999998778
-0.3975,0.9909,-0.0968,0.2549,0.2592,-0.0671,9.3363,-3.465,13.2738,-5.554117352545871,-21.781781748558096,-19.194985999966452,4.495999999999185
-0.3931,0.9953,-0.0972,0.2549,0.2592,-0.0618,9.3363,-3.465,13.2738,-5.575512231571501,-21.47601080252913,-19.205380999981177,4.499000000003434
-0.3827,0.9951,-0.0948,0.2515,0.2565,-0.0618,9.8437,-3.0538,15.1025,-5.4540797309761935,-20.97457221343524,-19.214542399971933,4.5020000000004075
-0.3795,0.998,-0.1011,0.2515,0.2565,-0.0618,9.2837,-3.1325,16.4587,-5.752895532963864,-20.734147218828248,-19.223939899962453,4.504999999997381
-0.3763,0.9944,-0.0986,0.2504,0.2555,-0.0649,9.2837,-3.1325,17.8237,-5.671293635818626,-20.63918790395681,-19.236469899965005,4.508999999998196
-0.3763,0.9944,-0.0986,0.2504,0.2555,-0.0649,9.5988,-2.8087,17.8237,-5.663469189502357,-20.635170901504438,-19.261748199959936,4.517999999996391
-0.3721,0.9902,-0.1041,0.2486,0.253,-0.0627,10.255,-2.9925,19.04,-5.971910672537269,-20.497641320431427,-19.282695699953315,4.524999999994179
-0.3714,0.9952,-0.1066,0.2486,0.253,-0.0627,10.605,-3.43,20.37,-6.101828500643662,-20.363633126431203,-19.310135699958906,4.532999999995809
-0.3653,0.9977,-0.106,0.2486,0.253,-0.0627,10.605,-3.43,20.37,-6.067762373077541,-20.019859334826624,-19.337575699964496,4.540999999997439
-0.3537,0.998,-0.1086,0.246,0.2506,-0.0672,10.8938,-4.4363,22.2425,-6.198542881560289,-19.430613142705827,-19.373066099971727,4.548999999999069
-0.3537,0.998,-0.1086,0.246,0.2506,-0.0672,12.2937,-4.4713,24.4737,-6.209478459640284,-19.409555075300553,-19.40883649994648,4.5569999999934225
-0.3497,1.0027,-0.1095,0.2406,0.2456,-0.0649,12.7575,-4.0687,27.1863,-6.2306597996746795,-19.130021185475837,-19.441386099953114,4.564999999995052
-0.3461,1.0056,-0.1107,0.2406,0.2456,-0.0649,12.7575,-4.0687,27.1863,-6.27834108511746,-18.893514999918114,-19.4535921999704,4.5679999999993015
-0.3504,1.0054,-0.1126,0.2406,0.2456,-0.0649,12.8188,-4.235,30.6775,-6.382231400324613,-19.097903779831793,-19.4535921999704,4.5679999999993015
-0.3467,1.0048,-0.119,0.2355,0.2435,-0.0656,12.9062,-4.76,33.0138,-6.727757335044419,-18.91871705608352,-19.529752199951282,4.583999999995285
-0.3419,1.0038,-0.1236,0.2355,0.2435,-0.0656,13.5363,-5.3725,34.5537,-6.999780314075174,-18.683924092560915,-19.529752199951282,4.583999999995285
-0.3419,1.0038,-0.1236,0.2321,0.2389,-0.0638,13.5363,-5.3725,34.5537,-7.018267764605425,-18.678107972634017,-19.610339699987247,4.599000000001979
-0.3301,1.0053,-0.1246,0.2321,0.2389,-0.0638,13.7638,-6.51,37.03,-7.062230997251281,-18.063724306184245,-19.610339699987247,4.599000000001979
-0.3174,1.0076,-0.1259,0.2321,0.2389,-0.0638,15.8725,-7.4288,39.3488,-7.1186986839370805,-17.37358421782219,-19.72920049995741,4.614999999997963
-0.3077,1.0197,-0.131,0.2282,0.2362,-0.0642,16.8263,-7.2975,42.4113,-7.309425542878263,-16.676965459620952,-19.72920049995741,4.614999999997963
-0.2979,1.0249,-0.1349,0.2282,0.2362,-0.0642,16.8263,-7.2975,42.4113,-7.487824394802751,-16.088228742221364,-19.8459604999812,4.631000000001222
-0.2979,1.0249,-0.1349,0.222,0.23,-0.0706,16.66,-6.7725,45.7887,-7.497727848004822,-16.07600419482034,-19.8459604999812,4.631000000001222
-0.2877,1.0222,-0.1395,0.222,0.23,-0.0706,16.1963,-6.7638,49.5163,-7.75543041395637,-15.590955295517379,-19.947417499977263,4.64600000000064
-0.2807,1.0203,-0.1395,0.222,0.2246,-0.0682,15.6975,-6.9913,51.7738,-7.783683439486175,-15.253191402009444,-20.059278299949185,4.661999999996624
-0.2703,1.015,-0.1376,0.217,0.2246,-0.0682,15.6975,-6.9913,51.7738,-7.724077297871084,-14.791034005758688,-20.059278299949185,4.661999999996624
-0.2605,1.0039,-0.1402,0.217,0.2246,-0.0682,16.7213,-6.4488,52.8675,-7.937606116256157,-14.419215757570255,-20.156010299992353,4.677000000003318
-0.2438,0.9972,-0.1451,0.2066,0.2201,-0.0724,16.9312,-6.4225,53.7687,-8.260014976816631,-13.614351204832575,-20.156010299992353,4.677000000003318
-0.2438,0.9972,-0.1451,0.2066,0.2201,-0.0724,16.9312,-6.4225,55.1688,-8.27781893940153,-13.600837924794648,-20.258770299966557,4.6929999999993015
-0.2357,0.9835,-0.1404,0.1994,0.216,-0.0738,19.25,-5.8275,55.1688,-8.13190378901681,-13.350774470042568,-20.258770299966557,4.6929999999993015
-0.2344,0.9962,-0.1559,0.1994,0.216,-0.0738,20.6063,-5.1975,57.7238,-8.859343539126865,-13.09097024044487,-20.3419302999835,4.709000000002561
-0.225,1.016,-0.1642,0.1994,0.216,-0.0738,20.44,-5.425,60.5413,-9.165577894649076,-12.343417486188415,-20.3419302999835,4.709000000002561
-0.2047,1.0218,-0.1617,0.1907,0.2057,-0.0691,20.44,-5.425,60.5413,-9.000500312879874,-11.209905045953914,-20.423305299940868,4.723999999994703
-0.2047,1.0218,-0.1647,0.1907,0.2057,-0.0691,19.8275,-5.8187,61.4425,-9.149101061527984,-11.187905945154437,-20.423305299940868,4.723999999994703
-0.1828,1.0129,-0.1647,0.1834,0.2026,-0.0734,19.8188,-5.5738,61.25,-9.23148401343394,-10.116510072694348,-20.512486099959037,4.739999999997963
-0.1676,1.009,-0.173,0.1834,0.2026,-0.0734,19.88,-5.2587,60.5588,-9.705520898034566,-9.310091455755453,-20.512486099959037,4.739999999997963
-0.1457,1.0035,-0.1707,0.1834,0.2026,-0.0734,19.88,-5.2587,60.5588,-9.65632464390998,-8.163286905077952,-20.591366599994238,4.755000000004657
-0.134,0.997,-0.1682,0.1747,0.2007,-0.0755,19.18,-4.6112,59.43,-9.579925028250601,-7.5588467736964216,-20.591366599994238,4.755000000004657
-0.1238,0.9931,-0.171,0.1747,0.2007,-0.0755,20.1688,-3.1412,59.535,-9.760951279771644,-7.012313738138986,-20.64162579998162,4.77100000000064
-0.1238,0.9931,-0.171,0.1658,0.1963,-0.0788,20.475,-1.6888,60.3662,-9.769437574903433,-7.003949020608723,-20.64162579998162,4.77100000000064
-0.1163,0.9949,-0.1787,0.1658,0.1963,-0.0788,20.475,-1.6888,60.3662,-10.163579183176651,-6.569962114801043,-20.66864659997484,4.786999999996624
-0.1055,0.9967,-0.1892,0.1658,0.1963,-0.0788,20.4487,-0.9975,61.2062,-10.721327686656178,-5.946421368642611,-20.66864659997484,4.786999999996624
-0.0942,0.9941,-0.1914,0.1554,0.1898,-0.0802,20.8687,-0.5163,60.9087,-10.890118994201616,-5.325516765915362,-20.676391099974538,4.801999999996042
-0.072,0.9878,-0.1862,0.1554,0.1898,-0.0802,19.9325,-0.7,60.8913,-10.68516966606905,-4.115391316516534,-20.676391099974538,4.801999999996042
-0.072,0.9878,-0.2014,0.1468,0.1851,-0.0946,19.9325,-0.7,60.8913,-11.484204985633655,-4.085576116047119,-20.68759109997682,4.8179999999993015
-0.0584,1.0023,-0.2014,0.1468,0.1851,-0.0946,20.72,0.63,59.08,-11.367190302072304,-3.281997493405891,-20.68759109997682,4.8179999999993015
-0.04,0.9771,-0.1931,0.1384,0.1823,-0.0894,19.3813,0.1225,59.0713,-11.188214354991011,-2.3149410263780297,-20.68575359997689,4.832999999998719
-0.0294,1.0003,-0.2032,0.1384,0.1823,-0.0894,22.3913,1.7938,56.8662,-11.470267504598628,-1.6604398116466925,-20.68575359997689,4.832999999998719
-0.0276,0.9986,-0.2187,0.1384,0.1823,-0.0894,22.3913,1.7938,56.8662,-12.315659508943297,-1.548358317652363,-20.657052799984097,4.848999999994703
-0.0167,0.9892,-0.2209,0.1318,0.1787,-0.0894,23.0125,1.9162,55.2125,-12.577012563798812,-0.9538523314171337,-20.657052799984097,4.848999999994703
-0.0167,0.9892,-0.2209,0.1318,0.1787,-0.0894,23.0562,2.5113,54.74,-12.587817525198076,-0.9441120928751601,-20.61687199997591,4.864999999997963
-0.0007,0.9844,-0.2186,0.1233,0.1747,-0.0882,23.0562,2.5113,53.5412,-12.522970624890936,-0.0550093725746067,-20.61687199997591,4.864999999997963
0.0054,0.9773,-0.2262,0.1233,0.1747,-0.0882,22.365,3.0363,53.5412,-13.010246396951848,0.3023041040229501,-20.571327499977677,4.879999999997381
0.0153,0.977,-0.224,0.1233,0.1747,-0.0882,21.63,3.3425,53.1037,-12.917466986675755,0.8647909467680379,-20.571327499977677,4.879999999997381
0.0287,0.9756,-0.2316,0.113,0.1725,-0.1016,21.9888,3.2113,53.025,-13.335521246238045,1.6263255649185036,-20.51994669996721,4.89600000000064
0.0287,0.9756,-0.2353,0.113,0.1725,-0.1016,21.9888,3.2113,53.025,-13.550223032668695,1.6378858778662493,-20.51994669996721,4.89600000000064
0.0379,0.9897,-0.2353,0.105,0.1676,-0.1012,22.5925,3.85,52.7887,-13.381138157013856,2.125163892297212,-20.46219669996945,4.911000000000058
0.0533,0.9826,-0.2342,0.105,0.1676,-0.1012,22.3388,4.69,52.36,-13.405097063353207,3.005064213130153,-20.46219669996945,4.911000000000058
0.0679,0.9776,-0.2417,0.105,0.1676,-0.1012,21.28,5.0487,53.2788,-13.865744362543811,3.8429424780140597,-20.381417499989727,4.926999999996042
0.0745,0.9792,-0.2572,0.0959,0.1674,-0.101,21.28,5.0487,53.2788,-14.679154351209432,4.202417532384053,-20.381417499989727,4.926999999996042
0.0805,0.9848,-0.245,0.0959,0.1674,-0.101,20.51,4.5937,53.8913,-14.00319015050237,4.529886872430619,-20.30791829997475,4.9429999999993015
0.0805,0.9848,-0.245,0.087,0.1659,-0.1045,20.4837,4.9437,53.4712,-13.972023782697125,4.535370820801304,-20.30791829997475,4.9429999999993015
0.0889,0.9681,-0.251,0.087,0.1659,-0.1045,19.9587,5.8187,52.57,-14.508432406385126,5.070364411850723,-20.22063779997814,4.957999999998719
0.0988,0.9645,-0.2592,0.087,0.1659,-0.1045,19.9587,5.8187,52.57,-15.017023927073744,5.6397643128326465,-20.22063779997814,4.957999999998719
0.1061,0.974,-0.2519,0.079,0.1619,-0.1139,20.1688,6.1687,51.3888,-14.52456080803879,6.013639726803518,-20.121938599958032,4.974000000001979
0.1188,0.9659,-0.2583,0.079,0.1619,-0.1139,20.1863,6.9388,51.31,-14.950725290075724,6.762707112882707,-20.121938599958032,4.974000000001979
0.1188,0.9659,-0.263,0.0704,0.1598,-0.1096,20.3263,8.0238,51.5638,-15.21846743564259,6.7677523636317956,-20.001581600021083,4.988999999994121
0.1213,0.9633,-0.263,0.0704,0.1598,-0.1096,20.3263,8.0238,51.5638,-15.268289377178034,6.923327939763772,-20.001581600021083,4.988999999994121
0.1272,0.9523,-0.2703,0.058,0.1579,-0.1132,20.72,8.6713,51.8088,-15.819633538917648,7.315206820707068,-19.862840799992817,5.004999999997381
0.1357,0.9465,-0.2818,0.058,0.1579,-0.1132,19.88,8.0675,50.9863,-16.543669279625053,7.815028176602718,-19.73376079996652,5.02100000000064
0.1472,0.9405,-0.2836,0.058,0.1579,-0.1132,19.88,6.86,50.0412,-16.76901594617379,8.509589296360875,-19.73376079996652,5.02100000000064
0.1579,0.9424,-0.2834,0.0513,0.1562,-0.1196,19.8275,6.86,50.0412,-16.738681870865367,9.10472160226535,-19.630860799970513,5.036000000000058
0.1579,0.9424,-0.2834,0.0513,0.1562,-0.1196,20.5975,6.4313,48.2912,-16.737235190925997,9.115369919344772,-19.630860799970513,5.036000000000058
0.1709,0.9368,-0.2861,0.0436,0.155,-0.1229,22.19,6.9037,47.0225,-16.97223661716972,9.882224327885044,-19.52040159994801,5.052000000003318
0.1839,0.9334,-0.2814,0.0436,0.155,-0.1229,22.19,6.9037,47.0225,-16.78528611993219,10.667350509462596,-19.52040159994801,5.052000000003318
0.1969,0.9356,-0.2854,0.0436,0.155,-0.1229,23.03,8.1988,47.3288,-16.956674035256366,11.367876346969755,-19.397419600012437,5.06699999999546
0.2036,0.933,-0.2915,0.0356,0.1538,-0.1259,23.2575,9.31,48.9125,-17.334409551546496,11.758709231208321,-19.397419600012437,5.06699999999546
0.2036,0.933,-0.2956,0.0356,0.1538,-0.1259,22.5662,10.5262,49.7525,-17.569302630814803,11.751729870615272,-19.229000399978126,5.082999999998719
0.209,0.9332,-0.2956,0.0264,0.152,-0.1268,22.5662,10.5262,49.7525,-17.57580871616323,12.046598311002917,-19.229000399978126,5.082999999998719
0.2171,0.9218,-0.2951,0.0264,0.152,-0.1268,22.4263,11.235,49.665,-17.744212614878176,12.63166943166203,-19.049240399941503,5.099000000001979
0.2223,0.9077,-0.3027,0.0264,0.152,-0.1268,22.8113,12.0487,49.8488,-18.413413418382916,13.071273811455743,-19.049240399941503,5.099000000001979
0.2334,0.9038,-0.2994,0.0192,0.151,-0.1246,23.7125,13.0025,50.715,-18.331796803123414,13.76155929491649,-18.854202900043678,5.113999999994121
0.2431,0.9021,-0.3024,0.0192,0.151,-0.1246,23.7125,13.0025,50.715,-18.524023616538727,14.322800764979362,-18.854202900043678,5.113999999994121
0.2431,0.9021,-0.3024,0.0077,0.151,-0.1386,25.2787,13.615,53.6287,-18.531765768957076,14.33273762037554,-18.6363628999993,5.129999999997381
0.2455,0.8997,-0.3123,0.0077,0.151,-0.1386,25.83,14.6038,56.6388,-19.120070464591297,14.453073436089229,-18.6363628999993,5.129999999997381
0.2536,0.8997,-0.3209,0.0077,0.151,-0.1386,24.4562,13.9388,57.96,-19.61012500753619,14.861932516903659,-18.42728090000741,5.144999999996799
0.2634,0.899,-0.3257,-0.0031,0.1494,-0.1427,24.4562,13.9388,57.96,-19.903123800142193,15.392876724136366,-18.42728090000741,5.144999999996799
0.2833,0.895,-0.3199,-0.0031,0.1494,-0.1427,24.1588,13.79,57.225,-19.677685630124024,16.578543587977236,-18.20664089996246,5.161000000000058
0.2833,0.895,-0.3345,-0.0151,0.1502,-0.1352,23.7388,13.7987,56.7438,-20.46016137903225,16.51633962660012,-18.20664089996246,5.161000000000058
0.2976,0.8816,-0.3345,-0.0151,0.1502,-0.1352,23.8263,13.44,56.6125,-20.76522709315216,17.500376496145503,-17.991600899918648,5.177000000003318
0.3103,0.8768,-0.3383,-0.0247,0.151,-0.1435,23.8263,13.44,56.6125,-21.085029738610732,18.259645135416186,-17.991600899918648,5.177000000003318
0.3273,0.8786,-0.3325,-0.0247,0.151,-0.1435,24.7188,12.985,56.6213,-20.742552584589564,19.19362333087646,-17.796825900020686,5.19199999999546
0.3429,0.8799,-0.339,-0.0247,0.151,-0.1435,23.5987,12.845,56.9888,-21.057004364385744,19.97111482796916,-17.796825900020686,5.19199999999546
0.3545,0.8832,-0.3489,-0.0356,0.1498,-0.1503,21.3587,12.8538,57.5575,-21.533896497189605,20.463126890151475,-17.591165099978788,5.207999999998719
0.3545,0.8832,-0.3489,-0.0356,0.1498,-0.1503,21.7525,12.8538,57.5575,-21.555074413472358,20.470890621092316,-17.591165099978788,5.207999999998719
0.3671,0.8771,-0.3564,-0.0452,0.1498,-0.1497,19.2675,12.8975,56.3763,-22.086499239738664,21.182166821988297,-17.397702599986296,5.222999999998137
0.3791,0.8703,-0.3524,-0.0452,0.1498,-0.1497,17.395,12.1625,53.2438,-22.04619694630047,21.972934535410275,-17.397702599986296,5.222999999998137
0.3925,0.8596,-0.3514,-0.0452,0.1498,-0.1497,17.395,12.1625,49.9275,-22.224349940280923,22.894789226055327,-17.20310259994665,5.239000000001397
0.4017,0.8455,-0.3496,-0.0562,0.1498,-0.1526,16.2313,11.9875,49.9275,-22.450488337310375,23.68944110109527,-17.20310259994665,5.239000000001397
0.4017,0.8325,-0.3513,-0.0562,0.1498,-0.1526,14.7437,11.3225,47.985,-22.8519624350261,23.962929898463422,-17.021942599992126,5.254999999997381
0.4179,0.8325,-0.3513,-0.0635,0.1498,-0.1557,13.51,11.1125,46.8737,-22.87703660910118,24.803824043558286,-17.021942599992126,5.254999999997381
0.4233,0.8217,-0.3543,-0.0635,0.1498,-0.1557,13.51,11.1125,46.8737,-23.294224385425988,25.306812861047224,-16.788580099985012,5.275999999998021
0.4287,0.8197,-0.3512,-0.0635,0.1498,-0.1557,11.9613,10.85,45.8675,-23.200413168423157,25.66789383903787,-16.70178010004627,5.283999999992375
0.4344,0.812,-0.3502,-0.0719,0.1482,-0.1678,10.3512,10.7362,44.3275,-23.3184021772735,26.152114975464084,-16.615890500028772,5.291999999994005
0.4432,0.8042,-0.3465,-0.0719,0.1482,-0.1678,8.5312,10.0975,42.56,-23.31034567670938,26.830835766044267,-16.535110500012316,5.299999999995634
0.4432,0.8042,-0.3465,-0.0802,0.1506,-0.151,8.5312,10.0975,42.56,-23.309515864684307,26.844865982334298,-16.535110500012316,5.299999999995634
0.4528,0.7964,-0.3431,-0.0802,0.1506,-0.151,6.7987,9.24,40.1362,-23.307348433071137,27.556070975330044,-16.387270499982197,5.315999999998894
0.4582,0.7853,-0.3454,-0.0802,0.1506,-0.151,6.44,8.89,37.4063,-23.684442095512352,28.093636776489546,-16.387270499982197,5.315999999998894
0.4649,0.7767,-0.343,-0.0878,0.1492,-0.1572,6.0025,7.8663,34.4575,-23.806995738951592,28.687491577287798,-16.269275999986775,5.330999999998312
0.4779,0.7723,-0.3443,-0.0878,0.1492,-0.1572,6.0025,7.8663,34.4575,-23.9970898170285,29.454747481402247,-16.269275999986775,5.330999999998312
0.4779,0.7753,-0.3457,-0.0933,0.1515,-0.161,5.8888,7.105,31.4037,-24.026807126798985,29.38054104084655,-16.148490999988017,5.347999999998137
0.4882,0.7753,-0.3457,-0.0933,0.1515,-0.161,6.65,6.5188,28.49,-24.03107996298992,29.88839857834368,-16.096340599977392,5.355999999999767
0.4912,0.7664,-0.3475,-0.0982,0.1513,-0.1646,6.7812,5.705,25.7075,-24.34527240303066,30.26069543406847,-16.07922559999466,5.35899999999674
0.4937,0.751,-0.3408,-0.0982,0.1513,-0.1646,6.7812,5.705,25.7075,-24.40038659194509,30.885741377567626,-16.07922559999466,5.35899999999674
0.5037,0.7402,-0.347,-0.0982,0.1513,-0.1646,7.1137,4.7863,24.4037,-25.030410687696385,31.61425633439149,-16.00264479997906,5.375
0.5159,0.7468,-0.3503,-0.1036,0.1519,-0.1626,8.2513,3.9638,23.3975,-25.119234065401887,32.00899697665448,-16.00264479997906,5.375
0.5159,0.7468,-0.3503,-0.1036,0.1519,-0.1626,9.3538,3.5788,22.785,-25.128771371974373,32.02249915115965,-15.948962799981143,5.389999999999418
0.5123,0.7576,-0.34,-0.1084,0.1511,-0.1667,9.3538,3.5788,22.785,-24.26091065899595,31.684125667377526,-15.948962799981143,5.389999999999418
0.506,0.7476,-0.3381,-0.1084,0.1511,-0.1667,10.08,4.1388,23.1437,-24.328170563614332,31.662832208195393,-15.882741999967651,5.4060000000026776
0.5086,0.7492,-0.3493,-0.1084,0.1511,-0.1667,9.5725,3.43,22.1462,-24.93421764562519,31.604965658150647,-15.882741999967651,5.4060000000026776
0.5202,0.7707,-0.3634,-0.1123,0.1524,-0.1658,9.5725,3.43,20.2388,-25.215897016879154,31.41205754513537,-15.831291999994605,5.4209999999948195
0.5358,0.7849,-0.3642,-0.1123,0.1524,-0.1658,9.38,2.2487,20.2388,-24.92239338628137,31.75306924268633,-15.831291999994605,5.4209999999948195
0.5348,0.7849,-0.3642,-0.1153,0.1531,-0.1654,8.225,0.7788,17.885,-24.89495052961342,31.720237794072297,-15.818831199992067,5.436999999998079
0.5475,0.7823,-0.3674,-0.1153,0.1531,-0.1654,5.74,-0.385,14.49,-25.11883233447359,32.32213677200232,-15.824991199993322,5.453000000001339
0.5572,0.7707,-0.3738,-0.1153,0.1531,-0.1654,5.74,-0.385,14.49,-25.764848961508267,33.008629148039994,-15.824991199993322,5.453000000001339
0.5545,0.7573,-0.3716,-0.1169,0.1546,-0.1626,4.3225,-1.295,11.4712,-26.069135883736788,33.300399592201266,-15.844416199992569,5.468000000000757
0.5589,0.7473,-0.3785,-0.1169,0.1546,-0.1626,2.5638,-1.7938,8.1287,-26.649908722717555,33.681546482777655,-15.858766599982442,5.475999999995111
0.5589,0.7473,-0.3785,-0.12,0.1531,-0.1634,0.0088,-2.5812,2.3187,-26.683197327725896,33.70737168722727,-15.879416199986649,5.48399999999674
0.5698,0.7557,-0.388,-0.12,0.1531,-0.1634,0.0088,-2.5812,2.3187,-26.760849673089442,33.834282042135044,-15.900065799990855,5.49199999999837
0.5785,0.7546,-0.3864,-0.12,0.1531,-0.1838,-3.7187,-4.3925,-2.8,-27.03712208068061,34.151288047267265,-15.93959830001489,5.501000000003842
0.576,0.7418,-0.3889,-0.1213,0.1538,-0.168,-5.9588,-5.8975,-7.0525,-27.573656082747906,34.4038067680268,-15.980880799958936,5.507999999994354
0.5671,0.731,-0.3866,-0.1213,0.1538,-0.168,-8.8988,-7.56,-10.36,-27.842006992082975,34.43597862233681,-16.0489208000003,5.516999999999825
0.568,0.7296,-0.3722,-0.1166,0.1516,-0.1671,-8.8988,-7.56,-10.36,-27.11179160149843,34.69410223501657,-16.0489208000003,5.516999999999825
0.568,0.7296,-0.3722,-0.1166,0.1516,-0.1671,-11.2788,-8.3562,-12.1888,-27.034981659864613,34.73509819688754,-16.182620000027537,5.533000000003085
0.5619,0.7292,-0.371,-0.1162,0.1516,-0.1589,-12.5125,-8.6187,-13.7113,-26.971111457431665,34.50662152749754,-16.182620000027537,5.533000000003085
0.5491,0.7277,-0.3744,-0.1162,0.1516,-0.1589,-14.1575,-9.3275,-16.2488,-27.208721025067995,33.91244716846412,-16.322532499954242,5.547999999995227
0.5415,0.7286,-0.3689,-0.1162,0.1516,-0.1589,-14.1575,-9.3275,-16.2488,-26.877407582303565,33.576209512551785,-16.322532499954242,5.547999999995227
0.5341,0.7293,-0.3667,-0.1119,0.1494,-0.1567,-15.6012,-9.6075,-19.3113,-26.704931704470226,33.220948430496534,-16.47625249998556,5.563999999998487
0.5341,0.7293,-0.3667,-0.1119,0.1494,-0.1567,-16.3363,-9.9925,-22.5225,-26.69440080811183,33.19775043294121,-16.47625249998556,5.563999999998487
0.5306,0.7394,-0.3725,-0.1099,0.1473,-0.1589,-17.7537,-10.7712,-26.0225,-26.735998037037657,32.67925223434429,-16.659362899983677,5.580999999998312
0.5264,0.7498,-0.3678,-0.1099,0.1473,-0.1589,-17.7537,-10.7712,-26.0225,-26.162029783374976,32.24397444342191,-16.670134100025056,5.582000000002154
0.5259,0.7527,-0.3621,-0.1099,0.1473,-0.1589,-19.1187,-12.285,-29.0938,-25.71436047037287,32.1971760010073,-16.670134100025056,5.582000000002154
0.5228,0.7615,-0.3672,-0.1054,0.1487,-0.1597,-19.8275,-12.985,-31.5788,-25.74223325096319,31.749305134075172,-16.86490909992302,5.596999999994296
0.5207,0.7673,-0.3615,-0.1054,0.1487,-0.1597,-22.0675,-13.7375,-34.3787,-25.249175080653433,31.552150924669277,-17.084709099967796,5.612999999997555
0.5207,0.7673,-0.3615,-0.1009,0.1458,-0.1541,-21.2625,-13.7375,-34.3787,-25.227670499793373,31.545700187911866,-17.084709099967796,5.612999999997555
0.5195,0.7613,-0.3547,-0.1009,0.1458,-0.1541,-22.96,-13.965,-36.4263,-24.991803464024574,31.732720049036924,-17.294184100061276,5.628000000004249
0.5105,0.7657,-0.3575,-0.1009,0.1458,-0.1541,-23.5725,-13.8775,-38.0537,-25.026078197967013,31.15396944359494,-17.294184100061276,5.628000000004249
0.5072,0.78,-0.3628,-0.0941,0.1437,-0.1542,-23.5725,-13.8775,-40.2938,-24.947812464156172,30.540821188554776,-17.51622410000554,5.644000000000233
0.5128,0.785,-0.3615,-0.0941,0.1437,-0.1542,-24.78,-14.0087,-39.3575,-24.735165406162434,30.67899093703735,-17.51622410000554,5.644000000000233
0.5128,0.785,-0.3615,-0.0869,0.1428,-0.148,-26.3288,-14.84,-41.055,-24.726840392791942,30.682883589611226,-17.753664100053914,5.6600000000034925
0.5236,0.7892,-0.3665,-0.0869,0.1428,-0.148,-28.1313,-14.7788,-43.8025,-24.903565829000367,31.027992554083827,-17.753664100053914,5.6600000000034925
0.5267,0.8076,-0.3703,-0.0664,0.1403,-0.1463,-28.1313,-14.7788,-43.8025,-24.64172552613197,30.669982397832467,-17.97534609993778,5.674999999995634
0.5277,0.8419,-0.3717,-0.079,0.1403,-0.1463,-29.9775,-13.7725,-47.8013,-23.848153935532515,29.848993166331628,-17.97534609993778,5.674999999995634
0.5199,0.8591,-0.3811,-0.079,0.1403,-0.1463,-33.5037,-13.1075,-53.515,-23.920095760162493,28.968662209581062,-18.185066099980506,5.690999999998894
0.5117,0.8477,-0.3809,-0.0731,0.1406,-0.142,-38.535,-12.635,-60.3662,-24.188970356921253,28.83965629520927,-18.185066099980506,5.690999999998894
0.5117,0.8477,-0.3809,-0.0731,0.1406,-0.142,-38.535,-12.635,-60.3662,-24.19580197624522,28.837375045822174,-18.374591099973152,5.705999999998312
0.5133,0.8465,-0.3673,-0.0594,0.1377,-0.1312,-42.3063,-12.0575,-68.8187,-23.473377853930085,29.08208271935621,-18.374591099973152,5.705999999998312
0.5078,0.8476,-0.3606,-0.0594,0.1377,-0.1312,-46.3662,-11.1475,-76.8163,-23.05571587488856,28.87030376483941,-18.552951100009487,5.722000000001572
0.4987,0.8439,-0.3403,-0.0594,0.1377,-0.1312,-49.3675,-8.9862,-84.105,-21.983399653835292,28.727388770194697,-18.552951100009487,5.722000000001572
0.4941,0.8259,-0.3191,-0.0461,0.135,-0.1254,-49.3675,-8.9862,-84.105,-21.14196224153057,29.158353012190133,-18.696730299973396,5.737999999997555
0.4941,0.8259,-0.3041,-0.0461,0.135,-0.1254,-50.5313,-5.9325,-90.5188,-20.231999494433584,29.30850597385343,-18.696730299973396,5.737999999997555
0.4687,0.8009,-0.3041,-0.033,0.1358,-0.1176,-50.9425,-2.9137,-95.3575,-20.780849866296965,28.690153185500737,-18.743349499961692,5.753999999993539
0.4277,0.7696,-0.2725,-0.033,0.1358,-0.1176,-50.855,0.21,-98.7438,-19.522861774846348,27.659798356882693,-18.743349499961692,5.753999999993539
0.409,0.756,-0.2637,-0.033,0.1358,-0.1176,-50.855,0.21,-98.7438,-19.234939661460103,27.06526057498656,-18.73998949996101,5.769999999996799
0.3769,0.7621,-0.2509,-0.0175,0.1352,-0.1062,-49.91,2.695,-100.4238,-18.242629298984703,25.181577779090773,-18.73998949996101,5.769999999996799
0.3439,0.7724,-0.2331,-0.0175,0.1352,-0.1062,-47.8537,3.3338,-99.0675,-16.822891391844305,23.108040668902916,-18.689982499962948,5.7849999999962165
0.3439,0.7724,-0.2331,-0.005,0.136,-0.1068,-45.6138,3.85,-97.65,-16.793753842824458,23.086275162988787,-18.689982499962948,5.7849999999962165
0.3215,0.7967,-0.2209,-0.005,0.136,-0.1068,-45.9025,3.85,-97.65,-15.524782928700093,21.2690722590226,-18.628382499950398,5.800999999999476
0.2972,0.8312,-0.2187,-0.005,0.136,-0.1068,-43.3475,4.305,-95.5588,-14.758928203280153,19.098610170054936,-18.628382499950398,5.800999999999476
0.2763,0.8527,-0.2174,0.0112,0.137,-0.1027,-41.0988,3.3775,-93.695,-14.31399573706436,17.45007370964152,-18.574342499939387,5.817000000002736
0.2505,0.8668,-0.2012,0.0112,0.137,-0.1027,-41.0988,3.3775,-93.695,-13.097696853320459,15.741651936457698,-18.574342499939387,5.817000000002736
0.2505,0.8668,-0.1907,0.0238,0.1376,-0.0923,-40.355,3.0712,-93.3887,-12.424428132104241,15.761187126270658,-18.528274499963523,5.831999999994878
0.2301,0.8785,-0.1907,0.0238,0.1376,-0.0923,-40.635,2.3712,-95.5413,-12.251712450966927,14.372625126715178,-18.528274499963523,5.831999999994878
0.2215,0.9074,-0.1925,0.0371,0.1406,-0.0832,-41.8338,0.7,-98.525,-11.983844606941204,13.440101570003446,-18.51707449996124,5.847999999998137
0.2107,0.9268,-0.1949,0.0371,0.1406,-0.0832,-41.8338,0.7,-98.525,-11.878414235809705,12.552101267416342,-18.51707449996124,5.847999999998137
0.2011,0.9341,-0.1884,0.0371,0.1406,-0.0832,-41.9388,-0.665,-102.7162,-11.414204414583633,11.923140662786293,-18.527049499960853,5.862999999997555
0.1889,0.917,-0.1854,0.0543,0.144,-0.0846,-41.4225,-1.435,-107.2663,-11.429664331964718,11.420158447194966,-18.527049499960853,5.862999999997555
0.1889,0.917,-0.1854,0.0543,0.144,-0.0846,-38.8763,-2.1875,-113.4525,-11.430029722480882,11.41529371974011,-18.562049499967983,5.879000000000815
0.1743,0.9166,-0.1729,0.0711,0.1503,-0.0805,-38.8763,-2.1875,-113.4525,-10.701128279704777,10.592018539888196,-18.562049499967983,5.879000000000815
0.1533,0.9246,-0.1544,0.0711,0.1503,-0.0805,-34.9388,-1.7938,-119.595,-9.514544582251148,9.299023775772447,-18.59075029997383,5.8950000000040745
0.1368,0.9318,-0.1282,0.0711,0.1503,-0.0805,-31.43,0.5688,-123.6375,-7.885867175934233,8.28376270650481,-18.59075029997383,5.8950000000040745
0.1082,0.9286,-0.1264,0.089,0.1545,-0.081,-30.765,3.2812,-124.5475,-7.755655591749864,6.599976451772364,-18.541532299999613,5.9099999999962165
0.1082,0.9286,-0.1235,0.089,0.1545,-0.081,-30.765,3.2812,-124.5475,-7.581345913105591,6.5887026053906865,-18.541532299999613,5.9099999999962165
0.0704,0.9303,-0.1235,0.1051,0.1594,-0.0718,-32.1388,4.3225,-122.9463,-7.562552042289894,4.30938158341452,-18.472372299985523,5.925999999999476
0.0375,0.9419,-0.1206,0.1051,0.1594,-0.0718,-33.4775,4.9,-122.6663,-7.304158356225478,2.278709300557679,-18.472372299985523,5.925999999999476
0.0174,0.947,-0.1298,0.1051,0.1594,-0.0718,-34.9825,4.0775,-125.44,-7.790604540143608,1.0530362131449176,-18.411209799987898,5.940999999998894
0.0128,0.9293,-0.1344,0.1232,0.1662,-0.0562,-34.9825,4.0775,-125.44,-8.217088311450402,0.7832431912817013,-18.411209799987898,5.940999999998894
-0.0003,0.8987,-0.1085,0.1232,0.1662,-0.0562,-33.7925,3.1937,-129.675,-6.922510858530653,-0.012614303663234586,-18.36011059997749,5.957000000002154
-0.0003,0.8987,-0.1085,0.1411,0.1764,-0.0652,-29.715,3.9288,-132.5625,-6.8852599606632,-0.018938827276728975,-18.297249799993267,5.972999999998137
-0.0132,0.8613,-0.0769,0.1411,0.1764,-0.0652,-25.235,6.7112,-130.5762,-5.170481487208145,-0.8677993820780701,-18.297249799993267,5.972999999998137
-0.0456,0.8507,-0.086,0.1411,0.1764,-0.0652,-24.8325,6.7112,-130.5762,-5.749132913698733,-3.0355175009497564,-18.196581799997173,5.987999999997555
-0.0926,0.8754,-0.0969,0.1571,0.1866,-0.0668,-21.2887,8.6012,-124.8538,-6.2908254690345915,-5.977408824513342,-18.196581799997173,5.987999999997555
-0.1599,0.9164,-0.1032,0.1571,0.1866,-0.0668,-18.6287,7.9887,-119.735,-6.418357573405791,-9.803484205810676,-18.068762599971134,6.004000000000815
-0.1599,0.9789,-0.1127,0.1754,0.1947,-0.062,-18.6287,7.9887,-117.495,-6.559836032371841,-9.222465517739955,-18.068762599971134,6.004000000000815
-0.225,0.978,-0.1127,0.1754,0.1947,-0.062,-19.74,5.1013,-117.9762,-6.572830386630036,-12.841790177903457,-17.99224310001122,6.018999999992957
-0.2539,1.0457,-0.1088,0.1886,0.204,-0.0583,-23.0912,0.56,-119.7087,-5.966438879310799,-13.570636445491768,-17.99224310001122,6.018999999992957
-0.2674,1.0676,-0.0999,0.1886,0.204,-0.0583,-27.8075,-4.2088,-121.975,-5.367526108458895,-13.999089475075706,-18.05958390002494,6.0349999999962165
-0.2663,1.0232,-0.0687,0.1886,0.204,-0.0583,-27.8075,-4.2088,-121.975,-3.8945172799208128,-14.552173168430041,-18.05958390002494,6.0349999999962165
-0.281,0.9779,-0.0553,0.2014,0.2126,-0.0556,-30.8,-6.755,-122.6663,-3.257419785776258,-15.995519290781978,-18.167663900046957,6.050999999999476
-0.281,0.9779,-0.0553,0.2014,0.2126,-0.0556,-29.5313,-5.495,-118.3613,-3.237300236757326,-16.00765961811162,-18.167663900046957,6.050999999999476
-0.3017,0.9681,-0.0595,0.2165,0.2213,-0.0549,-26.0487,-4.305,-111.2125,-3.5065993688937684,-17.266703543830157,-18.23223890004445,6.065999999998894
-0.3249,0.9819,-0.0675,0.2165,0.2213,-0.0549,-26.0487,-4.305,-111.2125,-3.916717216103532,-18.259244636728646,-18.23223890004445,6.065999999998894
-0.3487,0.9814,-0.078,0.2165,0.2213,-0.0549,-23.1437,-4.1125,-103.8363,-4.518035792901187,-19.4912869929532,-18.298038900057854,6.082000000002154
-0.3727,0.9804,-0.0753,0.2272,0.2302,-0.0518,-21.4025,-5.46,-97.0287,-4.397672597701458,-20.744848777154765,-18.298038900057854,6.082000000002154
-0.3727,0.996,-0.0752,0.2272,0.2302,-0.0518,-21.315,-7.7962,-91.98,-4.321364417508094,-20.465498167210537,-18.41498189999659,6.096999999994296
-0.3936,0.9956,-0.0752,0.2377,0.241,-0.0466,-21.315,-7.7962,-91.98,-4.31956749270917,-21.50327430657625,-18.41498189999659,6.096999999994296
-0.4161,1.0081,-0.0645,0.2377,0.241,-0.0466,-22.7938,-10.2638,-89.39,-3.6887848449327105,-22.37713625856038,-18.579202700030045,6.112999999997555
-0.4215,1.0247,-0.0406,0.2377,0.241,-0.0466,-22.7588,-11.8212,-86.7387,-2.329160020436364,-22.34392128003913,-18.579202700030045,6.112999999997555
-0.4383,1.0144,-0.0167,0.247,0.249,-0.0436,-21.0,-10.85,-82.8363,-1.006683694148309,-23.352362398115933,-18.752802700065413,6.129000000000815
-0.4612,1.0119,-0.0065,0.247,0.249,-0.0436,-21.0,-10.85,-82.8363,-0.39730344212051905,-24.487378694810676,-18.752802700065413,6.129000000000815
-0.4612,1.0119,-0.0065,0.2549,0.2538,-0.0398,-17.5613,-8.4263,-77.2363,-0.3696297316919458,-24.501728192875333,-18.879197200060506,6.144000000000233
-0.475,1.013,-0.0053,0.2549,0.2538,-0.0398,-14.0087,-5.9675,-70.5338,-0.3044783835701671,-25.112484987040283,-18.879197200060506,6.144000000000233
-0.4768,1.0202,-0.0032,0.2549,0.2538,-0.0398,-9.5288,-3.7187,-64.7588,-0.1917686417366671,-25.050402369906948,-18.93869640007263,6.1600000000034925
-0.4782,1.0185,-0.0035,0.2626,0.2591,-0.0446,-10.5612,-3.7187,-64.7588,-0.1964418776308553,-25.148938313766607,-18.93869640007263,6.1600000000034925
-0.4827,1.0072,-0.0129,0.2626,0.2591,-0.0446,-8.4,-1.6187,-60.165,-0.6755259388822337,-25.596131967188402,-18.96297690005991,6.174999999995634
-0.4827,0.988,-0.0167,0.2662,0.2656,-0.0466,-7.07,-0.3413,-55.9912,-0.9312642960328297,-26.026769277314802,-18.96297690005991,6.174999999995634
-0.4867,0.988,-0.0167,0.2662,0.2656,-0.0466,-7.07,-0.3413,-53.7513,-0.9636675193406198,-26.21822348270195,-18.968437700061024,6.190999999998894
-0.4847,0.9857,-0.013,0.2703,0.2702,-0.0417,-5.7925,0.3588,-53.0425,-0.7870605505032232,-26.183557030251592,-18.968437700061024,6.190999999998894
-0.4928,0.9875,-0.0147,0.2703,0.2702,-0.0417,-2.73,1.9425,-50.26,-0.8343275112047852,-26.511192625041183,-18.937357700054694,6.207000000002154
-0.5011,0.9962,-0.0047,0.2703,0.2702,-0.0417,-0.3413,3.64,-47.53,-0.7549976265751663,-26.69828321749581,-18.937357700054694,6.207000000002154
-0.5173,1.0028,-0.0088,0.2764,0.278,-0.0378,-0.3413,3.64,-47.53,-0.7195228118504177,-27.27284984038913,-18.882757700056814,6.222000000001572
-0.5173,1.0028,-0.0088,0.2764,0.278,-0.0378,2.0738,5.705,-43.2163,-0.5694423205900375,-27.285959812003828,-18.882757700056814,6.222000000001572
-0.5325,1.0057,-0.0201,0.2771,0.2808,-0.0423,3.9638,6.755,-38.1763,-1.0330271152700188,-27.877936232801492,-18.774677700034797,6.238000000004831
-0.5452,1.0031,-0.027,0.2771,0.2808,-0.0423,5.5388,7.105,-33.4162,-1.4660774882985144,-28.494486524556184,-18.774677700034797,6.238000000004831
-0.5514,0.9969,-0.0284,0.2771,0.2808,-0.0423,5.5388,7.105,-33.4162,-1.6071417792855127,-28.922806137671547,-18.66810270009063,6.252999999996973
-0.5587,0.9908,-0.0353,0.2817,0.2829,-0.0436,6.5712,6.5538,-28.7787,-1.984537862813144,-29.38335463694072,-18.563241900069265,6.269000000000233
-0.5587,0.9908,-0.0428,0.2817,0.2829,-0.0436,7.42,5.4513,-24.8237,-2.416621058195943,-29.394707329966998,-18.563241900069265,6.269000000000233
-0.5633,0.986,-0.0428,0.2827,0.2847,-0.0466,8.6713,4.4187,-20.5888,-2.478522758666727,-29.696869650453984,-18.49254270008701,6.2849999999962165
-0.5577,0.9872,-0.0418,0.2827,0.2847,-0.0466,8.6713,4.4187,-20.5888,-2.430046535493611,-29.45671142480092,-18.49254270008701,6.2849999999962165
-0.5519,0.9953,-0.0429,0.2827,0.2847,-0.0466,9.9663,4.4275,-16.6163,-2.4646564901913686,-29.02285872718436,-18.426130200089588,6.299999999995634
-0.5503,1.0002,-0.0442,0.2818,0.2866,-0.0488,10.4388,4.4625,-11.6637,-2.524668086445431,-28.82451409026569,-18.426130200089588,6.299999999995634
-0.5466,1.0064,-0.0468,0.2818,0.2866,-0.0488,10.5875,4.2787,-7.4812,-2.6507593733532757,-28.5750781045598,-18.35767100007564,6.315999999998894
-0.5466,1.0064,-0.0468,0.283,0.285,-0.0493,10.5875,4.2787,-7.4812,-2.661476750022921,-28.507029440222954,-18.35767100007564,6.315999999998894
-0.5328,0.9991,-0.0523,0.283,0.285,-0.0493,9.7125,3.9375,-3.57,-2.96576652628933,-28.246622362299433,-18.298608500077933,6.330999999998312
-0.5273,0.9868,-0.0514,0.283,0.285,-0.0493,10.115,3.9987,0.2013,-2.9802913079957083,-28.112462673336392,-18.298608500077933,6.330999999998312
-0.5208,0.9948,-0.057,0.2829,0.2872,-0.0455,10.115,6.2387,4.515,-3.25286283705844,-27.64463464737222,-18.198789300057598,6.347000000001572
-0.5224,0.9953,-0.0621,0.2829,0.2872,-0.0455,10.2375,5.11,4.515,-3.5424383487289073,-27.64741675412745,-18.198789300057598,6.347000000001572
-0.5224,0.9953,-0.0689,0.2801,0.2853,-0.0498,10.1237,5.285,8.0763,-3.923055018253556,-27.637910348463272,-18.114229300078826,6.362999999997555
-0.5159,0.987,-0.0689,0.2801,0.2853,-0.0498,11.0425,5.4775,11.3575,-3.9874571191710753,-27.544488472716523,-18.114229300078826,6.362999999997555
-0.5114,0.9826,-0.0723,0.2779,0.2829,-0.0529,11.0425,5.4775,11.3575,-4.190188301772332,-27.438261149704353,-18.032066800082013,6.377999999996973
-0.5033,0.9908,-0.075,0.2779,0.2829,-0.0529,11.7513,5.3375,14.0525,-4.318105936486352,-26.892257501601517,-18.032066800082013,6.377999999996973
-0.4917,0.9944,-0.0814,0.2779,0.2829,-0.0529,11.9263,5.04,16.45,-4.652112378613847,-26.26454692097493,-17.951426800065583,6.394000000000233
-0.4846,0.9941,-0.0833,0.2754,0.2797,-0.051,12.4513,5.0662,18.69,-4.7797668280143215,-25.9237587195019,-17.951426800065583,6.394000000000233
-0.4846,0.9941,-0.0833,0.2754,0.2797,-0.051,12.4513,5.0662,18.69,-4.7891332630071055,-25.909852202303107,-17.87543380006853,6.408999999999651
-0.4812,0.9917,-0.08,0.2728,0.279,-0.058,12.2413,4.9963,20.7987,-4.625235492848167,-25.814734884610974,-17.87543380006853,6.408999999999651
-0.475,0.9894,-0.0827,0.2728,0.279,-0.058,11.8737,4.6638,22.6625,-4.766312595766352,-25.576096656053846,-17.800813000053328,6.42500000000291
-0.4684,0.9883,-0.0864,0.2728,0.279,-0.058,12.2238,4.0425,24.4475,-4.9790993809318955,-25.284053836134873,-17.800813000053328,6.42500000000291
-0.4565,0.9851,-0.085,0.2687,0.2758,-0.0704,12.2238,4.0425,24.4475,-4.935134385286031,-24.798842536109554,-17.736133000069565,6.440999999998894
-0.4565,0.9881,-0.0867,0.2687,0.2758,-0.0704,12.74,4.13,26.3375,-5.008822617941198,-24.715943603415184,-17.736133000069565,6.440999999998894
-0.4441,0.9881,-0.0867,0.2662,0.2734,-0.0598,14.0087,3.92,28.4638,-5.014151457580911,-24.136810663492298,-17.677333000071847,6.455999999998312
-0.4355,0.9937,-0.0872,0.2662,0.2734,-0.0598,14.2887,4.0338,31.6138,-5.014964816872461,-23.60001324330317,-17.677333000071847,6.455999999998312
-0.4343,0.9966,-0.0925,0.2662,0.2734,-0.0598,14.2887,4.0338,31.6138,-5.284141085371505,-23.460649267362555,-17.6127922000587,6.472000000001572
-0.4366,1.0009,-0.095,0.2616,0.2684,-0.0693,15.2075,4.5325,34.3613,-5.413550518144317,-23.472861103059163,-17.6127922000587,6.472000000001572
-0.4426,1.0016,-0.1016,0.2616,0.2684,-0.0693,16.1963,4.13,37.4325,-5.770349342639801,-23.72606977572955,-17.550842200061105,6.4870000000009895
-0.4426,1.0016,-0.1016,0.2567,0.2648,-0.0703,17.3862,3.1762,40.6875,-5.79096618871428,-23.73193426236308,-17.550842200061105,6.4870000000009895
-0.4372,1.005,-0.1041,0.2567,0.2648,-0.0703,17.3862,3.1762,40.6875,-5.90711389661048,-23.405773252112485,-17.500023000050753,6.503000000004249
-0.4241,1.0077,-0.1066,0.2567,0.2648,-0.0703,18.2962,3.1675,42.9712,-6.031849622159758,-22.724738488758323,-17.500023000050753,6.503000000004249
-0.4119,1.005,-0.1113,0.2502,0.2566,-0.0602,19.3025,2.6775,45.5875,-6.305494524375688,-22.174937834940806,-17.457183000061505,6.519000000000233
-0.3994,0.997,-0.1077,0.2502,0.2566,-0.0602,19.3025,2.065,48.7287,-6.172255514471255,-21.72503876968183,-17.457183000061505,6.519000000000233
-0.3994,0.9927,-0.1099,0.2455,0.2514,-0.071,20.895,2.065,48.7287,-6.3108103304706145,-21.79486531359013,-17.426208000062708,6.533999999999651
-0.3949,0.9927,-0.1099,0.2455,0.2514,-0.071,21.4988,1.96,52.6225,-6.31709548611654,-21.577057069033703,-17.39484800007058,6.549999999995634
-0.394,0.9944,-0.1198,0.2373,0.2467,-0.0796,22.7763,1.4525,56.6213,-6.846517209543868,-21.475064300462925,-17.39484800007058,6.549999999995634
-0.3842,0.9969,-0.1219,0.2373,0.2467,-0.0796,22.7763,1.4525,56.6213,-6.966249442335656,-20.942785220629837,-17.37306050006086,6.565000000002328
-0.3697,0.9977,-0.1301,0.2373,0.2467,-0.0796,24.0187,0.49,60.1912,-7.4110604746526425,-20.187048799783177,-17.37306050006086,6.565000000002328
-0.3496,0.9914,-0.1344,0.2289,0.2421,-0.0737,24.8062,-0.7175,63.35,-7.708386102532907,-19.27465176369981,-17.384540500057977,6.580999999998312
-0.3496,0.9914,-0.1344,0.2289,0.2421,-0.0737,24.99,-2.24,65.2663,-7.7198320388599715,-19.261455069644793,-17.384540500057977,6.580999999998312
-0.3298,0.9844,-0.1455,0.2206,0.2344,-0.0801,24.99,-2.24,65.2663,-8.381482791852635,-18.349536290102954,-17.422620500057587,6.597999999998137
-0.3095,0.983,-0.1477,0.2206,0.2344,-0.0801,25.9,-2.8525,66.8587,-8.538976667918934,-17.30888522121392,-17.42547300004779,6.598999999994703
-0.2893,0.9841,-0.1483,0.2206,0.2344,-0.0801,27.055,-3.4738,68.1188,-8.568675206965997,-16.22360598893823,-17.42547300004779,6.598999999994703
-0.2677,0.991,-0.1623,0.2118,0.2267,-0.0874,28.0963,-3.5087,70.28,-9.275971011409558,-14.943809839046297,-17.478103500071278,6.614000000001397
-0.2677,1.005,-0.1678,0.2118,0.2267,-0.0874,28.0963,-3.5087,70.28,-9.472028167228707,-14.723628304209777,-17.534242700082714,6.630000000004657
-0.2519,1.005,-0.1678,0.2015,0.2217,-0.0839,27.7463,-3.745,71.785,-9.478722631341366,-13.89726227201805,-17.534242700082714,6.630000000004657
-0.2255,1.0017,-0.174,0.2015,0.2217,-0.0839,26.5737,-4.0862,72.6425,-9.840689108914821,-12.523272925843536,-17.595535700050604,6.644999999996799
-0.2009,1.0033,-0.1784,0.2015,0.2217,-0.0839,25.3838,-3.885,72.1263,-10.073459919784524,-11.170243711558618,-17.595535700050604,6.644999999996799
-0.1844,1.0097,-0.1832,0.1929,0.2144,-0.0924,25.3838,-3.885,72.1263,-10.275950276560126,-10.199640622150056,-17.657695700063268,6.661000000000058
-0.1699,1.0071,-0.1835,0.1929,0.2144,-0.0924,24.5,-3.1937,69.9737,-10.324409193983096,-9.433704124429209,-17.657695700063268,6.661000000000058
-0.1699,1.0071,-0.1835,0.1838,0.2113,-0.0913,23.1875,-1.6538,69.0025,-10.326292278426026,-9.423599755038031,-17.684156500056627,6.676999999996042
-0.1596,0.9986,-0.1875,0.1838,0.2113,-0.0913,22.4963,-0.0263,68.2937,-10.621197920022636,-8.933711181841975,-17.684156500056627,6.676999999996042
-0.1507,0.9852,-0.188,0.1838,0.2113,-0.0913,22.4963,-0.0263,68.2937,-10.795835765837223,-8.550170382214429,-17.684551000056803,6.692000000002736
-0.1431,0.9888,-0.2045,0.1746,0.2052,-0.0926,22.8638,0.9187,68.9325,-11.64797903603692,-8.07280893339405,-17.684551000056803,6.692000000002736
-0.1432,0.9973,-0.2167,0.1746,0.2052,-0.0926,22.3563,0.2713,69.0725,-12.233083751618539,-7.988371615831844,-17.680210200057893,6.707999999998719
-0.1276,0.9954,-0.2023,0.1655,0.2002,-0.099,22.3563,-0.7613,67.4275,-11.519695839718121,-7.171387359415271,-17.680210200057893,6.707999999998719
-0.1268,0.9954,-0.2023,0.1655,0.2002,-0.099,21.3062,-0.7613,67.4275,-11.489445497442563,-7.116410359913859,-17.69162970005745,6.722999999998137
-0.1071,0.9807,-0.2002,0.1559,0.1934,-0.1006,22.0675,-0.14,66.9287,-11.535744307210193,-6.121333926386684,-17.69162970005745,6.722999999998137
-0.0931,0.9785,-0.2006,0.1559,0.1934,-0.1006,23.3013,1.855,68.1188,-11.583513132639679,-5.335761161467175,-17.661949700051405,6.739000000001397
-0.0981,0.9753,-0.2322,0.1559,0.1934,-0.1006,23.3013,1.855,68.1188,-13.317836306639109,-5.585152581399949,-17.661949700051405,6.739000000001397
-0.0708,0.9828,-0.2172,0.1447,0.1887,-0.0998,22.75,1.2425,71.26,-12.497886938189446,-4.043917093175909,-17.642069700056396,6.754999999997381
-0.0708,0.9828,-0.2172,0.1447,0.1887,-0.0998,23.5462,1.5313,72.0825,-12.463570911376394,-4.023917917577226,-17.642069700056396,6.754999999997381
-0.0614,0.9923,-0.2352,0.1339,0.1835,-0.1014,23.4063,1.0675,71.1113,-13.29903333534079,-3.453039797096338,-17.62605720005702,6.769999999996799
-0.0458,0.9904,-0.233,0.1339,0.1835,-0.1014,23.4063,1.0675,71.1113,-13.24104405329443,-2.588812146827521,-17.62605720005702,6.769999999996799
-0.0259,0.98,-0.2255,0.1339,0.1835,-0.1014,24.3162,1.7062,70.7262,-12.969407170721288,-1.489903851370067,-17.598758000051458,6.786000000000058
-0.0163,0.9781,-0.2352,0.1237,0.1818,-0.1101,24.5875,2.7125,71.82,-13.499579639747765,-0.9355210064438607,-17.598758000051458,6.786000000000058
-0.0007,0.9782,-0.2364,0.1237,0.1818,-0.1101,25.4013,4.55,73.2725,-13.582828841090713,-0.05117850163135347,-17.530508000054105,6.800999999999476
-0.0066,0.9782,-0.2364,0.1112,0.1772,-0.1108,25.4013,4.55,73.2725,-13.585960991778174,-0.37165294686210043,-17.530508000054105,6.800999999999476
0.0051,0.9776,-0.2455,0.1112,0.1772,-0.1108,24.3862,5.4425,75.2237,-14.076917561931891,0.2817366552959369,-17.432543000034148,6.819000000003143
0.0183,0.9719,-0.2608,0.1112,0.1772,-0.1108,24.08,5.6525,76.8163,-14.9835345798977,1.0326520569193565,-17.387323000024935,6.827000000004773
0.0332,0.9715,-0.2538,0.1004,0.1718,-0.1188,24.0275,5.81,77.35,-14.654627336525623,1.88339937870744,-17.34084300005774,6.834999999999127
0.0517,0.966,-0.2611,0.1004,0.1718,-0.1188,24.0275,5.81,77.35,-15.106389152284546,2.944678991185155,-17.29436300009054,6.842999999993481
0.0517,0.966,-0.2611,0.086,0.1683,-0.1209,24.4475,5.95,77.28,-15.124324699203392,2.957439893913607,-17.240813000057987,6.851999999998952
0.0615,0.964,-0.2552,0.086,0.1683,-0.1209,24.675,6.5363,76.9912,-14.839257187358841,3.522184360811759,-17.195058900072443,6.85899999999674
0.072,0.96,-0.2663,0.086,0.1683,-0.1209,24.745,7.4113,78.2425,-15.478157448624343,4.126359907260134,-17.135768500060365,6.86699999999837
0.0832,0.9559,-0.2758,0.0744,0.1629,-0.125,24.745,7.4113,78.2425,-16.07035370223045,4.77257945051879,-17.076478100048288,6.875
0.1008,0.9528,-0.2787,0.0744,0.1629,-0.125,23.2225,7.0613,79.5375,-16.294933016798932,5.785859291869991,-17.01998770008816,6.882999999994354
0.1321,0.9501,-0.2808,0.0622,0.161,-0.1238,20.9737,5.915,78.6275,-16.457256380017398,7.573400475693115,-16.972667700078517,6.890999999995984
0.126,0.9501,-0.2808,0.0622,0.161,-0.1238,20.9737,5.915,76.5275,-16.464584309876695,7.251886261261064,-16.925347700068876,6.8989999999976135
0.1444,0.949,-0.2859,0.0503,0.1598,-0.1211,19.4425,5.5738,76.5275,-16.751086399753326,8.276629448276493,-16.88075730005979,6.906999999999243
