AcclX,AcclY,AcclZ,MagX,MagY,MagZ,GyroX,GyroY,GyroZ,Roll,Pitch,Yaw,Time Elapsed(s)
0.2122,0.9403,-0.2858,0.0397,0.1346,-0.0888,-0.6037,-1.9688,-5.8888,0,0,0,0.006000000001222361
0.2123,0.9405,-0.2826,0.0397,0.1346,-0.0888,-0.6037,-1.9688,-5.8888,0,0,0,0.010999999998603016
0.2111,0.939,-0.288,0.0392,0.1356,-0.0896,-0.6913,-1.715,-5.9675,0,0,0,0.01900000000023283
0.2111,0.939,-0.288,0.0392,0.1356,-0.0896,-0.6388,-1.9425,-5.8275,0,0,0,0.027000000001862645
0.2114,0.9412,-0.2865,0.0399,0.1357,-0.089,-0.6388,-1.9425,-5.6525,0,0,0,0.03500000000349246
0.2098,0.9415,-0.2863,0.0399,0.1357,-0.089,-0.2887,-1.6975,-5.6525,0,0,0,0.043000000005122274
0.2094,0.9394,-0.2861,0.0399,0.1357,-0.089,-0.0088,-1.7938,-5.9938,0,0,0,0.05099999999947613
0.2095,0.9399,-0.2891,0.0394,0.1354,-0.1017,0.1925,-1.5488,-5.67,0,0,0,0.059000000001105946
0.2095,0.9399,-0.2891,0.0394,0.1354,-0.1017,0.1925,-1.5488,-5.67,0,0,0,0.06700000000273576
0.2092,0.9415,-0.2893,0.04,0.1358,-0.0864,-0.28,-1.785,-5.1975,0,0,0,0.07600000000093132
0.21,0.9414,-0.2849,0.04,0.1358,-0.0864,0.2275,-1.9775,-5.3987,0,0,0,0.08400000000256114
0.2109,0.9416,-0.2838,0.04,0.1358,-0.0864,-0.035,-1.8112,-5.3637,0,0,0,0.09200000000419095
0.2081,0.9421,-0.2868,0.041,0.134,-0.0855,-0.035,-1.8112,-5.3637,0,0,0,0.10100000000238651
0.2075,0.9416,-0.2885,0.041,0.134,-0.0855,-0.0175,-1.8025,-5.1887,0,0,0,0.10699999999633292
0.2075,0.9416,-0.2885,0.0406,0.1358,-0.0874,-0.2713,-1.8813,-5.4425,0,0,0,0.11600000000180444
0.2079,0.9435,-0.2859,0.0406,0.1358,-0.0874,-0.245,-2.3363,-5.1363,0,0,0,0.12299999999959255
0.2103,0.9424,-0.2843,0.0406,0.1358,-0.0874,-0.245,-2.3363,-5.1363,0,0,0,0.13200000000506407
0.21,0.9434,-0.288,0.0407,0.1358,-0.09,-0.56,-2.1088,-5.1275,0,0,0,0.13900000000285218
0.2095,0.9429,-0.2843,0.0407,0.1358,-0.09,-0.8925,-1.855,-5.2937,0,0,0,0.14800000000104774
0.2095,0.9429,-0.2843,0.0409,0.1357,-0.0916,-0.665,-2.1525,-5.6087,0,0,0,0.15499999999883585
0.2095,0.9405,-0.2863,0.0409,0.1357,-0.0916,-0.665,-2.1525,-5.6087,0,0,0,0.16300000000046566
0.2106,0.9402,-0.2901,0.0409,0.1357,-0.0898,-0.455,-2.0213,-5.2762,0,0,0,0.17100000000209548
0.2118,0.9392,-0.2855,0.0414,0.1346,-0.0898,-0.1312,-1.9688,-5.2238,0,0,0,0.1790000000037253
0.2098,0.9397,-0.2849,0.0414,0.1346,-0.0898,-0.1312,-2.0912,-5.215,0,0,0,0.18699999999807915
0.2099,0.9388,-0.2844,0.0429,0.1362,-0.0866,-0.3938,-2.0912,-5.215,0,0,0,0.19499999999970896
0.2099,0.9388,-0.2844,0.0429,0.1362,-0.0866,-0.3413,-1.8375,-5.425,0,0,0,0.20300000000133878
0.2102,0.9399,-0.2873,0.0433,0.1343,-0.0917,-0.4025,-1.5925,-5.46,0,0,0,0.2110000000029686
0.2078,0.9433,-0.2831,0.0433,0.1343,-0.0917,-0.4025,-1.5925,-5.46,0,0,0,0.22000000000116415
0.209,0.9484,-0.283,0.0433,0.1343,-0.0917,-0.315,-1.3737,-5.7925,0,0,0,0.22699999999895226
0.2062,0.9499,-0.2827,0.0415,0.1354,-0.0882,-0.6388,-1.82,-5.3637,0,0,0,0.23500000000058208
0.2062,0.9499,-0.2827,0.0415,0.1354,-0.0882,-0.5512,-1.8375,-6.1775,0,0,0,0.2430000000022119
0.204,0.9479,-0.285,0.0406,0.1341,-0.0883,-0.5512,-1.8375,-6.1775,0,0,0,0.2510000000038417
0.1998,0.942,-0.2826,0.0406,0.1341,-0.0883,-0.7262,-1.7675,-6.1687,0,0,0,0.26000000000203727
0.1971,0.9404,-0.2824,0.0406,0.1341,-0.0883,-0.4988,-1.68,-6.1337,0,0,0,0.2680000000036671
0.1957,0.9401,-0.2838,0.0421,0.134,-0.0876,0.07,-1.365,-5.95,0,0,0,0.2750000000014552
0.1957,0.942,-0.2867,0.0421,0.134,-0.0876,0.07,-1.365,-5.95,0,0,0,0.283000000003085
0.1951,0.942,-0.2867,0.0411,0.1363,-0.0882,0.6037,-1.2862,-5.6175,0,0,0,0.29099999999743886
0.1992,0.9439,-0.2841,0.0411,0.1363,-0.0882,0.6475,-1.4088,-4.8475,0,0,0,0.2989999999990687
0.2001,0.9428,-0.2841,0.0411,0.1363,-0.0882,0.84,-1.2513,-4.9175,0,0,0,0.3070000000006985
0.1991,0.9373,-0.2836,0.0426,0.135,-0.0892,0.84,-1.2513,-4.9175,0,0,0,0.3139999999984866
0.2056,0.9323,-0.2901,0.0426,0.135,-0.0892,1.4,-1.2337,-4.8562,0,0,0,0.3220000000001164
0.2056,0.9323,-0.2901,0.0422,0.1355,-0.0942,1.8025,-0.9275,-4.3663,0,0,0,0.33000000000174623
0.2117,0.9245,-0.2893,0.0422,0.1355,-0.0942,2.0125,-0.455,-3.5438,0,0,0,0.33800000000337604
0.2205,0.9189,-0.2952,0.0422,0.1355,-0.0942,2.0125,-0.455,-3.5438,0,0,0,0.3480000000054133
0.2308,0.9193,-0.2959,0.041,0.1359,-0.0941,2.8788,0.0787,-2.7213,0,0,0,0.3539999999993597
0.2406,0.92,-0.2973,0.041,0.1359,-0.0941,3.22,0.315,-1.96,0,0,0,0.3629999999975553
0.2406,0.9138,-0.2955,0.0412,0.1351,-0.094,3.22,0.315,-1.05,0,0,0,0.37000000000261934
0.2491,0.9138,-0.2955,0.0412,0.1351,-0.094,3.8063,1.7938,-1.05,0,0,0,0.37800000000424916
0.2485,0.9146,-0.3014,0.0414,0.1342,-0.0953,4.4012,2.94,-0.6125,0,0,0,0.3870000000024447
0.2477,0.9206,-0.3043,0.0414,0.1342,-0.0953,4.1388,4.0425,-0.2187,0,0,0,0.39500000000407454
0.2449,0.9262,-0.306,0.0414,0.1342,-0.0953,4.1388,4.0425,-0.2187,0,0,0,0.40200000000186265
0.2432,0.9329,-0.3043,0.0387,0.135,-0.0898,4.165,3.9813,-0.5425,0,0,0,0.41000000000349246
0.2432,0.9329,-0.3043,0.0387,0.135,-0.0898,3.2375,3.6137,-0.805,0,0,0,0.4160000000047148
0.2433,0.9408,-0.3015,0.039,0.1361,-0.0883,2.2225,3.1412,-2.2138,0,0,0,0.4160000000047148
0.2392,0.9437,-0.2947,0.039,0.1361,-0.0883,2.2225,3.1412,-2.2138,0,0,0,0.4309999999968568
0.2341,0.945,-0.2927,0.039,0.1361,-0.0883,0.7875,2.7213,-4.2088,0,0,0,0.4309999999968568
0.2269,0.943,-0.2918,0.0359,0.1354,-0.0867,0.4025,2.4325,-5.6525,0,0,0,0.4480000000039581
0.2269,0.944,-0.2925,0.0359,0.1354,-0.0867,-0.7262,1.2687,-7.4113,0,0,0,0.4480000000039581
0.2198,0.944,-0.2925,0.0379,0.136,-0.0928,-0.7262,1.2687,-7.4113,0,0,0,0.46400000000721775
0.2177,0.9479,-0.2882,0.0379,0.136,-0.0928,-2.2487,-0.7088,-9.17,0,0,0,0.46400000000721775
0.2209,0.9559,-0.2865,0.0379,0.136,-0.0928,-3.99,-1.8725,-10.9288,0,0,0,0.4789999999993597
0.2194,0.9554,-0.286,0.0393,0.1358,-0.0906,-4.7337,-2.1175,-12.775,0,0,0,0.4789999999993597
0.2126,0.9525,-0.2828,0.0393,0.1358,-0.0906,-4.7337,-2.1175,-12.775,0,0,0,0.49500000000261934
0.2126,0.9525,-0.2828,0.0403,0.1356,-0.0818,-5.425,-3.0712,-14.28,0,0,0,0.49500000000261934
0.2101,0.9509,-0.2758,0.0403,0.1356,-0.0818,-6.0025,-3.4825,-15.1462,0,0,0,0.5100000000020373
0.2077,0.9504,-0.2775,0.0403,0.1356,-0.0818,-6.2387,-3.4125,-15.6012,0,0,0,0.5100000000020373
0.2028,0.9516,-0.2707,0.0432,0.1366,-0.0846,-6.2387,-3.4125,-15.6012,0,0,0,0.5259999999980209
0.2017,0.9462,-0.2727,0.0432,0.1366,-0.0846,-6.37,-3.6312,-15.8025,0,0,0,0.5259999999980209
0.2017,0.9426,-0.2758,0.0435,0.1355,-0.0887,-6.1075,-3.7625,-15.7587,0,0,0,0.5420000000012806
0.1965,0.9426,-0.2758,0.0435,0.1355,-0.0887,-6.1075,-3.7625,-15.47,0,0,0,0.5420000000012806
0.195,0.9446,-0.2691,0.0478,0.139,-0.0889,-4.9612,-3.8675,-15.47,0,0,0,0.5570000000006985
0.1951,0.9454,-0.2714,0.0478,0.139,-0.0889,-3.7538,-2.975,-14.7875,0,0,0,0.5570000000006985
0.1958,0.9404,-0.2713,0.0478,0.139,-0.0889,-2.5025,-2.5812,-13.5712,0,0,0,0.5730000000039581
0.1892,0.9379,-0.2731,0.048,0.1363,-0.0957,-2.5025,-2.5812,-13.5712,0,0,0,0.5730000000039581
0.1892,0.9379,-0.2731,0.048,0.1363,-0.0957,-1.1812,-1.5488,-12.1975,0,0,0,0.5879999999961001
0.1847,0.9353,-0.2746,0.0481,0.1358,-0.0849,0.77,-0.4288,-11.1475,0,0,0,0.5879999999961001
0.1856,0.9356,-0.2779,0.0481,0.1358,-0.0849,1.96,1.015,-8.9862,0,0,0,0.6039999999993597
0.1881,0.9359,-0.2847,0.0481,0.1358,-0.0849,1.96,1.015,-8.9862,0,0,0,0.6039999999993597
0.1948,0.9414,-0.2857,0.049,0.139,-0.0886,3.2025,1.26,-7.3325,0,0,0,0.6200000000026193
0.1948,0.9428,-0.2892,0.049,0.139,-0.0886,4.445,2.3012,-5.7225,0,0,0,0.6200000000026193
0.1995,0.9428,-0.2892,0.0486,0.1387,-0.0894,5.4163,3.0975,-5.0575,0,0,0,0.6350000000020373
0.2008,0.9389,-0.2924,0.0486,0.1387,-0.0894,5.4163,3.0975,-5.0575,0,0,0,0.6510000000052969
0.203,0.9371,-0.2984,0.0486,0.1387,-0.0894,5.4425,4.0687,-3.9987,0,0,0,0.6510000000052969
0.2063,0.9347,-0.2979,0.0477,0.1382,-0.0941,6.02,5.3637,-2.8,0,0,0,0.6659999999974389
0.2088,0.9359,-0.2995,0.0477,0.1382,-0.0941,6.1075,5.8888,-1.855,0,0,0,0.6659999999974389
0.2088,0.9359,-0.2995,0.046,0.1385,-0.0962,6.1075,5.8888,-1.855,0,0,0,0.6820000000006985
0.2094,0.9378,-0.3096,0.046,0.1385,-0.0962,6.0113,6.5887,-1.225,0,0,0,0.6820000000006985
0.2155,0.9398,-0.3102,0.046,0.1385,-0.0962,5.53,6.685,-0.91,0,0,0,0.6979999999966822
0.2182,0.9364,-0.3099,0.0453,0.1394,-0.1024,5.53,6.7987,-1.4525,0,0,0,0.6979999999966822
0.2236,0.9357,-0.3113,0.0453,0.1394,-0.1024,5.11,6.7987,-1.4525,0,0,0,0.713000000003376
0.2236,0.9355,-0.3165,0.0446,0.1389,-0.0985,5.0925,6.86,-1.6363,0,0,0,0.713000000003376
0.2237,0.9355,-0.3165,0.0446,0.1389,-0.0985,4.5325,7.2362,-2.1263,0,0,0,0.7290000000066357
0.2252,0.9346,-0.3155,0.0441,0.1398,-0.0927,4.5325,7.2362,-4.3663,0,0,0,0.7290000000066357
0.2301,0.9358,-0.3185,0.0441,0.1398,-0.0927,4.2962,7.1487,-2.8875,0,0,0,0.7439999999987776
0.2309,0.9409,-0.3156,0.0441,0.1398,-0.0927,3.4037,7.4725,-3.1762,0,0,0,0.7439999999987776
0.2289,0.9415,-0.3138,0.043,0.1402,-0.1026,3.605,7.455,-3.885,0,0,0,0.7600000000020373
0.2289,0.9415,-0.3138,0.043,0.1402,-0.1026,3.605,7.455,-3.885,0,0,0,0.7600000000020373
0.2289,0.9418,-0.3079,0.044,0.1405,-0.097,2.9925,7.5425,-5.1975,0,0,0,0.7759999999980209
0.225,0.9407,-0.3015,0.044,0.1405,-0.097,2.4762,8.05,-6.125,0,0,0,0.7759999999980209
0.2208,0.9364,-0.3034,0.044,0.1405,-0.097,2.1875,8.6713,-6.9037,0,0,0,0.794000000001688
0.2158,0.9369,-0.2947,0.0422,0.1396,-0.1027,2.1875,8.6713,-6.9037,-10.468952635038878,6.749075615570495,0.0,0.8020000000033178
0.2158,0.9356,-0.291,0.0422,0.1396,-0.1027,1.4787,8.8112,-8.575,-13.470544351169004,10.954285767396694,0.07930079998410074,0.8110000000015134
0.2156,0.9356,-0.291,0.0411,0.1386,-0.0994,1.365,9.2225,-9.3975,-15.004323659954844,12.099399060298703,0.14385830003080408,0.8180000000065775
0.2109,0.9307,-0.2928,0.0411,0.1386,-0.0994,1.2075,9.485,-10.4038,-15.842796216213074,12.180137660960009,0.21973829990823796,0.8259999999936554
0.1979,0.9288,-0.2949,0.0411,0.1386,-0.0994,1.2075,9.485,-10.4038,-16.446990897351952,11.602519586968203,0.29561829992369676,0.8339999999952852
0.1948,0.9272,-0.2905,0.0423,0.1407,-0.0972,1.4262,9.1,-11.13,-16.84943485467459,11.378055112176517,0.36841829993852804,0.841999999996915
0.1873,0.9265,-0.294,0.0423,0.1407,-0.0972,1.4787,8.6363,-11.8825,-17.182736977842353,10.972349300415589,0.4375086999526036,0.8499999999985448
0.1873,0.9265,-0.294,0.0446,0.1405,-0.1038,1.54,8.015,-12.0925,-17.37692824993975,10.915542877399838,0.5096436999964579,0.8590000000040163
0.1835,0.9271,-0.2908,0.0446,0.1405,-0.1038,1.54,8.015,-12.0925,-17.394364079078876,10.724620436631177,0.5657486999787296,0.8660000000018044
0.1789,0.9305,-0.2938,0.0446,0.1405,-0.1038,1.6975,7.0087,-12.3287,-17.45902157058288,10.433251249970073,0.6218182999391575,0.8739999999961583
0.1774,0.9346,-0.2926,0.0437,0.1408,-0.0902,1.8112,5.88,-12.6525,-17.419391861993102,10.288310299135661,0.6629782999689342,0.8810000000012224
0.1739,0.9417,-0.2929,0.0437,0.1408,-0.0902,1.8112,5.88,-13.335,-17.3443618430419,10.033738888147326,0.7100182999785175,0.8890000000028522
0.1739,0.9417,-0.2917,0.0436,0.1421,-0.101,1.855,4.725,-13.335,-17.2725159981946,10.007357035910669,0.7478182999862184,0.897000000004482
0.1723,0.9462,-0.2917,0.0436,0.1421,-0.101,1.015,3.3775,-14.245,-17.238504117878005,9.885736875603582,0.7748382999917232,0.9050000000061118
0.1657,0.9507,-0.29,0.0461,0.1434,-0.1006,0.5775,2.7387,-13.5275,-17.21067129144334,9.512426994775058,0.79674789997626,0.9130000000004657
0.1656,0.9529,-0.2905,0.0461,0.1434,-0.1006,0.5775,2.7387,-13.5275,-17.184704325830545,9.446525702664644,0.8186574999807237,0.9210000000020955
0.1599,0.9554,-0.2887,0.0461,0.1434,-0.1006,-0.0613,1.6187,-13.58,-17.025483663691336,9.140826965687832,0.8316070999833619,0.9290000000037253
0.1559,0.956,-0.2923,0.047,0.143,-0.1038,-0.735,1.0762,-13.0725,-17.011199328750138,8.896924944095366,0.840216699985116,0.9370000000053551
0.1559,0.956,-0.2923,0.047,0.143,-0.1038,-0.8487,0.595,-13.3787,-17.00512430405676,8.867626961887579,0.8449766999860857,0.9450000000069849
0.1537,0.9592,-0.2906,0.0487,0.1418,-0.1041,-0.8487,0.595,-13.3787,-16.913978878831912,8.735816225208392,0.8497366999783971,0.9529999999940628
0.1559,0.9543,-0.2888,0.0487,0.1418,-0.1041,-1.1375,-0.1663,-12.5913,-16.864481800879606,8.8677768317718,0.848406299978126,0.9609999999956926
0.1597,0.956,-0.2963,0.0487,0.1418,-0.1041,-1.33,-0.8662,-11.9438,-17.10239070459617,9.038442264543416,0.8414766999767143,0.9689999999973224
0.1644,0.9576,-0.294,0.0501,0.1432,-0.101,-1.5925,-1.9688,-10.9637,-17.078062457859883,9.275169342077486,0.8237574999659419,0.978000000002794
0.1644,0.9576,-0.2885,0.0501,0.1432,-0.101,-1.5925,-1.9688,-10.9637,-16.86119431532779,9.325319425035039,0.8099758999702967,0.9850000000005821
0.1701,0.9606,-0.2885,0.0497,0.145,-0.1019,-0.8925,-1.7062,-9.5725,-16.772679571596232,9.563711962499834,0.7963262999799302,0.9929999999949359
0.1713,0.9603,-0.2956,0.0497,0.145,-0.1019,-1.19,-1.6187,-8.4613,-16.992515625658672,9.645486858631115,0.7817579999710734,1.0020000000004075
0.1722,0.9623,-0.2975,0.0497,0.145,-0.1019,-1.5313,-1.7938,-7.2187,-17.121294194952636,9.679278875134553,0.7692013999750411,1.0089999999981956
0.1732,0.9625,-0.2946,0.0508,0.143,-0.1074,-1.5313,-1.7938,-7.2187,-17.05019702569887,9.729773179480402,0.7548509999721176,1.0169999999998254
0.1779,0.9603,-0.2933,0.0508,0.143,-0.1074,-1.1988,-1.7763,-6.51,-17.00691463887383,9.871038016358106,0.7406405999692225,1.0250000000014552
0.1779,0.9603,-0.2933,0.0508,0.1439,-0.1006,-1.2337,-1.6625,-5.9237,-16.991838210803547,9.902313745730899,0.7256780999722223,1.0339999999996508
0.1782,0.9573,-0.2971,0.0508,0.1439,-0.1006,-1.6275,-1.4525,-5.74,-17.16648330534796,9.907900466904088,0.7155105999754351,1.0409999999974389
0.1781,0.9609,-0.2969,0.0508,0.1439,-0.1006,-1.6275,-1.4525,-5.74,-17.16905446784544,9.91210157365918,0.7038905999730678,1.0489999999990687
0.1829,0.9592,-0.2923,0.0504,0.1418,-0.111,-1.96,-1.3913,-4.9,-17.00835230038075,10.10197071447683,0.6927601999708002,1.0570000000006985
0.1873,0.9598,-0.2908,0.0504,0.1418,-0.111,-2.4762,-1.2425,-4.7688,-16.89237520069818,10.332846707991804,0.6815776999730422,1.065999999998894
0.1873,0.9598,-0.2887,0.0503,0.1435,-0.1008,-2.4762,-1.2425,-4.7688,-16.77722421144303,10.454953781818562,0.6716376999710172,1.0740000000005239
0.1911,0.9606,-0.2887,0.0503,0.1435,-0.1008,-2.0825,-0.2537,-4.7688,-16.740823215360717,10.615604758285983,0.6698617999715784,1.080999999998312
0.1884,0.9565,-0.2876,0.0494,0.1443,-0.0966,-3.0625,0.3588,-4.3488,-16.736192572300514,10.653831557127138,0.6727321999721632,1.0889999999999418
0.1847,0.952,-0.2859,0.0494,0.1443,-0.0966,-3.3512,0.3063,-4.27,-16.719850931739543,10.578628381640389,0.6751825999726624,1.0970000000015716
0.1811,0.9471,-0.2812,0.0494,0.1443,-0.0966,-3.3512,0.3063,-4.27,-16.57285967670164,10.465824204340082,0.6776329999731616,1.1050000000032014
0.1818,0.9452,-0.2834,0.0483,0.1436,-0.0975,-3.8325,0.84,-3.99,-16.66907252261011,10.448838091152075,0.6843529999745307,1.1130000000048312
0.1818,0.9452,-0.2834,0.0483,0.1436,-0.0975,-4.13,1.0063,-3.9025,-16.68669074253765,10.442474435239118,0.6924033999761707,1.121000000006461
0.1815,0.9514,-0.2782,0.051,0.1426,-0.1006,-3.4388,0.7088,-3.6488,-16.37499858956076,10.397826903480626,0.6980737999721688,1.129000000000815
0.1829,0.9475,-0.2753,0.051,0.1426,-0.1006,-3.4388,0.7088,-3.6488,-16.235277740457843,10.46768773178646,0.703744199973324,1.1370000000024447
0.1886,0.9443,-0.2728,0.051,0.1426,-0.1006,-3.0625,0.5075,-3.2462,-16.13915652830543,10.747940462073762,0.7078041999741512,1.1450000000040745
0.1926,0.9484,-0.2741,0.0488,0.1411,-0.094,-2.94,0.385,-3.4125,-16.124125735451845,10.950959830296139,0.7097291999731428,1.1500000000014552
0.1926,0.9484,-0.2745,0.0488,0.1411,-0.094,-3.5612,0.42,-3.2287,-16.13882709865578,11.013124759430282,0.7097291999731428,1.1500000000014552
0.1928,0.9513,-0.2745,0.049,0.1425,-0.1,-3.5612,0.42,-3.2287,-16.103854171050983,11.017348801767199,0.716449199971456,1.1659999999974389
0.1949,0.9482,-0.2702,0.049,0.1425,-0.1,-2.9313,0.3413,-3.255,-15.948407370255559,11.134277733046602,0.716449199971456,1.1659999999974389
0.1973,0.9475,-0.2702,0.049,0.1425,-0.1,-3.0363,0.4288,-2.7738,-15.923360937704548,11.275508205563268,0.7228811999743263,1.1810000000041327
0.199,0.9471,-0.2692,0.0484,0.1414,-0.0961,-2.45,0.0613,-3.0275,-15.880660838833395,11.385178754684297,0.7228811999743263,1.1810000000041327
0.199,0.9518,-0.2735,0.0484,0.1414,-0.0961,-2.45,0.0613,-3.0275,-15.995461459776326,11.368327036807447,0.7238619999740801,1.1970000000001164
0.199,0.9518,-0.2735,0.0474,0.1424,-0.0986,-2.4237,-0.3237,-3.08,-16.02313325509313,11.363772750338654,0.7238619999740801,1.1970000000001164
0.205,0.9564,-0.2677,0.0474,0.1424,-0.0986,-2.7738,-0.6212,-3.6312,-15.723604437829962,11.565569457888182,0.7139227999720552,1.213000000003376
0.2047,0.9561,-0.265,0.0474,0.1424,-0.0986,-3.1588,-0.4638,-3.8763,-15.539487717697849,11.625174372551703,0.7139227999720552,1.213000000003376
0.2018,0.9529,-0.265,0.0469,0.14,-0.102,-3.1588,-0.4638,-3.8763,-15.540819808581965,11.564826787592121,0.7069657999756997,1.227999999995518
0.1969,0.9516,-0.2669,0.0469,0.14,-0.102,-2.5725,-0.35,-4.0163,-15.637766203066418,11.377864787230616,0.7069657999756997,1.227999999995518
0.1969,0.9516,-0.2653,0.047,0.143,-0.0978,-2.3712,-1.0412,-4.8738,-15.592814020754771,11.329779585427056,0.6903065999723058,1.2439999999987776
0.1932,0.9471,-0.2653,0.047,0.143,-0.0978,-2.3712,-1.0412,-4.8738,-15.634811022081852,11.231262741483887,0.6903065999723058,1.2439999999987776
0.1916,0.9451,-0.2618,0.0461,0.1411,-0.103,-2.4938,-0.735,-5.81,-15.519392147131542,11.214884877117433,0.6792815999673858,1.2590000000054715
0.1907,0.9426,-0.2635,0.0461,0.1411,-0.103,-2.3012,-1.0588,-5.32,-15.59338419141122,11.161982771570209,0.6792815999673858,1.2590000000054715
0.1872,0.9414,-0.2679,0.0461,0.1411,-0.103,-1.645,-1.365,-5.6262,-15.797627125965006,11.136780049136576,0.6574415999728681,1.2750000000014552
0.1896,0.9407,-0.2658,0.0473,0.1412,-0.1013,-1.645,-1.365,-5.6262,-15.783838012111987,11.12471463066154,0.6574415999728681,1.2750000000014552
0.1896,0.9407,-0.2658,0.0473,0.1412,-0.1013,-1.1375,-2.1088,-5.81,-15.780021353233387,11.110978070665478,0.6215919999732363,1.2920000000012806
0.1889,0.9431,-0.2657,0.0474,0.1406,-0.1046,-0.4462,-2.5725,-5.4338,-15.755618743350635,11.068253905847312,0.6215919999732363,1.2920000000012806
0.1894,0.9452,-0.2703,0.0474,0.1406,-0.1046,0.0787,-2.4325,-5.39,-15.832796243006285,11.028862582755478,0.5851044999746522,1.3070000000006985
0.1926,0.9451,-0.2723,0.0474,0.1406,-0.1046,0.0787,-2.4325,-5.39,-15.923802308701562,11.041092108188515,0.5851044999746522,1.3070000000006985
0.1925,0.946,-0.2736,0.0481,0.1407,-0.0934,0.805,-2.4237,-5.4338,-15.94511854597262,11.045272913976138,0.5463252999843866,1.3229999999966822
0.1925,0.946,-0.2741,0.0481,0.1407,-0.0934,0.42,-2.59,-5.145,-15.990563365768848,11.050220720515952,0.5463252999843866,1.3229999999966822
0.1956,0.9465,-0.2741,0.0479,0.142,-0.0978,0.8487,-1.96,-4.9,-16.012466216421583,11.129332104153393,0.5169252999712666,1.338000000003376
0.192,0.9468,-0.2811,0.0479,0.142,-0.0978,0.8487,-1.96,-4.9,-16.08407512630104,11.072063949559064,0.5169252999712666,1.338000000003376
0.1922,0.9461,-0.2799,0.0479,0.142,-0.0978,1.3038,-1.645,-4.3663,-16.234877528217766,11.044162183659838,0.49060529997787344,1.3539999999993597
0.1932,0.9488,-0.2811,0.0464,0.141,-0.0905,1.82,-1.5662,-4.8125,-16.377067475840125,11.045648136819622,0.49060529997787344,1.3539999999993597
0.1925,0.9488,-0.2831,0.0464,0.141,-0.0905,1.4438,-1.4875,-4.76,-16.478839358281963,11.024448259300856,0.4668052999730247,1.3700000000026193
0.1925,0.9488,-0.2831,0.047,0.1413,-0.1007,1.4438,-1.4875,-4.76,-16.536875496866895,11.01356373932443,0.4444927999847135,1.3849999999947613
0.1873,0.9493,-0.288,0.047,0.1413,-0.1007,1.1988,-1.4963,-4.6112,-16.651482706396898,10.845330982212156,0.4444927999847135,1.3849999999947613
0.1879,0.9511,-0.288,0.047,0.1413,-0.1007,1.645,-1.5838,-4.7512,-16.746831327398187,10.77780114211599,0.41915199997955094,1.400999999998021
0.1893,0.9513,-0.2844,0.048,0.1397,-0.1045,1.645,-1.5838,-4.6463,-16.69686120696924,10.78618507099279,0.41915199997955094,1.400999999998021
0.1903,0.9485,-0.2862,0.048,0.1397,-0.1045,1.2163,-1.54,-4.6463,-16.729190443121603,10.830827870695819,0.39605199996924234,1.4160000000047148
0.1903,0.9485,-0.2862,0.0481,0.1386,-0.0975,1.4438,-1.925,-5.0838,-16.755598714794065,10.846987381852953,0.39605199996924234,1.4160000000047148
0.1929,0.948,-0.2913,0.0481,0.1386,-0.0975,1.0412,-1.855,-4.8562,-16.840156828703982,10.920536307845934,0.3663719999766926,1.4320000000006985
0.194,0.9472,-0.2879,0.0481,0.141,-0.1025,1.0412,-1.855,-4.8562,-16.857411186562967,10.997234711096015,0.3663719999766926,1.4320000000006985
0.1921,0.9451,-0.2874,0.0487,0.141,-0.1025,0.4988,-2.0213,-4.4012,-16.866541664566025,11.001486973912854,0.33403119997010394,1.4480000000039581
0.1896,0.9435,-0.2871,0.0487,0.141,-0.1025,0.1925,-2.0213,-3.7887,-16.885839539264303,10.923168232167624,0.33403119997010394,1.4480000000039581
0.1901,0.9434,-0.2922,0.0486,0.141,-0.0974,0.5863,-2.3888,-3.9725,-16.916291013091044,10.905461966508126,0.2934215999705211,1.4650000000037835
0.1901,0.9434,-0.2922,0.0486,0.141,-0.0974,0.5863,-2.3888,-3.9725,-16.943876243547233,10.898988506652046,0.2934215999705211,1.4650000000037835
0.1901,0.9448,-0.2916,0.0477,0.141,-0.1062,1.0412,-1.9863,-4.1475,-16.99798632917962,10.889109765514778,0.2616407999784987,1.4809999999997672
0.1906,0.9487,-0.2918,0.0477,0.141,-0.1062,0.7962,-2.4588,-3.6488,-17.007455097716786,10.876308927974584,0.2616407999784987,1.4809999999997672
0.1948,0.9475,-0.2952,0.0477,0.141,-0.1062,0.7,-2.87,-3.8325,-17.010339090096622,11.025635657552519,0.21859079998016928,1.495999999999185
0.1948,0.947,-0.2969,0.0463,0.142,-0.1029,0.7,-2.87,-3.8325,-17.014187297017877,11.077358928721582,0.21859079998016928,1.495999999999185
0.1948,0.947,-0.2969,0.0463,0.142,-0.1029,0.9363,-2.9137,-4.7162,-17.09177727215622,11.091091463007695,0.17197159999187167,1.5119999999951688
0.1952,0.9469,-0.2887,0.0483,0.1398,-0.0998,0.28,-3.4562,-4.9437,-17.05225886944128,11.118670491712619,0.17197159999187167,1.5119999999951688
0.1947,0.9471,-0.2902,0.0483,0.1398,-0.0998,-0.0175,-2.905,-4.62,-17.045329357951438,11.119369572053836,0.12549159998240245,1.5279999999984284
0.1933,0.9465,-0.2926,0.0483,0.1398,-0.0998,-0.0175,-2.905,-4.62,-17.10048262505716,11.078322092750543,0.12549159998240245,1.5279999999984284
0.1963,0.9459,-0.2919,0.0468,0.1426,-0.0982,-0.6475,-3.1412,-5.1275,-17.12879719988401,11.128959286213794,0.07837359998423087,1.5429999999978463
0.1915,0.946,-0.2927,0.0468,0.1426,-0.0982,-0.5337,-3.6488,-5.425,-17.163848562297048,11.088436385793548,0.07837359998423087,1.5429999999978463
0.1915,0.946,-0.2927,0.0482,0.143,-0.0996,-0.9625,-2.6337,-4.9175,-17.181691385786895,11.025166197996136,0.03623439997564598,1.559000000001106
0.1936,0.9433,-0.2916,0.0482,0.143,-0.0996,-0.9625,-2.6337,-4.9175,-17.179278722132263,11.055511645031054,0.03623439997564598,1.559000000001106
0.1951,0.9421,-0.2902,0.0482,0.143,-0.0996,-1.26,-2.3888,-4.9,-17.140540278516244,11.117813799366543,0.0004023999770364495,1.5740000000005239
0.198,0.9396,-0.2923,0.0476,0.1428,-0.1002,-0.7175,-1.8988,-5.355,-17.22230366012366,11.185374430639662,0.0004023999770364495,1.5740000000005239
0.2015,0.9414,-0.2866,0.0476,0.1428,-0.1002,-0.7175,-1.8988,-5.1975,-17.05278129260477,11.316042340746797,-0.029978400015337345,1.5899999999965075
0.2015,0.9414,-0.2866,0.0471,0.1422,-0.0979,-0.5337,-1.9863,-5.1975,-16.98650673558445,11.402565404843973,-0.029978400015337345,1.5899999999965075
0.204,0.9412,-0.2874,0.0471,0.1422,-0.0979,-0.1663,-0.7088,-4.9875,-16.983645974626942,11.531822892777418,-0.04131920001764777,1.6059999999997672
0.2059,0.9392,-0.285,0.0471,0.1422,-0.103,-0.2275,-0.0613,-4.62,-16.934241751559625,11.696491116440264,-0.04131920001764777,1.6059999999997672
0.2012,0.9417,-0.2875,0.0473,0.1422,-0.103,-0.2275,-0.0613,-4.62,-16.95488249640087,11.619704158337822,-0.04223870001761209,1.620999999999185
0.2025,0.9449,-0.2863,0.0473,0.1422,-0.103,-0.3675,0.2975,-4.6638,-16.9043361829511,11.604862413790299,-0.04223870001761209,1.620999999999185
0.2011,0.9445,-0.2835,0.0466,0.1402,-0.1026,-0.2362,0.455,-5.1013,-16.809722193236578,11.57516635069298,-0.034958700016128955,1.6370000000024447
0.2011,0.9445,-0.2835,0.0466,0.1402,-0.1026,-0.735,0.9187,-5.2675,-16.74970394045368,11.560198252073167,-0.034958700016128955,1.6370000000024447
0.1975,0.9442,-0.2841,0.0462,0.1422,-0.0998,-0.735,0.9187,-5.2675,-16.747525359997468,11.488773321082807,-0.01934080001628938,1.65400000000227
0.1957,0.9458,-0.2871,0.0462,0.1422,-0.0998,-0.1925,0.9887,-6.1863,-16.812355628007854,11.395096781763408,-0.01934080001628938,1.65400000000227
0.1915,0.9475,-0.2862,0.0462,0.1422,-0.0998,-0.0525,0.7,-6.23,-16.81022829725994,11.242429558971958,-0.008140800019100811,1.6699999999982538
0.1925,0.9482,-0.2851,0.0477,0.1428,-0.1058,-0.1138,0.1663,-6.3525,-16.776574601277485,11.148211054843282,-0.008140800019100811,1.6699999999982538
0.1925,0.9482,-0.2851,0.0477,0.1428,-0.1058,-0.1138,0.1663,-6.3525,-16.757919610863127,11.090928090546496,-0.005480000018558735,1.6860000000015134
0.1941,0.9479,-0.2842,0.0489,0.1421,-0.1006,-0.4725,0.14,-6.65,-16.721306322013973,11.093992787126055,-0.005480000018558735,1.6860000000015134
0.1889,0.9487,-0.2863,0.0489,0.1421,-0.1006,-0.1138,-0.1925,-6.5363,-16.753185803574294,10.957350016004908,-0.008367500018446685,1.7010000000009313
0.1892,0.9509,-0.2859,0.0489,0.1421,-0.1006,-0.3938,-0.3237,-6.8075,-16.743239371969654,10.868656348998405,-0.008367500018446685,1.7010000000009313
0.1884,0.9514,-0.2852,0.0475,0.1429,-0.1038,-0.3938,-0.3237,-6.8075,-16.714032201096277,10.801546571115804,-0.013546700017146598,1.716999999996915
0.1887,0.9496,-0.2847,0.0475,0.1429,-0.1038,-0.4988,-0.4462,-6.2387,-16.70058742924229,10.79304108763243,-0.013546700017146598,1.716999999996915
0.1887,0.9496,-0.2847,0.047,0.1417,-0.1002,-0.77,-1.0938,-6.2475,-16.693876042116038,10.78742575215015,-0.029953700024468368,1.7320000000036089
0.1855,0.9483,-0.2862,0.047,0.1417,-0.1002,-0.77,-0.84,-5.74,-16.753292879422936,10.781779967042684,-0.029953700024468368,1.7320000000036089
0.1873,0.9463,-0.2835,0.047,0.1417,-0.1002,-0.56,-0.84,-5.74,-16.71122605510507,10.780348077777624,-0.043393700021094654,1.7479999999995925
0.1909,0.9446,-0.284,0.0469,0.143,-0.1036,-0.5425,-1.1025,-5.95,-16.72365609871553,10.814116543931346,-0.043393700021094654,1.7479999999995925
0.1916,0.9421,-0.2863,0.0469,0.143,-0.1036,-0.6037,-1.4088,-5.6087,-16.825264799270002,10.831897958725529,-0.06593450002568682,1.7640000000028522
0.1916,0.9421,-0.2863,0.0482,0.1411,-0.0905,-0.6037,-1.4088,-5.6087,-16.86955987711955,10.84807745752325,-0.06593450002568682,1.7640000000028522
0.1913,0.9454,-0.2863,0.0482,0.1411,-0.0905,-0.175,-0.9625,-5.425,-16.859622860001235,10.87282777788458,-0.08037200002512657,1.77900000000227
0.1913,0.9478,-0.2854,0.0482,0.1411,-0.0905,-0.6037,-0.735,-4.8387,-16.802308958175985,10.90329746113979,-0.08037200002512657,1.77900000000227
0.192,0.9471,-0.2891,0.0486,0.1415,-0.1002,-0.455,-0.8487,-4.9175,-16.894330322221165,10.934086172619306,-0.0939512000217179,1.7949999999982538
0.186,0.9496,-0.2921,0.0486,0.1415,-0.1002,-0.455,-0.8487,-4.9175,-17.003092866503522,10.78833065400299,-0.0939512000217179,1.7949999999982538
0.186,0.9499,-0.2917,0.047,0.1434,-0.0926,-0.42,-0.8838,-5.5125,-17.03878518451108,10.757916526958825,-0.10720820002763395,1.8100000000049477
0.187,0.9499,-0.2917,0.047,0.1434,-0.0926,-0.4725,-1.1025,-5.46,-17.05606916751648,10.738042632545325,-0.10720820002763395,1.8100000000049477
0.1854,0.95,-0.2918,0.0461,0.1417,-0.1015,-1.1025,-1.4,-5.5738,-17.068062993274275,10.717888947257537,-0.1296082000220111,1.8260000000009313
0.1848,0.95,-0.2965,0.0461,0.1417,-0.1015,-1.1025,-1.4,-5.5738,-17.238400629662863,10.694468264010887,-0.1296082000220111,1.8260000000009313
0.1878,0.9527,-0.2972,0.0461,0.1417,-0.1015,-0.9975,-1.8463,-5.7225,-17.29315493979109,10.693926374271394,-0.15914900002802934,1.842000000004191
0.1897,0.9559,-0.2948,0.0478,0.1427,-0.0979,-1.2513,-1.5488,-5.3725,-17.191926029432985,10.704980806550418,-0.15914900002802934,1.842000000004191
0.1897,0.9559,-0.2948,0.0478,0.1427,-0.0979,-2.1,-1.7938,-5.0487,-17.153542981251707,10.718080567686997,-0.1860560000139336,1.856999999996333
0.1924,0.9503,-0.2936,0.0456,0.1432,-0.101,-2.1,-1.7938,-5.0487,-17.164773804843737,10.809453107158541,-0.1860560000139336,1.856999999996333
0.195,0.9462,-0.294,0.0456,0.1432,-0.101,-2.2575,-1.6187,-5.0575,-17.23653846420942,10.93727640834842,-0.21195520001920998,1.8729999999995925
0.1917,0.9453,-0.2888,0.0456,0.1432,-0.101,-2.3012,-1.1025,-5.495,-17.05065322654718,10.94404846115595,-0.21195520001920998,1.8729999999995925
0.1952,0.941,-0.2915,0.0484,0.143,-0.1013,-2.345,-1.015,-5.39,-17.171842212020174,11.007673710690435,-0.22718020002600425,1.8880000000062864
0.1952,0.9394,-0.2872,0.0484,0.143,-0.1013,-2.345,-1.015,-5.39,-17.042443006232364,11.063449253829198,-0.2434202000145426,1.9039999999949941
0.1988,0.9394,-0.2872,0.0469,0.1424,-0.0992,-2.2925,-0.42,-5.2238,-17.01051470996009,11.18652543880893,-0.2434202000145426,1.9039999999949941
0.1981,0.9434,-0.2832,0.0469,0.1424,-0.0992,-1.8988,0.1225,-5.1537,-16.793207643997427,11.252488332804138,-0.24146020001414328,1.9199999999982538
0.1991,0.9412,-0.2815,0.0469,0.1424,-0.0992,-1.8988,0.1225,-5.18,-16.69076896744545,11.32307729566887,-0.24146020001414328,1.9199999999982538
0.2006,0.9445,-0.2755,0.0478,0.1416,-0.1063,-2.3187,0.1312,-5.18,-16.36848085183199,11.392523660357535,-0.23949220001421964,1.9349999999976717
0.2008,0.9432,-0.2755,0.0478,0.1416,-0.1063,-2.8963,1.085,-4.9,-16.301321257653814,11.462690420008284,-0.23949220001421964,1.9349999999976717
0.2008,0.9432,-0.2755,0.0467,0.1418,-0.099,-2.66,1.5838,-5.3375,-16.28690016119335,11.486161693588874,-0.21415140000905702,1.9510000000009313
0.1978,0.9438,-0.2732,0.0467,0.1418,-0.099,-2.66,1.5838,-5.3375,-16.17688292617711,11.458097207968981,-0.21415140000905702,1.9510000000009313
0.1962,0.9417,-0.2691,0.0467,0.1418,-0.099,-2.3537,2.0125,-5.6788,-16.004453928541412,11.45444170063944,-0.18396390001022844,1.9660000000003492
0.1919,0.9428,-0.2721,0.0466,0.1422,-0.0915,-2.1437,1.4,-6.2913,-16.07403216021487,11.310984608998313,-0.18396390001022844,1.9660000000003492
0.1912,0.9432,-0.2667,0.0466,0.1422,-0.0915,-2.45,1.26,-6.7025,-15.857711539336995,11.174774321825582,-0.16380390001528902,1.981999999996333
0.1912,0.9432,-0.2697,0.0471,0.1421,-0.0966,-2.45,1.26,-6.7025,-15.933344452796343,11.102000206332063,-0.16380390001528902,1.981999999996333
0.1909,0.9485,-0.2697,0.0471,0.1421,-0.0966,-1.5488,0.9013,-7.0262,-15.89146990249569,11.01921491992614,-0.1493831000123511,1.9979999999995925
0.1972,0.9522,-0.2614,0.0463,0.1422,-0.0998,-0.8487,0.8662,-7.0788,-15.563750813169731,11.178106085711404,-0.1493831000123511,1.9979999999995925
0.2025,0.9495,-0.2621,0.0463,0.1422,-0.0998,-0.7437,1.4787,-7.0963,-15.48591686177051,11.433308844602797,-0.12720260001321182,2.0129999999990105
0.2007,0.9432,-0.2608,0.0463,0.1422,-0.0998,-0.7437,1.4787,-7.0963,-15.468536297703018,11.524460186386422,-0.12720260001321182,2.0129999999990105
0.1993,0.9396,-0.2686,0.0476,0.1434,-0.0954,-0.4638,1.9775,-6.685,-15.728327774040288,11.52568936006236,-0.0955626000067659,2.02900000000227
0.1993,0.9396,-0.2686,0.0476,0.1434,-0.0954,1.2163,2.66,-6.86,-15.805934580460185,11.526362725051017,-0.0955626000067659,2.02900000000227
0.197,0.9429,-0.2654,0.0468,0.1419,-0.1028,2.2575,2.5113,-5.7663,-15.753733671972112,11.517782648071533,-0.05789310000822768,2.044000000001688
0.1942,0.9451,-0.2681,0.0468,0.1419,-0.1028,2.2575,2.5113,-5.7663,-15.804715426937955,11.499204231996638,-0.05789310000822768,2.044000000001688
0.1996,0.9461,-0.2732,0.0468,0.1419,-0.1028,2.4938,2.7213,-5.1188,-15.999073388326572,11.483950114827847,-0.014352300019157313,2.0599999999976717
0.1978,0.9511,-0.2718,0.0468,0.1433,-0.1011,3.3775,2.66,-5.3725,-15.962272735803397,11.439774007359683,-0.014352300019157313,2.0599999999976717
0.1978,0.9667,-0.2708,0.0468,0.1433,-0.1011,3.3775,2.73,-5.425,-15.73400474431858,11.375061705784631,0.029327699989741475,2.0760000000009313
0.1976,0.9545,-0.2708,0.0464,0.1413,-0.0999,3.3425,2.73,-5.425,-15.810327220423444,11.350497043948684,0.029327699989741475,2.0760000000009313
0.2001,0.9548,-0.2712,0.0464,0.1413,-0.0999,2.59,2.73,-5.5125,-15.840636119207186,11.35824749443046,0.0702776999881524,2.0910000000003492
0.2039,0.9533,-0.2673,0.0464,0.1413,-0.0999,2.8437,2.87,-5.7312,-15.719466466387908,11.364648313186049,0.0702776999881524,2.0910000000003492
0.1999,0.9493,-0.2728,0.0469,0.1446,-0.1,2.8437,2.87,-5.7312,-15.933606085718374,11.366407274461743,0.11619769999750754,2.107000000003609
0.1984,0.9435,-0.2706,0.0469,0.1446,-0.1,2.8525,3.045,-6.2125,-15.981142711410023,11.386843649972015,0.11619769999750754,2.107000000003609
0.1984,0.9435,-0.2706,0.0459,0.1432,-0.1039,2.5463,3.08,-6.0375,-15.995429708577733,11.396883972895834,0.16239769997330478,2.121999999995751
0.1969,0.9417,-0.2718,0.0459,0.1432,-0.1039,2.905,3.255,-5.9938,-16.067172747387467,11.388443215486713,0.16239769997330478,2.121999999995751
0.1953,0.9401,-0.2756,0.0459,0.1432,-0.1039,2.905,3.255,-5.9938,-16.25447427991822,11.363059104671485,0.3153826999926303,2.169000000001688
0.1942,0.939,-0.2781,0.0463,0.1439,-0.1033,3.0712,3.3338,-5.8713,-16.425623780994716,11.342430671945726,0.3153826999926303,2.169000000001688
0.1937,0.9376,-0.2798,0.0463,0.1439,-0.1033,3.3425,2.87,-6.0462,-16.564045249394837,11.30584027668083,0.3153826999926303,2.169000000001688
0.1937,0.9376,-0.2776,0.045,0.1437,-0.0994,3.5525,2.1788,-6.6937,-16.51117900967364,11.255645943614384,0.35024349999973237,2.1850000000049477
0.1982,0.9388,-0.2776,0.045,0.1437,-0.0994,3.5525,2.1788,-6.6937,-16.4827153630446,11.349715847430586,0.35024349999973237,2.1850000000049477
0.1962,0.946,-0.2833,0.045,0.1419,-0.1055,4.0425,1.6538,-6.9125,-16.628091350515714,11.288277884139946,0.35024349999973237,2.1850000000049477
0.1983,0.9497,-0.2865,0.045,0.1419,-0.1055,3.7713,1.435,-6.8513,-16.74821968135063,11.297021801189967,0.35024349999973237,2.1850000000049477
0.1955,0.9566,-0.2899,0.045,0.1419,-0.1055,3.2287,1.1638,-7.3675,-16.828096284673823,11.153184732920636,0.3677004999905872,2.1999999999970896
0.1932,0.9603,-0.2883,0.0469,0.1444,-0.1031,3.2287,1.1638,-7.3675,-16.743904537940345,10.99936366311081,0.3677004999905872,2.1999999999970896
0.1932,0.9603,-0.2883,0.0469,0.1444,-0.1031,2.3187,0.9538,-8.12,-16.723356399555676,10.93384786167359,0.3829612999936962,2.2160000000003492
0.1888,0.9593,-0.2877,0.047,0.145,-0.1103,0.9712,1.1025,-8.1462,-16.71698543241303,10.75085774176292,0.3829612999936962,2.2160000000003492
0.1809,0.959,-0.2894,0.047,0.145,-0.1103,0.0,0.0613,-8.6012,-16.747773042578928,10.368776403412605,0.3829612999936962,2.2160000000003492
0.1709,0.9575,-0.2955,0.047,0.145,-0.1103,0.0,0.0613,-8.6012,-16.91246280605625,9.855853263271332,0.383942099993896,2.232000000003609
0.1673,0.9552,-0.2904,0.0467,0.1455,-0.098,-0.6037,-0.8575,-8.9775,-16.911257542551965,9.59319373726006,0.3710796000006343,2.246999999995751
0.1673,0.9552,-0.2938,0.0467,0.1455,-0.098,-0.2975,-1.6187,-9.03,-17.00346872162362,9.52430749933957,0.3710796000006343,2.246999999995751
0.1657,0.9548,-0.2938,0.0472,0.1451,-0.1054,-0.2975,-2.765,-9.2575,-17.05321092561422,9.441253875894304,0.3268395999916214,2.2629999999990105
0.1641,0.9572,-0.2957,0.0472,0.1451,-0.1054,-1.1725,-2.765,-9.2575,-17.127291425101262,9.33293546891235,0.3268395999916214,2.2629999999990105
0.1666,0.9584,-0.2978,0.0472,0.1451,-0.1054,-1.61,-3.7275,-8.4875,-17.220755999751315,9.400845566340257,0.27092709999379105,2.2779999999984284
0.1707,0.9607,-0.2968,0.0475,0.1447,-0.1104,-2.3275,-3.815,-8.26,-17.18119390398901,9.569090106831187,0.27092709999379105,2.2779999999984284
0.174,0.9615,-0.2951,0.0475,0.1447,-0.1104,-2.3275,-3.815,-8.26,-17.09174398854486,9.745884833410223,0.20988709998135557,2.294000000001688
0.174,0.9615,-0.2951,0.0504,0.1444,-0.1058,-2.9488,-3.8325,-7.5425,-17.06849195377941,9.79071854292319,0.20988709998135557,2.294000000001688
0.1826,0.9569,-0.2935,0.0504,0.1444,-0.1058,-2.765,-3.6312,-7.0788,-17.055549635383844,10.107823332330854,0.1517878999695192,2.3100000000049477
0.185,0.9562,-0.2967,0.0504,0.1444,-0.1058,-3.325,-2.5725,-5.8888,-17.202126791456813,10.163231442343944,0.1517878999695192,2.3100000000049477
0.1838,0.9547,-0.2927,0.0493,0.145,-0.1098,-3.325,-2.5725,-5.8888,-17.0762780438092,10.204041298081425,0.113200399989734,2.3249999999970896
0.1834,0.9562,-0.2901,0.0493,0.145,-0.1098,-3.8588,-1.4262,-5.4075,-16.91306765462024,10.249357473722013,0.113200399989734,2.3249999999970896
0.1834,0.9562,-0.2901,0.0495,0.1445,-0.1015,-4.76,-0.9187,-5.2587,-16.882751737823337,10.296132442549872,0.09850119998673937,2.3410000000003492
0.1831,0.9546,-0.2901,0.0495,0.1445,-0.1015,-4.97,-0.1838,-5.3288,-16.900695154418923,10.324468127010466,0.09850119998673937,2.3410000000003492
0.1856,0.9493,-0.2849,0.049,0.1449,-0.1015,-4.97,-0.1838,-5.3288,-16.73466744853693,10.401947400396846,0.09574419998684636,2.355999999999767
0.1843,0.9462,-0.2809,0.049,0.1449,-0.1015,-5.04,0.4375,-5.39,-16.564381250238544,10.44408839441677,0.09574419998684636,2.355999999999767
0.1848,0.945,-0.2785,0.049,0.1449,-0.1015,-4.935,1.0412,-5.2063,-16.44240360019659,10.50418446032494,0.11240339999024028,2.372000000003027
0.1863,0.942,-0.2725,0.051,0.1444,-0.1003,-4.7337,1.1287,-6.09,-16.18200889518022,10.574086769305138,0.11240339999024028,2.372000000003027
0.1863,0.942,-0.2725,0.051,0.1444,-0.1003,-4.7337,1.1287,-6.09,-16.141473628077676,10.624656663039667,0.13046259999391943,2.3880000000062864
0.1891,0.9436,-0.2702,0.0493,0.1462,-0.1047,-4.4975,1.7587,-6.6062,-16.0053185988732,10.757319562312277,0.13046259999391943,2.3880000000062864
0.1915,0.9403,-0.2734,0.0493,0.1462,-0.1047,-3.7187,1.8375,-6.4313,-16.173973015097825,10.886531712196168,0.15802509997948028,2.4029999999984284
0.1902,0.9446,-0.2701,0.0493,0.1462,-0.1047,-3.6575,2.4413,-6.9563,-15.997908034370816,10.925493786967744,0.15802509997948028,2.4029999999984284
0.1925,0.9478,-0.268,0.05,0.145,-0.099,-3.6575,2.4413,-6.9563,-15.82789015236064,10.999319289298374,0.197085899987438,2.419000000001688
0.1925,0.9478,-0.2631,0.05,0.145,-0.099,-3.1675,3.1412,-7.1838,-15.578722938908342,11.043208038954653,0.197085899987438,2.419000000001688
0.1919,0.9487,-0.2631,0.0487,0.1438,-0.1011,-2.835,2.975,-7.21,-15.517492880336237,11.035153140003098,0.24171089998570633,2.434000000001106
0.1891,0.9452,-0.2706,0.0487,0.1438,-0.1011,-2.835,2.975,-7.6562,-15.874532518404942,10.93732992989689,0.24171089998570633,2.434000000001106
0.1834,0.9471,-0.2711,0.0487,0.1438,-0.1011,-2.38,2.7387,-7.6562,-15.94907712933519,10.678631537822357,0.28553009999463347,2.4500000000043656
0.1835,0.9488,-0.271,0.0508,0.1428,-0.0878,-1.925,2.485,-6.93,-15.94295234309674,10.599458907815542,0.28553009999463347,2.4500000000043656
0.182,0.9518,-0.2677,0.0508,0.1428,-0.0878,-1.0588,2.3975,-6.9825,-15.794095771286734,10.504461123893785,0.32389010000244844,2.466000000007625
0.182,0.9518,-0.2677,0.0499,0.1438,-0.1014,-1.0588,2.3975,-6.9825,-15.739946516625498,10.462700019721245,0.32389010000244844,2.466000000007625
0.1844,0.9521,-0.2694,0.0499,0.1438,-0.1014,-1.19,2.03,-6.8425,-15.77852603279375,10.512599161094924,0.35840009998732375,2.4830000000001746
0.185,0.9526,-0.2716,0.0499,0.1438,-0.1014,-0.9712,1.7675,-6.4575,-15.862856631075312,10.540982369159677,0.35840009998732375,2.4830000000001746
0.1798,0.9528,-0.2706,0.0505,0.1443,-0.0976,-0.0525,1.365,-6.3088,-15.859428828015513,10.446288427076153,0.38024009999177316,2.4990000000034343
0.1755,0.9558,-0.2722,0.0505,0.1443,-0.0976,-0.0525,1.365,-6.3088,-15.87514109566859,10.284313959690108,0.38024009999177316,2.4990000000034343
0.1755,0.9558,-0.2719,0.0486,0.1435,-0.1023,0.035,0.3325,-6.1163,-15.876930158174615,10.206384566531577,0.38522759998916034,2.513999999995576
0.1752,0.957,-0.2719,0.0486,0.1435,-0.1023,0.1575,-0.315,-6.2825,-15.871307031812753,10.126498385226403,0.38522759998916034,2.513999999995576
0.1753,0.9556,-0.2756,0.0486,0.1445,-0.1091,-0.2275,-0.8662,-5.2937,-15.97492544078436,10.08838544603541,0.37136839998633686,2.529999999998836
0.1792,0.9554,-0.2743,0.0498,0.1445,-0.1091,-0.2275,-0.8662,-5.2937,-15.996031693144648,10.126815073926087,0.37136839998633686,2.529999999998836
0.1773,0.9549,-0.2731,0.0498,0.1445,-0.1091,-0.8138,-1.0237,-5.0838,-15.974661019074203,10.124819434267975,0.354989199983,2.5460000000020955
0.1783,0.9539,-0.268,0.0507,0.1437,-0.104,-0.7788,-1.5925,-5.0575,-15.806964381650477,10.154907003550047,0.354989199983,2.5460000000020955
0.1783,0.9539,-0.268,0.0507,0.1437,-0.104,-0.7,-1.5838,-4.9088,-15.740567944439299,10.175457496592896,0.3312321999839219,2.5610000000015134
0.1785,0.9531,-0.2697,0.0518,0.1446,-0.1065,-0.7,-1.5838,-4.9088,-15.775131442947492,10.193239671767776,0.3312321999839219,2.5610000000015134
0.1779,0.9483,-0.2694,0.0518,0.1446,-0.1065,-0.7962,-1.4262,-4.3137,-15.825374168574033,10.214294230118648,0.308412999979273,2.577000000004773
0.1765,0.9479,-0.2712,0.0518,0.1446,-0.1065,-0.3325,-1.6712,-4.2175,-15.896552357042875,10.175507463533577,0.308412999979273,2.577000000004773
0.1774,0.9468,-0.2725,0.0497,0.1462,-0.1098,-0.035,-1.7237,-4.3925,-15.963758741160015,10.193529158496817,0.28255749999281793,2.591999999996915
0.1774,0.9468,-0.2725,0.0497,0.1462,-0.1098,-0.035,-1.7237,-4.3925,-16.002714334331344,10.201313205191195,0.28255749999281793,2.591999999996915
0.1814,0.9501,-0.2667,0.048,0.1454,-0.1026,-0.0437,-1.96,-4.2,-15.866043069977456,10.33036514694404,0.25119749998642904,2.6080000000001746
0.1839,0.9496,-0.2702,0.048,0.1454,-0.1026,-0.0962,-1.995,-4.4625,-15.87360394024053,10.452943719524384,0.25119749998642904,2.6080000000001746
0.1875,0.9542,-0.2702,0.048,0.1454,-0.1026,-0.0962,-1.995,-4.6725,-15.845818139189362,10.581810381097132,0.21927749997992607,2.6240000000034343
0.1877,0.9532,-0.2691,0.0486,0.144,-0.1013,-0.28,-1.9075,-4.6725,-15.806030601790058,10.657585764365916,0.1906649999810364,2.639000000002852
0.1898,0.9537,-0.2687,0.0486,0.144,-0.1013,-0.8575,-1.8375,-4.62,-15.762822745110283,10.754721203881992,0.1906649999810364,2.639000000002852
0.1898,0.9537,-0.2687,0.0482,0.1437,-0.1024,-1.1287,-2.2313,-4.655,-15.744808995783941,10.8005191431672,0.15496419998999802,2.654999999998836
0.1912,0.9502,-0.2706,0.0482,0.1437,-0.1024,-1.1287,-2.2313,-4.655,-15.842369936750856,10.878633617587953,0.15496419998999802,2.654999999998836
0.1872,0.9518,-0.2687,0.0482,0.1437,-0.1024,-1.1463,-2.2575,-4.8825,-15.792118290507045,10.80612237627373,0.12110169999131207,2.6699999999982538
0.1884,0.9494,-0.2652,0.05,0.1449,-0.1021,-1.1287,-2.1613,-5.04,-15.672587910129943,10.811737554338123,0.12110169999131207,2.6699999999982538
0.1848,0.9489,-0.2667,0.05,0.1449,-0.1021,-1.2775,-2.2225,-4.9525,-15.68988158242,10.728785776634998,0.08554169998406755,2.6860000000015134
0.1848,0.9489,-0.2667,0.0502,0.1456,-0.1041,-1.2775,-2.2225,-4.9525,-15.695708870607355,10.681525434588483,0.08554169998406755,2.6860000000015134
0.1859,0.9518,-0.2632,0.0502,0.1456,-0.1041,-1.0325,-2.87,-5.3987,-15.545083659478768,10.676707738874066,0.03962169997471241,2.702000000004773
0.1905,0.9505,-0.2613,0.0502,0.1459,-0.1023,-0.9538,-3.2113,-5.8625,-15.437056969316886,10.711686377021032,0.03962169997471241,2.702000000004773
0.19,0.9491,-0.2657,0.0503,0.1459,-0.1023,-0.7613,-3.4125,-6.3,-15.556956085738102,10.78601501678527,-0.01156579999847205,2.716999999996915
0.1875,0.9531,-0.2645,0.0503,0.1459,-0.1023,-0.7613,-3.4125,-6.3,-15.529247425946874,10.7665776218882,-0.01156579999847205,2.716999999996915
0.1868,0.9519,-0.2617,0.0486,0.1448,-0.0984,-0.8487,-3.8937,-6.0637,-15.434052808495043,10.752969492156536,-0.07386500001116406,2.7330000000001746
0.1868,0.9519,-0.2617,0.0486,0.1448,-0.0984,-1.1287,-4.1038,-6.0025,-15.394138357594866,10.744266392214161,-0.07386500001116406,2.7330000000001746
0.1861,0.9512,-0.2609,0.0494,0.1446,-0.106,-1.3737,-4.34,-6.7112,-15.356433046589094,10.71452859937061,-0.13896500000863785,2.7479999999995925
0.1809,0.9484,-0.2664,0.0494,0.1446,-0.106,-1.3737,-4.34,-6.7112,-15.580955837445266,10.559792434932136,-0.13896500000863785,2.7479999999995925
0.1774,0.9517,-0.2669,0.0494,0.1446,-0.106,-1.3125,-4.97,-7.385,-15.637620309869083,10.31875574241993,-0.2184850000248382,2.764000000002852
0.1807,0.9529,-0.2634,0.0503,0.1436,-0.0851,-1.505,-5.1275,-7.1487,-15.509975902691657,10.341944398544472,-0.2184850000248382,2.764000000002852
0.1807,0.9529,-0.2634,0.0503,0.1436,-0.0851,-1.505,-5.7575,-7.315,-15.470027164761722,10.351864573218954,-0.31060500004360553,2.780000000006112
0.182,0.9568,-0.2634,0.0522,0.144,-0.1005,-0.9187,-5.7575,-7.315,-15.42180834055357,10.3767734848125,-0.31060500004360553,2.780000000006112
0.1835,0.9558,-0.2649,0.0522,0.144,-0.1005,-0.6037,-5.355,-7.2537,-15.460675880068951,10.440586787107037,-0.3909300000015258,2.7949999999982538
0.1831,0.9529,-0.2658,0.0522,0.144,-0.1005,-0.595,-5.18,-6.9738,-15.531049003173623,10.465911205083918,-0.3909300000015258,2.7949999999982538
0.181,0.9531,-0.265,0.0525,0.1456,-0.1027,-0.595,-5.18,-6.9738,-15.534993291452706,10.41148472668459,-0.47381000001841067,2.8110000000015134
0.181,0.9531,-0.2627,0.0525,0.1456,-0.1027,-0.4288,-5.1013,-7.6737,-15.468796324788686,10.387163684105472,-0.47381000001841067,2.8110000000015134
0.181,0.9531,-0.2627,0.0527,0.147,-0.1012,-0.1225,-4.655,-7.2888,-15.44227398338077,10.379585690878613,-0.5436350000157011,2.8260000000009313
0.1821,0.9507,-0.2646,0.0527,0.147,-0.1012,-0.2187,-4.1737,-7.1137,-15.495001843148145,10.423736923081536,-0.5436350000157011,2.8260000000009313
0.181,0.951,-0.2644,0.0527,0.147,-0.1012,-0.2187,-4.1737,-7.1137,-15.515075486837306,10.404570717894273,-0.6104142000293058,2.842000000004191
0.1777,0.9514,-0.2657,0.0521,0.1445,-0.0927,0.1838,-4.1825,-6.0988,-15.544832851882813,10.346518361263481,-0.6104142000293058,2.842000000004191
0.179,0.9493,-0.266,0.0521,0.1445,-0.0927,1.2687,-3.7187,-5.8187,-15.58455351531728,10.340962026531596,-0.6699134000143703,2.8580000000001746
0.179,0.9493,-0.266,0.0522,0.1471,-0.1058,0.9363,-3.4475,-6.0375,-15.598113791056706,10.328546760009084,-0.6699134000143703,2.8580000000001746
0.1796,0.9512,-0.2705,0.0522,0.1471,-0.1058,0.9363,-3.4475,-6.0375,-15.652711175075373,10.319850727936345,-0.7216259000123636,2.8729999999995925
0.1781,0.9565,-0.2729,0.0522,0.1471,-0.1046,0.7175,-3.4125,-5.845,-15.659920123146367,10.299526999108206,-0.7216259000123636,2.8729999999995925
0.1803,0.9599,-0.2697,0.0519,0.1452,-0.1046,0.6388,-3.3512,-5.985,-15.661566704790726,10.288782257859069,-0.7752451000232873,2.889000000002852
0.1818,0.9583,-0.2675,0.0519,0.1452,-0.1046,0.9275,-3.1588,-6.4925,-15.64909780278638,10.317970676964059,-0.7752451000232873,2.889000000002852
0.179,0.9575,-0.271,0.0525,0.1455,-0.1045,0.9275,-3.1588,-6.4925,-15.678621003324805,10.264899748209878,-0.8226271000214486,2.90400000000227
0.179,0.9575,-0.271,0.0525,0.1455,-0.1045,1.3125,-3.2375,-6.4313,-15.726345497164235,10.23650999528776,-0.8226271000214486,2.90400000000227
0.1726,0.9565,-0.2706,0.0543,0.1458,-0.0986,0.665,-3.64,-6.125,-15.728071480484159,10.122807648395954,-0.8808671000333136,2.9200000000055297
0.169,0.9579,-0.2694,0.0543,0.1458,-0.0986,0.7613,-4.0512,-6.2562,-15.726747060051627,9.951459026960798,-0.8808671000333136,2.9200000000055297
0.1665,0.9553,-0.2705,0.0543,0.1458,-0.0986,0.7613,-4.0512,-6.2562,-15.732262947529486,9.798555189980755,-0.9456862999875663,2.9359999999942374
0.1673,0.9518,-0.2784,0.0538,0.1466,-0.1095,0.945,-4.48,-6.125,-15.848381515871539,9.7329802940645,-0.9456862999875663,2.9359999999942374
0.1673,0.9518,-0.2784,0.0538,0.1466,-0.1095,0.9538,-4.8038,-6.1163,-15.943450759938628,9.687397338731834,-1.0177433000197222,2.9510000000009313
0.1681,0.9561,-0.2799,0.0538,0.1454,-0.1019,0.9538,-5.46,-6.1425,-16.021477482501336,9.654144574789614,-1.0177433000197222,2.9510000000009313
0.1732,0.9601,-0.2754,0.0538,0.1454,-0.1019,0.91,-5.46,-6.1425,-16.01855886964835,9.709722565274005,-1.1051033000375199,2.967000000004191
0.1763,0.9566,-0.2774,0.0538,0.1454,-0.1019,1.1025,-5.6875,-6.2562,-16.063173959059956,9.825912993716626,-1.1904157999928273,2.981999999996333
0.1783,0.9564,-0.2792,0.053,0.1442,-0.1102,0.455,-5.1275,-6.1163,-16.103320221762317,9.918808982455815,-1.1904157999928273,2.981999999996333
0.1773,0.9573,-0.2801,0.053,0.1442,-0.1102,0.455,-5.1275,-6.1163,-16.142513146049584,9.965383561327972,-1.2724558000095412,2.9979999999995925
0.1773,0.9573,-0.2801,0.0545,0.1468,-0.1009,-0.035,-5.5475,-5.5912,-16.212558800986187,9.977278367977796,-1.2724558000095412,2.9979999999995925
0.1805,0.9556,-0.2781,0.0545,0.1468,-0.1009,0.21,-4.9437,-5.6613,-16.216959438895216,9.990685347707956,-1.3515549999896856,3.013999999995576
0.1768,0.9544,-0.2805,0.0545,0.1468,-0.1009,-0.3938,-5.1975,-5.5475,-16.300810714752267,10.00273631831369,-1.3515549999896856,3.013999999995576
0.1779,0.9496,-0.2796,0.0546,0.1465,-0.1003,-0.3938,-5.1975,-5.5475,-16.3557986936731,10.028331139166111,-1.429517500024477,3.02900000000227
0.1753,0.9506,-0.2807,0.0546,0.1465,-0.1003,-0.4288,-4.9262,-6.0637,-16.406175786046017,10.028673593877423,-1.429517500024477,3.02900000000227
0.1753,0.9506,-0.2807,0.0556,0.1465,-0.1064,0.4638,-4.2175,-5.915,-16.41448678393125,10.02883876442571,-1.4969975000382245,3.0450000000055297
0.1776,0.9507,-0.2774,0.0556,0.1465,-0.1064,1.2775,-3.5525,-5.9062,-16.359714665674453,10.051700164005533,-1.4969975000382245,3.0450000000055297
0.1767,0.9512,-0.2755,0.0556,0.1465,-0.1058,1.2775,-3.5525,-5.9062,-16.283164694148482,10.062502448114763,-1.5502850000103088,3.0599999999976717
0.176,0.9512,-0.2769,0.0556,0.1458,-0.1058,0.7962,-3.4213,-5.6,-16.278126431817427,10.063598962156183,-1.5502850000103088,3.0599999999976717
0.1742,0.9498,-0.2801,0.0556,0.1458,-0.1058,0.3938,-3.0975,-5.285,-16.31308092676116,10.037931394863609,-1.5998450000204054,3.0760000000009313
0.1746,0.9528,-0.2776,0.0535,0.1461,-0.1044,0.7875,-3.1063,-5.8625,-16.306918187111414,10.029921743856981,-1.5998450000204054,3.0760000000009313
0.1746,0.9528,-0.2776,0.0535,0.1461,-0.1044,0.7875,-3.1063,-5.8625,-16.301301885524556,10.022985725991735,-1.6495458000079295,3.091999999996915
0.1741,0.9537,-0.2749,0.0552,0.1446,-0.1038,0.8662,-3.1063,-5.8625,-16.2680933682986,10.013077219111844,-1.6495458000079295,3.091999999996915
0.1724,0.9543,-0.2793,0.0552,0.1446,-0.1038,1.225,-2.7562,-6.0637,-16.28389698373658,9.966669549422718,-1.690888800026379,3.107000000003609
0.171,0.9539,-0.2814,0.0552,0.1446,-0.1038,0.9275,-2.7562,-5.9938,-16.31307416699098,9.919799008075705,-1.690888800026379,3.107000000003609
0.1698,0.9534,-0.279,0.0569,0.1474,-0.1019,0.9275,-2.7562,-5.9938,-16.31275734436174,9.870875979618067,-1.7349880000153093,3.1229999999995925
0.1698,0.9534,-0.279,0.0569,0.1474,-0.1019,0.8138,-3.22,-5.9325,-16.312610479226233,9.83949069508448,-1.7349880000153093,3.1229999999995925
0.1679,0.9561,-0.2814,0.0566,0.1483,-0.099,0.5775,-3.08,-6.2213,-16.32148704844024,9.745502307410058,-1.7811880000135165,3.1379999999990105
0.1724,0.9559,-0.2844,0.0566,0.1483,-0.099,0.5775,-3.08,-6.0988,-16.34654013519032,9.762934275266533,-1.7811880000135165,3.1379999999990105
0.1691,0.9552,-0.2843,0.0566,0.1483,-0.099,1.2163,-2.5812,-6.0988,-16.42522704877615,9.72554644235606,-1.8224872000219303,3.15400000000227
0.1682,0.9554,-0.2846,0.058,0.147,-0.1138,0.665,-3.0712,-6.3263,-16.429229901230602,9.668787083983537,-1.8224872000219303,3.15400000000227
0.1695,0.9545,-0.2873,0.058,0.147,-0.1138,0.9625,-2.66,-6.5275,-16.498211809506643,9.660547728785753,-1.8650472000112468,3.1699999999982538
0.1695,0.9545,-0.2873,0.0582,0.147,-0.1002,0.9625,-2.66,-6.5275,-16.552430295216354,9.656020090613136,-1.8650472000112468,3.1699999999982538
0.1707,0.9536,-0.2883,0.0582,0.147,-0.1002,0.7525,-2.8087,-6.0637,-16.568211278215426,9.673605007926,-1.9071777000300478,3.1850000000049477
0.1671,0.9558,-0.286,0.0582,0.147,-0.1002,0.9625,-2.5988,-6.055,-16.58754304412333,9.630970890802383,-1.9071777000300478,3.1850000000049477
0.1699,0.9545,-0.2833,0.0568,0.1472,-0.0994,1.015,-2.8,-5.6175,-16.57371280999531,9.635338877730533,-1.951977700018802,3.2010000000009313
0.1685,0.9547,-0.2854,0.0568,0.1472,-0.0994,1.015,-2.8,-5.6175,-16.590851288042803,9.632246967480583,-1.951977700018802,3.2010000000009313
0.1685,0.9547,-0.2854,0.0581,0.1473,-0.1055,1.3038,-2.2138,-5.7312,-16.61091679746877,9.631460294041172,-1.9851847000175136,3.2160000000003492
0.164,0.9553,-0.2866,0.0581,0.1473,-0.1055,1.75,-2.3363,-5.46,-16.656645678813614,9.57315344348398,-1.9851847000175136,3.2160000000003492
0.1656,0.9568,-0.2876,0.0581,0.1473,-0.1044,1.4262,-2.5725,-5.4862,-16.687747080274274,9.54379620778076,-2.026344700025899,3.232000000003609
0.1668,0.9553,-0.2871,0.0586,0.1488,-0.1044,1.4262,-2.5725,-5.4862,-16.70451710533559,9.534579688826609,-2.026344700025899,3.232000000003609
0.1643,0.9547,-0.2882,0.0586,0.1488,-0.1044,1.0675,-1.96,-5.5825,-16.73005700197798,9.514662852042251,-2.057704700018027,3.2479999999995925
0.1651,0.9531,-0.2904,0.0565,0.1502,-0.0976,0.6562,-2.87,-5.7137,-16.737140640090683,9.514031260368062,-2.057704700018027,3.2479999999995925
0.1651,0.9531,-0.2904,0.0565,0.1502,-0.0976,0.98,-2.7387,-5.67,-16.78394472793771,9.510200310145718,-2.0987852000363594,3.2630000000062864
0.1646,0.9545,-0.2871,0.0602,0.1478,-0.104,0.98,-2.7387,-5.67,-16.774192038216743,9.505362665360963,-2.142604400005433,3.278999999994994
0.1673,0.9529,-0.2873,0.0602,0.1478,-0.104,1.1988,-2.2838,-5.4862,-16.775507807841446,9.511996886350085,-2.142604400005433,3.278999999994994
0.1677,0.955,-0.291,0.0602,0.1478,-0.104,1.295,-2.5812,-5.355,-16.839990679320724,9.518085461070873,-2.1813224000227116,3.294000000001688
0.1692,0.9548,-0.2909,0.0576,0.1466,-0.0964,0.2275,-2.2838,-4.6112,-16.873039704105878,9.571982232494241,-2.1813224000227116,3.294000000001688
0.1692,0.9548,-0.2909,0.0576,0.1466,-0.0964,0.2275,-2.2838,-4.6112,-16.89563416080436,9.597690098009421,-2.217863200030156,3.3100000000049477
0.1673,0.956,-0.2909,0.0571,0.1466,-0.1032,0.1838,-2.065,-4.48,-16.90530857570196,9.546250452916636,-2.217863200030156,3.3100000000049477
0.1686,0.9546,-0.286,0.0571,0.1466,-0.1032,0.5775,-2.3625,-4.76,-16.88231680955618,9.573786160539175,-2.2556632000206673,3.3260000000009313
0.1687,0.9548,-0.2932,0.0571,0.1466,-0.1032,0.5775,-2.3625,-4.48,-16.901395547345146,9.5810086886725,-2.2556632000206673,3.3260000000009313
0.1704,0.9544,-0.2882,0.0573,0.1479,-0.1033,1.0588,-1.82,-4.48,-16.874823035895304,9.646145860940917,-2.282963200019608,3.3410000000003492
0.1704,0.9531,-0.293,0.0573,0.1479,-0.1033,0.6737,-2.1525,-4.9175,-16.878290321878872,9.66891020672178,-2.282963200019608,3.3410000000003492
0.1693,0.9531,-0.293,0.0581,0.1466,-0.101,0.5863,-2.3712,-4.9088,-16.89806360940613,9.654424721413475,-2.3209024000100844,3.356999999996333
0.1745,0.9516,-0.2926,0.0581,0.1466,-0.101,0.5863,-2.3712,-4.9088,-16.9162922411866,9.781973073944545,-2.3209024000100844,3.356999999996333
0.1711,0.9518,-0.2914,0.0581,0.1466,-0.101,0.6913,-2.4588,-5.0312,-16.91640821765642,9.770371002396544,-2.357784400026543,3.372000000003027
0.1703,0.9522,-0.2921,0.0596,0.1481,-0.1046,0.1312,-2.2138,-4.6463,-16.965776404869487,9.735615209489419,-2.357784400026543,3.372000000003027
0.1723,0.9503,-0.2952,0.0596,0.1481,-0.1046,0.0787,-2.205,-4.97,-17.07621599838496,9.772853265794302,-2.3930644000176873,3.3879999999990105
0.1723,0.9503,-0.2952,0.0574,0.1474,-0.0968,0.0787,-2.205,-4.97,-17.14474795671924,9.794282662951641,-2.3930644000176873,3.3879999999990105
0.1742,0.9474,-0.2921,0.0574,0.1474,-0.0968,-0.0962,-2.2225,-4.8562,-17.140653126675172,9.873116752848182,-2.428624400024932,3.40400000000227
0.1704,0.947,-0.2865,0.0574,0.1474,-0.0968,-0.1138,-2.5638,-5.1712,-17.003257039919564,9.837822735288409,-2.428624400024932,3.40400000000227
0.1649,0.948,-0.2943,0.0595,0.1469,-0.1062,-0.4812,-2.73,-5.6788,-17.134528602494118,9.826422567954337,-2.469574400023343,3.419000000001688
0.1615,0.9514,-0.2943,0.0595,0.1469,-0.1062,-0.4812,-2.73,-5.6788,-17.16369627719307,9.809141627980672,-2.469574400023343,3.419000000001688
0.1615,0.9529,-0.2882,0.0568,0.1467,-0.1076,-0.1488,-2.835,-6.0113,-17.010399835211963,9.670669033225698,-2.5149344000119567,3.4349999999976717
0.1626,0.9529,-0.2882,0.0568,0.1467,-0.1076,-0.4288,-3.115,-5.7925,-16.913913108886057,9.639838138567196,-2.5149344000119567,3.4349999999976717
0.1619,0.9564,-0.2914,0.0595,0.1478,-0.1036,-0.9887,-3.9025,-6.335,-16.933490975964364,9.469568068251071,-2.5734719000380797,3.4500000000043656
0.159,0.9568,-0.2905,0.0595,0.1478,-0.1036,-0.9887,-3.9025,-6.335,-16.90569622807419,9.30206551641273,-2.5734719000380797,3.4500000000043656
0.1563,0.9566,-0.2896,0.0595,0.1478,-0.1036,-1.0063,-3.8763,-6.5712,-16.866316256265012,9.110217874667923,-2.6354927000225112,3.4660000000003492
0.1555,0.9605,-0.2971,0.0587,0.1482,-0.0996,-1.05,-3.6575,-6.895,-17.070468059960092,8.937473952282513,-2.6354927000225112,3.4660000000003492
0.1555,0.9605,-0.2971,0.0587,0.1482,-0.0996,-0.9887,-3.92,-7.1925,-17.14399078897771,8.850533666797514,-2.698212700035289,3.482000000003609
0.1577,0.9599,-0.2925,0.0605,0.1476,-0.0959,-0.9887,-3.92,-7.1925,-17.02052625507759,8.898734464988184,-2.698212700035289,3.482000000003609
0.1565,0.9589,-0.2949,0.0605,0.1476,-0.0959,-1.75,-3.78,-6.8775,-17.07317531466832,8.881369857751604,-2.762472700034629,3.4990000000034343
0.1582,0.9592,-0.294,0.0605,0.1476,-0.0959,-1.7587,-3.6837,-6.8075,-17.050035223782142,8.923121942080595,-2.762472700034629,3.4990000000034343
0.1629,0.9614,-0.2982,0.0598,0.1482,-0.0964,-1.7587,-3.6837,-4.5675,-17.179567429181546,9.066753871479595,-2.821411900019834,3.514999999999418
0.1629,0.9596,-0.2946,0.0598,0.1482,-0.0964,-1.1725,-3.815,-6.7025,-17.106087151031158,9.142059591991547,-2.821411900019834,3.514999999999418
0.1663,0.9596,-0.2946,0.0607,0.1468,-0.101,-1.3388,-3.29,-5.5475,-17.07966246485262,9.178609097566905,-2.870761900017919,3.529999999998836
0.1659,0.9587,-0.2954,0.0607,0.1468,-0.101,-1.2775,-2.7387,-4.9963,-17.109991055014312,9.26659178614202,-2.870761900017919,3.529999999998836
0.1624,0.957,-0.2973,0.0607,0.1468,-0.101,-1.2775,-2.7387,-4.9963,-17.208021430015314,9.241055940596983,-2.9145811000268464,3.5460000000020955
0.1633,0.9551,-0.2951,0.0592,0.1479,-0.1054,-1.1463,-2.135,-4.7337,-17.18322996615103,9.259151141781498,-2.9145811000268464,3.5460000000020955
0.1673,0.9559,-0.2945,0.0592,0.1479,-0.1054,-1.0063,-1.6363,-4.3925,-17.145566053814775,9.393364158231796,-2.9407619000202745,3.561999999998079
0.1673,0.9559,-0.2945,0.0606,0.1481,-0.0966,-0.5337,-0.875,-3.9113,-17.13334800758306,9.458918943054986,-2.9407619000202745,3.561999999998079
0.1688,0.9553,-0.2916,0.0606,0.1481,-0.0966,-0.5337,-0.875,-3.9113,-17.045937246373395,9.544652499489171,-2.9538869000261316,3.577000000004773
0.1674,0.9564,-0.2917,0.0606,0.1481,-0.0966,-0.7262,-0.2975,-3.5963,-16.996499762508364,9.517187188835132,-2.9538869000261316,3.577000000004773
0.1687,0.9537,-0.2885,0.06,0.1469,-0.1064,-1.2075,0.385,-3.9462,-16.888037110376228,9.576241323567835,-2.947726900027678,3.5930000000007567
0.1667,0.9496,-0.2901,0.06,0.1469,-0.1064,-0.9712,0.9275,-4.06,-16.950288383108166,9.54770910707511,-2.947726900027678,3.5930000000007567
0.1667,0.9489,-0.2908,0.0596,0.1475,-0.1106,-0.9712,0.9275,-4.06,-17.005176042655187,9.539658123412485,-2.933814400028218,3.6080000000001746
0.1654,0.9489,-0.2908,0.0596,0.1475,-0.1106,-0.9538,1.2337,-4.585,-17.025717916670303,9.498460267186102,-2.933814400028218,3.6080000000001746
0.1627,0.948,-0.2869,0.0585,0.1478,-0.1016,-1.3475,1.4175,-4.2438,-16.899637679695786,9.397468121702323,-2.9111344000235975,3.6240000000034343
0.1624,0.948,-0.2879,0.0585,0.1478,-0.1016,-1.085,1.2425,-4.445,-16.895465563418558,9.34804364947656,-2.9111344000235975,3.6240000000034343
0.1629,0.948,-0.2899,0.0585,0.1478,-0.1016,-1.085,1.2425,-4.445,-16.964712606016295,9.338902845997946,-2.8912544000285876,3.639999999999418
0.1616,0.9499,-0.2906,0.059,0.147,-0.1103,-0.9275,1.0762,-4.62,-16.99287446268242,9.287358837688485,-2.8912544000285876,3.639999999999418
0.1616,0.9499,-0.2906,0.059,0.147,-0.1103,-0.3762,1.33,-4.6463,-17.00185844078259,9.262959161413553,-2.871304400019685,3.655000000006112
0.1647,0.9544,-0.2921,0.0591,0.1486,-0.1004,-0.3762,0.42,-4.4012,-17.009699833587653,9.32367568570129,-2.871304400019685,3.655000000006112
0.1695,0.957,-0.2908,0.0591,0.1486,-0.1004,-0.5425,0.42,-4.4012,-16.95037897756145,9.490534468002686,-2.864584400021372,3.6710000000020955
0.1737,0.958,-0.2867,0.0591,0.1486,-0.1004,-0.84,0.735,-4.2,-16.775265691982426,9.709149284879956,-2.864584400021372,3.6710000000020955
0.1701,0.9585,-0.2943,0.0586,0.1457,-0.1022,-0.875,0.8487,-4.6813,-16.95430895685562,9.668272488981419,-2.8518539000218657,3.6860000000015134
0.1701,0.9558,-0.2926,0.0586,0.1457,-0.1022,-0.875,0.8487,-4.6813,-16.99498521619164,9.66284376390211,-2.8518539000218657,3.6860000000015134
0.1693,0.9558,-0.2926,0.0598,0.1489,-0.0994,-0.56,0.6562,-4.6988,-17.009423943924237,9.637803150886358,-2.841354700024501,3.701999999997497
0.1718,0.9542,-0.2908,0.0598,0.1489,-0.0994,-0.9013,0.0437,-4.6112,-16.972325326938464,9.707960203300853,-2.8406555000243587,3.7180000000007567
0.1695,0.9534,-0.2898,0.0598,0.1489,-0.0994,-1.4,0.8487,-4.6112,-16.928425853434803,9.679541577308473,-2.8406555000243587,3.7180000000007567
0.1658,0.9526,-0.2902,0.0582,0.1472,-0.1038,-1.4,0.8487,-4.6112,-16.93816841024667,9.560941613134307,-2.8279250000248526,3.7330000000001746
0.1673,0.9537,-0.2878,0.0582,0.1472,-0.1038,-1.6888,0.4288,-4.6813,-16.83550157886516,9.546985107905629,-2.8279250000248526,3.7330000000001746
0.1673,0.9537,-0.2878,0.057,0.1474,-0.1046,-1.4088,0.21,-4.4363,-16.806271768356826,9.539374029948382,-2.824565000025696,3.7489999999961583
0.1716,0.9512,-0.2845,0.057,0.1474,-0.1046,-1.3737,0.3938,-4.5325,-16.70215421908744,9.683440673457886,-2.824565000025696,3.7489999999961583
0.1749,0.9516,-0.2882,0.057,0.1474,-0.1046,-1.3737,0.3938,-4.5325,-16.801324576505564,9.84181111856468,-2.81865800002306,3.764000000002852
0.1738,0.9482,-0.2896,0.0572,0.1452,-0.1122,-1.5488,0.56,-4.8387,-16.927436346157737,9.88884275759688,-2.81865800002306,3.764000000002852
0.1769,0.9518,-0.2896,0.0572,0.1452,-0.1122,-1.4,0.5163,-5.11,-16.92457174473957,9.961247031354345,-2.8103972000251334,3.779999999998836
0.1769,0.9674,-0.2823,0.0576,0.1468,-0.0974,-1.505,1.0325,-5.2063,-16.473443312762505,9.959581027099492,-2.8103972000251334,3.779999999998836
0.1795,0.9536,-0.2823,0.0576,0.1468,-0.0974,-1.505,1.0325,-5.2063,-16.48526763160256,10.050302175962198,-2.7938772000217678,3.7960000000020955
0.1807,0.9538,-0.2835,0.0583,0.1461,-0.0955,-1.7325,1.3913,-4.725,-16.53366416962946,10.170481565135905,-2.7938772000217678,3.7960000000020955
0.1809,0.9504,-0.2851,0.0583,0.1461,-0.0955,-1.3125,2.0038,-5.1887,-16.643362820968424,10.22579686387999,-2.763820200022934,3.8110000000015134
0.1778,0.9505,-0.2849,0.0583,0.1461,-0.0955,-1.6187,2.1962,-5.1363,-16.672708046673055,10.201379927833425,-2.763820200022934,3.8110000000015134
0.1805,0.9504,-0.2828,0.0584,0.1468,-0.1007,-1.6187,2.1962,-5.1363,-16.601628195256772,10.243320258750876,-2.728681000031755,3.826999999997497
0.1805,0.9504,-0.2828,0.0584,0.1468,-0.1007,-1.085,2.5375,-5.2325,-16.581936011023195,10.266963982705777,-2.728681000031755,3.826999999997497
0.1788,0.9555,-0.2779,0.0571,0.1469,-0.1033,-1.505,3.0275,-4.865,-16.330990680394585,10.23008147561064,-2.683268500011489,3.842000000004191
0.1761,0.9547,-0.2782,0.0571,0.1469,-0.1033,-1.505,3.0275,-4.9875,-16.272699697936197,10.15150796004878,-2.683268500011489,3.842000000004191
0.1765,0.9559,-0.283,0.0571,0.1469,-0.1033,-1.785,2.8175,-4.9875,-16.428687450474968,10.10481742355503,-2.638188500022805,3.8580000000001746
0.1807,0.9569,-0.2756,0.0576,0.1462,-0.1,-1.715,2.9137,-4.8475,-16.173292518303874,10.188194986544639,-2.638188500022805,3.8580000000001746
0.1807,0.9569,-0.2788,0.0576,0.1462,-0.1,-1.9863,2.9838,-4.9875,-16.22467939126731,10.225011116781019,-2.590447700013079,3.8740000000034343
0.1756,0.9568,-0.2788,0.0548,0.1458,-0.1012,-1.9863,2.9838,-4.9875,-16.239827260040013,10.127861548087505,-2.590447700013079,3.8740000000034343
0.1716,0.9565,-0.2769,0.0548,0.1458,-0.1012,-1.925,2.8263,-5.3463,-16.17148830438008,10.03489137171244,-2.548053200014724,3.889000000002852
0.1683,0.9561,-0.2766,0.0548,0.1458,-0.1012,-2.17,2.5463,-5.39,-16.144579362521508,9.929449381818836,-2.548053200014724,3.889000000002852
0.1674,0.9518,-0.2733,0.0566,0.1464,-0.1056,-2.2575,1.96,-5.5563,-16.052227925694783,9.885461061969187,-2.516693200022596,3.904999999998836
0.1681,0.9519,-0.2757,0.0566,0.1464,-0.1056,-2.2575,1.96,-5.5563,-16.127226106986765,9.851479721898889,-2.516693200022596,3.904999999998836
0.1681,0.9519,-0.2757,0.0566,0.1474,-0.1039,-2.0738,2.1175,-5.9412,-16.145909482661335,9.808995959577423,-2.4849307000084218,3.9200000000055297
0.1679,0.9498,-0.2734,0.0566,0.1474,-0.1039,-1.9075,1.6538,-6.1863,-16.082772798173284,9.754670046333558,-2.4849307000084218,3.9200000000055297
0.1629,0.9517,-0.2719,0.0566,0.1474,-0.1039,-1.8813,0.9975,-6.5887,-15.983288099681499,9.56330032573002,-2.468970700012428,3.9360000000015134
0.1602,0.9506,-0.2719,0.0574,0.1488,-0.1012,-1.8813,0.9975,-6.5887,-15.968041046228423,9.39478488556603,-2.468970700012428,3.9360000000015134
0.1616,0.9529,-0.2732,0.0574,0.1488,-0.1012,-1.8725,0.7437,-6.8688,-15.989443838529432,9.321779050520732,-2.457071500010004,3.952000000004773
0.1616,0.9373,-0.2713,0.0564,0.1471,-0.0992,-0.9625,0.3237,-6.5975,-16.085115190441407,9.360267763053898,-2.457071500010004,3.952000000004773
0.1638,0.951,-0.2713,0.0564,0.1471,-0.0992,-1.1812,-0.4112,-6.6238,-15.97901345252815,9.381470527125273,-2.463239500006773,3.966999999996915
0.163,0.9523,-0.2759,0.0559,0.1474,-0.1029,-1.1812,-0.4112,-6.6238,-16.09523562918409,9.359790390616272,-2.463239500006773,3.966999999996915
0.1651,0.9561,-0.2702,0.0559,0.1474,-0.1029,-0.8575,-0.2887,-6.23,-15.904117515572523,9.38551308079237,-2.467858700007714,3.9830000000001746
0.1638,0.9586,-0.2745,0.0559,0.1474,-0.1029,-1.33,-0.525,-5.7312,-15.95443034150555,9.384210559868814,-2.467858700007714,3.9830000000001746
0.1635,0.9575,-0.2741,0.0571,0.1473,-0.103,-1.0063,-0.7613,-5.9325,-15.967141263612668,9.37292165723413,-2.47927820001281,3.9980000000068685
0.1635,0.9575,-0.2741,0.0571,0.1473,-0.103,-1.0063,-0.7613,-5.9325,-15.971855114359144,9.36370465397832,-2.47927820001281,3.9980000000068685
0.1637,0.9566,-0.2756,0.0562,0.1463,-0.1014,-0.9013,-0.8313,-5.9763,-16.033287028444924,9.3582749629438,-2.4925790000034227,4.013999999995576
0.1665,0.9579,-0.2754,0.0562,0.1463,-0.1014,-0.7613,-1.2862,-5.7663,-16.037350793140888,9.365218666042317,-2.513158200007615,4.029999999998836
0.1707,0.9565,-0.2704,0.0562,0.1463,-0.1014,-0.7613,-1.2862,-5.5125,-15.888207194454777,9.427166889806166,-2.513158200007615,4.029999999998836
0.1735,0.9562,-0.2738,0.0565,0.1477,-0.1001,-1.1287,-1.2513,-5.5125,-15.946552197212307,9.503567764593008,-2.5319277000068867,4.044999999998254
0.1735,0.957,-0.2749,0.0565,0.1477,-0.1001,-1.575,-0.7613,-5.6175,-16.002229483775412,9.535088068117984,-2.5319277000068867,4.044999999998254
0.1717,0.957,-0.2749,0.0577,0.1477,-0.1006,-1.3388,-0.5688,-5.3375,-16.01869417828823,9.60232560370629,-2.541028500008741,4.061000000001513
0.1743,0.9556,-0.2719,0.0577,0.1477,-0.1006,-1.3388,-0.5688,-5.3375,-15.927675379565486,9.69637924903893,-2.541028500008741,4.061000000001513
0.1762,0.955,-0.2718,0.0577,0.1477,-0.1006,-2.0563,-0.2362,-4.8387,-15.89766744318755,9.866701052925151,-2.5445715000086033,4.076000000000931
0.1738,0.9576,-0.2746,0.0567,0.148,-0.1012,-1.435,0.035,-4.8387,-15.967730139646962,9.880529901602197,-2.5445715000086033,4.076000000000931
0.1738,0.956,-0.2722,0.0567,0.148,-0.1012,-0.875,-0.1575,-4.6463,-15.922217025317638,9.899767040250929,-2.5470915000079706,4.091999999996915
0.1738,0.956,-0.2722,0.0562,0.1467,-0.0966,-0.875,-0.1575,-4.6463,-15.904474539111147,9.909099074140725,-2.5470915000079706,4.091999999996915
0.174,0.9564,-0.2685,0.0562,0.1467,-0.0966,-1.1025,0.455,-5.1188,-15.761386730731292,9.918761148341023,-2.5398115000064876,4.108000000000175
0.1728,0.9562,-0.2684,0.0562,0.1467,-0.0966,-1.0938,0.7175,-5.215,-15.708678967919731,9.902712373409239,-2.5398115000064876,4.108000000000175
0.1685,0.9559,-0.2698,0.0544,0.145,-0.1022,-0.6212,0.315,-5.1275,-15.738684949130544,9.801964194189315,-2.535086500006671,4.1229999999995925
0.1681,0.9559,-0.2684,0.0544,0.145,-0.1022,-0.6212,0.315,-5.1275,-15.707552634135391,9.731294771305384,-2.535086500006671,4.1229999999995925
0.1681,0.9559,-0.27,0.057,0.1461,-0.1023,-0.49,0.1138,-5.4163,-15.742801603776094,9.702881194617877,-2.5332657000063,4.139000000002852
0.1688,0.9556,-0.27,0.057,0.1461,-0.1023,-0.6825,-0.0525,-5.3288,-15.762802872028288,9.687629307886972,-2.5332657000063,4.139000000002852
0.1673,0.9578,-0.2687,0.0573,0.1447,-0.1027,-0.9625,-0.4988,-5.285,-15.705523541983748,9.645721294986105,-2.5407477000060097,4.15400000000227
0.1656,0.9585,-0.2677,0.0573,0.1447,-0.1027,-0.9625,-0.4988,-5.285,-15.642612262282428,9.586844357123537,-2.5407477000060097,4.15400000000227
0.1678,0.9573,-0.2667,0.0573,0.1447,-0.1027,-0.7262,-0.6825,-5.0225,-15.59865874713297,9.58578098866816,-2.5516677000032684,4.169999999998254
0.1702,0.9546,-0.2691,0.056,0.1477,-0.0991,-0.4638,-1.5488,-5.5213,-15.676014815134051,9.609615546591632,-2.5516677000032684,4.169999999998254
0.1702,0.9546,-0.2691,0.056,0.1477,-0.0991,-0.3762,-1.7237,-5.5563,-15.710608229157904,9.626429207938724,-2.579246900008887,4.186000000001513
0.1664,0.957,-0.2738,0.0547,0.1461,-0.097,-0.3762,-1.7237,-5.5563,-15.842383429289617,9.608534845721044,-2.579246900008887,4.186000000001513
0.167,0.9575,-0.2679,0.0547,0.1461,-0.097,-0.0875,-1.8375,-5.0662,-15.7499728503491,9.5796110077311,-2.6068094000078172,4.201000000000931
0.171,0.9588,-0.2709,0.0547,0.1461,-0.097,-0.2362,-2.3625,-5.3812,-15.763039527108546,9.61877711128181,-2.6068094000078172,4.201000000000931
0.1684,0.9578,-0.27,0.0564,0.1457,-0.1014,-0.2362,-2.3625,-5.5388,-15.753370124246853,9.61676427181073,-2.644609400015518,4.217000000004191
0.1684,0.9578,-0.2708,0.0564,0.1457,-0.1014,-0.84,-2.6688,-5.5388,-15.7738635142756,9.614744854033463,-2.644609400015518,4.217000000004191
0.17,0.9575,-0.2708,0.0561,0.147,-0.1008,-0.5337,-2.8,-5.1887,-15.783820429638107,9.642187598721556,-2.6866093999935154,4.231999999996333
0.1701,0.9552,-0.2683,0.0561,0.147,-0.1008,-1.0237,-3.2462,-4.97,-15.724052952232391,9.678784504898067,-2.6866093999935154,4.231999999996333
0.1662,0.952,-0.2721,0.0561,0.147,-0.1008,-1.0237,-3.2462,-4.97,-15.867350931155016,9.615079633946646,-2.738548600004097,4.2479999999995925
0.167,0.9552,-0.2712,0.0554,0.1459,-0.0995,-0.7175,-3.3512,-4.7425,-15.857372155977242,9.581618629332773,-2.738548600004097,4.2479999999995925
0.1706,0.9568,-0.2698,0.0554,0.1459,-0.0995,-0.6737,-3.6137,-4.9088,-15.79396501396924,9.650936899336573,-2.7963678000158763,4.264000000002852
0.1706,0.9568,-0.2698,0.057,0.1452,-0.1051,-0.4025,-3.8412,-5.355,-15.769690587632324,9.673560543625433,-2.7963678000158763,4.264000000002852
0.1715,0.9532,-0.2714,0.057,0.1452,-0.1051,-0.4025,-3.8412,-5.355,-15.834068934933459,9.711066078739472,-2.915444999998213,4.294999999998254
0.1749,0.9536,-0.271,0.057,0.1452,-0.1051,-0.3413,-3.4037,-5.355,-15.849480003438407,9.787814507376359,-2.915444999998213,4.294999999998254
0.1768,0.9573,-0.2694,0.0578,0.1483,-0.1029,-0.385,-3.5612,-5.0312,-15.78108664274809,9.906020848927529,-2.915444999998213,4.294999999998254
0.1752,0.9529,-0.2708,0.0578,0.1483,-0.1029,-0.8487,-3.3075,-4.7512,-15.831561599482361,9.9663594842574,-2.915444999998213,4.294999999998254
0.1752,0.9529,-0.2731,0.0575,0.1476,-0.1038,-0.8487,-3.3075,-4.7512,-15.928953049239158,9.994140556689327,-2.9650574999962878,4.309999999997672
0.1699,0.9523,-0.2731,0.0575,0.1476,-0.1038,-0.6825,-3.2812,-5.1887,-15.971097660605663,9.904369995740375,-2.9650574999962878,4.309999999997672
0.1693,0.9538,-0.2732,0.056,0.1464,-0.0991,-0.3237,-3.6925,-5.4163,-15.977327273406074,9.854552988358346,-3.024137500008324,4.326000000000931
0.1669,0.9538,-0.2709,0.056,0.1464,-0.0991,-0.0613,-4.34,-5.7312,-15.925142715326427,9.847673906765511,-3.024137500008324,4.326000000000931
0.1687,0.957,-0.2746,0.056,0.1464,-0.0991,-0.0613,-4.34,-5.7312,-15.961644238054651,9.842379563873278,-3.093577500022471,4.342000000004191
0.1688,0.9611,-0.2724,0.0562,0.1452,-0.1039,-0.105,-4.3663,-5.8713,-15.900703603117822,9.807041505236626,-3.093577500022471,4.342000000004191
0.1688,0.9611,-0.2724,0.0562,0.1452,-0.1039,-0.2887,-4.1213,-5.6962,-15.862794503144467,9.804583679324086,-3.1553969999900855,4.356999999996333
0.1707,0.9611,-0.273,0.0591,0.1467,-0.1011,-0.2887,-3.9725,-5.985,-15.860013352952272,9.78087733650933,-3.2189570000030345,4.3729999999995925
0.1718,0.9573,-0.2719,0.0591,0.1467,-0.1011,-0.2362,-3.9725,-5.985,-15.858098112355528,9.78387812086518,-3.2189570000030345,4.3729999999995925
0.1667,0.9556,-0.2749,0.0591,0.1467,-0.1011,-0.1925,-3.5087,-6.23,-15.94764014901358,9.692289891716355,-3.2715875000009924,4.3879999999990105
0.1648,0.9568,-0.2709,0.0591,0.1469,-0.097,0.0787,-3.3512,-6.1863,-15.894832783397806,9.600882284805044,-3.2715875000009924,4.3879999999990105
0.1648,0.9568,-0.2716,0.0591,0.1469,-0.097,0.0787,-3.3512,-6.1863,-15.87678676802273,9.538487315610464,-3.325206700011916,4.40400000000227
0.1637,0.9537,-0.2716,0.0586,0.1477,-0.1007,-0.3237,-3.6925,-5.74,-15.886554571927778,9.533343150192074,-3.325206700011916,4.40400000000227
0.1651,0.9518,-0.2769,0.0586,0.1477,-0.1007,-0.14,-3.3338,-5.5563,-16.03821807266817,9.523190186593418,-3.378547500022783,4.42000000000553
0.1629,0.957,-0.2752,0.0586,0.1477,-0.1007,0.14,-3.1237,-5.6875,-16.04005707014555,9.518585105736701,-3.378547500022783,4.42000000000553
0.1637,0.9578,-0.2749,0.0593,0.1466,-0.096,0.14,-3.1237,-5.6875,-16.030847512668203,9.514834094133057,-3.4254029999982367,4.434999999997672
0.1645,0.9597,-0.2769,0.0593,0.1466,-0.096,0.4988,-3.1937,-5.425,-16.041043713297285,9.47896223966661,-3.4254029999982367,4.434999999997672
0.1645,0.9597,-0.2769,0.058,0.146,-0.0971,0.7875,-2.6163,-5.6262,-16.045767086007253,9.469399339505,-3.467263800006765,4.451000000000931
0.166,0.9612,-0.2776,0.058,0.146,-0.0971,0.42,-2.1875,-5.1188,-16.059221907328673,9.451342255792085,-3.467263800006765,4.451000000000931
0.1634,0.9611,-0.2796,0.058,0.146,-0.0971,0.42,-2.1875,-5.1188,-16.093549745600182,9.3846920595103,-3.5000763000054915,4.466000000000349
0.1671,0.9584,-0.2763,0.0586,0.1454,-0.0977,0.105,-2.5375,-5.46,-16.089249262536836,9.409658575019959,-3.5000763000054915,4.466000000000349
0.1665,0.9575,-0.2792,0.0586,0.1454,-0.0977,-0.2887,-2.8525,-4.7775,-16.171883437538728,9.442328779498489,-3.5457163000147895,4.482000000003609
0.1665,0.9575,-0.2797,0.0578,0.1466,-0.0992,-0.2713,-2.6337,-4.8562,-16.22677751928738,9.457880098539844,-3.5457163000147895,4.482000000003609
0.1647,0.9568,-0.2797,0.0578,0.1466,-0.0992,-0.2713,-2.6337,-4.8562,-16.26029325240432,9.422860595842119,-3.5878555000042116,4.4979999999995925
0.1665,0.956,-0.2802,0.0587,0.147,-0.0987,0.07,-2.4237,-5.3812,-16.289144067394417,9.438962326228818,-3.5878555000042116,4.4979999999995925
0.1685,0.9543,-0.2791,0.0587,0.147,-0.0987,-0.3325,-2.0387,-4.9262,-16.295839688616496,9.51773427524927,-3.6225134000038555,4.514999999999418
0.1663,0.9562,-0.2797,0.0587,0.147,-0.0987,0.4025,-1.9425,-4.9525,-16.297848965784095,9.500038228318077,-3.6225134000038555,4.514999999999418
0.1662,0.9562,-0.2816,0.0589,0.1473,-0.0987,0.4025,-1.9425,-4.9525,-16.32282843293426,9.485400851790029,-3.6535934000101875,4.5310000000026776
0.1662,0.9562,-0.2816,0.0589,0.1473,-0.0987,0.42,-1.4787,-4.5763,-16.341297940807273,9.475112426185245,-3.6535934000101875,4.5310000000026776
0.1696,0.9561,-0.2786,0.0581,0.1461,-0.1002,0.2713,-1.575,-4.5413,-16.31307628008246,9.57734589379405,-3.677218399997811,4.5459999999948195
0.1691,0.9558,-0.279,0.0581,0.1461,-0.1002,0.2713,-1.575,-4.7688,-16.301136514750162,9.607059845073039,-3.677218399997811,4.5459999999948195
0.1734,0.9567,-0.2811,0.0581,0.1461,-0.1002,0.875,-1.4088,-4.7688,-16.312497380066866,9.73192513486384,-3.6997592000024033,4.561999999998079
0.1729,0.9563,-0.282,0.0581,0.1465,-0.0989,0.8575,-0.6913,-5.0225,-16.32934897591477,9.775168968993809,-3.6997592000024033,4.561999999998079
0.1729,0.9563,-0.2804,0.0581,0.1465,-0.0989,0.5688,-1.05,-5.2325,-16.33070186898415,9.79690608202744,-3.716559200005826,4.578000000001339
0.1695,0.9554,-0.2804,0.0594,0.1467,-0.0995,0.5688,-1.05,-5.2325,-16.33348585612479,9.753123008495777,-3.716559200005826,4.578000000001339
0.1698,0.9507,-0.2827,0.0594,0.1467,-0.0995,-0.0787,-1.2163,-4.69,-16.43210480442501,9.733728504366729,-3.7348037000051177,4.593000000000757
0.1715,0.9496,-0.2793,0.0594,0.1467,-0.0995,0.1312,-1.0325,-5.3025,-16.41695979507654,9.761395233361009,-3.7348037000051177,4.593000000000757
0.1754,0.9521,-0.2803,0.0586,0.147,-0.09,-0.3588,-1.0762,-5.4513,-16.41059434728973,9.814601919321916,-3.7520229000086256,4.609000000004016
0.1743,0.9567,-0.2771,0.0586,0.147,-0.09,-0.3588,-1.0762,-5.4513,-16.27882371451965,9.837342906156504,-3.7520229000086256,4.609000000004016
0.1743,0.9567,-0.2771,0.059,0.1474,-0.0989,-0.245,-0.9187,-5.6262,-16.21811921039422,9.844027137444813,-3.7658034000014062,4.623999999996158
0.1745,0.9564,-0.2756,0.059,0.1474,-0.0989,0.07,-0.8487,-5.425,-16.163362428713576,9.866080904483834,-3.7658034000014062,4.623999999996158
0.1688,0.9535,-0.2805,0.059,0.1474,-0.0989,0.1663,-0.5512,-5.6,-16.242238812581565,9.843989531570026,-3.774622600003203,4.639999999999418
0.1669,0.9537,-0.2796,0.059,0.1467,-0.1072,0.1663,-0.5512,-5.6,-16.275766731433684,9.813747827283972,-3.774622600003203,4.639999999999418
0.1637,0.9536,-0.2766,0.059,0.1467,-0.1072,-0.49,-0.8313,-6.0725,-16.221361095876254,9.693033320927707,-3.787923400005913,4.6560000000026776
0.1637,0.9536,-0.2766,0.0593,0.1452,-0.0981,-0.0175,-0.8313,-6.0988,-16.202257028032413,9.600000191755493,-3.787923400005913,4.6560000000026776
0.1638,0.9534,-0.2766,0.0593,0.1452,-0.0981,0.385,-1.1725,-6.2825,-16.196696689760042,9.515875074318263,-3.8055109000052303,4.6710000000020955
0.1626,0.9566,-0.2789,0.0593,0.1476,-0.0961,0.385,-1.1725,-6.2825,-16.210148830729313,9.425402665181906,-3.8055109000052303,4.6710000000020955
0.1635,0.9562,-0.2757,0.0576,0.1476,-0.0961,-0.105,-1.9425,-6.0113,-16.154179092320803,9.403216017698089,-3.8365909000115623,4.687000000005355
0.1655,0.9581,-0.2731,0.0576,0.1476,-0.0961,-0.525,-2.2575,-6.125,-16.020144858920254,9.411659065603763,-3.8365909000115623,4.687000000005355
0.1634,0.9556,-0.2766,0.0591,0.1459,-0.1033,-0.8225,-2.03,-6.125,-16.094211230332206,9.386891087300075,-3.8670408999956107,4.701999999997497
0.1634,0.9556,-0.2766,0.0591,0.1459,-0.1033,-0.8225,-2.03,-6.125,-16.12368797806501,9.36941551008715,-3.8670408999956107,4.701999999997497
0.1632,0.9573,-0.2726,0.0586,0.1464,-0.1059,-0.595,-2.5287,-6.2213,-15.994956164969281,9.349744994541558,-3.9075001000038534,4.718000000000757
0.1649,0.9586,-0.2752,0.0586,0.1464,-0.1059,-1.1725,-3.1237,-6.6588,-16.009947780388657,9.36864351702032,-3.9075001000038534,4.718000000000757
0.1605,0.9567,-0.2725,0.0586,0.1464,-0.1059,-1.1725,-3.1237,-6.4488,-15.937572033815634,9.282175904561516,-3.9574793000140356,4.734000000004016
0.1618,0.9549,-0.2748,0.0599,0.1487,-0.0912,-0.77,-3.1325,-6.4488,-16.007089814167465,9.267837293754965,-3.9574793000140356,4.734000000004016
0.1618,0.9549,-0.2748,0.0599,0.1487,-0.0912,-0.2362,-3.045,-6.335,-16.029984535370676,9.260379001937887,-4.003154300012263,4.749000000003434
0.1631,0.9571,-0.273,0.0598,0.1473,-0.0998,-0.5075,-3.1675,-6.37,-15.970095163989788,9.278794049582778,-4.003154300012263,4.749000000003434
0.1647,0.9551,-0.2727,0.0598,0.1473,-0.0998,-0.5075,-3.1675,-6.37,-15.951020954694139,9.333024967960506,-4.053834299999542,4.764999999999418
0.1649,0.9555,-0.2744,0.0598,0.1473,-0.0998,-0.3237,-3.2812,-5.9938,-15.987248821022387,9.351971672681005,-4.053834299999542,4.764999999999418
0.1658,0.9559,-0.2749,0.0591,0.1469,-0.1021,0.2975,-3.1937,-6.0025,-16.003336563690148,9.37742945433335,-4.101739799997683,4.779999999998836
0.1621,0.9583,-0.2821,0.0591,0.1469,-0.1021,0.1925,-3.43,-6.1512,-16.136194194668526,9.328135485690584,-4.156619800008863,4.7960000000020955
0.1621,0.9583,-0.2821,0.0579,0.1462,-0.0988,0.1925,-3.43,-6.1512,-16.22490167109304,9.293986350959045,-4.156619800008863,4.7960000000020955
0.1633,0.9578,-0.2752,0.0579,0.1462,-0.0988,0.0525,-3.1237,-5.74,-16.14927691070489,9.294364238741354,-4.206598999996317,4.811999999998079
0.1601,0.959,-0.2766,0.0579,0.1462,-0.0988,-0.1925,-2.415,-6.02,-16.120972560285175,9.251193777448647,-4.206598999996317,4.811999999998079
0.1603,0.9565,-0.2741,0.0615,0.1457,-0.0946,-0.035,-2.765,-5.985,-16.066119463247986,9.229667323579747,-4.248073999994708,4.826999999997497
0.1587,0.9568,-0.2766,0.0615,0.1457,-0.0946,-0.035,-2.765,-5.985,-16.09044181011018,9.191410267071236,-4.248073999994708,4.826999999997497
0.1587,0.9568,-0.2766,0.0634,0.1478,-0.0978,0.4375,-2.8612,-6.1863,-16.097207462990212,9.146752989121401,-4.293853200004035,4.843000000000757
0.1573,0.9598,-0.2771,0.0634,0.1478,-0.0978,0.035,-3.045,-6.8775,-16.09979536525352,9.039698484480494,-4.293853200004035,4.843000000000757
0.1602,0.9595,-0.2783,0.0634,0.1501,-0.0988,0.245,-3.1063,-6.7638,-16.12285103336516,9.07580973138959,-4.340447700002227,4.858000000000175
0.1618,0.9603,-0.278,0.0618,0.1501,-0.0988,0.245,-3.1063,-6.7638,-16.129782876769596,9.136129944064692,-4.340447700002227,4.858000000000175
0.1632,0.9618,-0.2796,0.0618,0.1501,-0.0988,0.9712,-2.2225,-6.3525,-16.147249225602632,9.182438513679553,-4.376007700009471,4.874000000003434
0.1607,0.9617,-0.2797,0.0617,0.1477,-0.0938,0.1225,-2.5812,-6.37,-16.17232607473492,9.155769871876931,-4.376007700009471,4.874000000003434
0.1607,0.9617,-0.2797,0.0617,0.1477,-0.0938,-2.1175,-2.415,-6.3088,-16.204897624957226,9.140652501481522,-4.4146476999997715,4.889999999999418
0.1609,0.9612,-0.2829,0.0637,0.1496,-0.0974,-0.1663,-2.415,-6.3088,-16.294996237675573,9.133990332193276,-4.4146476999997715,4.889999999999418
0.156,0.9646,-0.2805,0.0637,0.1496,-0.0974,-0.5425,-2.275,-6.0637,-16.25034326179971,9.053420381540727,-4.448772699998448,4.904999999998836
0.1601,0.962,-0.2789,0.0637,0.1496,-0.0974,-0.2537,-2.065,-5.7225,-16.21024503449244,9.053829026620468,-4.448772699998448,4.904999999998836
0.16,0.9578,-0.2794,0.0613,0.1458,-0.1104,-0.2537,-2.065,-5.7225,-16.235619422826655,9.054657975237424,-4.481812700005179,4.9210000000020955
0.16,0.9578,-0.2794,0.0613,0.1458,-0.1104,-0.245,-1.4963,-5.4075,-16.248610559091073,9.067598164078666,-4.481812700005179,4.9210000000020955
0.1606,0.9567,-0.2811,0.0609,0.1485,-0.0988,-0.0175,-1.82,-5.0838,-16.30056417949447,9.099065895279555,-4.50911270000412,4.936000000001513
0.1566,0.9597,-0.2849,0.0609,0.1485,-0.0988,-0.6913,-1.8988,-5.1975,-16.436117628136532,9.028654764888119,-4.50911270000412,4.936000000001513
0.1582,0.9609,-0.2793,0.0609,0.1485,-0.0988,-0.6913,-1.8988,-5.1975,-16.30338038654306,9.01349552428461,-4.539493500010309,4.952000000004773
0.1609,0.9616,-0.2832,0.0622,0.1488,-0.0925,-0.0962,-1.6625,-4.865,-16.350396988179074,9.0616147187047,-4.539493500010309,4.952000000004773
0.1591,0.9624,-0.2813,0.0622,0.1488,-0.0925,-0.035,-1.6187,-4.6725,-16.32631979355084,9.038580904020023,-4.565392700003808,4.968000000000757
0.1591,0.9624,-0.2813,0.0619,0.1485,-0.0983,-0.1838,-1.4175,-4.41,-16.31083561161521,9.026014236624937,-4.565392700003808,4.968000000000757
0.1612,0.9614,-0.2843,0.0619,0.1485,-0.0983,-0.1838,-1.4175,-4.41,-16.386800672598223,9.087206214411946,-4.5866552000029825,4.983000000000175
0.1636,0.9578,-0.2839,0.0619,0.1485,-0.0983,-0.735,-0.9275,-3.8238,-16.45935781568247,9.22654886007684,-4.5866552000029825,4.983000000000175
0.1648,0.9581,-0.2812,0.061,0.1486,-0.0984,-0.8487,-0.4638,-3.605,-16.397215415180945,9.325063469275156,-4.5940760000044945,4.999000000003434
0.1638,0.9539,-0.2779,0.061,0.1486,-0.0984,-1.26,-0.1225,-3.255,-16.29490468120514,9.35109475731963,-4.5940760000044945,4.999000000003434
0.1638,0.9539,-0.2779,0.0594,0.1464,-0.0927,-1.26,-0.1225,-3.255,-16.260225486377728,9.358634138149142,-4.595913500004423,5.014000000002852
0.1641,0.9481,-0.2783,0.0594,0.1464,-0.0927,-1.155,0.3063,-3.2725,-16.324141507870067,9.408795932097355,-4.595913500004423,5.014000000002852
0.1637,0.9488,-0.2808,0.0594,0.1464,-0.101,-0.6037,0.2275,-3.4125,-16.41558993760278,9.39845690881167,-4.592273500003682,5.030000000006112
0.1664,0.947,-0.2758,0.0603,0.1469,-0.101,0.0,0.1575,-4.1562,-16.342838848903966,9.506324897835642,-4.592273500003682,5.030000000006112
0.166,0.9484,-0.2738,0.0603,0.1469,-0.101,0.0,0.1575,-4.1562,-16.245004245344933,9.530312428655707,-4.58975350000546,5.0459999999948195
0.166,0.9496,-0.2722,0.0609,0.1477,-0.1018,-0.21,0.4112,-4.0775,-16.12646823474072,9.535715550738342,-4.58975350000546,5.0459999999948195
0.1666,0.9496,-0.2722,0.0609,0.1477,-0.1018,-0.63,0.2625,-4.1213,-16.05154372656869,9.558505587113745,-4.585816000003703,5.061000000001513
0.1638,0.949,-0.2761,0.0606,0.1475,-0.0977,-0.63,0.2625,-4.9963,-16.14836997143606,9.496839089855834,-4.581616000004757,5.076999999997497
0.1588,0.9534,-0.2751,0.0606,0.1475,-0.0977,-0.1663,-0.3325,-4.9963,-16.12388471450742,9.32860028470906,-4.581616000004757,5.076999999997497
0.1556,0.9565,-0.2745,0.0606,0.1475,-0.0977,0.1488,-1.015,-5.6875,-16.084804390783113,9.319854272089284,-4.596841000004167,5.091999999996915
0.1506,0.9623,-0.2747,0.061,0.1478,-0.1005,0.385,-1.3825,-5.7925,-16.049079291372717,9.260316139078972,-4.596841000004167,5.091999999996915
0.1506,0.9623,-0.2747,0.061,0.1478,-0.1005,0.385,-1.3825,-5.7925,-16.02170803596809,9.20543171156223,-4.618961000008674,5.108000000000175
0.1471,0.9654,-0.2817,0.0603,0.1488,-0.0977,0.42,-1.6625,-6.3263,-16.073896722162825,8.867710949770112,-4.618961000008674,5.108000000000175
0.1491,0.9712,-0.2777,0.0603,0.1488,-0.0977,0.4112,-2.9575,-6.2213,-16.0484146892549,8.707842285844924,-4.666280999996795,5.123999999996158
0.1499,0.974,-0.2836,0.0603,0.1488,-0.0977,-0.1225,-3.5,-6.3875,-16.13161883282505,8.58548427613462,-4.666280999996795,5.123999999996158
0.1484,0.9728,-0.2837,0.061,0.1471,-0.0996,-0.1225,-3.5,-6.3875,-16.188457596109668,8.482767340942981,-4.718781000020224,5.139000000002852
0.1484,0.967,-0.2829,0.061,0.1471,-0.0996,-0.5688,-4.1038,-6.2825,-16.254559884791117,8.444849710793825,-4.718781000020224,5.139000000002852
0.1496,0.967,-0.2829,0.0619,0.1471,-0.0992,-0.665,-4.3488,-5.6613,-16.284770900191017,8.4448857557495,-4.7883618000027575,5.154999999998836
0.1496,0.9658,-0.2852,0.0619,0.1471,-0.0992,-0.8575,-4.5062,-5.3375,-16.386257731915233,8.446218269008396,-4.7883618000027575,5.154999999998836
0.1515,0.9631,-0.2822,0.0619,0.1471,-0.0992,-0.8575,-4.5062,-5.3375,-16.352826217036586,8.483558107559446,-4.855954800000134,5.169999999998254
0.1577,0.9573,-0.2859,0.0626,0.1478,-0.087,-1.015,-4.7337,-5.0138,-16.526522332006344,8.682768501868864,-4.855954800000134,5.169999999998254
0.1585,0.9559,-0.2847,0.0626,0.1478,-0.087,-1.0237,-4.13,-4.025,-16.563671847903887,8.900306873338529,-4.922034800013597,5.186000000001513
0.1585,0.9559,-0.2847,0.0613,0.1477,-0.092,-0.9538,-3.8063,-3.815,-16.577149283803813,8.984894327837328,-4.922034800013597,5.186000000001513
0.1618,0.9529,-0.2819,0.0613,0.1477,-0.092,-0.9538,-3.8063,-3.815,-16.51674094116056,9.156952956271605,-4.982935599998309,5.201999999997497
0.1654,0.9502,-0.2821,0.0613,0.1477,-0.092,-0.6388,-3.2638,-3.4562,-16.52736407217808,9.376250467243432,-4.982935599998309,5.201999999997497
0.1681,0.9504,-0.2819,0.0612,0.147,-0.0971,-0.42,-2.3888,-3.0712,-16.52400854511784,9.555975754042514,-5.018767600014299,5.217000000004191
0.1717,0.9533,-0.282,0.0612,0.147,-0.0971,-0.42,-1.2862,-3.0975,-16.500320098911967,9.73172035479104,-5.018767600014299,5.217000000004191
0.1717,0.9523,-0.2809,0.0622,0.1468,-0.1057,-0.42,-1.2862,-3.0975,-16.465681736632735,9.789291162295903,-5.039346800009134,5.233000000000175
0.1748,0.9523,-0.2809,0.0622,0.1468,-0.1057,-0.4725,-0.4812,-3.2725,-16.448908131039456,9.927996196809412,-5.039346800009134,5.233000000000175
0.1734,0.9504,-0.2826,0.0602,0.1455,-0.1046,-0.2275,0.245,-3.7013,-16.50195842805684,9.922450806389284,-5.035671800009276,5.2479999999995925
0.1691,0.9503,-0.2834,0.0602,0.1455,-0.1046,-0.2275,0.245,-4.0512,-16.551611789749508,9.769482426351813,-5.035671800009276,5.2479999999995925
0.169,0.9516,-0.2818,0.0602,0.1455,-0.1046,-0.105,0.9975,-4.0512,-16.52686761956082,9.703686697073659,-5.019711800006025,5.264000000002852
0.1686,0.9523,-0.281,0.0618,0.1474,-0.1054,0.0437,1.4612,-4.2263,-16.492765310276077,9.664046676988306,-5.019711800006025,5.264000000002852
0.1686,0.9523,-0.281,0.0618,0.1474,-0.1054,0.5775,2.17,-4.2525,-16.487422434896168,9.648186946908142,-4.984991800014741,5.279999999998836
0.1645,0.9545,-0.2843,0.061,0.1466,-0.0963,0.5775,2.17,-4.2525,-16.49743591968438,9.488579153563041,-4.984991800014741,5.279999999998836
0.164,0.9557,-0.2827,0.061,0.1466,-0.0963,0.3063,1.435,-4.7337,-16.4921647380806,9.417482723830993,-4.9634668000051345,5.29500000000553
0.1638,0.96,-0.2833,0.061,0.1466,-0.0963,0.3762,1.8025,-5.1013,-16.480069338023267,9.370852255556722,-4.9634668000051345,5.29500000000553
0.1611,0.9641,-0.2849,0.0602,0.1486,-0.0978,0.2713,1.4088,-4.7512,-16.474992116036397,9.240466865167352,-4.940926000010792,5.311000000001513
0.1611,0.9679,-0.2859,0.0602,0.1486,-0.0978,0.2713,1.4088,-4.7512,-16.469437882733246,9.156792145835212,-4.940926000010792,5.311000000001513
0.1591,0.9679,-0.2859,0.0597,0.147,-0.0993,-0.42,1.3825,-4.6112,-16.46246219380992,9.053112295801363,-4.920188500011597,5.326000000000931
0.1631,0.9651,-0.2813,0.0597,0.147,-0.0993,-0.875,0.7875,-4.725,-16.332791349444896,9.133716697379018,-4.920188500011597,5.326000000000931
0.1603,0.9635,-0.2832,0.0597,0.147,-0.0993,-1.4875,0.3413,-5.1975,-16.36484179790023,9.111874412049463,-4.914727700012968,5.341999999996915
0.157,0.9614,-0.2865,0.0591,0.1464,-0.1024,-1.4875,0.3413,-5.1975,-16.52202943183141,9.038525143668357,-4.914727700012968,5.341999999996915
0.1587,0.9592,-0.281,0.0591,0.1464,-0.1024,-1.75,-0.21,-5.2937,-16.38445445232396,9.033675328164504,-4.918087700013652,5.358000000000175
0.1587,0.9592,-0.281,0.0601,0.1467,-0.097,-1.4262,-0.6562,-5.4687,-16.34616686233595,9.031415605044185,-4.918087700013652,5.358000000000175
0.1618,0.9543,-0.2816,0.0601,0.1467,-0.097,-1.365,-0.5863,-5.355,-16.409664562827185,9.084856387704885,-4.926882200013311,5.3729999999995925
0.1622,0.9535,-0.2825,0.0601,0.1467,-0.097,-1.365,-0.5863,-5.355,-16.472677995120687,9.131435029567662,-4.926882200013311,5.3729999999995925
0.1644,0.9532,-0.2789,0.0591,0.1442,-0.1,-2.0563,-1.3563,-5.11,-16.352780509689648,9.23154291989696,-4.948583000007863,5.388999999995576
0.1701,0.9517,-0.2759,0.0591,0.1442,-0.1,-1.9512,-2.0038,-5.0838,-16.21801476473658,9.427169475242794,-4.948583000007863,5.388999999995576
0.1701,0.95,-0.2799,0.0584,0.1475,-0.1006,-1.9512,-2.0038,-4.585,-16.362092414946456,9.595607390527775,-4.978640000021277,5.40400000000227
0.1715,0.95,-0.2799,0.0584,0.1475,-0.1006,-2.135,-1.2687,-4.585,-16.402378667657878,9.71655836368981,-4.978640000021277,5.40400000000227
0.1718,0.9494,-0.2758,0.0606,0.1465,-0.0955,-1.6363,-0.7262,-4.6463,-16.25981854462966,9.78938301930545,-4.99025920001836,5.419999999998254
0.1746,0.9481,-0.2751,0.0606,0.1465,-0.0955,-1.3038,-0.1838,-4.5763,-16.20704308539102,9.916992798869025,-4.993200000018959,5.436000000001513
0.1754,0.9513,-0.2767,0.0606,0.1465,-0.0955,-1.3038,-0.1838,-4.5763,-16.214254816218922,9.982149379324238,-4.993200000018959,5.436000000001513
0.1737,0.9505,-0.276,0.0598,0.1462,-0.0985,-1.3038,-0.1838,-4.305,-16.199364023070434,9.96564042763636,-4.995957000018852,5.451000000000931
0.1737,0.9505,-0.276,0.0598,0.1462,-0.0985,-1.1812,0.4638,-4.06,-16.194496983009067,9.95831619423839,-4.995957000018852,5.451000000000931
0.1714,0.9527,-0.2721,0.0582,0.1456,-0.093,-1.1113,0.8575,-4.4538,-16.030737230831278,9.878359516760627,-4.995957000018852,5.451000000000931
0.1749,0.9534,-0.2752,0.0582,0.1456,-0.093,-1.1113,0.8575,-4.4538,-16.075819885549617,9.943742590388485,-4.982237000022296,5.466999999996915
0.1686,0.9588,-0.2738,0.0582,0.1456,-0.093,-1.1375,1.3388,-4.48,-15.986417925004405,9.752716251245175,-4.962155000013334,5.482000000003609
0.1664,0.9554,-0.2758,0.0587,0.1464,-0.1025,-1.0762,1.8988,-4.235,-16.0602841245165,9.601953062073912,-4.962155000013334,5.482000000003609
0.1664,0.9554,-0.2752,0.0587,0.1464,-0.1025,-0.6913,1.6625,-4.8038,-16.065271385152045,9.554091111739664,-4.9355550000200115,5.4979999999995925
0.1676,0.9586,-0.2752,0.0601,0.1439,-0.0978,-0.6913,1.6625,-4.8038,-16.037847103075105,9.547132539301364,-4.9355550000200115,5.4979999999995925
0.1655,0.9603,-0.2746,0.0601,0.1439,-0.0978,-0.6913,1.68,-4.655,-15.991530000715294,9.47601254115531,-4.908675000014536,5.514000000002852
0.1662,0.9608,-0.2774,0.0601,0.1439,-0.0978,-0.7525,1.4,-4.3925,-16.058173423869853,9.453225631031133,-4.908675000014536,5.514000000002852
0.1678,0.9606,-0.2774,0.059,0.147,-0.0927,-1.3388,1.3913,-4.6813,-16.091246006670023,9.49053232744165,-4.886414200010001,5.530000000006112
0.168,0.9633,-0.2768,0.059,0.147,-0.0927,-1.3388,1.3913,-4.6813,-16.05140615482245,9.503097381936495,-4.8850229000147785,5.5310000000026776
0.168,0.9633,-0.2768,0.057,0.1476,-0.1007,-1.3563,1.2163,-4.9525,-16.0382161330537,9.508364611475947,-4.8850229000147785,5.5310000000026776
0.1706,0.9628,-0.2787,0.057,0.1476,-0.1007,-1.855,1.295,-4.3575,-16.11419716868296,9.59514123354663,-4.86430290001998,5.546999999998661
0.1689,0.9632,-0.279,0.057,0.1476,-0.1007,-2.275,1.155,-4.6375,-16.144081577985965,9.577266631713652,-4.846977900020652,5.561999999998079
0.174,0.9613,-0.2747,0.0572,0.1478,-0.095,-2.275,1.155,-4.6375,-15.997269192522937,9.73003594047788,-4.846977900020652,5.561999999998079
0.1732,0.959,-0.2736,0.0572,0.1478,-0.095,-1.3825,1.6712,-4.5675,-15.947372290418953,9.795314375849005,-4.820238700015204,5.578000000001339
0.1732,0.959,-0.274,0.0582,0.1456,-0.0994,-1.7413,1.8463,-4.9612,-15.94597185505846,9.81933066049033,-4.820238700015204,5.578000000001339
0.1732,0.9576,-0.274,0.0582,0.1456,-0.0994,-1.7413,1.8463,-4.8475,-15.96124068368488,9.84024325897953,-4.790697900022619,5.5939999999973224
0.169,0.9574,-0.2715,0.0569,0.1465,-0.0973,-1.6013,2.1437,-4.8475,-15.871476525560878,9.746816800036983,-4.790697900022619,5.5939999999973224
0.1693,0.9565,-0.2669,0.0569,0.1465,-0.0973,-1.9775,2.0387,-4.6375,-15.66756707855206,9.709764122011611,-4.760117400008972,5.609000000004016
0.1669,0.9554,-0.27,0.0569,0.1465,-0.0973,-2.205,1.6363,-4.8738,-15.751516004148712,9.63375628837445,-4.760117400008972,5.609000000004016
0.1676,0.9536,-0.2712,0.0582,0.1474,-0.0992,-2.205,1.6363,-4.8738,-15.843698730629265,9.616230405332699,-4.733936600015544,5.625
0.1676,0.9536,-0.2712,0.0582,0.1474,-0.0992,-2.1613,1.8112,-4.7775,-15.867271678748965,9.606102084523496,-4.733936600015544,5.625
0.1665,0.9549,-0.2682,0.0582,0.1456,-0.1,-2.0475,1.5838,-4.83,-15.73618698987661,9.57019860869151,-4.710179600016466,5.639999999999418
0.1687,0.952,-0.2617,0.0582,0.1456,-0.1,-2.3625,1.2687,-4.5588,-15.46085015900062,9.637641874462126,-4.710179600016466,5.639999999999418
0.1691,0.9476,-0.2618,0.0582,0.1456,-0.1,-2.3625,1.2687,-4.5588,-15.448343611728134,9.702936958711884,-4.689880400021561,5.655999999995402
0.1682,0.9503,-0.2672,0.0583,0.1458,-0.099,-2.765,1.68,-4.445,-15.647098556543474,9.684405833301277,-4.689880400021561,5.655999999995402
0.1682,0.9568,-0.2697,0.0583,0.1458,-0.099,-2.2313,1.4,-4.4363,-15.71774629056138,9.639141197974224,-4.667480400016998,5.671999999998661
0.1679,0.9568,-0.2697,0.0569,0.1446,-0.0977,-2.0038,0.8838,-4.27,-15.735381983202995,9.608229388632383,-4.667480400016998,5.671999999998661
0.1639,0.9571,-0.2633,0.0569,0.1446,-0.0977,-2.0038,0.8838,-4.27,-15.477428428997285,9.47106394949181,-4.654223400011081,5.687000000005355
0.1717,0.9568,-0.261,0.0569,0.1446,-0.0977,-1.7587,0.4462,-4.41,-15.32173543427022,9.669303834218626,-4.654223400011081,5.687000000005355
0.1706,0.957,-0.2632,0.0571,0.145,-0.1039,-1.645,0.5688,-5.0487,-15.360879975071711,9.702506095970143,-4.645122600013366,5.703000000001339
0.1665,0.9548,-0.2632,0.0571,0.145,-0.1039,-1.4,0.6212,-5.3375,-15.39504645356183,9.659372812048554,-4.645122600013366,5.703000000001339
0.1665,0.9548,-0.2632,0.0563,0.1455,-0.0982,-1.4,0.6212,-5.3375,-15.406102832827965,9.627893465524346,-4.635804600013728,5.718000000000757
0.1606,0.957,-0.2614,0.0563,0.1455,-0.0982,-1.2337,0.2362,-6.0462,-15.321421705631888,9.518568728447402,-4.635804600013728,5.718000000000757
0.1599,0.9606,-0.2632,0.0563,0.1455,-0.0982,-1.8637,-0.3325,-6.4662,-15.322359066675725,9.346875985791318,-4.641124600012392,5.73399999999674
0.161,0.9618,-0.2631,0.057,0.1465,-0.0934,-2.31,-1.3125,-6.755,-15.304811914045338,9.25739509496817,-4.641124600012392,5.73399999999674
0.1648,0.9584,-0.266,0.057,0.1465,-0.0934,-2.31,-1.3125,-6.755,-15.460038272988486,9.334367430260523,-4.6621246000166705,5.75
0.1648,0.9584,-0.2621,0.0568,0.1469,-0.0977,-2.2313,-1.7062,-7.1575,-15.337140244142875,9.38356356647967,-4.6621246000166705,5.75
0.1647,0.9625,-0.2621,0.0568,0.1469,-0.0977,-1.8463,-1.8025,-7.2362,-15.26241394326316,9.37852557747033,-4.689162100028736,5.765000000006694
0.164,0.9634,-0.2619,0.0598,0.1446,-0.0991,-1.8463,-1.8025,-7.2888,-15.22360728738635,9.347937049215652,-4.689162100028736,5.765000000006694
0.1679,0.9599,-0.2611,0.0598,0.1446,-0.0991,-1.96,-2.4237,-7.2888,-15.218611809338473,9.490201770680963,-4.727941300019002,5.7810000000026776
0.1711,0.9603,-0.2622,0.0598,0.1446,-0.0991,-1.785,-3.0712,-6.79,-15.256478947505391,9.626688521031902,-4.727941300019002,5.7810000000026776
0.1721,0.9576,-0.2605,0.058,0.1462,-0.0988,-2.1437,-3.1675,-6.8513,-15.228150333340297,9.739566269888444,-4.775453800017158,5.7960000000020955
0.1721,0.9576,-0.2605,0.058,0.1462,-0.0988,-2.1437,-3.1675,-6.8513,-15.220761362000346,9.79222451899312,-4.775453800017158,5.7960000000020955
0.1729,0.9604,-0.2566,0.0575,0.1462,-0.1006,-2.275,-3.3075,-6.8775,-15.024933157695214,9.83234904819157,-4.828373800003874,5.811999999998079
0.1754,0.959,-0.2586,0.0575,0.1462,-0.1006,-2.2662,-3.4037,-6.2825,-15.07444865424764,9.898898585375765,-4.828373800003874,5.811999999998079
0.1728,0.9558,-0.2606,0.0575,0.1462,-0.1006,-1.9338,-3.4825,-6.125,-15.202326820296308,9.897520397815867,-4.884093800015226,5.828000000001339
0.1731,0.9509,-0.259,0.0588,0.1459,-0.0974,-1.9338,-3.4825,-6.125,-15.22689133236969,9.916444324052259,-4.884093800015226,5.828000000001339
0.1731,0.9509,-0.2597,0.0588,0.1459,-0.0974,-1.995,-3.2987,-6.1075,-15.262317410687867,9.928875482964397,-4.933574300013306,5.843000000000757
0.171,0.9525,-0.2597,0.0583,0.1462,-0.0945,-1.6975,-2.9838,-6.3963,-15.254373663643962,9.887098450210852,-4.933574300013306,5.843000000000757
0.172,0.9576,-0.2613,0.0583,0.1462,-0.0945,-0.0875,-3.0712,-6.265,-15.25802174622278,9.866888334971813,-4.982713500000971,5.85899999999674
0.1643,0.968,-0.2619,0.0583,0.1462,-0.0945,-0.0875,-3.0712,-6.265,-15.20611071389063,9.66570603418976,-4.982713500000971,5.85899999999674
0.1607,0.9676,-0.2619,0.0592,0.1458,-0.0898,-0.4288,-3.5,-6.125,-15.174015088401047,9.501421533671525,-5.035213500024399,5.874000000003434
0.1629,0.9508,-0.2535,0.0592,0.1458,-0.0898,-0.6037,-3.43,-5.425,-15.03569384631248,9.479038184387019,-5.0900935000106236,5.889999999999418
0.1629,0.9508,-0.2535,0.058,0.1455,-0.0978,0.07,-3.4562,-5.5563,-14.994772323750361,9.468626823306478,-5.0900935000106236,5.889999999999418
0.1651,0.9461,-0.255,0.058,0.1455,-0.0978,0.07,-3.4562,-5.5563,-15.029058749876617,9.481182504555488,-5.1453927000218895,5.9060000000026776
0.1612,0.9561,-0.2602,0.058,0.1455,-0.0978,0.3938,-3.115,-5.4862,-15.073671160935291,9.437481566720484,-5.1453927000218895,5.9060000000026776
0.1557,0.9572,-0.2613,0.0578,0.1457,-0.0953,0.0088,-3.8412,-5.6,-15.1527460961879,9.386982542443242,-5.203010699991705,5.9209999999948195
0.1613,0.9517,-0.2617,0.0578,0.1457,-0.0953,-0.035,-4.2525,-5.1363,-15.246286701678878,9.348534904049211,-5.203010699991705,5.9209999999948195
0.1613,0.9517,-0.2566,0.0585,0.1444,-0.0931,-0.035,-4.2525,-5.1363,-15.180350049389384,9.328575819038692,-5.271050700005567,5.936999999998079
0.1606,0.9595,-0.2566,0.0585,0.1444,-0.0931,0.1312,-4.55,-5.4425,-15.105747867021936,9.29848548600422,-5.271050700005567,5.936999999998079
0.1538,0.9667,-0.2627,0.0591,0.1467,-0.0936,-0.1663,-4.7512,-5.4163,-15.150591783066687,9.16985958817254,-5.342318700037371,5.952000000004773
0.1563,0.9599,-0.2651,0.0591,0.1467,-0.0936,-0.1663,-4.7512,-5.4163,-15.28355784543718,9.113482705166083,-5.342318700037371,5.952000000004773
0.1611,0.9586,-0.2632,0.0591,0.1467,-0.0936,-0.4812,-4.8212,-5.635,-15.321121133912303,9.119707527541129,-5.419457900018007,5.968000000000757
0.1656,0.9653,-0.2626,0.0601,0.1451,-0.0894,0.0613,-5.4775,-5.3288,-15.281480354171466,9.19654408641803,-5.419457900018007,5.968000000000757
0.1656,0.9653,-0.2626,0.0601,0.1451,-0.0894,0.4375,-5.1537,-5.1013,-15.268765184344844,9.273093610579645,-5.501917100034806,5.984000000004016
0.1652,0.9709,-0.2636,0.0605,0.1468,-0.0993,0.4375,-5.1537,-5.1013,-15.252812469000729,9.29274263587181,-5.501917100034806,5.984000000004016
0.1689,0.9646,-0.2669,0.0605,0.1468,-0.0993,-0.6125,-5.5475,-4.97,-15.373701813365317,9.414201272417317,-5.585129599991213,5.998999999996158
0.1674,0.9635,-0.2668,0.0605,0.1468,-0.0993,-0.8662,-5.0487,-5.215,-15.43707243421375,9.444325115737266,-5.585129599991213,5.998999999996158
0.166,0.9643,-0.2647,0.0607,0.147,-0.0972,-0.4638,-5.0925,-5.285,-15.390206416404402,9.43871059948936,-5.666609600007813,6.014999999999418
0.166,0.9643,-0.2672,0.0607,0.147,-0.0972,-0.4638,-5.0925,-5.285,-15.442404803129534,9.432937390871594,-5.666609600007813,6.014999999999418
0.1684,0.962,-0.2672,0.0622,0.1442,-0.0958,-0.4988,-5.2413,-5.0838,-15.486117861846775,9.487050646856176,-5.745229100042898,6.030000000006112
0.1665,0.9579,-0.2651,0.0622,0.1442,-0.0958,-1.3825,-5.3288,-5.32,-15.47490333693527,9.493442620119508,-5.745229100042898,6.030000000006112
0.1688,0.9564,-0.2622,0.0622,0.1442,-0.0958,-0.7962,-4.9437,-5.3113,-15.388952535590644,9.54072026207101,-5.9034275000391565,6.062000000005355
0.1706,0.9543,-0.262,0.0608,0.1456,-0.0937,-0.7962,-4.9437,-5.3113,-15.366925814363958,9.608965618643575,-5.9034275000391565,6.062000000005355
0.1716,0.9551,-0.2602,0.0608,0.1456,-0.0937,-0.5075,-4.1825,-5.425,-15.297416931365811,9.65866218875106,-5.974530000038426,6.0790000000051805
0.1716,0.9551,-0.2602,0.0604,0.1438,-0.0962,-0.6212,-3.7538,-5.5738,-15.26449000187538,9.679421758401672,-5.9820376000399555,6.081000000005588
0.1647,0.9534,-0.2613,0.0604,0.1438,-0.0962,0.0088,-3.4125,-5.6438,-15.28973914284653,9.666177803313849,-5.988862600016517,6.082999999998719
0.1657,0.9525,-0.2611,0.0604,0.1438,-0.0962,0.0088,-3.4125,-5.6438,-15.305813912160346,9.657639591133835,-5.992275100029627,6.084000000002561
0.1632,0.9553,-0.263,0.0624,0.1446,-0.0853,0.4725,-2.38,-5.8625,-15.321322595161412,9.616821486541324,-5.992275100029627,6.084000000002561
0.1632,0.9579,-0.2658,0.0624,0.1446,-0.0853,0.3325,-2.4413,-6.09,-15.370604373880692,9.535579090283369,-6.031335900037584,6.100000000005821
0.1632,0.9579,-0.2643,0.0619,0.1445,-0.0884,0.3325,-2.3537,-5.9938,-15.384945174806276,9.489125421969725,-6.031335900037584,6.100000000005821
0.162,0.9586,-0.2643,0.0619,0.1445,-0.0884,0.3413,-2.3537,-5.9938,-15.392540188635563,9.436641532553432,-6.066641400019089,6.114999999997963
0.1607,0.9568,-0.2718,0.0414,0.1464,-0.0992,1.2687,-2.2138,-6.0375,-15.563255797372594,9.372396541130552,-6.066641400019089,6.114999999997963
0.1629,0.956,-0.2673,0.061,0.1464,-0.0992,1.3825,-1.9075,-6.44,-15.58692951682005,9.349983978526415,-6.097161400025306,6.131000000001222
0.1622,0.9571,-0.2696,0.061,0.1464,-0.0992,1.3825,-1.9075,-6.44,-15.646150020810216,9.31389704477999,-6.097161400025306,6.131000000001222
0.1615,0.959,-0.2719,0.061,0.146,-0.0928,1.33,-2.1613,-6.3525,-15.717622014409637,9.270423991057962,-6.131742200032351,6.147000000004482
0.1615,0.959,-0.2719,0.061,0.146,-0.0928,1.225,-2.2925,-5.46,-15.756547318767584,9.25703864328885,-6.166129700031016,6.1620000000039
0.1602,0.959,-0.2692,0.0623,0.1451,-0.0914,1.9775,-1.6363,-5.1625,-15.713417211673812,9.21460722733676,-6.166129700031016,6.1620000000039
0.1631,0.9568,-0.268,0.0623,0.1451,-0.0914,1.9775,-1.6363,-5.1625,-15.676362255419056,9.252418663871499,-6.192310500024444,6.177999999999884
0.1614,0.9614,-0.2716,0.0623,0.1451,-0.0914,1.4175,-1.3388,-4.9963,-15.717993335301403,9.221168886203328,-6.192310500024444,6.177999999999884
0.1615,0.9618,-0.2718,0.0612,0.1461,-0.0917,1.2337,-0.9363,-4.095,-15.739838990251053,9.1950559152183,-6.206355000023899,6.1929999999993015
0.1615,0.9618,-0.2718,0.0612,0.1461,-0.0917,0.8838,-1.12,-3.9725,-15.746358375753152,9.184783760517615,-6.206355000023899,6.1929999999993015
0.1585,0.9628,-0.2723,0.0612,0.1458,-0.0944,0.8838,-1.12,-3.9725,-15.753763471221683,9.068479153125333,-6.22427500002755,6.209000000002561
0.16,0.9634,-0.2745,0.0612,0.1458,-0.0944,0.3938,-1.47,-4.5325,-15.788057301973994,9.071850984390734,-6.22427500002755,6.209000000002561
0.1587,0.9644,-0.2713,0.0612,0.1458,-0.0944,0.3938,-1.8112,-5.8362,-15.770685863159557,9.06382945962214,-6.253254200020276,6.224999999998545
0.1609,0.959,-0.2721,0.0614,0.1476,-0.0973,-0.315,-2.6075,-7.1137,-15.805629490723135,9.125229469488778,-6.253254200020276,6.224999999998545
0.1611,0.9549,-0.2716,0.0614,0.1476,-0.0973,-0.315,-2.6075,-7.1137,-15.841517511760513,9.17896809597938,-6.292366700018758,6.239999999997963
0.1611,0.9549,-0.2716,0.06,0.1466,-0.0971,-0.3675,-2.8175,-7.4462,-15.85986921235503,9.20323224978054,-6.292366700018758,6.239999999997963
0.1581,0.9592,-0.2708,0.06,0.1466,-0.0971,-0.5425,-2.7912,-7.0175,-15.807689544768923,9.095597111974758,-6.337025900027856,6.256000000001222
0.1568,0.9612,-0.2691,0.06,0.1466,-0.0971,-0.6388,-3.2987,-7.175,-15.712146896810093,8.995686685583307,-6.337025900027856,6.256000000001222
0.1571,0.9634,-0.2671,0.0607,0.1458,-0.0961,-0.6388,-3.2987,-7.175,-15.588742364318723,8.956902434717392,-6.386506400025937,6.27100000000064
0.1566,0.9654,-0.2688,0.0607,0.1458,-0.0961,-0.8575,-3.7362,-6.86,-15.570674432087594,8.916629429993982,-6.386506400025937,6.27100000000064
0.1566,0.9654,-0.2688,0.0626,0.1466,-0.0982,-0.63,-3.8325,-6.7987,-15.564031875203895,8.898393795971277,-6.447826400038429,6.2870000000039
0.1556,0.9633,-0.2696,0.0626,0.1466,-0.0982,-0.63,-3.8325,-6.195,-15.604644616274133,8.879771540639702,-6.447826400038429,6.2870000000039
0.152,0.9692,-0.2736,0.0626,0.1458,-0.097,-1.0412,-3.7013,-6.195,-15.705715546225884,8.782528041052982,-6.510748500010853,6.303999999996449
0.1543,0.9665,-0.2694,0.0632,0.1458,-0.097,-1.33,-4.2438,-6.72,-15.618386549236998,8.762534281308257,-6.510748500010853,6.303999999996449
0.1576,0.9653,-0.2683,0.0632,0.1458,-0.097,-1.3913,-4.0687,-6.8338,-15.560701540669157,8.856266702408726,-6.571779000038088,6.319000000003143
0.1595,0.9646,-0.268,0.0634,0.1477,-0.0915,-1.3913,-4.0687,-6.8338,-15.538054575247086,8.96004975075039,-6.571779000038088,6.319000000003143
0.1595,0.9646,-0.268,0.0634,0.1477,-0.0915,-1.0412,-3.5,-6.09,-15.531157815047486,8.985538441537887,-6.627779000049497,6.335000000006403
0.1604,0.9586,-0.268,0.0645,0.1472,-0.0905,-0.8313,-3.43,-5.9588,-15.584543293964838,9.019428560531766,-6.627779000049497,6.335000000006403
0.1585,0.9603,-0.2684,0.0645,0.1472,-0.0905,-0.7962,-3.325,-5.8187,-15.603028549304128,9.020703916382379,-6.677654000023368,6.349999999998545
0.156,0.9607,-0.2735,0.0645,0.1472,-0.0905,-0.7962,-3.325,-5.8187,-15.775199750259304,9.00629986983994,-6.677654000023368,6.349999999998545
0.1541,0.9608,-0.2743,0.0623,0.1465,-0.1062,-0.9363,-2.8437,-4.865,-15.873279882665546,8.897035193527064,-6.7231532000326375,6.366000000001804
0.1541,0.9608,-0.2743,0.0623,0.1465,-0.1062,0.0175,-2.4588,-5.25,-15.897530954685195,8.856323350033428,-6.7231532000326375,6.366000000001804
0.1559,0.9631,-0.2714,0.0645,0.1461,-0.0941,-0.5688,-2.73,-5.7137,-15.808480265247272,8.856320052738987,-6.766833200021673,6.381999999997788
0.1514,0.9646,-0.2731,0.0645,0.1461,-0.0941,-0.5688,-2.73,-5.7137,-15.808219932975446,8.854721651119954,-6.766833200021673,6.381999999997788
0.1558,0.9633,-0.2693,0.0645,0.1461,-0.0941,-0.595,-2.9662,-5.8275,-15.70172245772002,8.854584988439173,-6.8113262000415284,6.397000000004482
0.1544,0.9614,-0.2697,0.0634,0.148,-0.1011,-0.6388,-3.1937,-5.9938,-15.68380119774128,8.840224017065683,-6.8113262000415284,6.397000000004482
0.1558,0.9577,-0.2671,0.0634,0.148,-0.1011,-0.6737,-2.5025,-5.95,-15.626014507810805,8.853031173277904,-6.851366200031477,6.413000000000466
0.1558,0.9577,-0.2671,0.0656,0.1457,-0.0931,-0.6737,-2.5025,-5.95,-15.601569071158119,8.863340477790471,-6.851366200031477,6.413000000000466
0.1549,0.9533,-0.2694,0.0656,0.1457,-0.0931,-0.4988,-2.5375,-5.6788,-15.698568228057468,8.864006829619957,-6.88942870003,6.427999999999884
0.1543,0.9545,-0.2718,0.0656,0.1457,-0.0931,-0.4638,-2.7738,-5.635,-15.803615138025709,8.862196166288935,-6.88942870003,6.427999999999884
0.1549,0.9521,-0.2673,0.0667,0.1482,-0.0973,-0.5075,-3.045,-5.6438,-15.737321375510142,8.86460553989194,-6.938148700039926,6.444000000003143
0.1543,0.9527,-0.2673,0.0667,0.1482,-0.0973,-0.5075,-3.045,-5.6438,-15.70203854977179,8.864525716676734,-6.938148700039926,6.444000000003143
0.1543,0.9527,-0.2673,0.0656,0.1466,-0.0952,-0.1312,-2.9925,-5.985,-15.688753465463392,8.864254564486636,-6.986028700027907,6.459999999999127
0.1564,0.9558,-0.2679,0.0656,0.1466,-0.0952,0.385,-2.6513,-5.8975,-15.681465693057959,8.878560562987731,-6.986028700027907,6.459999999999127
0.1521,0.9607,-0.2694,0.0656,0.1471,-0.0929,0.385,-2.6513,-6.0113,-15.677518774854141,8.829416806179307,-7.0257982000263635,6.474999999998545
0.1562,0.9581,-0.2747,0.0638,0.1471,-0.0929,0.105,-3.395,-6.0113,-15.79594075434893,8.847430252346568,-7.0257982000263635,6.474999999998545
0.1553,0.961,-0.2708,0.0638,0.1471,-0.0929,0.1138,-3.7713,-6.2038,-15.774497226967625,8.845370344899333,-7.086139000038656,6.491000000001804
0.152,0.9627,-0.2722,0.0628,0.1459,-0.0944,-0.0175,-3.8588,-5.0225,-15.780118569313796,8.761476890436633,-7.086139000038656,6.491000000001804
0.152,0.9627,-0.2722,0.0628,0.1459,-0.0944,-0.0175,-3.8588,-5.0225,-15.783410321897625,8.711694664930656,-7.14402100003641,6.506000000001222
0.1513,0.9656,-0.2724,0.0689,0.1487,-0.0922,0.0088,-3.57,-4.3663,-15.771488399693048,8.633855881707404,-7.201141000048048,6.522000000004482
0.1503,0.9679,-0.2761,0.0689,0.1487,-0.0922,0.035,-3.2025,-4.0425,-15.83073365730502,8.545913918520649,-7.201141000048048,6.522000000004482
0.1466,0.9736,-0.2711,0.0689,0.1487,-0.0922,-0.6475,-3.5525,-4.3663,-15.67576611357319,8.378426618514352,-7.26153350002158,6.538999999997031
0.1476,0.9706,-0.2768,0.062,0.1482,-0.1027,-0.6475,-3.5525,-4.3663,-15.813992939759935,8.344937914867998,-7.265086000035227,6.540000000000873
0.1476,0.9706,-0.2768,0.062,0.1482,-0.1027,-1.3212,-3.8238,-4.83,-15.883010935633571,8.333268223127627,-7.265086000035227,6.540000000000873
0.1438,0.9683,-0.2766,0.066,0.1477,-0.093,-1.61,-3.9025,-5.355,-15.92431369066632,8.279397998523526,-7.323623500032956,6.555000000000291
0.1467,0.9606,-0.2718,0.066,0.1477,-0.093,-1.4963,-4.5588,-5.7838,-15.838163696904969,8.285074099812126,-7.396564300047816,6.571000000003551
0.154,0.959,-0.2693,0.066,0.1477,-0.093,-1.4963,-4.5588,-5.7838,-15.733375658373582,8.320676385197178,-7.396564300047816,6.571000000003551
0.1538,0.9619,-0.2689,0.0629,0.1474,-0.0938,-1.2163,-4.34,-6.3437,-15.65794639630126,8.48917176227223,-7.396564300047816,6.571000000003551
0.1538,0.9594,-0.2754,0.0629,0.1474,-0.0938,-1.505,-4.1737,-6.09,-15.90418710113098,8.563955744732056,-7.459169800015019,6.585999999995693
0.1538,0.9594,-0.2754,0.0645,0.1456,-0.0933,-1.1113,-3.9113,-5.2238,-15.976319243682273,8.627748439103396,-7.459169800015019,6.585999999995693
0.1517,0.9557,-0.2732,0.0645,0.1456,-0.0933,-1.1113,-3.9113,-5.2238,-15.961525570364149,8.643950456994755,-7.521750600027768,6.601999999998952
0.1521,0.9581,-0.2691,0.0645,0.1456,-0.0933,-0.595,-3.4562,-4.795,-15.80790426065269,8.6657848013505,-7.521750600027768,6.601999999998952
0.1525,0.9509,-0.2713,0.0654,0.1469,-0.0937,-0.0263,-2.8087,-3.92,-15.856326099743471,8.730758830913404,-7.566689800016487,6.617999999994936
0.1529,0.96,-0.278,0.0654,0.1469,-0.0937,0.3938,-2.5287,-3.6137,-15.923501495091665,8.708573066283883,-7.604620300033414,6.63300000000163
0.1529,0.96,-0.278,0.0643,0.1465,-0.0921,0.3938,-2.5287,-3.6137,-15.975318169162032,8.70140251033866,-7.604620300033414,6.63300000000163
0.1484,0.9686,-0.2775,0.0643,0.1465,-0.0921,0.77,-2.1088,-3.3775,-15.976166256132409,8.475527406884927,-7.638361100040288,6.649000000004889
0.155,0.9653,-0.2761,0.0643,0.149,-0.0927,0.1138,-2.6075,-3.2725,-15.970934245758505,8.68859905550982,-7.638361100040288,6.649000000004889
0.1601,0.9584,-0.2735,0.0648,0.149,-0.0927,0.1138,-2.6075,-3.3425,-15.954955399635084,8.995900239221177,-7.677473600019798,6.663999999997031
0.162,0.9601,-0.2718,0.0648,0.149,-0.0927,0.28,-2.0825,-3.3425,-15.911795346560972,9.154552419698906,-7.677473600019798,6.663999999997031
0.1575,0.9593,-0.2733,0.0654,0.1473,-0.0978,0.28,-1.7587,-3.4037,-15.908946095952935,9.027864662036862,-7.705612800025531,6.680000000000291
0.1575,0.9593,-0.2733,0.0654,0.1473,-0.0978,0.35,-1.4175,-3.1063,-15.907182905773592,8.988146726099146,-7.705612800025531,6.680000000000291
0.1566,0.9581,-0.2783,0.0643,0.1471,-0.0968,0.35,-1.4175,-3.1063,-15.980760321222117,8.939223100906586,-7.728292800019838,6.695999999996275
0.1587,0.955,-0.2768,0.0643,0.1471,-0.0968,0.2275,-1.4438,-3.2375,-16.038680381808533,9.031194682138853,-7.728292800019838,6.695999999996275
0.1602,0.9569,-0.2711,0.0643,0.1471,-0.0968,-0.0787,-1.7062,-3.43,-15.942752328691752,9.114016069924302,-7.7538858000312585,6.711000000002969
0.1615,0.9574,-0.2787,0.0633,0.1467,-0.0825,-0.1225,-1.505,-3.3688,-16.0716823610784,9.174190586948955,-7.7538858000312585,6.711000000002969
0.1615,0.9574,-0.2787,0.0633,0.1467,-0.0825,-0.1225,-1.505,-3.3688,-16.142808127480905,9.192212796306759,-7.7779658000361644,6.727000000006228
0.1608,0.96,-0.2774,0.064,0.1452,-0.0932,-0.035,-1.1375,-3.43,-16.131997520259805,9.156957129912762,-7.7779658000361644,6.727000000006228
0.1623,0.961,-0.2782,0.064,0.1452,-0.0932,-0.1575,-1.5662,-3.675,-16.13805804454947,9.195575232266128,-7.801458800023857,6.74199999999837
0.1634,0.9612,-0.2826,0.064,0.1452,-0.0932,-0.7,-1.1812,-4.0338,-16.280947883768448,9.237775258023166,-7.801458800023857,6.74199999999837
0.162,0.9636,-0.2816,0.0632,0.1489,-0.0925,-0.7,-1.1812,-4.0338,-16.286410134564637,9.19334101225555,-7.820358000027707,6.75800000000163
0.166,0.963,-0.2829,0.0632,0.1489,-0.0925,-0.9275,-1.1463,-4.7688,-16.338795395555877,9.289097809598637,-7.820358000027707,6.75800000000163
0.166,0.963,-0.2829,0.0645,0.145,-0.0928,-0.91,-0.6737,-4.5413,-16.35872404272453,9.344008451558716,-7.831137200025002,6.7739999999976135
0.1631,0.9656,-0.2718,0.0645,0.145,-0.0928,-0.5163,-0.2013,-4.2613,-16.010025037024654,9.279571244030933,-7.831137200025002,6.7739999999976135
0.1584,0.9612,-0.2766,0.0645,0.145,-0.0928,-0.5163,-0.2013,-4.2613,-16.03406048703131,9.113711800497258,-7.834156700026349,6.789000000004307
0.1602,0.9555,-0.272,0.0642,0.1466,-0.0934,-1.1113,0.735,-3.3512,-15.941385238113552,9.146452140696516,-7.834156700026349,6.789000000004307
0.1619,0.954,-0.2736,0.0642,0.1466,-0.0934,-1.6275,0.8313,-2.835,-15.984073495104369,9.234439660961476,-7.820855900029688,6.805000000000291
0.1619,0.954,-0.2736,0.0629,0.1444,-0.0888,-1.2775,0.9975,-2.59,-15.996285571867595,9.257630121228507,-7.820855900029688,6.805000000000291
0.1624,0.9569,-0.2732,0.0629,0.1444,-0.0888,-1.2775,0.9975,-2.59,-15.95520247924738,9.265942591435925,-7.805893400030269,6.819999999999709
0.163,0.9574,-0.2749,0.0629,0.1444,-0.0896,-0.9013,1.1988,-3.1237,-15.995276542015562,9.285847438215043,-7.805893400030269,6.819999999999709
0.1653,0.9564,-0.2718,0.061,0.1445,-0.0896,-0.665,1.6275,-3.29,-15.920117255682795,9.394346518578129,-7.7798534000249635,6.836000000002969
0.1679,0.9595,-0.2722,0.061,0.1445,-0.0896,-0.665,1.6275,-3.29,-15.87291139618659,9.508558654513244,-7.7798534000249635,6.836000000002969
0.1698,0.959,-0.2736,0.0614,0.1458,-0.094,-0.9538,2.7213,-3.7362,-15.904241675423908,9.610917785328954,-7.736312600035893,6.851999999998952
0.1698,0.959,-0.2736,0.0614,0.1458,-0.094,-1.0762,2.9838,-3.9025,-15.91641013646742,9.64432883283633,-7.736312600035893,6.851999999998952
0.164,0.9599,-0.2721,0.0616,0.1459,-0.0894,-1.3038,3.1063,-4.1737,-15.856386591061282,9.45676982806222,-7.689718100037701,6.86699999999837
0.1627,0.959,-0.2708,0.0616,0.1459,-0.0894,-1.3038,3.1063,-4.1737,-15.797843872943982,9.345484017499562,-7.689718100037701,6.86699999999837
0.1624,0.9548,-0.2664,0.0616,0.1459,-0.0894,-1.0588,3.0187,-4.445,-15.665418364591403,9.322415459020046,-7.641418900049825,6.882999999994354
0.1576,0.9519,-0.2688,0.061,0.1455,-0.0917,-1.155,2.7037,-3.9725,-15.732436432970585,9.151500234186281,-7.600863400031726,6.898000000001048
0.1576,0.9519,-0.2688,0.061,0.1455,-0.0917,-1.0588,3.1063,-3.8412,-15.75554445669719,9.08736366308294,-7.600863400031726,6.898000000001048
0.1577,0.9556,-0.2727,0.0614,0.147,-0.099,-1.0588,3.1063,-3.8412,-15.864744877820195,9.04167105694516,-7.551162600021601,6.914000000004307
0.1565,0.9617,-0.2728,0.0614,0.147,-0.099,-0.5425,3.3075,-2.9925,-15.849287768747768,8.936498765527501,-7.551162600021601,6.914000000004307
0.1529,0.9687,-0.275,0.0614,0.147,-0.099,-0.7875,2.7387,-3.5438,-15.848807136750487,8.729518689480564,-7.5073434000326005,6.930000000000291
0.1535,0.9695,-0.2751,0.0613,0.1458,-0.0923,-0.77,2.2138,-4.0425,-15.84448793290812,8.686386716239094,-7.5073434000326005,6.930000000000291
0.1535,0.9704,-0.2716,0.0613,0.1458,-0.0923,-0.77,2.2138,-4.0425,-15.720811889218023,8.670642981127463,-7.474136400033889,6.944999999999709
0.1497,0.9704,-0.2716,0.0585,0.1452,-0.0948,-1.2862,1.5575,-4.1825,-15.664570547701182,8.537320889280748,-7.474136400033889,6.944999999999709
0.1498,0.968,-0.2759,0.0585,0.1452,-0.0948,-1.9863,0.8575,-5.4513,-15.842258674305754,8.522544489475678,-7.460416400037333,6.960999999995693
0.1552,0.9678,-0.2729,0.0585,0.1452,-0.0948,-1.9863,-0.3063,-5.6175,-15.77318458500588,8.543357280991689,-7.460416400037333,6.960999999995693
0.1598,0.962,-0.2668,0.0603,0.1461,-0.0904,-1.9863,-0.3063,-5.6175,-15.574860674624565,8.588936695182916,-7.465010900039384,6.9760000000023865
