AcclX,AcclY,AcclZ,MagX,MagY,MagZ,GyroX,GyroY,GyroZ,Roll,Pitch,Yaw,Time Elapsed(s)
0.2814,0.9231,-0.2478,0.0073,0.1195,-0.0547,-0.0175,-0.2362,-5.4075,0,0,0,0.0
0.2814,0.9231,-0.2486,0.0073,0.1195,-0.0547,0.0437,-0.42,-4.9437,0,0,0,0.01599999999598367
0.2782,0.9235,-0.2486,0.0098,0.1191,-0.0634,-0.4025,-0.4375,-4.97,0,0,0,0.01599999999598367
0.2776,0.9202,-0.2486,0.0098,0.1191,-0.0634,-0.0525,-0.0437,-4.6287,0,0,0,0.0319999999992433
0.2804,0.9196,-0.2472,0.0098,0.1191,-0.0634,-0.0525,-0.0437,-4.6287,0,0,0,0.0319999999992433
0.2808,0.9233,-0.2472,0.0083,0.1198,-0.056,0.14,-0.6125,-4.7075,0,0,0,0.046999999998661224
0.2829,0.9245,-0.2507,0.0083,0.1198,-0.056,0.2013,-0.5425,-5.0838,0,0,0,0.046999999998661224
0.2829,0.9245,-0.2507,0.0078,0.1204,-0.066,-0.0088,-0.84,-4.9,0,0,0,0.0629999999946449
0.2812,0.9254,-0.251,0.0078,0.1204,-0.066,-0.0088,-0.84,-4.9,0,0,0,0.0629999999946449
0.2841,0.9267,-0.2489,0.0078,0.1204,-0.066,-0.2713,-1.4875,-5.0225,0,0,0,0.07800000000133878
0.2818,0.9249,-0.2434,0.0074,0.122,-0.0605,-0.4725,-1.645,-5.53,0,0,0,0.07800000000133878
0.2806,0.9235,-0.2479,0.0074,0.122,-0.0605,-0.4725,-1.645,-5.7488,0,0,0,0.09399999999732245
0.2806,0.9235,-0.2479,0.0081,0.1215,-0.0616,-1.085,-1.9338,-5.7488,0,0,0,0.09399999999732245
0.2809,0.9224,-0.2439,0.0081,0.1215,-0.0616,-1.3125,-2.1263,-6.1512,0,0,0,0.11000000000058208
0.2822,0.918,-0.2469,0.0081,0.1206,-0.0697,-1.225,-1.9775,-6.1075,0,0,0,0.11000000000058208
0.2831,0.914,-0.2464,0.0085,0.1206,-0.0697,-1.225,-1.9775,-6.1075,0,0,0,0.12499999999272404
0.2836,0.9124,-0.2464,0.0085,0.1206,-0.0697,-0.9275,-1.8813,-6.0988,0,0,0,0.12499999999272404
0.2859,0.9096,-0.2431,0.01,0.1217,-0.0572,-0.9887,-1.715,-6.5363,0,0,0,0.14099999999598367
0.2859,0.9096,-0.2431,0.01,0.1217,-0.0572,-0.9712,-1.68,-6.44,0,0,0,0.14099999999598367
0.2915,0.9059,-0.241,0.007,0.1199,-0.0599,-0.9712,-1.68,-6.44,0,0,0,0.15600000000267755
0.291,0.9049,-0.2497,0.007,0.1199,-0.0599,0.1925,-0.5512,-6.3088,0,0,0,0.15600000000267755
0.2903,0.9066,-0.2453,0.007,0.1199,-0.0599,1.0237,0.1663,-7.2275,0,0,0,0.17199999999866122
0.2943,0.9066,-0.2461,0.0086,0.1206,-0.0756,1.6538,0.7175,-8.1112,0,0,0,0.17199999999866122
0.2943,0.9066,-0.2461,0.0086,0.1206,-0.0756,1.6538,0.7175,-8.1112,0,0,0,0.1879999999946449
0.3043,0.906,-0.248,0.0084,0.121,-0.0643,2.0475,0.8662,-8.4963,0,0,0,0.1879999999946449
0.3116,0.9092,-0.2495,0.0084,0.121,-0.0643,2.6163,1.995,-8.995,0,0,0,0.20299999999406282
0.3245,0.9129,-0.2449,0.0084,0.121,-0.0643,3.1588,3.465,-8.8988,0,0,0,0.20299999999406282
0.3302,0.9041,-0.2461,0.0102,0.123,-0.0664,3.1588,3.465,-8.8988,0,0,0,0.21899999999732245
0.3274,0.9062,-0.248,0.0102,0.123,-0.0664,3.6488,5.075,-8.4175,0,0,0,0.21899999999732245
0.3274,0.9062,-0.248,0.0101,0.1201,-0.0654,3.5963,6.6325,-7.6562,0,0,0,0.23399999999674037
0.3174,0.9089,-0.2501,0.0101,0.1201,-0.0654,3.5963,7.525,-7.2013,0,0,0,0.23399999999674037
0.3059,0.9163,-0.251,0.0101,0.1201,-0.0654,3.5963,7.525,-7.2013,0,0,0,0.24999999999272404
0.2974,0.9152,-0.2555,0.009,0.1213,-0.0633,3.4125,7.4025,-7.2975,0,0,0,0.24999999999272404
0.2976,0.9156,-0.2552,0.009,0.1213,-0.0633,3.5087,6.965,-7.91,0,0,0,0.26599999999598367
0.2976,0.9156,-0.2552,0.009,0.1216,-0.0723,3.5087,6.965,-7.91,0,0,0,0.26599999999598367
0.2878,0.9229,-0.2575,0.009,0.1216,-0.0723,3.36,6.3963,-8.925,0,0,0,0.2809999999954016
0.2854,0.927,-0.2554,0.009,0.1216,-0.0779,3.15,5.39,-9.3975,0,0,0,0.2809999999954016
0.2875,0.9241,-0.256,0.0088,0.1213,-0.0779,3.535,5.2675,-9.9925,0,0,0,0.2969999999986612
0.3009,0.9138,-0.2453,0.0088,0.1213,-0.0779,3.535,5.2675,-9.9925,0,0,0,0.2969999999986612
0.2988,0.9086,-0.2527,0.0123,0.1224,-0.0675,3.2987,5.6,-10.3775,0,0,0,0.31199999999807915
0.2988,0.9086,-0.2527,0.0123,0.1224,-0.0675,5.1275,7.2713,-11.6375,0,0,0,0.31199999999807915
0.2889,0.8992,-0.2721,0.01,0.1237,-0.0754,5.8975,6.825,-10.4825,0,0,0,0.3279999999940628
0.2822,0.9023,-0.262,0.01,0.1237,-0.0754,5.8975,6.825,-10.4825,0,0,0,0.3279999999940628
0.2744,0.9103,-0.274,0.01,0.1237,-0.0754,5.95,6.475,-9.52,0,0,0,0.34399999999732245
0.2716,0.917,-0.2711,0.0113,0.1246,-0.0655,6.545,5.4513,-9.835,0,0,0,0.34399999999732245
0.2716,0.917,-0.2711,0.0113,0.1246,-0.0655,6.09,4.725,-9.9925,0,0,0,0.35899999999674037
0.2708,0.9243,-0.2719,0.0135,0.1246,-0.0705,6.09,4.725,-9.9925,0,0,0,0.35899999999674037
0.2691,0.9323,-0.2741,0.0135,0.1246,-0.0705,4.725,3.9987,-10.4213,0,0,0,0.375
0.2721,0.9395,-0.2691,0.0135,0.1246,-0.0705,3.08,3.4913,-11.3313,0,0,0,0.375
0.2813,0.9417,-0.2706,0.0134,0.1237,-0.0732,2.0213,2.8087,-12.1713,0,0,0,0.38999999999214197
0.2813,0.9377,-0.2626,0.0134,0.1237,-0.0732,2.0213,2.8087,-12.1713,0,0,0,0.4059999999954016
0.289,0.9377,-0.2626,0.014,0.1241,-0.0746,-0.1925,2.59,-12.67,0,0,0,0.4059999999954016
0.2908,0.9312,-0.2639,0.014,0.1241,-0.0746,-1.1463,3.745,-12.9937,0,0,0,0.4219999999986612
0.2836,0.9293,-0.2629,0.014,0.1241,-0.0746,-1.1463,4.935,-13.1075,0,0,0,0.4219999999986612
0.2761,0.9265,-0.2575,0.0138,0.1233,-0.0778,-1.9512,4.935,-13.1075,0,0,0,0.4219999999986612
0.2685,0.9273,-0.2546,0.0138,0.1233,-0.0778,-2.4413,5.2413,-13.6938,0,0,0,0.43699999999807915
0.2685,0.9273,-0.2546,0.0165,0.1231,-0.0682,-2.8875,4.9175,-14.0875,0,0,0,0.4530000000013388
0.2679,0.9368,-0.2532,0.0165,0.1231,-0.0682,-2.8875,4.9175,-14.0875,0,0,0,0.4530000000013388
0.2636,0.9467,-0.2528,0.0165,0.1231,-0.0682,-3.1937,4.8475,-14.735,0,0,0,0.46799999999348074
0.2603,0.9407,-0.2445,0.0165,0.1246,-0.0738,-3.8063,5.11,-15.4263,0,0,0,0.46799999999348074
0.2591,0.9352,-0.239,0.0165,0.1246,-0.0738,-3.745,5.7137,-15.925,0,0,0,0.48399999999674037
0.2591,0.9331,-0.2333,0.0182,0.1266,-0.0732,-3.745,5.7137,-15.925,0,0,0,0.48399999999674037
0.2628,0.9331,-0.2333,0.0182,0.1266,-0.0732,-3.3512,5.6087,-16.1525,0,0,0,0.5
0.2613,0.9299,-0.2317,0.0189,0.1239,-0.0725,-3.36,6.2038,-16.1612,0,0,0,0.5
0.2628,0.927,-0.2341,0.0189,0.1239,-0.0725,-2.7475,6.6675,-15.715,0,0,0,0.514999999992142
0.2625,0.9264,-0.2292,0.0189,0.1239,-0.0725,-2.7475,6.6675,-15.715,0,0,0,0.514999999992142
0.2612,0.9281,-0.2319,0.0199,0.1276,-0.0749,-1.96,6.9125,-14.665,0,0,0,0.5309999999954016
0.2612,0.9281,-0.2319,0.0199,0.1276,-0.0749,-0.49,7.8925,-13.8162,0,0,0,0.5309999999954016
0.2592,0.9292,-0.2347,0.0218,0.1257,-0.0708,0.9363,8.6713,-12.6613,0,0,0,0.5459999999948195
0.26,0.9348,-0.2305,0.0218,0.1257,-0.0708,0.9363,8.6713,-12.6613,0,0,0,0.5459999999948195
0.2595,0.9321,-0.2313,0.0218,0.1257,-0.0708,1.5575,9.5375,-12.0662,0,0,0,0.5619999999980791
0.2582,0.9294,-0.2319,0.023,0.1279,-0.0814,2.4325,9.9575,-11.2175,0,0,0,0.5619999999980791
0.2596,0.9304,-0.229,0.023,0.1279,-0.0814,3.9462,10.7537,-10.5,0,0,0,0.5789999999979045
0.2596,0.9304,-0.229,0.022,0.1272,-0.075,3.9462,10.7537,-10.5,0,0,0,0.5789999999979045
0.2635,0.9227,-0.2311,0.022,0.1272,-0.075,4.1213,11.3313,-9.94,0,0,0,0.5939999999973224
0.2636,0.9196,-0.2306,0.022,0.1272,-0.075,4.5062,12.2325,-9.3625,0,0,0,0.5939999999973224
0.2626,0.9217,-0.2341,0.0219,0.1272,-0.0756,4.5062,12.2325,-8.75,0,0,0,0.6100000000005821
0.2535,0.9348,-0.2445,0.0219,0.1272,-0.0756,5.0662,12.5738,-8.75,0,0,0,0.6100000000005821
0.2535,0.9348,-0.2445,0.0221,0.1282,-0.0766,4.9525,13.265,-8.4963,0,0,0,0.624999999992724
0.2506,0.9474,-0.2461,0.0221,0.1282,-0.0766,5.0487,13.1337,-7.7875,0,0,0,0.624999999992724
0.2466,0.9504,-0.2482,0.0221,0.1282,-0.0803,5.0487,13.1337,-7.7875,0,0,0,0.6409999999959837
0.246,0.9463,-0.2493,0.0224,0.128,-0.0803,4.6287,13.125,-7.5687,0,0,0,0.6409999999959837
0.2461,0.9398,-0.2501,0.0224,0.128,-0.0803,4.5062,12.8975,-7.6475,0,0,0,0.6569999999992433
0.2496,0.9321,-0.2457,0.0223,0.1268,-0.0776,4.0425,13.2913,-7.0087,0,0,0,0.6569999999992433
0.2496,0.9321,-0.2457,0.0223,0.1268,-0.0776,4.0425,13.2913,-7.0087,0,0,0,0.6719999999986612
0.2569,0.9238,-0.2445,0.021,0.13,-0.0836,4.1737,13.1862,-6.2475,0,0,0,0.6719999999986612
0.2567,0.9214,-0.2488,0.021,0.13,-0.0836,4.655,13.7025,-5.215,0,0,0,0.6880000000019209
0.261,0.9198,-0.2516,0.021,0.13,-0.0836,4.3225,13.5887,-4.2175,0,0,0,0.6880000000019209
0.2627,0.9183,-0.2456,0.0202,0.1306,-0.0782,4.3225,13.5887,-4.2175,0,0,0,0.7029999999940628
0.2627,0.9183,-0.2456,0.0202,0.1306,-0.0782,4.83,13.2475,-4.585,0,0,0,0.7029999999940628
0.2643,0.9176,-0.2454,0.0184,0.1308,-0.0873,5.215,13.6237,-4.4363,0,0,0,0.7189999999973224
0.2614,0.9179,-0.2505,0.0184,0.1308,-0.0873,5.67,13.3175,-4.6375,0,0,0,0.7189999999973224
0.2592,0.9207,-0.2493,0.0184,0.1308,-0.0873,5.67,13.3175,-4.6375,0,0,0,0.7350000000005821
0.2622,0.9215,-0.2461,0.0167,0.131,-0.0847,6.125,13.4663,-5.0312,0,0,0,0.7350000000005821
0.2779,0.9231,-0.2428,0.0167,0.131,-0.0847,5.7137,13.0375,-5.5738,0,0,0,0.749999999992724
0.2704,0.9231,-0.2428,0.0167,0.1302,-0.0879,5.4513,13.2475,-5.9237,0,0,0,0.749999999992724
0.2747,0.9255,-0.2373,0.0167,0.1302,-0.0879,5.4513,13.2475,-5.9237,0,0,0,0.7659999999959837
0.2747,0.9239,-0.2326,0.0167,0.1302,-0.0879,4.97,13.7025,-6.2913,0,0,0,0.7809999999954016
0.2736,0.9184,-0.2292,0.0166,0.1308,-0.0835,4.48,14.1838,-6.4225,0,0,0,0.7809999999954016
0.2664,0.9208,-0.2249,0.0166,0.1308,-0.0835,4.48,14.1838,-6.8338,0,0,0,0.7969999999986612
0.2664,0.9208,-0.2249,0.0154,0.1306,-0.0934,4.1912,14.665,-6.8338,-9.49632120142689,9.852919482977986,0.0,0.7969999999986612
0.2613,0.9262,-0.2264,0.0154,0.1306,-0.0934,4.4012,13.7025,-7.3675,-12.509056389896562,12.782536318127109,0.4247774999369904,0.8279999999940628
0.2576,0.9337,-0.2249,0.0154,0.1306,-0.0934,3.6488,13.1425,-8.33,-13.160389622601834,13.138020581853741,0.4247774999369904,0.8279999999940628
0.253,0.9398,-0.2255,0.0162,0.1326,-0.0931,3.6488,13.1425,-8.33,-13.369783980697187,13.381936923668217,0.4247774999369904,0.8279999999940628
0.2466,0.945,-0.2292,0.0162,0.1326,-0.0931,3.815,12.215,-9.2137,-13.541421031250463,13.729532405145232,0.4247774999369904,0.8279999999940628
0.2466,0.9532,-0.2233,0.016,0.1325,-0.0859,3.8588,11.1825,-10.1763,-13.307061489263559,13.984268009982683,0.6036974999734411,0.8439999999973224
0.2447,0.9532,-0.2233,0.016,0.1325,-0.0859,3.7187,9.8525,-12.0837,-13.228734920002204,14.02263864169657,0.6036974999734411,0.8439999999973224
0.2452,0.9562,-0.2198,0.016,0.1305,-0.0922,3.7187,9.8525,-12.0837,-13.047701546867488,14.029642978973754,0.7514849999677062,0.8589999999967404
0.2421,0.9553,-0.2137,0.016,0.1305,-0.0922,3.4475,9.0562,-13.8337,-12.784617255528257,13.913296895036648,0.7514849999677062,0.8589999999967404
0.2389,0.9548,-0.216,0.016,0.1305,-0.0922,3.2287,8.5575,-15.0325,-12.763585498630967,13.740994752660416,0.8884049999956005,0.875
0.2361,0.9573,-0.2126,0.0158,0.1342,-0.1018,2.555,8.0325,-15.6275,-12.671820112810664,13.56231992315151,0.8884049999956005,0.875
0.2361,0.9573,-0.2126,0.0158,0.1342,-0.1018,2.555,8.0325,-15.6275,-12.61479684014263,13.540283224658616,1.0169249999633394,0.8909999999959837
0.236,0.9578,-0.21,0.0163,0.135,-0.0974,2.625,7.6388,-15.6713,-12.514384232193885,13.533557689196163,1.0169249999633394,0.8909999999959837
0.2323,0.9548,-0.2089,0.0163,0.135,-0.0974,2.695,7.56,-15.365,-12.440219077052761,13.390589858375101,1.1303249999589389,0.9059999999954016
0.2224,0.9587,-0.213,0.0163,0.135,-0.0974,2.3012,7.0175,-14.7175,-12.462787134492656,12.847535656924979,1.1303249999589389,0.9059999999954016
0.2095,0.9631,-0.2179,0.0181,0.1336,-0.091,2.3012,7.0175,-14.7175,-12.537702149518013,12.099228757931831,1.2426049999818134,0.9219999999986612
0.1939,0.9656,-0.2198,0.0181,0.1336,-0.091,2.4325,6.1075,-14.6737,-12.63135543224353,11.221012099881776,1.2426049999818134,0.9219999999986612
0.2002,0.9656,-0.2198,0.0212,0.1346,-0.0962,2.3712,3.885,-14.8663,-12.688781816271247,11.400627424071171,1.300879999979552,0.9369999999980791
0.1992,0.9683,-0.2253,0.0212,0.1346,-0.0962,1.33,2.3625,-15.1988,-12.844840278737747,11.339426052161922,1.300879999979552,0.9369999999980791
0.1956,0.9732,-0.2269,0.0212,0.1346,-0.0962,1.33,2.3625,-15.1988,-12.951213896612161,11.109326384525037,1.3386799999872527,0.9530000000013388
0.1917,0.9736,-0.2297,0.0213,0.1338,-0.0919,1.225,1.0938,-15.6275,-13.086814745548587,10.880631448253219,1.3386799999872527,0.9530000000013388
0.1904,0.9734,-0.2256,0.0213,0.1338,-0.0919,0.1663,-0.9538,-16.0825,-13.06245841676362,10.79926068451369,1.3234191999910836,0.9689999999973224
0.1904,0.9734,-0.2256,0.0233,0.1352,-0.0931,0.1663,-0.9538,-16.8088,-13.053695375895298,10.789659912488903,1.3234191999910836,0.9689999999973224
0.1873,0.9715,-0.2258,0.0233,0.1352,-0.0931,0.2187,-2.66,-16.8088,-13.073271291425037,10.652233951638994,1.2835191999926319,0.9839999999967404
0.1843,0.9683,-0.2277,0.0233,0.1352,-0.0931,-0.7,-4.1737,-17.2375,-13.189139716096618,10.512717940724261,1.2835191999926319,0.9839999999967404
0.1863,0.9631,-0.2213,0.0246,0.1358,-0.0991,-1.5662,-4.8125,-17.2987,-12.99578532125894,10.65964142861789,1.206519199976945,1.0
0.1876,0.9625,-0.2208,0.0246,0.1358,-0.0991,-1.5662,-4.8125,-17.2987,-12.936992264047872,10.746642977017101,1.206519199976945,1.0
0.172,0.9586,-0.2318,0.0269,0.1358,-0.0985,-1.19,-4.8125,-17.535,-13.434989517003368,9.978224550048711,1.1343316999797461,1.014999999999418
0.1853,0.9586,-0.2318,0.0269,0.1358,-0.0985,-1.3737,-4.795,-17.1413,-13.557035782480327,10.572215590507158,1.1343316999797461,1.014999999999418
0.1814,0.9589,-0.228,0.0299,0.1376,-0.0931,-3.0363,-5.3463,-16.1612,-13.40542551843479,10.444910862422446,1.0487909000012186,1.0309999999954016
0.182,0.9554,-0.228,0.0299,0.1376,-0.0931,-3.0363,-5.3463,-16.1612,-13.41941411926775,10.491364964363513,1.0487909000012186,1.0309999999954016
0.1821,0.9536,-0.2307,0.0299,0.1376,-0.0931,-2.52,-5.635,-15.365,-13.566954839296153,10.511812614445674,0.9586309000238505,1.0469999999913853
0.1818,0.9541,-0.2347,0.0331,0.1371,-0.1074,-2.065,-5.6175,-14.21,-13.769381397537215,10.487207106304512,0.9586309000238505,1.0469999999913853
0.1818,0.9541,-0.2347,0.0331,0.1371,-0.1074,-2.0125,-5.8538,-12.8275,-13.809673296167077,10.48369778311581,0.8708238999846659,1.0619999999980791
0.1812,0.9515,-0.2372,0.032,0.1371,-0.1,-2.0125,-5.8538,-12.8275,-13.960003080412234,10.471838421901772,0.8708238999846659,1.0619999999980791
0.1862,0.9511,-0.2364,0.032,0.1371,-0.1,-1.6013,-6.6325,-11.865,-13.95864122146341,10.69180239142017,0.7647038999630464,1.0780000000013388
0.19,0.9523,-0.2372,0.032,0.1371,-0.1,-1.26,-6.4138,-10.815,-13.98001668172644,10.87653223053055,0.7647038999630464,1.0780000000013388
0.1951,0.9545,-0.2388,0.0324,0.1378,-0.1001,-1.1638,-6.125,-9.9225,-14.030042107068326,11.074516994960511,0.6728289000111769,1.0929999999934807
0.1951,0.9569,-0.2427,0.0324,0.1378,-0.1001,-1.1638,-6.125,-9.9225,-14.182785740177527,11.135697472291962,0.6728289000111769,1.0929999999934807
0.1937,0.9569,-0.2427,0.0347,0.1372,-0.0949,-0.6388,-5.565,-8.9775,-14.218203165027568,11.124822665670484,0.5837888999930371,1.1089999999967404
0.2017,0.9559,-0.2432,0.0347,0.1372,-0.0949,0.0875,-4.865,-8.015,-14.254699975355566,11.269774574254514,0.5837888999930371,1.1089999999967404
0.2013,0.953,-0.2416,0.0347,0.1372,-0.0949,0.3938,-4.48,-7.4812,-14.237030844870008,11.423420334559719,0.5121089000110302,1.124999999992724
0.2042,0.9534,-0.2484,0.0342,0.1386,-0.1008,0.3938,-4.48,-7.4812,-14.459748891557267,11.56910786617341,0.5121089000110302,1.124999999992724
0.2037,0.9576,-0.2413,0.0342,0.1386,-0.1008,0.7875,-4.2088,-7.0437,-14.289863797811492,11.6203155946205,0.44897689998285695,1.139999999999418
0.2037,0.9576,-0.2413,0.0352,0.138,-0.0954,1.5925,-4.0425,-7.1487,-14.251576854315338,11.6403786235671,0.38429689999909294,1.1559999999954016
0.2039,0.9584,-0.2475,0.0352,0.138,-0.0954,1.5925,-4.0425,-7.2362,-14.311170276049744,11.63999092567595,0.38429689999909294,1.1559999999954016
0.2044,0.9591,-0.2489,0.0352,0.138,-0.0954,1.47,-3.8763,-7.2362,-14.387562067089265,11.64880327767481,0.32615240000134926,1.1709999999948195
0.2062,0.959,-0.2489,0.0334,0.1385,-0.0996,2.1175,-3.1237,-7.7962,-14.411312836361594,11.694039290726584,0.32615240000134926,1.1709999999948195
0.2064,0.9553,-0.2466,0.0334,0.1385,-0.0996,2.695,-2.5638,-7.7613,-14.438285586218512,11.74657763707561,0.2851315999929922,1.1869999999980791
0.2064,0.9542,-0.2507,0.0358,0.1393,-0.0965,2.695,-2.5638,-7.7613,-14.559295998249073,11.776617007984749,0.2851315999929922,1.1869999999980791
0.2042,0.9542,-0.2507,0.0358,0.1393,-0.0965,3.3863,-2.1613,-7.7613,-14.654626338263258,11.740895131555607,0.2505508000016727,1.2029999999940628
0.2039,0.9528,-0.2545,0.0354,0.1383,-0.0917,3.6925,-2.5638,-6.9913,-14.845640730487137,11.704961948879086,0.2505508000016727,1.2029999999940628
0.2087,0.9475,-0.2505,0.0354,0.1383,-0.0917,4.2088,-2.45,-6.1863,-14.82024745514838,11.926478826839505,0.21380079998527268,1.2180000000007567
0.2093,0.9443,-0.2546,0.0354,0.1383,-0.0917,4.2088,-2.45,-6.1863,-15.006747252584784,12.033457856776732,0.21380079998527268,1.2180000000007567
0.2104,0.9443,-0.2545,0.0356,0.1398,-0.0895,4.795,-1.9162,-5.5213,-15.06356123045198,12.114273562142433,0.18314159999296878,1.2339999999967404
0.2104,0.9443,-0.2545,0.0356,0.1398,-0.0895,4.62,-2.2313,-4.8387,-15.078074212021312,12.135470066396984,0.18314159999296878,1.2339999999967404
0.2091,0.9423,-0.255,0.0361,0.1393,-0.0995,4.6375,-2.4588,-3.7013,-15.124963871138972,12.09783332363924,0.1462595999944,1.2489999999961583
0.2114,0.9398,-0.2562,0.0361,0.1393,-0.0995,4.6375,-2.4588,-3.7013,-15.215349516903299,12.21933794342135,0.1462595999944,1.2489999999961583
0.2099,0.9429,-0.2633,0.0361,0.1393,-0.0995,4.8387,-2.7037,-2.9225,-15.50276800919024,12.119346267433574,0.10300039998558694,1.264999999999418
0.2128,0.9449,-0.2659,0.042,0.1396,-0.1094,6.0637,-2.9313,-2.7738,-15.675053203907442,12.215138970689946,0.10300039998558694,1.264999999999418
0.2154,0.9488,-0.2638,0.042,0.1396,-0.1094,6.405,-3.29,-2.5725,-15.56295286282393,12.320157998197969,0.05036039999880066,1.2809999999954016
0.2154,0.9488,-0.2638,0.0353,0.1399,-0.1002,6.405,-3.29,-2.5725,-15.542418889352149,12.335275301251313,0.05036039999880066,1.2809999999954016
0.2173,0.9473,-0.2683,0.0353,0.1399,-0.1002,6.3875,-4.0425,-2.5725,-15.763686364474708,12.430118740760607,-0.010277100028259357,1.2960000000020955
0.2181,0.9451,-0.2716,0.0353,0.1399,-0.1002,5.6438,-3.745,-2.5375,-15.976016895355578,12.494567302334174,-0.010277100028259357,1.2960000000020955
0.2164,0.9434,-0.2721,0.0342,0.1398,-0.1009,5.32,-3.535,-2.9225,-16.063074909912572,12.439119810038983,-0.06683709998834113,1.3119999999908032
0.218,0.9417,-0.2706,0.0342,0.1398,-0.1009,5.32,-3.535,-2.9225,-16.039216313319084,12.527737447200451,-0.06683709998834113,1.3119999999908032
0.218,0.9417,-0.2706,0.0361,0.139,-0.1023,5.2937,-3.8763,-2.8437,-16.033771777325683,12.541198916385953,-0.12498160001428862,1.326999999997497
0.2178,0.9416,-0.2746,0.0361,0.139,-0.1023,4.7337,-4.3313,-2.94,-16.199051904086794,12.523095803431259,-0.12498160001428862,1.326999999997497
0.2205,0.9416,-0.2752,0.0361,0.139,-0.1023,4.7337,-4.3313,-3.0187,-16.267445716403664,12.645686702144634,-0.19428240002840705,1.3430000000007567
0.217,0.9415,-0.2743,0.0334,0.1409,-0.0999,4.76,-4.025,-3.0187,-16.24951536198355,12.503392636755349,-0.19428240002840705,1.3430000000007567
0.2172,0.941,-0.2758,0.0334,0.1409,-0.0999,4.3488,-4.3837,-2.6688,-16.31020691645806,12.49143752403656,-0.2644216000108007,1.3589999999967404
0.2172,0.9381,-0.2786,0.0326,0.1394,-0.1022,3.78,-4.7512,-2.5725,-16.459271530538448,12.51073648693525,-0.2644216000108007,1.3589999999967404
0.2174,0.9381,-0.2786,0.0326,0.1394,-0.1022,3.78,-4.7512,-2.5725,-16.511865332410107,12.52306768805095,-0.3356896000080351,1.3739999999961583
0.2169,0.9396,-0.2807,0.0342,0.14,-0.1042,3.15,-4.585,-3.15,-16.578158656001563,12.480096169617319,-0.3356896000080351,1.3739999999961583
0.2175,0.9392,-0.2802,0.0342,0.14,-0.1042,3.4125,-4.9963,-3.325,-16.59821841757541,12.506861578805163,-0.4156303999879683,1.389999999992142
0.2181,0.9382,-0.2827,0.0342,0.14,-0.1042,2.4588,-4.9,-3.1675,-16.6560243799063,12.54187135187192,-0.4156303999879683,1.389999999992142
0.2201,0.9399,-0.2815,0.0331,0.1402,-0.1025,2.4588,-4.9,-3.1675,-16.661765479279794,12.627727784920804,-0.48913040002076835,1.4049999999988358
0.2201,0.9399,-0.2815,0.0331,0.1402,-0.1025,2.52,-5.075,-3.22,-16.6658473409336,12.641223301248191,-0.48913040002076835,1.4049999999988358
0.22,0.9408,-0.2848,0.0334,0.1403,-0.108,2.2138,-4.7512,-3.78,-16.703121229258702,12.62010026559839,-0.565149600001686,1.4209999999948195
0.2206,0.9425,-0.2864,0.0334,0.1403,-0.108,1.3038,-4.4713,-4.1213,-16.781107728105482,12.62242416138829,-0.6366904000162608,1.4369999999980791
0.2244,0.9457,-0.2813,0.0334,0.1403,-0.108,1.3038,-4.4713,-4.1213,-16.69669378495414,12.777839695695471,-0.6366904000162608,1.4369999999980791
0.225,0.9456,-0.2823,0.0347,0.1391,-0.1057,1.1113,-4.76,-4.4012,-16.662945271244705,12.831003426679217,-0.7080904000134901,1.451999999997497
0.225,0.9487,-0.2788,0.0347,0.1391,-0.1057,1.12,-4.2175,-4.725,-16.53352290648369,12.821555740835404,-0.7080904000134901,1.451999999997497
0.2255,0.9487,-0.2788,0.0347,0.1411,-0.1023,-0.07,-4.55,-5.1013,-16.428760001032305,12.84093806139962,-0.7808903999952158,1.4679999999934807
0.225,0.9475,-0.2802,0.0347,0.1411,-0.1023,-0.07,-4.55,-5.1013,-16.459197119180065,12.831345455507691,-0.7808903999952158,1.4679999999934807
0.2227,0.9449,-0.2804,0.0347,0.1411,-0.1023,-0.9013,-4.6112,-5.4338,-16.510342784531343,12.756353421593332,-0.8500584000260827,1.4830000000001746
0.2219,0.941,-0.2789,0.0342,0.1416,-0.1029,-1.3038,-4.1737,-5.6,-16.509414956819054,12.744091739385997,-0.8500584000260827,1.4830000000001746
0.2255,0.9415,-0.273,0.0342,0.1416,-0.1029,-1.3038,-3.885,-6.0025,-16.250019583266358,12.894834169365737,-0.9122184000104793,1.4989999999961583
0.2255,0.9415,-0.273,0.0342,0.1405,-0.1056,-1.2075,-3.885,-6.0025,-16.18941429256603,12.937695959517448,-0.9122184000104793,1.4989999999961583
0.2208,0.9423,-0.2755,0.0342,0.1405,-0.1056,-1.6275,-3.8937,-6.1075,-16.273726754241267,12.752133134896294,-0.9745176000231712,1.514999999999418
0.2237,0.9412,-0.2736,0.0342,0.1405,-0.1056,-2.0213,-4.0862,-6.16,-16.221842650935656,12.82529108466693,-0.9745176000231712,1.514999999999418
0.2211,0.9369,-0.2712,0.0358,0.1407,-0.0943,-2.0213,-4.0862,-6.16,-16.15958663310716,12.788035261801744,-1.0358106000207927,1.5299999999988358
0.2233,0.9368,-0.269,0.0358,0.1407,-0.0943,-1.7325,-3.0712,-6.3175,-16.050858988359508,12.867869580398297,-1.0358106000207927,1.5299999999988358
0.2233,0.9409,-0.2681,0.0341,0.1406,-0.1072,-1.8375,-2.625,-5.7663,-15.934995325387733,12.85991104221896,-1.0778106000102499,1.5459999999948195
0.2239,0.9409,-0.2681,0.0341,0.1406,-0.1072,-1.4438,-3.0187,-5.9412,-15.911346733571424,12.881889585269363,-1.0778106000102499,1.5459999999948195
0.2201,0.9432,-0.2718,0.0354,0.1394,-0.099,-1.4438,-3.0187,-5.9412,-16.03793777495632,12.706438906505653,-1.1230911000304566,1.5610000000015134
0.2166,0.9442,-0.2657,0.0354,0.1394,-0.099,-1.2425,-2.6075,-6.2913,-15.793416040154073,12.531120594657237,-1.1230911000304566,1.5610000000015134
0.2166,0.9435,-0.2658,0.0354,0.1394,-0.099,-1.1812,-2.7037,-6.7463,-15.747966110695378,12.485899340146307,-1.1663503000195976,1.576999999997497
0.2133,0.9465,-0.2642,0.0356,0.1406,-0.1031,-0.9975,-2.38,-6.1075,-15.634692642877432,12.316731374261277,-1.1663503000195976,1.576999999997497
0.2133,0.9465,-0.2642,0.0356,0.1406,-0.1031,-0.9975,-2.38,-6.1075,-15.605966639573053,12.267150236632025,-1.2044303000100387,1.5929999999934807
0.2129,0.9467,-0.2672,0.0347,0.1406,-0.1022,-0.665,-2.485,-6.3787,-15.718337469011084,12.229713265665021,-1.2044303000100387,1.5929999999934807
0.2109,0.9446,-0.2663,0.0347,0.1406,-0.1022,-0.6825,-2.24,-6.5887,-15.737009657477971,12.162709869221734,-1.238030300025033,1.6080000000001746
0.2071,0.9448,-0.2672,0.0347,0.1406,-0.1022,-0.7088,-2.485,-6.6762,-15.776586788742588,11.99929107380449,-1.238030300025033,1.6080000000001746
0.2036,0.9435,-0.2712,0.0354,0.1407,-0.1086,-0.7088,-2.485,-6.6762,-15.965588634174814,11.81611074325759,-1.2777903000150523,1.6239999999961583
0.2036,0.9435,-0.2667,0.0354,0.1407,-0.1086,-0.245,-3.0975,-6.44,-15.840948268626143,11.758682094980285,-1.2777903000150523,1.6239999999961583
0.2037,0.9429,-0.2667,0.0369,0.1405,-0.1028,0.2537,-3.0712,-6.2737,-15.811186386623698,11.74810153645043,-1.3238583000132647,1.6389999999955762
0.2026,0.9415,-0.2697,0.0369,0.1405,-0.1028,0.7962,-3.0538,-6.1337,-15.904017274508965,11.705620302311582,-1.3238583000132647,1.6389999999955762
0.2051,0.9424,-0.2686,0.0369,0.1405,-0.1028,0.7962,-3.0538,-6.1337,-15.9063886867522,11.787197881087964,-1.3727191000009995,1.65499999999156
0.2066,0.9425,-0.2674,0.0352,0.1399,-0.1022,0.4725,-3.8238,-6.3263,-15.866459623320676,11.870256290672817,-1.3727191000009995,1.65499999999156
0.2068,0.9428,-0.2722,0.0352,0.1399,-0.1022,0.5163,-3.4562,-5.6788,-16.006338284097225,11.892505528941781,-1.4280183000122655,1.6709999999948195
0.2068,0.9428,-0.2722,0.0358,0.1413,-0.1065,0.5163,-3.4562,-5.1275,-16.063914835042983,11.898554624766383,-1.4280183000122655,1.6709999999948195
0.2076,0.9415,-0.2705,0.0358,0.1413,-0.1065,0.7088,-3.6662,-5.1275,-16.045025671905588,11.950195730448844,-1.4830113000101315,1.6859999999942374
0.2076,0.9442,-0.2678,0.0358,0.1413,-0.1065,0.8138,-3.7625,-5.2762,-15.933372626234101,11.945042264821883,-1.4830113000101315,1.6859999999942374
0.2088,0.9458,-0.27,0.0354,0.1403,-0.1078,0.7,-4.2613,-5.2675,-15.932940406553787,11.975682229776218,-1.5511921000240219,1.701999999997497
0.2126,0.9467,-0.2742,0.0354,0.1403,-0.1078,0.7,-4.2613,-5.2675,-16.055014919052642,12.126158216330372,-1.5511921000240219,1.701999999997497
0.2126,0.9467,-0.2721,0.0386,0.1405,-0.0982,0.6037,-4.4187,-5.0575,-16.04393603285987,12.167475493080968,-1.6174726000214499,1.716999999996915
0.2119,0.9476,-0.2721,0.0386,0.1405,-0.0982,0.2713,-4.1825,-5.1975,-16.02972158387353,12.138796852048197,-1.6174726000214499,1.716999999996915
0.2134,0.9466,-0.2735,0.0359,0.1415,-0.105,0.1138,-3.675,-5.4687,-16.085228906737548,12.200221858539477,-1.6762726000066899,1.7329999999928987
0.2138,0.9443,-0.2726,0.0359,0.1415,-0.105,0.1138,-3.675,-5.4687,-16.096298932219838,12.254490641987076,-1.6762726000066899,1.7329999999928987
0.2102,0.9424,-0.2736,0.0359,0.1415,-0.105,0.6388,-3.5,-5.7137,-16.14893325237441,12.133382644346455,-1.7322726000180986,1.7489999999961583
0.2109,0.9426,-0.2761,0.0366,0.1406,-0.103,0.0787,-3.4213,-5.635,-16.264243985628145,12.122407128034636,-1.7322726000180986,1.7489999999961583
0.2109,0.9426,-0.2761,0.0366,0.1406,-0.103,-0.2013,-3.8325,-5.3375,-16.30638008412336,12.11951193581642,-1.7897601000158678,1.7639999999955762
0.2075,0.9443,-0.2782,0.0362,0.1408,-0.0992,-0.2013,-3.8325,-5.3375,-16.380818080820642,11.954549585350575,-1.7897601000158678,1.7639999999955762
0.2125,0.9439,-0.2774,0.0362,0.1408,-0.0992,-0.0437,-3.7013,-5.3463,-16.37853009011049,12.132341438918107,-1.8489809000279327,1.7799999999988358
0.2133,0.9457,-0.2786,0.0362,0.1408,-0.0992,0.1925,-3.5963,-5.4513,-16.401622576033535,12.189415949540596,-1.8489809000279327,1.7799999999988358
0.2151,0.9445,-0.2758,0.0366,0.1414,-0.1065,-0.2275,-3.78,-5.635,-16.317053590220393,12.294871401044363,-1.9056809000257324,1.7949999999982538
0.2151,0.9445,-0.2751,0.0366,0.1414,-0.1065,-0.2275,-3.78,-5.635,-16.26360054027056,12.323787947427775,-1.9056809000257324,1.7949999999982538
0.2143,0.9456,-0.2751,0.0355,0.1398,-0.101,0.1225,-2.7912,-5.4862,-16.23615888776319,12.28826789198126,-1.950340100014522,1.8109999999942374
0.2184,0.9451,-0.2766,0.0355,0.1398,-0.101,0.105,-2.7475,-6.055,-16.285973136828414,12.442332802127519,-1.9943001000234777,1.826999999997497
0.217,0.9466,-0.2817,0.0355,0.1398,-0.101,0.0088,-2.2575,-5.9237,-16.474974227454506,12.406027963600732,-1.9943001000234777,1.826999999997497
0.2172,0.9464,-0.2768,0.0385,0.1413,-0.1093,0.0088,-2.2575,-5.9237,-16.36153654138493,12.417809107766344,-2.0281626000221635,1.841999999996915
0.2138,0.9476,-0.2758,0.0385,0.1413,-0.1093,-0.4288,-1.89,-6.02,-16.2673563611252,12.278889551468152,-2.0281626000221635,1.841999999996915
0.2138,0.9476,-0.2758,0.0374,0.1403,-0.0989,-0.9538,-1.8813,-5.7488,-16.237864916872926,12.238049579352294,-2.058263400028296,1.8580000000001746
0.213,0.9469,-0.2743,0.0374,0.1403,-0.0989,-0.9538,-1.8813,-5.6175,-16.176515635793745,12.203808436094489,-2.058263400028296,1.8580000000001746
0.2125,0.9442,-0.278,0.0374,0.1403,-0.0989,-0.8313,-1.7763,-5.6175,-16.3452169173866,12.188243689825388,-2.084907900027262,1.8729999999995925
0.2091,0.9466,-0.2783,0.0385,0.141,-0.0992,-1.225,-1.6888,-6.2825,-16.374179511442488,12.03428721992356,-2.084907900027262,1.8729999999995925
0.2122,0.944,-0.2765,0.0385,0.141,-0.0992,-1.3563,-1.8025,-6.685,-16.336770881743046,12.124429132949786,-2.1137479000200226,1.8889999999955762
0.2122,0.944,-0.2749,0.0366,0.1415,-0.107,-1.3563,-1.8025,-6.685,-16.259395349884844,12.159718537760549,-2.1137479000200226,1.8889999999955762
0.2095,0.947,-0.2749,0.0366,0.1415,-0.107,-1.0325,-1.1025,-6.195,-16.205367231371458,12.044137398841183,-2.131387900023616,1.9049999999988358
0.2144,0.9446,-0.274,0.0383,0.1408,-0.1034,-1.2513,-0.8662,-6.125,-16.18288416051918,12.22282796655748,-2.131387900023616,1.9049999999988358
0.2147,0.945,-0.2771,0.0383,0.1408,-0.1034,-1.0237,-0.7962,-6.0725,-16.302355161891533,12.276872970268434,-2.1433309000231526,1.9199999999982538
0.213,0.9467,-0.2776,0.0383,0.1408,-0.1034,-1.0237,-0.7962,-6.0725,-16.33251596034975,12.210404623885124,-2.1433309000231526,1.9199999999982538
0.2146,0.9442,-0.2707,0.038,0.1412,-0.0983,-0.9712,-0.91,-5.8538,-16.083013034574133,12.293268789586037,-2.1578909000194977,1.9359999999942374
0.2146,0.9442,-0.2707,0.038,0.1412,-0.0983,-1.4875,-0.4288,-6.0287,-16.016771359192447,12.315449524538039,-2.1578909000194977,1.9359999999942374
0.2165,0.9465,-0.2745,0.0394,0.1422,-0.0998,-1.6538,-0.1312,-5.845,-16.139031170163094,12.369865745423759,-2.1598589000194215,1.9509999999936554
0.2146,0.9479,-0.2747,0.0394,0.1422,-0.0998,-1.6538,-0.1312,-5.845,-16.156622076528645,12.295642283282325,-2.1598589000194215,1.9509999999936554
0.2136,0.947,-0.2706,0.0394,0.1422,-0.0998,-1.7763,0.245,-5.88,-15.99138761105836,12.252736176942772,-2.155938900018623,1.966999999996915
0.2166,0.9441,-0.2697,0.0385,0.1414,-0.1039,-2.0387,0.3413,-6.3,-15.952700736601715,12.381979601678358,-2.155938900018623,1.966999999996915
0.2166,0.9441,-0.2705,0.0385,0.1414,-0.1039,-2.0563,0.665,-6.02,-15.980837951137683,12.421642643022357,-2.1452989000164555,1.9830000000001746
0.2155,0.943,-0.2705,0.0374,0.1403,-0.1019,-2.0563,0.665,-6.02,-16.000620538990106,12.398490097764808,-2.1452989000164555,1.9830000000001746
0.215,0.9436,-0.2686,0.0374,0.1403,-0.1019,-2.6688,0.9013,-5.775,-15.909079904208586,12.370789580494732,-2.131779400023538,1.9979999999923166
0.2126,0.9406,-0.2686,0.0374,0.1403,-0.1019,-2.4237,1.0762,-6.1775,-15.932085261906373,12.294455642121127,-2.131779400023538,1.9979999999923166
0.2125,0.9394,-0.2691,0.0379,0.1398,-0.0982,-2.4237,0.315,-6.7112,-15.975031464930966,12.277825407537556,-2.1267394000225113,2.013999999995576
0.2085,0.944,-0.2701,0.0379,0.1398,-0.0982,-2.4413,0.315,-6.7112,-15.96852143938279,12.091554312501279,-2.1267394000225113,2.013999999995576
0.2085,0.944,-0.2701,0.0361,0.1407,-0.0999,-1.6363,0.7262,-6.8425,-15.96736137311438,12.027023371861157,-2.115846400022934,2.028999999994994
0.2103,0.9456,-0.2666,0.0361,0.1407,-0.0999,-0.98,0.805,-6.9037,-15.801738103087594,12.061011558822653,-2.115846400022934,2.028999999994994
0.2109,0.9457,-0.2675,0.0361,0.1407,-0.0999,-0.98,0.805,-6.9037,-15.796005995963862,12.092151041114915,-2.1029664000203097,2.0449999999982538
0.2125,0.947,-0.269,0.0388,0.1398,-0.105,-1.3475,0.4725,-7.2713,-15.84314409773476,12.141262101010026,-2.1029664000203097,2.0449999999982538
0.2101,0.9461,-0.2644,0.0388,0.1398,-0.105,-1.05,1.1025,-7.07,-15.671133159026358,12.100420967115348,-2.085326400016716,2.0610000000015134
0.2101,0.9461,-0.2644,0.0391,0.1421,-0.0984,-1.7325,1.0063,-7.175,-15.625988149178662,12.084262523475523,-2.085326400016716,2.0610000000015134
0.2068,0.9463,-0.2635,0.0391,0.1421,-0.0984,-1.7325,1.0063,-7.175,-15.574118447412102,11.97208222333284,-2.0702319000246234,2.0759999999936554
0.2029,0.9459,-0.2632,0.0391,0.1394,-0.1019,-1.6275,0.9975,-7.2362,-15.554815237154589,11.805692056233005,-2.0702319000246234,2.0759999999936554
0.2004,0.9446,-0.2652,0.0395,0.1394,-0.1019,-1.925,0.4288,-7.6737,-15.656115318053658,11.68587740858452,-2.0633711000232258,2.091999999996915
0.1994,0.943,-0.2644,0.0395,0.1394,-0.1019,-1.6013,0.3675,-7.8663,-15.661117319087928,11.615676639401542,-2.0633711000232258,2.091999999996915
0.1984,0.9436,-0.2625,0.0382,0.1408,-0.0983,-1.6013,0.3675,-7.8663,-15.571340898657919,11.550712719800755,-2.05785860002344,2.106999999996333
0.1984,0.9436,-0.2625,0.0382,0.1408,-0.0983,-1.0237,-0.07,-7.7613,-15.552406928730147,11.5078222092246,-2.058978600023668,2.1229999999995925
0.1979,0.9471,-0.2647,0.0393,0.1425,-0.0979,-0.6737,0.0613,-7.6038,-15.597610158626964,11.445925580741319,-2.058978600023668,2.1229999999995925
0.2006,0.9492,-0.2666,0.0393,0.1425,-0.0979,-0.4462,-0.3762,-7.5163,-15.661604365259816,11.473297412271771,-2.0649978000248943,2.139000000002852
0.2009,0.952,-0.265,0.0393,0.1425,-0.0979,-0.4462,-0.3762,-7.5163,-15.586532489702453,11.482473129491414,-2.0649978000248943,2.139000000002852
0.2034,0.9494,-0.2677,0.0396,0.1415,-0.1043,-0.8662,-0.5075,-7.5075,-15.704704824525079,11.567291058922345,-2.0726103000209064,2.153999999994994
0.2034,0.9494,-0.2677,0.0396,0.1415,-0.1043,-1.4438,-0.4462,-7.3412,-15.737156099889715,11.612628856267388,-2.0726103000209064,2.153999999994994
0.1984,0.9512,-0.271,0.0415,0.1413,-0.0983,-1.4875,-0.6212,-6.9825,-15.865146630936291,11.449146900955325,-2.0825495000229313,2.1699999999982538
0.2002,0.9523,-0.2643,0.0415,0.1413,-0.0983,-1.4875,-0.6212,-6.9825,-15.591184506785918,11.450568438451525,-2.0825495000229313,2.1699999999982538
0.2028,0.9506,-0.2691,0.0415,0.1413,-0.0983,-1.4875,-0.1925,-7.2362,-15.757535389429984,11.534614016483852,-2.0854370000228193,2.1849999999976717
0.2014,0.9503,-0.2687,0.04,0.1421,-0.1005,-1.2425,-0.2275,-7.2625,-15.781030433537861,11.530202184671516,-2.0854370000228193,2.1849999999976717
0.2012,0.95,-0.2663,0.04,0.1421,-0.1005,-1.2425,-0.2275,-6.8162,-15.688154037562507,11.527693179906175,-2.089077000023561,2.2010000000009313
0.2012,0.95,-0.2663,0.0394,0.1412,-0.0998,-1.365,-0.1138,-6.8162,-15.665780852941252,11.526765033345367,-2.089077000023561,2.2010000000009313
0.2028,0.9481,-0.2633,0.0394,0.1412,-0.0998,-1.4875,-0.3588,-6.3612,-15.553412083918957,11.60802107809104,-2.0948178000221196,2.216999999996915
0.1993,0.9476,-0.269,0.0394,0.1412,-0.0998,-0.98,-0.1575,-6.3175,-15.772901420692028,11.491131502439067,-2.0948178000221196,2.216999999996915
0.1992,0.9482,-0.2691,0.04,0.141,-0.0971,-0.98,-0.1575,-6.3175,-15.82588089034224,11.446087925588282,-2.097180300022028,2.231999999996333
0.204,0.9495,-0.2611,0.04,0.141,-0.0971,-0.9275,0.3237,-6.2213,-15.491817283866238,11.625697326198011,-2.097180300022028,2.231999999996333
0.204,0.9495,-0.2611,0.0416,0.1406,-0.1004,-0.5425,0.56,-6.405,-15.408881228931493,11.678757385745577,-2.0882203000202026,2.2479999999995925
0.2073,0.9443,-0.2608,0.0416,0.1406,-0.1004,-0.595,0.4025,-6.9475,-15.43068717610113,11.843230474061023,-2.0882203000202026,2.2479999999995925
0.2084,0.9484,-0.2659,0.0416,0.1406,-0.1034,-0.595,0.4025,-6.9475,-15.596484389598455,11.906323823477777,-2.0821828000233653,2.2629999999917345
0.207,0.9517,-0.2625,0.0397,0.1405,-0.1034,-0.5863,1.0325,-6.7725,-15.469994833752391,11.865410305957882,-2.0821828000233653,2.2629999999917345
0.2069,0.9485,-0.2591,0.0397,0.1405,-0.1034,-0.49,1.3212,-6.4138,-15.334327062808542,11.87737092381675,-2.0610436000190586,2.278999999994994
0.205,0.9454,-0.2641,0.0399,0.1415,-0.1058,-0.4462,1.4262,-6.545,-15.527208755632707,11.823561201359574,-2.0610436000190586,2.278999999994994
0.205,0.9454,-0.2641,0.0399,0.1415,-0.1058,-0.4462,1.4262,-6.545,-15.584073501634595,11.805470506547849,-2.0382244000144096,2.2949999999982538
0.2036,0.9501,-0.2643,0.041,0.141,-0.1027,-0.1312,1.3825,-6.2825,-15.558083401683032,11.708426819513429,-2.0382244000144096,2.2949999999982538
0.205,0.9504,-0.2602,0.041,0.141,-0.1027,0.21,1.295,-6.23,-15.401453968360848,11.738978151097069,-2.0187994000151632,2.3099999999976717
0.2048,0.9503,-0.2654,0.041,0.141,-0.1027,0.4025,1.1812,-6.58,-15.52435749711115,11.730583465017757,-2.0187994000151632,2.3099999999976717
0.2028,0.9528,-0.2633,0.0411,0.1426,-0.1116,0.4025,1.1812,-6.58,-15.477894230000716,11.640305508816162,-1.9999002000113129,2.3260000000009313
0.2028,0.9528,-0.2633,0.0411,0.1426,-0.1116,0.0,1.295,-6.5975,-15.458007330489027,11.609687735125613,-1.9999002000113129,2.3260000000009313
0.2041,0.9505,-0.2635,0.0398,0.1403,-0.0993,0.1488,1.3913,-6.4225,-15.48149856068667,11.664695700701113,-1.9790307000222458,2.3409999999930733
0.2053,0.9512,-0.264,0.0398,0.1403,-0.0993,0.1488,1.3913,-6.2475,-15.500891355927626,11.722816238341714,-1.9790307000222458,2.3409999999930733
0.2034,0.9484,-0.2619,0.0398,0.1403,-0.0993,-0.4462,1.2425,-6.2475,-15.456156193199556,11.693193834428213,-1.9591507000181958,2.356999999996333
0.2042,0.9481,-0.2608,0.0403,0.1417,-0.1012,-0.2713,1.2513,-6.265,-15.403896372140142,11.719776086415356,-1.9591507000181958,2.356999999996333
0.2042,0.9493,-0.261,0.0403,0.1417,-0.1012,-0.6913,1.225,-6.72,-15.381512864844463,11.718343168124694,-1.9395507000142027,2.3729999999995925
0.2047,0.9493,-0.261,0.0396,0.1418,-0.1008,-0.6913,1.225,-6.72,-15.375358541657388,11.735761951513307,-1.9395507000142027,2.3729999999995925
0.2025,0.9474,-0.2594,0.0396,0.1418,-0.1008,-0.7613,1.33,-6.8162,-15.329395572845657,11.680857445240685,-1.9196007000149768,2.3879999999990105
0.2008,0.9478,-0.2622,0.0396,0.1418,-0.1008,-0.6475,1.1287,-6.8688,-15.426256102962258,11.593494111346876,-1.9196007000149768,2.3879999999990105
0.2009,0.9467,-0.2575,0.0412,0.1419,-0.1071,-0.0525,1.0675,-6.9913,-15.286254161922566,11.580832316879311,-1.9025207000114972,2.40400000000227
0.2014,0.9472,-0.2597,0.0412,0.1419,-0.1071,-0.0525,1.0675,-6.9913,-15.316993933070027,11.585385760915289,-1.9025207000114972,2.40400000000227
0.2014,0.9472,-0.2597,0.0408,0.1425,-0.1012,0.3063,1.5575,-6.8075,-15.326549070737844,11.587266744219903,-1.8791582000237361,2.418999999994412
0.2001,0.9508,-0.2605,0.0408,0.1425,-0.1012,0.1838,1.365,-7.07,-15.323579436452427,11.520056227244897,-1.8791582000237361,2.418999999994412
0.2012,0.9492,-0.2595,0.0408,0.1425,-0.1012,0.0875,1.4875,-7.3938,-15.30197910581766,11.53892584947445,-1.8553582000188875,2.4349999999976717
0.2022,0.9495,-0.2596,0.0405,0.1406,-0.1029,0.0875,1.4875,-7.3938,-15.295078334987647,11.575474433840109,-1.8315582000248618,2.4509999999936554
0.2015,0.9482,-0.2606,0.0405,0.1406,-0.1029,0.3325,1.6013,-6.93,-15.339813400072282,11.578355640525174,-1.8315582000248618,2.4509999999936554
0.2015,0.9514,-0.2591,0.0412,0.1417,-0.0974,-0.0088,1.2075,-7.175,-15.269962052289214,11.561761361355384,-1.813445700016779,2.4660000000003492
0.2018,0.9514,-0.2591,0.0412,0.1417,-0.0974,-0.4812,1.4787,-7.14,-15.244652579051913,11.564305968355454,-1.813445700016779,2.4660000000003492
0.2022,0.9504,-0.2585,0.0398,0.1422,-0.1,-0.4812,1.4787,-7.14,-15.22424253317201,11.585756095561294,-1.789786500011959,2.482000000003609
0.2014,0.9485,-0.2616,0.0398,0.1422,-0.1,-0.0787,1.3212,-7.0613,-15.354648359855442,11.575358194408086,-1.789786500011959,2.482000000003609
0.1976,0.9475,-0.2613,0.0398,0.1422,-0.1,0.5163,1.155,-6.9125,-15.391749438081836,11.447187982013023,-1.772461500021035,2.496999999995751
0.1992,0.9467,-0.2622,0.0403,0.1426,-0.099,0.5163,0.3325,-6.6762,-15.444094380135263,11.457490625188077,-1.772461500021035,2.496999999995751
0.1992,0.9467,-0.2622,0.0403,0.1426,-0.099,0.035,0.3325,-6.6762,-15.46813288351508,11.461114179980479,-1.7671415000199513,2.5129999999990105
0.2005,0.9437,-0.258,0.0428,0.1433,-0.1057,0.3237,0.7437,-6.8688,-15.358283440734946,11.536307786585994,-1.7671415000199513,2.5129999999990105
0.2001,0.9442,-0.2588,0.0428,0.1433,-0.1057,0.8838,0.8662,-6.5712,-15.342689413665875,11.54628800806862,-1.7532823000234303,2.528999999994994
0.1995,0.9443,-0.2577,0.0428,0.1433,-0.1057,0.8838,0.8662,-6.5712,-15.302348056408738,11.528863226162297,-1.7532823000234303,2.528999999994994
0.2003,0.9429,-0.2573,0.042,0.1418,-0.0986,1.2425,1.5488,-6.5363,-15.286244396301838,11.56394470611773,-1.730050300024332,2.543999999994412
0.2003,0.9273,-0.2568,0.042,0.1418,-0.0986,1.5313,1.2163,-6.2387,-15.342772025496135,11.699709436076168,-1.730050300024332,2.543999999994412
0.1978,0.934,-0.2568,0.0414,0.1426,-0.1026,2.3975,0.77,-6.2387,-15.352302781786664,11.589452476854031,-1.717730300021822,2.5599999999976717
0.194,0.9342,-0.2592,0.0414,0.1426,-0.1026,2.3975,0.77,-6.2387,-15.400450518084993,11.399148180642522,-1.717730300021822,2.5599999999976717
0.2009,0.9448,-0.2533,0.0414,0.1426,-0.1026,3.1675,0.3413,-6.7812,-15.184645767079196,11.530625421541588,-1.7126108000220206,2.5749999999970896
0.2031,0.9491,-0.2524,0.0421,0.1438,-0.1065,4.165,0.5512,-6.3175,-14.98313441185958,11.636306378618057,-1.7126108000220206,2.5749999999970896
0.2065,0.9476,-0.257,0.0421,0.1438,-0.1065,5.0487,0.56,-6.2213,-15.127671448797189,11.804296869325627,-1.7036508000201953,2.5910000000003492
0.2065,0.9476,-0.257,0.041,0.1414,-0.109,5.0487,0.56,-6.2213,-15.16289893492492,11.85523175651592,-1.7036508000201953,2.5910000000003492
0.2017,0.9503,-0.2594,0.041,0.1414,-0.109,4.9963,1.3212,-6.93,-15.24195637396755,11.681251351140382,-1.6825116000255016,2.606999999996333
0.1981,0.9518,-0.2612,0.041,0.1414,-0.109,4.8913,1.0938,-7.6388,-15.31944051049864,11.525722887796825,-1.6825116000255016,2.606999999996333
0.199,0.954,-0.2596,0.0431,0.1455,-0.1167,4.76,1.155,-7.805,-15.247981455874674,11.465095348208937,-1.66172160002967,2.624999999992724
0.2002,0.9539,-0.2631,0.0431,0.1455,-0.1167,4.76,1.155,-7.805,-15.374649731805595,11.453688951197629,-1.6524816000277875,2.632999999994354
0.2002,0.9539,-0.2655,0.0422,0.1456,-0.1073,4.4975,1.2513,-8.0238,-15.503171081857255,11.446009617250011,-1.6512303000229804,2.6339999999981956
0.1993,0.957,-0.2655,0.0422,0.1456,-0.1073,4.8212,1.3913,-8.2688,-15.504960024764856,11.426194475648112,-1.6289695000184452,2.650000000001455
0.1964,0.9572,-0.268,0.0426,0.146,-0.1068,4.7337,1.3388,-8.1025,-15.605349988384026,11.352791998230291,-1.6289695000184452,2.650000000001455
0.1951,0.9545,-0.2685,0.0426,0.146,-0.1068,4.7337,1.3388,-8.1025,-15.6832895545858,11.28768117054389,-1.6289695000184452,2.650000000001455
0.1951,0.9573,-0.273,0.0426,0.146,-0.1068,4.3837,1.61,-8.3825,-15.848973982800235,11.263722625508672,-1.6048195000310967,2.664999999993597
0.1932,0.9572,-0.2749,0.0437,0.1453,-0.1111,4.1825,1.26,-8.5925,-15.969671324726825,11.244325845430126,-1.6048195000310967,2.664999999993597
0.1932,0.9572,-0.2749,0.0437,0.1453,-0.1111,4.1825,1.26,-8.19,-16.00696085726786,11.178534096151132,-1.5846595000269896,2.680999999996857
0.1935,0.958,-0.2729,0.0432,0.145,-0.1045,3.5,1.085,-8.19,-15.942094962863818,11.132582645271013,-1.5672995000313474,2.6969999999928405
0.1911,0.9565,-0.2714,0.0432,0.145,-0.1045,3.045,1.085,-7.6125,-15.889110026387334,11.012345267254089,-1.5672995000313474,2.6969999999928405
0.19,0.9562,-0.2744,0.0432,0.145,-0.1045,2.38,1.015,-7.49,-15.92627334339371,10.911200852755739,-1.552074500024553,2.7119999999995343
0.1899,0.957,-0.276,0.045,0.1455,-0.1082,2.38,1.015,-7.49,-15.975127746538421,10.852033860292085,-1.552074500024553,2.7119999999995343
0.1899,0.957,-0.2757,0.045,0.1455,-0.1082,1.6625,0.9712,-7.49,-15.996298584492571,10.823325641403445,-1.5365353000213873,2.728000000002794
0.19,0.9593,-0.2757,0.0427,0.1465,-0.1082,1.2425,1.0237,-7.0875,-16.012069415643804,10.79642101996625,-1.5365353000213873,2.728000000002794
0.1907,0.9598,-0.2757,0.0427,0.1465,-0.1082,0.49,0.525,-6.965,-16.020666074135292,10.805488465733102,-1.5286603000255128,2.742999999994936
0.1875,0.9551,-0.2774,0.0427,0.1465,-0.1082,0.49,0.525,-6.965,-16.12427782290619,10.726886117172075,-1.5286603000255128,2.742999999994936
0.1881,0.9554,-0.2751,0.0437,0.1476,-0.1098,0.5163,0.3675,-6.9825,-16.088425250292655,10.71870744612311,-1.522780300024315,2.7589999999981956
0.1903,0.9556,-0.2763,0.0437,0.1476,-0.1098,0.1312,-0.4725,-6.895,-16.11302101644601,10.787691051727215,-1.522780300024315,2.7589999999981956
0.1903,0.9556,-0.2763,0.0434,0.1482,-0.1085,0.0525,-0.6475,-6.615,-16.121890847340094,10.815536019712034,-1.5331403000217143,2.7749999999941792
0.1884,0.9532,-0.2782,0.0434,0.1482,-0.1085,0.0525,-0.6475,-6.615,-16.21904420282104,10.76815003583971,-1.5331403000217143,2.7749999999941792
0.1852,0.9532,-0.2778,0.0434,0.1482,-0.1085,-0.6562,-1.0412,-6.7638,-16.24010656155248,10.639422043689125,-1.548758300028684,2.790000000000873
0.187,0.9498,-0.2749,0.045,0.1462,-0.107,-0.875,-1.6625,-6.4925,-16.16767382158518,10.686269057346491,-1.548758300028684,2.790000000000873
0.186,0.9513,-0.2728,0.045,0.1462,-0.107,-0.9187,-2.2138,-6.4488,-16.044177429767053,10.65802158029761,-1.5841791000197927,2.805999999996857
0.186,0.9513,-0.2728,0.0444,0.1463,-0.1022,-0.9187,-2.2138,-6.4488,-16.012220288309965,10.648822371451747,-1.5841791000197927,2.805999999996857
0.1832,0.9514,-0.2776,0.0444,0.1463,-0.1022,-0.7088,-2.4675,-6.8338,-16.19671537826537,10.538421693601409,-1.6211916000183564,2.8209999999962747
0.189,0.9528,-0.2794,0.0444,0.1451,-0.1149,-0.6125,-2.4413,-6.6588,-16.302103349374445,10.693716996722438,-1.6211916000183564,2.8209999999962747
0.1886,0.9519,-0.2734,0.0445,0.1451,-0.1149,-1.1025,-2.45,-6.8075,-16.093346334961378,10.749323985466173,-1.6603916000263426,2.8369999999995343
0.1911,0.9525,-0.2738,0.0445,0.1451,-0.1149,-1.1025,-2.45,-6.8075,-16.051304632069417,10.853226684571592,-1.6603916000263426,2.8369999999995343
0.1911,0.9474,-0.2757,0.0455,0.1466,-0.1034,-1.2775,-2.6775,-6.5538,-16.18414922259656,10.924727006598197,-1.703231600015589,2.852999999995518
0.1911,0.9474,-0.2757,0.0455,0.1466,-0.1034,-1.1375,-3.2287,-6.825,-16.215270244949284,10.947602024512568,-1.703231600015589,2.852999999995518
0.1909,0.9482,-0.2756,0.0454,0.1454,-0.1097,-1.1375,-3.2287,-6.4225,-16.208891097706974,10.9437394021752,-1.7516621000137096,2.867999999994936
0.1896,0.9493,-0.2722,0.0454,0.1454,-0.1097,-0.7962,-2.8788,-6.4225,-16.0555221141408,10.892417509458408,-1.7516621000137096,2.867999999994936
0.19,0.949,-0.2708,0.0454,0.1454,-0.1097,-1.2862,-2.0738,-6.6588,-15.956801653935589,10.89577343714991,-1.7848429000204693,2.8839999999981956
0.1901,0.949,-0.2741,0.0464,0.1459,-0.1049,-0.6825,-2.1,-6.72,-16.068009636809922,10.894224982891448,-1.7848429000204693,2.8839999999981956
0.1901,0.949,-0.2741,0.0464,0.1459,-0.1049,-0.6825,-2.1,-6.72,-16.09866032259028,10.893671853282596,-1.816342900019247,2.8989999999976135
0.1909,0.9477,-0.2753,0.0448,0.1462,-0.1096,-0.5337,-2.1263,-6.615,-16.16959136723132,10.929293492616004,-1.816342900019247,2.8989999999976135
0.1901,0.952,-0.2719,0.0448,0.1462,-0.1096,-0.735,-1.5662,-6.72,-16.002253732548777,10.890485298473898,-1.8414021000243523,2.915000000000873
0.1918,0.9525,-0.2728,0.0448,0.1462,-0.1096,-0.3325,-1.4262,-6.5275,-15.988133101183111,10.934041196777315,-1.8414021000243523,2.915000000000873
0.19,0.9518,-0.2707,0.0457,0.1463,-0.1062,-0.3325,-1.4262,-6.5275,-15.910345660451002,10.890687667472557,-1.8642213000186243,2.930999999996857
0.1876,0.9506,-0.2732,0.0457,0.1463,-0.1062,-0.805,-1.4875,-6.7638,-16.001409816340363,10.794547955196935,-1.8865338000177585,2.9459999999962747
0.1876,0.9506,-0.2732,0.0462,0.1458,-0.1075,-0.6037,-1.5662,-6.8338,-16.02518824213128,10.760177595290953,-1.8865338000177585,2.9459999999962747
0.1851,0.952,-0.2744,0.0462,0.1458,-0.1075,-0.1575,-1.1638,-6.7375,-16.061556843000574,10.64629889533168,-1.9051546000130843,2.9619999999922584
0.1852,0.9507,-0.2716,0.0462,0.1458,-0.1075,-0.1575,-1.1638,-6.7375,-15.981749107238276,10.62249735866664,-1.9051546000130843,2.9619999999922584
0.1869,0.9488,-0.2752,0.047,0.1477,-0.1106,-0.4288,-1.3913,-7.21,-16.117614930828584,10.673851042201829,-1.9260241000223974,2.9769999999989523
0.1865,0.9507,-0.2756,0.047,0.1477,-0.1106,-0.0263,-0.8662,-6.8075,-16.150007149178414,10.671570727228548,-1.9260241000223974,2.9769999999989523
0.1865,0.9507,-0.2756,0.0462,0.1455,-0.1072,0.1925,-0.5163,-6.5275,-16.160466928742167,10.670683919824116,-1.9342849000240805,2.993000000002212
0.185,0.9518,-0.2752,0.0462,0.1455,-0.1072,0.1925,-0.5163,-6.5275,-16.138840223065777,10.60797484926985,-1.9342849000240805,2.993000000002212
0.1829,0.9541,-0.2749,0.0462,0.1459,-0.1107,0.3063,-0.5337,-6.7725,-16.09795117264536,10.499363830798371,-1.942824100021937,3.0089999999981956
0.1839,0.9543,-0.2779,0.0466,0.1459,-0.1107,-0.1225,-0.7788,-6.7812,-16.191002928445492,10.48859089169223,-1.942824100021937,3.0089999999981956
0.1842,0.9543,-0.2747,0.0466,0.1459,-0.1107,0.5337,-0.2625,-6.4837,-16.11356701555613,10.501816417046081,-1.9467616000217842,3.0239999999976135
0.185,0.9548,-0.279,0.0455,0.1466,-0.1079,0.5337,-0.2625,-6.4837,-16.21613545035908,10.524421868690691,-1.9467616000217842,3.0239999999976135
0.185,0.9548,-0.279,0.0455,0.1466,-0.1079,0.0613,-0.5688,-6.2213,-16.26359110718145,10.532159320575674,-1.9558624000194997,3.039999999993597
0.185,0.9556,-0.2763,0.0468,0.1478,-0.1108,-0.3675,-0.8225,-5.8713,-16.16792973532386,10.534493665965753,-1.9558624000194997,3.039999999993597
0.1873,0.9539,-0.2722,0.0468,0.1478,-0.1108,-0.3675,-0.8225,-5.8713,-15.999266765868883,10.649128325971915,-1.9681999000250054,3.055000000000291
0.1858,0.9498,-0.2749,0.0468,0.1478,-0.1108,-0.4288,-0.6475,-6.0113,-16.099699484752467,10.644198214465995,-1.9681999000250054,3.055000000000291
0.1864,0.9494,-0.2738,0.0474,0.1476,-0.1124,-0.7175,-0.2187,-5.4163,-16.090592856142234,10.673611399759016,-1.9716991000257182,3.0710000000035507
0.1864,0.9494,-0.2738,0.0474,0.1476,-0.1124,-0.5512,0.175,-5.1975,-16.088151295739834,10.68089680175878,-1.9716991000257182,3.0710000000035507
0.1875,0.9536,-0.2747,0.0454,0.1469,-0.1069,-0.5512,0.175,-5.1975,-16.07512416449939,10.695079909923063,-1.9688991000276943,3.0869999999922584
0.1893,0.9531,-0.273,0.0454,0.1469,-0.1069,-0.2887,0.105,-5.3812,-16.01182728508376,10.782049533137366,-1.9688991000276943,3.0869999999922584
0.1887,0.9536,-0.2741,0.0454,0.1469,-0.1069,-0.1225,-0.385,-5.7137,-16.028535150117612,10.77168274654698,-1.9746741000302714,3.1019999999989523
0.189,0.9559,-0.2712,0.046,0.1484,-0.1002,-0.2187,0.2625,-5.5037,-15.899072505604975,10.770197023466203,-1.9746741000302714,3.1019999999989523
0.1936,0.9539,-0.2707,0.046,0.1484,-0.1002,-0.2187,0.2625,-5.5037,-15.860724364869089,10.978688535077044,-1.9704741000313257,3.117999999994936
0.1936,0.9539,-0.2707,0.0462,0.1468,-0.1092,-0.3762,0.1575,-5.495,-15.848340441413061,11.030644304568753,-1.9704741000313257,3.117999999994936
0.1896,0.952,-0.2709,0.0462,0.1468,-0.1092,-0.7175,0.4112,-4.97,-15.874389586287672,10.884979779367898,-1.9643061000315651,3.132999999994354
0.1907,0.9504,-0.2776,0.0462,0.1468,-0.1092,-0.7788,0.5775,-5.6438,-16.172872443467618,10.897551432216956,-1.9643061000315651,3.132999999994354
0.1878,0.9518,-0.2731,0.0456,0.1454,-0.1061,-0.7788,0.5775,-5.6438,-16.053564936011476,10.779933373615929,-1.9550661000296827,3.1489999999976135
0.1864,0.9526,-0.269,0.0456,0.1454,-0.1061,-1.3913,-0.035,-5.9763,-15.834525382239367,10.697102476535482,-1.9550661000296827,3.1489999999976135
0.1864,0.9526,-0.269,0.0446,0.1465,-0.1033,-0.6825,-0.4462,-6.23,-15.786977594362519,10.674433643325937,-1.9622053000278907,3.164999999993597
0.1865,0.951,-0.2691,0.0446,0.1465,-0.1033,-0.805,-0.2713,-6.3175,-15.796287706062023,10.682439282213299,-1.9622053000278907,3.164999999993597
0.1851,0.9492,-0.2717,0.0446,0.1464,-0.1079,-0.805,-0.2713,-6.3175,-15.926102553477277,10.6383932098012,-1.9662748000297068,3.180000000000291
0.1846,0.9498,-0.2699,0.0458,0.1464,-0.1079,-1.155,0.3938,-6.0725,-15.878614102931271,10.603672740244187,-1.9662748000297068,3.180000000000291
0.1862,0.9524,-0.2665,0.0458,0.1464,-0.1079,-0.595,0.0613,-6.1687,-15.702117517426181,10.644942599601674,-1.965294000029953,3.1959999999962747
0.1882,0.9515,-0.2686,0.0467,0.1474,-0.116,-0.595,0.1138,-5.6962,-15.746452319075473,10.74285273761763,-1.965294000029953,3.1959999999962747
0.1882,0.9515,-0.2686,0.0467,0.1474,-0.116,-0.2975,0.1138,-5.6962,-15.758521600667825,10.7684619295066,-1.9635870000300193,3.2109999999956926
0.189,0.9542,-0.2685,0.0467,0.1454,-0.104,-0.3588,0.1663,-5.4862,-15.728826412729722,10.78830762318473,-1.9635870000300193,3.2109999999956926
0.1856,0.9552,-0.2654,0.0467,0.1454,-0.104,-0.4112,-0.315,-5.565,-15.587700253680243,10.650428582104134,-1.9686270000287542,3.2269999999916763
0.186,0.9553,-0.2674,0.0467,0.1454,-0.104,-0.4112,-0.315,-5.565,-15.622717485381719,10.627292064059343,-1.9686270000287542,3.2269999999916763
0.1817,0.9537,-0.2719,0.0465,0.1465,-0.1183,-0.2625,-0.2275,-5.355,-15.822422021202081,10.441352250765105,-1.9722670000294957,3.242999999994936
0.1817,0.9537,-0.2719,0.0465,0.1465,-0.1183,-0.1225,0.0613,-5.8275,-15.883383222802406,10.398508638603206,-1.9722670000294957,3.242999999994936
0.1835,0.9523,-0.2689,0.0465,0.1463,-0.108,0.0787,-0.1312,-6.0287,-15.808267395276461,10.474929663898221,-1.9742350000303739,3.25800000000163
0.181,0.9528,-0.271,0.0465,0.1463,-0.108,0.0787,-0.1312,-6.0287,-15.853071802324031,10.38922812101841,-1.9742350000303739,3.25800000000163
0.1799,0.95,-0.2725,0.0465,0.1463,-0.108,-0.2187,-0.42,-6.02,-15.957071276782774,10.33726844799182,-1.980955000028687,3.2739999999976135
0.1809,0.9536,-0.2696,0.0464,0.1474,-0.1129,-0.1138,-0.595,-6.3612,-15.842290407048651,10.342730463826426,-1.9898800000283408,3.2889999999970314
0.1806,0.9533,-0.2688,0.0464,0.1474,-0.1129,-0.07,-0.665,-6.3,-15.778429423948118,10.336462383200073,-1.9898800000283408,3.2889999999970314
0.1806,0.9533,-0.2688,0.0466,0.1469,-0.1072,-0.07,-0.665,-6.3,-15.757253518381876,10.334515436919832,-1.9898800000283408,3.2889999999970314
0.1829,0.9525,-0.2687,0.0466,0.1469,-0.1072,0.0525,-0.9712,-6.2737,-15.754957883090311,10.428667702385555,-2.00541920002444,3.304999999993015
0.1806,0.9535,-0.273,0.0466,0.1469,-0.1072,0.4988,-0.84,-5.9412,-15.886337878589655,10.350350022553407,-2.00541920002444,3.304999999993015
0.1823,0.9543,-0.2722,0.0475,0.1476,-0.104,0.0525,-0.8925,-5.9237,-15.90837667391889,10.39294905923304,-2.019699200027349,3.3209999999962747
0.1823,0.9557,-0.2702,0.0475,0.1476,-0.104,0.0525,-0.8925,-5.9237,-15.828891861331128,10.398872436549551,-2.0330867000333233,3.3360000000029686
0.1823,0.9557,-0.2702,0.0472,0.1476,-0.1102,-0.385,-1.2337,-6.0988,-15.799513205144157,10.400487281441833,-2.0330867000333233,3.3360000000029686
0.1873,0.9555,-0.2718,0.0472,0.1476,-0.1102,0.1138,-0.9275,-5.4075,-15.85083339659741,10.610047608039855,-2.047926700029598,3.3519999999989523
0.1838,0.9552,-0.274,0.0472,0.1476,-0.1115,0.0787,-1.47,-5.7225,-15.95161029168592,10.513565403534852,-2.047926700029598,3.3519999999989523
0.1843,0.9553,-0.2695,0.047,0.1463,-0.1115,0.0787,-1.47,-5.7225,-15.823125206498501,10.51734051597229,-2.0699767000287426,3.36699999999837
0.1856,0.9548,-0.2706,0.047,0.1463,-0.1115,0.1138,-1.1812,-5.8888,-15.82321721845612,10.572240389660237,-2.0699767000287426,3.36699999999837
0.1859,0.9548,-0.2744,0.0474,0.1471,-0.1161,-0.3588,-1.12,-5.5912,-15.970300149742418,10.59215699589017,-2.087896700024244,3.382999999994354
0.1859,0.9548,-0.2744,0.0474,0.1471,-0.1161,-0.3588,-1.12,-5.18,-16.014809527841958,10.597391172694216,-2.087896700024244,3.382999999994354
0.1857,0.9545,-0.2747,0.0472,0.1474,-0.1073,-0.9363,-0.7437,-5.18,-16.045044823712132,10.591667570276574,-2.099795900026668,3.3989999999976135
0.185,0.9562,-0.2693,0.0472,0.1474,-0.1073,-0.7,-0.8925,-5.5037,-15.815769907491198,10.559857400402404,-2.099795900026668,3.3989999999976135
0.1875,0.9545,-0.2692,0.0472,0.1474,-0.1073,-0.805,-1.12,-5.6788,-15.767664007032234,10.668035313179645,-2.116595900026016,3.4139999999970314
0.1857,0.9547,-0.2713,0.0473,0.1469,-0.099,-0.805,-1.12,-5.6788,-15.838110422494074,10.61601154927999,-2.116595900026016,3.4139999999970314
0.1857,0.9547,-0.2713,0.0473,0.1469,-0.099,-1.33,-1.015,-5.705,-15.85773081747115,10.602498711798686,-2.1328359000219397,3.429999999993015
0.1863,0.9543,-0.2706,0.0471,0.1479,-0.1082,-1.19,-0.9275,-5.6,-15.837571412307414,10.628340076061823,-2.1328359000219397,3.429999999993015
0.1882,0.9539,-0.2665,0.0471,0.1479,-0.1082,-1.1113,-1.0588,-5.4425,-15.665541352674197,10.726959741949505,-2.1487179000290273,3.444999999999709
0.1893,0.9534,-0.2692,0.0471,0.1479,-0.1082,-1.1113,-1.0588,-5.4425,-15.742326852762,10.795490467577741,-2.1487179000290273,3.444999999999709
0.1886,0.9535,-0.2674,0.0478,0.1456,-0.1084,-1.2687,-1.0675,-5.355,-15.68384138609967,10.785892019346065,-2.16579790002474,3.4609999999956926
0.1892,0.9551,-0.2666,0.0478,0.1456,-0.1084,-1.3038,-0.84,-5.5037,-15.616805441185907,10.798168363270483,-2.16579790002474,3.4609999999956926
0.1892,0.9551,-0.2666,0.0476,0.1466,-0.109,-1.2862,-0.4288,-5.7488,-15.601050751992398,10.801159525547273,-2.1726587000261377,3.4769999999989523
0.1893,0.9528,-0.2657,0.0476,0.1466,-0.109,-1.2862,-0.4288,-5.7488,-15.586335357834313,10.825311207225207,-2.1726587000261377,3.4769999999989523
0.1856,0.9509,-0.2678,0.0476,0.1466,-0.109,-1.5662,-0.7175,-5.915,-15.697149010704024,10.69171109113215,-2.1834212000204998,3.4919999999910942
0.1858,0.9479,-0.2649,0.0468,0.1479,-0.1018,-1.0938,-0.6475,-6.2387,-15.634241074799199,10.690828491790889,-2.1834212000204998,3.4919999999910942
0.1848,0.9504,-0.2662,0.0468,0.1479,-0.1018,-0.6388,-0.5337,-5.8362,-15.643560124128474,10.628434064392986,-2.1919604000222392,3.507999999994354
0.1848,0.9504,-0.2662,0.0468,0.1472,-0.1126,-0.6388,-0.5337,-5.8362,-15.646159915044144,10.611493980793295,-2.1919604000222392,3.507999999994354
0.1868,0.9536,-0.2658,0.0468,0.1472,-0.1126,-0.1663,-1.2163,-5.6962,-15.597811687086399,10.66640374065195,-2.210204900030381,3.5230000000010477
0.188,0.9514,-0.2669,0.0468,0.1472,-0.1054,-0.385,-0.9538,-5.775,-15.648754521605117,10.743998472350642,-2.210204900030381,3.5230000000010477
0.1903,0.9519,-0.2641,0.0485,0.147,-0.1054,-1.0938,-0.7875,-5.6613,-15.541651110542071,10.862409039638099,-2.222804900027218,3.5389999999970314
0.1894,0.9551,-0.2611,0.0485,0.147,-0.1054,-1.0938,-0.7875,-5.6613,-15.3520185587438,10.837663179382174,-2.222804900027218,3.5389999999970314
0.1881,0.9536,-0.2648,0.0484,0.149,-0.1069,-1.3737,-1.1287,-5.565,-15.48045919558685,10.780636750684934,-2.240864100030897,3.555000000000291
0.1881,0.9536,-0.2648,0.0484,0.149,-0.1069,-1.4175,-0.4725,-5.4687,-15.510284616902261,10.766099857338814,-2.240864100030897,3.555000000000291
0.1836,0.9541,-0.2652,0.049,0.1461,-0.1062,-1.4175,-0.4725,-5.9763,-15.528342745994996,10.577672612505447,-2.247951600027184,3.569999999992433
0.1814,0.955,-0.2643,0.049,0.1461,-0.1062,-1.4963,-0.6388,-5.9763,-15.482852528998924,10.431519303364498,-2.247951600027184,3.569999999992433
0.1806,0.9543,-0.2639,0.049,0.1461,-0.1062,-1.2687,-1.1988,-5.9062,-15.463997978978572,10.36334785910279,-2.2671324000310915,3.5859999999956926
0.1806,0.9565,-0.2643,0.0467,0.1468,-0.1051,-0.63,-1.3212,-5.9763,-15.451419496128347,10.328329846094777,-2.2671324000310915,3.5859999999956926
0.1806,0.9565,-0.2643,0.0467,0.1468,-0.1051,-0.63,-1.3212,-5.9763,-15.44790176556469,10.3184465241709,-2.2869504000399354,3.6010000000023865
0.1809,0.9565,-0.2661,0.0487,0.1458,-0.1077,-0.5425,-1.5838,-6.195,-15.518349430486866,10.324027557580902,-2.2869504000399354,3.6010000000023865
0.1807,0.9592,-0.2628,0.0487,0.1458,-0.1077,-0.8662,-2.1437,-6.23,-15.373372264617771,10.305741944828943,-2.321249600031326,3.61699999999837
0.1825,0.9567,-0.268,0.0487,0.1458,-0.1077,-1.0325,-2.5725,-6.0637,-15.579815372441013,10.37880557956632,-2.321249600031326,3.61699999999837
0.1799,0.9568,-0.262,0.0482,0.1475,-0.118,-1.0325,-2.5725,-6.0637,-15.380727098973315,10.307658146058545,-2.364982100030877,3.6339999999981956
0.1821,0.9553,-0.263,0.0482,0.1475,-0.118,-1.26,-2.1437,-5.9763,-15.389746289572868,10.383836418286023,-2.364982100030877,3.6339999999981956
0.1821,0.9553,-0.263,0.0495,0.1469,-0.1067,-1.1988,-1.9688,-6.0025,-15.39188090803347,10.405273640497436,-2.3945141000297308,3.6489999999976135
0.1815,0.9539,-0.2613,0.0495,0.1469,-0.1067,-1.3388,-1.7587,-6.09,-15.336115577756933,10.400622005699327,-2.3945141000297308,3.6489999999976135
0.1782,0.9568,-0.2627,0.0495,0.1469,-0.1067,-1.3388,-1.7587,-6.09,-15.348956635805951,10.245562848257324,-2.422653300022667,3.664999999993597
0.1803,0.9528,-0.2636,0.0481,0.1474,-0.1014,-1.5225,-1.9512,-5.7312,-15.43867653228075,10.312158691894183,-2.422653300022667,3.664999999993597
0.1822,0.953,-0.2653,0.0481,0.1474,-0.1014,-1.155,-2.1088,-5.635,-15.52765772134965,10.404042349389101,-2.454285300036783,3.680000000000291
0.1822,0.953,-0.2653,0.0486,0.1472,-0.1067,-0.735,-1.6187,-5.495,-15.548558025157753,10.427981903177924,-2.454285300036783,3.680000000000291
0.1806,0.9548,-0.2628,0.0486,0.1472,-0.1067,-0.735,-1.6187,-5.495,-15.432409151577536,10.358349332491075,-2.480184500030282,3.6959999999962747
0.1825,0.9547,-0.2629,0.0486,0.1472,-0.1021,-0.875,-1.0588,-5.915,-15.405674073620508,10.419081173284898,-2.4981841000300973,3.7129999999961
0.1836,0.9545,-0.262,0.0475,0.1466,-0.1021,-1.0063,-1.3038,-5.915,-15.363371814138524,10.483634170133024,-2.4994879000351062,3.713999999999942
0.1811,0.956,-0.2623,0.0475,0.1466,-0.1021,-0.455,-1.0325,-5.6175,-15.348859418547157,10.386361193970584,-2.5149754000345053,3.7289999999993597
0.1815,0.9546,-0.2606,0.0477,0.1472,-0.1026,-0.455,-1.0325,-5.6175,-15.292721600899371,10.391792775417613,-2.5149754000345053,3.7289999999993597
0.1815,0.9546,-0.2606,0.0477,0.1472,-0.1026,-0.175,-0.8225,-5.4687,-15.276830994602403,10.393202416233667,-2.5281354000312017,3.7449999999953434
0.1828,0.9543,-0.2629,0.05,0.1474,-0.1018,-0.56,-0.8225,-5.2587,-15.366541155450356,10.446749821635924,-2.5281354000312017,3.7449999999953434
0.1837,0.9556,-0.2668,0.05,0.1474,-0.1018,-0.56,-0.8225,-5.6087,-15.533076115485489,10.478762823756341,-2.5404729000367077,3.7600000000020373
0.1812,0.954,-0.26,0.05,0.1474,-0.1018,-0.2625,-0.84,-5.6087,-15.334761288133798,10.40854547377503,-2.5404729000367077,3.7600000000020373
0.1843,0.9518,-0.2619,0.0494,0.1504,-0.1196,0.1488,-0.3675,-5.1275,-15.366990066429041,10.537142081519,-2.5463529000325575,3.775999999990745
0.1843,0.9518,-0.2619,0.0494,0.1504,-0.1196,0.21,0.1312,-5.0225,-15.37836949407012,10.566623762196253,-2.5463529000325575,3.775999999990745
0.1823,0.9532,-0.2631,0.049,0.146,-0.107,0.21,0.1312,-5.0225,-15.411408712820178,10.472495069267973,-2.54425370003213,3.7919999999940046
0.1818,0.9547,-0.2638,0.049,0.146,-0.107,0.5863,-0.035,-5.005,-15.431563735985064,10.416653271263742,-2.54425370003213,3.7919999999940046
0.184,0.9543,-0.2649,0.049,0.146,-0.107,0.8925,0.0437,-4.9437,-15.473795060022193,10.501153485343089,-2.5435982000318376,3.8070000000006985
0.1886,0.9572,-0.266,0.0469,0.1479,-0.1153,0.5775,-0.3413,-5.0662,-15.50643198937694,10.69340058623372,-2.5435982000318376,3.8070000000006985
0.1842,0.9613,-0.2687,0.0469,0.1479,-0.1153,0.5775,-0.3413,-5.0662,-15.570080039257217,10.509186191565597,-2.549059000030467,3.822999999996682
0.1842,0.9613,-0.2687,0.0486,0.1462,-0.1089,0.3762,-0.4375,-4.8562,-15.598494554025914,10.467280384907083,-2.549059000030467,3.822999999996682
0.1833,0.9567,-0.2653,0.0486,0.1462,-0.1089,0.105,-0.1925,-4.7775,-15.534081502278159,10.462044124590337,-2.551946500030355,3.8379999999961
0.1807,0.9515,-0.2645,0.0486,0.1462,-0.1089,0.2625,-0.0525,-4.585,-15.53464540096252,10.387748230131603,-2.551946500030355,3.8379999999961
0.1757,0.9504,-0.2684,0.0472,0.1493,-0.1056,0.2625,-0.0525,-4.585,-15.682332742182004,10.148746186072916,-2.552786500030144,3.8539999999920838
0.1744,0.9534,-0.2709,0.0472,0.1493,-0.1056,0.3762,-0.2887,-4.5675,-15.792090368055982,10.013718590506192,-2.552786500030144,3.8539999999920838
0.1744,0.9534,-0.2709,0.049,0.1477,-0.0992,-0.0613,-1.3475,-4.6813,-15.83876485453487,9.986613279192992,-2.5743465000345367,3.8699999999953434
0.1774,0.9546,-0.2657,0.049,0.1477,-0.0992,-0.1575,-2.2225,-5.1975,-15.645644976954,10.11235964543576,-2.5743465000345367,3.8699999999953434
0.1781,0.9554,-0.267,0.049,0.1477,-0.101,-0.1575,-2.2225,-5.1975,-15.624041436635904,10.162939235494836,-2.6076840000494137,3.8850000000020373
0.1773,0.9537,-0.2717,0.0478,0.1474,-0.101,0.0613,-2.38,-5.5912,-15.805468712146583,10.14359994818323,-2.6076840000494137,3.8850000000020373
0.1771,0.9556,-0.2678,0.0478,0.1474,-0.101,-0.6475,-2.45,-5.7225,-15.69697987913921,10.124833640300247,-2.6468840000395737,3.900999999998021
0.1771,0.9553,-0.2657,0.0473,0.1463,-0.1034,-0.6475,-2.45,-5.5475,-15.585837339012643,10.126196210387642,-2.6468840000395737,3.900999999998021
0.1787,0.9553,-0.2657,0.0473,0.1463,-0.1034,-0.77,-2.6862,-5.5475,-15.554513085754415,10.193558707503215,-2.68717700003801,3.915999999997439
0.1826,0.9559,-0.2686,0.0482,0.1467,-0.1098,-0.7175,-2.87,-5.5388,-15.656594376785796,10.363395512851111,-2.68717700003801,3.915999999997439
0.1849,0.9584,-0.2672,0.0482,0.1467,-0.1098,-0.4112,-2.4588,-5.5912,-15.601667860681383,10.485842450343716,-2.7265178000281347,3.9319999999934225
0.1873,0.9577,-0.265,0.0482,0.1467,-0.1098,-0.4112,-2.4588,-5.5912,-15.50712437755019,10.626426366700068,-2.7265178000281347,3.9319999999934225
0.1878,0.9578,-0.2649,0.047,0.1467,-0.1062,-0.8313,-2.5725,-5.6087,-15.472415653284441,10.682333550441944,-2.76767780003652,3.947999999996682
0.1878,0.9578,-0.2649,0.047,0.1467,-0.1062,-0.665,-2.415,-5.5125,-15.463378656189526,10.696747264371632,-2.76767780003652,3.947999999996682
0.1861,0.9558,-0.2677,0.0496,0.1468,-0.1054,-0.4812,-1.7938,-5.3987,-15.59304361709199,10.637986557665492,-2.794584800035476,3.9629999999961
0.1855,0.9552,-0.2655,0.0496,0.1468,-0.1054,-0.4812,-1.7938,-5.3987,-15.550798411496205,10.607625482911336,-2.794584800035476,3.9629999999961
0.186,0.9541,-0.265,0.0496,0.1468,-0.1054,-0.5163,-1.12,-5.1537,-15.530718265779734,10.631296909895429,-2.8125048000391266,3.9789999999993597
0.183,0.9526,-0.2653,0.048,0.1473,-0.1111,-0.77,-0.8313,-5.425,-15.553997997730473,10.520503438351557,-2.8125048000391266,3.9789999999993597
0.1855,0.9534,-0.2668,0.048,0.1473,-0.1111,-0.6125,-0.9625,-5.4775,-15.61135503890972,10.589650592239135,-2.8269423000385663,3.9939999999987776
0.1855,0.9534,-0.2668,0.0492,0.147,-0.1074,-0.6125,-0.9625,-5.4775,-15.62747454558107,10.60675800097671,-2.8269423000385663,3.9939999999987776
0.1855,0.9544,-0.2618,0.0492,0.147,-0.1074,0.175,-0.8575,-5.5912,-15.443375765160004,10.613851303845962,-2.840662300035122,4.009999999994761
0.183,0.954,-0.26,0.0492,0.147,-0.1074,0.315,-0.4812,-4.7688,-15.320378665028185,10.512360996974484,-2.840662300035122,4.009999999994761
0.1817,0.9521,-0.2625,0.0487,0.1477,-0.1163,-0.2625,-0.56,-4.9963,-15.384728298765578,10.443948812708529,-2.8496223000369474,4.025999999998021
0.1784,0.9537,-0.2657,0.0487,0.1477,-0.1163,-0.2625,-0.56,-4.9963,-15.510730960487619,10.265601627923937,-2.8496223000369474,4.025999999998021
0.1784,0.9537,-0.2657,0.0484,0.147,-0.1092,-0.07,-0.4112,-5.1712,-15.548870400748072,10.226621860469804,-2.855790300036708,4.040999999997439
0.1784,0.9545,-0.2617,0.0484,0.147,-0.1092,0.77,0.315,-5.0487,-15.431835723211849,10.21989398918063,-2.855790300036708,4.040999999997439
0.1779,0.9545,-0.2641,0.0484,0.147,-0.1092,0.7788,0.1925,-4.7162,-15.450341829787424,10.191075885920865,-2.852710300037481,4.0569999999934225
0.1772,0.9539,-0.2674,0.049,0.1462,-0.1086,0.7788,0.1925,-4.7162,-15.562923703421799,10.151568219232132,-2.852710300037481,4.0569999999934225
0.176,0.958,-0.266,0.049,0.1462,-0.1086,0.9013,-0.07,-4.9875,-15.539943752613649,10.063410891706814,-2.85376030003795,4.072000000000116
0.176,0.9569,-0.2634,0.05,0.1468,-0.1065,0.6475,-0.6388,-4.9612,-15.45541584722741,10.057485547075249,-2.85376030003795,4.072000000000116
0.179,0.9569,-0.2634,0.05,0.1468,-0.1065,0.6475,-0.6388,-5.2937,-15.418636407767165,10.18432071654434,-2.8639811000353843,4.0879999999961
0.179,0.9575,-0.2685,0.0482,0.1465,-0.1018,0.7,-0.9538,-5.2937,-15.554986352231893,10.199404882599492,-2.8792419000384935,4.10399999999936
0.1798,0.9581,-0.2688,0.0482,0.1465,-0.1018,0.4988,-0.2275,-4.83,-15.624027983751898,10.232980278378452,-2.8792419000384935,4.10399999999936
0.1809,0.9575,-0.2667,0.0482,0.1465,-0.1018,0.4288,-0.2625,-4.8387,-15.588170797593651,10.297476449740689,-2.883179400036431,4.118999999991502
0.183,0.9566,-0.2682,0.0478,0.1487,-0.1078,0.4288,-0.2625,-4.8387,-15.632543480525912,10.407100287246347,-2.883179400036431,4.118999999991502
0.183,0.9566,-0.2682,0.0478,0.1487,-0.1078,-0.1225,-0.5775,-4.69,-15.652261319999901,10.430716386511168,-2.8924194000383134,4.134999999994761
0.1844,0.9551,-0.2683,0.049,0.1472,-0.1025,-0.0175,-0.8313,-5.2063,-15.677756384760487,10.506704015808078,-2.8924194000383134,4.134999999994761
0.1828,0.956,-0.2653,0.049,0.1472,-0.1025,-0.0613,-0.6913,-4.69,-15.565715162944151,10.453554258561011,-2.9027889000429408,4.150000000001455
0.1823,0.9555,-0.2676,0.049,0.1472,-0.1025,-0.0613,-0.6913,-4.69,-15.61902249061459,10.419295511709093,-2.9027889000429408,4.150000000001455
0.1809,0.9553,-0.2651,0.0475,0.1462,-0.1186,-0.0875,-0.805,-4.83,-15.545655175816531,10.357649118454342,-2.915668900039708,4.165999999997439
0.1809,0.9549,-0.269,0.0475,0.1462,-0.1186,-0.0088,-0.6562,-5.1537,-15.669450411718735,10.339539115555239,-2.915668900039708,4.165999999997439
0.1804,0.9549,-0.269,0.0482,0.1458,-0.1079,-0.3325,-0.7,-5.5037,-15.713467207490673,10.314508277028944,-2.9268689000419896,4.1820000000006985
0.1832,0.9567,-0.2668,0.0482,0.1458,-0.1079,-0.3325,-0.7,-5.5037,-15.622431957462695,10.416955674143095,-2.9268689000419896,4.1820000000006985
0.1826,0.9547,-0.2655,0.0482,0.1458,-0.1079,-0.3063,-0.9013,-5.3113,-15.566132901721726,10.435168065951226,-2.940388400034907,4.1969999999928405
0.1852,0.9556,-0.2672,0.0476,0.148,-0.1065,0.0962,-1.2425,-5.7663,-15.602254131281711,10.535813429950569,-2.940388400034907,4.1969999999928405
0.1845,0.9558,-0.2644,0.0476,0.148,-0.1065,-0.42,-1.0938,-5.9763,-15.504287172865352,10.538168961949204,-2.957889200038472,4.2129999999961
0.1845,0.9558,-0.2644,0.0468,0.1468,-0.1046,-0.42,-1.0938,-5.9763,-15.475180047350426,10.53883377639882,-2.957889200038472,4.2129999999961
0.1887,0.9565,-0.2643,0.0468,0.1468,-0.1046,-0.5688,-0.735,-5.6875,-15.454686194452778,10.707149072109447,-2.968914200038044,4.227999999995518
0.1878,0.9551,-0.2648,0.0468,0.1468,-0.1046,-0.875,-0.6125,-5.7488,-15.485151312371443,10.723400691969635,-2.968914200038044,4.227999999995518
0.1853,0.9534,-0.2686,0.0477,0.1477,-0.1087,-0.875,-0.3413,-5.4425,-15.668901199439981,10.62733171816122,-2.974375000039157,4.243999999998778
0.1831,0.9549,-0.2643,0.0477,0.1477,-0.1087,-0.8575,-0.3413,-5.4425,-15.523166772184288,10.50868618271826,-2.974375000039157,4.243999999998778
0.1831,0.9507,-0.2634,0.0483,0.148,-0.106,-0.5863,-0.3237,-4.9612,-15.496430661860433,10.513319778381199,-2.979554200040212,4.260000000002037
0.1843,0.9507,-0.2634,0.0483,0.148,-0.106,-0.2275,-0.175,-4.3925,-15.489199090946036,10.568588896698623,-2.979554200040212,4.260000000002037
0.1825,0.9536,-0.2654,0.0471,0.1466,-0.1094,-0.2275,-0.175,-6.6325,-15.532631535410559,10.48876098048676,-2.982179200038837,4.274999999994179
0.182,0.9586,-0.2652,0.0471,0.1466,-0.1094,-0.6388,0.0,-4.4975,-15.483355035918072,10.39336028330592,-2.982179200038837,4.274999999994179
0.1853,0.9547,-0.2619,0.0471,0.1466,-0.1094,-0.4725,-0.245,-4.76,-15.382219025440385,10.557990302401496,-2.9860992000396354,4.290999999997439
0.1902,0.9522,-0.2599,0.046,0.1478,-0.1092,-0.7437,-0.2275,-4.935,-15.298104370141454,10.830978757808605,-2.9860992000396354,4.290999999997439
0.1902,0.9522,-0.2599,0.046,0.1478,-0.1092,-0.7437,-0.2275,-4.935,-15.275305598269174,10.890525471543258,-2.989511700039503,4.305999999996857
0.185,0.9531,-0.2652,0.0467,0.1471,-0.1103,-0.8487,-0.5337,-4.8738,-15.4770330444936,10.656214305329964,-2.989511700039503,4.305999999996857
0.1838,0.9514,-0.263,0.0467,0.1471,-0.1103,-0.8313,-1.0237,-4.9437,-15.459103718593836,10.571635631374782,-3.0058909000428398,4.322000000000116
0.1865,0.9536,-0.2599,0.0467,0.1471,-0.1103,-0.98,-1.1988,-5.005,-15.299880285652096,10.660371128159667,-3.0058909000428398,4.322000000000116
0.1852,0.9531,-0.2624,0.0488,0.1478,-0.1073,-0.98,-1.1988,-5.005,-15.369187861098613,10.62190766996539,-3.025071700038025,4.3379999999961
0.1852,0.9375,-0.2613,0.0488,0.1478,-0.1073,-0.1838,-0.9625,-5.0838,-15.508702826257295,10.739861074310832,-3.025071700038025,4.3379999999961
0.1823,0.9521,-0.2613,0.0484,0.1485,-0.109,-0.0613,-1.2425,-5.18,-15.40059782394463,10.525641194833407,-3.0437092000373016,4.352999999995518
0.1819,0.9554,-0.2655,0.0484,0.1485,-0.109,0.315,-1.3737,-5.6,-15.480995481509403,10.42816387000675,-3.0437092000373016,4.352999999995518
0.1828,0.9561,-0.2654,0.0484,0.1485,-0.109,0.315,-1.3737,-5.6,-15.501399078904397,10.435794562934507,-3.0656884000417794,4.368999999998778
0.1819,0.957,-0.2647,0.047,0.1465,-0.1083,-0.1138,-1.9512,-5.7225,-15.47427122504006,10.395559178130771,-3.0656884000417794,4.368999999998778
0.1842,0.9567,-0.2603,0.047,0.1465,-0.1083,0.3237,-2.2313,-5.9763,-15.317379142637977,10.488173853890528,-3.0991579000404808,4.383999999998196
0.1842,0.9567,-0.2603,0.0469,0.1462,-0.1094,-0.21,-2.5375,-6.1075,-15.251304466850453,10.513917758674319,-3.0991579000404808,4.383999999998196
0.1847,0.9562,-0.2641,0.0469,0.1462,-0.1094,-0.21,-2.5375,-6.1075,-15.380216978808663,10.537364733789568,-3.1397579000302893,4.399999999994179
0.1865,0.9557,-0.2638,0.0469,0.1462,-0.1094,-0.175,-2.1,-6.3088,-15.414725889295367,10.617279247940258,-3.1733579000371344,4.415999999997439
0.1869,0.9562,-0.2647,0.0468,0.1468,-0.1054,-0.595,-2.1175,-6.055,-15.456839797730098,10.653477878825205,-3.1733579000371344,4.415999999997439
0.1838,0.9546,-0.2624,0.0468,0.1468,-0.1054,-0.595,-2.1175,-6.1687,-15.394406758059338,10.558087847191018,-3.2051204000359017,4.430999999996857
0.1838,0.939,-0.2635,0.0449,0.1455,-0.1108,-0.7788,-1.995,-6.1687,-15.599706525991836,10.638570520235902,-3.2051204000359017,4.430999999996857
0.1827,0.9525,-0.2635,0.0449,0.1455,-0.1108,-0.5775,-2.0213,-6.5188,-15.50222787058484,10.528762521353638,-3.2374612000424903,4.447000000000116
0.1809,0.9531,-0.266,0.0487,0.1477,-0.1035,-0.84,-1.995,-6.0637,-15.569647010337313,10.408937139631682,-3.2374612000424903,4.447000000000116
0.1816,0.9572,-0.2643,0.0487,0.1477,-0.1035,-0.84,-1.995,-6.0637,-15.471140048845148,10.37667910927827,-3.2673862000268135,4.461999999992258
0.1834,0.9597,-0.2631,0.0487,0.1477,-0.1035,-1.0762,-2.1175,-5.8625,-15.365743715511718,10.424495730691481,-3.2673862000268135,4.461999999992258
0.1835,0.9609,-0.2644,0.0469,0.1474,-0.1088,-0.7875,-2.1962,-6.0725,-15.37962575971398,10.430295983681862,-3.3025254000339723,4.477999999995518
0.1835,0.9609,-0.2644,0.0469,0.1474,-0.1088,-0.91,-1.3212,-5.95,-15.383387482759806,10.43200230866919,-3.3025254000339723,4.477999999995518
0.1835,0.9597,-0.263,0.0484,0.1478,-0.1107,-0.91,-1.3212,-5.95,-15.340375322963574,10.443757513804927,-3.323664600038279,4.493999999998778
0.1859,0.9569,-0.2613,0.0484,0.1478,-0.1107,-0.98,-1.3038,-6.2825,-15.29042808114248,10.561927392012421,-3.323664600038279,4.493999999998778
0.1811,0.9559,-0.2599,0.0484,0.1478,-0.1107,-1.0762,-0.9187,-5.9938,-15.230356239027026,10.41748402457671,-3.337445100037744,4.508999999998196
0.1802,0.9536,-0.2588,0.0464,0.1461,-0.1016,-1.1725,-0.735,-6.2038,-15.195194684696787,10.360239050281574,-3.337445100037744,4.508999999998196
0.1802,0.9536,-0.2597,0.0464,0.1461,-0.1016,-1.1725,-0.735,-6.2038,-15.224783328459354,10.341286650967518,-3.3492051000401397,4.525000000001455
0.1789,0.9539,-0.2597,0.0472,0.1458,-0.1077,-0.8662,-0.6825,-6.0637,-15.228412857363187,10.281536494382976,-3.3492051000401397,4.525000000001455
0.1798,0.9534,-0.2605,0.0472,0.1458,-0.1077,-0.5425,-0.665,-5.6262,-15.266684918071368,10.303044354082603,-3.359180100034914,4.539999999993597
0.1745,0.9525,-0.2604,0.0472,0.1458,-0.1077,-0.3588,-0.98,-5.7663,-15.283106985571163,10.096648655066451,-3.359180100034914,4.539999999993597
0.1777,0.955,-0.2591,0.049,0.1463,-0.1059,-0.3588,-0.98,-5.7663,-15.21081871413326,10.158330366436982,-3.3748601000381084,4.555999999996857
0.1763,0.9555,-0.2599,0.049,0.1463,-0.1059,0.2975,-0.2887,-5.775,-15.214385839900581,10.112109274451718,-3.3748601000381084,4.555999999996857
0.1763,0.9555,-0.2599,0.049,0.1482,-0.1054,0.105,-1.295,-5.7488,-15.215788199191966,10.099734102068261,-3.395580100032907,4.5719999999928405
0.1789,0.9548,-0.2613,0.049,0.1482,-0.1054,0.1488,-1.6712,-6.0988,-15.273344705061971,10.201914585217175,-3.395580100032907,4.5719999999928405
0.1809,0.9549,-0.2657,0.049,0.1482,-0.1054,0.1488,-1.6712,-6.0988,-15.45055609634472,10.301920673193278,-3.420648100044094,4.586999999999534
0.1797,0.9576,-0.2602,0.0469,0.1477,-0.1036,0.175,-1.47,-5.8625,-15.291349456651423,10.274720710305727,-3.420648100044094,4.586999999999534
0.1806,0.9571,-0.2613,0.0469,0.1477,-0.1036,-0.2975,-1.855,-4.9788,-15.276799828949219,10.307499707264801,-3.4503281000501405,4.603000000002794
0.1806,0.9571,-0.2641,0.0482,0.1471,-0.1135,-0.2975,-1.855,-5.1712,-15.380127716794373,10.308825883520912,-3.4503281000501405,4.603000000002794
0.18,0.9535,-0.2641,0.0482,0.1471,-0.1135,-0.4638,-2.0912,-5.1712,-15.45186928648903,10.310475595768663,-3.481696100033708,4.617999999994936
0.1815,0.9542,-0.2644,0.0479,0.1483,-0.108,-0.2713,-1.5925,-4.9788,-15.47646630373479,10.370362709104601,-3.481696100033708,4.617999999994936
0.1822,0.9561,-0.263,0.0479,0.1483,-0.108,0.2275,-1.3038,-5.0312,-15.415672095883945,10.402300931164394,-3.5025569000379577,4.633999999998196
0.1864,0.9573,-0.2633,0.0479,0.1483,-0.108,0.2275,-1.3038,-5.0312,-15.392248437766234,10.581656852429237,-3.5025569000379577,4.633999999998196
0.1857,0.957,-0.266,0.0473,0.1481,-0.1086,-0.0175,-1.4525,-5.0225,-15.48574865243524,10.587804102704988,-3.525796900032124,4.649999999994179
0.1857,0.957,-0.266,0.0473,0.1481,-0.1086,0.0613,-1.4525,-4.9963,-15.516862971527482,10.58917335157567,-3.525796900032124,4.649999999994179
0.1866,0.9556,-0.2646,0.0481,0.1472,-0.1086,0.07,-1.1113,-5.1275,-15.49092446658483,10.64216199790861,-3.542466400039563,4.665000000000873
0.1845,0.9548,-0.2644,0.0481,0.1472,-0.1086,0.07,-1.1113,-5.1275,-15.482686851774098,10.570302715634455,-3.542466400039563,4.665000000000873
0.1854,0.9551,-0.2688,0.0481,0.1472,-0.1086,-0.5425,-1.4,-5.39,-15.650925918022,10.580715575575363,-3.56486640003394,4.680999999996857
0.1828,0.9567,-0.2622,0.0486,0.1466,-0.1097,-0.315,-2.0125,-5.67,-15.426026884552352,10.477452239551285,-3.56486640003394,4.680999999996857
0.1828,0.9567,-0.2635,0.0486,0.1466,-0.1097,-0.1225,-2.1088,-6.0287,-15.407766595493099,10.44906521526938,-3.5964984000327127,4.695999999996275
0.1812,0.9557,-0.2635,0.0478,0.1465,-0.1101,-0.1225,-2.1088,-6.0287,-15.412160185600241,10.384186072226024,-3.5964984000327127,4.695999999996275
0.1835,0.9519,-0.2639,0.0478,0.1465,-0.1101,-0.2713,-1.9338,-6.0113,-15.469412296445558,10.483878337790744,-3.6274392000390163,4.711999999999534
0.1802,0.9542,-0.2675,0.0478,0.1465,-0.1101,-0.5863,-2.1,-6.2125,-15.606244868158393,10.359791625655626,-3.6274392000390163,4.711999999999534
0.1787,0.9551,-0.2629,0.0491,0.149,-0.1103,-0.6125,-1.9425,-5.9938,-15.45081169889166,10.263739700281524,-3.658519200031215,4.727999999995518
0.1795,0.9544,-0.2637,0.0491,0.149,-0.1103,-0.6125,-1.9425,-5.9938,-15.44694656573959,10.271953960716715,-3.658519200031215,4.727999999995518
0.1795,0.9544,-0.2637,0.0487,0.1454,-0.1098,-0.4025,-2.0738,-6.2038,-15.445886947794191,10.274225396497993,-3.6896262000300077,4.742999999994936
0.1796,0.9525,-0.2666,0.0487,0.1454,-0.1098,-0.315,-2.1263,-5.6175,-15.578159668212162,10.28709160196742,-3.6896262000300077,4.742999999994936
0.1807,0.9573,-0.2664,0.0487,0.1454,-0.1098,-0.315,-2.3712,-5.9938,-15.559303975584871,10.301074546762006,-3.727565400037737,4.758999999998196
0.1842,0.9559,-0.2636,0.0479,0.1472,-0.1074,-0.315,-2.3712,-5.9938,-15.460491347719111,10.460448646305617,-3.727565400037737,4.758999999998196
0.1818,0.955,-0.2625,0.0479,0.1472,-0.1074,-0.7,-2.0912,-5.81,-15.3942977811844,10.417275443258355,-3.7589334000365198,4.7739999999976135
0.1818,0.955,-0.266,0.049,0.1472,-0.1114,-0.5688,-1.8813,-5.7575,-15.515949899212565,10.3985435801441,-3.7589334000365198,4.7739999999976135
0.1801,0.9564,-0.266,0.049,0.1472,-0.1114,-0.5688,-1.8813,-5.7575,-15.535051610919929,10.313703578252472,-3.7890342000426522,4.790000000000873
0.1807,0.9562,-0.2647,0.0476,0.1482,-0.1073,-0.56,-1.995,-5.7575,-15.490996822705547,10.319799440500377,-3.8209542000346395,4.805999999996857
0.1807,0.9544,-0.2639,0.0476,0.1482,-0.1073,-0.2887,-1.6712,-5.5475,-15.467227772301056,10.336318075593368,-3.8209542000346395,4.805999999996857
0.1793,0.9549,-0.2655,0.0476,0.1482,-0.1073,-0.1663,-1.7062,-5.215,-15.515282984704028,10.273311261758229,-3.8465472000336463,4.820999999996275
0.1812,0.9551,-0.2635,0.0486,0.147,-0.113,-0.1663,-1.7062,-5.215,-15.452997587561802,10.342972726753414,-3.8465472000336463,4.820999999996275
0.1812,0.9551,-0.2635,0.0486,0.147,-0.113,-0.5688,-1.7062,-5.3637,-15.431897975526493,10.358981106665226,-3.8738464000267934,4.836999999992258
0.1857,0.9503,-0.2607,0.0491,0.1468,-0.1073,-0.3675,-1.4438,-5.6613,-15.368289230029797,10.591009112357556,-3.8738464000267934,4.836999999992258
0.1842,0.953,-0.2651,0.0491,0.1468,-0.1073,0.4025,-1.3737,-6.1337,-15.475635386854695,10.561022342577319,-3.894451900035989,4.851999999998952
0.1827,0.9553,-0.2668,0.0491,0.1468,-0.1073,0.4025,-1.3737,-6.1337,-15.55364709631471,10.47355227457067,-3.894451900035989,4.851999999998952
0.1813,0.954,-0.2675,0.049,0.1478,-0.1114,0.2013,-1.0588,-6.5975,-15.623413612121894,10.40512746418967,-3.9113927000394404,4.868000000002212
0.1813,0.954,-0.2649,0.049,0.1478,-0.1114,0.455,-0.735,-6.755,-15.560642574626717,10.386973878495295,-3.9113927000394404,4.868000000002212
0.1815,0.9565,-0.2649,0.0473,0.1471,-0.1086,0.2275,-0.595,-6.5275,-15.509617945919778,10.371156547113923,-3.9209127000370505,4.883999999998196
0.1823,0.9575,-0.2652,0.0473,0.1471,-0.1086,0.2275,-0.595,-6.5275,-15.4916565840129,10.388496926101748,-3.9209127000370505,4.883999999998196
0.179,0.9582,-0.2664,0.0473,0.1471,-0.1086,-0.0875,-0.3938,-6.8162,-15.52209335363109,10.27160861569662,-3.9268197000368215,4.8989999999976135
0.1807,0.9593,-0.2655,0.0485,0.1486,-0.1139,0.0875,0.1312,-6.86,-15.488348503493135,10.282785819595816,-3.9268197000368215,4.8989999999976135
0.1805,0.9567,-0.2634,0.0485,0.1486,-0.1139,0.6125,0.0,-6.51,-15.434077261164258,10.30058597625825,-3.9268197000368215,4.914999999993597
0.1805,0.9567,-0.2634,0.05,0.1482,-0.1096,0.6125,0.0,-6.51,-15.41081720696967,10.306500746060237,-3.9268197000368215,4.914999999993597
0.1753,0.9563,-0.2629,0.05,0.1482,-0.1096,-0.0525,-0.2275,-6.405,-15.384717251326725,10.114485116569208,-3.9302322000383443,4.930000000000291
0.1776,0.9545,-0.2613,0.05,0.1482,-0.1096,-0.0175,-0.3413,-5.9938,-15.335188109545939,10.157232558469714,-3.9302322000383443,4.930000000000291
0.1801,0.951,-0.26,0.0494,0.1477,-0.1139,-0.0175,-0.3413,-5.985,-15.30577823770454,10.297173623310185,-3.935693000039457,4.946000000003551
0.1798,0.9567,-0.2658,0.0494,0.1477,-0.1139,0.2975,-0.1138,-5.985,-15.443396647340425,10.273270329119653,-3.935693000039457,4.946000000003551
0.1798,0.9567,-0.2641,0.0482,0.1475,-0.1092,0.875,0.665,-5.985,-15.437675345303486,10.269800436211712,-3.9250530000469666,4.961999999992258
0.1779,0.9606,-0.2641,0.0482,0.1475,-0.1092,0.0525,-0.0175,-6.2737,-15.395122837904426,10.169360941800525,-3.9250530000469666,4.961999999992258
0.1792,0.9598,-0.2621,0.0482,0.1481,-0.1076,0.0525,-0.0175,-6.2737,-15.315737384145569,10.197561918212013,-3.9253155000470836,4.976999999998952
0.1799,0.9534,-0.2647,0.0492,0.1481,-0.1076,0.3588,0.3675,-6.3437,-15.438999164879252,10.27097099103906,-3.9253155000470836,4.976999999998952
0.1786,0.9565,-0.2646,0.0492,0.1481,-0.1076,0.315,0.1138,-6.2213,-15.45401958163686,10.222872060400883,-3.9234947000475406,4.992999999994936
0.1776,0.9576,-0.2671,0.0502,0.1469,-0.1099,0.6825,0.455,-5.7137,-15.527235386481845,10.153467524749066,-3.9234947000475406,4.992999999994936
0.1776,0.9576,-0.2671,0.0502,0.1469,-0.1099,0.6825,0.455,-5.7137,-15.559585411024107,10.135230730018414,-3.9166697000478057,5.007999999994354
0.1745,0.9568,-0.2628,0.0505,0.1483,-0.1034,0.7,0.4462,-6.23,-15.448004588231273,10.02326572628176,-3.9166697000478057,5.007999999994354
0.1762,0.9522,-0.2688,0.0505,0.1483,-0.1034,1.0063,0.1312,-6.51,-15.601085733400678,10.07295374034916,-3.914570500047378,5.0239999999976135
0.1762,0.9553,-0.263,0.0505,0.1483,-0.1034,1.1812,-0.035,-6.405,-15.510735712832066,10.080060806586811,-3.914570500047378,5.0239999999976135
0.1745,0.9592,-0.2647,0.0489,0.1495,-0.1078,1.1812,-0.035,-6.405,-15.474597404456581,9.98950375490664,-3.9151305000472374,5.039999999993597
0.1745,0.9592,-0.2804,0.0489,0.1495,-0.1078,0.7,-0.14,-6.335,-15.92971980738717,9.931408668376209,-3.9172305000481744,5.055000000000291
0.172,0.9606,-0.2693,0.0509,0.1474,-0.1109,0.595,-0.2625,-6.0025,-15.775087470711355,9.824535544614086,-3.9172305000481744,5.055000000000291
0.1742,0.9578,-0.2655,0.0509,0.1474,-0.1109,0.5775,-0.0962,-6.0988,-15.612259299771718,9.906980913334229,-3.918769700047788,5.070999999996275
0.1773,0.9609,-0.263,0.0509,0.1474,-0.1109,0.5775,-0.0962,-6.0988,-15.435939535139717,10.037351267473152,-3.918769700047788,5.070999999996275
0.1768,0.96,-0.2634,0.051,0.1472,-0.1038,0.5425,0.21,-6.3787,-15.381645647614802,10.060205750713234,-3.9156197000479103,5.085999999995693
0.1791,0.96,-0.2669,0.051,0.1472,-0.1038,0.385,-0.4288,-6.1863,-15.476355767525767,10.150935848957943,-3.9156197000479103,5.085999999995693
0.1791,0.96,-0.2669,0.0496,0.1486,-0.1097,-1.855,-0.4988,-5.8713,-15.524398346194765,10.179163825273639,-3.923600500045907,5.101999999991676
0.178,0.9606,-0.2669,0.0496,0.1486,-0.1097,-0.0263,-0.4988,-5.8713,-15.526657091265871,10.138240936267852,-3.923600500045907,5.101999999991676
0.1764,0.9579,-0.2659,0.0496,0.1486,-0.1097,-0.6125,-0.49,-5.9062,-15.517506886809104,10.083115163543024,-3.931440500047504,5.117999999994936
0.1759,0.9567,-0.2685,0.0503,0.1498,-0.1062,-1.1113,-0.7437,-5.7663,-15.637607761264526,10.05046046731244,-3.931440500047504,5.117999999994936
0.1715,0.9583,-0.2657,0.0503,0.1498,-0.1062,-1.1113,-0.7437,-5.7663,-15.531403549929967,9.85558094798743,-3.9425960000524825,5.13300000000163
0.1715,0.9583,-0.2657,0.052,0.1482,-0.1142,-1.3125,-1.1287,-6.2125,-15.504821175301291,9.806201334539093,-3.9425960000524825,5.13300000000163
0.1715,0.9564,-0.2652,0.052,0.1482,-0.1142,-0.455,-1.5488,-6.2038,-15.500114102996791,9.80451654792114,-3.967376800046262,5.1489999999976135
0.1737,0.9575,-0.2655,0.052,0.1482,-0.1101,-0.1838,-1.75,-6.2213,-15.49859016597323,9.882128825233538,-3.967376800046262,5.1489999999976135
0.1712,0.957,-0.2673,0.0495,0.1486,-0.1101,-0.1838,-1.75,-6.2213,-15.571405332151262,9.808142985803354,-3.9936268000452433,5.163999999997031
0.1707,0.9565,-0.2631,0.0495,0.1486,-0.1101,-0.035,-1.7325,-6.23,-15.444035860302499,9.777003459674164,-3.9936268000452433,5.163999999997031
0.1746,0.9576,-0.2623,0.0514,0.1468,-0.1146,0.0,-1.8988,-6.2475,-15.36103960323175,9.913559907269441,-4.024007600037617,5.179999999993015
0.1746,0.9576,-0.2623,0.0514,0.1468,-0.1146,-0.49,-1.995,-6.1075,-15.33079940179269,9.956049267359248,-4.024007600037617,5.179999999993015
0.1729,0.9567,-0.2655,0.0497,0.1484,-0.1058,-0.49,-1.995,-6.1075,-15.457991291699642,9.901331423056185,-4.05592760004412,5.195999999996275
0.1756,0.9581,-0.2635,0.0497,0.1484,-0.1058,-0.0613,-2.555,-5.6613,-15.40426908373278,9.99051841587434,-4.05592760004412,5.195999999996275
0.1754,0.9585,-0.2611,0.0497,0.1484,-0.1058,-0.14,-2.0912,-5.4513,-15.291829048297982,10.0074633190605,-4.087295600058118,5.211000000002969
0.1724,0.9576,-0.265,0.0507,0.1502,-0.1203,-0.4812,-1.96,-5.6613,-15.416981378629457,9.886002158252245,-4.087295600058118,5.211000000002969
0.1724,0.9576,-0.265,0.0507,0.1502,-0.1203,-0.4812,-1.96,-5.6613,-15.45350154045657,9.854520382618208,-4.118655600050246,5.226999999998952
0.1731,0.9574,-0.2652,0.0511,0.1498,-0.1081,-0.2887,-2.1788,-5.915,-15.47370210063159,9.875854675378568,-4.118655600050246,5.226999999998952
0.1743,0.9578,-0.2658,0.0511,0.1498,-0.1081,0.0437,-1.7062,-5.67,-15.497438347248657,9.927664278941162,-4.144248600049253,5.24199999999837
0.1762,0.9593,-0.2672,0.0511,0.1498,-0.1081,-0.2537,-1.7675,-5.88,-15.54351005689293,10.004829136300128,-4.144248600049253,5.24199999999837
0.1792,0.9589,-0.2655,0.0512,0.149,-0.1066,-0.2537,-1.7675,-5.88,-15.4973294694791,10.153467026413912,-4.172528600042154,5.257999999994354
0.1792,0.9591,-0.2644,0.0512,0.149,-0.1066,0.0175,-1.6363,-5.6788,-15.44127620524492,10.195862673079068,-4.172528600042154,5.257999999994354
0.1792,0.9591,-0.2644,0.0498,0.1492,-0.1098,-0.1488,-1.4175,-5.6087,-15.421600391846182,10.206971016735366,-4.195208600046775,5.2739999999976135
0.1803,0.9562,-0.2627,0.0498,0.1492,-0.1098,-0.1488,-1.4175,-5.9763,-15.381290251102993,10.277369738652297,-4.195208600046775,5.2739999999976135
0.1793,0.958,-0.2624,0.0498,0.1492,-0.1098,-0.525,-1.12,-5.9763,-15.336130044929938,10.245077802889572,-4.212008600046123,5.288999999997031
0.1783,0.957,-0.2666,0.0503,0.1475,-0.1135,-0.2625,-0.4375,-5.6087,-15.494842003341311,10.192888589534846,-4.212008600046123,5.288999999997031
0.1767,0.9568,-0.2644,0.0503,0.1475,-0.1135,-0.035,-0.4025,-5.5912,-15.46337442054255,10.11865641181661,-4.218448600044506,5.304999999993015
0.1767,0.9568,-0.2644,0.0507,0.1476,-0.1102,-0.035,-0.4025,-5.5912,-15.452817443445344,10.099759363794053,-4.218448600044506,5.304999999993015
0.1777,0.9554,-0.2658,0.0507,0.1476,-0.1102,-0.49,-0.1225,-5.6087,-15.519585186302002,10.143862258235242,-4.2202861000453264,5.319999999999709
0.1733,0.9555,-0.2661,0.0507,0.1476,-0.1046,-0.35,-0.035,-5.6525,-15.54923091699507,9.971061048764069,-4.2202861000453264,5.319999999999709
0.1716,0.9573,-0.2638,0.0508,0.1486,-0.1046,0.3413,-0.2275,-5.8975,-15.461261945816265,9.850562441350666,-4.223926100044412,5.335999999995693
0.1709,0.9585,-0.2607,0.0508,0.1486,-0.1046,0.3413,-0.2275,-5.8975,-15.309960586229568,9.786534091373873,-4.223926100044412,5.335999999995693
0.172,0.9553,-0.2602,0.0515,0.1474,-0.1062,0.0613,-0.0437,-5.88,-15.26186317159997,9.836217365277683,-4.224625300044555,5.351999999998952
0.172,0.9553,-0.2602,0.0515,0.1474,-0.1062,-0.0787,-0.14,-5.7488,-15.244778773851632,9.850048671472084,-4.224625300044555,5.351999999998952
0.1715,0.9569,-0.2622,0.051,0.1502,-0.1071,0.42,0.0613,-5.3725,-15.292328607554557,9.817261663589601,-4.223705800045037,5.366999999991094
0.1754,0.9563,-0.2603,0.051,0.1502,-0.1071,0.42,0.0613,-5.3725,-15.25269893807247,9.9833113526867,-4.223705800045037,5.366999999991094
0.1758,0.9567,-0.263,0.051,0.1502,-0.1071,1.0237,-0.0088,-5.74,-15.309498589566239,10.030583051625198,-4.223846600045066,5.382999999994354
0.1773,0.955,-0.2643,0.051,0.1501,-0.1119,1.0063,0.0437,-5.32,-15.387067245682305,10.117373042544328,-4.223846600045066,5.382999999994354
0.1773,0.955,-0.2643,0.051,0.1501,-0.1119,0.91,0.28,-5.285,-15.42907661589931,10.138093463795075,-4.219646600043192,5.398000000001048
0.1748,0.9531,-0.2669,0.0506,0.1473,-0.1113,0.91,0.28,-5.285,-15.53844023386239,10.04451964888725,-4.219646600043192,5.398000000001048
0.1771,0.9542,-0.2641,0.0506,0.1473,-0.1113,0.4725,0.56,-5.2413,-15.498166841127166,10.118873954607702,-4.210686600045441,5.413999999997031
0.1801,0.95,-0.2672,0.0506,0.1473,-0.1113,0.28,0.0437,-5.25,-15.630120263256199,10.290145495066064,-4.210686600045441,5.413999999997031
0.1799,0.9558,-0.2644,0.0504,0.1485,-0.1165,0.28,0.5688,-4.9875,-15.525614718611822,10.283802144045174,-4.201585800043587,5.430000000000291
0.1799,0.9606,-0.2638,0.0504,0.1485,-0.1165,1.1113,0.5688,-4.9875,-15.448465597554168,10.247223001189926,-4.193053800048056,5.444999999992433
0.1797,0.9606,-0.2638,0.0507,0.149,-0.1115,1.225,0.5075,-5.0138,-15.40973987052688,10.230497112584597,-4.193053800048056,5.444999999992433
0.1818,0.9564,-0.2662,0.0507,0.149,-0.1115,1.2337,0.6562,-5.145,-15.469641617110176,10.34381902242641,-4.1825546000459175,5.460999999995693
0.1826,0.9564,-0.2686,0.0507,0.149,-0.1115,1.2337,0.6562,-5.145,-15.56009229342935,10.399064812428493,-4.1825546000459175,5.460999999995693
0.1787,0.9576,-0.268,0.051,0.1498,-0.1053,1.3388,1.2862,-5.1363,-15.588439361282504,10.235941301607562,-4.163261600037308,5.4760000000023865
0.1778,0.9572,-0.2649,0.051,0.1498,-0.1053,1.2775,1.1113,-5.5825,-15.540653766935813,10.171561925821464,-4.163261600037308,5.4760000000023865
0.1778,0.9572,-0.2649,0.0499,0.1492,-0.1042,1.1988,1.1025,-5.74,-15.510078314929697,10.155441321351454,-4.1456216000417365,5.49199999999837
0.1778,0.953,-0.2656,0.0499,0.1492,-0.1042,1.1988,1.1025,-5.74,-15.537021209421003,10.179686230860055,-4.1456216000417365,5.49199999999837
0.1715,0.9568,-0.2679,0.0499,0.1492,-0.1042,1.1375,1.3563,-6.2038,-15.583955031361574,9.909658627165362,-4.1239208000373155,5.50800000000163
0.1709,0.9589,-0.2665,0.0512,0.1489,-0.1099,0.6737,0.5512,-6.37,-15.554763610583288,9.796333270935085,-4.1239208000373155,5.50800000000163
0.1724,0.9564,-0.2645,0.0512,0.1489,-0.1099,0.9363,0.3325,-6.2213,-15.506759813561464,9.837943990241973,-4.118933300039928,5.522999999993772
0.1724,0.958,-0.2684,0.0507,0.1485,-0.1114,0.9363,0.3325,-6.2213,-15.579278733321482,9.833049618049303,-4.118933300039928,5.522999999993772
0.1746,0.958,-0.2684,0.0507,0.1485,-0.1114,1.19,0.5863,-6.2562,-15.61020184776853,9.916851431746856,-4.109552500038017,5.538999999997031
0.1695,0.9626,-0.2675,0.0498,0.1494,-0.1124,0.63,0.1138,-6.2125,-15.564775774769133,9.715989047285143,-4.109552500038017,5.538999999997031
0.1712,0.9632,-0.2636,0.0498,0.1494,-0.1124,0.665,-0.1225,-6.4925,-15.419146924194163,9.724057018894868,-4.111390000037946,5.553999999996449
0.1723,0.9593,-0.2657,0.0498,0.1494,-0.1124,0.665,-0.1225,-6.4925,-15.454039575067329,9.788451488125158,-4.111390000037946,5.553999999996449
0.174,0.962,-0.2688,0.051,0.1528,-0.1107,0.595,-0.1663,-6.2125,-15.544409441555132,9.853573421562968,-4.114050800037278,5.569999999992433
0.174,0.962,-0.2688,0.051,0.1528,-0.1107,0.2362,-0.5075,-6.2913,-15.586621451849716,9.873057543776572,-4.114050800037278,5.569999999992433
0.1702,0.9642,-0.2661,0.0515,0.152,-0.1196,-0.1225,-0.9187,-6.1863,-15.479997780375347,9.721720979336643,-4.128750000040273,5.585999999995693
0.1712,0.9598,-0.2663,0.0515,0.152,-0.1196,-0.1225,-0.9187,-6.1863,-15.498110444793761,9.743311576692895,-4.128750000040273,5.585999999995693
0.1689,0.9579,-0.265,0.0515,0.152,-0.1196,-0.2275,-1.2163,-6.2125,-15.474706094433914,9.674523854613723,-4.146994500039565,5.600999999995111
0.1678,0.958,-0.2669,0.0521,0.149,-0.1089,-0.6737,-1.4,-6.2038,-15.5421543974573,9.606652911996859,-4.146994500039565,5.600999999995111
0.1678,0.959,-0.2662,0.0521,0.149,-0.1089,-0.6737,-1.4,-6.0287,-15.521513519626485,9.58051066693161,-4.169394500044128,5.61699999999837
0.1707,0.959,-0.2662,0.048,0.1489,-0.1126,-0.98,-1.7587,-6.0287,-15.515640869057835,9.688796271991704,-4.169394500044128,5.61699999999837
0.1701,0.9589,-0.27,0.048,0.1489,-0.1126,-0.3938,-1.855,-5.985,-15.662846262916082,9.6895601398362,-4.197219500029552,5.631999999990512
0.1743,0.96,-0.2707,0.048,0.1489,-0.1126,-0.315,-1.9162,-6.0113,-15.72143181750503,9.848764004316838,-4.197219500029552,5.631999999990512
0.1733,0.9588,-0.2691,0.0504,0.1488,-0.1164,-0.315,-1.9162,-6.0113,-15.690961389618222,9.8653059524098,-4.227878700035798,5.647999999993772
0.176,0.9607,-0.2651,0.0504,0.1488,-0.1164,-0.2013,-1.8463,-5.9675,-15.51057374321698,9.972956981535646,-4.227878700035798,5.647999999993772
0.176,0.9607,-0.2651,0.0514,0.1505,-0.1127,-0.98,-1.5137,-5.6087,-15.447958339975193,10.00435425483118,-4.252097900040732,5.663999999997031
0.1749,0.958,-0.2687,0.0514,0.1505,-0.1127,-1.33,-2.065,-5.8538,-15.616349237363144,9.97925819365104,-4.252097900040732,5.663999999997031
0.1719,0.9568,-0.2691,0.0514,0.1505,-0.1127,-1.33,-2.065,-5.8538,-15.687053580483072,9.85785108926953,-4.28307290003953,5.678999999996449
0.1712,0.9573,-0.2644,0.0513,0.1495,-0.1184,-0.875,-1.9688,-6.055,-15.504516828664968,9.802934431653746,-4.28307290003953,5.678999999996449
0.1728,0.9559,-0.265,0.0513,0.1495,-0.1184,-0.9538,-1.7675,-5.9763,-15.497245970696097,9.85959139845117,-4.311352900045291,5.694999999999709
0.1728,0.9559,-0.2658,0.053,0.152,-0.1089,-1.0063,-1.54,-5.81,-15.528627390114062,9.874337604949764,-4.311352900045291,5.694999999999709
0.1712,0.9573,-0.2658,0.053,0.152,-0.1089,-1.0063,-1.54,-5.81,-15.520411456224963,9.803272346725333,-4.33445290003319,5.709999999991851
0.1706,0.9573,-0.2669,0.0515,0.1486,-0.1124,-1.1725,-0.9625,-5.5912,-15.564572384728487,9.75655488494441,-4.33445290003319,5.709999999991851
0.1762,0.9562,-0.2633,0.0515,0.1486,-0.1124,-1.0588,-1.365,-6.1687,-15.437696588611933,9.979252680740913,-4.356292900037639,5.725999999995111
0.1743,0.9565,-0.2632,0.0515,0.1486,-0.1124,-0.5863,-1.4963,-5.6175,-15.40013499955126,9.96862400013389,-4.356292900037639,5.725999999995111
0.1754,0.9565,-0.2687,0.0518,0.1476,-0.1135,-0.5863,-1.4963,-5.6175,-15.60873255062934,10.000890735364166,-4.380233700042516,5.74199999999837
0.1754,0.9565,-0.2687,0.0518,0.1476,-0.1135,-0.1663,-1.19,-5.3375,-15.664643365616373,10.009350933830692,-4.380233700042516,5.74199999999837
0.1742,0.9592,-0.2641,0.0509,0.1477,-0.1124,-0.6212,-0.875,-5.4425,-15.469890191201047,9.950577247075113,-4.393358700042007,5.756999999997788
0.1713,0.9572,-0.2637,0.0509,0.1477,-0.1124,-0.4462,-1.05,-5.4338,-15.422299419210235,9.828535787379653,-4.393358700042007,5.756999999997788
0.1695,0.9592,-0.2665,0.0509,0.1477,-0.1124,-0.4462,-1.05,-5.4338,-15.496267723871448,9.703176258884683,-4.41015870004543,5.773000000001048
0.1699,0.96,-0.2628,0.0501,0.1493,-0.1083,-0.2625,-0.8225,-5.2675,-15.367815335642273,9.690765546480064,-4.41015870004543,5.773000000001048
0.1699,0.96,-0.261,0.0501,0.1493,-0.1083,-0.8925,-1.0938,-4.7775,-15.25086363842939,9.691325097011736,-4.426565700036835,5.78799999999319
0.1656,0.9596,-0.261,0.0514,0.1497,-0.1106,-0.8925,-1.0938,-5.0225,-15.224864394482395,9.506988996281063,-4.426565700036835,5.78799999999319
0.167,0.9574,-0.2641,0.0514,0.1497,-0.1106,-0.6125,-1.0063,-5.0225,-15.366299765542283,9.536560955196393,-4.442666500040115,5.803999999996449
0.1662,0.9596,-0.2643,0.0514,0.1497,-0.1106,-0.4638,-0.9625,-5.005,-15.389414755294668,9.492337895338412,-4.458066500043253,5.819999999999709
0.1713,0.9582,-0.2655,0.0521,0.1503,-0.115,-0.3762,-1.4175,-4.8387,-15.457691404333032,9.71465088424929,-4.458066500043253,5.819999999999709
0.172,0.958,-0.264,0.0521,0.1503,-0.115,-0.3762,-1.4175,-4.8387,-15.42213955190639,9.79745785900148,-4.479329000042427,5.834999999999127
0.172,0.958,-0.264,0.0514,0.1487,-0.1142,-0.2362,-1.5137,-4.795,-15.411640204449004,9.815193309949446,-4.479329000042427,5.834999999999127
0.173,0.9574,-0.2651,0.0514,0.1487,-0.1142,-0.1838,-1.68,-5.075,-15.456240706902872,9.864417843666553,-4.50620900003568,5.850999999995111
0.1732,0.9553,-0.2641,0.0514,0.1487,-0.1142,-0.2013,-1.68,-4.4538,-15.454621903558785,9.90285389584119,-4.50620900003568,5.850999999995111
0.1731,0.9554,-0.2636,0.052,0.1486,-0.1129,-0.2013,-1.68,-4.4538,-15.434049227085964,9.90622797233825,-4.531409000034702,5.8659999999945285
0.1724,0.9598,-0.2639,0.052,0.1486,-0.1129,-0.4988,-1.9425,-4.3225,-15.391258439890374,9.841258822283123,-4.531409000034702,5.8659999999945285
0.1724,0.9598,-0.2635,0.0499,0.15,-0.1132,-0.2887,-1.7062,-4.4275,-15.363827805470741,9.82964313635128,-4.558708200040264,5.881999999997788
0.1764,0.955,-0.2635,0.0499,0.15,-0.1132,-0.105,-1.6363,-4.83,-15.404978673774458,10.039352330461067,-4.558708200040264,5.881999999997788
0.1781,0.9529,-0.266,0.0517,0.1506,-0.1101,-0.105,-1.6363,-4.83,-15.53403199349019,10.169775938671714,-4.584889000045598,5.898000000001048
0.1771,0.9561,-0.2661,0.0517,0.1506,-0.1101,0.14,-1.575,-4.8387,-15.546143755574617,10.128968293513518,-4.584889000045598,5.898000000001048
0.1812,0.9604,-0.2643,0.0517,0.1506,-0.1101,-0.1575,-1.7325,-4.8475,-15.438140012345478,10.271149381035968,-4.610876500031984,5.91299999999319
0.1774,0.9546,-0.2657,0.0504,0.1497,-0.1118,-0.0787,-1.5137,-4.6287,-15.515574727524923,10.174940546577593,-4.610876500031984,5.91299999999319
0.1774,0.9546,-0.2657,0.0504,0.1497,-0.1118,-0.0787,-1.5137,-4.6287,-15.541177737135119,10.155268923241426,-4.635095700036918,5.928999999996449
0.1743,0.9553,-0.2677,0.0503,0.1487,-0.113,-0.5863,-1.5838,-4.7775,-15.622243058040693,10.004722754723986,-4.635095700036918,5.928999999996449
0.1715,0.956,-0.2656,0.0503,0.1487,-0.113,-0.3938,-1.8288,-5.4862,-15.555228286683793,9.85563737942401,-4.662527700035853,5.943999999995867
0.1705,0.9575,-0.266,0.0503,0.1487,-0.113,-0.0437,-2.03,-5.5388,-15.535546998182726,9.76565621602779,-4.662527700035853,5.943999999995867
0.172,0.9584,-0.2654,0.051,0.1498,-0.1211,-0.0437,-2.03,-5.5388,-15.497561102167571,9.800816365947233,-4.695007700042471,5.959999999999127
0.172,0.9584,-0.2711,0.051,0.1498,-0.1211,0.1575,-1.9425,-6.0025,-15.687985280150508,9.79863626590171,-4.695007700042471,5.959999999999127
0.17,0.9587,-0.2711,0.0499,0.149,-0.1134,0.3675,-2.205,-5.9588,-15.750295490753508,9.715663004950562,-4.730287700049658,5.9760000000023865
0.1712,0.9592,-0.2638,0.0499,0.149,-0.1134,0.3675,-2.205,-5.7312,-15.52200859326391,9.751627613751587,-4.730287700049658,5.9760000000023865
0.1728,0.9591,-0.2694,0.0499,0.149,-0.1134,0.5512,-2.2925,-5.7312,-15.619513708468144,9.816961335791019,-4.764675200031643,5.9909999999945285
0.1731,0.959,-0.2687,0.0514,0.1494,-0.1182,0.42,-2.2487,-5.2675,-15.639269771904063,9.849810038672134,-4.764675200031643,5.9909999999945285
0.1718,0.9615,-0.2715,0.0514,0.1494,-0.1182,-0.315,-1.75,-5.215,-15.728629628178622,9.778479985136265,-4.792675200037348,6.006999999997788
0.1718,0.9615,-0.2715,0.0528,0.1474,-0.116,-0.315,-1.75,-5.215,-15.756034423128282,9.761908719096239,-4.792675200037348,6.006999999997788
0.1738,0.9601,-0.2694,0.0528,0.1474,-0.116,-0.4812,-1.5488,-4.8562,-15.697863821801588,9.860058026219193,-4.815907200036446,6.021999999997206
0.1732,0.9597,-0.2679,0.0528,0.1474,-0.116,-1.05,-1.995,-4.8562,-15.622289011793141,9.860832016593868,-4.815907200036446,6.021999999997206
0.1728,0.9572,-0.27,0.0531,0.1494,-0.1118,-1.0762,-1.7675,-5.1013,-15.719982826515933,9.857525023911375,-4.8441872000422075,6.038000000000466
0.1707,0.9579,-0.2694,0.0531,0.1494,-0.1118,-1.0762,-1.7675,-5.1013,-15.711068160280918,9.762093085921812,-4.8441872000422075,6.038000000000466
0.1707,0.9579,-0.2661,0.051,0.1488,-0.1102,-0.7088,-1.8725,-5.0575,-15.575940775393294,9.747050448733626,-4.874147200034687,6.053999999996449
0.1756,0.9562,-0.2661,0.051,0.1488,-0.1102,-0.8838,-1.61,-5.11,-15.557736853826015,9.968134877636249,-4.89829720003375,6.068999999995867
0.1756,0.9565,-0.2671,0.0512,0.1499,-0.1053,-0.7613,-1.6187,-4.97,-15.590238657736771,10.014421141873688,-4.89829720003375,6.068999999995867
0.1746,0.9551,-0.2679,0.0512,0.1499,-0.1053,-0.7613,-1.6187,-4.97,-15.647388100773945,9.989643712879372,-4.924196400039026,6.084999999999127
0.1758,0.956,-0.2643,0.0512,0.1499,-0.1053,-0.6388,-0.9887,-5.1537,-15.508115534717538,10.036837065692358,-4.924196400039026,6.084999999999127
0.1775,0.9561,-0.262,0.0502,0.1488,-0.1152,-0.7788,-0.945,-4.9612,-15.373845993567283,10.126104740111778,-4.938371400038476,6.099999999998545
0.1775,0.9561,-0.262,0.0502,0.1488,-0.1152,-0.5337,-0.8662,-4.9788,-15.338728073502097,10.145667201332715,-4.938371400038476,6.099999999998545
0.1778,0.9557,-0.2654,0.0508,0.1489,-0.1148,-0.5337,-0.8662,-4.9788,-15.46796696869231,10.15901614404764,-4.9522306000412994,6.116000000001804
0.1778,0.9567,-0.2668,0.0508,0.1489,-0.1148,-0.56,-0.245,-5.0575,-15.549810778926389,10.151534179117245,-4.9522306000412994,6.116000000001804
0.1786,0.9577,-0.2668,0.0508,0.1489,-0.1148,-0.7175,-0.5425,-5.1275,-15.562301805779263,10.176927094997305,-4.960910600039121,6.131999999997788
0.1769,0.9589,-0.2656,0.0506,0.1481,-0.1046,-0.7175,-0.6212,-5.0838,-15.503835554560043,10.102766198478776,-4.960910600039121,6.131999999997788
0.1769,0.9589,-0.2646,0.0506,0.1481,-0.1046,-0.5425,-0.6212,-5.0838,-15.44858018101484,10.088095653847745,-4.970228600038759,6.146999999997206
0.1729,0.9548,-0.2646,0.05,0.1487,-0.1116,-0.4375,-0.63,-5.145,-15.477363881863704,9.942142620070786,-4.970228600038759,6.146999999997206
0.1722,0.954,-0.2697,0.05,0.1487,-0.1116,-0.0175,-0.35,-5.495,-15.681733150517212,9.875683381513,-4.9758286000398995,6.163000000000466
0.1715,0.9571,-0.2658,0.05,0.1487,-0.1116,-0.0175,-0.35,-5.495,-15.575053348865753,9.81558041878277,-4.9758286000398995,6.163000000000466
0.1762,0.9575,-0.263,0.0522,0.1496,-0.1077,-0.2013,-0.4112,-5.53,-15.42756072707775,10.000473011412387,-4.98199660003966,6.177999999999884
0.1767,0.9579,-0.2626,0.0522,0.1496,-0.1077,-0.3063,-0.735,-5.11,-15.36034832764507,10.0677668325013,-4.98199660003966,6.177999999999884
0.1767,0.9579,-0.2626,0.0525,0.1495,-0.1133,-0.6562,-1.0762,-5.0312,-15.338789040539577,10.083106721739782,-4.999215800035338,6.193999999995867
0.1765,0.9567,-0.2637,0.0525,0.1495,-0.1133,-0.6562,-1.0762,-5.0312,-15.39028061954277,10.084522729863602,-4.999215800035338,6.193999999995867
0.177,0.954,-0.2657,0.0525,0.1495,-0.1133,-0.4812,-0.7962,-4.7337,-15.512693697568155,10.12333673016738,-5.01195500003214,6.209999999991851
0.1762,0.9567,-0.2612,0.0507,0.1478,-0.1182,-0.175,-0.8925,-4.6725,-15.348329953985578,10.084746555840379,-5.01195500003214,6.209999999991851
0.1744,0.957,-0.2672,0.0507,0.1478,-0.1182,-0.21,-1.295,-4.7512,-15.520280331567859,9.982462218011138,-5.031380000040809,6.224999999998545
0.1744,0.957,-0.2672,0.0502,0.1482,-0.1086,-0.21,-1.295,-4.7512,-15.574768498070362,9.96101105470415,-5.031380000040809,6.224999999998545
0.1745,0.9565,-0.2665,0.0502,0.1482,-0.1086,-0.07,-1.7325,-4.5588,-15.570845057338197,9.966188623825525,-5.059100000046456,6.241000000001804
0.1749,0.9584,-0.2695,0.0502,0.1498,-0.1165,-0.1663,-1.9338,-5.0575,-15.662480536951147,9.964445270664347,-5.059100000046456,6.241000000001804
0.1751,0.96,-0.2672,0.0518,0.1498,-0.1165,-0.595,-1.9775,-5.635,-15.58439213020529,9.965652235494412,-5.088762500030917,6.255999999993946
0.1751,0.9607,-0.2638,0.0518,0.1498,-0.1165,-0.595,-1.9775,-5.635,-15.419417866079959,9.967646590697841,-5.088762500030917,6.255999999993946
0.1763,0.9576,-0.265,0.0521,0.1486,-0.115,-0.7175,-1.9775,-5.3113,-15.455137331193557,10.039336193672101,-5.120402500037363,6.271999999997206
0.1763,0.9576,-0.265,0.0521,0.1486,-0.115,-0.2013,-1.8288,-5.18,-15.464287575971346,10.056532794450757,-5.120402500037363,6.271999999997206
0.1748,0.957,-0.264,0.0523,0.1474,-0.1178,-0.6037,-2.0563,-5.7663,-15.434029748961335,10.004881955479638,-5.153303300029104,6.28799999999319
0.1745,0.9556,-0.262,0.0523,0.1474,-0.1178,-0.6037,-2.0563,-5.7663,-15.360892898397502,9.992397989134933,-5.153303300029104,6.28799999999319
0.1742,0.9539,-0.2628,0.0523,0.1474,-0.1178,-0.5688,-1.8988,-5.4425,-15.390956391410723,9.986913257326538,-5.181785300041814,6.302999999999884
0.1726,0.9539,-0.2658,0.0514,0.1466,-0.106,-0.6475,-2.3012,-5.2413,-15.520359216809407,9.910655666611264,-5.181785300041814,6.302999999999884
0.1726,0.9539,-0.2502,0.0514,0.1466,-0.106,-0.6475,-2.3012,-5.3725,-14.926238742851128,9.923375269231242,-5.218604500032572,6.318999999995867
0.1738,0.9541,-0.265,0.0506,0.1478,-0.1134,-0.7875,-2.2662,-5.3725,-15.362828742040358,9.947357930071881,-5.218604500032572,6.318999999995867
0.1747,0.9543,-0.2642,0.0506,0.1478,-0.1134,-0.8662,-2.1437,-5.2325,-15.445472890831846,9.99208975271072,-5.250760000031324,6.333999999995285
0.1763,0.9565,-0.2627,0.0506,0.1478,-0.1134,0.1488,-1.9075,-5.4425,-15.388923859867617,10.057148422963998,-5.250760000031324,6.333999999995285
0.1765,0.9539,-0.2659,0.0528,0.1478,-0.1088,0.1488,-1.9075,-5.4425,-15.509006576915443,10.094002879556848,-5.281280000037541,6.349999999998545
0.1774,0.955,-0.2682,0.0528,0.1478,-0.1088,-0.2275,-2.0825,-5.5738,-15.630732541089857,10.128049446107593,-5.281280000037541,6.349999999998545
0.1774,0.955,-0.2682,0.0531,0.1479,-0.1106,-0.0787,-1.4525,-5.4163,-15.66822429240159,10.13679079511952,-5.304520000031707,6.3659999999945285
0.1766,0.9604,-0.2641,0.0531,0.1479,-0.1106,-0.0962,-1.3737,-5.4338,-15.471861515775934,10.074318003735161,-5.304520000031707,6.3659999999945285
0.1787,0.9585,-0.2608,0.0531,0.1479,-0.1106,-0.0962,-1.3737,-5.4338,-15.303618400774216,10.167913488896334,-5.325125500040903,6.381000000001222
0.1746,0.9553,-0.2647,0.0533,0.1487,-0.1197,-0.21,-1.19,-5.6,-15.429089962278294,10.034827790978484,-5.325125500040903,6.381000000001222
0.1743,0.9563,-0.2664,0.0533,0.1487,-0.1197,0.3063,-1.2513,-5.4338,-15.514400508561774,9.977150178958412,-5.345146300035877,6.396999999997206
0.1743,0.9563,-0.2508,0.0497,0.1481,-0.1115,0.3063,-0.6562,-5.2675,-15.005744029553018,9.993593445485075,-5.345146300035877,6.396999999997206
0.1712,0.9583,-0.2626,0.0497,0.1481,-0.1115,0.3063,-0.6562,-5.2675,-15.20367440844482,9.827138615095588,-5.354989300035495,6.411999999996624
0.1679,0.9532,-0.2633,0.0497,0.1498,-0.1126,0.14,-0.525,-5.565,-15.356809052832203,9.684394887058925,-5.363389300037206,6.427999999999884
0.1687,0.9547,-0.2654,0.0533,0.1498,-0.1126,0.1488,-0.6737,-5.4163,-15.471652395678444,9.667378214328803,-5.363389300037206,6.427999999999884
0.1699,0.9562,-0.267,0.0533,0.1498,-0.1126,0.21,-1.3388,-5.7575,-15.553937010911584,9.699619971445916,-5.384810100031829,6.443999999995867
0.1702,0.957,-0.2691,0.05,0.1471,-0.1085,0.21,-1.3388,-5.7575,-15.650109616835147,9.711117515485714,-5.384810100031829,6.443999999995867
0.1702,0.957,-0.2691,0.05,0.1471,-0.1085,0.07,-1.0675,-5.7663,-15.686249777010808,9.714171199833281,-5.400822600038975,6.459000000002561
0.1717,0.962,-0.2672,0.0531,0.1483,-0.1068,0.2887,-1.4875,-5.425,-15.584367088091787,9.747159487881666,-5.400822600038975,6.459000000002561
0.177,0.9618,-0.2704,0.0531,0.1483,-0.1068,0.245,-1.155,-4.9788,-15.658930417950412,9.980479414042824,-5.419302600025932,6.474999999991269
0.1754,0.9636,-0.2691,0.0531,0.1483,-0.1068,0.245,-1.155,-4.9788,-15.623836366263482,9.951958496813111,-5.419302600025932,6.474999999991269
0.1759,0.9639,-0.2697,0.0534,0.149,-0.1077,0.0613,-1.0237,-4.9262,-15.62894949025745,9.963947297493915,-5.4346581000327845,6.489999999997963
0.1759,0.9639,-0.2697,0.0534,0.149,-0.1077,-0.7962,-1.4175,-4.8125,-15.63093771518395,9.966574939625273,-5.4346581000327845,6.489999999997963
0.1756,0.96,-0.2664,0.0508,0.1487,-0.1132,-0.7962,-1.4175,-5.0662,-15.541831905717856,9.989440116174189,-5.457338100037405,6.506000000001222
0.1751,0.9545,-0.2679,0.0508,0.1487,-0.1132,-0.8138,-1.6013,-5.0662,-15.641681237987237,10.010336780206348,-5.457338100037405,6.506000000001222
0.1723,0.9575,-0.2675,0.0508,0.1487,-0.1132,-1.3038,-1.4438,-5.0138,-15.61665067449857,9.871848664544633,-5.480438900031606,6.521999999997206
0.1717,0.9567,-0.2657,0.052,0.1493,-0.1158,-0.9187,-1.4963,-5.145,-15.545996866287659,9.824834278050467,-5.480438900031606,6.521999999997206
0.1711,0.9551,-0.2646,0.052,0.1493,-0.1158,-0.9187,-1.4963,-5.145,-15.50064306769978,9.801851807223594,-5.502883400030735,6.536999999996624
0.1711,0.9551,-0.2646,0.0506,0.1487,-0.1145,-0.8662,-1.6538,-5.3812,-15.488963301402773,9.79668686704403,-5.502883400030735,6.536999999996624
0.1704,0.9538,-0.2694,0.0506,0.1487,-0.1145,-0.9538,-1.9162,-5.495,-15.699631885589058,9.765615327811183,-5.533542600023039,6.552999999992608
0.1685,0.9559,-0.2667,0.0506,0.1487,-0.1145,-1.05,-1.6363,-5.7137,-15.61692678323936,9.670276726887806,-5.533542600023039,6.552999999992608
0.1738,0.957,-0.2638,0.0511,0.1482,-0.1146,-1.05,-1.6363,-5.7137,-15.462561698653731,9.862237049584598,-5.58426790002742,6.583999999995285
0.1753,0.9557,-0.2653,0.0511,0.1482,-0.1146,-0.5075,-1.5488,-6.0462,-15.499477410719741,9.976765313685211,-5.58426790002742,6.583999999995285
0.1753,0.9557,-0.2809,0.0518,0.1476,-0.1122,-0.175,-1.1287,-5.8975,-16.097272544428296,9.979696031711693,-5.58426790002742,6.583999999995285
0.1785,0.958,-0.2673,0.0518,0.1476,-0.1122,0.1138,-1.1287,-5.9325,-15.769190983676095,10.120255019459156,-5.6023271000311,6.599999999998545
0.179,0.9586,-0.2669,0.0518,0.1485,-0.1154,0.1138,-1.1287,-5.9325,-15.63298325095862,10.176158151789666,-5.6023271000311,6.599999999998545
0.1814,0.9559,-0.2668,0.0517,0.1485,-0.1154,-0.6212,-0.6125,-5.8187,-15.605562388770457,10.309108296784524,-5.6023271000311,6.599999999998545
0.1779,0.957,-0.2679,0.0517,0.1485,-0.1154,-0.56,-0.98,-5.2325,-15.629401526857476,10.186431945951206,-5.617027100030529,6.614999999997963
0.1794,0.9577,-0.2684,0.0505,0.1499,-0.1074,-0.6125,-0.6388,-4.4625,-15.64836805567863,10.217161620800775,-5.617027100030529,6.614999999997963
0.1794,0.9577,-0.2684,0.0505,0.1499,-0.1074,-0.6125,-0.6388,-4.4625,-15.653698370520171,10.223238351530446,-5.627247900027963,6.630999999993946
0.1778,0.9597,-0.2637,0.0528,0.1486,-0.1035,-0.9013,0.1663,-4.3137,-15.43943627339109,10.146908170434239,-5.627247900027963,6.630999999993946
0.1792,0.9617,-0.2649,0.0528,0.1486,-0.1035,-0.3413,0.4725,-4.9612,-15.412139559222503,10.176125035368283,-5.6201604000248,6.64600000000064
0.1782,0.96,-0.2675,0.0528,0.1486,-0.1035,-0.3237,0.4638,-4.9088,-15.521906411562226,10.146331794664905,-5.6201604000248,6.64600000000064
0.1767,0.9541,-0.2645,0.051,0.1488,-0.1133,-0.3237,0.4638,-4.9088,-15.503009603307422,10.124943378018918,-5.612739600026663,6.661999999996624
0.1767,0.9541,-0.2645,0.051,0.1488,-0.1133,-0.9975,0.0962,-5.3987,-15.496794583380098,10.120457198507502,-5.612739600026663,6.661999999996624
0.1745,0.9561,-0.261,0.0514,0.1479,-0.1122,-0.7788,0.2713,-5.5125,-15.330020573211337,10.019336123887658,-5.608398800025779,6.677999999999884
0.1726,0.9558,-0.2658,0.0514,0.1479,-0.1122,-0.7788,0.2713,-5.4075,-15.484211579731967,9.905946584470055,-5.608398800025779,6.677999999999884
0.1686,0.9555,-0.2685,0.0514,0.1479,-0.1122,-0.7525,-0.0613,-5.4075,-15.638450332876708,9.705398431301315,-5.609379600025979,6.694000000003143
0.1694,0.9563,-0.2658,0.0518,0.1492,-0.113,-1.0063,-0.6913,-5.6613,-15.559736271420196,9.690595510625675,-5.609379600025979,6.694000000003143
0.1696,0.9574,-0.2615,0.0518,0.1492,-0.113,-0.7875,-0.5688,-5.7312,-15.352654977181617,9.695617077139298,-5.618480400019556,6.709999999991851
0.1696,0.9574,-0.2615,0.0519,0.1479,-0.1111,-0.7875,-0.5688,-5.7312,-15.297185356911342,9.696942643592978,-5.618480400019556,6.709999999991851
0.1694,0.9547,-0.2642,0.0519,0.1479,-0.1111,-0.98,-0.84,-5.3812,-15.42500295168127,9.702526937985471,-5.631080400025179,6.724999999998545
0.169,0.9589,-0.2677,0.0519,0.1479,-0.1111,-0.6737,-1.2425,-5.4775,-15.550459696751107,9.651156086292287,-5.631080400025179,6.724999999998545
0.1696,0.96,-0.2666,0.0514,0.1491,-0.1138,-0.4812,-1.4963,-5.46,-15.529183684054734,9.658235148102715,-5.65502120001917,6.7409999999945285
0.1745,0.9603,-0.2639,0.0514,0.1491,-0.1138,-0.4812,-1.4963,-5.46,-15.413708264515659,9.869364902239324,-5.65502120001917,6.7409999999945285
0.1745,0.9603,-0.2639,0.0507,0.1484,-0.1153,-0.3762,-1.1463,-5.7488,-15.380450736657336,9.920072417527678,-5.673362000022906,6.756999999997788
0.1748,0.9582,-0.2645,0.0507,0.1484,-0.1153,-0.5163,-1.0762,-5.7488,-15.416789932027855,9.959275175563295,-5.673362000022906,6.756999999997788
0.173,0.9593,-0.2653,0.0507,0.1478,-0.1143,-0.6913,-1.3913,-5.5912,-15.447461723665969,9.885549427329792,-5.694231500022096,6.771999999997206
0.1736,0.9586,-0.2625,0.051,0.1478,-0.1143,-0.6913,-1.3913,-5.5912,-15.350894257805,9.902083424070899,-5.694231500022096,6.771999999997206
0.1738,0.9581,-0.2622,0.051,0.1478,-0.1143,-0.315,-1.1725,-5.6962,-15.319214837963981,9.918572358657034,-5.712991500017387,6.78799999999319
0.1703,0.9553,-0.2639,0.0519,0.1477,-0.1163,-0.5775,-1.1725,-5.6175,-15.40766818952864,9.793250580612085,-5.712991500017387,6.78799999999319
0.1703,0.9553,-0.2639,0.0519,0.1477,-0.1163,-0.5512,-1.1638,-5.53,-15.432699057134466,9.760890037923849,-5.730448500025178,6.802999999999884
0.1706,0.9567,-0.2635,0.0513,0.1485,-0.1111,-0.5512,-1.1638,-5.53,-15.408592237375101,9.756408219748671,-5.730448500025178,6.802999999999884
0.1715,0.9572,-0.263,0.0513,0.1485,-0.1111,-0.5863,-0.665,-5.18,-15.376231609712057,9.791485630750726,-5.7410885000225065,6.818999999995867
0.1719,0.9585,-0.261,0.0513,0.1485,-0.1111,-0.7437,-0.63,-5.1975,-15.271352024914115,9.811376108471533,-5.75116850002456,6.834999999999127
0.1724,0.9581,-0.267,0.0517,0.1492,-0.1187,-0.3675,-1.365,-5.7663,-15.481193497573173,9.827706325448348,-5.75116850002456,6.834999999999127
0.1724,0.9581,-0.267,0.0517,0.1492,-0.1187,-0.3675,-1.365,-5.7663,-15.544527756282948,9.832057404351522,-5.771643500023766,6.849999999998545
0.173,0.9612,-0.2657,0.0524,0.149,-0.1129,-0.7262,-0.8838,-5.5388,-15.477304642305253,9.839192218839079,-5.771643500023766,6.849999999998545
0.176,0.9604,-0.2638,0.0524,0.149,-0.1129,-0.4725,-0.9625,-5.4425,-15.393649486906014,9.97670021443728,-5.7870435000199,6.8659999999945285
0.1753,0.9609,-0.2655,0.0524,0.149,-0.1129,-0.4725,-0.9625,-6.0375,-15.430444650225233,9.974187598257318,-5.7870435000199,6.8659999999945285
0.1765,0.9607,-0.2621,0.0508,0.1479,-0.116,-0.315,-0.9712,-6.0375,-15.312386207251864,10.028838020646544,-5.801611500026401,6.881000000001222
0.1749,0.9604,-0.2633,0.0508,0.1479,-0.116,-0.8662,-1.0063,-6.1337,-15.326349997947524,9.981255699512692,-5.801611500026401,6.881000000001222
0.1749,0.9604,-0.2633,0.0507,0.1481,-0.1131,-0.4112,-0.4638,-6.0637,-15.32983660037293,9.96708264119384,-5.809032300024538,6.896999999997206
0.1741,0.9595,-0.2652,0.0507,0.1481,-0.1131,-0.4112,-0.4638,-6.0637,-15.41453948442414,9.93376876484645,-5.809032300024538,6.896999999997206
0.1693,0.9592,-0.2613,0.0507,0.1481,-0.1131,-0.9187,-0.5337,-5.8275,-15.284007842413146,9.737435475324357,-5.817571500026277,6.913000000000466
0.1682,0.9581,-0.2605,0.052,0.1479,-0.1118,-0.315,-0.0613,-5.7925,-15.233098907844246,9.647814275266033,-5.817571500026277,6.913000000000466
0.1683,0.9581,-0.2621,0.052,0.1479,-0.1118,-0.0875,-0.21,-5.3463,-15.277701577694634,9.624047464683233,-5.820721500024627,6.927999999992608
0.1683,0.9581,-0.2621,0.051,0.1487,-0.1196,-0.0875,-0.21,-5.3463,-15.292406216714184,9.61835228091455,-5.820721500024627,6.927999999992608
0.1714,0.9583,-0.2605,0.051,0.1487,-0.1196,-0.2887,-0.5425,-4.8387,-15.23378710099923,9.75529168187796,-5.829401500026395,6.943999999995867
0.1737,0.9614,-0.2634,0.051,0.149,-0.1122,0.0525,-0.2187,-5.2413,-15.291289458928476,9.85443611060493,-5.829401500026395,6.943999999995867
