AcclX,AcclY,AcclZ,MagX,MagY,MagZ,GyroX,GyroY,GyroZ,Roll,Pitch,Yaw,Time Elapsed(s)
0.2769,0.8975,-0.318,0.0558,0.1339,-0.074,-28.7262,-25.4888,-12.3813,0,0,0,0.0
0.2686,0.9068,-0.3035,0.0558,0.1339,-0.074,-26.3113,-22.4525,-15.7325,0,0,0,0.014999999999417923
0.2686,0.9068,-0.3035,0.0578,0.1326,-0.067,-23.94,-18.4013,-18.2787,0,0,0,0.014999999999417923
0.2564,0.9107,-0.3009,0.0578,0.1326,-0.067,-23.94,-18.4013,-20.685,0,0,0,0.030999999995401595
0.2394,0.9196,-0.2907,0.0578,0.1326,-0.0618,-21.6912,-14.6562,-20.685,0,0,0,0.030999999995401595
0.2164,0.9329,-0.2845,0.0603,0.1335,-0.0618,-19.215,-11.655,-22.6537,0,0,0,0.046999999998661224
0.198,0.943,-0.2705,0.0603,0.1335,-0.0618,-18.3663,-9.3975,-23.4063,0,0,0,0.046999999998661224
0.1809,0.9444,-0.2644,0.064,0.1335,-0.0622,-18.3663,-9.3975,-23.4063,0,0,0,0.062000000005355105
0.1809,0.9444,-0.2644,0.064,0.1335,-0.0622,-17.9375,-7.6388,-23.205,0,0,0,0.062000000005355105
0.1593,0.9536,-0.2607,0.0662,0.1332,-0.0579,-17.955,-5.9675,-22.9688,0,0,0,0.07800000000133878
0.1399,0.9612,-0.2527,0.0662,0.1332,-0.0579,-17.1063,-4.9,-22.89,0,0,0,0.07800000000133878
0.1175,0.9669,-0.2488,0.0662,0.1332,-0.0579,-17.1063,-4.9,-22.89,0,0,0,0.0930000000007567
0.106,0.9644,-0.2469,0.07,0.1351,-0.0667,-16.1087,-4.6375,-23.6163,0,0,0,0.0930000000007567
0.106,0.9644,-0.2469,0.07,0.1351,-0.0667,-15.26,-4.9088,-24.1063,0,0,0,0.10899999999674037
0.1014,0.9659,-0.2456,0.0734,0.1361,-0.0515,-14.6475,-5.285,-24.2813,0,0,0,0.10899999999674037
0.0903,0.9659,-0.2434,0.0734,0.1361,-0.0515,-14.6475,-5.285,-24.2813,0,0,0,0.125
0.0873,0.9649,-0.2367,0.0734,0.1361,-0.0515,-13.58,-5.5037,-23.6075,0,0,0,0.125
0.0832,0.9686,-0.2435,0.0764,0.1361,-0.0366,-11.9963,-5.5563,-23.0562,0,0,0,0.13999999999941792
0.0808,0.9743,-0.2401,0.0764,0.1361,-0.0366,-9.7913,-5.5825,-22.5575,0,0,0,0.13999999999941792
0.0808,0.9743,-0.2401,0.0806,0.1362,-0.0486,-9.7913,-5.5825,-22.5575,0,0,0,0.15600000000267755
0.0934,0.9753,-0.2421,0.0806,0.1362,-0.0486,-8.225,-5.285,-21.7525,0,0,0,0.15600000000267755
0.1112,0.974,-0.2377,0.0806,0.1362,-0.0486,-6.6762,-4.4187,-20.125,0,0,0,0.17100000000209548
0.1224,0.9725,-0.2377,0.0817,0.1378,-0.0561,-4.5937,-2.275,-18.2875,0,0,0,0.17100000000209548
0.1231,0.9744,-0.2477,0.0817,0.1378,-0.0561,-4.5937,-2.275,-18.2875,0,0,0,0.18699999999807915
0.1231,0.9744,-0.2477,0.0822,0.1357,-0.0509,-2.6513,0.56,-16.4587,0,0,0,0.18699999999807915
0.1211,0.975,-0.2486,0.0822,0.1357,-0.0509,-1.0588,3.36,-15.3387,0,0,0,0.20300000000133878
0.1173,0.9733,-0.2563,0.0822,0.1357,-0.0487,-1.0588,3.36,-14.7,0,0,0,0.20300000000133878
0.1087,0.9672,-0.2639,0.0853,0.1395,-0.0487,1.2425,5.285,-14.7,0,0,0,0.21799999999348074
0.1048,0.9674,-0.2659,0.0853,0.1395,-0.0487,2.5725,6.895,-14.14,0,0,0,0.21799999999348074
0.1003,0.9634,-0.2714,0.0848,0.1398,-0.045,3.5263,7.805,-13.3612,0,0,0,0.23399999999674037
0.1003,0.9634,-0.2714,0.0848,0.1398,-0.045,3.5263,7.805,-13.3612,0,0,0,0.24900000000343425
0.0954,0.9572,-0.2818,0.0862,0.1402,-0.049,5.0487,8.5925,-13.2037,0,0,0,0.25
0.0873,0.9555,-0.2912,0.0862,0.1402,-0.049,6.4575,8.295,-13.1163,0,0,0,0.25
0.0873,0.9539,-0.2896,0.0862,0.1402,-0.049,7.315,7.6038,-11.9525,0,0,0,0.26599999999598367
0.0905,0.9491,-0.2922,0.0838,0.143,-0.05,7.315,7.6038,-11.9525,0,0,0,0.2819999999992433
0.0905,0.9491,-0.2922,0.0838,0.143,-0.05,7.91,7.8575,-10.8588,0,0,0,0.2819999999992433
0.0935,0.9447,-0.3005,0.0862,0.1421,-0.0574,8.0325,7.91,-9.6775,0,0,0,0.2970000000059372
0.0937,0.9394,-0.3035,0.0862,0.1421,-0.0574,9.03,7.6825,-8.5575,0,0,0,0.2970000000059372
0.0927,0.9337,-0.3049,0.0862,0.1421,-0.0574,9.03,7.6825,-8.5575,0,0,0,0.2970000000059372
0.0975,0.9245,-0.3132,0.0859,0.142,-0.0536,9.2225,7.7263,-7.2537,0,0,0,0.31300000000192085
0.0975,0.9198,-0.3183,0.0859,0.142,-0.0536,10.2725,8.1812,-6.1163,0,0,0,0.3280000000013388
0.0982,0.9198,-0.3183,0.0855,0.141,-0.058,11.62,8.5837,-5.39,0,0,0,0.3280000000013388
0.1094,0.9206,-0.3224,0.0855,0.141,-0.058,11.62,8.5837,-5.39,0,0,0,0.34399999999732245
0.1144,0.9216,-0.3284,0.0855,0.141,-0.058,12.8625,8.4875,-4.5937,0,0,0,0.34399999999732245
0.123,0.9258,-0.3278,0.0886,0.142,-0.0579,13.16,8.0063,-3.29,0,0,0,0.3600000000005821
0.136,0.9379,-0.3229,0.0886,0.142,-0.0579,13.16,8.0063,-2.485,0,0,0,0.3600000000005821
0.136,0.9379,-0.3229,0.083,0.1437,-0.0677,13.1687,7.6737,-2.485,0,0,0,0.375
0.1484,0.9474,-0.3151,0.083,0.1437,-0.0677,12.8363,7.665,-1.8112,0,0,0,0.375
0.1559,0.9546,-0.3128,0.083,0.1437,-0.0677,12.6175,8.8462,-2.415,0,0,0,0.39099999999598367
0.1598,0.9582,-0.3077,0.0845,0.1435,-0.0656,12.6175,8.8462,-2.415,0,0,0,0.39099999999598367
0.1621,0.9618,-0.317,0.0845,0.1435,-0.0656,12.7225,9.59,-3.1325,0,0,0,0.40600000000267755
0.1621,0.9655,-0.3118,0.0814,0.1431,-0.0737,12.11,9.8787,-3.6312,0,0,0,0.40600000000267755
0.166,0.9655,-0.3118,0.0814,0.1431,-0.0737,10.675,10.325,-4.1125,0,0,0,0.4219999999986612
0.1656,0.9676,-0.3128,0.081,0.144,-0.0693,10.675,10.325,-4.1125,0,0,0,0.4219999999986612
0.1664,0.9694,-0.3116,0.081,0.144,-0.0693,9.8,10.7537,-5.1537,0,0,0,0.43800000000192085
0.165,0.969,-0.3046,0.081,0.144,-0.0693,8.6012,11.3837,-6.8162,0,0,0,0.43800000000192085
0.1581,0.97,-0.3079,0.0814,0.1462,-0.0616,7.0963,12.425,-8.2688,0,0,0,0.4529999999940628
0.1581,0.97,-0.3079,0.0814,0.1462,-0.0616,7.0963,12.425,-8.2688,0,0,0,0.4529999999940628
0.1482,0.9723,-0.3064,0.0814,0.1465,-0.0774,6.0637,12.705,-10.325,0,0,0,0.46899999999732245
0.1427,0.9736,-0.3088,0.0814,0.1465,-0.0774,4.3137,11.725,-12.2937,0,0,0,0.46899999999732245
0.1322,0.9776,-0.3145,0.0814,0.1465,-0.0774,2.4762,10.6925,-14.1925,0,0,0,0.48400000000401633
0.1221,0.9853,-0.3118,0.0825,0.1458,-0.0702,2.4762,10.6925,-14.1925,0,0,0,0.48400000000401633
0.1221,0.9906,-0.2941,0.0825,0.1458,-0.0702,-0.315,8.3212,-15.61,0,0,0,0.5
0.121,0.9906,-0.2941,0.0844,0.1464,-0.0758,-3.43,6.1337,-17.3512,0,0,0,0.5
0.1133,1.0013,-0.2886,0.0844,0.1464,-0.0758,-6.0113,4.9,-19.5387,0,0,0,0.5160000000032596
0.0958,1.0088,-0.2855,0.0844,0.1464,-0.0758,-6.0113,4.9,-19.5387,0,0,0,0.5160000000032596
0.0745,1.0127,-0.2742,0.0863,0.1463,-0.0714,-7.42,4.7425,-21.7875,0,0,0,0.5309999999954016
0.0559,1.0139,-0.2614,0.0863,0.1463,-0.0714,-9.6163,4.1388,-24.185,0,0,0,0.5309999999954016
0.0559,1.0139,-0.2614,0.0905,0.146,-0.0686,-9.6163,4.1388,-25.7425,0,0,0,0.5469999999986612
0.0475,1.0076,-0.2524,0.0905,0.146,-0.0686,-12.005,3.3512,-25.7425,0,0,0,0.5469999999986612
0.0348,0.9975,-0.2539,0.0905,0.146,-0.0686,-12.6788,3.5963,-26.6262,0,0,0,0.5620000000053551
0.0229,0.9934,-0.2521,0.0906,0.1485,-0.0706,-12.11,3.1063,-26.7138,0,0,0,0.5620000000053551
0.021,0.9908,-0.2492,0.0906,0.1485,-0.0706,-12.11,3.1063,-26.7138,0,0,0,0.5780000000013388
0.021,0.983,-0.2536,0.0948,0.1515,-0.071,-10.01,2.6688,-26.1012,0,0,0,0.5780000000013388
0.023,0.983,-0.2536,0.0948,0.1515,-0.071,-7.805,2.7387,-24.675,0,0,0,0.5940000000045984
0.0319,0.9854,-0.2672,0.0979,0.1502,-0.0757,-5.8275,2.2138,-22.5662,0,0,0,0.5940000000045984
0.0445,0.9924,-0.2747,0.0979,0.1502,-0.0757,-5.8275,2.2138,-22.5662,0,0,0,0.6089999999967404
0.0587,0.9968,-0.2746,0.0979,0.1502,-0.0757,-4.8212,2.8788,-19.425,0,0,0,0.6089999999967404
0.0642,0.996,-0.2715,0.0982,0.152,-0.0757,-3.885,4.2,-16.5812,0,0,0,0.625
0.0642,0.996,-0.2715,0.0982,0.152,-0.0757,-3.4213,6.2038,-13.8863,0,0,0,0.625
0.0686,0.9975,-0.2737,0.0998,0.1519,-0.0764,-3.4213,6.2038,-13.8863,0,0,0,0.6399999999994179
0.068,1.0008,-0.2749,0.0998,0.1519,-0.0764,-3.5087,8.3212,-11.4012,0,0,0,0.6399999999994179
0.07,1.004,-0.2698,0.0998,0.1519,-0.0764,-3.7887,9.6425,-8.68,0,0,0,0.6560000000026776
0.0698,1.0062,-0.2699,0.1,0.1505,-0.0784,-3.0888,10.0887,-6.6675,0,0,0,0.6560000000026776
0.0698,1.0032,-0.2699,0.1,0.1505,-0.0784,-3.0888,10.0887,-6.6675,0,0,0,0.6719999999986612
0.0705,1.0032,-0.2699,0.0979,0.1489,-0.0699,-3.4825,10.5787,-5.1275,0,0,0,0.6869999999980791
0.0711,1.0003,-0.2654,0.0979,0.1489,-0.0699,-4.48,11.3488,-3.9462,0,0,0,0.6869999999980791
0.0734,0.9958,-0.2644,0.0979,0.1489,-0.0699,-5.2063,11.55,-2.5725,0,0,0,0.7030000000013388
0.0798,0.9941,-0.2602,0.0995,0.1523,-0.0622,-5.2063,11.55,-2.5725,0,0,0,0.7030000000013388
0.0863,0.9888,-0.2595,0.0995,0.1523,-0.0622,-5.3375,11.445,-1.6538,0,0,0,0.7180000000007567
0.0863,0.9888,-0.2595,0.0956,0.1509,-0.065,-5.3987,10.7187,-1.0412,0,0,0,0.7180000000007567
0.0862,0.9856,-0.2592,0.0956,0.1509,-0.065,-5.3987,10.7187,-0.4112,0,0,0,0.7339999999967404
0.0875,0.9833,-0.2576,0.0956,0.1509,-0.065,-5.285,10.5175,-0.4112,0,0,0,0.7339999999967404
0.0861,0.9762,-0.2605,0.0969,0.1501,-0.0699,-5.075,9.5813,-0.315,0,0,0,0.75
0.0869,0.9802,-0.2656,0.0969,0.1501,-0.0699,-4.7863,8.295,0.1312,0,0,0,0.75
0.0869,0.9958,-0.2679,0.094,0.1494,-0.0698,-4.7863,8.295,0.1312,0,0,0,0.7649999999994179
0.0953,0.987,-0.2679,0.094,0.1494,-0.0698,-4.4975,6.6238,-0.1575,0,0,0,0.7649999999994179
0.1066,0.99,-0.2608,0.093,0.1511,-0.0739,-4.1475,5.6613,-0.1663,0,0,0,0.7810000000026776
0.1139,0.9908,-0.2571,0.093,0.1511,-0.0739,-4.725,5.3463,-0.77,0,0,0,0.7810000000026776
0.1129,0.9868,-0.2712,0.093,0.1511,-0.0739,-4.725,5.3463,-0.77,0,0,0,0.7959999999948195
0.1088,0.9855,-0.288,0.092,0.1497,-0.07,-4.8387,5.8362,-2.065,-12.25584709012377,5.504537720068812,0.0,0.7959999999948195
0.1088,0.9855,-0.288,0.092,0.1497,-0.07,-4.97,6.2913,-3.5875,-15.322618602393135,5.992190773442352,0.2013216000410146,0.8280000000013388
0.1119,1.0028,-0.2952,0.0932,0.1463,-0.0662,-6.0462,6.0113,-4.5675,-16.197148842587332,6.096317457955478,0.2013216000410146,0.8280000000013388
0.1262,1.028,-0.3002,0.0932,0.1463,-0.0662,-6.0462,6.0113,-4.5675,-16.263425131827024,6.648242550326151,0.2013216000410146,0.8280000000013388
0.1484,1.0451,-0.3027,0.0932,0.1463,-0.0662,-7.9975,5.8187,-5.985,-16.16833640552812,7.6111248430642595,0.2013216000410146,0.8280000000013388
0.1667,1.0423,-0.2886,0.0916,0.1484,-0.0791,-11.1038,6.9738,-7.4812,-15.543878362895182,8.560177443477754,0.3059286000369553,0.8430000000007567
0.1667,1.0267,-0.276,0.0916,0.1484,-0.0791,-14.7175,9.94,-8.085,-15.082399327776514,8.842335252160714,0.3059286000369553,0.8430000000007567
0.1796,1.0241,-0.276,0.0934,0.1488,-0.0703,-14.7175,9.94,-8.085,-15.083081029425488,9.45986373855243,0.46496860006935603,0.8590000000040163
0.1809,0.9978,-0.2599,0.0934,0.1488,-0.0703,-17.8675,13.4488,-7.8925,-14.627929453234954,9.858015954864756,0.46496860006935603,0.8590000000040163
0.1742,0.9767,-0.2434,0.0934,0.1488,-0.0703,-19.4775,16.8438,-7.0262,-14.02741843335439,9.8249337380705,0.7176255999369969,0.8739999999961583
0.1565,0.9667,-0.2364,0.0916,0.1482,-0.0678,-19.4775,18.5938,-6.3437,-13.756915299588599,9.066953092366552,0.7176255999369969,0.8739999999961583
0.1458,0.9659,-0.2242,0.0916,0.1482,-0.0678,-20.3612,18.5938,-6.3437,-13.103040083734484,8.467518552572027,1.015126399997606,0.8899999999994179
0.1458,0.9659,-0.2242,0.0918,0.1472,-0.0702,-20.4312,19.8625,-6.0637,-13.06960491422939,8.379184826693084,1.015126399997606,0.8899999999994179
0.1405,0.9611,-0.2087,0.0918,0.1472,-0.0702,-19.7925,19.8888,-5.4513,-12.294490254569792,8.162361329674624,1.333347200062436,0.9060000000026776
0.127,0.9603,-0.1948,0.0918,0.1472,-0.0702,-19.7925,19.8888,-5.4513,-11.510608190903076,7.485610003491806,1.333347200062436,0.9060000000026776
0.1179,0.9539,-0.1836,0.0913,0.1455,-0.0628,-18.3663,19.4338,-6.4575,-10.92972674880434,7.004321822473643,1.6248542000511241,0.9210000000020955
0.1121,0.942,-0.1706,0.0913,0.1455,-0.0628,-16.4675,19.25,-7.28,-10.307647954941284,6.733986655780784,1.6248542000511241,0.9210000000020955
0.1121,0.9264,-0.1615,0.0902,0.1471,-0.0654,-12.9937,18.6287,-7.7875,-9.923367985468401,6.786155452283455,1.9229134001118466,0.9370000000053551
0.1097,0.9276,-0.1615,0.0902,0.1471,-0.0654,-12.9937,18.6287,-7.7875,-9.880338519133339,6.671638866538611,1.9229134001118466,0.9370000000053551
0.1043,0.9194,-0.1577,0.0903,0.1457,-0.0638,-9.5463,18.2175,-8.1112,-9.749794946728906,6.437412658219966,2.3236984000609477,0.9590000000025611
0.0992,0.9107,-0.1572,0.0903,0.1457,-0.0638,-5.3637,18.025,-7.9275,-9.783978216880788,6.1858726156931425,2.4678984000903252,0.967000000004191
0.0986,0.9098,-0.1556,0.0903,0.1457,-0.0638,-0.9975,17.0713,-7.6388,-9.748883816890727,6.11343218129838,2.5532549000456095,0.9720000000015716
0.0993,0.913,-0.1584,0.0906,0.1462,-0.062,-0.9975,17.0713,-7.6388,-9.790589744410497,6.115994287809257,2.5532549000456095,0.9720000000015716
0.0993,0.913,-0.1584,0.0906,0.1462,-0.062,3.3775,16.5025,-7.105,-9.834097646087132,6.116466003874398,2.81729489997933,0.9879999999975553
0.0961,0.9237,-0.174,0.0894,0.1469,-0.0729,6.6762,15.3737,-6.6937,-10.57997294248198,5.8806518057099275,2.81729489997933,0.9879999999975553
0.0967,0.9367,-0.1806,0.0894,0.1469,-0.0729,9.485,14.4987,-6.4225,-10.885871414344917,5.801872165802964,3.0492741000265906,1.004000000000815
0.0998,0.9462,-0.1921,0.0894,0.1469,-0.0729,9.485,14.4987,-6.4225,-11.42829559017851,5.88671597746324,3.0492741000265906,1.004000000000815
0.1038,0.9549,-0.2011,0.0889,0.1477,-0.0628,11.7163,13.755,-5.8625,-11.860606904976027,6.046386599384249,3.255599100018584,1.0190000000002328
0.1038,0.9549,-0.2186,0.0889,0.1477,-0.0628,13.1687,13.65,-5.145,-12.829500920592851,6.048299295646607,3.255599100018584,1.0190000000002328
0.1025,0.962,-0.2186,0.0878,0.1494,-0.0719,14.3763,13.1163,-4.5763,-12.803795620264692,5.94530846702332,3.4654599000613384,1.0350000000034925
0.092,0.9679,-0.2311,0.0878,0.1494,-0.0719,14.3763,13.1163,-4.5763,-13.39238804345543,5.359238321441637,3.4654599000613384,1.0350000000034925
0.0927,0.978,-0.2456,0.0878,0.1494,-0.0719,15.3125,12.1187,-4.4275,-14.057986405089284,5.264688857987855,3.647240399966109,1.0499999999956344
0.0967,0.9823,-0.2585,0.0873,0.1496,-0.0743,15.5138,11.7163,-4.4625,-14.706129780177672,5.418317266149838,3.647240399966109,1.0499999999956344
0.1077,0.9842,-0.2638,0.0873,0.1496,-0.0743,15.5138,10.885,-4.3488,-14.988288545901465,5.963934905031627,3.82140040000159,1.065999999998894
0.1077,0.9842,-0.2638,0.0882,0.149,-0.0725,15.12,10.885,-4.3488,-15.003675102461557,6.025749120672631,3.82140040000159,1.065999999998894
0.1164,0.9833,-0.2718,0.0882,0.149,-0.0725,14.63,11.27,-4.2613,-15.425958072075478,6.454964627143451,4.0017203999563264,1.0819999999948777
0.1204,0.9826,-0.2754,0.0882,0.149,-0.0725,13.9213,12.1625,-3.9987,-15.643139138529518,6.6991039529054826,4.0017203999563264,1.0819999999948777
0.1247,0.9857,-0.2841,0.084,0.1501,-0.0765,13.9213,12.1625,-3.9987,-16.052110184699817,6.905648052822701,4.184157900037741,1.0970000000015716
0.1274,0.9947,-0.2932,0.084,0.1501,-0.0765,13.5275,12.775,-4.1737,-16.40077977528793,6.992949480430954,4.184157900037741,1.0970000000015716
0.1274,1.0103,-0.2984,0.0848,0.1501,-0.0878,11.3663,13.2825,-4.2088,-16.451096040804927,6.906509094328265,4.396677900081037,1.1130000000048312
0.1266,1.0033,-0.2984,0.0848,0.1501,-0.0878,10.0625,14.0875,-4.7512,-16.554718048625748,6.897501035776188,4.396677900081037,1.1130000000048312
0.134,1.0036,-0.299,0.0842,0.1503,-0.0781,10.0625,14.0875,-4.7512,-16.58747790109425,7.245173755373984,4.607990399970337,1.1279999999969732
0.1401,1.0022,-0.2872,0.0842,0.1503,-0.0781,7.665,13.8337,-5.635,-16.04771212238288,7.599564540009061,4.607990399970337,1.1279999999969732
0.1432,1.0106,-0.2888,0.0842,0.1503,-0.0781,5.9062,14.9537,-5.775,-15.959797916379124,7.736968103971739,4.84724960001908,1.1440000000002328
0.1399,1.0072,-0.2838,0.0838,0.1519,-0.0825,3.7975,15.7675,-6.3875,-15.770179935384638,7.632920281104378,4.84724960001908,1.1440000000002328
0.1399,1.0072,-0.2838,0.0838,0.1519,-0.0825,3.7975,15.7675,-6.3875,-15.741443115446557,7.617592157693777,5.099529599955753,1.1599999999962165
0.1363,0.9957,-0.2817,0.0826,0.1519,-0.0894,2.5025,16.4762,-6.685,-15.78659389844832,7.521266259364999,5.099529599955753,1.1599999999962165
0.1332,0.9866,-0.2763,0.0826,0.1519,-0.0894,2.1962,17.395,-6.7288,-15.673372398935223,7.424990692761957,5.3604546000721935,1.1750000000029104
0.1253,0.9801,-0.2717,0.0826,0.1519,-0.0894,2.2925,17.9112,-7.2187,-15.529423232394821,7.090757784901361,5.3604546000721935,1.1750000000029104
0.1179,0.9775,-0.2707,0.0823,0.1522,-0.0925,2.2925,17.9112,-7.2187,-15.48894541035091,6.707552987497042,5.647033800130577,1.19100000000617
0.1179,0.9775,-0.2641,0.0823,0.1522,-0.0925,1.995,18.2437,-7.8225,-15.19624439185403,6.653876841500115,5.647033800130577,1.19100000000617
0.116,0.9744,-0.2641,0.0799,0.1523,-0.0922,1.96,17.815,-7.9363,-15.171581644113644,6.573590585449538,5.914258799990586,1.205999999998312
0.1108,0.9725,-0.2578,0.0799,0.1523,-0.0922,2.3625,17.1763,-7.5687,-14.909896940284447,6.3361580598482234,6.189079600046575,1.2220000000015716
0.1103,0.9715,-0.2518,0.0799,0.1523,-0.0922,2.3625,17.1763,-7.5687,-14.604031027882408,6.283340518829005,6.189079600046575,1.2220000000015716
0.104,0.9738,-0.2499,0.0813,0.1522,-0.0973,2.31,16.38,-7.5163,-14.43417767261645,5.972694402661043,6.451159599980787,1.2379999999975553
0.0979,0.9669,-0.2483,0.0813,0.1522,-0.0973,2.345,15.8112,-7.3675,-14.40853513585725,5.665039399852038,6.451159599980787,1.2379999999975553
0.0979,0.9669,-0.2483,0.0802,0.1537,-0.0984,2.345,14.9975,-7.5775,-14.403552067333196,5.612482093606613,6.676122100081179,1.2530000000042492
0.093,0.9592,-0.247,0.0802,0.1537,-0.0984,2.31,14.9975,-7.5775,-14.433110927090665,5.408332931366793,6.676122100081179,1.2530000000042492
0.0855,0.9557,-0.2467,0.0802,0.1537,-0.0984,2.9838,14.3413,-6.79,-14.467015668950674,5.022464353901739,6.90558290002358,1.2690000000002328
0.0874,0.9501,-0.2456,0.081,0.1535,-0.0922,3.4825,13.86,-6.5625,-14.489400278461126,5.0793563166976075,6.90558290002358,1.2690000000002328
0.0848,0.9531,-0.2526,0.081,0.1535,-0.0922,3.4825,13.86,-6.5625,-14.787421222586932,4.940318125243594,7.113482900015512,1.2839999999996508
0.0848,0.9531,-0.2487,0.0796,0.1537,-0.0928,4.2875,12.8888,-6.7725,-14.647522470176234,4.923572497813896,7.113482900015512,1.2839999999996508
0.0831,0.957,-0.2487,0.0796,0.1537,-0.0928,4.3313,11.8125,-6.8688,-14.57870821269859,4.82294388134338,7.302482900054017,1.3000000000029104
0.0838,0.958,-0.2499,0.0794,0.1536,-0.1019,3.7975,10.5612,-6.5538,-14.61386401266249,4.835786948182244,7.302482900054017,1.3000000000029104
0.0892,0.9561,-0.2478,0.0794,0.1536,-0.1019,3.7975,10.5612,-6.5538,-14.542784007056717,5.111445929482838,7.4714621000116,1.315999999998894
0.0971,0.957,-0.248,0.0794,0.1536,-0.1019,3.78,9.5638,-6.8425,-14.53043444531944,5.530869861403399,7.4714621000116,1.315999999998894
0.1135,0.9544,-0.2488,0.0794,0.1527,-0.0996,4.13,9.1088,-6.9825,-14.599459992697026,6.397638254845395,7.608094100006298,1.330999999998312
0.1135,0.9544,-0.2488,0.0794,0.1527,-0.0996,4.2613,9.2925,-6.6588,-14.609450267252498,6.538935583173532,7.608094100006298,1.330999999998312
0.1295,0.9517,-0.2497,0.0781,0.155,-0.1022,4.2613,9.2925,-6.6588,-14.688444084889065,7.350852678183067,7.756774099968976,1.3469999999942956
0.1345,0.9507,-0.2532,0.0781,0.155,-0.1022,4.5763,10.885,-6.7463,-14.882915906691643,7.717140079879446,7.756774099968976,1.3469999999942956
0.1258,0.9493,-0.2558,0.0781,0.155,-0.1022,4.9612,12.915,-6.7375,-15.055328264495758,7.35773489458387,7.950499100055428,1.3620000000009895
0.1164,0.9502,-0.2589,0.0766,0.1546,-0.092,5.2937,14.3763,-6.825,-15.218362007221932,6.83779646468173,7.950499100055428,1.3620000000009895
0.1164,0.9658,-0.2602,0.0766,0.1546,-0.092,5.2937,14.3763,-6.825,-15.095580490004522,6.669286962176029,8.18051990010229,1.3780000000042492
0.1028,0.9531,-0.2602,0.0776,0.1554,-0.1044,5.565,15.3825,-7.0788,-15.24903588394015,6.05986322229253,8.18051990010229,1.3780000000042492
0.0959,0.9509,-0.2672,0.0776,0.1554,-0.1044,6.195,15.33,-7.2275,-15.645604739657907,5.632019015900003,8.425799900040719,1.3940000000002328
0.0908,0.9525,-0.2613,0.0776,0.1554,-0.1044,6.4662,14.21,-7.2888,-15.373506923976812,5.316992488338839,8.425799900040719,1.3940000000002328
0.0967,0.9604,-0.2644,0.0753,0.1549,-0.1114,6.4662,14.21,-7.2888,-15.39030285634191,5.505978636913363,8.638949900032447,1.4089999999996508
0.1067,0.9679,-0.2639,0.0753,0.1549,-0.1114,5.705,13.8337,-7.1312,-15.267475544658643,5.977474544399093,8.638949900032447,1.4089999999996508
0.1067,0.9679,-0.2639,0.0759,0.1571,-0.1042,5.6875,13.405,-7.2362,-15.253039318188948,6.055207420791936,8.853429899978607,1.4249999999956344
0.1168,0.9728,-0.2649,0.0759,0.1571,-0.1042,5.6875,13.405,-7.8138,-15.235087158634313,6.504994332293133,8.853429899978607,1.4249999999956344
0.1149,0.9726,-0.2685,0.0759,0.1571,-0.1042,4.34,13.3437,-7.8138,-15.405216601784849,6.4982461875470525,9.053585400067929,1.4400000000023283
0.1161,0.9756,-0.2669,0.0734,0.1575,-0.1081,3.5087,13.5188,-8.0675,-15.316953340103687,6.538322836948942,9.053585400067929,1.4400000000023283
0.1108,0.9734,-0.2678,0.0734,0.1575,-0.1081,2.7037,13.6062,-8.5312,-15.370628635387265,6.322399199529088,9.27128460011228,1.456000000005588
0.1108,0.9734,-0.268,0.0744,0.157,-0.1093,2.7037,13.6062,-8.5312,-15.38933491227663,6.275651074753191,9.27128460011228,1.456000000005588
0.1076,0.9717,-0.268,0.0744,0.157,-0.1093,2.4237,13.3962,-8.5662,-15.413433759200492,6.132736469514918,9.485623800058477,1.4720000000015716
0.1096,0.9728,-0.2666,0.0741,0.1571,-0.1088,2.135,13.265,-8.9862,-15.343604327587022,6.184942491265317,9.485623800058477,1.4720000000015716
0.1146,0.974,-0.2632,0.0741,0.1571,-0.1088,1.5225,13.2913,-9.1088,-15.172977259884577,6.407576996810948,9.68499330005074,1.4870000000009895
0.1169,0.9758,-0.2602,0.0741,0.1571,-0.1088,1.5225,13.2913,-9.1088,-14.986727606487555,6.55483932412658,9.68499330005074,1.4870000000009895
0.1179,0.9777,-0.2614,0.0754,0.158,-0.111,1.96,13.4225,-9.415,-14.97241933171144,6.620912823280726,9.899753299996831,1.5029999999969732
0.1179,0.9777,-0.2614,0.0754,0.158,-0.111,2.38,13.5975,-9.6425,-14.969349200710042,6.638073223362008,9.899753299996831,1.5029999999969732
0.112,0.9799,-0.2637,0.0745,0.1577,-0.1116,2.1263,13.7288,-9.6687,-15.043186292054141,6.395177694705443,10.10568530008873,1.518000000003667
0.1041,0.983,-0.2698,0.0745,0.1577,-0.1116,2.1263,13.7288,-9.6687,-15.285976201544331,5.991904503147582,10.32534610003359,1.5339999999996508
0.1032,0.9839,-0.2652,0.0745,0.1577,-0.1116,2.2925,13.2825,-9.7212,-15.124445840481094,5.843387270397419,10.32534610003359,1.5339999999996508
0.0989,0.9891,-0.2719,0.0739,0.1582,-0.1119,3.0975,12.0138,-9.7212,-15.328976681328486,5.604421134376946,10.517566899985338,1.5499999999956344
0.0989,0.9891,-0.2722,0.0739,0.1582,-0.1119,3.0975,11.55,-9.8787,-15.377069049587922,5.536293323721902,10.517566899985338,1.5499999999956344
0.0957,0.9934,-0.2722,0.0741,0.1587,-0.1148,3.0975,11.55,-9.8787,-15.332516189294354,5.377365053878118,10.690816900062652,1.5650000000023283
0.1003,0.9938,-0.2757,0.0741,0.1587,-0.1148,2.7912,10.8062,-10.0887,-15.474220632168812,5.497252774556542,10.690816900062652,1.5650000000023283
0.106,0.9977,-0.271,0.0741,0.1587,-0.1148,1.6888,10.6925,-10.1675,-15.25820523180251,5.735430961126962,10.861896900019707,1.580999999998312
0.1098,1.0033,-0.2691,0.0745,0.1609,-0.12,0.8138,10.3075,-10.1237,-15.081704914131222,5.936112053502781,10.861896900019707,1.580999999998312
0.112,1.0036,-0.2743,0.0745,0.1609,-0.12,0.8138,10.3075,-10.1237,-15.229854211485595,6.076029293478711,11.016509400013707,1.59599999999773
0.112,1.0036,-0.2743,0.0742,0.1613,-0.1191,0.4638,10.955,-10.0363,-15.269158649158259,6.1224983238576804,11.016509400013707,1.59599999999773
0.111,0.9929,-0.2702,0.0742,0.1613,-0.1191,0.0,11.4362,-10.5175,-15.23972143024236,6.143855700510509,11.199488599967776,1.6119999999937136
0.1019,0.9809,-0.2704,0.0742,0.1613,-0.1191,0.0,11.4362,-9.8612,-15.350286040864194,5.8472050184049875,11.199488599967776,1.6119999999937136
0.0935,0.9792,-0.2719,0.0747,0.1613,-0.1114,0.5425,12.6788,-9.8612,-15.468313514632316,5.434866365757092,11.402349400009104,1.6279999999969732
0.0927,0.9788,-0.2647,0.0747,0.1613,-0.1114,0.8313,13.4137,-8.96,-15.2251028607686,5.273769986107345,11.402349400009104,1.6279999999969732
0.0927,0.9788,-0.2696,0.0741,0.1608,-0.1139,1.6888,12.3375,-7.3675,-15.360772827489651,5.226831448725457,11.58741190009169,1.643000000003667
0.0946,0.9817,-0.2696,0.0741,0.1608,-0.1139,1.6888,12.3375,-7.3675,-15.357302954642357,5.294731197862197,11.58741190009169,1.643000000003667
0.0955,0.9811,-0.2606,0.071,0.1594,-0.123,2.7037,11.1038,-5.6788,-14.96296649267916,5.363795032116094,11.765072700047092,1.6589999999996508
0.0997,0.9832,-0.2568,0.071,0.1594,-0.123,2.7738,10.5175,-4.69,-14.696254051769543,5.575235818226577,11.765072700047092,1.6589999999996508
0.1027,0.9798,-0.2538,0.071,0.1594,-0.123,2.1088,10.6488,-3.7187,-14.557712900999304,5.770761708499143,11.924804700040895,1.6739999999990687
0.1022,0.9772,-0.2561,0.072,0.1604,-0.1165,2.1088,10.6488,-3.7187,-14.659502620656394,5.776197900536273,11.924804700040895,1.6739999999990687
0.1022,0.9772,-0.2561,0.072,0.1604,-0.1165,2.0825,10.1325,-3.1325,-14.680206293740707,5.776776710788434,12.0869247000002,1.6899999999950523
0.1119,0.9736,-0.2457,0.0697,0.1606,-0.123,1.2337,8.6275,-2.0125,-14.291615971725147,6.306686661851779,12.0869247000002,1.6899999999950523
0.1169,0.9751,-0.2394,0.0697,0.1606,-0.123,-0.035,7.9275,-2.1962,-13.97393501926035,6.610466922421256,12.21376470002604,1.705999999998312
0.1201,0.9779,-0.2449,0.0697,0.1606,-0.123,-0.035,7.9275,-2.1962,-14.028677908603337,6.777206897844608,12.21376470002604,1.705999999998312
0.1261,0.9769,-0.2384,0.0708,0.1616,-0.1243,-0.7,7.0788,-2.5025,-13.863912007099078,7.1129655351654835,12.319946700073425,1.7210000000050059
0.1261,0.9769,-0.2327,0.0708,0.1616,-0.1243,-1.4,6.5188,-2.5638,-13.730662040647674,7.152929601891624,12.319946700073425,1.7210000000050059
0.1304,0.9859,-0.2327,0.0692,0.1582,-0.1211,-2.38,5.7137,-3.8588,-13.565528090975704,7.315657582828254,12.411365900050477,1.7370000000009895
0.1338,0.9898,-0.2289,0.0692,0.1582,-0.1211,-2.38,5.7137,-3.8588,-13.365932644595842,7.482748458420682,12.411365900050477,1.7370000000009895
0.1407,0.9881,-0.2241,0.0692,0.1582,-0.1211,-2.94,4.8212,-4.935,-13.053093762405851,7.854615681145958,12.483683900047671,1.7520000000004075
0.1443,0.9828,-0.2277,0.0678,0.1616,-0.1211,-3.6575,4.795,-6.09,-13.047458078936703,8.099877352879084,12.483683900047671,1.7520000000004075
0.1374,0.9711,-0.2307,0.0678,0.1616,-0.1211,-3.4825,5.3725,-7.1925,-13.245817694226055,7.881729138361862,12.569643900026094,1.7679999999963911
0.1374,0.9711,-0.2307,0.067,0.1623,-0.1195,-3.4825,5.3725,-7.1925,-13.319789224786115,7.845268002670971,12.569643900026094,1.7679999999963911
0.1326,0.9504,-0.2307,0.067,0.1623,-0.1195,-1.8725,5.8713,-8.085,-13.341447410635086,7.745609390384511,12.663584700045233,1.7839999999996508
0.117,0.9406,-0.2428,0.067,0.1623,-0.1195,-0.3325,5.705,-8.505,-14.015172874732546,7.055641399682382,12.663584700045233,1.7839999999996508
0.1081,0.9387,-0.2491,0.0692,0.1601,-0.1255,-0.3325,5.705,-8.3038,-14.518861751931682,6.495852515401175,12.749159700041911,1.7989999999990687
0.1072,0.9445,-0.2582,0.0692,0.1601,-0.1255,1.0412,5.0312,-8.3038,-15.08892738052351,6.29885308540958,12.749159700041911,1.7989999999990687
0.1072,0.9445,-0.268,0.0696,0.1622,-0.1178,2.9838,3.5,-8.05,-15.71114346776289,6.244534565830857,12.80515970005332,1.8150000000023283
0.1077,0.9571,-0.268,0.0696,0.1622,-0.1178,4.795,1.6712,-8.2338,-15.65189514985773,6.196578762286609,12.80515970005332,1.8150000000023283
0.1168,0.9688,-0.2663,0.0709,0.1613,-0.1286,4.795,1.6712,-8.2338,-15.4068100890432,6.5429772693321135,12.830227700052347,1.8300000000017462
0.1286,0.9727,-0.266,0.0709,0.1613,-0.1286,5.6175,0.8225,-7.2975,-15.307828882767042,7.144258214936834,12.843387700049044,1.84599999999773
0.1295,0.9727,-0.2717,0.0709,0.1613,-0.1286,6.195,0.7088,-7.0,-15.573217957151432,7.280604735356266,12.843387700049044,1.84599999999773
0.1284,0.9692,-0.2773,0.0698,0.161,-0.1286,6.7987,0.9363,-6.72,-15.925509047483434,7.262059969952752,12.858368500052096,1.8620000000009895
0.1284,0.9692,-0.2773,0.0698,0.161,-0.1286,6.7987,0.9363,-6.72,-15.962207439008607,7.259187277251648,12.858368500052096,1.8620000000009895
0.1294,0.9662,-0.2772,0.071,0.1601,-0.1257,7.105,0.77,-6.4488,-16.00340696344111,7.32418832516855,12.869918500051648,1.8770000000004075
0.1301,0.9627,-0.2802,0.071,0.1601,-0.1257,7.56,0.9712,-6.23,-16.206300713522584,7.3832514946522965,12.869918500051648,1.8770000000004075
0.1255,0.9614,-0.285,0.071,0.1601,-0.1257,8.0937,1.54,-5.7312,-16.48400554594479,7.167292260366006,12.894558500045463,1.8929999999963911
0.1232,0.9636,-0.2872,0.0685,0.1634,-0.1271,8.0937,1.54,-5.7312,-16.586296170174098,7.009906799188653,12.894558500045463,1.8929999999963911
0.1232,0.9636,-0.2936,0.0685,0.1634,-0.1271,7.8488,1.3475,-5.1537,-16.91176512009763,6.977429588892723,12.914771000054483,1.908000000003085
0.1274,0.9689,-0.2936,0.0695,0.1634,-0.1286,8.05,0.91,-4.83,-16.863018902281002,7.148972962598672,12.914771000054483,1.908000000003085
0.1379,0.972,-0.2923,0.0695,0.1634,-0.1286,7.1225,0.6388,-4.515,-16.7497819719888,7.669064998002956,12.924991800051917,1.9239999999990687
0.149,0.9768,-0.2923,0.0695,0.1634,-0.1286,7.1225,0.6388,-4.515,-16.668520536439566,8.23965216437826,12.924991800051917,1.9239999999990687
0.1516,0.9805,-0.2942,0.0705,0.1647,-0.1298,5.32,1.3388,-4.9437,-16.69781137097104,8.401459359603459,12.94641260005628,1.9400000000023283
0.1502,0.9786,-0.2882,0.0705,0.1647,-0.1298,4.0862,1.9775,-4.8562,-16.451640273673192,8.378729357582017,12.94641260005628,1.9400000000023283
0.1502,0.9786,-0.2882,0.0681,0.1642,-0.1285,2.52,3.535,-5.11,-16.41768377084675,8.376008913690777,12.999437600028502,1.9549999999944703
0.1495,0.9739,-0.2837,0.0681,0.1642,-0.1285,2.52,3.535,-5.11,-16.274205658030912,8.38295201582804,12.999437600028502,1.9549999999944703
0.1437,0.9766,-0.2893,0.0681,0.1642,-0.1285,1.9162,4.2088,-5.67,-16.452893958273297,8.077426640496737,13.066778400042221,1.97099999999773
0.137,0.9742,-0.2921,0.0691,0.1633,-0.133,0.455,4.5675,-5.5738,-16.6176003838643,7.725126691532804,13.066778400042221,1.97099999999773
0.1313,0.9679,-0.2846,0.0691,0.1633,-0.133,0.455,4.5675,-5.495,-16.456698000864122,7.455451372306474,13.135290900072794,1.9860000000044238
0.1313,0.9679,-0.269,0.0667,0.1638,-0.1298,-1.085,4.6463,-5.495,-16.070782292616798,7.44756909206397,13.135290900072794,1.9860000000044238
0.1269,0.9579,-0.2779,0.0667,0.1638,-0.1298,-0.8662,4.6988,-5.9588,-16.122666161025723,7.278110515485632,13.215170500037786,2.002999999996973
0.1238,0.9562,-0.2793,0.0667,0.1631,-0.1285,-0.4725,4.6988,-5.95,-16.213999006128656,7.11109324844267,13.215170500037786,2.002999999996973
0.1204,0.9586,-0.2793,0.0658,0.1631,-0.1285,-0.4725,4.6988,-5.95,-16.231193617322685,6.908409557974243,13.290351300053102,2.019000000000233
0.124,0.9623,-0.2782,0.0658,0.1631,-0.1285,-0.63,4.4363,-5.6962,-16.17366291910418,7.036849458087481,13.290351300053102,2.019000000000233
0.1223,0.9639,-0.2719,0.0674,0.1635,-0.1285,0.0613,3.8412,-5.1363,-15.89988420339189,6.971487098101143,13.347969300050865,2.0339999999996508
0.1223,0.9639,-0.2719,0.0674,0.1635,-0.1285,0.0525,3.4475,-4.6112,-15.804390469440193,6.963285859958407,13.347969300050865,2.0339999999996508
0.1235,0.9678,-0.2674,0.067,0.1626,-0.128,0.0525,3.4475,-4.6112,-15.571147118244303,7.006474689980769,13.403129300062103,2.0500000000029104
0.1207,0.9677,-0.2702,0.067,0.1626,-0.128,0.8838,2.9575,-5.0138,-15.592702087914436,6.869453146583601,13.403129300062103,2.0500000000029104
0.1196,0.9693,-0.2693,0.067,0.1626,-0.128,0.7262,2.415,-5.4862,-15.545523563640247,6.791447204253469,13.439354300060698,2.0650000000023283
0.1224,0.9711,-0.2685,0.0694,0.1642,-0.1328,0.525,1.9338,-5.5563,-15.482651216899246,6.908871095890697,13.439354300060698,2.0650000000023283
0.1224,0.9711,-0.2685,0.0694,0.1642,-0.1328,0.525,1.9338,-5.5563,-15.463747544834598,6.92428260466405,13.470295100052931,2.080999999998312
0.1205,0.9695,-0.2729,0.0667,0.1634,-0.1322,0.49,0.9975,-5.9588,-15.642920846788227,6.8366183923135875,13.470295100052931,2.080999999998312
0.1213,0.9662,-0.276,0.0667,0.1634,-0.1322,0.21,-0.105,-6.02,-15.842844606257554,6.876643502181092,13.46861510005259,2.0970000000015716
0.118,0.9665,-0.2644,0.0667,0.1634,-0.1322,0.1488,-1.3038,-5.8713,-15.483868448923971,6.738327415518473,13.46861510005259,2.0970000000015716
0.1161,0.9653,-0.2705,0.0669,0.1637,-0.1379,0.1488,-1.3038,-5.8713,-15.596411944857639,6.624225927492061,13.449058100062835,2.1119999999937136
0.1159,0.9635,-0.2729,0.0669,0.1637,-0.1379,0.175,-0.7437,-5.8888,-15.74098223990426,6.604970871080408,13.449058100062835,2.1119999999937136
0.1159,0.9635,-0.2729,0.0658,0.1631,-0.1324,-0.1575,-1.3563,-6.0375,-15.78646958073545,6.6023371463142135,13.427357300058414,2.127999999996973
0.1179,0.9683,-0.2694,0.0658,0.1631,-0.1324,2.0825,-1.5137,-5.8538,-15.596520142410476,6.678431881310344,13.427357300058414,2.127999999996973
0.1199,0.9755,-0.2641,0.0658,0.1631,-0.1324,0.6737,-1.5137,-5.8538,-15.277589711389776,6.754005116591834,13.404651800048281,2.143000000003667
0.1238,0.9768,-0.2627,0.0659,0.1653,-0.1239,0.0175,-2.03,-5.1887,-15.132634902235043,6.949788303547047,13.404651800048281,2.143000000003667
0.1255,0.9796,-0.261,0.0659,0.1653,-0.1239,-0.035,-1.4787,-5.1712,-14.996262902437481,7.043623727135675,13.38099260005422,2.1589999999996508
0.1255,0.9796,-0.2766,0.0674,0.1654,-0.1297,-0.035,-1.4787,-5.1712,-15.488707110840233,7.0305547730471,13.38099260005422,2.1589999999996508
0.1229,0.9813,-0.2687,0.0674,0.1654,-0.1297,-0.0613,-0.7962,-5.0925,-15.37738946570964,6.905368928875741,13.368253400051625,2.1750000000029104
0.1202,0.9836,-0.2713,0.0674,0.165,-0.1293,-1.1988,-0.7788,-4.9612,-15.393444472312428,6.741482675820216,13.368253400051625,2.1750000000029104
0.1268,0.9806,-0.2588,0.0678,0.165,-0.1293,-1.9863,-1.1725,-4.7425,-15.298201692614432,7.080906715393666,13.350665900060838,2.1899999999950523
0.1274,0.9772,-0.2614,0.0678,0.165,-0.1293,-1.9863,-1.1725,-4.7425,-15.247805001647347,7.166736373271111,13.350665900060838,2.1899999999950523
0.1226,0.9716,-0.2597,0.068,0.163,-0.1353,-1.89,-0.1663,-5.18,-15.22466105370467,6.977364615383085,13.348005100060295,2.205999999998312
0.1226,0.9716,-0.2597,0.068,0.163,-0.1353,-1.4,0.1838,-5.7488,-15.150294944938812,6.953939227289851,13.348005100060295,2.205999999998312
0.1228,0.9697,-0.2562,0.0662,0.1624,-0.1302,-1.5313,0.6913,-5.4163,-15.075834590483348,6.976919017732797,13.358374600064922,2.221000000005006
0.123,0.9706,-0.2594,0.0662,0.1624,-0.1302,-1.5313,0.6913,-5.4163,-15.051873981311237,6.979532290196831,13.369435400062144,2.2370000000009895
0.1309,0.9694,-0.2572,0.0662,0.1624,-0.1302,-1.7237,1.1287,-5.145,-15.038066575000608,7.379159368143868,13.369435400062144,2.2370000000009895
0.1324,0.9704,-0.2552,0.065,0.1636,-0.1347,-1.9338,1.3388,-5.0225,-15.002435244215633,7.499972540546171,13.390856200066509,2.253000000004249
0.1324,0.9704,-0.2524,0.065,0.1636,-0.1347,-2.1437,1.6975,-4.6988,-14.894479388617649,7.5195009436280005,13.390856200066509,2.253000000004249
0.1355,0.9692,-0.2524,0.0653,0.163,-0.1314,-2.1437,1.6975,-4.6988,-14.81849260488618,7.683085408079232,13.41631870005317,2.267999999996391
0.1395,0.9681,-0.2492,0.0653,0.163,-0.1314,-1.785,2.0125,-5.11,-14.812481468365979,7.91181287392114,13.41631870005317,2.267999999996391
0.1429,0.9719,-0.2467,0.0653,0.163,-0.1314,-2.24,2.5113,-5.1975,-14.638649193073645,8.085796832439344,13.456499500061355,2.2839999999996508
0.1412,0.9737,-0.2474,0.0642,0.1636,-0.1362,-2.8087,2.9925,-5.0225,-14.446672061286655,8.010880078210896,13.456499500061355,2.2839999999996508
0.1403,0.9749,-0.2428,0.0642,0.1636,-0.1362,-2.8087,2.9925,-5.0225,-14.21497656408044,7.957241140298045,13.501387000059614,2.2989999999990687
0.1403,0.9749,-0.2428,0.0642,0.1634,-0.1311,-2.4675,3.4562,-5.4425,-14.123020898583468,7.950712078661958,13.501387000059614,2.2989999999990687
0.1443,0.9734,-0.2422,0.0642,0.1634,-0.1311,-2.3712,4.025,-5.8362,-14.06836300746537,8.154145557773601,13.565787000072733,2.3150000000023283
0.1404,0.9711,-0.2427,0.0642,0.1634,-0.1311,-2.345,4.3663,-6.195,-14.055577852086905,8.00876121442159,13.565787000072733,2.3150000000023283
0.1343,0.9725,-0.2445,0.0661,0.163,-0.1289,-2.345,4.3663,-6.195,-14.075621626028209,7.68273172157136,13.635647800086966,2.331000000005588
0.1285,0.9712,-0.2466,0.0661,0.163,-0.1289,-1.8725,4.2088,-6.5012,-14.087070300931956,7.363966688484369,13.635647800086966,2.331000000005588
0.1285,0.9712,-0.2481,0.0637,0.1615,-0.1254,-1.4088,4.2438,-6.3088,-14.155538661018898,7.3136900281481045,13.699304800053618,2.34599999999773
0.1278,0.9733,-0.2481,0.0637,0.1615,-0.1254,-1.4088,4.2438,-6.2562,-14.196369427366426,7.260222522335862,13.699304800053618,2.34599999999773
0.1286,0.977,-0.2505,0.0645,0.1614,-0.1346,-1.6187,3.9462,-6.2562,-14.224781026442487,7.265323630412359,13.76244400006648,2.3620000000009895
0.1271,0.9817,-0.2546,0.0645,0.1614,-0.1346,-1.3038,3.6925,-6.2562,-14.3291572500361,7.160892607441389,13.76244400006648,2.3620000000009895
0.1283,0.9862,-0.2575,0.0645,0.1614,-0.1346,-1.0588,3.675,-6.02,-14.45876531057398,7.172503495940631,13.817569000064342,2.3770000000004075
0.1324,0.9883,-0.2565,0.0634,0.1626,-0.1346,-1.0588,3.675,-6.02,-14.497350394248356,7.3582207556924075,13.817569000064342,2.3770000000004075
0.1324,0.9883,-0.2565,0.0634,0.1626,-0.1346,-0.9975,4.4538,-6.1775,-14.520512996865554,7.384080213071691,13.888829800046453,2.392999999996391
0.1325,0.9877,-0.2602,0.0647,0.1631,-0.1287,-1.4875,4.5588,-6.3,-14.577351977510341,7.39030530940306,13.888829800046453,2.392999999996391
0.1333,0.9862,-0.2594,0.0647,0.1631,-0.1287,-1.5225,5.4338,-5.9325,-14.612056611243052,7.439535070450378,13.975770600064166,2.4089999999996508
0.1266,0.9822,-0.2589,0.0647,0.1631,-0.1287,-1.5225,5.4338,-5.9325,-14.64576256227599,7.150792449061712,13.975770600064166,2.4089999999996508
0.1269,0.9826,-0.2588,0.0634,0.1622,-0.137,-1.8725,6.0113,-5.845,-14.65309943733633,7.1230767022690795,14.065940100060667,2.4239999999990687
0.1269,0.9818,-0.2567,0.0634,0.1622,-0.137,-2.8875,6.5712,-5.0225,-14.652769231770813,7.127195775852144,14.065940100060667,2.4239999999990687
0.1214,0.9818,-0.2567,0.0632,0.1626,-0.1322,-2.4413,7.0,-4.5237,-14.65265059596146,6.857117462240353,14.177940100083484,2.4400000000023283
0.115,0.9787,-0.2604,0.0632,0.1626,-0.1322,-2.4413,7.0,-4.5237,-14.748956210158706,6.522098494848418,14.177940100083484,2.4400000000023283
0.1041,0.9774,-0.258,0.0632,0.1626,-0.1322,-3.0538,7.105,-4.69,-14.77002211773051,5.9552995699862015,14.284515100027653,2.4549999999944703
0.0926,0.9753,-0.2607,0.0621,0.1627,-0.1331,-2.7912,6.72,-4.3925,-14.867241639314567,5.322130609187953,14.284515100027653,2.4549999999944703
0.0859,0.9812,-0.2647,0.0621,0.1627,-0.1331,-2.3625,6.0813,-4.9788,-14.950004531588341,4.891264351621398,14.381815900047476,2.47099999999773
0.0859,0.9812,-0.2647,0.0606,0.1616,-0.1319,-2.3625,6.0813,-4.9788,-15.003004429942862,4.838698749569831,14.381815900047476,2.47099999999773
0.0843,0.9825,-0.2607,0.0606,0.1616,-0.1319,-1.8025,4.9963,-5.1275,-15.002781656032122,4.752953008138576,14.461756700063763,2.4870000000009895
0.0864,0.9889,-0.2618,0.0606,0.1616,-0.1319,-1.5225,4.2525,-5.2325,-14.964766002375006,4.818335978735841,14.461756700063763,2.4870000000009895
0.0905,0.9916,-0.2637,0.0614,0.1619,-0.1334,-2.3363,3.4825,-5.0487,-14.939466442404848,5.01316843475756,14.513994200061736,2.5020000000004075
0.0982,0.9921,-0.2647,0.0614,0.1619,-0.1334,-2.3363,3.4825,-5.0487,-14.939291738677843,5.407605562973287,14.569714200073088,2.518000000003667
0.0982,0.9882,-0.2596,0.0635,0.1626,-0.1318,-2.9838,2.7213,-4.4887,-14.819927329210927,5.48044638022034,14.569714200073088,2.518000000003667
0.1002,0.9882,-0.2596,0.0635,0.1626,-0.1318,-3.0538,2.695,-3.8325,-14.763808531950351,5.588123318818567,14.610139200051911,2.532999999995809
0.1051,0.9862,-0.2566,0.0598,0.1618,-0.137,-3.0538,2.695,-2.7387,-14.664061489146412,5.859699722609981,14.610139200051911,2.532999999995809
0.1121,0.9842,-0.2536,0.0598,0.1618,-0.137,-3.745,2.5812,-2.7387,-14.52215747078932,6.252483398159533,14.651438400060325,2.5489999999990687
0.1188,0.98,-0.2499,0.0598,0.1618,-0.137,-4.2438,3.0712,-0.9887,-14.368466163139953,6.662891375731272,14.651438400060325,2.5489999999990687
0.1215,0.9762,-0.2475,0.0582,0.1615,-0.1338,-4.1213,4.0163,0.5512,-14.269370045429019,6.863447670031876,14.715699200073416,2.5650000000023283
0.1215,0.9762,-0.2475,0.0582,0.1615,-0.1338,-4.1213,4.0163,0.5512,-14.239525116326021,6.8780583046009305,14.715699200073416,2.5650000000023283
0.1182,0.9724,-0.2436,0.0562,0.1603,-0.1294,-3.7013,5.215,1.3563,-14.124497358080163,6.735318588186823,14.79392420007038,2.5800000000017462
0.1184,0.968,-0.2416,0.0562,0.1603,-0.1294,-3.6837,4.9525,2.03,-14.052302922182758,6.765703723415533,14.79392420007038,2.5800000000017462
0.1236,0.9644,-0.24,0.0562,0.1603,-0.1294,-3.5438,4.9525,2.6688,-14.003004909060577,7.069000159120676,14.873164200086524,2.596000000005006
0.1238,0.964,-0.2358,0.0562,0.1601,-0.1358,-3.5438,4.9525,2.6688,-13.83905899377518,7.108032395908381,14.873164200086524,2.596000000005006
0.1238,0.9662,-0.2366,0.0562,0.1601,-0.1358,-2.52,4.655,2.52,-13.805840305512268,7.095078335880915,14.942989200049945,2.610999999997148
0.1331,0.9662,-0.2366,0.0539,0.1602,-0.1305,-1.9075,4.13,2.38,-13.801391349146876,7.587258592805707,14.942989200049945,2.610999999997148
0.1362,0.9679,-0.242,0.0539,0.1602,-0.1305,-1.96,3.885,1.645,-13.833812923156652,7.761087176347473,15.00514920006261,2.6270000000004075
0.1432,0.9675,-0.2382,0.0539,0.1602,-0.1305,-1.96,3.885,1.645,-13.833458181833572,8.150307393743148,15.00514920006261,2.6270000000004075
0.1507,0.9706,-0.2323,0.0537,0.1596,-0.1288,-2.31,2.7387,1.3737,-13.707402733179812,8.556802840638678,15.04896840005161,2.642999999996391
0.1535,0.9629,-0.2335,0.0537,0.1596,-0.1288,-2.6075,2.3975,1.1463,-13.673252289788351,8.789058006192281,15.04896840005161,2.642999999996391
0.1535,0.9629,-0.2335,0.0526,0.16,-0.1293,-2.7912,3.395,0.805,-13.652185572748945,8.805245147694272,15.099893400074336,2.658000000003085
0.1551,0.9626,-0.2342,0.0526,0.16,-0.1293,-2.7912,3.395,0.805,-13.663210985008694,8.891310899020041,15.099893400074336,2.658000000003085
0.1535,0.9645,-0.2381,0.0526,0.16,-0.1293,-2.345,3.5875,0.5075,-13.735014690083352,8.791277575703148,15.15729340008603,2.6740000000063446
0.156,0.9637,-0.2333,0.0513,0.158,-0.12,-1.9512,3.4562,-0.4375,-13.718524600588154,8.929368852256529,15.15729340008603,2.6740000000063446
0.1611,0.96,-0.2313,0.0513,0.158,-0.12,-1.96,3.6925,-1.0325,-13.69491806073229,9.2381220222707,15.212680900057013,2.6889999999984866
0.1611,0.96,-0.2323,0.05,0.157,-0.1329,-1.96,3.6925,-1.0325,-13.682290720243849,9.261562864072955,15.212680900057013,2.6889999999984866
0.1631,0.9584,-0.2323,0.05,0.157,-0.1329,-1.9863,4.095,-0.805,-13.673295739477583,9.380687480395869,15.278200900070361,2.7050000000017462
0.165,0.9578,-0.2342,0.0487,0.1594,-0.1295,-2.5287,4.4538,-1.4787,-13.70151168747122,9.489658028777463,15.278200900070361,2.7050000000017462
0.1659,0.9614,-0.2328,0.0487,0.1594,-0.1295,-2.5287,4.4538,-1.68,-13.663800877358007,9.517994198846516,15.349461700052473,2.72099999999773
0.1738,0.9594,-0.2314,0.0487,0.1594,-0.1295,-2.0563,4.5237,-1.68,-13.642749766462995,9.946805117763214,15.349461700052473,2.72099999999773
0.1737,0.9572,-0.2321,0.0486,0.1587,-0.1214,-1.6538,4.9788,-1.085,-13.641102564822887,9.99709648118611,15.424143700049575,2.735999999997148
0.1737,0.9572,-0.2321,0.0486,0.1587,-0.1214,-1.225,5.3113,-1.1463,-13.637011174725439,10.001254135046945,15.424143700049575,2.735999999997148
0.1714,0.9523,-0.2343,0.046,0.1566,-0.129,-1.225,5.3113,-1.1463,-13.704718553595955,9.920919476106128,15.509124500066887,2.7520000000004075
0.1699,0.9503,-0.2309,0.046,0.1566,-0.129,0.21,5.67,-0.7962,-13.672744510590118,9.860946296544267,15.509124500066887,2.7520000000004075
0.1693,0.9523,-0.2308,0.046,0.1566,-0.129,1.1725,6.5538,-0.77,-13.635931462161649,9.807375460524085,15.613985300040564,2.767999999996391
0.1758,0.9539,-0.2327,0.0462,0.1577,-0.1416,1.3825,6.7725,-0.0613,-13.691770975117667,10.12479401373753,15.613985300040564,2.767999999996391
0.1758,0.9539,-0.2237,0.0462,0.1577,-0.1416,1.3825,6.7725,-0.0613,-13.316025921355948,10.168620199618319,15.72234530006264,2.7839999999996508
0.1843,0.9571,-0.2237,0.0418,0.1559,-0.1343,2.3975,6.2825,0.6212,-13.186302892008763,10.58734164786507,15.72234530006264,2.7839999999996508
0.1917,0.9593,-0.2263,0.0418,0.1559,-0.1343,2.905,6.16,0.9975,-13.258195747810694,10.976755213283322,15.82090530008272,2.8000000000029104
0.1923,0.958,-0.2294,0.0418,0.1559,-0.1343,2.8963,6.7812,1.19,-13.4297920865943,11.04109595838308,15.82090530008272,2.8000000000029104
0.1896,0.9548,-0.2286,0.0429,0.1579,-0.1338,2.8963,6.7812,1.19,-13.458332688478889,10.937990408545348,15.922623300078772,2.8150000000023283
0.1859,0.9539,-0.2282,0.0429,0.1579,-0.1338,3.255,7.8575,1.1812,-13.454653648170982,10.74663356721067,15.922623300078772,2.8150000000023283
0.1859,0.9539,-0.2282,0.0422,0.1564,-0.1346,3.7975,8.1725,1.4787,-13.454036259139258,10.73328459171752,16.053383300105413,2.831000000005588
0.1785,0.9517,-0.2284,0.0422,0.1564,-0.1346,4.445,8.1988,1.645,-13.48958618939895,10.362832011190633,16.053383300105413,2.831000000005588
0.1778,0.9536,-0.2318,0.0422,0.1564,-0.1346,4.445,8.1988,1.645,-13.638562658753395,10.275519121800594,16.176365300040985,2.84599999999773
0.1792,0.9548,-0.2298,0.04,0.1575,-0.1423,5.1188,7.525,1.2075,-13.545887908956953,10.33658087343023,16.296765300065513,2.8620000000009895
0.1803,0.9553,-0.2319,0.04,0.1575,-0.1423,5.2413,6.965,1.0675,-13.632390978993943,10.389132670986458,16.296765300065513,2.8620000000009895
0.1803,0.9553,-0.2339,0.037,0.1577,-0.1361,5.985,6.44,0.3063,-13.743613163189083,10.388272894928305,16.39980530003965,2.877999999996973
0.1846,0.9559,-0.2339,0.037,0.1577,-0.1361,5.985,6.44,0.3063,-13.74891012544824,10.606717553888485,16.39980530003965,2.877999999996973
0.1892,0.9568,-0.2339,0.0366,0.1567,-0.1383,5.3725,5.5213,-0.1575,-13.738586443956,10.852807598079899,16.482624800076607,2.893000000003667
0.1966,0.9611,-0.2327,0.0366,0.1567,-0.1383,5.0138,5.3637,-0.735,-13.626840872663623,11.213032472298693,16.482624800076607,2.893000000003667
0.2004,0.963,-0.2347,0.0366,0.1567,-0.1383,5.0138,5.3637,-1.1287,-13.68798904275531,11.412058748142066,16.568444000055063,2.9089999999996508
0.2011,0.9587,-0.2394,0.0349,0.1565,-0.1332,4.375,5.6087,-1.1287,-13.974398925671965,11.495810074098518,16.568444000055063,2.9089999999996508
0.2011,0.9587,-0.2394,0.0349,0.1565,-0.1332,3.395,5.355,-2.1263,-14.013289311642305,11.502705397681419,16.648769000051946,2.9239999999990687
0.1998,0.9578,-0.2396,0.0364,0.1574,-0.1441,3.08,6.4313,-2.6862,-14.03934923313165,11.446238768609755,16.648769000051946,2.9239999999990687
0.1901,0.9537,-0.2368,0.0364,0.1574,-0.1441,3.08,6.4313,-2.6862,-13.960481917391546,10.996307160326936,16.75166980007291,2.9400000000023283
0.1856,0.9531,-0.2348,0.0364,0.1574,-0.1441,3.1063,6.7288,-3.4213,-13.859949915925666,10.736725741101475,16.75166980007291,2.9400000000023283
0.1805,0.9512,-0.238,0.0357,0.1577,-0.1354,2.6775,7.2537,-3.4388,-14.013332210024254,10.461988777421155,16.867729000043777,2.955999999998312
0.1805,0.9512,-0.2381,0.0357,0.1577,-0.1354,3.0013,6.125,-3.955,-14.046370112432227,10.43372785278413,16.867729000043777,2.955999999998312
0.179,0.9523,-0.2381,0.0346,0.1571,-0.1414,3.0013,6.125,-3.955,-14.039160439144258,10.345249921700221,16.959604000040212,2.97099999999773
0.1795,0.9579,-0.2395,0.0346,0.1571,-0.1414,3.2025,5.5125,-4.3313,-14.037902301203298,10.308175800600749,16.959604000040212,2.97099999999773
0.1795,0.964,-0.2393,0.0346,0.1571,-0.1414,3.465,4.445,-5.0925,-13.956555161624802,10.251802282959586,17.0307240000547,2.9870000000009895
0.1798,0.9651,-0.2411,0.0326,0.1584,-0.1473,3.0187,3.7187,-5.9588,-14.01445210969555,10.246315263415358,17.0307240000547,2.9870000000009895
0.1798,0.9656,-0.2388,0.0326,0.1584,-0.1473,3.0187,3.7187,-5.9588,-13.91217218545909,10.246159214727088,17.086504500052534,3.0020000000004075
0.1798,0.9656,-0.2388,0.0342,0.1581,-0.1453,1.6013,3.5,-6.4925,-13.89577129394194,10.246137869321037,17.086504500052534,3.0020000000004075
0.1818,0.9667,-0.2372,0.0342,0.1581,-0.1453,0.9712,2.7037,-7.3763,-13.81535329886943,10.33264924580079,17.129763700061346,3.018000000003667
0.1841,0.9658,-0.2355,0.0342,0.1581,-0.1453,0.42,1.855,-7.6125,-13.738259190989801,10.463285969917074,17.129763700061346,3.018000000003667
0.1826,0.9641,-0.2358,0.0319,0.155,-0.1391,0.42,1.855,-7.6125,-13.741956034965574,10.431484197412836,17.159443700053895,3.0339999999996508
0.1818,0.9589,-0.237,0.0319,0.155,-0.1391,-0.42,0.77,-8.0675,-13.823700788717083,10.429322006952772,17.159443700053895,3.0339999999996508
0.1818,0.9589,-0.2325,0.0326,0.1559,-0.1435,-0.7088,0.5863,-8.4087,-13.722177111290325,10.437647002033707,17.168238200053555,3.0489999999990687
0.1787,0.9591,-0.2325,0.0326,0.1559,-0.1435,-0.3325,-0.14,-8.225,-13.665249507720157,10.298819406196563,17.168238200053555,3.0489999999990687
0.1777,0.9617,-0.2334,0.0325,0.158,-0.1455,-0.3325,-0.14,-8.225,-13.651215525214715,10.203837579307793,17.1659982000531,3.0650000000023283
0.1783,0.9603,-0.2345,0.0325,0.158,-0.1455,-0.1838,-0.1225,-8.3125,-13.695420220115933,10.220307362994962,17.1659982000531,3.0650000000023283
0.1815,0.9647,-0.2333,0.0325,0.158,-0.1455,-0.2275,-0.5512,-8.155,-13.634146050830582,10.334706904109611,17.15773020005342,3.0800000000017462
0.1837,0.964,-0.231,0.036,0.1588,-0.1418,-0.2275,-0.5512,-8.155,-13.537147713675846,10.465964649567558,17.15773020005342,3.0800000000017462
0.1837,0.964,-0.231,0.036,0.1588,-0.1418,-0.2013,-0.6212,-8.1637,-13.499214088522752,10.492097541821561,17.147791000051395,3.096000000005006
0.1841,0.9619,-0.2301,0.0351,0.1585,-0.1419,-0.1488,-0.5425,-8.2163,-13.470516781168033,10.53383706968298,17.147791000051395,3.096000000005006
0.1767,0.9581,-0.2333,0.0351,0.1585,-0.1419,-0.1138,-0.28,-8.4438,-13.605398129035533,10.238296994582434,17.14331100005252,3.1120000000009895
0.1708,0.9578,-0.2361,0.0351,0.1585,-0.1419,-0.1138,-0.28,-8.4438,-13.757390256982017,9.910729309957754,17.14331100005252,3.1120000000009895
0.1614,0.9564,-0.2322,0.0357,0.1593,-0.139,-0.1575,-0.7437,-8.2075,-13.688474142576734,9.433515069399464,17.132155500052953,3.1270000000004075
0.1614,0.9564,-0.234,0.0357,0.1593,-0.139,0.4288,-1.05,-8.0238,-13.729795448792299,9.333402747339267,17.132155500052953,3.1270000000004075
0.1631,0.9596,-0.234,0.0342,0.1585,-0.144,1.1025,-1.5137,-8.0238,-13.710766032774817,9.3681537650525,17.107936300059034,3.142999999996391
0.1639,0.9601,-0.2308,0.0342,0.1585,-0.144,1.1025,-1.5137,-8.0238,-13.56660110267278,9.413317199760593,17.107936300059034,3.142999999996391
0.1585,0.9644,-0.2395,0.0342,0.1585,-0.144,1.6187,-2.38,-8.5837,-13.86073084303471,9.139032554402691,17.0722363000431,3.158000000003085
0.1579,0.9629,-0.2364,0.0357,0.1605,-0.1486,2.1613,-3.08,-8.6363,-13.807268092852587,9.068542972034631,17.022956300033062,3.1740000000063446
0.1581,0.9641,-0.2392,0.0357,0.1605,-0.1486,1.9775,-3.8063,-8.2775,-13.907572879964322,9.048556500906624,17.022956300033062,3.1740000000063446
0.1581,0.9641,-0.2392,0.0365,0.1597,-0.1447,1.9775,-3.8063,-8.2775,-13.928564026457686,9.044475992047762,16.962055500076044,3.1899999999950523
0.158,0.9611,-0.2451,0.0365,0.1597,-0.1447,1.8988,-4.3575,-8.0588,-14.226196373967179,9.049706123420899,16.962055500076044,3.1899999999950523
0.1585,0.9615,-0.2459,0.0365,0.1597,-0.1447,2.485,-4.69,-7.7962,-14.323084063072063,9.06938231873668,16.962055500076044,3.1899999999950523
0.1602,0.9657,-0.2451,0.0388,0.1614,-0.1349,2.9925,-5.5037,-7.14,-14.255395059281314,9.123723278711577,16.879500000039204,3.2050000000017462
0.1626,0.9642,-0.2504,0.0388,0.1614,-0.1349,2.9925,-5.5037,-7.14,-14.505736269481956,9.24596125254506,16.79144080006131,3.22099999999773
0.1626,0.9642,-0.2551,0.0375,0.161,-0.1444,2.87,-6.0025,-6.7025,-14.764001278955064,9.257282710643278,16.79144080006131,3.22099999999773
0.1648,0.9622,-0.2551,0.0375,0.161,-0.1444,2.5287,-5.7137,-6.3437,-14.832837751640044,9.37937964592973,16.70573530002306,3.236000000004424
0.1662,0.964,-0.257,0.0376,0.1611,-0.1489,2.5287,-6.2913,-5.985,-14.909915449354004,9.447020577206299,16.70573530002306,3.236000000004424
0.1643,0.9684,-0.255,0.0376,0.1611,-0.1489,3.4562,-6.2913,-5.985,-14.777489174181222,9.33544615532,16.605074500048328,3.2520000000004075
0.1681,0.9672,-0.259,0.0376,0.1611,-0.1489,3.185,-6.1775,-5.7488,-14.955440333284665,9.50402497251282,16.605074500048328,3.2520000000004075
0.1687,0.966,-0.2588,0.0383,0.1609,-0.1451,2.415,-5.7137,-5.075,-14.989716121824712,9.566247374119463,16.513655300071278,3.267999999996391
0.1687,0.966,-0.2588,0.0383,0.1609,-0.1451,2.415,-5.7137,-5.075,-14.996287484712242,9.57392864570065,16.513655300071278,3.267999999996391
0.1668,0.9639,-0.2649,0.0369,0.1622,-0.154,2.4413,-5.95,-5.1887,-15.296055305182213,9.485747453103846,16.42440530003145,3.283000000003085
0.1657,0.9639,-0.2625,0.0369,0.1622,-0.154,2.0387,-5.355,-5.3812,-15.246815923047487,9.426373521421723,16.42440530003145,3.283000000003085
0.1656,0.9629,-0.2646,0.0369,0.1622,-0.154,1.82,-5.2325,-5.39,-15.33967887682349,9.417203595793765,16.340685300052463,3.2989999999990687
0.1693,0.9657,-0.2669,0.0396,0.1612,-0.1464,1.82,-5.2325,-5.39,-15.425910447838264,9.56879618334773,16.340685300052463,3.2989999999990687
0.1693,0.9657,-0.2664,0.0396,0.1612,-0.1464,1.8463,-5.3288,-5.1887,-15.422968063117443,9.5894334611587,16.255424500035094,3.3150000000023283
0.167,0.967,-0.2664,0.0396,0.1615,-0.1443,1.0412,-4.9612,-5.3113,-15.407763243601238,9.470202550867176,16.255424500035094,3.3150000000023283
0.1688,0.9646,-0.2692,0.0396,0.1615,-0.1443,0.3762,-5.425,-5.2762,-15.534918602362849,9.555182953164538,16.168624500017412,3.331000000005588
0.1696,0.9651,-0.2659,0.0396,0.1615,-0.1443,0.3762,-5.425,-5.2762,-15.445005393841434,9.608098880847367,16.168624500017412,3.331000000005588
0.1741,0.9626,-0.267,0.0402,0.1615,-0.1482,-0.0088,-5.1975,-5.145,-15.48198504353146,9.851783974930427,16.085464500038288,3.3470000000015716
0.1743,0.9644,-0.2686,0.0402,0.1615,-0.1482,-0.49,-4.9525,-5.5388,-15.528127045121384,9.873365278098028,16.085464500038288,3.3470000000015716
0.1743,0.9644,-0.2686,0.0389,0.161,-0.1434,-1.0237,-4.5413,-5.635,-15.54352002837095,9.876185831711346,16.017345000040933,3.3620000000009895
0.1764,0.9637,-0.2642,0.0389,0.161,-0.1434,-1.0237,-4.5413,-5.635,-15.450603241384398,9.993400820820632,16.017345000040933,3.3620000000009895
0.1764,0.9609,-0.2652,0.0389,0.161,-0.1434,-1.54,-4.7337,-5.5738,-15.446140944660735,10.029767367548358,15.941605800059945,3.377999999996973
0.172,0.9595,-0.2639,0.0395,0.1599,-0.1397,-1.8813,-4.2962,-5.5125,-15.441096811178372,9.835390646957453,15.941605800059945,3.377999999996973
0.1696,0.9584,-0.2599,0.0395,0.1599,-0.1397,-1.6712,-3.5,-5.985,-15.41026764992578,9.712113186502238,15.889105800036516,3.393000000003667
0.1696,0.9584,-0.26,0.0408,0.1617,-0.1538,-1.6712,-3.5,-5.985,-15.383618229817671,9.694752985565103,15.889105800036516,3.393000000003667
0.1671,0.955,-0.26,0.0408,0.1617,-0.1538,-1.1375,-2.7387,-6.265,-15.322243583898608,9.599011000264063,15.845286600047515,3.4089999999996508
0.1641,0.9601,-0.2603,0.041,0.1613,-0.1396,-1.61,-2.8087,-6.3175,-15.297713835911114,9.401169809026674,15.845286600047515,3.4089999999996508
0.1647,0.9642,-0.2557,0.041,0.1613,-0.1396,-1.61,-2.9575,-5.8012,-15.226353735325207,9.378901276771446,15.797966600059393,3.4249999999956344
0.1684,0.9648,-0.257,0.041,0.1613,-0.1396,-1.61,-2.9575,-5.8012,-15.176579805781923,9.547159832993726,15.797966600059393,3.4249999999956344
0.1718,0.9638,-0.255,0.0404,0.1609,-0.1434,-1.9688,-3.4475,-5.3375,-15.125270654702394,9.74800195126615,15.746254100036316,3.4400000000023283
0.1718,0.9638,-0.255,0.0404,0.1609,-0.1434,-1.8813,-3.2287,-5.2937,-15.102533508886731,9.773646817968865,15.746254100036316,3.4400000000023283
0.1711,0.9675,-0.2561,0.0402,0.1606,-0.1464,-1.8813,-3.2287,-5.2937,-15.081986161296772,9.710629240889006,15.694594900049283,3.455999999998312
0.1707,0.9661,-0.255,0.0402,0.1606,-0.1464,-1.6363,-3.2812,-5.2587,-15.040128938032936,9.696760903291187,15.694594900049283,3.455999999998312
0.1706,0.9648,-0.2563,0.0402,0.1606,-0.1464,-1.2337,-2.8437,-5.4425,-14.981112128133306,9.697823691728603,15.651939400050939,3.47099999999773
0.1737,0.9611,-0.2537,0.0398,0.1607,-0.1429,-1.2425,-3.185,-5.25,-14.911550014680863,9.88503026640311,15.651939400050939,3.47099999999773
0.1737,0.9611,-0.2556,0.0398,0.1607,-0.1429,-1.2425,-3.185,-5.25,-14.904839001694372,9.904496800301773,15.60097940006373,3.4869999999937136
0.1724,0.9586,-0.2556,0.0409,0.1593,-0.1434,-1.3125,-2.8875,-5.565,-14.91307238373449,9.86418900227399,15.60097940006373,3.4869999999937136
0.1718,0.9566,-0.2559,0.0409,0.1593,-0.1434,-1.3737,-2.6688,-5.6613,-14.932063678049554,9.845382392398385,15.558278600055031,3.502999999996973
0.166,0.954,-0.2534,0.0409,0.1593,-0.1434,-1.3825,-2.1962,-5.7137,-14.915327837932493,9.586347815107203,15.558278600055031,3.502999999996973
0.1639,0.9518,-0.2549,0.0403,0.1612,-0.147,-1.3825,-2.1962,-5.7137,-14.938084908898698,9.46309147939767,15.52533560004033,3.518000000003667
0.1636,0.9539,-0.2561,0.0403,0.1612,-0.147,-0.3413,-1.89,-5.6788,-14.991562303895787,9.412848135756422,15.52533560004033,3.518000000003667
0.1636,0.9539,-0.2561,0.042,0.1607,-0.143,0.6562,-1.5838,-6.0025,-15.017602194003587,9.406192658133207,15.499994800046691,3.5339999999996508
0.1629,0.9549,-0.261,0.042,0.1607,-0.143,1.1638,-1.4175,-5.9675,-15.219125821684814,9.353238868522029,15.499994800046691,3.5339999999996508
0.1621,0.9598,-0.2572,0.042,0.1607,-0.143,1.1638,-1.4175,-5.9675,-15.05620021746123,9.277459965604844,15.478732300047517,3.5489999999990687
0.1612,0.9572,-0.2586,0.041,0.161,-0.1438,1.2075,-0.7175,-5.6,-15.102791273618317,9.240002253720332,15.467252300050399,3.5649999999950523
0.1636,0.96,-0.2578,0.041,0.161,-0.1438,2.03,-0.8575,-5.25,-15.046390162479437,9.332854253506781,15.467252300050399,3.5649999999950523
0.1636,0.96,-0.2576,0.0407,0.1613,-0.1481,2.3537,-0.9363,-4.7863,-15.025549547393917,9.345085176370265,15.452271500047347,3.580999999998312
0.1665,0.9649,-0.2576,0.0407,0.1613,-0.1481,2.3537,-0.9363,-4.7863,-14.962784852239542,9.450854707229293,15.452271500047347,3.580999999998312
0.1654,0.9698,-0.2624,0.0404,0.1598,-0.1426,1.715,-0.0613,-4.6813,-15.10081785425524,9.360808883468485,15.452271500047347,3.580999999998312
0.1687,0.9731,-0.2612,0.0404,0.1598,-0.1426,0.77,-0.2013,-4.445,-15.04637066231877,9.48869126830489,15.449252000046,3.596000000005006
0.1685,0.9694,-0.2629,0.0404,0.1598,-0.1426,0.77,2.0387,-4.4975,-15.137948194521194,9.519232175121045,15.481871200037812,3.6120000000009895
0.1674,0.9641,-0.2625,0.0403,0.1606,-0.1452,0.0175,0.21,-4.4975,-15.197970685677056,9.51167828144598,15.481871200037812,3.6120000000009895
0.1674,0.9641,-0.2625,0.0403,0.1606,-0.1452,-0.1663,0.5337,-4.2875,-15.218450067685191,9.510805141408046,15.4898767000375,3.6270000000004075
0.1631,0.9624,-0.2616,0.0399,0.1619,-0.1469,-0.0175,0.5425,-4.305,-15.210951823739348,9.312966801442927,15.4898767000375,3.6270000000004075
0.1601,0.9615,-0.262,0.0399,0.1619,-0.1469,-0.0175,0.5425,-4.305,-15.23117365833126,9.147750592155141,15.498556700035321,3.642999999996391
0.1654,0.9607,-0.2595,0.0399,0.1619,-0.1469,-0.2013,0.4288,-4.2875,-15.160146987435287,9.404302247236734,15.498556700035321,3.642999999996391
0.1679,0.9601,-0.2587,0.0401,0.1587,-0.145,0.2625,0.7613,-4.1737,-15.106336430209614,9.564291573458044,15.510737500037802,3.6589999999996508
0.1679,0.9601,-0.2636,0.0401,0.1587,-0.145,0.4725,1.2775,-4.0687,-15.277320660694977,9.571273351074089,15.510737500037802,3.6589999999996508
0.1687,0.9604,-0.2636,0.0391,0.1614,-0.144,0.4725,1.2775,-4.0687,-15.32638101788715,9.609443670860134,15.529900000037058,3.6739999999990687
0.1707,0.9624,-0.2591,0.0391,0.1614,-0.144,0.21,0.9975,-3.78,-15.153855113663257,9.707153927208934,15.529900000037058,3.6739999999990687
0.1728,0.9601,-0.2589,0.0391,0.1614,-0.144,0.49,1.4088,-3.7013,-15.110367602334474,9.842145527748256,15.55244080004165,3.6900000000023283
0.1746,0.9592,-0.2599,0.0394,0.1597,-0.1461,0.525,1.7413,-3.85,-15.145469091709428,9.95154698417049,15.55244080004165,3.6900000000023283
0.1727,0.9598,-0.2616,0.0394,0.1597,-0.1461,0.525,1.7413,-3.85,-15.215791958186616,9.859490754684538,15.578560300040635,3.7050000000017462
0.1727,0.9598,-0.2616,0.0374,0.161,-0.1454,0.2713,2.2838,-3.6137,-15.236185084080047,9.849590036758105,15.578560300040635,3.7050000000017462
0.1748,0.9587,-0.2615,0.0374,0.161,-0.1454,0.0175,2.3363,-3.5525,-15.24970599337348,9.963302763119085,15.615941100031252,3.72099999999773
0.1728,0.9576,-0.2629,0.0374,0.161,-0.1454,0.3762,3.2025,-3.71,-15.319647457517998,9.881047606922404,15.615941100031252,3.72099999999773
0.1707,0.9586,-0.2661,0.0364,0.159,-0.1483,0.3762,3.2025,-3.71,-15.452996174022415,9.751526342722412,15.667181100041692,3.7370000000009895
0.1698,0.9609,-0.266,0.0364,0.159,-0.1483,0.8662,3.2375,-3.8937,-15.467803737575293,9.674319945732593,15.667181100041692,3.7370000000009895
0.1698,0.9609,-0.2504,0.0378,0.162,-0.1465,1.0675,3.4562,-4.1562,-14.828647772218513,9.700399018313496,15.71902410003968,3.7520000000004075
0.1737,0.9593,-0.2631,0.0378,0.162,-0.1465,1.435,3.6662,-4.4275,-15.21695857238494,9.881771198728183,15.71902410003968,3.7520000000004075
0.1744,0.9597,-0.262,0.0378,0.1618,-0.1506,1.435,3.6662,-4.4275,-15.25730066312553,9.936325427421941,15.777683300024956,3.767999999996391
0.1756,0.9606,-0.2647,0.0379,0.1618,-0.1506,0.4112,3.3512,-4.4187,-15.359647736736692,9.988149647573293,15.777683300024956,3.767999999996391
0.1767,0.9615,-0.2611,0.0379,0.1618,-0.1506,0.3588,4.06,-4.515,-15.24545158414094,10.049028340726668,15.838583300052132,3.783000000003085
0.1778,0.9609,-0.2577,0.0359,0.1623,-0.143,0.3588,4.06,-4.5413,-15.086336139205978,10.123173448405602,15.838583300052132,3.783000000003085
0.1778,0.9609,-0.2577,0.0359,0.1623,-0.143,0.6125,4.2438,-4.5413,-15.034245925724305,10.131760788947789,15.906484100035089,3.7989999999990687
0.1803,0.9597,-0.2599,0.035,0.1604,-0.1419,0.5163,4.3225,-4.27,-15.1172184224404,10.261823374728255,15.906484100035089,3.7989999999990687
0.1792,0.9602,-0.2591,0.035,0.1604,-0.1419,-0.21,4.3575,-3.6488,-15.1072657475784,10.219143861949616,15.976204100049292,3.8150000000023283
0.1821,0.9607,-0.2563,0.035,0.1604,-0.1419,-0.21,4.3575,-3.6488,-15.003162654908042,10.361637704412544,15.976204100049292,3.8150000000023283
0.1795,0.9578,-0.2583,0.0346,0.1598,-0.1394,-0.42,4.2875,-3.8063,-15.054985279915309,10.267606609687217,16.070529100037312,3.8369999999995343
0.1795,0.9578,-0.2583,0.0346,0.1598,-0.1394,-0.0613,4.4012,-4.6375,-15.078814621809675,10.257687196209488,16.105738700044487,3.845000000001164
0.1758,0.9568,-0.2547,0.0353,0.1619,-0.148,-0.0088,4.8738,-4.5237,-14.968177386928451,10.090082194969586,16.125233900012997,3.848999999994703
0.1751,0.9571,-0.2527,0.0353,0.1619,-0.148,-0.0088,4.8738,-4.5237,-14.853884853063342,10.037928864706755,16.125233900012997,3.848999999994703
0.173,0.9601,-0.2529,0.0353,0.1619,-0.148,-0.4112,4.935,-4.1038,-14.797585350221702,9.90125126360583,16.204193900029082,3.8649999999979627
0.1702,0.9582,-0.2525,0.0335,0.1606,-0.1486,0.07,4.0425,-4.1125,-14.774846354035564,9.763213431290474,16.204193900029082,3.8649999999979627
0.1708,0.9614,-0.2514,0.0335,0.1606,-0.1486,-0.2713,3.9113,-4.2,-14.70198285689753,9.75379093041266,16.262863400055263,3.8800000000046566
0.1708,0.9614,-0.2514,0.0347,0.1624,-0.1474,-0.2713,3.9113,-4.2,-14.673178877372418,9.75274113205216,16.262863400055263,3.8800000000046566
0.1751,0.9616,-0.2485,0.0347,0.1624,-0.1474,-0.4112,3.01,-4.2962,-14.566404895457632,9.97085104660803,16.311023400043172,3.8960000000006403
0.1772,0.9626,-0.253,0.0347,0.1624,-0.1474,-0.5337,2.73,-4.6725,-14.65559815178021,10.08044670954983,16.311023400043172,3.8960000000006403
0.1771,0.9623,-0.2506,0.0324,0.1636,-0.1522,-0.21,2.1437,-4.6988,-14.619391642847358,10.096277180674802,16.34532260005016,3.9120000000039
0.179,0.9609,-0.2489,0.0324,0.1636,-0.1522,-0.21,2.1437,-4.6988,-14.559613011178707,10.207527422403524,16.34532260005016,3.9120000000039
0.179,0.9609,-0.2489,0.032,0.1607,-0.1475,-0.4988,2.1875,-4.48,-14.538360071254338,10.220695777738904,16.37813510003297,3.926999999996042
0.1803,0.9578,-0.2503,0.032,0.1607,-0.1475,-0.5425,1.855,-4.1912,-14.598041298170738,10.310731662508982,16.37813510003297,3.926999999996042
0.1738,0.9552,-0.2514,0.032,0.1593,-0.1489,-0.5425,1.6363,-4.2263,-14.680115207867273,10.016565108219588,16.404315900038306,3.9429999999993015
0.176,0.9548,-0.25,0.0323,0.1593,-0.1489,-0.7175,1.6363,-4.2263,-14.67623277942121,10.100215737280319,16.404315900038306,3.9429999999993015
0.1741,0.9556,-0.2476,0.0323,0.1593,-0.1489,-0.3675,1.295,-3.8238,-14.58781446676336,10.01261399464269,16.42374090003755,3.9579999999987194
0.1765,0.9568,-0.2522,0.0318,0.1619,-0.1531,-0.14,0.91,-4.1475,-14.69938077806258,10.102633758926293,16.42374090003755,3.9579999999987194
0.1765,0.9568,-0.2522,0.0318,0.1619,-0.1531,-0.14,0.91,-4.1475,-14.741308294200422,10.112604895973808,16.438300900040517,3.974000000001979
0.1764,0.9593,-0.2525,0.0313,0.161,-0.153,-0.5688,0.14,-4.3488,-14.744175601339808,10.08665865359293,16.438300900040517,3.974000000001979
0.1784,0.9587,-0.2506,0.0313,0.161,-0.153,-0.3063,-0.0175,-4.41,-14.687207073429818,10.192370757666536,16.43802090004046,3.9900000000052387
0.1778,0.9584,-0.2488,0.0313,0.161,-0.153,0.0525,0.2187,-4.4887,-14.599845911564824,10.181300983930782,16.43802090004046,3.9900000000052387
0.1794,0.9568,-0.2526,0.0325,0.1612,-0.151,0.0525,0.2187,-4.4887,-14.722675129104909,10.264632343385834,16.441301400038743,4.004999999997381
0.1794,0.9568,-0.2526,0.0325,0.1612,-0.151,-0.1138,0.3938,-4.7425,-14.764283906195953,10.274187619309679,16.441301400038743,4.004999999997381
0.1774,0.9578,-0.2494,0.0317,0.1618,-0.1483,-0.14,-0.2187,-4.5937,-14.658654629298857,10.174855904402648,16.43780220003803,4.02100000000064
0.1806,0.9549,-0.2519,0.0317,0.1618,-0.1483,0.4288,-0.0525,-5.0225,-14.740921971319853,10.340257069287482,16.43780220003803,4.02100000000064
0.1789,0.9561,-0.253,0.0317,0.1618,-0.1483,0.4288,-0.0525,-5.0225,-14.796691450857736,10.263938542708484,16.43701470003806,4.036000000000058
0.1857,0.954,-0.2531,0.0305,0.1611,-0.1367,0.315,-0.5163,-5.0838,-14.838663669386074,10.606992321664803,16.43701470003806,4.036000000000058
0.1835,0.9557,-0.2539,0.0305,0.1611,-0.1367,0.6562,-0.42,-5.18,-14.866653313971025,10.524514917719632,16.43029470003669,4.052000000003318
0.1835,0.9557,-0.2539,0.0315,0.1609,-0.1483,0.49,-0.0962,-4.7425,-14.874583110915781,10.514122983739785,16.43029470003669,4.052000000003318
0.1841,0.9591,-0.2493,0.0315,0.1609,-0.1483,0.49,-0.0962,-4.7425,-14.66291629224384,10.523075721815188,16.428755500037077,4.0679999999993015
0.1831,0.959,-0.2556,0.0315,0.1609,-0.1483,0.7875,0.7088,-4.34,-14.851228362618322,10.460785979569424,16.439387500036666,4.082999999998719
0.1828,0.9593,-0.25,0.0315,0.1615,-0.1482,0.4638,0.7088,-4.0862,-14.681649383502343,10.449223297657689,16.439387500036666,4.082999999998719
0.1817,0.9575,-0.2557,0.0315,0.1615,-0.1482,0.2975,0.9363,-4.305,-14.864677958705974,10.395995541875244,16.454368300039718,4.099000000001979
0.1817,0.9575,-0.2557,0.0317,0.161,-0.1425,0.2975,0.9363,-4.305,-14.923749294185436,10.389995028740133,16.454368300039718,4.099000000001979
0.1782,0.9574,-0.2555,0.0317,0.161,-0.1425,0.7,0.9013,-3.9113,-14.936943037925058,10.215903881625062,16.467887800032635,4.113999999994121
0.1788,0.9572,-0.2566,0.0317,0.161,-0.163,0.5337,0.56,-3.4213,-14.985744344177993,10.226330222747166,16.467887800032635,4.113999999994121
0.1813,0.9554,-0.2516,0.0308,0.1601,-0.145,0.5337,0.56,-3.7625,-14.823215376568822,10.380192363520537,16.47684780003446,4.129999999997381
0.1821,0.9588,-0.2552,0.0308,0.1601,-0.145,-0.0437,-0.4638,-3.7625,-14.875105157657162,10.39792499251058,16.47684780003446,4.129999999997381
0.1821,0.9602,-0.2536,0.0309,0.1594,-0.1541,0.4725,-0.2362,-3.6312,-14.819233338202055,10.391162347211036,16.473068600033688,4.14600000000064
0.1837,0.9602,-0.2536,0.0309,0.1594,-0.1541,0.7962,-0.0525,-3.6225,-14.801489468099126,10.470387768454515,16.473068600033688,4.14600000000064
0.1881,0.959,-0.2527,0.0294,0.1612,-0.1487,0.7962,-0.0525,-3.6225,-14.773041940532702,10.711405478010459,16.47228110003372,4.161000000000058
0.192,0.9597,-0.2533,0.0294,0.1612,-0.1487,0.3325,-0.2537,-3.8238,-14.781377218771446,10.922682220053177,16.47228110003372,4.161000000000058
0.1914,0.9577,-0.2541,0.0294,0.1612,-0.1487,-0.1488,-0.07,-3.4913,-14.83006021693958,10.932091558440534,16.47116110003349,4.177000000003318
0.1837,0.9536,-0.2536,0.0284,0.1598,-0.1459,-0.56,0.3413,-3.955,-14.864646567194145,10.587775861909506,16.47116110003349,4.177000000003318
0.1837,0.9536,-0.2536,0.0284,0.1598,-0.1459,-0.56,0.3413,-3.955,-14.880080473631576,10.550433589050792,16.476280600030808,4.19199999999546
0.184,0.9526,-0.2553,0.0291,0.1606,-0.1488,-0.525,0.1138,-4.0338,-14.948933055486986,10.56630149210474,16.476280600030808,4.19199999999546
0.1786,0.9532,-0.2542,0.0291,0.1606,-0.1488,-0.0962,0.2013,-3.78,-14.9383647873385,10.294187495488124,16.479501400031463,4.207999999998719
0.1815,0.9514,-0.2567,0.0291,0.1606,-0.1488,0.35,-0.245,-4.9262,-15.048418037564778,10.418863528337443,16.479501400031463,4.207999999998719
0.1817,0.952,-0.2603,0.0308,0.1622,-0.1533,0.35,-0.245,-4.9262,-15.214891691155795,10.43000730342302,16.475581400030663,4.224000000001979
0.1817,0.9582,-0.2537,0.0308,0.1622,-0.1533,0.9013,-0.4988,-4.9612,-14.933791948822359,10.392732850923142,16.475581400030663,4.224000000001979
0.1821,0.9582,-0.2537,0.0304,0.1596,-0.1507,1.1025,-0.6125,-5.1275,-14.856416579769974,10.407796897269307,16.46639390003102,4.239000000001397
0.1878,0.9568,-0.2577,0.0304,0.1596,-0.1507,1.05,-0.8225,-5.1625,-15.017551495628808,10.691294085494434,16.46639390003102,4.239000000001397
0.1877,0.9581,-0.2564,0.0304,0.1596,-0.1507,1.05,-0.8225,-5.1625,-14.991250844074798,10.713296537053841,16.453233900028337,4.255000000004657
0.1868,0.958,-0.2584,0.0301,0.1619,-0.151,0.8138,-0.5425,-4.5062,-15.066356627401687,10.667735992415206,16.453233900028337,4.255000000004657
0.1892,0.9575,-0.257,0.0301,0.1619,-0.151,1.0588,-0.28,-4.2088,-15.035334906846812,10.789318832724605,16.44903390003054,4.269999999996799
0.1892,0.9575,-0.257,0.0285,0.1598,-0.1512,1.0588,-0.1663,-4.7863,-15.027297635731202,10.802760993315657,16.44903390003054,4.269999999996799
0.1818,0.9531,-0.2582,0.0285,0.1598,-0.1512,1.1725,-0.1663,-4.7863,-15.12504491857538,10.476096404703833,16.446373100029998,4.286000000000058
0.1837,0.9537,-0.2614,0.0285,0.1598,-0.1512,0.6913,-0.2713,-4.7162,-15.26973194866097,10.518059729483614,16.446373100029998,4.286000000000058
0.1846,0.9567,-0.2579,0.0305,0.1602,-0.1504,0.4375,-0.8662,-4.5937,-15.143247986816391,10.549336561574455,16.432513900033477,4.301999999996042
0.1845,0.9609,-0.2574,0.0305,0.1602,-0.1504,0.4375,-0.8662,-4.5937,-15.041450422355409,10.512083552483556,16.432513900033477,4.301999999996042
0.1845,0.955,-0.2574,0.0285,0.1604,-0.1507,0.1925,-1.1988,-4.8738,-15.070057762779214,10.559804838394284,16.41453190002545,4.317000000002736
0.1914,0.955,-0.2574,0.0285,0.1604,-0.1507,0.1225,-0.735,-5.4513,-15.079499670649657,10.901325083324904,16.41453190002545,4.317000000002736
0.1915,0.9582,-0.2603,0.0294,0.161,-0.1523,-0.3325,-1.4262,-5.5388,-15.149951899236248,10.914314817107334,16.391712700020804,4.333000000005995
0.1866,0.9578,-0.2575,0.0294,0.161,-0.1523,-0.3325,-1.4262,-5.5388,-15.089237741660256,10.68906346067365,16.391712700020804,4.333000000005995
0.1856,0.9576,-0.259,0.0294,0.161,-0.1523,-0.4988,-1.3475,-5.74,-15.114870613887627,10.609604397395612,16.37150020003139,4.347999999998137
0.1851,0.9536,-0.2597,0.0286,0.1622,-0.1574,-0.2362,-1.3913,-5.8362,-15.18771704436098,10.608032478759844,16.37150020003139,4.347999999998137
0.1851,0.9536,-0.2597,0.0286,0.1622,-0.1574,-0.56,-1.4612,-5.7663,-15.213497316399579,10.607817982736181,16.34812100002663,4.364000000001397
0.1862,0.9521,-0.2608,0.0293,0.1603,-0.1585,-0.56,-1.4612,-5.7663,-15.271781506366292,10.671641674547683,16.34812100002663,4.364000000001397
0.1854,0.9544,-0.2588,0.0293,0.1603,-0.1585,-0.455,-1.4175,-6.0025,-15.21440643955682,10.626302841512077,16.325441000032324,4.379999999997381
0.1876,0.9557,-0.2561,0.0293,0.1603,-0.1585,-0.56,-1.9512,-6.2825,-15.096326437472287,10.720249309879323,16.296173000019262,4.3950000000040745
0.19,0.9554,-0.2582,0.0301,0.1615,-0.1513,-0.3675,-1.155,-6.3175,-15.112098212587838,10.846066102561643,16.296173000019262,4.3950000000040745
0.19,0.9586,-0.2594,0.0301,0.1615,-0.1513,-0.3675,-1.155,-6.3175,-15.129576661438238,10.8333621447115,16.277693000023902,4.411000000000058
0.1885,0.9586,-0.2594,0.0301,0.1606,-0.1506,-0.6125,-0.8925,-6.3,-15.136198322348712,10.760144909680847,16.26430550002442,4.425999999999476
0.1906,0.9544,-0.2575,0.0301,0.1606,-0.1506,-0.875,-0.9275,-5.5825,-15.11834098352413,10.893213018807876,16.26430550002442,4.425999999999476
0.1915,0.9529,-0.2568,0.0301,0.1606,-0.1506,-0.7613,-0.035,-5.075,-15.100073918980177,10.97047517481704,16.26430550002442,4.425999999999476
0.1937,0.9542,-0.2569,0.0298,0.162,-0.1547,-0.7613,-0.035,-5.075,-15.083974160889506,11.075554967065788,16.263745500024307,4.442000000002736
0.1917,0.9546,-0.2564,0.0298,0.162,-0.1547,-0.5775,-0.0437,-4.375,-15.056736802601296,10.987188707739586,16.263745500024307,4.442000000002736
0.1917,0.9546,-0.2564,0.0292,0.1614,-0.1509,-0.35,0.2887,-4.62,-15.043557248653885,10.977184558089538,16.268653400024256,4.459000000002561
0.1922,0.9517,-0.2578,0.0292,0.1614,-0.1509,-0.35,0.2887,-4.1388,-15.110569799751696,11.024424824597626,16.268942100025367,4.460000000006403
0.1912,0.9495,-0.2586,0.0292,0.1614,-0.1509,-0.7088,0.945,-4.1388,-15.175630996342656,10.998370060839601,16.268942100025367,4.460000000006403
0.1863,0.9505,-0.2597,0.0275,0.1615,-0.1445,0.0613,0.9975,-4.865,-15.244601782309392,10.74173668212003,16.28390460001753,4.474999999998545
0.1865,0.9537,-0.2588,0.0275,0.1615,-0.1445,0.6212,1.0588,-5.0138,-15.200576300021782,10.694276935391013,16.28390460001753,4.474999999998545
0.1865,0.9537,-0.2631,0.0289,0.1605,-0.1582,0.6212,1.0588,-5.0138,-15.357819533755304,10.677951847870679,16.30084540002098,4.491000000001804
0.1837,0.9556,-0.2631,0.0289,0.1605,-0.1582,0.9625,1.5925,-4.6025,-15.384041167467368,10.520749070849213,16.30084540002098,4.491000000001804
0.1859,0.9556,-0.2616,0.0279,0.161,-0.1551,1.3388,1.1113,-4.3837,-15.3278071511537,10.614963103381841,16.31751490002033,4.506000000001222
0.183,0.9572,-0.2621,0.0279,0.161,-0.1551,1.1025,0.7437,-4.2613,-15.317052715416853,10.466454274998972,16.329414100022756,4.522000000004482
0.1826,0.9581,-0.2603,0.0279,0.161,-0.1551,1.1025,0.7437,-4.2613,-15.22957252504774,10.426366467036459,16.329414100022756,4.522000000004482
0.1846,0.959,-0.261,0.0266,0.1596,-0.1536,0.8138,-0.07,-4.69,-15.226107333499302,10.510732062082258,16.328294100023037,4.538000000000466
0.1846,0.959,-0.261,0.0266,0.1596,-0.1536,0.3413,-0.14,-4.6988,-15.225203833371708,10.52067296795262,16.328294100023037,4.538000000000466
0.1871,0.9573,-0.263,0.0289,0.1629,-0.152,0.0613,-0.1225,-5.0225,-15.314155796472786,10.654250565852363,16.326456600023107,4.552999999999884
0.1873,0.9567,-0.2597,0.0289,0.1629,-0.152,0.0613,-0.1225,-5.0225,-15.231550236239011,10.693791088541106,16.326456600023107,4.552999999999884
0.1847,0.9556,-0.259,0.0289,0.1629,-0.152,-0.9887,-0.2975,-5.1625,-15.20162153643191,10.582935060832838,16.321399100023157,4.569999999999709
0.1843,0.953,-0.2546,0.0273,0.161,-0.1508,-1.0938,-0.5425,-5.0662,-15.100545622131648,10.582936939264787,16.317059100022274,4.578000000001339
0.1843,0.953,-0.2606,0.0273,0.161,-0.1508,-1.1287,-1.1725,-5.5388,-15.178223021814118,10.568691246370438,16.307679100028892,4.585999999995693
0.182,0.952,-0.2606,0.0265,0.1606,-0.1516,-1.1287,-1.1725,-5.5388,-15.230829499490063,10.463429639189817,16.29829910002698,4.5939999999973224
0.1849,0.9529,-0.2615,0.0265,0.1606,-0.1516,-0.875,-0.7175,-5.3725,-15.286027709735544,10.581350928769282,16.292559100025812,4.601999999998952
0.1844,0.9534,-0.2562,0.0265,0.1606,-0.1516,-0.9712,-0.9187,-5.3025,-15.175063868611515,10.580309567060532,16.285209500024315,4.610000000000582
0.1861,0.9572,-0.257,0.0262,0.1602,-0.1466,-0.8487,-1.295,-5.4687,-15.103810586300648,10.627603215852801,16.282619500023788,4.6120000000009895
0.1871,0.9587,-0.2583,0.0262,0.1602,-0.1466,-0.8487,-1.295,-5.4687,-15.09170376354944,10.665974917345084,16.282619500023788,4.6120000000009895
0.1871,0.9587,-0.2583,0.0275,0.1608,-0.15,-0.7875,-1.155,-4.97,-15.085304281639756,10.67099895426715,16.26529450002446,4.6270000000004075
0.1924,0.9581,-0.2577,0.0275,0.1608,-0.15,-1.33,-1.6013,-4.8825,-15.075457151779654,10.938072517145242,16.26529450002446,4.6270000000004075
0.1901,0.9583,-0.2553,0.0275,0.1608,-0.15,-1.33,-1.6013,-4.4363,-15.02493289985546,10.861133774867001,16.23967370003089,4.642999999996391
0.1954,0.9558,-0.2577,0.0279,0.1619,-0.1618,-1.7237,-1.3125,-4.4363,-15.029535120059057,11.131057274570317,16.23967370003089,4.642999999996391
0.1931,0.9578,-0.2568,0.0279,0.1619,-0.1618,-1.26,-1.3563,-4.9437,-15.022267723736537,11.032889613415449,16.21797290002647,4.658999999999651
0.1931,0.9578,-0.2575,0.0295,0.1622,-0.146,-1.19,-1.0938,-5.3025,-15.031985335950347,11.019322005763735,16.21797290002647,4.658999999999651
0.1928,0.9561,-0.2575,0.0295,0.1622,-0.146,-1.19,-1.0938,-5.3025,-15.047703242725857,11.018553216933324,16.201565900027106,4.673999999999069
0.1914,0.9542,-0.2558,0.0271,0.1613,-0.1468,-1.5137,-1.1725,-5.3637,-15.038594839485999,10.971825039384338,16.182805900023283,4.690000000002328
0.1896,0.9517,-0.2529,0.0271,0.1613,-0.1468,-1.9075,-0.8925,-5.1188,-15.023472601259943,10.907493485700034,16.182805900023283,4.690000000002328
0.1854,0.9539,-0.255,0.0271,0.1613,-0.1468,-1.5925,-1.1812,-5.5825,-15.013655000967528,10.67037924342495,16.16508790002397,4.705000000001746
0.1881,0.9532,-0.2532,0.0274,0.1606,-0.1517,-1.5925,-1.1812,-5.5825,-14.989917662747454,10.781062225928968,16.16508790002397,4.705000000001746
0.1881,0.9532,-0.2532,0.0274,0.1606,-0.1517,-1.89,-1.575,-5.88,-14.980603844381537,10.795548977942543,16.139887900030295,4.72099999999773
0.1851,0.9557,-0.2532,0.0271,0.1611,-0.1473,-1.9425,-1.7325,-5.845,-14.963023294666947,10.630303642784854,16.139887900030295,4.72099999999773
0.189,0.9555,-0.25,0.0271,0.1611,-0.1473,-1.2862,-1.4175,-6.5012,-14.860853785213003,10.802791752911874,16.117207900025676,4.7370000000009895
0.1871,0.9532,-0.2507,0.0271,0.1611,-0.1473,-1.2862,-1.4175,-6.5012,-14.818281497080658,10.75670656633454,16.117207900025676,4.7370000000009895
0.1858,0.9547,-0.25,0.0269,0.1622,-0.1505,-1.33,-0.9275,-6.475,-14.772126805458255,10.676276897045135,16.103295400026216,4.7520000000004075
0.1858,0.9547,-0.2521,0.0269,0.1622,-0.1505,-1.015,-1.2075,-6.72,-14.78087190384176,10.659591496011377,16.103295400026216,4.7520000000004075
0.1873,0.955,-0.2521,0.0276,0.1614,-0.1508,-1.2337,-1.4,-6.8688,-14.78329105282396,10.725139098915804,16.080895400021653,4.768000000003667
0.1884,0.9543,-0.253,0.0276,0.1614,-0.1508,-1.2337,-1.4,-6.8688,-14.80686549893103,10.791363016334055,16.080895400021653,4.768000000003667
0.1879,0.9553,-0.2535,0.0276,0.1614,-0.1508,-1.2425,-1.2163,-6.2825,-14.826474049307848,10.768127790780843,16.062650900031212,4.782999999995809
0.1892,0.9568,-0.2541,0.0285,0.1617,-0.1466,-1.2163,-0.8838,-6.23,-14.843596921594017,10.81232546986407,16.062650900031212,4.782999999995809
0.1868,0.9583,-0.2566,0.0285,0.1617,-0.1466,-1.26,-0.455,-6.02,-14.895060029306867,10.684435181074898,16.05537090002973,4.798999999999069
0.1868,0.9583,-0.2566,0.0283,0.1614,-0.1482,-1.26,-0.455,-6.02,-14.928457398117093,10.66656226078842,16.05537090002973,4.798999999999069
0.187,0.9576,-0.2561,0.0283,0.1614,-0.1482,-0.875,-0.3762,-5.8625,-14.949750035900841,10.681000955959986,16.049351700028502,4.815000000002328
0.186,0.9587,-0.2527,0.0283,0.1614,-0.1482,-1.19,-0.5688,-6.3525,-14.880256287058373,10.633605174492644,16.049351700028502,4.815000000002328
0.1857,0.9579,-0.2537,0.0285,0.1608,-0.1625,-1.19,-0.5688,-6.3525,-14.86279235111546,10.616990299546776,16.040819700028834,4.830000000001746
0.1852,0.9586,-0.2562,0.0285,0.1608,-0.1625,-1.05,-0.3063,-6.2475,-14.905942961859104,10.578876982891064,16.040819700028834,4.830000000001746
0.1852,0.9586,-0.2533,0.0289,0.1614,-0.1494,-1.82,0.0962,-5.95,-14.903988919485517,10.580025980469108,16.042358900028447,4.84599999999773
0.1904,0.9573,-0.2533,0.0289,0.1614,-0.1494,-1.3737,0.6125,-5.775,-14.87906352775856,10.842719450093071,16.042358900028447,4.84599999999773
0.189,0.957,-0.2538,0.029,0.1602,-0.1433,-1.3737,0.6125,-5.775,-14.871302031242156,10.81213025573824,16.05154640002809,4.860999999997148
0.1859,0.9551,-0.2537,0.029,0.1602,-0.1433,-1.6275,0.3237,-5.67,-14.87196233007322,10.67484520550393,16.05154640002809,4.860999999997148
0.1836,0.952,-0.2536,0.029,0.1602,-0.1433,-1.5575,0.5863,-5.3987,-14.880668455592408,10.571673427995352,16.06092720003,4.8770000000004075
0.1839,0.9557,-0.2513,0.0282,0.1607,-0.1471,-1.4612,0.7788,-5.04,-14.843057094957516,10.545693682750834,16.06092720003,4.8770000000004075
0.1839,0.9557,-0.2513,0.0282,0.1607,-0.1471,-1.4612,0.7788,-5.04,-14.814983321575136,10.542500315819478,16.07338800003254,4.893000000003667
0.1848,0.9556,-0.2531,0.0287,0.1617,-0.1445,-0.7875,0.4638,-5.53,-14.824917312139906,10.58264237354151,16.07338800003254,4.893000000003667
0.1843,0.9531,-0.2513,0.0287,0.1617,-0.1445,-1.2687,0.3325,-5.2937,-14.80611319204186,10.58977071910651,16.078375500029928,4.907999999995809
0.1872,0.9584,-0.253,0.0287,0.1617,-0.1445,-1.3212,0.6913,-5.5563,-14.800141641746562,10.680921489798102,16.078375500029928,4.907999999995809
0.1874,0.9602,-0.2525,0.0287,0.1606,-0.1522,-1.3212,0.6913,-5.5563,-14.778465682276375,10.687818040314387,16.08943630003218,4.923999999999069
0.1874,0.9602,-0.2494,0.0287,0.1606,-0.1522,-1.4612,0.4988,-5.635,-14.723099656634407,10.695878381655024,16.08943630003218,4.923999999999069
0.1898,0.9621,-0.2494,0.0274,0.1603,-0.1498,-1.68,0.42,-5.775,-14.702546866986072,10.795718880397775,16.095736300031934,4.938999999998487
0.1928,0.9611,-0.2519,0.0274,0.1603,-0.1498,-2.2138,0.1312,-5.9062,-14.697892866679354,10.956129371259504,16.09783550003236,4.955000000001746
0.1904,0.9582,-0.2522,0.0274,0.1603,-0.1498,-2.2138,0.1312,-5.9062,-14.711926574097363,10.888265505040644,16.09783550003236,4.955000000001746
0.1906,0.9579,-0.2509,0.0284,0.1612,-0.1508,-1.155,0.3762,-5.9325,-14.698452478920348,10.89428699338318,16.103854700033587,4.971000000005006
0.1897,0.9579,-0.2501,0.0284,0.1612,-0.1508,-1.0412,0.4288,-5.635,-14.670110091372262,10.85343783219703,16.103854700033587,4.971000000005006
0.1897,0.9579,-0.2501,0.0282,0.1601,-0.1487,-1.0412,0.385,-6.0287,-14.654004018719146,10.848066181978048,16.10962970003056,4.985999999997148
0.1879,0.9567,-0.2514,0.0282,0.1601,-0.1487,-0.9013,0.385,-6.0287,-14.68678369128444,10.768449723060346,16.10962970003056,4.985999999997148
0.1879,0.956,-0.2489,0.0282,0.1601,-0.1487,-0.9013,0.385,-6.09,-14.642512125982082,10.769287404154422,16.115789700031815,5.0020000000004075
0.1866,0.9545,-0.2453,0.027,0.1608,-0.1486,-1.155,0.2975,-6.0375,-14.552335767465744,10.72827797342597,16.115789700031815,5.0020000000004075
0.1832,0.9533,-0.2463,0.027,0.1608,-0.1486,-1.155,0.2975,-6.0375,-14.526487587048958,10.566540721801886,16.120252200031643,5.016999999999825
0.1832,0.9533,-0.2463,0.0276,0.1601,-0.1463,-1.6625,0.5863,-6.1337,-14.521621558439435,10.543932636926447,16.120252200031643,5.016999999999825
0.1783,0.9542,-0.2462,0.0276,0.1601,-0.1463,-1.155,0.5337,-5.915,-14.500480747899962,10.29541469469248,16.128791400033382,5.033000000003085
0.1759,0.9567,-0.2485,0.0276,0.1623,-0.1486,-0.98,0.7437,-6.0637,-14.527602370596151,10.119307806090072,16.128791400033382,5.033000000003085
0.1754,0.9555,-0.2456,0.0294,0.1623,-0.1486,-0.98,0.7437,-6.0637,-14.476904670504984,10.086604533996427,16.140690600035807,5.049000000006345
0.1768,0.9594,-0.2499,0.0294,0.1623,-0.1486,-0.7613,0.0962,-6.1337,-14.539506291988985,10.107832954366865,16.140690600035807,5.049000000006345
0.1787,0.9615,-0.2491,0.0278,0.1608,-0.1453,-0.6037,-0.1225,-5.9237,-14.531344929349801,10.186676324754336,16.13885310003677,5.063999999998487
0.1787,0.9615,-0.2491,0.0278,0.1608,-0.1453,-0.7088,-0.3237,-5.8275,-14.5277864025844,10.197571289522156,16.13885310003677,5.063999999998487
0.1807,0.9633,-0.2478,0.0278,0.161,-0.1506,-0.7088,-0.3237,-5.8275,-14.474669292810345,10.283138606386371,16.133673900035713,5.080000000001746
0.1845,0.9639,-0.2432,0.0278,0.161,-0.1506,-1.1638,-0.1488,-6.0375,-14.352461838859817,10.481745199609534,16.133673900035713,5.080000000001746
0.1834,0.963,-0.2469,0.0278,0.161,-0.1506,-1.4262,-0.5425,-5.7312,-14.359997325321823,10.4563354510526,16.12553640003603,5.095000000001164
0.1829,0.9626,-0.2458,0.0289,0.1599,-0.1549,-1.9075,-0.2713,-5.8362,-14.356567657851583,10.434708638093658,16.12553640003603,5.095000000001164
0.1829,0.9626,-0.2458,0.0289,0.1599,-0.1549,-1.9075,-0.2713,-5.8362,-14.35346828160935,10.431761938439582,16.121195600035144,5.111000000004424
0.1846,0.9612,-0.24,0.028,0.1603,-0.1482,-2.59,0.385,-6.02,-14.206132756087424,10.53772817258129,16.121195600035144,5.111000000004424
0.1818,0.9594,-0.2399,0.028,0.1603,-0.1482,-2.2138,0.6737,-5.565,-14.157309063098014,10.432493435124204,16.131974800032438,5.1270000000004075
0.1817,0.9587,-0.242,0.028,0.1603,-0.1482,-1.75,0.7875,-5.5563,-14.15777613366859,10.415290726821828,16.131974800032438,5.1270000000004075
0.1784,0.9603,-0.2397,0.0286,0.1607,-0.1442,-1.75,0.7875,-5.5563,-14.15086544465375,10.243522316883837,16.14378730003198,5.141999999999825
0.1821,0.9587,-0.2403,0.0286,0.1607,-0.1442,-1.925,0.7437,-5.46,-14.14209385015716,10.414007145205137,16.14378730003198,5.141999999999825
0.1821,0.9587,-0.2403,0.0286,0.161,-0.1498,-1.505,0.665,-5.1625,-14.125949033655626,10.436225614891379,16.15442730003415,5.158000000003085
0.1831,0.9601,-0.2399,0.0286,0.161,-0.1498,-1.505,0.665,-5.285,-14.10386101655216,10.476525459648144,16.15442730003415,5.158000000003085
0.1807,0.9598,-0.2358,0.0286,0.161,-0.1498,-1.8025,0.5775,-5.285,-14.10339006016558,10.375681312224327,16.163089800029613,5.172999999995227
0.1862,0.9568,-0.2356,0.0278,0.1605,-0.143,-1.5137,0.3762,-5.0662,-14.043092704001038,10.660525007566697,16.163089800029613,5.172999999995227
0.1862,0.9578,-0.2361,0.0278,0.1605,-0.143,-1.225,0.9363,-5.04,-13.971604742063237,10.685529785101423,16.178070600032665,5.188999999998487
0.1862,0.9578,-0.2361,0.0263,0.158,-0.1446,-1.225,0.9363,-5.04,-13.926242431649149,10.688603311379444,16.178070600032665,5.188999999998487
0.1825,0.9596,-0.2398,0.0263,0.158,-0.1446,-1.2075,0.6388,-4.9,-13.965116561958977,10.482387676764416,16.188291400034746,5.205000000001746
0.1827,0.9584,-0.2405,0.0263,0.158,-0.1462,-1.1812,0.6125,-5.1275,-14.01170184384208,10.476392842275533,16.188291400034746,5.205000000001746
0.1837,0.9592,-0.239,0.0264,0.1604,-0.1462,-0.6825,-0.035,-4.725,-14.000909143974901,10.521281704249617,16.187766400034768,5.220000000001164
0.185,0.9612,-0.2386,0.0264,0.1604,-0.1462,-0.6825,-0.035,-4.725,-13.96919023488865,10.573782447923882,16.187766400034768,5.220000000001164
0.1834,0.9612,-0.2406,0.0277,0.1599,-0.141,0.035,-0.0613,-4.7162,-14.0234943881474,10.496686682686176,16.18678560003457,5.236000000004424
0.1834,0.9612,-0.2406,0.0277,0.1599,-0.141,-0.315,-0.4112,-4.8738,-14.041174541449813,10.48759618493371,16.18678560003457,5.236000000004424
0.1846,0.9643,-0.2419,0.0272,0.159,-0.1512,-0.0787,-0.6212,-4.7688,-14.067236843548384,10.515213018728064,16.17746760003945,5.250999999996566
0.1848,0.9632,-0.2389,0.0272,0.159,-0.1512,-0.0787,-0.6212,-4.7688,-13.980300304296145,10.544704216596827,16.17746760003945,5.250999999996566
0.1857,0.9606,-0.2387,0.0272,0.159,-0.1512,-0.3762,-0.665,-4.8562,-13.965325909936109,10.61605946679367,16.16682760003728,5.266999999999825
0.1842,0.9593,-0.2408,0.0278,0.1601,-0.1391,0.1312,-0.6212,-4.8038,-14.048164282852813,10.557669770489387,16.16682760003728,5.266999999999825
0.1842,0.9593,-0.2408,0.0278,0.1601,-0.1391,-0.7088,-0.7788,-4.6725,-14.070545349581652,10.550680536835982,16.154366800040407,5.282999999995809
0.1815,0.9573,-0.241,0.025,0.1571,-0.1502,-0.7088,-0.7788,-4.6725,-14.101873391925501,10.433595831038264,16.154366800040407,5.282999999995809
0.186,0.958,-0.2363,0.025,0.1571,-0.1502,-0.2187,-0.5337,-4.1038,-13.951202434025266,10.648618628092361,16.146361300036833,5.298000000002503
0.1881,0.9584,-0.2355,0.025,0.1571,-0.1502,0.035,-0.1663,-4.3837,-13.856761512959318,10.774684160182545,16.146361300036833,5.298000000002503
0.1838,0.9566,-0.2385,0.0265,0.1608,-0.1497,-2.205,-0.49,-4.4975,-13.897866838913313,10.585198514363949,16.138521300035237,5.314000000005763
0.1867,0.955,-0.2381,0.0265,0.1608,-0.1497,-0.1838,-0.49,-4.4975,-13.960687487634605,10.722922331670715,16.138521300035237,5.314000000005763
0.1867,0.955,-0.2381,0.0252,0.1614,-0.1491,-0.175,-0.35,-4.1737,-13.984740843788396,10.73886707594292,16.133271300037986,5.3289999999979045
0.1858,0.9549,-0.238,0.0252,0.1614,-0.1491,0.2537,-0.6737,-4.1912,-13.991839002529819,10.696830122286968,16.12249210003579,5.345000000001164
0.1847,0.9537,-0.2377,0.0252,0.1614,-0.1491,0.2537,-0.6737,-4.1912,-13.99412807430806,10.648801318814348,16.12249210003579,5.345000000001164
0.1868,0.955,-0.2408,0.0258,0.16,-0.1454,0.0962,-0.5512,-4.1825,-14.097468932212793,10.72939724433215,16.113672900038004,5.360999999997148
0.1883,0.9568,-0.2377,0.0258,0.16,-0.1454,-0.1138,-1.12,-4.3663,-14.005929451057085,10.80354457865874,16.113672900038004,5.360999999997148
0.1883,0.9568,-0.2377,0.0253,0.161,-0.1571,0.0875,-1.015,-4.2088,-13.9704564110077,10.811980511937277,16.09844790003121,5.376000000003842
0.1888,0.9592,-0.2418,0.0253,0.161,-0.1571,0.0875,-1.015,-4.2088,-14.086942538466715,10.806228892376293,16.09844790003121,5.376000000003842
0.1913,0.9597,-0.2378,0.0253,0.161,-0.1571,0.1312,-1.1375,-4.5062,-13.97481230627027,10.933762716739064,16.0802479000275,5.392000000007101
0.1933,0.957,-0.2427,0.0244,0.1595,-0.1484,-0.1312,-1.575,-4.76,-14.13471474479615,11.06056468603884,16.0802479000275,5.392000000007101
0.1942,0.9564,-0.2412,0.0244,0.1595,-0.1484,-0.21,-1.2687,-5.04,-14.146917739962978,11.128833692198079,16.06121740003747,5.406999999999243
0.1942,0.9553,-0.2424,0.0247,0.1588,-0.1499,-0.21,-1.2687,-5.04,-14.202765442593451,11.14468699492209,16.06121740003747,5.406999999999243
0.1939,0.9553,-0.2424,0.0247,0.1588,-0.1499,-0.0525,-1.1812,-5.0225,-14.225096910051576,11.131906049153487,16.04231820003362,5.423000000002503
0.1913,0.9567,-0.24,0.0262,0.1601,-0.1531,-0.07,-1.0762,-4.8738,-14.134865069368244,10.994919939673457,16.04231820003362,5.423000000002503
0.1932,0.9563,-0.2386,0.0262,0.1601,-0.1531,-0.0787,-1.7325,-5.2325,-14.0555239787982,11.078440390642584,16.014598200040577,5.438999999998487
0.1908,0.9537,-0.2419,0.0262,0.1601,-0.1531,-0.0787,-1.7325,-5.2325,-14.16752832360869,10.987762552582433,16.014598200040577,5.438999999998487
0.191,0.9562,-0.2401,0.025,0.1593,-0.1542,-0.3588,-1.7675,-5.2587,-14.12496065397318,10.967315653222515,15.988085700041607,5.4539999999979045
0.191,0.9562,-0.2401,0.025,0.1593,-0.1542,-0.0875,-1.645,-5.6262,-14.106321654970639,10.964751118371346,15.988085700041607,5.4539999999979045
0.1901,0.9581,-0.2421,0.0265,0.1591,-0.1441,-0.4025,-1.6975,-5.6,-14.149911600804023,10.898835519271637,15.960925700036073,5.470000000001164
0.1881,0.96,-0.2399,0.0265,0.1591,-0.1441,-0.4025,-1.6975,-5.6,-14.080360862896551,10.780975977782902,15.960925700036073,5.470000000001164
0.1879,0.9584,-0.2364,0.0265,0.1591,-0.1441,-0.35,-2.0475,-6.195,-13.947571162366055,10.777881732424797,15.930213200037265,5.485000000000582
0.1869,0.9559,-0.2454,0.0258,0.1598,-0.145,-0.0088,-1.8288,-6.0988,-14.236757327325009,10.731405316784281,15.930213200037265,5.485000000000582
0.1869,0.959,-0.2442,0.0258,0.1598,-0.145,-0.0088,-1.8288,-5.9325,-14.268489910329214,10.700120751156899,15.900952400031304,5.501000000003842
0.1825,0.959,-0.2442,0.0245,0.1622,-0.15,-0.455,-2.0213,-5.9325,-14.278648724702196,10.483614964615384,15.900952400031304,5.501000000003842
0.1828,0.9567,-0.2452,0.0245,0.1622,-0.15,-0.175,-2.3275,-5.9412,-14.338520001557363,10.485893379275476,15.863712400040653,5.516999999999825
0.1867,0.9608,-0.2425,0.0245,0.1622,-0.15,0.0175,-2.8875,-6.2737,-14.226733471315281,10.643281726796626,15.863712400040653,5.516999999999825
0.1863,0.9618,-0.2422,0.0257,0.1577,-0.154,0.0175,-2.8875,-6.2737,-14.167108306754907,10.638944790984876,15.820399900042334,5.531999999999243
0.1898,0.9604,-0.2461,0.0257,0.1577,-0.154,-0.2275,-3.57,-6.2213,-14.292772487079572,10.80904537199084,15.820399900042334,5.531999999999243
0.1898,0.9604,-0.2461,0.0257,0.1587,-0.148,0.0263,-3.115,-5.6962,-14.344389821935192,10.833793784072823,15.770559900054845,5.547999999995227
0.1888,0.96,-0.2435,0.0257,0.1587,-0.148,-0.3675,-2.52,-5.3288,-14.278584706592385,10.798027732915342,15.770559900054845,5.547999999995227
0.1866,0.961,-0.2425,0.0257,0.1587,-0.148,-0.3675,-2.52,-5.3288,-14.210162844105113,10.67962074764945,15.732759900037976,5.563000000001921
0.1906,0.9597,-0.2438,0.0263,0.1604,-0.1445,-0.4462,-2.4762,-5.0225,-14.23525197675108,10.869092350361592,15.732759900037976,5.563000000001921
0.1883,0.9558,-0.248,0.0263,0.1604,-0.1445,-0.4025,-2.31,-5.18,-14.416255431739094,10.805399786244575,15.695799900030446,5.5790000000051805
0.1883,0.9556,-0.2474,0.0276,0.163,-0.1516,0.0787,-1.505,-4.6375,-14.48064001180421,10.800606375590133,15.695799900030446,5.5790000000051805
0.1855,0.9556,-0.2474,0.0276,0.163,-0.1516,0.0787,-1.505,-4.6375,-14.502998617940868,10.661522580065206,15.671719900036491,5.595000000001164
0.1837,0.9543,-0.2478,0.0266,0.1597,-0.1512,0.1488,-1.4787,-4.5062,-14.538250651457181,10.566602836385584,15.671719900036491,5.595000000001164
0.1865,0.9578,-0.2438,0.0266,0.1597,-0.1512,0.7262,-1.645,-4.8825,-14.353856996707265,10.671652364963453,15.647044900037448,5.610000000000582
0.1895,0.9569,-0.249,0.0266,0.1597,-0.1512,0.385,-1.54,-4.9088,-14.5129765922263,10.82785343148303,15.647044900037448,5.610000000000582
0.1927,0.9527,-0.2467,0.0258,0.161,-0.1494,0.385,-1.54,-4.9088,-14.516256345318405,11.048486065779526,15.622404900043634,5.625999999996566
0.1927,0.9527,-0.2467,0.0258,0.161,-0.1494,0.3938,-1.2513,-4.6375,-14.517287090776149,11.075291984684183,15.622404900043634,5.625999999996566
0.1953,0.9554,-0.2484,0.0246,0.1582,-0.1523,0.4638,-1.0412,-4.4187,-14.556622729724952,11.17766318878931,15.606786900036663,5.64100000000326
0.1949,0.9586,-0.2476,0.0246,0.1582,-0.1523,-0.1925,-0.7962,-4.7162,-14.510969410115338,11.14150294793228,15.594047700034068,5.657000000006519
0.1957,0.9565,-0.2474,0.0246,0.1582,-0.1523,-0.1925,-0.7962,-4.7162,-14.505322951838911,11.196787297787317,15.594047700034068,5.657000000006519
0.1945,0.9581,-0.2478,0.0239,0.1599,-0.1453,-0.0962,-0.8138,-4.8562,-14.502621323121659,11.128457543514813,15.581026900037337,5.673000000002503
0.1945,0.9597,-0.2472,0.0239,0.1599,-0.1453,-0.6737,-0.91,-5.0662,-14.471711331776977,11.106851881528186,15.581026900037337,5.673000000002503
0.1909,0.9597,-0.2472,0.027,0.1601,-0.1492,-0.6737,-0.91,-5.5125,-14.457180722603141,10.929830595309223,15.567376900037866,5.688000000001921
0.1902,0.9592,-0.2412,0.027,0.1601,-0.1492,-1.0325,-1.0675,-5.5125,-14.308460395551863,10.891110379197542,15.567376900037866,5.688000000001921
0.187,0.9573,-0.2447,0.027,0.1601,-0.1492,-0.63,-1.3125,-5.5388,-14.324727017457253,10.739641442901648,15.546376900043137,5.7039999999979045
0.1856,0.9578,-0.2438,0.0267,0.1594,-0.1619,-0.3762,-1.575,-6.0375,-14.298969959953673,10.650233750903002,15.546376900043137,5.7039999999979045
0.1833,0.9555,-0.2423,0.0267,0.1594,-0.1619,-0.3762,-1.575,-6.0375,-14.258077795210657,10.550196562758961,15.522751900032594,5.719000000004598
0.1833,0.9555,-0.2423,0.0264,0.161,-0.1478,-0.8487,-1.925,-6.2387,-14.24407811238542,10.536248117891251,15.522751900032594,5.719000000004598
0.1832,0.9545,-0.2425,0.0264,0.161,-0.1478,-1.1025,-2.2838,-6.79,-14.248551139726036,10.537637998109062,15.486211100041766,5.735000000000582
0.1863,0.9564,-0.2411,0.0264,0.161,-0.1478,-1.505,-1.9863,-6.8425,-14.22580793941211,10.671179773058288,15.486211100041766,5.735000000000582
0.1851,0.9551,-0.2403,0.0262,0.1597,-0.1458,-1.505,-1.9863,-6.8425,-14.202174416131548,10.648504825333468,15.454430300049744,5.750999999996566
0.1855,0.954,-0.2459,0.0262,0.1597,-0.1458,-0.5863,-2.0912,-6.6762,-14.340160499609272,10.661094728104406,15.454430300049744,5.750999999996566
0.1855,0.9542,-0.2436,0.0253,0.1601,-0.1469,-0.4462,-2.1788,-6.9037,-14.329298512058058,10.666378475298792,15.417390700034272,5.768000000003667
0.1821,0.9542,-0.2436,0.0253,0.1601,-0.1469,-0.8487,-2.2575,-6.6325,-14.325387697986688,10.505289272704923,15.417390700034272,5.768000000003667
0.1811,0.9566,-0.245,0.0277,0.1584,-0.1488,-0.8487,-2.2575,-6.6325,-14.344973655798318,10.409637144801405,15.381270700043338,5.783999999999651
0.1831,0.9613,-0.2448,0.0277,0.1584,-0.1488,-0.5775,-2.03,-7.0262,-14.31307308969166,10.4501058827392,15.381270700043338,5.783999999999651
0.1828,0.9637,-0.2425,0.0277,0.1584,-0.1488,-0.175,-1.8725,-6.7375,-14.196213560914641,10.427293182929859,15.353183200044427,5.798999999999069
0.1836,0.9645,-0.2453,0.0289,0.1622,-0.1511,-0.5425,-2.065,-6.4138,-14.23701085887188,10.448913642189808,15.353183200044427,5.798999999999069
0.1836,0.9645,-0.2453,0.0289,0.1622,-0.1511,-0.5425,-2.065,-6.4138,-14.255075285825104,10.452111114799639,15.320143200037696,5.815000000002328
0.1814,0.9662,-0.2427,0.0285,0.1612,-0.1477,-0.8138,-1.7587,-6.1863,-14.178242954055712,10.33879097039725,15.320143200037696,5.815000000002328
0.1817,0.9634,-0.2417,0.0285,0.1612,-0.1477,-1.4,-1.5838,-5.9938,-14.151217634288694,10.362812866685102,15.291634800043413,5.832999999998719
0.1776,0.9651,-0.2407,0.0285,0.1612,-0.1477,-1.2687,-1.7325,-6.02,-14.100118851782852,10.15706902905735,15.291634800043413,5.832999999998719
0.1824,0.9636,-0.2421,0.0264,0.1604,-0.1362,-1.2687,-1.7325,-6.02,-14.101251196977762,10.368441957479876,15.26564730004442,5.847999999998137
0.1824,0.9616,-0.2452,0.0264,0.1604,-0.1362,-0.8575,-2.0738,-6.4662,-14.200210988326823,10.407942530906432,15.26564730004442,5.847999999998137
0.1788,0.9616,-0.2452,0.027,0.1594,-0.1493,-1.2163,-1.715,-5.7663,-14.238910219546247,10.239893649159706,15.23820730003883,5.864000000001397
0.1825,0.9625,-0.2417,0.027,0.1594,-0.1493,-1.2163,-1.715,-4.8475,-14.186353307503843,10.398640516232083,15.23820730003883,5.864000000001397
0.1826,0.962,-0.2404,0.027,0.1594,-0.1493,-0.7437,-1.2337,-4.8475,-14.106329509158805,10.4298635010108,15.219701800039548,5.879000000000815
0.1851,0.9594,-0.2403,0.0263,0.1604,-0.1553,-0.8487,-1.2075,-4.9963,-14.084479796348187,10.579538973215689,15.219701800039548,5.879000000000815
0.1839,0.9579,-0.2415,0.0263,0.1604,-0.1553,-0.4812,-1.085,-5.0225,-14.121860524506872,10.549520057391762,15.202341800036011,5.8950000000040745
0.1839,0.9579,-0.2415,0.0276,0.161,-0.1526,-0.4812,-1.085,-5.0225,-14.137974761860345,10.545838125509235,15.202341800036011,5.8950000000040745
0.1854,0.9573,-0.2417,0.0276,0.161,-0.1526,-0.7525,-0.7613,-4.7162,-14.154340767688991,10.62445171406691,15.190161000039069,5.911000000000058
0.1879,0.959,-0.2372,0.0276,0.161,-0.1526,-0.4462,-0.7,-4.9963,-14.003850215393566,10.751427921627569,15.190161000039069,5.911000000000058
0.1876,0.9601,-0.2395,0.0273,0.1594,-0.151,0.14,-0.7962,-4.6463,-14.005765491700371,10.73702008782358,15.178218000039532,5.925999999999476
0.1859,0.9609,-0.2376,0.0273,0.1594,-0.151,0.14,-0.7962,-4.6463,-13.928594509997652,10.648473205449628,15.178218000039532,5.925999999999476
0.1859,0.9609,-0.2394,0.0279,0.1609,-0.1472,-0.4112,-0.7437,-4.4275,-13.964266861032849,10.634026113050737,15.166318800037107,5.942000000002736
0.1843,0.9566,-0.2394,0.0279,0.1609,-0.1472,-0.6562,-0.9712,-4.725,-14.010205316925314,10.591956505941134,15.166318800037107,5.942000000002736
0.1849,0.9581,-0.244,0.0266,0.1588,-0.1505,-0.5775,-1.1638,-4.41,-14.162969694409366,10.5927944869493,15.148861800037785,5.957000000002154
0.1865,0.9595,-0.2389,0.0266,0.1588,-0.1505,-0.5775,-1.1638,-4.41,-14.063080475831372,10.671186432929774,15.148861800037785,5.957000000002154
0.1869,0.9586,-0.2394,0.0266,0.1588,-0.1505,-0.3675,-0.8662,-4.795,-14.038987144626748,10.70679757792509,15.135002600034962,5.973000000005413
0.1864,0.9601,-0.2388,0.026,0.1601,-0.1509,-0.315,-0.595,-4.1912,-13.996208188384696,10.67391968451609,15.135002600034962,5.973000000005413
0.1864,0.9601,-0.2388,0.026,0.1601,-0.1509,0.0525,-0.84,-4.27,-13.97750825032318,10.670264270844012,15.121562600044447,5.988999999994121
0.1853,0.96,-0.2408,0.0258,0.1595,-0.1556,0.0525,-0.84,-4.27,-14.044842850358664,10.611626243031345,15.121562600044447,5.988999999994121
0.1798,0.9589,-0.2395,0.0258,0.1595,-0.1556,-0.0525,-1.3038,-5.0575,-14.031322394883226,10.347494441305749,15.102005600035719,6.004000000000815
0.1854,0.9609,-0.2391,0.0258,0.1595,-0.1556,-0.0962,-1.2163,-5.215,-13.994620701927815,10.572628686734015,15.102005600035719,6.004000000000815
0.1877,0.9622,-0.2419,0.0267,0.1571,-0.151,-0.0962,-1.0412,-5.3113,-14.068525189350225,10.695140437972567,15.085346400032325,6.0200000000040745
0.1877,0.9622,-0.242,0.0267,0.1571,-0.151,-0.3675,-1.0412,-5.3113,-14.097361385294818,10.710494271108267,15.085346400032325,6.0200000000040745
0.1828,0.9587,-0.242,0.0262,0.1606,-0.1483,0.0962,-1.1287,-5.2325,-14.142927840021734,10.50406969026971,15.068415900032981,6.0350000000034925
0.186,0.9569,-0.2432,0.0262,0.1606,-0.1483,-0.245,-1.505,-5.6175,-14.214215385794914,10.647025641053744,15.068415900032981,6.0350000000034925
0.1859,0.9584,-0.2422,0.0262,0.1606,-0.1483,-0.245,-1.505,-5.6175,-14.194873054218126,10.650026146554037,15.044335900039027,6.050999999999476
0.1867,0.9568,-0.2394,0.0262,0.1604,-0.1504,0.175,-1.0588,-4.9875,-14.097031559086917,10.710516422845954,15.044335900039027,6.050999999999476
0.1902,0.9556,-0.2393,0.0262,0.1604,-0.1504,-0.3063,-0.7175,-4.8738,-14.074133692981114,10.901752044382501,15.032855900041909,6.06699999999546
0.1902,0.9556,-0.2393,0.0282,0.1607,-0.1454,-0.1138,-0.5863,-5.005,-14.064514899452849,10.924737009121984,15.032855900041909,6.06699999999546
0.1904,0.9543,-0.2403,0.0282,0.1607,-0.1454,-0.1138,-0.5863,-5.005,-14.107939359998777,10.94707613453112,15.024061400037985,6.082000000002154
0.1858,0.9551,-0.2411,0.0282,0.1607,-0.1454,-0.2013,-0.4638,-5.2675,-14.144551165835486,10.715092171138028,15.024061400037985,6.082000000002154
0.1869,0.9548,-0.2406,0.0255,0.1593,-0.1519,0.2187,-0.4462,-4.9963,-14.143849320800628,10.743699252740464,15.016922200039776,6.097999999998137
0.1835,0.9578,-0.2413,0.0255,0.1593,-0.1519,-0.0263,-0.175,-4.655,-14.141613452676065,10.550153821916368,15.016922200039776,6.097999999998137
0.1835,0.9578,-0.2439,0.0274,0.1598,-0.1458,-0.0263,-0.175,-4.655,-14.23428768904121,10.521572610777426,15.014297200039877,6.112999999997555
0.1866,0.9604,-0.2439,0.0274,0.1598,-0.1458,0.4988,0.1225,-4.5325,-14.244827104512543,10.64825501926982,15.014297200039877,6.112999999997555
0.186,0.9617,-0.2433,0.026,0.1608,-0.1439,0.525,0.4988,-4.2613,-14.211617624772451,10.622873992338105,15.022278000041503,6.129000000000815
0.1912,0.9628,-0.24,0.026,0.1608,-0.1439,0.7262,0.6475,-4.375,-14.05786945496116,10.874455043156185,15.032638000038903,6.144999999996799
0.193,0.9584,-0.2381,0.026,0.1608,-0.1439,0.7262,0.6475,-4.375,-13.98188193776194,11.03740691398343,15.032638000038903,6.144999999996799
0.19,0.9569,-0.2463,0.0261,0.1602,-0.142,0.6037,0.7788,-4.095,-14.301382605284598,10.901394341877799,15.044320000044117,6.1600000000034925
0.19,0.9569,-0.2463,0.0261,0.1602,-0.142,0.6475,1.1988,-3.85,-14.395721199176412,10.886367165616626,15.044320000044117,6.1600000000034925
0.1929,0.9568,-0.2438,0.0261,0.1593,-0.155,0.49,1.3212,-3.8238,-14.32574884772588,11.036488565900989,15.065459200038811,6.175999999999476
0.1922,0.9573,-0.2405,0.0261,0.1593,-0.155,0.49,1.3212,-3.8238,-14.170276973847418,11.020751168866607,15.065459200038811,6.175999999999476
0.1929,0.9573,-0.2456,0.0261,0.1593,-0.155,0.98,1.4262,-4.0075,-14.331276234102823,11.041743652528863,15.086852200037981,6.190999999998894
0.195,0.9559,-0.2439,0.0246,0.1598,-0.145,0.56,1.9162,-4.0163,-14.318957821593774,11.165930167442546,15.086852200037981,6.190999999998894
0.195,0.9559,-0.2439,0.0246,0.1598,-0.145,0.56,1.9162,-4.9437,-14.315292645135614,11.179301567903897,15.117511400044227,6.207000000002154
0.1925,0.9549,-0.2444,0.0241,0.1591,-0.149,0.7088,1.6363,-4.9437,-14.344596911542558,11.066217431822311,15.117511400044227,6.207000000002154
0.1936,0.9568,-0.2472,0.0241,0.1591,-0.149,0.4462,0.9363,-5.5213,-14.44261247073628,11.081966969836387,15.132492200040467,6.222999999998137
0.1935,0.9553,-0.2432,0.0241,0.1591,-0.149,0.2187,0.84,-5.46,-14.335817538954352,11.102506464126606,15.132492200040467,6.222999999998137
0.1892,0.9552,-0.2442,0.0239,0.1604,-0.1431,0.2187,0.84,-5.46,-14.339076741381733,10.894125233738874,15.14509220004609,6.238000000004831
0.1848,0.9548,-0.248,0.0239,0.1604,-0.1431,0.595,1.1113,-5.705,-14.495139211195953,10.648357120065286,15.14509220004609,6.238000000004831
0.1848,0.9548,-0.248,0.0253,0.161,-0.1496,0.8313,0.9538,-5.2937,-14.542342736702894,10.6151934702029,15.160353000042258,6.254000000000815
0.1835,0.956,-0.2454,0.0253,0.161,-0.1496,0.2362,0.8225,-5.6,-14.444639316787365,10.543042174474637,15.160353000042258,6.254000000000815
0.1837,0.9556,-0.245,0.0253,0.161,-0.1496,0.2362,0.8225,-5.6,-14.401250836900887,10.5476734701309,15.17269050004178,6.269000000000233
0.1829,0.9581,-0.248,0.0266,0.1592,-0.1552,0.5863,0.7525,-5.3025,-14.479477577691805,10.480366252555699,15.17269050004178,6.269000000000233
0.1837,0.9602,-0.2454,0.0266,0.1592,-0.1552,0.6913,0.7,-4.935,-14.377303659356896,10.498471571926158,15.183890500044061,6.2850000000034925
0.1837,0.9602,-0.2454,0.0256,0.1598,-0.1501,0.49,0.1925,-5.0225,-14.348764264907363,10.500665420402733,15.183890500044061,6.2850000000034925
0.1862,0.9607,-0.245,0.0256,0.1598,-0.1501,0.49,0.1925,-5.0225,-14.319520713308671,10.619923660623188,15.186970500043287,6.300999999999476
0.1864,0.9607,-0.2453,0.0256,0.1598,-0.1558,0.6562,-0.385,-5.8538,-14.322387247686288,10.64328596555155,15.186970500043287,6.300999999999476
0.1878,0.9603,-0.2484,0.0234,0.1601,-0.1558,0.035,-0.28,-5.2762,-14.439163920937736,10.711198410195555,15.182770500041412,6.31600000000617
0.1901,0.9618,-0.2487,0.0234,0.1601,-0.1558,0.07,-0.8313,-5.635,-14.477412610277295,10.816812509201355,15.182770500041412,6.31600000000617
0.1911,0.9624,-0.2456,0.0237,0.1581,-0.1556,0.07,-0.8313,-5.635,-14.372262440371266,10.880833559966838,15.169469700050799,6.331999999994878
0.1911,0.9624,-0.2456,0.0237,0.1581,-0.1556,-0.3237,-0.7788,-5.25,-14.338747852164808,10.889386872133043,15.169469700050799,6.331999999994878
0.1873,0.9587,-0.2462,0.0245,0.1609,-0.1555,-0.8313,-0.665,-5.4163,-14.370217704866883,10.737738440698099,15.159494700046347,6.347000000001572
0.1814,0.9561,-0.2443,0.0245,0.1609,-0.1555,-0.8313,-0.7437,-5.3113,-14.352079281918728,10.456918588416162,15.159494700046347,6.347000000001572
0.1816,0.9589,-0.2488,0.0245,0.1609,-0.1555,-0.9275,-0.7437,-5.3113,-14.442230277335257,10.396561585872343,15.147595500049334,6.362999999997555
0.1869,0.9596,-0.246,0.0242,0.1602,-0.1469,-0.14,-1.0412,-5.1537,-14.402463769676258,10.648411520504608,15.147595500049334,6.362999999997555
0.1869,0.9596,-0.246,0.0242,0.1602,-0.1469,-0.1312,-1.3913,-5.3725,-14.387489538304802,10.679681703760332,15.123943400049578,6.379999999997381
0.1909,0.957,-0.2475,0.0243,0.1606,-0.152,-0.1312,-1.3913,-5.3725,-14.457961336928046,10.898442453618987,15.123943400049578,6.379999999997381
0.194,0.9565,-0.2477,0.0243,0.1606,-0.152,-0.49,-0.9187,-4.8738,-14.492391147130352,11.083177477661938,15.110162900043429,6.3950000000040745
0.194,0.9576,-0.2453,0.0243,0.1606,-0.152,-0.8575,-0.8662,-5.3113,-14.432008883905816,11.100797395543095,15.110162900043429,6.3950000000040745
0.1937,0.9561,-0.2413,0.0249,0.161,-0.147,-1.19,-0.5163,-4.795,-14.33055258478858,11.111865429661693,15.101902100045503,6.411000000000058
0.1936,0.9539,-0.2438,0.0249,0.161,-0.147,-1.19,-0.5163,-4.795,-14.332950800045225,11.12295477144797,15.101902100045503,6.411000000000058
0.1936,0.9539,-0.2438,0.0231,0.1598,-0.1518,-0.9887,-0.4462,-4.7863,-14.334710186211497,11.124278183530848,15.095209100045762,6.425999999999476
0.1944,0.953,-0.243,0.0231,0.1598,-0.1518,0.0088,-0.1488,-4.2,-14.31538406957175,11.174784688417349,15.095209100045762,6.425999999999476
0.1912,0.9551,-0.2461,0.0231,0.1598,-0.1518,-0.14,0.1663,-4.5237,-14.398826406580678,10.994621239986582,15.097869900045094,6.44199999999546
0.1916,0.9587,-0.2381,0.0227,0.1597,-0.161,-0.14,0.1663,-4.5237,-14.11718567462402,10.978930486361763,15.097869900045094,6.44199999999546
0.1895,0.9572,-0.2367,0.0227,0.1597,-0.161,-0.2275,-0.0525,-5.0925,-13.978082354456745,10.89111634001577,15.097029900044923,6.457999999998719
0.1895,0.9572,-0.2367,0.0231,0.1598,-0.157,-0.1225,-0.1138,-5.4075,-13.922682010119322,10.880314529085394,15.097029900044923,6.457999999998719
0.186,0.9553,-0.242,0.0231,0.1598,-0.157,-0.3325,0.035,-5.5213,-14.09677230106379,10.713428667551199,15.097554900045157,6.473000000005413
0.1836,0.9568,-0.2451,0.0231,0.1598,-0.157,-0.3325,0.035,-5.5213,-14.258289957304862,10.554290405840966,15.097554900045157,6.473000000005413
0.1853,0.9592,-0.2431,0.0245,0.1606,-0.1518,0.0525,-0.175,-5.495,-14.234468614408675,10.599653629604967,15.09475490004586,6.489000000001397
0.1861,0.9589,-0.2392,0.0245,0.1606,-0.1518,-0.1575,-0.42,-5.53,-14.092873495113015,10.655817135823426,15.088454900046104,6.504000000000815
0.2017,0.9572,-0.2414,0.0237,0.1601,-0.1508,0.105,-0.7088,-5.6962,-14.133285798322081,11.4285437692215,15.088454900046104,6.504000000000815
0.1914,0.9572,-0.2414,0.0237,0.1601,-0.1508,0.105,-0.7088,-5.6962,-14.147192623843889,11.033722790218084,15.07711410004895,6.519999999996799
0.1875,0.9553,-0.2452,0.0229,0.161,-0.1562,-0.35,-1.05,-5.845,-14.294209371758315,10.800882159994407,15.07711410004895,6.519999999996799
0.1848,0.9573,-0.2442,0.0229,0.161,-0.1562,-0.1663,-1.4088,-5.915,-14.304332365961981,10.623274478492236,15.054573300044359,6.536000000000058
0.1805,0.9592,-0.2455,0.0229,0.161,-0.1562,-0.1663,-1.4088,-6.0113,-14.336539232708056,10.372350399670177,15.054573300044359,6.536000000000058
0.1874,0.9587,-0.2432,0.0234,0.1608,-0.1568,-0.0613,-1.2687,-6.0113,-14.271648597813765,10.679000019572777,15.035542800035866,6.551000000006752
0.1874,0.9587,-0.2432,0.0234,0.1608,-0.1568,-0.63,-1.82,-5.635,-14.251529430081783,10.722149385602345,15.035542800035866,6.551000000006752
0.1904,0.9581,-0.2468,0.0226,0.159,-0.1483,-0.175,-1.7413,-5.4775,-14.371304784809794,10.870877454262844,15.00768200005553,6.56699999999546
0.1895,0.9587,-0.2441,0.0226,0.159,-0.1483,-0.175,-1.7413,-5.4775,-14.317786774492852,10.847285613800056,15.00768200005553,6.56699999999546
0.1893,0.9617,-0.2468,0.0226,0.159,-0.1483,-0.5688,-1.7763,-5.3288,-14.359385898866083,10.801227527601984,14.981037500043639,6.582000000002154
0.1918,0.9632,-0.2435,0.0237,0.16,-0.1453,-0.7613,-1.365,-5.4775,-14.271673513964616,10.91047124063631,14.981037500043639,6.582000000002154
0.1918,0.9621,-0.246,0.0237,0.16,-0.1453,-1.0762,-0.98,-5.46,-14.30151987564043,10.928873675784839,14.965357500047576,6.597999999998137
0.1917,0.9621,-0.246,0.0239,0.1605,-0.1498,-1.0762,-0.98,-5.46,-14.318824792793293,10.926417431059456,14.965357500047576,6.597999999998137
0.1951,0.9608,-0.2393,0.0239,0.1605,-0.1498,-1.5225,-0.7613,-5.845,-14.246276954483953,11.116729171045352,14.953176700045095,6.614000000001397
0.1934,0.9567,-0.2431,0.0239,0.1605,-0.1498,-1.9512,-0.5688,-5.8625,-14.247712515820584,11.089649018435553,14.953176700045095,6.614000000001397
0.1916,0.9578,-0.2397,0.0265,0.1597,-0.152,-2.3012,-0.4288,-5.8975,-14.181890904711645,10.996923924496093,14.946744700045345,6.629000000000815
0.1914,0.9607,-0.2406,0.0265,0.1597,-0.152,-2.3012,-0.4288,-5.8975,-14.141278429552782,10.946264718713657,14.946744700045345,6.629000000000815
0.1914,0.9607,-0.2406,0.0214,0.1602,-0.1466,-1.5575,-0.2625,-6.3175,-14.125385108181202,10.939372056947139,14.9425447000464,6.644999999996799
0.1917,0.956,-0.24,0.0214,0.1602,-0.1466,-1.82,0.315,-6.4575,-14.124772381592214,10.996032728829002,14.9425447000464,6.644999999996799
0.1934,0.9531,-0.2354,0.0214,0.1602,-0.1466,-1.715,0.5775,-6.055,-14.10488560813164,11.12357099476646,14.951207200050264,6.6600000000034925
0.192,0.957,-0.2395,0.0236,0.1599,-0.1561,-1.715,0.5775,-6.055,-14.100568442862366,11.028954865309936,14.951207200050264,6.6600000000034925
0.195,0.9602,-0.2366,0.0236,0.1599,-0.1561,-1.1463,0.9625,-5.8713,-13.998398372743896,11.137527228101597,14.966607200046399,6.675999999999476
0.195,0.959,-0.2375,0.0237,0.1596,-0.1506,-1.5575,1.015,-5.8275,-13.981024499062963,11.161431037915854,14.966607200046399,6.675999999999476
0.1954,0.959,-0.2375,0.0237,0.1596,-0.1506,-1.6187,0.9625,-5.3637,-13.970023271319949,11.184182426972772,14.982007200049535,6.692000000002736
0.1948,0.9557,-0.2336,0.0254,0.1602,-0.1485,-1.6187,0.9625,-5.3637,-13.933855921893539,11.19775087243496,14.982007200049535,6.692000000002736
0.1942,0.9553,-0.2345,0.0254,0.1602,-0.1485,-1.225,1.4875,-5.4338,-13.881956913777714,11.1718817602197,15.004319700037847,6.706999999994878
0.1923,0.9573,-0.235,0.0254,0.1602,-0.1485,-0.6388,1.8375,-5.2675,-13.833796511833432,11.055735261221768,15.004319700037847,6.706999999994878
0.1926,0.9597,-0.2344,0.0253,0.1614,-0.1441,-0.6388,1.8375,-5.2675,-13.77552130401338,11.034853024330417,15.033719700043836,6.722999999998137
0.1926,0.9597,-0.2344,0.0253,0.1614,-0.1441,-0.5425,1.8112,-5.2675,-13.747579728885004,11.032212388631157,15.033719700043836,6.722999999998137
0.1868,0.9601,-0.2341,0.0238,0.1605,-0.1505,-0.3588,1.3913,-5.0838,-13.721240777711655,10.744605717200521,15.05458920005315,6.738000000004831
0.1845,0.96,-0.2355,0.0238,0.1605,-0.1505,-0.6388,1.3475,-4.9437,-13.75453837297968,10.593656794690277,15.05458920005315,6.738000000004831
0.1865,0.9611,-0.2333,0.0238,0.1605,-0.1505,-0.6388,1.3475,-4.9437,-13.695246467082189,10.668627710364646,15.076149200047738,6.754000000000815
0.1894,0.9609,-0.2378,0.021,0.1587,-0.1545,-0.9363,0.8138,-4.8562,-13.790224612432976,10.812155327926652,15.076149200047738,6.754000000000815
0.1894,0.9625,-0.2327,0.021,0.1587,-0.1545,-0.9625,0.2975,-4.9175,-13.699540324272792,10.826176604447674,15.080909200048707,6.7700000000040745
0.1867,0.9625,-0.2327,0.0233,0.1594,-0.151,-0.8487,0.805,-4.9088,-13.646783910815458,10.695328091582592,15.080909200048707,6.7700000000040745
0.1854,0.9603,-0.2368,0.0233,0.1594,-0.151,-0.8487,0.805,-4.9088,-13.746973780081788,10.626361383094196,15.09298420004238,6.7849999999962165
0.1849,0.9592,-0.231,0.0233,0.1594,-0.151,-0.4462,0.175,-5.6525,-13.62815971531237,10.616077342387705,15.09298420004238,6.7849999999962165
0.1856,0.9576,-0.2358,0.0222,0.1598,-0.1481,-0.77,-0.4638,-5.8975,-13.732311190764921,10.652401968106316,15.085563400040868,6.800999999999476
0.1873,0.9565,-0.2362,0.0222,0.1598,-0.1481,-1.3475,-0.7875,-5.845,-13.775647064876866,10.748697568267977,15.085563400040868,6.800999999999476
0.1873,0.9565,-0.2362,0.0225,0.1609,-0.1445,-1.3475,-0.7875,-5.845,-13.8054632821445,10.761833800930107,15.073750900035597,6.81600000000617
0.1911,0.9565,-0.2344,0.0225,0.1609,-0.1445,-1.015,-0.8575,-5.3463,-13.789658947420204,10.953628331957786,15.073750900035597,6.81600000000617
0.192,0.9574,-0.2306,0.0225,0.1609,-0.1445,-0.0525,-1.1812,-5.5912,-13.632332370732103,11.022024939897076,15.054851700040341,6.832000000002154
0.1939,0.9553,-0.2303,0.023,0.1608,-0.1563,-0.7525,-1.3475,-5.2762,-13.592248918034016,11.144462064122473,15.054851700040341,6.832000000002154
0.1926,0.9539,-0.2349,0.023,0.1608,-0.1563,-0.7525,-1.3475,-5.2762,-13.715964857769205,11.098831665394012,15.033291700045753,6.847999999998137
0.1926,0.9523,-0.2296,0.0238,0.159,-0.149,-0.455,-1.5575,-5.6262,-13.62380830777296,11.120003583835283,15.00992920004666,6.862999999997555
0.1984,0.9523,-0.2296,0.0238,0.159,-0.149,-0.0175,-1.2687,-5.9588,-13.579937180568937,11.403826794161088,15.00992920004666,6.862999999997555
0.199,0.9448,-0.2278,0.0234,0.1599,-0.1478,0.0437,-1.0325,-5.4687,-13.564292270081548,11.550067568118692,14.993409200043294,6.879000000000815
0.2077,0.9412,-0.2255,0.0234,0.1599,-0.1478,0.0437,-1.0325,-5.4687,-13.505350892415139,12.03917422702089,14.993409200043294,6.879000000000815
0.206,0.9426,-0.2231,0.0234,0.1599,-0.1478,1.3038,0.1838,-5.6525,-13.362166947414773,12.010539766732,14.996166200043186,6.894000000000233
0.1939,0.9463,-0.2249,0.0209,0.157,-0.1528,2.2575,1.1725,-5.7137,-13.367673400304827,11.372840130679478,14.996166200043186,6.894000000000233
0.1939,0.9463,-0.2249,0.0209,0.157,-0.1528,2.2575,1.1725,-5.7137,-13.368761969213434,11.287378615983155,15.014926200038477,6.9099999999962165
0.1896,0.9516,-0.2297,0.0217,0.1601,-0.1546,3.0187,1.4175,-5.6175,-13.535943059951624,11.004507830722273,15.014926200038477,6.9099999999962165
0.1873,0.9529,-0.2328,0.0217,0.1601,-0.1546,3.9113,1.2775,-5.7488,-13.700092645391125,10.83624243588215,15.035366200042642,6.925999999999476
0.1841,0.9579,-0.235,0.0217,0.1601,-0.1546,4.4538,2.0213,-5.775,-13.772473440990815,10.608525635891109,15.035366200042642,6.925999999999476
0.1813,0.9621,-0.2381,0.0225,0.1618,-0.1589,4.4538,2.0213,-5.775,-13.882630665905777,10.398891464844745,15.065685700041465,6.940999999998894
0.1813,0.9618,-0.2452,0.0225,0.1618,-0.1589,4.34,1.5925,-5.7488,-14.243488904723142,10.357826445484728,15.065685700041465,6.940999999998894
0.1782,0.9618,-0.2452,0.0218,0.1617,-0.1523,3.9987,1.2425,-5.9062,-14.293609625226567,10.202885667965278,15.085565700045516,6.957000000002154
0.1806,0.9667,-0.2395,0.0218,0.1617,-0.1523,3.885,0.8838,-5.8538,-13.971501358546961,10.267958852258127,15.085565700045516,6.957000000002154
0.1835,0.9697,-0.2396,0.0218,0.1617,-0.1523,3.885,0.8838,-5.8538,-13.892866363250352,10.390323013388189,15.098822700038571,6.971999999994296
0.1844,0.972,-0.2438,0.0212,0.161,-0.1661,3.6662,0.6037,-5.915,-14.051586287468307,10.42149066801022,15.098822700038571,6.971999999994296
0.1844,0.9727,-0.2485,0.0212,0.161,-0.1661,2.24,0.4462,-6.0988,-14.275629831631525,10.409785151431011,15.105961900040025,6.987999999997555
0.1844,0.9727,-0.2485,0.0206,0.1614,-0.1528,1.8463,0.525,-4.9963,-14.319142913689026,10.408094376367075,15.105961900040025,6.987999999997555
0.1813,0.9693,-0.247,0.0206,0.1614,-0.1528,1.8463,0.525,-4.9963,-14.301005784728975,10.289808336932508,15.114361900041736,7.004000000000815
0.1796,0.9676,-0.2452,0.0206,0.1614,-0.1528,1.155,0.3588,-5.0487,-14.240483084751364,10.210963820563272,15.114361900041736,7.004000000000815
