AcclX,AcclY,AcclZ,MagX,MagY,MagZ,GyroX,GyroY,GyroZ,Roll,Pitch,Yaw,Time Elapsed(s)
0.2483,0.9318,-0.2666,0.0167,0.1359,-0.1128,-0.7175,-2.5638,-6.055,0,0,0,0.0
0.2507,0.929,-0.2705,0.0172,0.1388,-0.1108,-0.4375,-2.3975,-5.8187,0,0,0,0.0
0.2507,0.929,-0.2705,0.0172,0.1388,-0.1108,-0.3413,-2.205,-5.4687,0,0,0,0.014999999999417923
0.2486,0.9288,-0.2705,0.0174,0.1392,-0.1075,-0.3413,-2.205,-5.4687,0,0,0,0.014999999999417923
0.2494,0.933,-0.2655,0.0174,0.1392,-0.1075,0.2362,-1.2425,-5.705,0,0,0,0.030999999995401595
0.2486,0.9323,-0.2707,0.0174,0.1392,-0.1075,-0.1312,-1.9338,-5.4338,0,0,0,0.030999999995401595
0.2474,0.932,-0.2723,0.0177,0.1369,-0.1023,-0.2975,-2.3975,-5.3463,0,0,0,0.046999999991385266
0.2474,0.9319,-0.2673,0.0177,0.1369,-0.1023,-0.2975,-2.3975,-5.3463,0,0,0,0.046999999991385266
0.2518,0.9319,-0.2673,0.0175,0.1395,-0.11,-0.35,-2.135,-5.145,0,0,0,0.0639999999984866
0.2518,0.9324,-0.2674,0.0175,0.1395,-0.11,-0.0613,-1.5662,-5.3113,0,0,0,0.0639999999984866
0.2491,0.9316,-0.2722,0.0175,0.1395,-0.11,-0.0613,-1.5662,-5.1887,0,0,0,0.08000000000174623
0.2488,0.9298,-0.2673,0.0171,0.139,-0.1077,-0.2713,-1.575,-5.1887,0,0,0,0.08000000000174623
0.2484,0.9252,-0.271,0.0171,0.139,-0.1077,-0.1225,-1.4875,-4.935,0,0,0,0.0949999999938882
0.2484,0.9252,-0.271,0.0174,0.1394,-0.1196,0.14,-1.9162,-5.3812,0,0,0,0.0949999999938882
0.2497,0.9287,-0.2741,0.0174,0.1394,-0.1196,0.14,-1.9162,-5.3812,0,0,0,0.11099999999714782
0.2511,0.9348,-0.2716,0.0174,0.1394,-0.1196,-0.4112,-2.0125,-5.3987,0,0,0,0.11099999999714782
0.2539,0.9352,-0.2738,0.0176,0.1393,-0.1059,-0.665,-2.7213,-5.4425,0,0,0,0.1269999999931315
0.253,0.9351,-0.2736,0.0176,0.1393,-0.1059,-0.4025,-2.8875,-5.8888,0,0,0,0.1269999999931315
0.253,0.9344,-0.2715,0.0176,0.1406,-0.1046,-0.4025,-2.8875,-5.8888,0,0,0,0.14199999999982538
0.2505,0.9344,-0.2715,0.0176,0.1406,-0.1046,-0.735,-2.9838,-6.405,0,0,0,0.14199999999982538
0.2505,0.9354,-0.271,0.0178,0.1401,-0.1048,-1.12,-2.9838,-6.3875,0,0,0,0.158000000003085
0.2489,0.9333,-0.2728,0.0178,0.1401,-0.1048,-0.9625,-2.8612,-6.335,0,0,0,0.158000000003085
0.245,0.9338,-0.2722,0.0178,0.1401,-0.1048,-0.9625,-2.8612,-6.335,0,0,0,0.17299999999522697
0.2464,0.931,-0.2728,0.0174,0.139,-0.109,-0.8662,-3.2638,-6.545,0,0,0,0.17299999999522697
0.2464,0.931,-0.2728,0.0174,0.139,-0.109,-1.12,-3.535,-6.2475,0,0,0,0.1889999999984866
0.2469,0.9308,-0.2721,0.0182,0.1407,-0.1093,-0.8662,-3.6662,-6.51,0,0,0,0.1889999999984866
0.2456,0.9306,-0.2772,0.0182,0.1407,-0.1093,-0.8662,-3.6662,-6.51,0,0,0,0.20499999999447027
0.2466,0.9335,-0.2735,0.0182,0.1407,-0.1093,-0.8225,-3.4388,-6.1863,0,0,0,0.20499999999447027
0.2482,0.9357,-0.2709,0.0181,0.139,-0.1062,-0.8925,-3.6225,-6.23,0,0,0,0.2199999999938882
0.2482,0.9347,-0.2724,0.0181,0.139,-0.1062,-1.05,-3.5788,-6.335,0,0,0,0.2199999999938882
0.2436,0.9347,-0.2724,0.019,0.1396,-0.1099,-1.05,-3.5788,-6.335,0,0,0,0.23599999999714782
0.2437,0.9312,-0.2705,0.019,0.1396,-0.1099,-1.61,-3.7538,-6.7025,0,0,0,0.23599999999714782
0.2432,0.9262,-0.2691,0.019,0.1396,-0.1099,-1.1725,-3.8325,-6.5363,0,0,0,0.25099999999656575
0.242,0.9246,-0.2724,0.021,0.1392,-0.0998,-1.1725,-3.8325,-6.7638,0,0,0,0.2669999999998254
0.2453,0.9329,-0.2741,0.021,0.1392,-0.0998,-1.085,-4.1912,-6.7638,0,0,0,0.2669999999998254
0.2453,0.9329,-0.2741,0.0179,0.1398,-0.1129,-0.7,-4.62,-6.7812,0,0,0,0.28299999999580905
0.2489,0.9467,-0.2746,0.0179,0.1398,-0.1129,-0.5163,-4.9788,-6.7812,0,0,0,0.28299999999580905
0.2408,0.9539,-0.2781,0.0179,0.1398,-0.1129,-0.5163,-4.9788,-6.7812,0,0,0,0.29799999999522697
0.2339,0.9482,-0.2737,0.0202,0.14,-0.111,-1.0237,-6.09,-6.9475,0,0,0,0.29799999999522697
0.2316,0.9335,-0.27,0.0202,0.14,-0.111,-1.4438,-6.4662,-7.7263,0,0,0,0.3139999999984866
0.2316,0.9234,-0.2674,0.0206,0.1389,-0.107,-1.3563,-7.0437,-7.9012,0,0,0,0.3139999999984866
0.2336,0.9234,-0.2674,0.0206,0.1389,-0.107,-1.3563,-7.0437,-7.9012,0,0,0,0.3289999999979045
0.2325,0.9204,-0.271,0.023,0.1385,-0.1078,-0.9712,-7.7175,-7.8663,0,0,0,0.3289999999979045
0.2439,0.9184,-0.2647,0.023,0.1385,-0.1078,-0.6562,-8.4438,-7.1312,0,0,0,0.34500000000116415
0.2499,0.9157,-0.2626,0.023,0.1385,-0.1078,-0.4725,-8.2863,-6.055,0,0,0,0.34500000000116415
0.2548,0.912,-0.2621,0.0214,0.1394,-0.101,-0.4725,-8.2863,-6.055,0,0,0,0.3609999999971478
0.2548,0.912,-0.2621,0.0214,0.1394,-0.101,-0.2362,-7.9275,-4.7337,0,0,0,0.3609999999971478
0.2525,0.905,-0.2619,0.0228,0.1402,-0.1097,-0.105,-7.1925,-4.9088,0,0,0,0.37599999999656575
0.2552,0.9043,-0.269,0.0228,0.1402,-0.1097,0.7,-7.4462,-4.7863,0,0,0,0.37599999999656575
0.2504,0.9081,-0.2783,0.0228,0.1402,-0.1097,0.7,-7.4462,-4.7863,0,0,0,0.3919999999925494
0.2494,0.9142,-0.2818,0.023,0.1394,-0.1102,1.8637,-7.8925,-5.7488,0,0,0,0.3919999999925494
0.2494,0.9214,-0.2819,0.023,0.1394,-0.1102,2.7912,-9.0212,-6.6062,0,0,0,0.4069999999992433
0.2501,0.9214,-0.2819,0.0221,0.1406,-0.109,2.7912,-10.4213,-7.525,0,0,0,0.4069999999992433
0.2554,0.9303,-0.292,0.0221,0.1406,-0.109,2.3363,-10.4213,-7.525,0,0,0,0.42300000000250293
0.2614,0.9447,-0.2916,0.0221,0.1406,-0.109,1.4963,-11.41,-8.5225,0,0,0,0.42300000000250293
0.2693,0.9525,-0.2854,0.025,0.1408,-0.1002,-0.0437,-11.8212,-9.905,0,0,0,0.4389999999984866
0.2682,0.9519,-0.2831,0.025,0.1408,-0.1002,-0.0437,-11.8212,-9.905,0,0,0,0.4389999999984866
0.2682,0.9519,-0.2831,0.0236,0.1398,-0.1058,-2.17,-11.5675,-10.9725,0,0,0,0.4539999999979045
0.2599,0.9469,-0.282,0.0236,0.1398,-0.1058,-3.5,-11.3575,-12.3375,0,0,0,0.4539999999979045
0.2506,0.9428,-0.2818,0.0236,0.1398,-0.1058,-4.0512,-11.7425,-13.3263,0,0,0,0.4699999999938882
0.2397,0.9378,-0.2812,0.0273,0.1409,-0.1099,-4.0512,-11.7425,-13.3263,0,0,0,0.4699999999938882
0.2314,0.9373,-0.2808,0.0273,0.1409,-0.1099,-4.8913,-11.2087,-13.6062,0,0,0,0.4850000000005821
0.2314,0.9351,-0.2779,0.0296,0.1405,-0.1011,-6.0375,-11.2175,-13.72,0,0,0,0.4850000000005821
0.2225,0.9351,-0.2779,0.0296,0.1405,-0.1011,-5.9763,-11.4712,-14.1138,0,0,0,0.5009999999965657
0.2183,0.9367,-0.2803,0.0307,0.1395,-0.1019,-5.9763,-11.4712,-14.1138,0,0,0,0.5009999999965657
0.2184,0.9387,-0.2753,0.0307,0.1395,-0.1019,-6.0462,-12.1888,-14.5513,0,0,0,0.5169999999925494
0.2236,0.944,-0.2727,0.0307,0.1395,-0.1019,-5.8275,-12.25,-14.6213,0,0,0,0.5169999999925494
0.2279,0.9518,-0.2667,0.033,0.1406,-0.0958,-5.8625,-11.7775,-14.7525,0,0,0,0.5319999999992433
0.2279,0.9518,-0.2667,0.033,0.1406,-0.0958,-5.8625,-11.7775,-14.7525,0,0,0,0.5319999999992433
0.2331,0.9577,-0.2608,0.0345,0.1406,-0.1,-5.9763,-10.675,-13.9213,0,0,0,0.547999999995227
0.2318,0.9574,-0.258,0.0345,0.1406,-0.1,-6.4837,-9.5375,-13.6675,0,0,0,0.547999999995227
0.2257,0.9523,-0.2588,0.0345,0.1406,-0.1,-6.3525,-8.0413,-13.125,0,0,0,0.5629999999946449
0.2196,0.9521,-0.2555,0.0371,0.1382,-0.1054,-6.3525,-8.0413,-13.125,0,0,0,0.5789999999979045
0.204,0.9528,-0.253,0.0371,0.1382,-0.1054,-6.3525,-6.5012,-12.1713,0,0,0,0.5789999999979045
0.2142,0.9528,-0.253,0.039,0.1398,-0.0982,-6.3175,-6.0287,-11.375,0,0,0,0.5949999999938882
0.2111,0.952,-0.2512,0.039,0.1398,-0.0982,-6.3175,-5.5475,-11.1737,0,0,0,0.5949999999938882
0.2068,0.9499,-0.2565,0.039,0.1398,-0.0982,-6.1863,-5.5475,-11.1737,0,0,0,0.6100000000005821
0.2017,0.9481,-0.2526,0.0412,0.1403,-0.0964,-4.69,-5.5125,-10.9725,0,0,0,0.6100000000005821
0.2015,0.9494,-0.2539,0.0412,0.1403,-0.0964,-3.4475,-5.5912,-10.815,0,0,0,0.6259999999965657
0.2015,0.9494,-0.2539,0.0397,0.14,-0.0985,-3.4475,-5.5912,-10.815,0,0,0,0.6259999999965657
0.2,0.95,-0.2561,0.0397,0.14,-0.0985,-2.415,-5.7575,-10.535,0,0,0,0.6409999999959837
0.1978,0.9514,-0.2596,0.0397,0.14,-0.119,-1.365,-5.95,-11.34,0,0,0,0.6409999999959837
0.2034,0.9557,-0.2567,0.0405,0.1411,-0.1051,-0.1575,-6.0462,-11.3313,0,0,0,0.6589999999996508
0.2025,0.9535,-0.2667,0.0405,0.1411,-0.1051,-0.1575,-6.0462,-11.3313,0,0,0,0.6589999999996508
0.2181,0.9521,-0.2691,0.0412,0.1413,-0.1052,0.1138,-5.2762,-11.5063,0,0,0,0.6749999999956344
0.2044,0.9521,-0.2691,0.0412,0.1413,-0.1052,0.6388,-4.165,-10.675,0,0,0,0.6749999999956344
0.2031,0.9557,-0.2704,0.0422,0.1417,-0.1018,0.7262,-3.7975,-9.6775,0,0,0,0.6899999999950523
0.206,0.9543,-0.2713,0.0422,0.1417,-0.1018,0.7262,-3.7975,-9.6775,0,0,0,0.6899999999950523
0.207,0.95,-0.2721,0.0422,0.1417,-0.1018,1.015,-3.0538,-8.68,0,0,0,0.705999999991036
0.2067,0.9453,-0.2753,0.0415,0.1422,-0.0979,1.0675,-1.855,-7.77,0,0,0,0.705999999991036
0.2067,0.9453,-0.2753,0.0415,0.1422,-0.0979,1.1725,-0.5863,-7.1137,0,0,0,0.7209999999977299
0.2036,0.9432,-0.2773,0.0442,0.1438,-0.1022,1.1725,-0.5863,-7.1137,0,0,0,0.7209999999977299
0.207,0.9345,-0.2753,0.0442,0.1438,-0.1022,1.7938,0.21,-6.0113,0,0,0,0.7370000000009895
0.2095,0.933,-0.2818,0.0442,0.1438,-0.1022,3.2462,0.4288,-5.4075,0,0,0,0.7370000000009895
0.2155,0.9337,-0.2833,0.043,0.1418,-0.1002,3.9813,1.12,-5.0487,0,0,0,0.7529999999969732
0.2155,0.9341,-0.2809,0.043,0.1418,-0.1002,3.9813,1.12,-5.0487,0,0,0,0.7529999999969732
0.2227,0.9341,-0.2809,0.0427,0.1422,-0.1016,4.3137,2.415,-4.2787,0,0,0,0.7679999999963911
0.2247,0.9323,-0.2869,0.0427,0.1422,-0.1016,4.2438,3.4125,-3.8675,0,0,0,0.7679999999963911
0.2248,0.9356,-0.2882,0.0427,0.1422,-0.1016,4.2438,5.6525,-3.5612,0,0,0,0.7839999999923748
0.2235,0.9371,-0.2855,0.0402,0.1416,-0.1088,4.9262,4.5062,-3.5612,0,0,0,0.7839999999923748
0.2193,0.9337,-0.2944,0.0402,0.1416,-0.1088,4.62,4.8738,-3.36,-14.898485662039405,10.29548064042791,0.0,0.7989999999990687
0.2193,0.9337,-0.2944,0.0415,0.1418,-0.1023,5.1712,5.2762,-3.6137,-17.142785935715658,12.174628656653264,0.24798139999293636,0.8459999999977299
0.2178,0.9364,-0.2951,0.0415,0.1418,-0.1023,5.1712,5.2762,-3.6137,-17.443915381665974,12.443293357187882,0.24798139999293636,0.8459999999977299
0.2158,0.943,-0.2987,0.0415,0.1418,-0.1023,5.5213,5.4425,-4.3137,-17.558561795407922,12.33744400285763,0.3350613999710775,0.8619999999937136
0.2125,0.9478,-0.301,0.0412,0.1437,-0.1077,4.7337,5.1887,-4.7162,-17.609890198619457,12.129760677202565,0.3350613999710775,0.8619999999937136
0.2094,0.9453,-0.2984,0.0412,0.1437,-0.1077,3.3163,4.9,-4.8562,-17.53591379778229,11.979393612851869,0.3350613999710775,0.8619999999937136
0.2094,0.9424,-0.2937,0.0409,0.1422,-0.107,3.3163,4.9,-4.8562,-17.35142026776904,11.977541921159926,0.40856140000387753,0.8770000000004075
0.2059,0.9424,-0.2937,0.0409,0.1422,-0.107,2.5113,4.2438,-6.02,-17.3187376462923,11.853134174641786,0.40856140000387753,0.8770000000004075
0.2056,0.9363,-0.2966,0.0389,0.1434,-0.1054,1.6187,4.2175,-6.475,-17.507737402652463,11.836260629738767,0.40856140000387753,0.8770000000004075
0.2036,0.9323,-0.2957,0.0389,0.1434,-0.1054,1.0762,3.955,-6.9738,-17.569362418882694,11.80184480357059,0.47184139998799296,0.8929999999963911
0.2012,0.93,-0.295,0.0389,0.1434,-0.1054,1.0762,3.955,-6.9738,-17.589859205085084,11.735095910267681,0.47184139998799296,0.8929999999963911
0.1985,0.9292,-0.2933,0.0399,0.1431,-0.1042,1.0063,3.045,-6.6588,-17.54121675544528,11.618633602806863,0.47184139998799296,0.8929999999963911
0.1985,0.9292,-0.2933,0.0399,0.1431,-0.1042,0.7175,2.625,-6.475,-17.526345184807585,11.559754951629063,0.51384139997745,0.9089999999923748
0.1987,0.9331,-0.2944,0.039,0.1431,-0.1079,0.9013,2.4325,-6.93,-17.516017984765586,11.522890955612674,0.51384139997745,0.9089999999923748
0.2011,0.9388,-0.2896,0.039,0.1431,-0.1079,0.9013,2.4325,-6.93,-17.267625076702082,11.543669698242933,0.51384139997745,0.9089999999923748
0.2109,0.9446,-0.2822,0.039,0.1431,-0.1079,0.5863,1.855,-7.1925,-16.86905369448902,11.739883095351237,0.5416663999898672,0.9239999999990687
0.2126,0.9448,-0.2774,0.0401,0.1434,-0.097,-0.21,1.8988,-7.5687,-16.629699213335797,11.81663593378376,0.5416663999898672,0.9239999999990687
0.2126,0.9432,-0.2798,0.0401,0.1434,-0.097,-1.155,1.855,-7.7613,-16.624730742393936,11.822787182841777,0.5713463999824169,0.9399999999950523
0.2078,0.9432,-0.2798,0.0416,0.1426,-0.1042,-1.155,1.855,-7.7613,-16.619993573211733,11.824478482139483,0.5713463999824169,0.9399999999950523
0.2025,0.9426,-0.2732,0.0416,0.1426,-0.1042,-1.1725,2.5025,-7.56,-16.591600537522275,11.794829126569315,0.5713463999824169,0.9399999999950523
0.2016,0.9432,-0.2688,0.0416,0.1426,-0.1042,-1.2075,2.485,-8.155,-16.52860298334635,11.745773458756652,0.6086213999990512,0.9550000000017462
0.2006,0.942,-0.27,0.0398,0.1438,-0.1079,-1.2075,2.485,-9.0913,-16.4793788577026,11.645463287669077,0.6086213999990512,0.9550000000017462
0.195,0.9396,-0.27,0.0398,0.1438,-0.1079,-1.6363,2.4675,-9.0913,-16.324497785077067,11.438178650157226,0.6481013999711874,0.9709999999904539
0.195,0.9396,-0.27,0.0405,0.1424,-0.1094,-2.1263,2.2662,-9.5988,-16.1769631479554,11.336304712003255,0.6481013999711874,0.9709999999904539
0.1956,0.9401,-0.2669,0.0405,0.1424,-0.1094,-1.995,2.1175,-10.3075,-16.022897113289428,11.323439336953287,0.6819813999780897,0.9869999999937136
0.1965,0.9397,-0.2629,0.0405,0.1424,-0.1094,-1.995,2.1175,-10.3075,-15.8380267701362,11.368103286633014,0.713743899992264,1.0020000000004075
0.193,0.9393,-0.2647,0.0406,0.1425,-0.1081,-1.8025,1.9775,-10.9462,-15.79702151545097,11.230437013715163,0.713743899992264,1.0020000000004075
0.1917,0.9439,-0.2654,0.0406,0.1425,-0.1081,-1.085,1.2775,-10.8675,-15.795105137330346,11.103542451870904,0.7341838999871331,1.0179999999963911
0.1917,0.9453,-0.2655,0.0427,0.1446,-0.1077,0.1488,0.4812,-11.5675,-15.735552542265399,11.059092115266859,0.7341838999871331,1.0179999999963911
0.1902,0.9453,-0.2655,0.0427,0.1446,-0.1077,0.1488,0.4812,-11.5675,-15.709143092988201,10.983080316003555,0.741401899986853,1.032999999995809
0.1914,0.9484,-0.2716,0.0438,0.1447,-0.1019,0.56,1.0237,-11.1038,-15.878720905069692,10.980563864736851,0.741401899986853,1.032999999995809
0.192,0.9512,-0.2686,0.0438,0.1447,-0.1019,1.9425,0.9538,-10.675,-15.795819175003336,10.989830548976991,0.7566626999830223,1.0489999999917927
0.194,0.9582,-0.2733,0.0438,0.1447,-0.1019,2.38,0.455,-10.4738,-15.891799196298551,11.01005210474705,0.7566626999830223,1.0489999999917927
0.2002,0.9606,-0.2729,0.0442,0.1459,-0.1108,2.38,0.455,-10.4738,-15.866693272931553,11.248008590573422,0.7639426999845054,1.0649999999950523
0.2002,0.9606,-0.2729,0.0442,0.1459,-0.1108,1.995,0.3063,-10.045,-15.861247680067573,11.309257697838538,0.7639426999845054,1.0649999999950523
0.2008,0.9618,-0.2766,0.0446,0.1452,-0.1035,2.24,0.2625,-9.4587,-16.00232256304537,11.331884082200308,0.768142699985361,1.080999999998312
0.2021,0.9617,-0.2741,0.0446,0.1452,-0.1035,1.8112,0.6562,-9.03,-15.932380378658083,11.383983171601834,0.768142699985361,1.080999999998312
0.199,0.96,-0.2754,0.0446,0.1452,-0.1035,1.8112,0.6562,-9.03,-15.987848762274602,11.319981071937468,0.7786418999827255,1.0969999999942956
0.1969,0.9572,-0.2782,0.0454,0.1444,-0.1122,1.715,1.05,-8.6275,-16.148868760335084,11.252839482392524,0.7786418999827255,1.0969999999942956
0.1969,0.9572,-0.2813,0.0454,0.1444,-0.1122,1.715,1.225,-7.9713,-16.317224853378384,11.238492726869762,0.7970168999909255,1.1120000000009895
0.1947,0.9586,-0.2813,0.0442,0.1446,-0.1079,1.715,0.91,-7.455,-16.34456929834317,11.18716059671962,0.7970168999909255,1.1120000000009895
0.1905,0.9555,-0.281,0.0442,0.1446,-0.1079,1.4525,0.91,-7.455,-16.375736200823447,11.099574173344415,0.8115768999872707,1.1279999999969732
0.1919,0.9534,-0.2804,0.0442,0.1446,-0.1079,0.7437,1.1463,-7.2013,-16.384274171720232,11.037329332037245,0.8115768999872707,1.1279999999969732
0.19,0.9513,-0.2799,0.0436,0.1454,-0.1073,0.35,1.2075,-7.105,-16.390875950481067,10.96065424165751,0.830896899982421,1.1439999999929569
0.1904,0.9492,-0.2789,0.0436,0.1454,-0.1073,0.35,1.2075,-7.105,-16.38097721935342,10.933693352200018,0.830896899982421,1.1439999999929569
0.1904,0.9492,-0.2789,0.0442,0.147,-0.107,0.2275,1.5225,-7.105,-16.37709235453519,10.917576881388944,0.8537343999926125,1.1589999999996508
0.1922,0.9471,-0.2789,0.0442,0.147,-0.107,0.0,1.19,-6.9825,-16.39360619613118,10.96117923884744,0.8537343999926125,1.1589999999996508
0.1962,0.9437,-0.2777,0.0442,0.147,-0.107,-0.1838,1.3563,-6.79,-16.395440396966862,11.119401713132952,0.8754351999871651,1.1749999999956344
0.1984,0.9437,-0.2797,0.0446,0.1465,-0.1106,-0.1838,1.3563,-6.79,-16.449982940323814,11.257035249922733,0.8754351999871651,1.1749999999956344
0.2017,0.9444,-0.2752,0.0446,0.1465,-0.1106,-0.4812,1.5225,-6.6588,-16.37161680907001,11.431644880215737,0.8982726999862789,1.1899999999950523
0.2017,0.9444,-0.2727,0.0438,0.1457,-0.1077,0.2187,1.855,-6.8162,-16.22043534220906,11.512051788477338,0.8982726999862789,1.1899999999950523
0.2052,0.9493,-0.2727,0.0438,0.1457,-0.1077,-0.4812,2.24,-6.3525,-16.146219464967555,11.644040611745805,0.9341126999772823,1.205999999991036
0.2101,0.9545,-0.2715,0.0437,0.1464,-0.1133,-0.4812,2.24,-6.3525,-16.04305490093791,11.82618542917451,0.9341126999772823,1.205999999991036
0.215,0.9595,-0.2595,0.0437,0.1464,-0.1133,-1.5488,2.66,-6.1687,-15.764072003962648,12.059978701105234,0.976672699985953,1.2219999999942956
0.2197,0.9633,-0.2582,0.0437,0.1464,-0.1133,-3.325,3.8675,-6.16,-15.240609931188395,12.28463087403106,0.976672699985953,1.2219999999942956
0.2158,0.9673,-0.2596,0.0438,0.1449,-0.1057,-3.5612,4.3225,-6.125,-15.085847083802934,12.2067553442253,1.0415102000148873,1.2370000000009895
0.2158,0.9673,-0.2596,0.0438,0.1449,-0.1057,-3.5612,4.3225,-6.125,-15.041053556173349,12.177400232604727,1.0415102000148873,1.2370000000009895
0.2054,0.9713,-0.2571,0.045,0.146,-0.1088,-4.55,4.6375,-6.2475,-14.874388784286008,11.800194450674587,1.1157101999962615,1.2529999999969732
0.1995,0.9683,-0.2547,0.045,0.146,-0.1088,-5.355,4.445,-7.1575,-14.763300573832568,11.5967423240679,1.1157101999962615,1.2529999999969732
0.1913,0.9634,-0.2498,0.045,0.146,-0.1088,-6.2038,3.9113,-8.0588,-14.57336570057318,11.439596693331081,1.1743796999939848,1.2679999999963911
0.1834,0.9573,-0.2513,0.045,0.1455,-0.1036,-6.2038,3.9113,-8.0588,-14.68658386454482,11.23308348933993,1.1743796999939848,1.2679999999963911
0.1834,0.9573,-0.252,0.045,0.1455,-0.1036,-6.6762,2.625,-8.4,-14.738636667731969,10.950437418989717,1.216379699983442,1.2839999999923748
0.1755,0.9544,-0.252,0.0452,0.1458,-0.1063,-6.2913,1.3125,-8.995,-14.782393716889166,10.47335949615591,1.216379699983442,1.2839999999923748
0.1676,0.9536,-0.2521,0.0452,0.1458,-0.1063,-6.2913,1.3125,-9.7212,-14.804121989234677,9.925416555479686,1.2373796999877202,1.2999999999956344
0.1656,0.9553,-0.255,0.0452,0.1458,-0.1063,-4.9875,0.14,-9.7212,-14.916617766979769,9.649757307594589,1.2373796999877202,1.2999999999956344
0.1637,0.9493,-0.2581,0.0442,0.145,-0.1009,-3.745,-1.82,-10.465,-15.129495772419064,9.502410958247575,1.2100796999755374,1.3150000000023283
0.1671,0.9496,-0.257,0.0442,0.145,-0.1009,-2.7738,-3.5263,-10.7887,-15.138413933118228,9.605799981393098,1.2100796999755374,1.3150000000023283
0.1671,0.9496,-0.257,0.0455,0.147,-0.1046,-2.7738,-3.5263,-10.7887,-15.141757039444249,9.631577496113403,1.1536588999897002,1.330999999998312
0.1729,0.9493,-0.2528,0.0455,0.147,-0.1046,-1.0412,-4.5675,-10.4825,-15.127732528119516,9.887301902172469,1.0851463999923587,1.34599999999773
0.176,0.9516,-0.263,0.0455,0.147,-0.1046,-0.5863,-5.2587,-9.38,-15.237811960048287,10.02309334317017,1.0851463999923587,1.34599999999773
0.1774,0.9524,-0.2627,0.0476,0.1461,-0.0964,0.1138,-5.88,-8.9775,-15.338166599639399,10.10844731928227,1.0851463999923587,1.34599999999773
0.1776,0.9516,-0.2638,0.0476,0.1461,-0.0964,0.1138,-5.88,-8.9775,-15.42396603969119,10.156012407193026,0.9910664000159748,1.3619999999937136
0.1776,0.9516,-0.2649,0.0467,0.1463,-0.1035,0.6475,-6.3437,-7.875,-15.507912250761146,10.159259019037746,0.9910664000159748,1.3619999999937136
0.1781,0.9475,-0.2649,0.0467,0.1463,-0.1035,0.9363,-6.2125,-7.5075,-15.583034332958508,10.180899209042659,0.8916663999957244,1.3779999999969732
0.1754,0.9466,-0.2713,0.0486,0.1478,-0.1021,0.9887,-5.4338,-7.2187,-15.86022996486609,10.151810993733683,0.8101593999988873,1.3929999999963911
0.1762,0.9495,-0.2706,0.0486,0.1478,-0.1021,0.9887,-5.4338,-7.2187,-15.891978164472448,10.139964533431458,0.8101593999988873,1.3929999999963911
0.1806,0.9509,-0.2726,0.0486,0.1478,-0.1021,1.26,-6.4225,-7.1137,-15.965319218148696,10.22243788363596,0.7073993999779523,1.4089999999996508
0.182,0.9501,-0.2746,0.0476,0.1466,-0.1014,0.9887,-5.985,-7.0,-16.070337248125604,10.312066324070898,0.7073993999779523,1.4089999999996508
0.182,0.9501,-0.2746,0.0476,0.1466,-0.1014,1.0588,-5.8362,-7.0262,-16.104628918688917,10.361510132461294,0.6198563999813494,1.4239999999990687
0.1843,0.9482,-0.2744,0.0498,0.1462,-0.1122,1.0588,-5.8362,-7.0262,-16.1287811511678,10.4534561342098,0.6198563999813494,1.4239999999990687
0.1879,0.9504,-0.2724,0.0498,0.1462,-0.1122,0.98,-4.7688,-7.1312,-16.03710361278436,10.574213887242843,0.5435556000005025,1.4399999999950523
0.1889,0.95,-0.276,0.0498,0.1462,-0.1122,0.805,-4.48,-7.5512,-16.144025651854225,10.61784360937497,0.5435556000005025,1.4399999999950523
0.1885,0.9506,-0.2739,0.0502,0.1457,-0.1103,0.2013,-4.2525,-7.49,-16.10405259599847,10.655887956925417,0.47551559998664095,1.455999999998312
0.1885,0.9506,-0.2735,0.0502,0.1457,-0.1103,0.2013,-4.2525,-7.49,-16.074114136915764,10.685691765139595,0.47551559998664095,1.455999999998312
0.1898,0.9507,-0.2735,0.0513,0.1462,-0.1054,0.0263,-3.9987,-7.4113,-16.061103482207116,10.732673163682152,0.4155351000180629,1.470999999990454
0.1886,0.9514,-0.2799,0.0513,0.1462,-0.1054,-0.1838,-3.0712,-7.525,-16.220724308421545,10.739730476615625,0.4155351000180629,1.470999999990454
0.1849,0.9501,-0.2793,0.0513,0.1462,-0.1054,-0.1838,-3.0712,-7.56,-16.29796400896558,10.710432014952296,0.3663959000080519,1.4869999999937136
0.1896,0.9511,-0.2778,0.0489,0.1478,-0.1038,0.1925,-2.765,-7.56,-16.289045660369958,10.73231580442814,0.3663959000080519,1.4869999999937136
0.1886,0.9545,-0.2786,0.0489,0.1478,-0.1038,0.4288,-2.6775,-7.2275,-16.278420676229192,10.73505786998852,0.326233399990129,1.5020000000004075
0.1886,0.9545,-0.2786,0.0524,0.15,-0.1047,0.84,-2.0912,-7.4812,-16.273848207460652,10.73619777842688,0.326233399990129,1.5020000000004075
0.1894,0.9561,-0.2818,0.0524,0.15,-0.1047,0.84,-2.0912,-7.4812,-16.371914352772553,10.741366961665756,0.29277419999852794,1.5179999999963911
0.1878,0.9557,-0.2758,0.0524,0.15,-0.1047,0.56,-1.7938,-7.2362,-16.20030487438963,10.72389106084923,0.29277419999852794,1.5179999999963911
0.1881,0.9577,-0.2763,0.0515,0.1465,-0.1057,0.7262,-1.2513,-7.0963,-16.130915422273688,10.708812804921838,0.27275339999444914,1.5339999999996508
0.1836,0.9581,-0.279,0.0515,0.1465,-0.1057,1.0325,-0.4812,-7.0963,-16.202267589553554,10.593815425384486,0.27275339999444914,1.5339999999996508
0.1836,0.9581,-0.2772,0.0514,0.1472,-0.105,1.0325,-0.4812,-7.0963,-16.15735323260055,10.527507931214922,0.26553539999823045,1.5489999999917927
0.1836,0.9565,-0.2772,0.0514,0.1472,-0.105,0.7613,-0.56,-7.3063,-16.16033806305093,10.50137694214368,0.26553539999823045,1.5489999999917927
0.1822,0.9575,-0.278,0.0514,0.1478,-0.1042,0.7613,-0.4112,-7.84,-16.17971848531928,10.492874483511699,0.25895619999689007,1.5649999999950523
0.1783,0.9587,-0.2807,0.0528,0.1478,-0.1042,0.9275,-0.1925,-7.35,-16.273507556623965,10.381145203367327,0.25895619999689007,1.5649999999950523
0.1762,0.9577,-0.2771,0.0528,0.1478,-0.1042,0.9275,-0.1925,-7.35,-16.182145279161418,10.273697060822915,0.2560686999956015,1.5800000000017462
0.1736,0.9517,-0.2793,0.0525,0.1485,-0.1087,1.015,-0.7,-7.1487,-16.300051137141136,10.140129557399403,0.2560686999956015,1.5800000000017462
0.1736,0.9517,-0.2793,0.0525,0.1485,-0.1087,1.7763,-0.7088,-7.2888,-16.341319391271565,10.070404647756472,0.24472789999844827,1.59599999999773
0.1692,0.9484,-0.2835,0.0531,0.1458,-0.1084,2.1962,-1.6187,-7.4637,-16.572645659876045,9.9818405730239,0.24472789999844827,1.59599999999773
0.1643,0.9525,-0.284,0.0531,0.1458,-0.1084,2.1962,-1.6187,-7.4637,-16.59565266008144,9.839450234438413,0.2188286999931719,1.6120000000009895
0.1693,0.9567,-0.2842,0.0531,0.1458,-0.1084,2.5463,-1.9162,-7.3675,-16.55567295385804,9.777856019951953,0.2188286999931719,1.6120000000009895
0.1723,0.9576,-0.2897,0.0522,0.1494,-0.1102,2.2925,-1.9775,-6.8075,-16.769172656697798,9.77479945991219,0.18916620000871115,1.6269999999931315
0.1723,0.9576,-0.2897,0.0522,0.1494,-0.1102,0.0525,-2.03,-6.7987,-16.802890665593388,9.773241096361842,0.18916620000871115,1.6269999999931315
0.1731,0.9564,-0.2909,0.0513,0.15,-0.1077,2.1613,-2.03,-6.7987,-16.89082626161994,9.798275296152905,0.1566862000020941,1.6429999999963911
0.1717,0.9556,-0.2928,0.0513,0.15,-0.1077,2.3537,-1.505,-6.125,-17.0029000050484,9.766907815244359,0.1566862000020941,1.6429999999963911
0.1732,0.958,-0.2924,0.0513,0.15,-0.1077,1.6275,-1.3825,-5.8625,-16.981151617675398,9.79552903469138,0.13594870000289883,1.657999999995809
0.1767,0.958,-0.2941,0.0526,0.1481,-0.1004,1.6275,-1.3825,-5.8625,-17.043390704698332,9.929789877269517,0.13594870000289883,1.657999999995809
0.1789,0.9606,-0.2944,0.0526,0.1481,-0.1004,1.015,-1.0938,-5.2063,-17.040406070130516,10.049777276719572,0.11844789999933344,1.6739999999990687
0.1789,0.9606,-0.2944,0.0518,0.1475,-0.108,0.4025,-0.8225,-4.8738,-17.03955988354431,10.08448496833125,0.11844789999933344,1.6739999999990687
0.1825,0.9618,-0.2899,0.0518,0.1475,-0.108,-0.4638,-0.2975,-4.62,-16.935514015153764,10.245822265682344,0.1136878999983637,1.6900000000023283
0.1834,0.9593,-0.2907,0.0518,0.1475,-0.108,-0.4638,-0.2975,-4.62,-16.90541715643896,10.338939734129188,0.10922540000070147,1.7049999999944703
0.1843,0.9592,-0.2915,0.0526,0.1495,-0.1084,-1.2337,0.1225,-4.6112,-16.905254459544715,10.39811963241166,0.10922540000070147,1.7049999999944703
0.1828,0.9587,-0.2848,0.0526,0.1495,-0.1084,-2.03,0.7175,-4.83,-16.732283113767615,10.368306328321445,0.12070540000304025,1.72099999999773
0.1828,0.9587,-0.2692,0.0532,0.1477,-0.1068,-2.4237,1.3737,-5.215,-16.136656888888233,10.392725736406701,0.12070540000304025,1.72099999999773
0.1828,0.9556,-0.2806,0.0532,0.1477,-0.1068,-2.4237,1.3737,-5.215,-16.266026214469036,10.398349427456816,0.14131090000224064,1.7359999999971478
0.1809,0.9531,-0.2829,0.0532,0.1494,-0.1028,-2.7037,1.9162,-5.5563,-16.429598347964742,10.339121855295623,0.14131090000224064,1.7359999999971478
0.1787,0.9518,-0.2777,0.0516,0.1494,-0.1028,-2.8875,1.9512,-5.7838,-16.324365551220943,10.25779342861874,0.172530099994404,1.7519999999931315
0.1805,0.9524,-0.2746,0.0516,0.1494,-0.1028,-2.9662,1.785,-5.7137,-16.167752668619116,10.300135462744574,0.172530099994404,1.7519999999931315
0.1811,0.9504,-0.2759,0.0514,0.1481,-0.1037,-2.9662,1.785,-5.7137,-16.18088856580566,10.347321727953842,0.20109010000022243,1.7679999999963911
0.1811,0.9504,-0.2759,0.0514,0.1481,-0.1037,-2.6337,2.1437,-6.2737,-16.18515665595593,10.361052738347949,0.20109010000022243,1.7679999999963911
0.179,0.9497,-0.2705,0.0514,0.1461,-0.1062,-2.87,2.2662,-6.7025,-16.002136058604286,10.316202832184892,0.2350830999989033,1.782999999995809
0.1785,0.95,-0.2704,0.0514,0.1461,-0.1062,-2.3363,2.2487,-6.6937,-15.93919397677811,10.278515387897661,0.2350830999989033,1.782999999995809
0.173,0.9512,-0.2708,0.0514,0.1461,-0.1062,-2.3363,2.2487,-6.6937,-15.912766649824313,10.093091317536947,0.2710623000062332,1.7989999999990687
0.172,0.9534,-0.2672,0.0528,0.1479,-0.1105,-1.8288,2.24,-6.79,-15.80508291666641,9.974632016991187,0.2710623000062332,1.7989999999990687
0.172,0.9534,-0.2647,0.0528,0.1479,-0.1105,-1.365,2.0038,-7.3587,-15.745782819204566,9.941151012239347,0.3011192999904873,1.8139999999912106
0.172,0.9553,-0.2647,0.0521,0.1489,-0.1073,-1.365,2.0038,-7.0525,-15.692634914844028,9.900063760270486,0.3011192999904873,1.8139999999912106
0.1658,0.9556,-0.27,0.0521,0.1489,-0.1073,-1.5137,1.015,-7.0525,-15.71716964093664,9.723065809729254,0.3173592999937958,1.8299999999944703
0.1663,0.9552,-0.2686,0.0521,0.1489,-0.1073,-1.2775,0.2362,-6.9388,-15.715515187485444,9.627824225974773,0.3173592999937958,1.8299999999944703
0.1652,0.9577,-0.2696,0.0534,0.1499,-0.107,-0.6825,-0.1663,-7.0875,-15.717541402184196,9.546026176136934,0.3146984999932537,1.84599999999773
0.1644,0.9607,-0.2707,0.0534,0.1499,-0.107,-0.6825,-0.1663,-7.0875,-15.723165662583087,9.467307298668638,0.3146984999932537,1.84599999999773
0.1644,0.9607,-0.2707,0.0523,0.1476,-0.1074,-0.4812,-0.7262,-6.8075,-15.728271297278495,9.411152956883312,0.30380549999367645,1.8609999999971478
0.1667,0.9608,-0.2666,0.0523,0.1476,-0.1074,-0.7875,-0.7,-6.5538,-15.675068246474657,9.455202574632334,0.30380549999367645,1.8609999999971478
0.1695,0.9605,-0.2699,0.0523,0.1476,-0.1074,-0.28,-1.2687,-6.5012,-15.68423722853915,9.559927523677922,0.28350629998954097,1.8770000000004075
0.1671,0.9619,-0.2718,0.0514,0.1491,-0.1122,-0.28,-1.2687,-6.5012,-15.72687100892026,9.52102120273736,0.28350629998954097,1.8770000000004075
0.1692,0.9617,-0.2714,0.0514,0.1491,-0.1122,-0.455,-1.3563,-6.2213,-15.739747644191365,9.57546963830493,0.26316180000019884,1.8919999999925494
0.1692,0.9617,-0.2714,0.0523,0.1484,-0.1126,-0.5075,-1.7413,-5.6962,-15.747152831386792,9.599098391845207,0.26316180000019884,1.8919999999925494
0.169,0.9582,-0.2705,0.0523,0.1484,-0.1126,-0.7788,-1.9512,-5.3987,-15.751401833856145,9.623306733844519,0.23194259999383865,1.907999999995809
0.1676,0.9582,-0.2728,0.0523,0.1482,-0.1071,-0.7788,-1.9512,-5.3987,-15.785998622915848,9.571165232549669,0.23194259999383865,1.907999999995809
0.1697,0.9573,-0.2713,0.0518,0.1482,-0.1071,-0.49,-2.4062,-5.1975,-15.800027450416893,9.648748015573474,0.19344339998599533,1.9239999999990687
0.174,0.9573,-0.2722,0.0518,0.1482,-0.1071,0.3413,-2.1,-5.2325,-15.842974235194337,9.841230335370204,0.19344339998599533,1.9239999999990687
0.1753,0.9546,-0.2721,0.0519,0.1485,-0.1091,-0.07,-1.7325,-4.6988,-15.876938398597659,9.972649019404706,0.16745589998700378,1.9389999999984866
0.1753,0.9546,-0.2721,0.0519,0.1485,-0.1091,-0.07,-1.7325,-4.6988,-15.893618790393111,10.004866761755919,0.16745589998700378,1.9389999999984866
0.1773,0.9554,-0.2686,0.0516,0.1482,-0.1064,0.1225,-1.2687,-4.9963,-15.788382907133068,10.096231422049081,0.1471566999828683,1.9550000000017462
0.1789,0.9508,-0.2719,0.0516,0.1482,-0.1064,-0.1925,-1.5225,-4.7337,-15.869807417368172,10.215156775290378,0.1471566999828683,1.9550000000017462
0.1768,0.9538,-0.2755,0.0516,0.1482,-0.1064,0.07,-1.155,-4.5675,-16.000208379222784,10.125513416053707,0.12983169999194433,1.9699999999938882
0.1785,0.9519,-0.2743,0.0522,0.1481,-0.1129,0.07,-1.155,-4.5675,-16.040573713599713,10.193284941754127,0.12983169999194433,1.9699999999938882
0.1785,0.9519,-0.2757,0.0522,0.1481,-0.1129,0.245,-1.0938,-4.2,-16.104992683189263,10.206719539296303,0.11233089998837895,1.9859999999971478
0.1796,0.9545,-0.2757,0.0514,0.1483,-0.1071,-0.2713,-1.505,-3.9288,-16.107705936806564,10.238522610048857,0.11233089998837895,1.9859999999971478
0.1783,0.9531,-0.2783,0.0514,0.1483,-0.1071,-0.2713,-1.505,-4.2525,-16.184970212158955,10.19323126827863,0.08825089999442352,2.0019999999931315
0.1814,0.9556,-0.2726,0.0514,0.1483,-0.1071,0.3413,-1.0938,-4.2525,-16.029230433922404,10.311630807964642,0.08825089999442352,2.0019999999931315
0.1864,0.9532,-0.2752,0.0506,0.1486,-0.1074,0.3762,-1.3825,-4.5937,-16.07390848891724,10.561971659378438,0.06751339998516923,2.0169999999998254
0.1845,0.9552,-0.2747,0.0506,0.1486,-0.1074,-0.1488,-0.9187,-4.2962,-16.059463570642343,10.526328304880106,0.052814199982174605,2.033000000003085
0.1845,0.9552,-0.2747,0.0525,0.1478,-0.1069,-0.1488,-0.9187,-4.2962,-16.052083823259043,10.518375177837438,0.052814199982174605,2.033000000003085
0.1862,0.9576,-0.2716,0.0525,0.1478,-0.1069,0.175,-0.5337,-4.4538,-15.929995287268142,10.577758346288903,0.052814199982174605,2.033000000003085
0.1871,0.956,-0.2742,0.0525,0.1478,-0.1069,-0.2713,-0.735,-4.445,-15.96364702131259,10.636637078560973,0.04178919998795026,2.047999999995227
0.1854,0.9553,-0.274,0.0515,0.1472,-0.1067,-0.9187,-0.7437,-4.4538,-15.970017381094964,10.583293370610681,0.04178919998795026,2.047999999995227
0.1849,0.9553,-0.2717,0.0515,0.1472,-0.1067,-0.9187,-0.7437,-4.4538,-15.955246255475185,10.554577846598791,0.029889999985526078,2.0639999999984866
0.1849,0.9553,-0.2735,0.0514,0.149,-0.1025,-1.05,-0.3938,-4.7162,-15.95636520019286,10.544203235333917,0.023589199987107706,2.0799999999944703
0.1851,0.9542,-0.2735,0.0514,0.149,-0.1025,-1.05,-0.385,-5.145,-15.958354101192755,10.557788844383927,0.023589199987107706,2.0799999999944703
0.1848,0.9561,-0.2713,0.0514,0.1478,-0.1058,-0.9363,-0.4025,-5.18,-15.94140910403863,10.540263849859546,0.01755169998734199,2.094999999993888
0.1837,0.9583,-0.2683,0.0505,0.1478,-0.1058,-0.9363,-0.4025,-5.18,-15.89777556998457,10.481438014011976,0.017149199985795702,2.09599999999773
0.1864,0.9538,-0.2677,0.0505,0.1478,-0.1058,-1.5137,-0.315,-5.0575,-15.83404692887153,10.609143721481733,0.01210919998476892,2.1120000000009895
0.1877,0.9547,-0.2706,0.051,0.1483,-0.1018,-1.0412,-0.0613,-5.5213,-15.833485335303816,10.679878049916136,0.01210919998476892,2.1120000000009895
0.1877,0.9547,-0.2706,0.051,0.1483,-0.1018,-1.3212,-0.1925,-5.4075,-15.831955670507467,10.701923495500996,0.009221699986281591,2.1269999999931315
0.1877,0.9589,-0.2661,0.051,0.1454,-0.1051,-1.3212,-0.1925,-5.4075,-15.774911977237807,10.68754429966827,0.009221699986281591,2.1269999999931315
0.1829,0.9561,-0.2647,0.051,0.1454,-0.1051,-1.82,-0.1925,-5.1712,-15.649977189444195,10.51291236965866,0.006141699985654113,2.142999999996391
0.1799,0.9531,-0.2683,0.051,0.1454,-0.1051,-1.4262,-0.6037,-5.2675,-15.667448518675222,10.359065821642657,0.006141699985654113,2.142999999996391
0.1771,0.9511,-0.2675,0.0498,0.1462,-0.1027,-0.8925,-0.9187,-5.4513,-15.674730809590761,10.221508084760965,-0.008557500017340508,2.1589999999996508
0.1771,0.9511,-0.2519,0.0498,0.1462,-0.1027,-0.8925,-0.9187,-5.4513,-15.526762196144695,10.209217740764489,-0.008557500017340508,2.1589999999996508
0.1775,0.9546,-0.2653,0.051,0.1481,-0.1059,-0.4812,-1.2425,-5.8625,-15.528599851852354,10.174839718463438,-0.027195000016617274,2.1739999999990687
0.177,0.9573,-0.2679,0.051,0.1481,-0.1059,-0.2187,-1.435,-5.95,-15.578277545070927,10.123847107978756,-0.027195000016617274,2.1739999999990687
0.1811,0.9581,-0.2676,0.051,0.1481,-0.1059,-0.2187,-1.435,-6.1863,-15.590934628879722,10.242979658856822,-0.050155000021294846,2.1900000000023283
0.1829,0.9575,-0.2629,0.0519,0.1468,-0.1076,-0.7175,-1.6275,-6.1863,-15.524423703701219,10.362106306723835,-0.050155000021294846,2.1900000000023283
0.1806,0.9543,-0.2654,0.0519,0.1468,-0.1076,-1.2687,-1.855,-6.1075,-15.526847416278464,10.344004565443386,-0.07798000000671819,2.2049999999944703
0.1806,0.9543,-0.2654,0.0513,0.1482,-0.1059,-1.3825,-1.5838,-6.2038,-15.530076036503184,10.337377669698187,-0.07798000000671819,2.2049999999944703
0.1787,0.9535,-0.2638,0.0513,0.1482,-0.1059,-1.3825,-1.5838,-6.2038,-15.515965178987475,10.27715228251205,-0.10332080001188079,2.22099999999773
0.1804,0.9503,-0.2627,0.0513,0.1482,-0.1059,-1.05,-1.4262,-6.5625,-15.512609747870075,10.327453366130104,-0.10332080001188079,2.22099999999773
0.1792,0.9492,-0.2632,0.0521,0.1488,-0.0998,-0.4112,-1.2775,-5.9588,-15.50660162333045,10.31672903428574,-0.12376080000674994,2.2369999999937136
0.1782,0.9542,-0.2626,0.0521,0.1488,-0.0998,-0.42,-1.6275,-5.845,-15.457986318487526,10.244581633031231,-0.12376080000674994,2.2369999999937136
0.1782,0.9542,-0.2669,0.0517,0.1467,-0.1136,-0.42,-1.6275,-5.845,-15.526715063063957,10.212340760483672,-0.14817330001764423,2.2520000000004075
0.1771,0.9522,-0.2669,0.0517,0.1467,-0.1136,-0.14,-1.75,-5.6788,-15.591273254383399,10.172390992471469,-0.14817330001764423,2.2520000000004075
0.1737,0.9536,-0.2697,0.0522,0.1476,-0.1086,0.3325,-1.96,-5.5125,-15.709762474063744,10.012293385278877,-0.17953330000977222,2.267999999996391
0.1799,0.9563,-0.2657,0.0522,0.1476,-0.1086,0.35,-1.7763,-6.055,-15.601711850753544,10.17763281364604,-0.17953330000977222,2.267999999996391
0.1807,0.9595,-0.2656,0.0522,0.1476,-0.1086,0.35,-1.7763,-6.055,-15.525204959170857,10.247025022656597,-0.20617780000873828,2.282999999995809
0.1806,0.959,-0.2703,0.0519,0.1474,-0.1046,0.1488,-1.855,-5.5475,-15.645199158397995,10.265527830482476,-0.20617780000873828,2.282999999995809
0.1806,0.959,-0.2703,0.0519,0.1474,-0.1046,0.5512,-1.5488,-5.8275,-15.704833113083676,10.271011866444546,-0.2309586000137868,2.2989999999990687
0.1792,0.9573,-0.2666,0.0511,0.148,-0.1022,0.0962,-1.8112,-5.6788,-15.626893929580138,10.238036198764508,-0.2309586000137868,2.2989999999990687
0.1817,0.9559,-0.2684,0.0511,0.148,-0.1022,0.0962,-1.8112,-5.6788,-15.657968555313106,10.327882378423595,-0.2599378000065124,2.3149999999950523
0.1781,0.9567,-0.2719,0.0511,0.148,-0.1022,0.2013,-1.8813,-5.3113,-15.775546702549015,10.202955591658585,-0.2599378000065124,2.3149999999950523
0.1775,0.9555,-0.2673,0.0514,0.1486,-0.1067,-0.035,-2.0038,-5.6613,-15.699703924086354,10.162112832359862,-0.28999480000534605,2.3299999999944703
0.1775,0.9555,-0.2689,0.0514,0.1486,-0.1067,2.205,-1.8112,-5.5388,-15.713633980602454,10.14578382010723,-0.28999480000534605,2.3299999999944703
0.1771,0.9531,-0.2689,0.0513,0.1471,-0.1062,0.3762,-1.8112,-5.5388,-15.738609032844481,10.141249597147565,-0.31897400001124987,2.34599999999773
0.1744,0.9563,-0.2701,0.0513,0.1471,-0.1062,0.0175,-1.7587,-5.4338,-15.756249300968072,10.010160657471616,-0.31897400001124987,2.34599999999773
0.1767,0.9564,-0.272,0.0513,0.1471,-0.1062,-0.4462,-2.4413,-5.6875,-15.80375771748179,10.05519337758544,-0.35559350000982887,2.360999999997148
0.1757,0.9538,-0.2751,0.0512,0.1485,-0.1034,-0.4462,-2.4413,-5.6875,-15.91712342732879,10.042985697414853,-0.35559350000982887,2.360999999997148
0.1789,0.9545,-0.2725,0.0512,0.1485,-0.1034,-0.1488,-2.52,-6.3875,-15.92513488504981,10.143958192248109,-0.39591350001804315,2.3770000000004075
0.1789,0.9545,-0.2725,0.0481,0.148,-0.1093,0.175,-2.6862,-6.1163,-15.929834690978748,10.189295083251702,-0.39591350001804315,2.3770000000004075
0.1822,0.9564,-0.2704,0.0481,0.148,-0.1093,0.6737,-2.135,-5.8713,-15.838397369334368,10.319717833444782,-0.4300735000094683,2.392999999996391
0.181,0.9554,-0.2722,0.0481,0.148,-0.1093,0.6737,-2.135,-5.8713,-15.879514332472976,10.323815979766268,-0.46209850000822555,2.407999999995809
0.1804,0.9537,-0.2725,0.0514,0.1487,-0.0984,0.0088,-2.1437,-5.46,-15.914664128359615,10.31292967918476,-0.46209850000822555,2.407999999995809
0.1799,0.9514,-0.2707,0.0514,0.1487,-0.0984,-0.245,-2.5025,-5.3025,-15.899800244063929,10.309267236900348,-0.5021385000163828,2.4239999999990687
0.1799,0.9514,-0.2755,0.0518,0.1484,-0.0999,0.245,-1.33,-5.2675,-16.043356887767562,10.29856389427555,-0.5021385000163828,2.4239999999990687
0.175,0.9531,-0.2755,0.0518,0.1484,-0.0999,0.245,-1.33,-5.2675,-16.088721287189344,10.087562121514805,-0.5220885000156087,2.4389999999984866
0.1762,0.9567,-0.276,0.0518,0.1487,-0.1068,0.7613,-1.47,-5.565,-16.091124379352827,10.051403220025382,-0.5220885000156087,2.4389999999984866
0.1801,0.9595,-0.2728,0.0514,0.1487,-0.1068,0.1225,-2.1,-5.3812,-15.969897588575861,10.180454186759642,-0.555688500022454,2.4550000000017462
0.1798,0.9577,-0.2727,0.0514,0.1487,-0.1068,0.35,-2.0825,-5.1712,-15.924913985707336,10.220075998265884,-0.555688500022454,2.4550000000017462
0.1801,0.9564,-0.2747,0.0521,0.1474,-0.1129,0.35,-2.0825,-5.1712,-15.984416468692325,10.248244340076699,-0.58900850001409,2.47099999999773
0.1801,0.9564,-0.2747,0.0521,0.1474,-0.1129,0.3762,-1.5488,-5.32,-16.008817746637195,10.255925460098725,-0.58900850001409,2.47099999999773
0.181,0.9572,-0.2746,0.052,0.1483,-0.1078,-0.35,-1.5575,-5.4338,-16.008052988101436,10.288018807607273,-0.6123710000131835,2.485999999997148
0.1805,0.9559,-0.2725,0.052,0.1483,-0.1078,-0.0875,-1.0938,-5.0838,-15.959253854694005,10.291172350397172,-0.6123710000131835,2.485999999997148
0.1761,0.955,-0.2741,0.052,0.1483,-0.1078,-0.0875,-1.0938,-5.0838,-15.987036815520623,10.1158950005563,-0.6298718000087904,2.5019999999931315
0.1787,0.9539,-0.2711,0.0493,0.1476,-0.112,0.1575,-1.33,-5.3463,-15.91904483772196,10.186173860488466,-0.6298718000087904,2.5019999999931315
0.1787,0.9539,-0.2732,0.0493,0.1476,-0.112,-0.0088,-1.155,-5.18,-15.951921767530607,10.202850546637459,-0.6471968000165218,2.5169999999998254
0.1779,0.9535,-0.2732,0.0515,0.1487,-0.1043,-0.0088,-1.155,-5.1013,-15.970925695267942,10.17775478151968,-0.6471968000165218,2.5169999999998254
0.1779,0.9549,-0.2742,0.0515,0.1487,-0.1043,-0.0525,-1.0237,-5.1013,-15.996845429612785,10.159098693283168,-0.6635760000198587,2.533000000003085
0.1808,0.9544,-0.2699,0.0515,0.1487,-0.1043,0.0787,-1.0325,-4.8738,-15.885031107970619,10.286954567742512,-0.6635760000198587,2.533000000003085
0.1773,0.9516,-0.2766,0.0503,0.1485,-0.1026,0.2187,-1.1375,-4.6813,-16.068782201777232,10.178621409706864,-0.6817760000070138,2.5489999999917927
0.1784,0.9537,-0.2706,0.0503,0.1485,-0.1026,0.2187,-1.1375,-4.6813,-15.93874974793076,10.195991460192824,-0.6817760000070138,2.5489999999917927
0.1784,0.9537,-0.2706,0.0507,0.1493,-0.1066,-0.1925,-1.0237,-4.2525,-15.891889932850717,10.200361343960317,-0.6971315000138663,2.5639999999984866
0.1803,0.9522,-0.2682,0.0507,0.1493,-0.1066,0.4112,-0.4025,-4.69,-15.794665570465014,10.297763298890079,-0.6971315000138663,2.5639999999984866
0.1779,0.9529,-0.2726,0.0507,0.1493,-0.1066,0.0525,-0.7875,-4.3313,-15.885799638050736,10.20325329765992,-0.7097315000107034,2.5799999999944703
0.1795,0.9537,-0.2697,0.0506,0.149,-0.1107,0.0525,-0.7875,-4.3313,-15.834673764317527,10.25162229006383,-0.7097315000107034,2.5799999999944703
0.1806,0.9537,-0.2701,0.0506,0.149,-0.1107,0.455,-0.945,-4.1475,-15.82133946754925,10.310019624524552,-0.7239065000170292,2.595000000001164
0.1806,0.9537,-0.2701,0.0502,0.1494,-0.1071,0.525,-0.7262,-4.165,-15.816044421942347,10.322618230844657,-0.7239065000170292,2.595000000001164
0.1825,0.9535,-0.2742,0.0502,0.1494,-0.1071,0.6913,-0.6475,-4.3313,-15.962358913814175,10.400249687469463,-0.7342665000144286,2.610999999997148
0.1793,0.9556,-0.2747,0.0502,0.1491,-0.1053,0.6913,-0.6475,-4.3313,-16.010964119575547,10.26222172483194,-0.7342665000144286,2.610999999997148
0.1807,0.9573,-0.2722,0.0518,0.1491,-0.1053,0.595,-0.7525,-4.3313,-15.9238516887603,10.284290402377971,-0.7463065000114063,2.6269999999931315
0.1842,0.9561,-0.2724,0.0518,0.1491,-0.1053,0.245,-1.0762,-4.6638,-15.911665612763713,10.445276856364172,-0.7463065000114063,2.6269999999931315
0.1841,0.9553,-0.278,0.0503,0.1474,-0.1013,0.2625,-1.1812,-4.9963,-16.092960964987277,10.473281928239023,-0.7640245000193131,2.6419999999998254
0.1841,0.9553,-0.278,0.0503,0.1474,-0.1013,0.2625,-1.1812,-4.9963,-16.169499749455863,10.48068758584409,-0.7640245000193131,2.6419999999998254
0.1826,0.9551,-0.2768,0.0511,0.1481,-0.1123,-0.1312,-1.8637,-5.845,-16.16592251303065,10.430934375337108,-0.7938437000118279,2.657999999995809
0.1839,0.9539,-0.2719,0.0511,0.1481,-0.1123,-0.3237,-2.0387,-5.9325,-16.053441431140484,10.478016429010616,-0.7938437000118279,2.657999999995809
0.1798,0.9535,-0.277,0.0511,0.1481,-0.1123,-0.2013,-1.8725,-6.1687,-16.12260432862421,10.346029704733507,-0.8219312000107379,2.672999999995227
0.1815,0.9547,-0.2744,0.0506,0.1479,-0.0978,-0.2013,-1.8725,-6.1687,-16.08132994102195,10.351293560857185,-0.8219312000107379,2.672999999995227
0.1815,0.9547,-0.2744,0.0506,0.1479,-0.0978,-0.5163,-2.1613,-6.3088,-16.064406483628375,10.353239861692481,-0.8565120000177829,2.6889999999984866
0.1803,0.9551,-0.2733,0.0502,0.1474,-0.107,0.035,-1.7325,-6.055,-16.013222436868315,10.311167605280355,-0.8565120000177829,2.6889999999984866
0.182,0.9531,-0.2739,0.0502,0.1474,-0.107,0.035,-1.7325,-6.545,-16.024023427193512,10.360013696435514,-0.8842320000108247,2.7049999999944703
0.1809,0.9527,-0.2774,0.0502,0.1474,-0.107,0.07,-2.4762,-6.545,-16.137567894760135,10.344623304872846,-0.8842320000108247,2.7049999999944703
0.1793,0.9547,-0.2744,0.0498,0.1485,-0.1078,-0.4025,-2.3625,-6.4837,-16.095499910325117,10.280934039958014,-0.9196695000266389,2.720000000001164
0.1828,0.9537,-0.2726,0.0498,0.1485,-0.1078,-0.5863,-2.135,-6.7112,-16.046327987373363,10.364112174119162,-0.9196695000266389,2.720000000001164
0.1828,0.9537,-0.2726,0.0511,0.1489,-0.1054,-0.5863,-2.135,-6.7112,-16.013975334913745,10.404359437679883,-0.9538295000180641,2.735999999997148
0.1838,0.9549,-0.2729,0.0511,0.1489,-0.1054,-0.1575,-2.065,-6.0988,-15.98251776255866,10.455006137760526,-0.9538295000180641,2.735999999997148
0.1817,0.9567,-0.2726,0.0511,0.1489,-0.1054,-0.35,-2.2925,-5.9675,-15.948819887272528,10.388119834318951,-0.9882170000167297,2.7509999999965657
0.1835,0.956,-0.2724,0.052,0.1474,-0.1115,-0.7875,-2.3363,-6.4225,-15.938043255759274,10.428880402787405,-0.9882170000167297,2.7509999999965657
0.184,0.9537,-0.2737,0.052,0.1474,-0.1115,-0.7875,-2.3363,-6.4225,-15.956113590138559,10.473246377921038,-1.0255978000073465,2.7669999999925494
0.184,0.9537,-0.2737,0.0509,0.1498,-0.1041,-0.7788,-2.3625,-5.8538,-15.970098858322805,10.494785268005064,-1.0633978000150472,2.782999999995809
0.1844,0.9536,-0.2736,0.0509,0.1498,-0.1041,-0.63,-1.6275,-6.055,-15.982602272838037,10.51680897143977,-1.0633978000150472,2.782999999995809
0.1803,0.9553,-0.2715,0.0509,0.1484,-0.1042,-0.0437,-1.365,-5.74,-15.922204098158788,10.364527548312479,-1.0838728000241844,2.798000000002503
0.1867,0.9553,-0.2721,0.0526,0.1484,-0.1042,-0.0437,-1.365,-5.74,-15.91006950684787,10.552756123040696,-1.0838728000241844,2.798000000002503
0.1839,0.9551,-0.2761,0.0526,0.1484,-0.1042,-0.14,-1.4175,-5.775,-16.014952250201578,10.503990832699502,-1.1065528000184912,2.8139999999984866
0.1821,0.9556,-0.2721,0.0505,0.149,-0.1023,-0.8487,-1.4175,-5.6962,-15.990168206206238,10.424065536717688,-1.1065528000184912,2.8139999999984866
0.1821,0.9556,-0.2721,0.0505,0.149,-0.1023,-1.015,-1.2862,-5.6525,-15.982125298001423,10.397955689480082,-1.1258458000177425,2.8289999999979045
0.1817,0.9541,-0.2721,0.0526,0.1471,-0.1083,-1.015,-1.2862,-5.6525,-15.97673656584387,10.384448766715876,-1.1258458000177425,2.8289999999979045
0.1817,0.9532,-0.273,0.0526,0.1471,-0.1083,-0.4725,-1.0412,-5.6875,-15.978742560857228,10.384430587071177,-1.1425050000135606,2.844999999993888
0.1774,0.9564,-0.2719,0.0526,0.1471,-0.1083,-0.1663,-0.805,-5.46,-15.926153667860095,10.196977704994225,-1.1425050000135606,2.844999999993888
0.1826,0.9555,-0.2694,0.0521,0.1493,-0.093,0.0787,-0.9887,-5.425,-15.828248349922283,10.354959209451405,-1.1583242000167835,2.860999999997148
0.1826,0.9555,-0.2694,0.0521,0.1493,-0.093,0.0787,-0.9887,-5.425,-15.783437819544632,10.402077388060103,-1.1583242000167835,2.860999999997148
0.1843,0.9535,-0.2712,0.0514,0.1483,-0.1061,0.0875,-0.7,-5.5125,-15.834414137867414,10.492107629315326,-1.1688242000214693,2.8760000000038417
0.1856,0.9531,-0.2723,0.0514,0.1483,-0.1061,-0.5163,-0.8575,-5.4862,-15.875295893694961,10.570932011663798,-1.1688242000214693,2.8760000000038417
0.1809,0.9556,-0.2693,0.0514,0.1483,-0.1061,-0.5163,-0.8575,-5.4862,-15.824541453314083,10.400735001770382,-1.182544200011786,2.8919999999925494
0.1817,0.9539,-0.2686,0.0512,0.1474,-0.1082,-0.6388,-0.7262,-5.11,-15.793220173397549,10.392811070712577,-1.182544200011786,2.8919999999925494
0.177,0.9518,-0.2743,0.0512,0.1474,-0.1082,-0.0962,-0.63,-5.2325,-15.935560140509857,10.20506628692367,-1.1919942000160033,2.9069999999992433
0.177,0.9518,-0.2743,0.0507,0.1475,-0.1078,0.0088,-0.9187,-5.425,-16.00985805450627,10.153305931330088,-1.1919942000160033,2.9069999999992433
0.177,0.9527,-0.2735,0.0507,0.1475,-0.1078,0.0088,-0.9187,-5.425,-16.01396676508258,10.133346072860427,-1.2066934000123135,2.922999999995227
0.177,0.9551,-0.2734,0.0507,0.1475,-0.1078,0.2275,-0.9975,-5.6962,-15.991077575814973,10.112246172639322,-1.2066934000123135,2.922999999995227
0.179,0.9584,-0.2753,0.0502,0.1473,-0.1154,0.1225,-1.7062,-5.3113,-16.010710775377877,10.158181101555193,-1.2339926000178751,2.9389999999984866
0.1805,0.9578,-0.2736,0.0502,0.1473,-0.1154,-0.1488,-2.2487,-5.6788,-15.977218772387214,10.234470361413779,-1.2339926000178751,2.9389999999984866
0.1805,0.9578,-0.2736,0.0507,0.1479,-0.1067,-0.1488,-2.2487,-5.6788,-15.960108082196502,10.259087121578764,-1.2677231000165663,2.9539999999979045
0.1818,0.9571,-0.2725,0.0507,0.1479,-0.1067,-0.595,-2.2575,-6.16,-15.937207682352343,10.317193822088477,-1.2677231000165663,2.9539999999979045
0.1817,0.9532,-0.2746,0.0507,0.1479,-0.1072,-0.3413,-2.1263,-6.0813,-15.995084068429591,10.356644884202836,-1.3017439000080264,2.969999999993888
0.1803,0.9526,-0.2736,0.0518,0.1494,-0.1072,-0.245,-1.8288,-6.4575,-16.008835370805897,10.330282396809825,-1.3017439000080264,2.969999999993888
0.1806,0.9514,-0.2728,0.0518,0.1494,-0.1072,-0.245,-1.8288,-6.4575,-16.004501052083768,10.336455973039056,-1.329175900020268,2.985000000000582
0.1808,0.9499,-0.2743,0.0516,0.1486,-0.111,-0.6562,-1.9775,-6.545,-16.036305058772886,10.35103130371665,-1.329175900020268,2.985000000000582
0.1808,0.9499,-0.2743,0.0516,0.1486,-0.111,-0.5425,-1.9512,-6.685,-16.061783724212248,10.357204727410611,-1.3603951000124315,3.0009999999965657
0.1795,0.9501,-0.275,0.0541,0.1476,-0.108,-0.1312,-2.17,-6.5625,-16.101743028334063,10.31814320286523,-1.3603951000124315,3.0009999999965657
0.1823,0.9527,-0.2753,0.0541,0.1476,-0.108,-0.1312,-2.17,-6.5625,-16.109577004983223,10.372029519499286,-1.3951151000195048,3.0169999999998254
0.1832,0.9559,-0.2752,0.0541,0.1476,-0.108,-0.3063,-1.7763,-6.6762,-16.087949058878593,10.405196564783408,-1.4217596000055466,3.0319999999919673
0.1825,0.958,-0.2736,0.0519,0.1486,-0.1057,-0.7788,-1.8288,-7.035,-16.05123225822982,10.394540595948737,-1.4217596000055466,3.0319999999919673
0.1825,0.958,-0.2736,0.0519,0.1486,-0.1057,-0.7788,-1.8288,-7.42,-16.023571005026103,10.39076009201643,-1.451020400011508,3.047999999995227
0.1825,0.9578,-0.2718,0.0521,0.1469,-0.107,-0.8225,-1.6712,-7.42,-15.983586398940199,10.389817816290575,-1.451020400011508,3.047999999995227
0.1796,0.9541,-0.2724,0.0521,0.1469,-0.107,-1.2075,-1.7938,-7.8837,-15.979051029728208,10.377383186949773,-1.4779274000235154,3.063000000001921
0.1758,0.952,-0.2736,0.0521,0.1469,-0.107,-1.8637,-2.0475,-8.2425,-16.002900648341726,10.277982293735086,-1.4779274000235154,3.063000000001921
0.1745,0.9537,-0.2754,0.0517,0.1502,-0.103,-1.8637,-2.0475,-8.2425,-16.047827057204408,10.18031303845867,-1.510687400015292,3.0789999999979045
0.1736,0.9547,-0.2726,0.0517,0.1502,-0.103,-1.2337,-2.3712,-8.1988,-16.035165899730995,10.102565687438243,-1.510687400015292,3.0789999999979045
0.1736,0.9547,-0.2726,0.0551,0.1501,-0.106,-1.2513,-2.0387,-8.015,-16.02258343185605,10.067162424155846,-1.5433066000219373,3.095000000001164
0.1751,0.9539,-0.2729,0.0551,0.1501,-0.106,-1.0063,-1.9075,-7.8138,-16.017375199236806,10.065132182947623,-1.5433066000219373,3.095000000001164
0.1744,0.9541,-0.275,0.0551,0.1501,-0.106,-1.0063,-1.9075,-7.8138,-16.0229305795161,10.061549436389022,-1.5719191000069481,3.109999999993306
0.1721,0.9556,-0.2771,0.0551,0.1493,-0.1112,-0.8487,-2.1788,-7.595,-16.053213958784724,10.023184622646692,-1.5719191000069481,3.109999999993306
0.1729,0.9565,-0.2743,0.0551,0.1493,-0.1112,-0.6125,-2.24,-7.5687,-16.036139172148683,9.99448126097121,-1.6077591000142497,3.1259999999965657
0.1729,0.9565,-0.2743,0.0527,0.1482,-0.1025,-0.9013,-2.3187,-7.6737,-16.03025806130673,9.981534722004502,-1.6077591000142497,3.1259999999965657
0.1759,0.9566,-0.2782,0.0527,0.1482,-0.1025,-0.9013,-2.3187,-7.6737,-16.06176880382428,9.984526017043017,-1.6425396000297707,3.1410000000032596
0.1755,0.9581,-0.2774,0.0527,0.1482,-0.111,-0.9625,-2.8175,-7.5425,-16.072524650772355,9.98346880115712,-1.6425396000297707,3.1410000000032596
0.1787,0.9593,-0.2746,0.0526,0.148,-0.111,-1.5137,-3.3338,-7.7962,-16.043937668151464,9.986526291364513,-1.6958804000163812,3.1569999999992433
0.1799,0.9582,-0.2759,0.0526,0.148,-0.111,-2.3975,-3.64,-8.05,-16.05468021128545,10.038000664966711,-1.6958804000163812,3.1569999999992433
0.1781,0.9553,-0.2777,0.0539,0.1471,-0.1044,-2.3975,-3.64,-8.05,-16.141555798464825,10.061903393187048,-1.7541204000017618,3.172999999995227
0.1781,0.9553,-0.2777,0.0539,0.1471,-0.1044,-2.9313,-3.3512,-8.4438,-16.185018491783342,10.097015146666918,-1.7541204000017618,3.172999999995227
0.1783,0.9542,-0.2756,0.0553,0.1489,-0.1089,-3.045,-3.1675,-9.065,-16.13566924524253,10.142219286558264,-1.801632899999918,3.187999999994645
0.1824,0.9504,-0.2758,0.0553,0.1489,-0.1089,-3.1063,-3.0625,-8.6975,-16.16681746341443,10.286445590606403,-1.801632899999918,3.187999999994645
0.1823,0.9547,-0.2809,0.0553,0.1489,-0.1089,-3.1063,-3.0625,-8.6975,-16.319201512230226,10.33157841432637,-1.8506329000099007,3.2039999999979045
0.1825,0.9551,-0.279,0.0581,0.149,-0.1226,-3.0625,-3.4388,-9.3275,-16.295860068062037,10.369113740352534,-1.8506329000099007,3.2039999999979045
0.1825,0.9551,-0.279,0.0581,0.149,-0.1226,-4.165,-3.535,-9.6163,-16.286868392082834,10.384802285187646,-1.903657900007843,3.2189999999973224
0.1874,0.955,-0.275,0.057,0.15,-0.1049,-4.165,-3.535,-10.22,-16.119048594889147,10.593359064401362,-1.903657900007843,3.2189999999973224
0.1863,0.9567,-0.2776,0.057,0.15,-0.1049,-3.955,-3.465,-10.22,-16.16477931692184,10.59308491520501,-1.9590978999939266,3.234999999993306
0.1842,0.9581,-0.2738,0.057,0.15,-0.1049,-4.5325,-3.3512,-10.9113,-15.997404737430669,10.502207531881945,-1.9590978999939266,3.234999999993306
0.1817,0.9545,-0.2705,0.057,0.1481,-0.1018,-5.215,-3.2375,-12.1363,-15.856683725082334,10.40169537704759,-2.0108979000044798,3.2509999999965657
0.1779,0.9497,-0.2738,0.057,0.1481,-0.1018,-5.215,-3.2375,-12.1363,-16.03818177417941,10.240483053187434,-2.0108979000044798,3.2509999999965657
0.1779,0.9497,-0.2738,0.0594,0.149,-0.1037,-5.0312,-3.6837,-13.0638,-16.073385460139818,10.209378732356852,-2.0661534000023356,3.2659999999959837
0.1731,0.9492,-0.2655,0.0594,0.149,-0.1037,-5.145,-3.4475,-13.6588,-15.71542605944223,9.997006101895792,-2.0661534000023356,3.2659999999959837
0.1698,0.9483,-0.2652,0.0594,0.149,-0.1037,-5.1712,-4.4887,-14.42,-15.642124386672826,9.811803274853013,-2.137972600016967,3.2819999999992433
0.1681,0.9504,-0.2654,0.0594,0.1497,-0.1018,-5.1712,-4.4887,-14.42,-15.610271507461839,9.68667049425517,-2.137972600016967,3.2819999999992433
0.1648,0.9542,-0.2639,0.0594,0.1497,-0.1018,-4.725,-5.0575,-14.3238,-15.492279861023336,9.48211558429192,-2.213835099977225,3.2969999999913853
0.1648,0.9542,-0.2639,0.0636,0.1489,-0.101,-5.0487,-5.5037,-14.6912,-15.46627173474656,9.454815308785735,-2.213835099977225,3.2969999999913853
0.1658,0.9579,-0.26,0.0636,0.1489,-0.101,-5.2238,-5.6962,-14.8313,-15.240570983580366,9.479765789205766,-2.3049742999957927,3.312999999994645
0.1638,0.9589,-0.2658,0.0636,0.152,-0.1005,-5.2238,-5.6962,-14.8313,-15.443659067680487,9.364216311823364,-2.3049742999957927,3.312999999994645
0.1606,0.9594,-0.2638,0.0638,0.152,-0.1005,-5.3637,-5.95,-14.9888,-15.387498794621822,9.19260104755537,-2.4001743000151876,3.3289999999979045
0.1584,0.962,-0.2622,0.0638,0.152,-0.1005,-5.4338,-6.5012,-15.4963,-15.27259763050677,9.045717485982085,-2.4001743000151876,3.3289999999979045
0.1575,0.9608,-0.2629,0.065,0.15,-0.097,-5.9062,-6.9738,-15.7675,-15.29779452056699,8.991632724761034,-2.5047813000111283,3.3439999999973224
0.1575,0.9608,-0.2629,0.065,0.15,-0.097,-5.9062,-6.9738,-15.7675,-15.302138791733356,8.98561636932128,-2.5047813000111283,3.3439999999973224
0.1571,0.9614,-0.2639,0.0655,0.151,-0.099,-6.1337,-7.49,-16.2575,-15.341538938939001,8.958194144134634,-2.624621300035543,3.360000000000582
0.1598,0.9629,-0.2603,0.0655,0.151,-0.099,-6.1425,-7.9713,-16.7213,-15.162670276616577,9.087366131306112,-2.744190799972904,3.374999999992724
0.1609,0.9619,-0.2649,0.0655,0.151,-0.099,-6.6062,-7.9713,-17.0275,-15.36107980142473,9.153979101998445,-2.744190799972904,3.374999999992724
0.1618,0.9619,-0.2638,0.0668,0.1498,-0.1029,-6.6062,-7.9713,-17.0275,-15.340055964400168,9.208319176526853,-2.8717315999988875,3.3909999999959837
0.1618,0.9619,-0.2638,0.0668,0.1498,-0.1029,-6.755,-7.9975,-18.0513,-15.33680838033959,9.213672895966404,-2.8717315999988875,3.3909999999959837
0.1634,0.9628,-0.2616,0.0727,0.1517,-0.0954,-7.4375,-7.8138,-18.76,-15.219284380676049,9.293783810509039,-2.9967524000243575,3.4069999999992433
0.1647,0.9633,-0.2638,0.0727,0.1517,-0.0954,-7.4375,-7.8138,-19.8888,-15.301937418532546,9.358630085621872,-2.9967524000243575,3.4069999999992433
0.1657,0.9634,-0.2638,0.0727,0.1517,-0.0954,-7.595,-7.8313,-19.8888,-15.311936081447925,9.414330765863737,-3.1142219000197993,3.4219999999986612
0.1631,0.9627,-0.2663,0.0739,0.1522,-0.0896,-8.54,-8.1112,-20.9212,-15.444554213126967,9.283764270812592,-3.1142219000197993,3.4219999999986612
0.1639,0.9617,-0.2635,0.0739,0.1522,-0.0896,-9.0125,-7.945,-22.0675,-15.336336300110418,9.330898350178606,-3.241341900045697,3.438000000001921
0.1639,0.9617,-0.2635,0.0786,0.1526,-0.0902,-9.0125,-7.945,-22.0675,-15.324185621944597,9.333981099991911,-3.241341900045697,3.438000000001921
0.1626,0.9631,-0.266,0.0786,0.1526,-0.0902,-9.6775,-7.7088,-23.835,-15.427629573716397,9.248440066680502,-3.356973899985121,3.452999999994063
0.158,0.9658,-0.2669,0.0786,0.1526,-0.0902,-10.0363,-8.4175,-25.9263,-15.446130205689332,8.975893045578536,-3.356973899985121,3.452999999994063
0.1579,0.9703,-0.2596,0.0826,0.1534,-0.0886,-11.2875,-8.6625,-27.7463,-15.020277347479484,8.936006726102912,-3.4955739000133574,3.4689999999973224
0.159,0.9753,-0.2604,0.0826,0.1534,-0.0886,-11.2875,-8.6625,-27.7463,-14.95534432148558,8.950358696408573,-3.4955739000133574,3.4689999999973224
0.159,0.9753,-0.2573,0.0854,0.1538,-0.0925,-12.495,-8.4263,-30.0912,-14.793083058881416,8.957691352896463,-3.630394700040824,3.485000000000582
0.1574,0.9767,-0.2573,0.0854,0.1538,-0.0925,-14.2362,-8.2513,-32.095,-14.761019037174474,8.861570408922102,-3.630394700040824,3.485000000000582
0.1524,0.9771,-0.2497,0.0904,0.1558,-0.0924,-15.6187,-7.8837,-35.0262,-14.362698602892035,8.602752530915048,-3.7486501999788735,3.499999999992724
0.1454,0.9765,-0.2489,0.0904,0.1558,-0.0924,-15.6187,-7.8837,-35.0262,-14.303694975837738,8.224199928839075,-3.7486501999788735,3.499999999992724
0.1422,0.9749,-0.2428,0.0904,0.1558,-0.0924,-16.52,-7.21,-37.8175,-14.004478958355149,8.061415960630335,-3.8640102000023755,3.5159999999959837
0.1374,0.9746,-0.2392,0.0946,0.1574,-0.0835,-16.7038,-6.6675,-40.25,-13.802694776050666,7.804233405488059,-3.8640102000023755,3.5159999999959837
0.1374,0.9746,-0.2392,0.0946,0.1574,-0.0835,-17.1238,-7.1925,-43.0588,-13.790518127691762,7.796531601746182,-3.971897699998189,3.5309999999954016
0.1313,0.972,-0.2365,0.1016,0.1583,-0.0793,-17.1238,-7.1925,-43.0588,-13.681851620634806,7.486292861635323,-3.971897699998189,3.5309999999954016
0.1249,0.9695,-0.235,0.1016,0.1583,-0.0793,-18.445,-7.8225,-45.605,-13.62838692125602,7.145514156354593,-4.097057700023687,3.5469999999986612
0.111,0.9702,-0.2302,0.1016,0.1583,-0.0793,-18.8388,-7.6125,-47.5825,-13.362759128661445,6.371395373901022,-4.097057700023687,3.5469999999986612
0.1035,0.9714,-0.2286,0.1094,0.1622,-0.0808,-19.2675,-7.6213,-50.0238,-13.248768967489935,5.931619019036607,-4.218998499993078,3.562999999994645
0.1035,0.9558,-0.2305,0.1094,0.1622,-0.0808,-19.2675,-7.6213,-50.0238,-13.542353439498134,6.007507855692377,-4.218998499993078,3.562999999994645
0.0976,0.9678,-0.2305,0.115,0.1612,-0.0765,-20.3962,-7.455,-51.7212,-13.403687997447923,5.611973246616784,-4.330823499988739,3.577999999994063
0.0903,0.9754,-0.2288,0.115,0.1612,-0.0765,-21.7087,-7.98,-53.795,-13.21059685713122,5.160028618621759,-4.330823499988739,3.577999999994063
0.0786,0.9836,-0.2321,0.115,0.1612,-0.0765,-23.9487,-8.2863,-55.8425,-13.27440943851096,4.461729390507528,-4.463404300015749,3.5939999999973224
0.0719,0.9866,-0.2143,0.1224,0.1654,-0.0782,-22.4438,-8.2863,-55.8425,-12.300529632840046,4.0814064688625775,-4.463404300015749,3.5939999999973224
0.0576,0.9907,-0.2167,0.1224,0.1654,-0.0782,-22.505,-8.2163,-58.4325,-12.336541979237209,3.2668645138114347,-4.586648800010966,3.6089999999967404
0.0576,0.9907,-0.2167,0.1305,0.1691,-0.0699,-23.6425,-8.0325,-60.795,-12.33815338865514,3.25108189428983,-4.586648800010966,3.6089999999967404
0.0421,0.9859,-0.2063,0.1305,0.1691,-0.0699,-23.6425,-8.0325,-63.035,-11.840712604585159,2.40863592396988,-4.715168800037149,3.625
0.0279,0.9838,-0.2011,0.1305,0.1691,-0.0699,-24.3862,-7.7525,-63.1312,-11.564621476124918,1.6060463084631662,-4.715168800037149,3.625
0.0093,0.9858,-0.2008,0.1387,0.1729,-0.0637,-24.9025,-7.4375,-65.5113,-11.515284427851965,0.547962115422288,-4.834168800007277,3.6409999999959837
0.0025,0.9792,-0.1926,0.1387,0.1729,-0.0637,-24.7625,-7.6912,-67.13,-11.143253488408819,0.15023290034011683,-4.834168800007277,3.6409999999959837
0.0025,0.9948,-0.1846,0.1476,0.1774,-0.0622,-24.7625,-7.6912,-67.13,-10.538093678833999,0.14171459162382788,-4.9495368000028,3.6559999999954016
-0.0081,0.9844,-0.1846,0.1476,0.1774,-0.0622,-24.8675,-7.4637,-68.1363,-10.61771026602856,-0.4535019257270457,-4.9495368000028,3.6559999999954016
-0.0257,0.9904,-0.1795,0.1576,0.182,-0.0638,-25.5413,-7.2713,-69.6937,-10.286332079251647,-1.4465843975901538,-5.065877600026502,3.6719999999986612
-0.0355,0.9964,-0.1681,0.1576,0.182,-0.0638,-26.5037,-7.0788,-71.4,-9.602953970073173,-2.003325920858451,-5.172059600022381,3.686999999998079
-0.0462,0.9931,-0.1577,0.1576,0.182,-0.0638,-26.5037,-7.0788,-71.4,-9.044955386483423,-2.620915813263393,-5.172059600022381,3.686999999998079
-0.0662,0.9894,-0.1598,0.1653,0.1854,-0.0578,-25.9875,-6.3787,-71.7675,-9.169713178476236,-3.7612617973374607,-5.274118800043174,3.7030000000013388
-0.0662,0.9894,-0.1598,0.1653,0.1854,-0.0578,-26.2938,-5.5125,-71.015,-9.174535822959784,-3.778805171015827,-5.274118800043174,3.7030000000013388
-0.0769,0.9916,-0.1557,0.1757,0.1906,-0.0566,-25.725,-5.04,-70.14,-8.933454764534527,-4.371524112946852,-5.354758800022931,3.7189999999973224
-0.0903,0.9942,-0.1463,0.1757,0.1906,-0.0566,-25.725,-5.04,-70.14,-8.39314235906119,-5.122710502023559,-5.354758800022931,3.7189999999973224
-0.1093,0.9916,-0.151,0.1757,0.1906,-0.0566,-24.5788,-3.9987,-69.405,-8.647594209335702,-6.201460986680594,-5.414739300020603,3.7339999999967404
-0.1308,0.9926,-0.1442,0.1844,0.1964,-0.0547,-24.6225,-4.1912,-69.0813,-8.281392711827785,-7.410083412311239,-5.414739300020603,3.7339999999967404
-0.1308,1.0082,-0.1344,0.1844,0.1964,-0.0547,-23.6513,-3.5175,-68.1012,-7.622384980007242,-7.329274945941756,-5.471019300032069,3.75
-0.1537,1.0043,-0.1344,0.1938,0.1994,-0.047,-23.6513,-3.5175,-68.1012,-7.6222986951790395,-8.604284848077516,-5.471019300032069,3.75
-0.1738,1.0036,-0.1289,0.1938,0.1994,-0.047,-23.31,-2.9575,-67.5762,-7.331941686710088,-9.727553215781608,-5.515381800030347,3.764999999999418
-0.1933,1.0049,-0.1233,0.1938,0.1994,-0.047,-22.4263,-2.3712,-66.3075,-7.01024663299344,-10.790976031201835,-5.515381800030347,3.764999999999418
-0.2146,1.0052,-0.1188,0.1998,0.2059,-0.0352,-20.1863,-2.0912,-64.5137,-6.753705952136461,-11.949844820414494,-5.548841000021948,3.7809999999954016
-0.2288,1.0056,-0.1109,0.1998,0.2059,-0.0352,-21.6475,-2.0912,-64.5137,-6.314659730428373,-12.729598038549641,-5.548841000021948,3.7809999999954016
-0.2288,1.0056,-0.1109,0.2073,0.2105,-0.0483,-20.3175,-2.5638,-62.2388,-6.2943434460361685,-12.74309381043056,-5.589861800011651,3.7969999999913853
-0.2419,1.0077,-0.1144,0.2073,0.2105,-0.0483,-18.4188,-2.7475,-60.2088,-6.466857774311254,-13.402914731146012,-5.589861800011651,3.7969999999913853
-0.2549,1.0014,-0.1066,0.2073,0.2105,-0.0483,-18.4188,-2.7475,-60.2088,-6.097635106095716,-14.189026958172379,-5.6310743000300425,3.811999999998079
-0.2679,0.998,-0.1005,0.214,0.2146,-0.0428,-17.85,-2.6425,-58.275,-5.7699503734033515,-14.938997252333232,-5.6310743000300425,3.811999999998079
-0.284,1.0025,-0.1026,0.214,0.2146,-0.0428,-16.7213,-2.1525,-56.4287,-5.839112388266501,-15.722770788345846,-5.665514300021397,3.827999999994063
-0.284,1.0086,-0.1036,0.2206,0.2191,-0.0365,-14.5775,-1.82,-53.9175,-5.862896511640736,-15.649396741997794,-5.665514300021397,3.827999999994063
-0.3062,1.0086,-0.1036,0.2206,0.2191,-0.0365,-14.5775,-1.82,-53.9175,-5.864540046015589,-16.77982419507691,-5.692814300020338,3.8429999999934807
-0.3204,1.009,-0.0943,0.2273,0.2242,-0.0384,-12.53,-2.8437,-51.1437,-5.381567098042922,-17.527847965780744,-5.692814300020338,3.8429999999934807
-0.3306,1.0105,-0.0944,0.2273,0.2242,-0.0384,-11.095,-3.8238,-47.5913,-5.341083346265901,-18.030217209241364,-5.753995100032802,3.8589999999967404
-0.34,1.0131,-0.0949,0.2273,0.2242,-0.0384,-9.9575,-3.4037,-43.0938,-5.350393335488084,-18.46428656670202,-5.753995100032802,3.8589999999967404
-0.3407,1.0187,-0.0901,0.2298,0.2271,-0.0327,-9.9575,-3.4037,-43.0938,-5.084476117276097,-18.426329569118856,-5.8084543000191315,3.874999999992724
-0.3407,1.0187,-0.0901,0.2298,0.2271,-0.0327,-8.7762,-3.5963,-38.8675,-5.057898593442428,-18.425288278049536,-5.8084543000191315,3.874999999992724
-0.3441,1.0221,-0.0894,0.2346,0.2318,-0.0346,-7.6125,-3.7362,-35.1312,-5.006644606846548,-18.53633012004946,-5.864497300044142,3.889999999999418
-0.349,1.0188,-0.0919,0.2346,0.2318,-0.0346,-6.5275,-4.5062,-32.1563,-5.131362850434956,-18.826440006573684,-5.864497300044142,3.889999999999418
-0.3504,1.0224,-0.0892,0.2346,0.2318,-0.0346,-6.5275,-4.5062,-32.1563,-5.008793246264211,-18.850263343053797,-5.936596500026043,3.9059999999954016
-0.3498,1.0218,-0.0853,0.2366,0.2336,-0.0414,-6.1512,-4.0075,-28.6825,-4.811167062235562,-18.83769616354812,-5.936596500026043,3.9059999999954016
-0.3498,1.0216,-0.0877,0.2366,0.2336,-0.0414,-5.6087,-3.78,-25.515,-4.889230970448696,-18.83707568743729,-5.993296500023844,3.9209999999948195
-0.3541,1.0216,-0.0877,0.2396,0.2335,-0.0353,-5.3025,-3.4738,-21.8487,-4.903232220591896,-19.037733582788285,-5.993296500023844,3.9209999999948195
-0.3579,1.0225,-0.0886,0.2396,0.2335,-0.0353,-5.3025,-3.4738,-21.8487,-4.942881867311144,-19.212173487172475,-6.0488773000351665,3.936999999998079
-0.3579,1.0238,-0.0827,0.2396,0.2335,-0.0353,-4.2438,-3.57,-18.5325,-4.696657236606743,-19.21076865121299,-6.0488773000351665,3.936999999998079
-0.3557,1.0222,-0.0836,0.2403,0.2352,-0.0366,-3.0363,-3.465,-15.225,-4.682716902796673,-19.137283634117196,-6.10431730002125,3.952999999994063
-0.3529,1.0194,-0.0833,0.2403,0.2352,-0.0366,-3.0363,-3.4213,-12.2325,-4.675347961592815,-19.054711435715475,-6.10431730002125,3.952999999994063
-0.3529,1.0194,-0.0833,0.2422,0.237,-0.0288,-2.7125,-3.4213,-12.2325,-4.672994948945263,-19.039573411778765,-6.155636800044151,3.9680000000007567
-0.3504,1.0184,-0.085,0.2422,0.237,-0.0288,-2.2662,-3.1063,-9.8175,-4.725676883571288,-18.963134807684725,-6.155636800044151,3.9680000000007567
-0.3482,1.0139,-0.0869,0.2422,0.237,-0.0288,-1.8725,-3.3338,-7.5862,-4.80077474437319,-18.951291547561492,-6.208977600030762,3.9839999999967404
-0.3467,1.0164,-0.0846,0.2417,0.2359,-0.0318,-1.8725,-3.3338,-5.6962,-4.78223560162243,-18.831839506197873,-6.258984600028821,3.9989999999961583
-0.343,1.0146,-0.0854,0.2417,0.2359,-0.0318,-0.1312,-3.3775,-5.6962,-4.796587567443518,-18.68690658435476,-6.258984600028821,3.9989999999961583
-0.343,1.0157,-0.0915,0.241,0.2371,-0.0285,0.6125,-2.555,-3.955,-5.018509038495228,-18.609817651446072,-6.299864600037149,4.014999999999418
-0.3381,1.0157,-0.0915,0.241,0.2371,-0.0285,1.0938,-1.7675,-2.3625,-5.107281263461009,-18.383726503288834,-6.299864600037149,4.014999999999418
-0.335,1.0161,-0.088,0.2418,0.2356,-0.0374,1.0938,-1.7675,-2.3625,-4.999004696556954,-18.21463383966211,-6.3281446000300505,4.030999999995402
-0.3295,1.0167,-0.0875,0.2418,0.2356,-0.0374,1.6538,-1.3125,-0.7525,-4.940213327603315,-17.934796253197597,-6.3281446000300505,4.030999999995402
-0.3237,1.0114,-0.0911,0.2418,0.2356,-0.0374,2.8,-1.365,0.8313,-5.104790387479917,-17.706740093757194,-6.3486196000391875,4.0460000000020955
-0.3178,1.01,-0.0941,0.2394,0.235,-0.0335,3.57,-0.2537,2.3712,-5.284380317575013,-17.423505998005414,-6.3486196000391875,4.0460000000020955
-0.3178,1.01,-0.0941,0.2394,0.235,-0.0335,3.57,-0.2537,2.3712,-5.31601958052473,-17.398101736258226,-6.352678800038168,4.061999999998079
-0.3137,1.008,-0.0949,0.2398,0.2338,-0.0291,4.5062,0.3237,3.8763,-5.368934312291652,-17.229545490321296,-6.352678800038168,4.061999999998079
-0.3095,1.0089,-0.0936,0.2398,0.2338,-0.0291,5.5738,1.2513,5.5825,-5.309327329815934,-17.002691390652732,-6.333909300038896,4.076999999997497
-0.309,1.0078,-0.0963,0.2398,0.2338,-0.0291,6.3525,2.1088,7.2275,-5.440694391947887,-16.974988925920076,-6.333909300038896,4.076999999997497
-0.3051,1.0072,-0.0967,0.2375,0.2329,-0.0502,6.3525,2.1088,7.2275,-5.4789565791787735,-16.791961180603263,-6.3001685000473655,4.092999999993481
-0.3051,1.0068,-0.0986,0.2375,0.2329,-0.0502,7.0437,2.8437,9.7212,-5.580866520959994,-16.7836030974248,-6.3001685000473655,4.092999999993481
-0.3011,1.0068,-0.0986,0.2357,0.2313,-0.0362,8.1988,3.8763,11.3575,-5.592157561621543,-16.585585098539,-6.23814770003473,4.10899999999674
-0.294,1.0075,-0.1022,0.2357,0.2313,-0.0362,9.5725,4.83,12.8625,-5.77509439197936,-16.20747072206357,-6.23814770003473,4.10899999999674
-0.2877,1.0132,-0.1077,0.2357,0.2313,-0.0362,9.5725,4.83,12.8625,-6.042534244061553,-15.787941853836443,-6.160867700018986,4.125
-0.2825,1.0127,-0.1055,0.231,0.2295,-0.0409,10.465,5.775,13.9388,-5.955010059039959,-15.519346727468045,-6.160867700018986,4.125
-0.2777,1.0138,-0.1106,0.231,0.2295,-0.0409,10.3512,6.3,15.2338,-6.2042762002223055,-15.244501566720942,-6.060067700044289,4.140999999995984
-0.2777,1.0138,-0.1106,0.2297,0.2264,-0.0481,10.3512,6.93,16.2925,-6.224285727205428,-15.23303424928667,-6.060067700044289,4.140999999995984
-0.2761,1.0158,-0.1122,0.2297,0.2264,-0.0481,10.4125,6.93,16.2925,-6.296753280256217,-15.122828152845065,-5.956117700048323,4.155999999995402
-0.2705,1.0125,-0.1147,0.2297,0.2264,-0.0427,10.8325,7.6213,17.5175,-6.450279012995616,-14.876716880289248,-5.956117700048323,4.155999999995402
-0.267,1.014,-0.118,0.2251,0.2251,-0.0427,11.4712,8.2775,19.4338,-6.623896720015815,-14.665072401869352,-5.823677700021341,4.171999999998661
-0.2675,1.0152,-0.1254,0.2251,0.2251,-0.0427,11.4712,8.2775,20.9737,-7.010878669547093,-14.655421890599174,-5.823677700021341,4.171999999998661
-0.2626,1.0163,-0.1253,0.2234,0.2215,-0.0464,12.7312,8.8725,20.9737,-7.027357491072846,-14.392491327310475,-5.681717700056976,4.187999999994645
-0.2626,1.0163,-0.1253,0.2234,0.2215,-0.0464,12.6525,8.8813,22.6887,-7.0284676923964,-14.38363704127542,-5.681717700056976,4.187999999994645
-0.2611,1.014,-0.1346,0.2188,0.2205,-0.0425,12.74,8.61,24.3337,-7.525437907362749,-14.321267627929796,-5.552567699999342,4.203000000001339
-0.2529,1.0142,-0.133,0.2188,0.2205,-0.0425,12.74,8.61,24.3337,-7.4746788258524095,-13.900535691279943,-5.552567699999342,4.203000000001339
-0.2446,1.0175,-0.1318,0.2188,0.2205,-0.0425,12.8013,8.4875,26.285,-7.386917999852412,-13.423112738988655,-5.41676770003343,4.2189999999973224
-0.2401,1.0198,-0.1361,0.2126,0.2164,-0.0434,13.3875,8.9338,28.21,-7.587777106445891,-13.143736107888948,-5.41676770003343,4.2189999999973224
-0.2401,1.0198,-0.1361,0.2126,0.2164,-0.0434,13.5013,9.4237,30.2925,-7.600747572095562,-13.136171726586621,-5.275412200038915,4.23399999999674
-0.2345,1.0198,-0.1435,0.2099,0.2129,-0.0514,13.5013,9.4237,30.2925,-7.983517939855401,-12.835642717717587,-5.275412200038915,4.23399999999674
-0.2295,1.0179,-0.1445,0.2099,0.2129,-0.0514,13.6675,9.4937,31.85,-8.07356656953681,-12.589813217416564,-5.12351300000797,4.25
-0.2237,1.0142,-0.1473,0.2099,0.2129,-0.0514,13.5625,9.6163,33.1888,-8.251585383240094,-12.31985366242886,-5.12351300000797,4.25
-0.2168,1.011,-0.1468,0.203,0.2097,-0.0527,14.1313,9.6337,34.8338,-8.261138552227974,-11.989073240606217,-4.969373800046662,4.265999999995984
-0.2105,1.0142,-0.152,0.203,0.2097,-0.0527,14.1313,9.6337,34.8338,-8.5074200358778,-11.60837328895552,-4.969373800046662,4.265999999995984
-0.2105,1.0142,-0.152,0.1974,0.2055,-0.0586,14.0437,9.485,36.0412,-8.522582112703708,-11.599638458046227,-4.827098799983171,4.2810000000026776
-0.2041,1.016,-0.1548,0.1974,0.2055,-0.0586,14.175,9.0387,37.5288,-8.65445582827364,-11.240378706576342,-4.827098799983171,4.2810000000026776
-0.1936,1.0152,-0.158,0.1974,0.2055,-0.0586,14.98,8.4963,38.5962,-8.834999347611705,-10.683294102943837,-4.691158000079113,4.296999999991385
-0.1843,1.0176,-0.1612,0.1929,0.2027,-0.0632,14.98,8.4963,38.5962,-8.99179063213072,-10.153335761658637,-4.691158000079113,4.296999999991385
-0.1729,1.0174,-0.1621,0.1929,0.2027,-0.0632,14.42,8.2338,39.9875,-9.049027918515556,-9.539794674791251,-4.567651000023997,4.311999999998079
-0.1729,1.0174,-0.1621,0.1858,0.199,-0.0648,13.755,8.3562,41.1162,-9.052481998599012,-9.527207226724899,-4.567651000023997,4.311999999998079
-0.1632,1.0144,-0.1685,0.1858,0.199,-0.0648,13.3437,8.05,41.9388,-9.406666472623312,-9.02815789308189,-4.438851000056329,4.327999999994063
-0.1552,1.0121,-0.1714,0.1858,0.199,-0.0654,13.3437,8.05,41.9388,-9.598609479555012,-8.606026510702787,-4.438851000056329,4.327999999994063
-0.1432,1.0109,-0.1682,0.1792,0.1959,-0.0654,13.3263,7.4462,42.3413,-9.456540461020841,-7.967454599189545,-4.319711800032057,4.3439999999973224
-0.134,1.0069,-0.1699,0.1792,0.1959,-0.0654,12.9937,7.1487,42.7962,-9.569608501075313,-7.485547800032276,-4.319711800032057,4.3439999999973224
-0.1268,1.0094,-0.1774,0.1714,0.1932,-0.065,12.9937,7.1487,43.4525,-9.941450248851924,-7.0612447394016655,-4.2124813000362185,4.35899999999674
-0.1268,1.0094,-0.1774,0.1714,0.1932,-0.065,12.9237,7.3938,43.4525,-9.966067603122836,-7.053121055888776,-4.2124813000362185,4.35899999999674
-0.12,1.011,-0.1757,0.1645,0.1889,-0.075,13.3525,7.5163,45.1675,-9.865805332619336,-6.677064970719647,-4.092220500066406,4.374999999992724
-0.1046,1.0122,-0.1801,0.1645,0.1889,-0.075,13.5363,7.4375,47.46,-10.074742095004213,-5.8247868488808745,-3.9806580000166205,4.389999999999418
-0.0968,1.0152,-0.1856,0.1645,0.1889,-0.075,13.5363,7.4375,47.46,-10.342196212782206,-5.366733134955577,-3.9806580000166205,4.389999999999418
-0.0842,1.0119,-0.1881,0.1565,0.1838,-0.0815,13.0113,8.0238,49.2625,-10.517952069291942,-4.688746636528519,-3.8522772000488468,4.405999999995402
-0.0842,1.0119,-0.1724,0.1565,0.1838,-0.0815,11.9963,7.7438,49.91,-9.729004571230885,-4.689338694688601,-3.8522772000488468,4.405999999995402
-0.0659,1.0057,-0.184,0.1474,0.1786,-0.0731,11.97,7.7088,50.2775,-10.32260750757118,-3.7049449333154647,-3.728936400023719,4.421999999998661
-0.0612,1.0003,-0.187,0.1474,0.1786,-0.0731,11.97,7.7088,50.2775,-10.569956993079394,-3.4460698536656995,-3.728936400023719,4.421999999998661
-0.0538,1.0015,-0.1887,0.1474,0.1786,-0.0731,11.9875,8.3912,51.3013,-10.663294895472688,-3.028930293297592,-3.6030684000286035,4.436999999998079
-0.045,1.0063,-0.1888,0.1398,0.1774,-0.0743,12.46,9.2487,53.55,-10.62873433979071,-2.5248303505662815,-3.6030684000286035,4.436999999998079
-0.0336,1.0085,-0.1936,0.1398,0.1774,-0.0743,12.8538,9.8263,56.3413,-10.850860320478695,-1.8840079056911234,-3.445847600068069,4.452999999994063
-0.0336,1.0085,-0.1936,0.1313,0.173,-0.0756,12.8538,9.8263,56.3413,-10.86570834063809,-1.8741671419628843,-3.445847600068069,4.452999999994063
-0.0256,1.0061,-0.1971,0.1313,0.173,-0.0756,12.5212,9.5813,58.1,-11.069218649397575,-1.4370218955090253,-3.302128100003933,4.468000000000757
-0.0153,1.0013,-0.2011,0.1313,0.173,-0.0756,11.8825,9.7037,59.15,-11.335631146426616,-0.8668028648849503,-3.302128100003933,4.468000000000757
0.0043,0.9944,-0.1945,0.1214,0.1683,-0.0854,12.11,9.6075,59.2988,-11.085957446853069,0.22684584988987314,-3.14840810004252,4.48399999999674
0.018,0.9952,-0.1968,0.1214,0.1683,-0.0854,12.11,9.6075,59.2988,-11.178848853314367,1.0049054871296692,-3.14840810004252,4.48399999999674
0.018,0.9952,-0.1968,0.1099,0.1654,-0.0818,12.775,9.6163,58.7738,-11.18540515342421,1.0163333286511786,-2.9753147000772238,4.5019999999931315
0.0325,0.9984,-0.1939,0.1099,0.1654,-0.0818,13.1337,10.8325,60.025,-11.003417801825249,1.8184353148886672,-2.9428172001100115,4.504999999990105
0.043,0.9928,-0.1976,0.1099,0.159,-0.0851,12.88,11.9087,61.0662,-11.239752847685182,2.4235941430669277,-2.9428172001100115,4.504999999990105
0.0516,0.9898,-0.2012,0.0999,0.159,-0.0851,12.88,11.9087,61.0662,-11.473447301265825,2.917353100237639,-2.764186700030296,4.519999999996799
0.058,0.986,-0.209,0.0999,0.159,-0.0851,12.8625,12.3025,61.6175,-11.934687245762344,3.2881095784552916,-2.764186700030296,4.519999999996799
0.0705,0.9844,-0.2097,0.0903,0.1556,-0.0886,13.02,11.8737,61.9588,-12.019567400223547,3.9966113145649724,-2.574207499991592,4.536000000000058
0.0705,0.9844,-0.2097,0.0903,0.1556,-0.0886,13.02,11.8737,61.6263,-12.025178876071482,4.006626681058625,-2.574207499991592,4.536000000000058
0.0801,0.9762,-0.2164,0.0794,0.1527,-0.0802,12.7575,11.4275,61.6263,-12.46709849172267,4.571935755929231,-2.40279500008139,4.5509999999922
0.0904,0.969,-0.2128,0.0794,0.1527,-0.0802,12.2413,10.9113,60.8475,-12.391638618060917,5.197338058139519,-2.40279500008139,4.5509999999922
0.1061,0.9673,-0.2077,0.0794,0.1527,-0.0802,12.7137,10.92,60.13,-12.137043758171252,6.1077354611640695,-2.2280750000457945,4.56699999999546
0.1182,0.963,-0.2109,0.0694,0.1508,-0.1046,12.7137,10.92,60.13,-12.338359584139868,6.826527247592164,-2.2280750000457945,4.56699999999546
0.1182,0.963,-0.2109,0.0694,0.1508,-0.1046,12.6088,11.41,60.165,-12.351936757165713,6.83695852454981,-2.045515000091621,4.5829999999914435
0.1319,0.9584,-0.2185,0.057,0.147,-0.093,12.9675,11.4537,60.3488,-12.810440242114563,7.630773076262311,-1.8737095000149513,4.597999999998137
0.1433,0.9563,-0.2176,0.057,0.147,-0.093,13.0288,11.0863,60.6375,-12.818458668488836,8.303036939987862,-1.8737095000149513,4.597999999998137
0.1615,0.9484,-0.2224,0.057,0.147,-0.093,13.0288,11.0863,60.6375,-13.17237282466155,9.397413536153158,-1.696328699978814,4.614000000001397
0.1758,0.9445,-0.2283,0.0472,0.1439,-0.0972,12.2762,10.8413,60.4712,-13.559676774118248,10.242639656561156,-1.696328699978814,4.614000000001397
0.1896,0.9367,-0.2295,0.0472,0.1439,-0.0972,11.8125,10.57,59.57,-13.751910842340484,11.10950943231958,-1.5377787000618734,4.628999999993539
0.1896,0.9367,-0.2295,0.037,0.141,-0.0974,11.9438,10.2025,58.45,-13.765732068548632,11.12218949444719,-1.5377787000618734,4.628999999993539
0.207,0.9288,-0.2271,0.037,0.141,-0.0974,11.9438,10.2025,58.45,-13.741609328259916,12.199231685393821,-1.374538700028617,4.644999999996799
0.2218,0.9226,-0.2305,0.037,0.141,-0.0974,13.2563,10.1325,57.1813,-14.008867621644335,13.11477482611763,-1.374538700028617,4.644999999996799
0.233,0.9189,-0.2306,0.0265,0.1387,-0.1066,14.8575,10.4563,56.2713,-14.08294100800019,13.806197559833103,-1.207237900070613,4.660999999992782
0.2424,0.9125,-0.2294,0.0265,0.1387,-0.1066,15.8813,11.235,56.385,-14.109975120596644,14.43698232715824,-1.207237900070613,4.660999999992782
0.2424,0.9125,-0.2294,0.0163,0.1372,-0.0998,15.8813,11.235,56.385,-14.111478061704405,14.44666245158929,-1.0387128999954074,4.675999999999476
0.2519,0.908,-0.2305,0.0163,0.1372,-0.0998,16.0912,11.5063,57.61,-14.236638689079335,15.041405343601761,-1.0387128999954074,4.675999999999476
0.2654,0.9087,-0.2373,0.0163,0.1358,-0.1075,16.1875,11.6287,59.1063,-14.613699993663529,15.768825812583051,-0.852653700042112,4.69199999999546
0.2786,0.9078,-0.2392,0.0066,0.1358,-0.1075,13.9475,11.6988,59.64,-14.752368570431917,16.51801364917348,-0.852653700042112,4.69199999999546
0.2924,0.9068,-0.2391,0.0066,0.1358,-0.1075,15.4788,11.6988,59.64,-14.770166278453955,17.30558790122666,-0.6771717000489217,4.706999999994878
0.3073,0.901,-0.2399,-0.0044,0.1342,-0.1102,14.9713,11.235,58.8963,-14.90147868265746,18.227501458499308,-0.6771717000489217,4.706999999994878
0.3073,0.901,-0.2399,-0.0044,0.1342,-0.1102,16.0212,11.1562,57.3125,-14.909195600005145,18.241119388242456,-0.4986725000125566,4.722999999998137
0.3137,0.9003,-0.2411,-0.0162,0.133,-0.1129,16.0212,11.1562,57.3125,-14.987435887042853,18.596699990817605,-0.4986725000125566,4.722999999998137
0.3203,0.8999,-0.2427,-0.0162,0.133,-0.1129,17.15,11.3488,56.14,-15.087871784394704,18.959600097502854,-0.3170917000581371,4.738999999994121
0.3308,0.8897,-0.2435,-0.0162,0.133,-0.1129,16.835,11.0775,55.3263,-15.294794754268779,19.7169465764578,-0.3170917000581371,4.738999999994121
0.3426,0.8844,-0.2494,-0.0246,0.1314,-0.0995,16.3713,11.3663,54.39,-15.723854586997135,20.435905828871014,-0.14659719998205242,4.754000000000815
0.3426,0.8844,-0.265,-0.0246,0.1314,-0.0995,16.3713,11.3663,54.39,-16.628464305097527,20.36014682588029,-0.14659719998205242,4.754000000000815
0.3539,0.8816,-0.2505,-0.0362,0.1318,-0.1153,16.205,10.745,54.145,-15.90395202880129,21.101778269608065,0.025322799974792115,4.769999999996799
0.3681,0.8702,-0.2549,-0.0362,0.1318,-0.1153,15.7587,10.3775,52.6925,-16.302776514975523,22.078482026111335,0.025322799974792115,4.769999999996799
0.3762,0.8642,-0.2601,-0.0362,0.1318,-0.1153,15.0325,10.0538,51.2137,-16.724210244157057,22.619417026921294,0.17612979996894004,4.7849999999962165
0.388,0.8584,-0.2658,-0.0466,0.1314,-0.1258,15.0325,10.0538,51.2137,-17.176873832806294,23.341380988054922,0.17612979996894004,4.7849999999962165
0.3966,0.8546,-0.2648,-0.0466,0.1314,-0.1258,15.0675,9.695,49.42,-17.213466480686435,23.89726333989287,0.33124980000054216,4.800999999999476
0.3966,0.8546,-0.2648,-0.0537,0.1314,-0.1184,14.7437,8.7587,47.915,-17.215594689969173,23.906810498245118,0.33124980000054216,4.800999999999476
0.4046,0.8466,-0.2664,-0.0537,0.1314,-0.1184,13.965,8.225,46.0775,-17.451589436816136,24.49609141047882,0.46284979996750786,4.81699999999546
0.4173,0.8399,-0.2702,-0.0537,0.1314,-0.1184,13.965,8.225,46.0775,-17.809493424573418,25.29796755339669,0.46284979996750786,4.81699999999546
0.4268,0.8398,-0.2717,-0.0634,0.1317,-0.1279,13.3263,8.33,44.555,-17.92024592143523,25.79608566484558,0.5877998000232679,4.832000000002154
0.4375,0.8384,-0.2716,-0.0634,0.1317,-0.1279,12.8625,7.7962,43.5138,-17.947780286360597,26.389540504150943,0.5877998000232679,4.832000000002154
0.4375,0.8384,-0.2749,-0.0728,0.1312,-0.127,11.4362,7.7525,41.685,-18.13841689528459,26.37495215445535,0.7118397999357244,4.847999999990861
0.4454,0.8348,-0.2749,-0.0728,0.1312,-0.127,11.4362,7.7525,41.685,-18.22021467154708,26.864677455368145,0.7118397999357244,4.847999999990861
0.4523,0.832,-0.2767,-0.0793,0.1314,-0.1284,11.025,7.6912,40.0925,-18.38232372891644,27.278314681638836,0.8272077999872084,4.862999999997555
0.4599,0.8253,-0.2749,-0.0793,0.1314,-0.1284,9.6775,7.4375,38.2113,-18.419046185746595,27.852651210100337,0.8272077999872084,4.862999999997555
0.4666,0.8183,-0.2766,-0.0793,0.1314,-0.1284,8.785,7.4462,36.645,-18.65256218114868,28.36554983118777,0.9463470000114802,4.879000000000815
0.4728,0.8154,-0.2768,-0.0855,0.1322,-0.1262,8.785,7.4462,36.645,-18.7415683461366,28.760722876654853,0.9463470000114802,4.879000000000815
0.4728,0.8154,-0.2768,-0.0855,0.1322,-0.1262,7.735,7.42,35.2625,-18.749652513824298,28.76941659690911,1.065066999981679,4.894999999996799
0.4778,0.8109,-0.2753,-0.0937,0.1322,-0.1213,6.5363,7.9975,33.8625,-18.75200702656841,29.149943865755755,1.065066999981679,4.894999999996799
0.4815,0.8036,-0.2793,-0.0937,0.1322,-0.1213,6.5363,7.9975,32.6813,-19.1176172597674,29.49986279723148,1.185029499977024,4.9099999999962165
0.4843,0.7989,-0.2763,-0.0937,0.1322,-0.1213,5.845,8.575,32.6813,-19.082958176694184,29.801471932642674,1.185029499977024,4.9099999999962165
0.4916,0.7929,-0.2817,-0.0979,0.1332,-0.1212,5.74,9.0387,31.4212,-19.498338060942395,30.282342796571594,1.3296486999407215,4.9259999999922
0.4916,0.7929,-0.2814,-0.0979,0.1332,-0.1212,5.7925,9.87,30.1963,-19.53451615602061,30.297196544029315,1.47769870000679,4.940999999998894
0.4959,0.7893,-0.2814,-0.105,0.1333,-0.128,5.7925,9.87,30.1963,-19.611001205207902,30.608545848737222,1.47769870000679,4.940999999998894
0.5014,0.7813,-0.279,-0.105,0.1333,-0.128,5.355,10.1938,29.7238,-19.646073126687888,31.133610111492494,1.6407994999658484,4.956999999994878
0.5114,0.7809,-0.2795,-0.105,0.1333,-0.128,5.1625,10.9462,29.2425,-19.686821689425514,31.643424936374974,1.6407994999658484,4.956999999994878
0.5196,0.7788,-0.281,-0.1121,0.1337,-0.1354,5.4513,11.62,28.7787,-19.81975497553707,32.09905715334404,1.8267195000037253,4.972999999998137
0.5289,0.7771,-0.2828,-0.1121,0.1337,-0.1354,5.4513,11.62,28.7787,-19.973818734632985,32.588481320540396,1.8267195000037253,4.972999999998137
0.5289,0.7771,-0.2828,-0.1189,0.1329,-0.131,5.4425,12.32,28.3762,-19.994200728734,32.60150910837669,2.011519499996554,4.987999999997555
0.5373,0.7777,-0.28,-0.1189,0.1329,-0.131,4.8212,12.95,28.1225,-19.828634923535187,33.01383276224161,2.011519499996554,4.987999999997555
0.5377,0.7808,-0.2818,-0.1189,0.1329,-0.131,5.2937,13.2738,27.5275,-19.84288854559534,32.935612662153076,2.2239002999432422,5.003999999993539
0.538,0.7797,-0.2741,-0.1245,0.1347,-0.133,5.2937,13.2738,27.5275,-19.432947916687176,33.058882826200836,2.2239002999432422,5.003999999993539
0.5382,0.7802,-0.2754,-0.1245,0.1347,-0.133,5.7225,13.4225,26.5387,-19.441139945188368,33.04392661048745,2.425237800033091,5.019000000000233
0.5382,0.7776,-0.2712,-0.1294,0.134,-0.1343,5.5213,12.9675,24.9725,-19.255079961377845,33.1619559146501,2.425237800033091,5.019000000000233
0.5415,0.7776,-0.2712,-0.1294,0.134,-0.1343,5.355,12.0575,22.9075,-19.230768600428046,33.32096279255069,2.618157799984664,5.0349999999962165
0.5465,0.7763,-0.2698,-0.1354,0.1347,-0.1242,5.355,12.0575,22.9075,-19.173549446462438,33.61299896962257,2.618157799984664,5.0349999999962165
0.5482,0.7741,-0.274,-0.1354,0.1347,-0.1242,4.8387,11.1562,19.9325,-19.44605842890858,33.72274328272244,2.796657000021029,5.050999999999476
0.5554,0.7724,-0.265,-0.1354,0.1347,-0.1242,3.9113,10.2113,17.0362,-19.021097818202367,34.20193971876196,2.796657000021029,5.050999999999476
0.5622,0.7675,-0.2693,-0.141,0.1336,-0.1267,2.4675,9.8,14.455,-19.266309109719092,34.63263064708572,2.9436570000153246,5.065999999998894
0.5622,0.7675,-0.2693,-0.141,0.1336,-0.1267,2.4675,9.8,14.455,-19.319922757112934,34.65116864002502,2.9436570000153246,5.065999999998894
0.5696,0.7666,-0.2675,-0.1438,0.134,-0.124,1.9863,8.995,11.8387,-19.25657894342534,35.03170202368175,3.0875769999791975,5.081999999994878
0.5748,0.7623,-0.2638,-0.1438,0.134,-0.124,0.5075,8.1462,9.3363,-19.152861266268204,35.44828928381506,3.0875769999791975,5.081999999994878
0.5731,0.7595,-0.2657,-0.1438,0.134,-0.124,0.5075,6.9738,6.615,-19.23237193237565,35.45954344592485,3.1921840000258794,5.097000000001572
0.5751,0.7551,-0.262,-0.1444,0.136,-0.1294,-0.8225,6.9738,6.615,-19.210951391957884,35.7184829705757,3.1921840000258794,5.097000000001572
0.5751,0.7549,-0.2646,-0.1444,0.136,-0.1294,-1.6187,5.6788,3.9288,-19.246572717532654,35.71417539536955,3.2830448000030716,5.112999999997555
0.5772,0.7549,-0.2646,-0.1475,0.1352,-0.1289,-2.5113,4.9175,1.5488,-19.287176911431843,35.80329033161617,3.2830448000030716,5.112999999997555
0.5804,0.7544,-0.2654,-0.1475,0.1352,-0.1289,-2.5113,4.9175,1.5488,-19.342581962371572,35.95414957773416,3.3617247999833215,5.128999999993539
0.5878,0.7551,-0.2623,-0.1475,0.1352,-0.1289,-3.4125,4.41,-1.1113,-19.212260886331006,36.27962666496671,3.3617247999833215,5.128999999993539
0.5924,0.7522,-0.2614,-0.1454,0.1354,-0.1341,-4.4363,3.08,-4.0512,-19.174417053524515,36.568623722358694,3.4140848000051935,5.14600000000064
0.5924,0.7541,-0.2601,-0.1454,0.1354,-0.1341,-5.3812,2.8788,-6.615,-19.05742195181745,36.5849633478171,3.4140848000051935,5.14600000000064
0.5924,0.7541,-0.2601,-0.1456,0.135,-0.129,-5.3812,2.8788,-6.615,-19.035242899140165,36.592517923460484,3.4601455999936315,5.161999999996624
0.5924,0.7517,-0.2585,-0.1456,0.135,-0.129,-6.3437,2.695,-8.925,-18.986704612929387,36.647354739493295,3.4601455999936315,5.161999999996624
0.5843,0.7463,-0.2679,-0.1456,0.135,-0.1306,-7.0,2.6775,-11.3575,-19.636424815960886,36.44315691741776,3.500308099992073,5.176999999996042
0.5795,0.7497,-0.2607,-0.1474,0.1348,-0.1306,-8.4,1.0237,-13.1775,-19.23024918564912,36.18139510503456,3.500308099992073,5.176999999996042
0.5793,0.7504,-0.26,-0.1474,0.1348,-0.1306,-8.4,1.0237,-13.1775,-19.12473958316014,36.120028229008064,3.5166872999954095,5.1929999999993015
0.579,0.7545,-0.2619,-0.1452,0.1334,-0.1243,-9.3975,-0.7262,-15.05,-19.140831477513018,35.96236538508,3.5166872999954095,5.1929999999993015
0.579,0.7545,-0.2619,-0.1452,0.1334,-0.1243,-10.4825,-1.785,-16.5375,-19.142585245848004,35.94290638283039,3.4881273000025788,5.208999999995285
0.5773,0.7604,-0.2581,-0.1435,0.1321,-0.1285,-12.2675,-2.7475,-18.305,-18.780978115068088,35.73307530388671,3.4881273000025788,5.208999999995285
0.575,0.761,-0.2576,-0.1435,0.1321,-0.1285,-12.2675,-2.7475,-18.305,-18.707632681250722,35.60336135956824,3.4469147999841874,5.224000000001979
0.5694,0.7646,-0.2557,-0.1435,0.1321,-0.1285,-13.6062,-2.9838,-20.0637,-18.507169198123506,35.259845015720884,3.4469147999841874,5.224000000001979
0.5657,0.763,-0.2486,-0.1396,0.131,-0.1166,-14.525,-3.3075,-21.9013,-18.078542817483815,35.18676911939537,3.3939947999974716,5.239999999997963
0.5657,0.763,-0.2486,-0.1396,0.131,-0.1166,-15.015,-3.4125,-23.38,-18.048743153077695,35.181906679077535,3.3939947999974716,5.239999999997963
0.5577,0.7616,-0.2478,-0.1357,0.1297,-0.119,-15.015,-3.4125,-23.38,-18.024924279703338,34.87105373508856,3.342807299999458,5.254999999997381
0.55,0.763,-0.2485,-0.1357,0.1297,-0.119,-16.1262,-3.5612,-25.2,-18.038882474820273,34.450986531918446,3.342807299999458,5.254999999997381
0.5504,0.7646,-0.243,-0.1357,0.1297,-0.119,-16.52,-4.1475,-26.4775,-17.655798663878087,34.45164551762702,3.2764473000161156,5.270999999993364
0.551,0.767,-0.2457,-0.1327,0.1298,-0.1149,-17.7188,-5.0838,-27.5975,-17.756241888494916,34.38108461001932,3.2764473000161156,5.270999999993364
0.556,0.7735,-0.2427,-0.1327,0.1298,-0.1149,-17.7188,-5.0838,-27.5975,-17.439297177006214,34.440952142510824,3.1951064999995444,5.286999999996624
0.556,0.7735,-0.2427,-0.1306,0.1282,-0.115,-18.4363,-4.9612,-29.015,-17.421259464240464,34.44383692500795,3.1951064999995444,5.286999999996624
0.5603,0.776,-0.2374,-0.1306,0.1282,-0.115,-19.04,-4.445,-30.1525,-17.032033358099405,34.615411244009344,3.1284315000021317,5.301999999996042
0.5593,0.7803,-0.2323,-0.1306,0.1282,-0.115,-19.04,-4.445,-31.3775,-16.60253394404695,34.493406946515364,3.0573115000199844,5.3179999999920256
0.551,0.7891,-0.2324,-0.1264,0.1288,-0.1122,-19.8275,-4.1388,-31.3775,-16.420116559857497,33.84249137525849,3.0573115000199844,5.3179999999920256
0.5428,0.7902,-0.2241,-0.1264,0.1288,-0.1122,-19.985,-3.885,-33.0138,-15.862808382617429,33.473461412244426,2.9990364999939785,5.332999999998719
0.5428,0.7902,-0.2241,-0.1197,0.1256,-0.1088,-20.405,-3.2375,-35.0788,-15.834742391759008,33.459354915172,2.9990364999939785,5.332999999998719
0.5337,0.7916,-0.2259,-0.1197,0.1256,-0.1088,-20.405,-3.2375,-35.0788,-15.922674691079663,32.974011173695786,2.9472365000069813,5.348999999994703
0.5254,0.7928,-0.226,-0.1197,0.1249,-0.1017,-20.0725,-3.0275,-37.1787,-15.911610938795482,32.525626876069076,2.9472365000069813,5.348999999994703
0.5167,0.7936,-0.2185,-0.1156,0.1249,-0.1017,-20.265,-3.0187,-39.0513,-15.419392770058273,32.13019594986718,2.8989372999971414,5.364999999997963
0.5095,0.7956,-0.2187,-0.1156,0.1249,-0.1017,-20.2125,-3.605,-41.0112,-15.372670717879961,31.70772205087359,2.8989372999971414,5.364999999997963
0.5072,0.8033,-0.2096,-0.1085,0.1246,-0.1097,-20.2125,-3.605,-41.0112,-14.661024112810015,31.430805640184428,2.8448622999992397,5.379999999997381
0.5072,0.8033,-0.2096,-0.1085,0.1246,-0.1097,-19.74,-3.43,-43.0238,-14.625674531464345,31.422703035280094,2.8448622999992397,5.379999999997381
0.5013,0.8105,-0.2094,-0.103,0.1225,-0.1032,-20.825,-3.5875,-44.8438,-14.492850083243734,30.928354540689266,2.7874623000136483,5.395999999993364
0.4923,0.8137,-0.2109,-0.103,0.1225,-0.1032,-21.5338,-3.7625,-46.4625,-14.528785959851508,30.370317174781054,2.7874623000136483,5.395999999993364
0.488,0.8188,-0.2033,-0.103,0.1225,-0.1032,-21.5338,-3.7625,-46.4625,-13.971294726431097,30.054589526835663,2.7310247999884627,5.411000000000058
0.4826,0.8199,-0.1964,-0.0971,0.1213,-0.1091,-22.435,-4.2787,-47.9762,-13.493297186060419,29.793945317568188,2.7310247999884627,5.411000000000058
0.4826,0.8199,-0.1992,-0.0971,0.1213,-0.1091,-22.82,-4.6287,-49.2363,-13.64863841128634,29.768838051892942,2.656965600007053,5.426999999996042
0.4743,0.8248,-0.1992,-0.0902,0.1214,-0.0951,-23.5987,-4.9875,-50.3125,-13.580697967192052,29.217171458898743,2.656965600007053,5.426999999996042
0.4683,0.8247,-0.1948,-0.0902,0.1214,-0.0951,-23.5987,-4.9875,-50.3125,-13.30244684814893,28.93326323495973,2.5771655999907956,5.4429999999993015
0.4647,0.8309,-0.1887,-0.0902,0.1214,-0.0951,-23.8175,-5.3812,-52.0187,-12.81642631492328,28.61461476637132,2.5771655999907956,5.4429999999993015
0.454,0.8362,-0.1895,-0.0801,0.1205,-0.0955,-24.01,-5.985,-53.1563,-12.770718250403945,27.91685033597008,2.4873905999942796,5.457999999998719
0.4488,0.847,-0.1804,-0.0801,0.1205,-0.0955,-24.1675,-6.23,-54.53,-12.054645658225471,27.406181607959365,2.4873905999942796,5.457999999998719
0.4488,0.847,-0.1804,-0.0732,0.1183,-0.0866,-24.1675,-6.23,-54.53,-12.0248853464946,27.395487450158157,2.387710600019301,5.473999999994703
0.4394,0.8503,-0.1769,-0.0732,0.1183,-0.0866,-24.71,-7.1225,-56.63,-11.763486509796712,26.84725349538816,2.387710600019301,5.473999999994703
0.4272,0.8525,-0.176,-0.0732,0.1183,-0.0866,-24.5263,-7.56,-58.7388,-11.668956636269696,26.153784427347446,2.2743105999686954,5.489000000001397
0.4272,0.8562,-0.1626,-0.0634,0.1201,-0.082,-24.5263,-7.56,-60.4362,-10.79044037650963,26.114277288436284,2.2743105999686954,5.489000000001397
0.4219,0.8595,-0.1593,-0.0634,0.1201,-0.082,-24.8675,-8.2163,-60.4362,-10.511797062305158,25.770668973590602,2.1428498000016947,5.504999999997381
0.4219,0.8595,-0.1579,-0.0521,0.1178,-0.0797,-25.4013,-8.6275,-62.65,-10.413848581941439,25.770663778977713,2.1428498000016947,5.504999999997381
0.4136,0.8627,-0.1579,-0.0521,0.1178,-0.0797,-25.235,-8.82,-64.7063,-10.373707196314696,25.257162422426934,2.001729799972945,5.52100000000064
0.4054,0.8706,-0.1527,-0.0439,0.1196,-0.0838,-25.235,-8.82,-64.7063,-9.965204492647853,24.649436782359984,2.001729799972945,5.52100000000064
0.3995,0.8714,-0.1412,-0.0439,0.1196,-0.0838,-25.4188,-8.925,-67.8475,-9.234168441600795,24.35427777353917,1.867854800043078,5.535999999992782
0.3923,0.8749,-0.1366,-0.0439,0.1196,-0.0838,-25.97,-8.6363,-70.9538,-8.887989489489275,23.901785307437162,1.867854800043078,5.535999999992782
0.3857,0.8764,-0.133,-0.0317,0.12,-0.0721,-26.2588,-8.4963,-74.3313,-8.639099375149529,23.520263825873275,1.7319140000153832,5.551999999996042
0.3857,0.8764,-0.133,-0.0317,0.12,-0.0721,-26.2588,-8.4963,-74.3313,-8.629582544800526,23.514616125575227,1.7319140000153832,5.551999999996042
0.3736,0.8821,-0.1288,-0.02,0.1224,-0.0706,-25.7162,-7.6475,-77.8662,-8.319929780558091,22.749028208281402,1.6172014999641917,5.567000000002736
0.3597,0.882,-0.1263,-0.02,0.1224,-0.0706,-25.55,-6.9825,-81.83,-8.155910102612355,21.994369671889835,1.6172014999641917,5.567000000002736
0.3428,0.8851,-0.1261,-0.02,0.1224,-0.0706,-24.6925,-6.9388,-84.7438,-8.110285045208434,20.9913081626657,1.5061807000425467,5.5829999999914435
0.3258,0.8876,-0.124,-0.0058,0.1234,-0.0586,-24.6925,-6.9388,-84.7438,-7.959297245977238,19.990570966685876,1.5061807000425467,5.5829999999914435
0.3258,0.8876,-0.1213,-0.0058,0.1234,-0.0586,-23.9487,-7.0175,-87.8763,-7.789314275615791,19.98522472255011,1.3939007000196721,5.598999999994703
0.3095,0.8951,-0.1213,0.0075,0.1233,-0.0633,-23.03,-7.4988,-91.35,-7.720592447560973,18.926159755432597,1.3939007000196721,5.598999999994703
0.2893,0.9016,-0.1146,0.0075,0.1233,-0.0633,-21.7,-7.2362,-94.9375,-7.2659476202482685,17.67134217400561,1.285357700023884,5.613999999994121
0.2713,0.911,-0.1138,0.0075,0.1233,-0.0633,-21.7,-7.2362,-94.9375,-7.127113419390596,16.47653562585154,1.1695785000002967,5.629999999997381
0.2539,0.9195,-0.1161,0.0215,0.1277,-0.0556,-21.4112,-7.3938,-98.245,-7.193079598525012,15.333114721200829,1.1695785000002967,5.629999999997381
0.2405,0.9252,-0.1064,0.0215,0.1277,-0.0556,-21.4463,-8.5487,-101.0537,-6.58996986732141,14.488863774595702,1.0413480000052728,5.644999999996799
0.2405,0.9252,-0.1064,0.0378,0.1291,-0.0566,-20.1688,-8.6012,-103.8012,-6.561796573356033,14.479905939619638,1.0413480000052728,5.644999999996799
0.227,0.9293,-0.1032,0.0378,0.1291,-0.0566,-20.1688,-8.6012,-103.8012,-6.348022531392833,13.654701291799448,0.903728800039818,5.660999999992782
0.2124,0.9246,-0.0952,0.0378,0.1291,-0.0566,-19.705,-7.9713,-105.1312,-5.902603795529866,12.879772777036164,0.903728800039818,5.660999999992782
0.1894,0.9302,-0.0911,0.0528,0.1354,-0.0511,-18.7337,-6.9125,-105.1312,-5.610072780496139,11.469927843384497,0.7931288000172858,5.676999999996042
0.1701,0.9381,-0.0844,0.0528,0.1354,-0.0511,-18.7337,-6.9125,-103.9325,-5.166188861552701,10.249655513287866,0.7931288000172858,5.676999999996042
0.1701,0.9381,-0.0844,0.0703,0.1403,-0.0562,-17.2375,-6.0637,-103.9325,-5.142477466128534,10.237095407500034,0.7021733000208153,5.69199999999546
0.1502,0.946,-0.0844,0.0703,0.1403,-0.0562,-17.2813,-4.9088,-101.395,-5.100874503976363,8.999867214907663,0.7021733000208153,5.69199999999546
0.1305,0.9445,-0.0878,0.0858,0.1448,-0.0531,-16.695,-3.36,-99.2162,-5.298247936781717,7.8459250104123806,0.648413300009863,5.707999999998719
0.1047,0.9524,-0.0886,0.0858,0.1448,-0.0531,-16.695,-3.36,-99.2162,-5.313823905159316,6.264036818913553,0.648413300009863,5.707999999998719
0.0776,0.9659,-0.0853,0.0858,0.1448,-0.0531,-16.17,-3.185,-97.3962,-5.063402992789676,4.594155416812534,0.6006383000117169,5.722999999998137
0.0487,0.9842,-0.0763,0.0996,0.1488,-0.0479,-16.0825,-3.7362,-96.18,-4.4724421451919065,2.8441240522546614,0.6006383000117169,5.722999999998137
0.0487,0.9842,-0.0763,0.0996,0.1488,-0.0479,-16.8875,-4.4975,-96.8625,-4.435333883253514,2.824547544381891,0.5286783000297803,5.738999999994121
0.0224,0.9835,-0.0694,0.1123,0.1546,-0.0531,-16.8875,-4.4975,-96.8625,-4.060122327216003,1.318403430821083,0.5286783000297803,5.738999999994121
-0.0043,0.9661,-0.0589,0.1123,0.1546,-0.0531,-16.205,-3.9462,-98.0437,-3.524307678465226,-0.23730784929594714,0.4655391000169172,5.754999999997381
-0.0218,0.9614,-0.0567,0.1123,0.1546,-0.0531,-15.3737,-3.9288,-98.875,-3.3849611975489573,-1.2852187528791756,0.4655391000169172,5.754999999997381
-0.0322,0.9715,-0.0598,0.1256,0.1614,-0.0463,-14.7437,-4.2613,-98.6387,-3.512970721194841,-1.8881328496295307,0.40161960001939756,5.769999999996799
-0.0322,0.9872,-0.0652,0.1256,0.1614,-0.0463,-14.7437,-4.2613,-98.6387,-3.7604843795178007,-1.864385991515925,0.40161960001939756,5.769999999996799
-0.043,0.9911,-0.0652,0.138,0.1676,-0.0442,-13.02,-4.2613,-97.2913,-3.763550307759103,-2.4721433817419407,0.3334388000055073,5.786000000000058
-0.0569,0.9977,-0.0669,0.138,0.1676,-0.0442,-12.18,-4.515,-96.0837,-3.8301658650973915,-3.248025553354091,0.3334388000055073,5.786000000000058
-0.0678,1.0006,-0.0689,0.138,0.1676,-0.0442,-11.3663,-4.4187,-94.9987,-3.929420308519857,-3.860250209861304,0.26715830004022956,5.8009999999922
-0.0778,0.9962,-0.0544,0.1528,0.1758,-0.0347,-11.3663,-4.4187,-94.9987,-3.1970550781318625,-4.4521486464364965,0.26715830004022956,5.8009999999922
-0.1006,0.9946,-0.0524,0.1528,0.1758,-0.0347,-10.535,-4.7337,-94.8763,-3.0331901975435636,-5.752730075551807,0.19141910002479945,5.81699999999546
-0.1006,0.9946,-0.0524,0.1657,0.1856,-0.0426,-10.2638,-4.095,-94.8675,-3.0175220047159304,-5.767492881830024,0.19141910002479945,5.81699999999546
-0.1106,0.9917,-0.0397,0.1657,0.1856,-0.0426,-10.01,-3.5612,-94.2375,-2.365666596997948,-6.351843154778605,0.13443990001319125,5.832999999998719
-0.1333,1.0052,-0.0475,0.1657,0.1856,-0.0426,-10.01,-3.5612,-94.2375,-2.671149028531489,-7.531971299266186,0.13443990001319125,5.832999999998719
-0.1537,0.9994,-0.0444,0.1768,0.1901,-0.0414,-9.3538,-3.2462,-92.5575,-2.557559566234741,-8.72064326473584,0.08574690001508078,5.847999999998137
-0.1708,0.9949,-0.0409,0.1768,0.1901,-0.0414,-9.765,-2.7912,-90.6237,-2.375150669100355,-9.721183722639223,0.08574690001508078,5.847999999998137
-0.1708,0.9949,-0.0486,0.1896,0.1969,-0.0353,-9.765,-2.7912,-88.7513,-2.752989675894211,-9.729837789721316,0.04108770002629116,5.863999999994121
-0.1854,0.9882,-0.0486,0.1896,0.1969,-0.0353,-8.1812,-2.4762,-88.7513,-2.807808473794468,-10.602641801973162,0.04108770002629116,5.863999999994121
-0.1981,0.9837,-0.0437,0.2004,0.2033,-0.0442,-7.1312,-2.4762,-87.0713,-2.58124542823042,-11.365531845867064,0.003944700027732499,5.878999999993539
-0.2243,0.9856,-0.0522,0.2004,0.2033,-0.0442,-5.915,-2.8437,-86.2487,-2.954157123137565,-12.785402057524735,0.003944700027732499,5.878999999993539
-0.245,0.9869,-0.0511,0.2004,0.2033,-0.0442,-5.915,-2.8437,-86.2487,-2.9623310751356393,-13.909695658304638,-0.04155449998153691,5.894999999996799
-0.2607,1.0025,-0.0472,0.2095,0.2117,-0.0383,-5.9412,-3.6225,-85.0062,-2.741333674523497,-14.553117627714553,-0.04155449998153691,5.894999999996799
-0.2607,1.0025,-0.0472,0.2095,0.2117,-0.0383,-5.6875,-3.57,-83.1075,-2.7038154666379457,-14.561339902060954,-0.09867449999317379,5.911000000000058
-0.2768,1.0085,-0.0418,0.2207,0.2199,-0.0314,-5.8275,-3.4738,-81.3575,-2.4311676229512322,-15.324933589075275,-0.09867449999317379,5.911000000000058
-0.294,1.0086,-0.045,0.2207,0.2199,-0.0314,-5.8275,-3.4738,-81.3575,-2.5330518966565387,-16.223530339504492,-0.15078149996587656,5.9259999999922
-0.3052,1.0028,-0.0399,0.2207,0.2199,-0.0314,-4.9963,-3.2287,-79.2312,-2.330567377136818,-16.905351963963582,-0.15078149996587656,5.9259999999922
-0.3156,1.0053,-0.0452,0.2277,0.2276,-0.0462,-3.7275,-2.2138,-76.4837,-2.5070545768966666,-17.405156944490887,-0.18620229997309273,5.94199999999546
-0.3156,1.0008,-0.0423,0.2277,0.2276,-0.0462,-3.2987,-1.0938,-73.78,-2.447428682728708,-17.486654816893346,-0.18620229997309273,5.94199999999546
-0.3222,1.0008,-0.0423,0.2362,0.2312,-0.0382,-3.2987,-1.0938,-73.78,-2.4287519748518576,-17.825526294099788,-0.20260929997245605,5.956999999994878
-0.3439,0.9966,-0.0476,0.2362,0.2312,-0.0382,-3.22,-1.12,-71.33,-2.6363132263024047,-18.99959073805758,-0.20260929997245605,5.956999999994878
-0.3599,0.9963,-0.0426,0.2362,0.2312,-0.0382,-3.1762,-1.75,-69.3788,-2.509591007213362,-19.83135593489377,-0.2306092999781604,5.972999999998137
-0.3742,1.0006,-0.0405,0.2422,0.2382,-0.0309,-2.5812,-0.9363,-67.0687,-2.3953038323023326,-20.478279038074945,-0.2455900999812124,5.989000000001397
-0.389,1.0097,-0.0516,0.2422,0.2382,-0.0309,-2.5812,-0.9363,-67.0687,-2.7112906063436437,-21.03537504360223,-0.2455900999812124,5.989000000001397
-0.389,1.0097,-0.0516,0.2498,0.2443,-0.03,-1.715,-0.5512,-65.73,-2.7923593593988705,-21.04461165077517,-0.253858099976881,6.003999999993539
-0.4052,1.0045,-0.0425,0.2498,0.2443,-0.03,-0.875,0.4288,-62.895,-2.722952911985283,-21.934482617976588,-0.253858099976881,6.003999999993539
-0.4206,0.9998,-0.0417,0.2498,0.2443,-0.03,1.0412,1.4875,-58.5988,-2.4946465855520086,-22.781264234590424,-0.23005809997203233,6.019999999996799
-0.4277,0.9988,-0.0493,0.255,0.2518,-0.0397,1.0412,1.4875,-58.5988,-2.720572081902225,-23.14883232422857,-0.23005809997203233,6.019999999996799
-0.4355,0.9999,-0.0506,0.255,0.2518,-0.0397,2.5113,1.6363,-54.3288,-2.8587795975831103,-23.500848914463983,-0.2055135999729848,6.0349999999962165
-0.4355,1.0033,-0.0546,0.2605,0.2576,-0.0341,4.0862,1.7763,-50.015,-3.073612572990491,-23.434739371356017,-0.2055135999729848,6.0349999999962165
-0.4402,1.0033,-0.0546,0.2605,0.2576,-0.0341,4.0862,1.7763,-45.4562,-3.1083057310750224,-23.65262845571142,-0.1770927999671947,6.050999999999476
-0.443,0.9994,-0.0526,0.2642,0.2633,-0.0342,4.655,2.0738,-45.4562,-3.026914967996451,-23.870940295736784,-0.1770927999671947,6.050999999999476
-0.4501,1.005,-0.0615,0.2642,0.2633,-0.0342,6.51,2.7562,-41.6937,-3.446678212424036,-24.079658789390358,-0.13299359995821053,6.067000000002736
-0.4621,1.0054,-0.0644,0.2642,0.2633,-0.0342,6.79,2.6862,-38.9025,-3.640479384423434,-24.622446197830044,-0.13299359995821053,6.067000000002736
-0.4663,1.0027,-0.0547,0.2673,0.2667,-0.0456,6.79,2.6862,-38.9025,-3.180764735004851,-24.899095887816184,-0.09270059997931879,6.081999999994878
-0.4663,1.0027,-0.0547,0.2673,0.2667,-0.0456,6.2213,2.6337,-34.6325,-3.1295361120479437,-24.907665237725464,-0.09270059997931879,6.081999999994878
-0.4819,1.007,-0.0634,0.2692,0.2655,-0.0375,6.8688,2.835,-29.9862,-3.549843076609165,-25.502563851853903,-0.04734059997007774,6.097999999998137
-0.4887,1.0115,-0.064,0.2692,0.2655,-0.0375,8.085,2.66,-25.0513,-3.61348880960513,-25.72929213866448,-0.04734059997007774,6.097999999998137
-0.4972,1.0106,-0.0643,0.2692,0.2655,-0.0375,8.085,2.66,-25.0513,-3.6379120171347226,-26.127615653871388,-0.0074405999716260565,6.112999999997555
-0.5056,1.0121,-0.0738,0.2718,0.2698,-0.0391,8.4613,2.66,-20.335,-4.120096836081587,-26.45769541261765,-0.0074405999716260565,6.112999999997555
-0.5056,1.0121,-0.0717,0.2718,0.2698,-0.0391,9.2137,1.6625,-15.8813,-4.058219580942487,-26.48411486159784,0.01915940003379308,6.129000000000815
-0.5076,1.0121,-0.0717,0.2718,0.273,-0.0458,9.1175,0.2713,-12.0225,-4.052757870992833,-26.559918399493366,0.01915940003379308,6.129000000000815
-0.5073,1.0058,-0.0783,0.2718,0.273,-0.0458,9.1175,0.2713,-12.0225,-4.415892356845734,-26.669795999162016,0.02350020003270345,6.144999999996799
-0.4984,1.0022,-0.0824,0.2718,0.273,-0.0458,8.505,-1.5662,-8.6713,-4.673439649618191,-26.52576709869148,0.02350020003270345,6.144999999996799
-0.4914,0.9991,-0.0702,0.271,0.2718,-0.0492,8.0763,-3.3512,-5.32,-4.083434851986053,-26.24736434907233,-0.033470199966711356,6.161999999996624
-0.4837,0.9975,-0.0801,0.271,0.2718,-0.0492,8.015,-4.305,-3.1762,-4.540889978439336,-25.87747820870594,-0.033470199966711356,6.161999999996624
-0.4837,0.9975,-0.0801,0.2713,0.2719,-0.0414,8.015,-4.305,-3.1762,-4.586087815335641,-25.811446898022535,-0.10235019998074406,6.177999999999884
-0.4793,1.0001,-0.0834,0.2713,0.2719,-0.0414,8.1287,-4.4975,-0.1488,-4.749288345750577,-25.561622141787428,-0.10235019998074406,6.177999999999884
-0.4773,0.9991,-0.0844,0.2713,0.2719,-0.0414,8.4963,-5.4338,2.38,-4.821169862675043,-25.465517907888675,-0.18385719993804506,6.1929999999920256
-0.4673,0.9927,-0.0855,0.2704,0.2692,-0.0503,8.4963,-6.1425,5.7312,-4.91309212952818,-25.149939276115678,-0.18385719993804506,6.1929999999920256
-0.4612,0.9891,-0.0875,0.2704,0.2692,-0.0503,8.2163,-6.1425,5.7312,-5.0416754329186215,-24.929691009761648,-0.2821371999580673,6.208999999995285
-0.4612,0.9939,-0.0882,0.2705,0.2703,-0.0442,8.8462,-6.3612,7.5687,-5.068521610581542,-24.814551989617815,-0.2821371999580673,6.208999999995285
-0.4506,0.9939,-0.0882,0.2705,0.2703,-0.0442,9.2487,-6.4138,10.6575,-5.070981515445162,-24.329795721805624,-0.3847579999789739,6.224999999998545
-0.4458,0.9947,-0.0843,0.2665,0.2675,-0.049,9.2487,-6.4138,15.1375,-4.864166923204307,-24.075419287023454,-0.3847579999789739,6.224999999998545
-0.4369,0.9943,-0.0895,0.2665,0.2675,-0.049,9.9575,-6.4575,13.6675,-5.120352124043189,-23.655464025796896,-0.48162049997521517,6.239999999997963
-0.4273,0.9959,-0.0924,0.2665,0.2675,-0.049,10.0712,-6.0988,16.3625,-5.285935907222375,-23.154117229612517,-0.48162049997521517,6.239999999997963
-0.4199,0.995,-0.09,0.2649,0.2647,-0.049,10.01,-5.1887,18.3225,-5.178163111170403,-22.809920966712685,-0.5646396999921284,6.256000000001222
-0.4199,0.995,-0.09,0.2649,0.2647,-0.049,10.01,-5.1887,18.3225,-5.169268157619314,-22.797220174756948,-0.5646396999921284,6.256000000001222
-0.4094,0.9913,-0.0891,0.263,0.2628,-0.054,10.465,-4.9875,20.1863,-5.138698282826614,-22.374200227064012,-0.6394521999529365,6.270999999993364
-0.4027,0.9889,-0.0929,0.263,0.2628,-0.054,11.0863,-4.795,21.5163,-5.349484960837153,-22.079420649701156,-0.6394521999529365,6.270999999993364
-0.3963,0.9864,-0.0974,0.263,0.2628,-0.054,11.5325,-4.865,22.3825,-5.618023718995886,-21.801704733895527,-0.7172921999687946,6.286999999996624
-0.3927,0.9894,-0.0987,0.2604,0.2606,-0.0422,11.5325,-4.865,22.3825,-5.691053802052527,-21.55942200551525,-0.7172921999687946,6.286999999996624
-0.3927,0.9878,-0.0975,0.2604,0.2606,-0.0422,11.97,-4.6463,24.1063,-5.640909261670262,-21.584336355148885,-0.7916329999839398,6.302999999999884
-0.3864,0.9878,-0.0975,0.2558,0.2558,-0.05,11.8912,-4.5237,26.25,-5.6373484250798205,-21.278972512135162,-0.7916329999839398,6.302999999999884
-0.3856,0.9878,-0.1034,0.2558,0.2558,-0.05,11.9613,-4.1125,28.49,-5.951732495790209,-21.219891724113957,-0.853320499981546,6.3179999999993015
-0.3848,0.9917,-0.11,0.2558,0.2558,-0.05,11.9613,-4.1125,28.49,-6.302563813654524,-21.092903361623993,-0.853320499981546,6.3179999999993015
-0.375,0.995,-0.1124,0.2523,0.2537,-0.0482,12.5037,-4.41,30.4237,-6.435329849579226,-20.545381897940718,-0.923880499963834,6.333999999995285
-0.365,0.9974,-0.1108,0.2523,0.2537,-0.0482,12.6788,-5.3463,31.9375,-6.345450824631589,-20.00075384374635,-0.923880499963834,6.333999999995285
-0.365,0.9974,-0.1108,0.2468,0.2482,-0.0606,12.3025,-6.0813,33.1625,-6.339383262294458,-19.9873675356683,-1.0150999999602943,6.348999999994703
-0.3545,1.0011,-0.1152,0.2468,0.2482,-0.0606,12.3025,-6.0813,33.1625,-6.548734919604042,-19.395759755121276,-1.0150999999602943,6.348999999994703
-0.3467,1.0042,-0.1215,0.2468,0.2482,-0.0606,11.48,-7.0087,33.8888,-6.873022641013363,-18.930336663649136,-1.1272391999831401,6.364999999997963
-0.3362,1.0041,-0.1128,0.2458,0.2457,-0.057,11.585,-6.965,35.245,-6.443541295805586,-18.416003861131898,-1.2386792000058435,6.381000000001222
-0.3253,1.0082,-0.1159,0.2458,0.2457,-0.057,11.585,-6.4925,36.085,-6.549440300482409,-17.787232496321202,-1.2386792000058435,6.381000000001222
-0.3253,1.0055,-0.1232,0.2405,0.2406,-0.055,11.2525,-6.4925,36.085,-6.952775339914598,-17.80247373165553,-1.3360666999548252,6.395999999993364
-0.3182,1.0055,-0.1232,0.2405,0.2406,-0.055,11.725,-6.825,37.1263,-6.983051546390124,-17.445987188367624,-1.3360666999548252,6.395999999993364
-0.3084,1.0041,-0.126,0.2344,0.2364,-0.0528,12.0837,-6.9825,37.5638,-7.14046961886698,-16.95936901890031,-1.4477866999775855,6.411999999996624
-0.2985,1.0029,-0.1184,0.2344,0.2364,-0.0528,12.0837,-6.9825,37.5638,-6.761751506338383,-16.477470430673108,-1.4477866999775855,6.411999999996624
-0.2918,1.0023,-0.1237,0.2344,0.2364,-0.0528,12.6263,-6.9037,38.3162,-7.017055535445803,-16.123702302509606,-1.551342199973567,6.426999999996042
-0.2836,1.0047,-0.1283,0.2292,0.2294,-0.0571,13.1337,-6.6413,39.1213,-7.260198552941782,-15.652273846644386,-1.551342199973567,6.426999999996042
-0.2836,1.0047,-0.1283,0.2292,0.2294,-0.0571,13.0288,-6.6325,40.1538,-7.2761451866573195,-15.642427319410173,-1.6574621999951866,6.4429999999993015
-0.2735,1.0055,-0.1274,0.2256,0.2262,-0.0514,13.0288,-6.6325,40.1538,-7.224715637258477,-15.11243925227444,-1.6574621999951866,6.4429999999993015
-0.2619,1.0074,-0.1284,0.2256,0.2262,-0.0514,12.1012,-6.6588,41.3175,-7.260838870149241,-14.473917944617419,-1.7640030000168918,6.459000000002561
-0.2541,1.0036,-0.1355,0.2256,0.2262,-0.0514,11.515,-6.4225,41.335,-7.657782141397838,-14.093162422653716,-1.7640030000168918,6.459000000002561
-0.2445,0.9999,-0.1395,0.2196,0.2238,-0.0589,11.1475,-5.985,42.0,-7.920828631963742,-13.623159761178558,-1.8537779999698616,6.473999999994703
-0.2445,1.0018,-0.1342,0.2196,0.2238,-0.0589,11.1475,-5.985,42.0,-7.651809446504614,-13.59909962663439,-1.8537779999698616,6.473999999994703
-0.237,1.0018,-0.1342,0.2131,0.2193,-0.0568,11.305,-5.74,42.84,-7.631492285076003,-13.204098222516304,-1.9456179999885719,6.489999999997963
-0.2277,1.002,-0.1371,0.2131,0.2193,-0.0568,12.0925,-5.7575,43.4437,-7.779944311562825,-12.698314430777225,-1.9456179999885719,6.489999999997963
-0.2221,1.0055,-0.1441,0.2131,0.2193,-0.0568,12.4338,-6.0988,43.6012,-8.129790784320496,-12.340645435887609,-2.037099999985022,6.504999999997381
-0.212,1.004,-0.1469,0.2043,0.2162,-0.0633,12.4338,-6.0988,43.6012,-8.310784020762535,-11.811395632708768,-2.037099999985022,6.504999999997381
-0.2006,1.0088,-0.1449,0.2043,0.2162,-0.0633,12.425,-5.845,44.1525,-8.183255288087336,-11.1479629910196,-2.1306200000040745,6.52100000000064
-0.2006,1.0088,-0.1449,0.2008,0.2094,-0.059,12.4862,-5.9325,45.0625,-8.174476350553428,-11.135424849509807,-2.1306200000040745,6.52100000000064
-0.1926,1.0097,-0.1464,0.2008,0.2094,-0.059,12.1888,-5.81,44.905,-8.244740930369986,-10.698542568642134,-2.2235799999807395,6.536999999996624
-0.1826,1.0083,-0.1513,0.2008,0.2094,-0.0794,12.1888,-5.81,44.905,-8.513599562384929,-10.163718445672425,-2.2235799999807395,6.536999999996624
-0.1716,1.0089,-0.1541,0.195,0.2066,-0.0649,12.0138,-5.8538,44.66,-8.672186093063074,-9.555820928584728,-2.311386999977332,6.551999999996042
-0.1606,1.0049,-0.1567,0.195,0.2066,-0.0649,10.9812,-5.7575,44.1263,-8.848504404787965,-8.984409171448748,-2.311386999977332,6.551999999996042
-0.1606,1.0052,-0.1513,0.1886,0.2019,-0.0577,10.9812,-5.565,43.6888,-8.581814390474023,-8.978050904615314,-2.400426999995472,6.5679999999993015
-0.1482,1.0052,-0.1513,0.1886,0.2019,-0.0577,11.0688,-5.565,43.6888,-8.561425522975078,-8.307799330755188,-2.400426999995472,6.5679999999993015
-0.1371,1.01,-0.1526,0.1826,0.1989,-0.0594,12.1625,-4.935,43.5662,-8.589656412455858,-7.657181708945077,-2.4744519999925996,6.582999999998719
-0.1294,1.0074,-0.1528,0.1826,0.1989,-0.0594,11.7775,-4.0338,43.6275,-8.622218515037579,-7.245649530135602,-2.4744519999925996,6.582999999998719
-0.1235,1.0034,-0.1584,0.1826,0.1989,-0.0594,11.7775,-4.0338,43.6275,-8.945755118466888,-6.937760204792229,-2.5389928000057482,6.599000000001979
-0.1164,1.0054,-0.1629,0.1762,0.1951,-0.0662,11.76,-3.5612,44.4238,-9.184793695399854,-6.527586579273481,-2.5389928000057482,6.599000000001979
-0.1164,1.0054,-0.1629,0.1762,0.1951,-0.0662,11.4975,-3.2287,44.975,-9.202006813598368,-6.519875277409183,-2.590651999969289,6.614999999990687
-0.1061,1.0041,-0.161,0.1694,0.1926,-0.0631,11.3313,-3.1325,44.4938,-9.11630575183556,-5.9669300875947595,-2.590651999969289,6.614999999990687
-0.0946,1.0021,-0.1676,0.1694,0.1926,-0.0631,11.3313,-3.1325,44.4938,-9.466605366264625,-5.331544155658266,-2.6376394999902577,6.629999999997381
-0.0855,0.9986,-0.1712,0.1694,0.1926,-0.0631,11.3837,-3.01,43.4525,-9.708822476592026,-4.8334100931429,-2.6376394999902577,6.629999999997381
-0.0736,1.0014,-0.1685,0.1616,0.1876,-0.0581,11.4975,-2.5988,42.91,-9.56294422221662,-4.158757971626152,-2.679220299998729,6.64600000000064
-0.0736,1.0019,-0.1734,0.1616,0.1876,-0.0581,12.0575,-2.485,42.035,-9.80090335294151,-4.140463689753601,-2.679220299998729,6.64600000000064
-0.0631,1.0019,-0.1734,0.1549,0.1833,-0.0698,12.0575,-2.485,42.035,-9.817704018328579,-3.5626930286485403,-2.7164952999792016,6.660999999992782
-0.0551,1.0026,-0.175,0.1549,0.1833,-0.0698,11.9788,-1.5488,41.2125,-9.895099407687475,-3.1081657011893427,-2.7412760999842503,6.676999999996042
-0.0474,0.9992,-0.1751,0.1549,0.1833,-0.0698,12.04,-0.8925,41.0812,-9.936452391978186,-2.6839348832810637,-2.7412760999842503,6.676999999996042
-0.0377,0.9952,-0.1797,0.148,0.1801,-0.06,12.145,-0.4375,40.6175,-10.214443642266557,-2.146053844397169,-2.748276099982493,6.6929999999920256
-0.034,0.9989,-0.1842,0.148,0.1801,-0.06,12.145,-0.4375,40.6175,-10.4317344343479,-1.9217846533740546,-2.748276099982493,6.6929999999920256
-0.034,0.9989,-0.1842,0.1421,0.1761,-0.0726,11.83,0.2362,41.0112,-10.446955648110379,-1.9172436245649909,-2.744733099980912,6.707999999998719
-0.025,1.0022,-0.1839,0.1421,0.1761,-0.0726,11.9175,1.0588,41.1512,-10.401390328517477,-1.4157466340631273,-2.744733099980912,6.707999999998719
-0.0191,1.0028,-0.1872,0.1421,0.1761,-0.0726,11.5238,0.7875,40.18,-10.56144012508946,-1.0796447545226944,-2.7321330999783453,6.724000000001979
-0.0092,0.9997,-0.194,0.137,0.1744,-0.075,11.5238,0.7875,40.18,-10.951344937561,-0.5290888581663469,-2.7321330999783453,6.724000000001979
-0.0011,0.9988,-0.1948,0.137,0.1744,-0.075,11.4712,0.2537,39.0863,-11.029846453664248,-0.07169412187217993,-2.728327599980339,6.738999999994121
0.0145,1.0022,-0.1887,0.1298,0.1708,-0.0844,11.34,0.5775,37.7388,-10.690413503751351,0.7955424867480635,-2.728327599980339,6.738999999994121
0.0065,1.0022,-0.1887,0.1298,0.1708,-0.0844,11.34,0.5775,36.8988,-10.665169670438116,0.37460508712344287,-2.7190875999784563,6.754999999997381
0.013,0.9994,-0.1938,0.1245,0.1666,-0.0675,10.7275,1.54,36.8988,-10.950288812928232,0.723806736774934,-2.7190875999784563,6.754999999997381
0.0187,0.9984,-0.1986,0.1245,0.1666,-0.0675,10.9462,2.2487,37.52,-11.227338160426376,1.0453107627029543,-2.683108399987488,6.770999999993364
0.0193,0.9972,-0.2012,0.1245,0.1666,-0.0675,11.62,2.8788,38.5962,-11.394034993878979,1.0860008235712386,-2.683108399987488,6.770999999993364
0.0306,0.9957,-0.2003,0.1165,0.166,-0.0771,11.62,2.8788,38.5962,-11.37555315773872,1.7122150022250076,-2.6399263999682177,6.786000000000058
0.0306,0.9957,-0.2003,0.1165,0.166,-0.0771,11.4712,3.2812,39.76,-11.37420785048372,1.7254403351812093,-2.6399263999682177,6.786000000000058
0.0402,0.9933,-0.2073,0.1086,0.1617,-0.0738,10.9288,4.0862,39.7513,-11.756557605332366,2.2575385128912053,-2.574547199984629,6.801999999996042
0.0478,0.9914,-0.2086,0.1086,0.1617,-0.0738,10.7537,4.375,40.2762,-11.872476086256121,2.692253591652932,-2.574547199984629,6.801999999996042
0.0495,0.9869,-0.2095,0.1086,0.1617,-0.0738,10.7537,4.375,40.2762,-11.976145344699242,2.8065158136888506,-2.508922199987176,6.81699999999546
0.0568,0.9848,-0.2092,0.1036,0.1607,-0.0683,10.4213,4.2787,40.6437,-11.991656978429349,3.2205271872319057,-2.508922199987176,6.81699999999546
0.0568,0.9854,-0.2081,0.1036,0.1607,-0.0683,10.9113,4.6287,40.1712,-11.929840670899583,3.2277773766887288,-2.430234299954306,6.834000000002561
0.0618,0.9854,-0.2081,0.0972,0.1584,-0.0787,11.6725,4.795,40.1188,-11.92507012291885,3.5055945808960542,-2.430234299954306,6.834000000002561
0.07,0.9836,-0.207,0.0972,0.1584,-0.0787,11.6725,4.795,40.1188,-11.887488887312108,3.973961465909919,-2.3535143000084524,6.849999999991269
0.0752,0.9838,-0.2109,0.0972,0.1584,-0.0787,11.7075,5.1975,40.9063,-12.084179697282062,4.268306019834131,-2.3535143000084524,6.849999999991269
0.0849,0.9866,-0.2198,0.0898,0.157,-0.0814,11.1213,5.39,42.5163,-12.523611048857338,4.790837150885654,-2.2726642999723725,6.864999999997963
0.0906,0.9808,-0.2261,0.0898,0.157,-0.0814,10.6575,5.985,43.4175,-12.945524347882925,5.136734966170607,-2.2726642999723725,6.864999999997963
0.0906,0.9808,-0.2261,0.0809,0.1529,-0.0896,10.6575,5.985,43.4175,-12.978580138251857,5.1433619478793124,-2.1769042999964103,6.880999999993946
0.0996,0.9755,-0.223,0.0809,0.1529,-0.0896,10.43,5.8275,43.4613,-12.884731525104595,5.673796888381379,-2.1769042999964103,6.880999999993946
0.111,0.9701,-0.2192,0.0809,0.1529,-0.0896,11.4362,5.4163,43.5313,-12.743753127820364,6.355009690763484,-2.095659799999563,6.895999999993364
0.1176,0.971,-0.2183,0.0734,0.1497,-0.0892,13.0638,6.3963,44.485,-12.675379699430046,6.731775607629638,-2.095659799999563,6.895999999993364
