AcclX,AcclY,AcclZ,MagX,MagY,MagZ,GyroX,GyroY,GyroZ,Roll,Pitch,Yaw,Time Elapsed(s)
0.2876,0.9248,-0.2173,0.0058,0.1177,-0.0517,-0.0875,-1.2075,-5.3025,0,0,0,0.0
0.2858,0.9275,-0.2229,0.0058,0.1177,-0.0517,-0.5688,-0.945,-5.285,0,0,0,0.01600000000325963
0.2863,0.9265,-0.2173,0.0058,0.1177,-0.0517,-0.5688,-0.945,-5.285,0,0,0,0.01600000000325963
0.2869,0.9268,-0.2192,0.0047,0.116,-0.0466,-0.6212,-1.5838,-5.6962,0,0,0,0.031000000002677552
0.2869,0.9268,-0.221,0.0047,0.116,-0.0466,-0.4988,-1.2163,-5.4862,0,0,0,0.031000000002677552
0.286,0.9267,-0.221,0.004,0.1137,-0.0486,-0.455,-1.26,-5.0925,0,0,0,0.04700000000593718
0.2858,0.9265,-0.2187,0.004,0.1137,-0.0486,-0.455,-1.26,-5.0925,0,0,0,0.04700000000593718
0.284,0.9251,-0.2182,0.004,0.1137,-0.0486,-0.0525,-1.3038,-5.2413,0,0,0,0.06300000000919681
0.2841,0.9227,-0.217,0.0054,0.1146,-0.0428,-0.1838,-1.3737,-4.795,0,0,0,0.06300000000919681
0.2841,0.9238,-0.2191,0.0054,0.1146,-0.0428,0.0,-1.5662,-5.11,0,0,0,0.07800000000133878
0.2841,0.9238,-0.2191,0.0055,0.1164,-0.0486,0.0,-1.5662,-5.11,0,0,0,0.07800000000133878
0.2874,0.9264,-0.2187,0.0055,0.1164,-0.0486,-0.3237,-1.3737,-5.0312,0,0,0,0.0940000000045984
0.2893,0.926,-0.2147,0.0055,0.1164,-0.0486,-0.6562,-1.575,-4.5588,0,0,0,0.0940000000045984
0.2939,0.921,-0.2192,0.0035,0.1153,-0.0442,-0.6562,-1.575,-4.3663,0,0,0,0.10900000000401633
0.2903,0.9252,-0.2199,0.0035,0.1153,-0.0442,-0.14,-1.365,-4.3663,0,0,0,0.10900000000401633
0.2903,0.9252,-0.2173,0.0059,0.1138,-0.0521,-0.2187,-1.3475,-4.6988,0,0,0,0.12500000000727596
0.2855,0.9252,-0.2173,0.0059,0.1138,-0.0521,-0.525,-1.6275,-4.795,0,0,0,0.12500000000727596
0.2855,0.9213,-0.2187,0.0059,0.1156,-0.0509,-0.525,-1.6275,-4.795,0,0,0,0.1410000000105356
0.2869,0.921,-0.2181,0.0033,0.1156,-0.0509,-0.245,-1.5662,-5.2238,0,0,0,0.1410000000105356
0.2835,0.9239,-0.2232,0.0033,0.1156,-0.0509,-0.0263,-2.03,-5.2063,0,0,0,0.15600000000267755
0.2872,0.9277,-0.2197,0.0044,0.1166,-0.0433,0.6737,-1.8288,-5.2762,0,0,0,0.15600000000267755
0.2872,0.9277,-0.2197,0.0044,0.1166,-0.0433,0.6737,-1.8288,-5.2762,0,0,0,0.17200000000593718
0.288,0.9295,-0.2183,0.0054,0.1157,-0.0481,0.4812,-1.8988,-5.3288,0,0,0,0.17200000000593718
0.2896,0.9279,-0.2206,0.0054,0.1157,-0.0481,0.4375,-2.1263,-5.88,0,0,0,0.1870000000053551
0.2902,0.9258,-0.2251,0.0054,0.1157,-0.0481,-0.63,-2.8,-5.8625,0,0,0,0.1870000000053551
0.2849,0.9249,-0.2199,0.0036,0.1157,-0.0514,-0.63,-2.8,-5.8625,0,0,0,0.20300000000861473
0.2849,0.9249,-0.2199,0.0036,0.1157,-0.0514,-0.28,-2.2925,-6.3175,0,0,0,0.20300000000861473
0.2864,0.9256,-0.22,0.0059,0.1164,-0.0467,-0.8138,-2.3012,-6.335,0,0,0,0.2190000000045984
0.2853,0.9201,-0.2226,0.0059,0.1164,-0.0467,-0.6475,-2.135,-6.265,0,0,0,0.2190000000045984
0.2851,0.9226,-0.2242,0.0059,0.1164,-0.0467,-0.6475,-2.135,-6.265,0,0,0,0.23400000000401633
0.2849,0.9232,-0.2233,0.0049,0.1158,-0.0407,-0.63,-1.8463,-5.775,0,0,0,0.23400000000401633
0.2851,0.9248,-0.2211,0.0049,0.1158,-0.0407,-0.6737,-1.9512,-6.0462,0,0,0,0.25000000000727596
0.2851,0.9248,-0.2211,0.0046,0.1154,-0.048,-1.015,-2.3012,-6.2213,0,0,0,0.25000000000727596
0.2852,0.9268,-0.2209,0.0046,0.1154,-0.048,-1.015,-2.3012,-6.2213,0,0,0,0.2650000000066939
0.2886,0.9264,-0.2264,0.0046,0.1154,-0.048,-0.9975,-2.3975,-6.1075,0,0,0,0.2650000000066939
0.2903,0.9281,-0.2225,0.004,0.117,-0.0434,-1.3563,-2.1088,-6.3787,0,0,0,0.28100000000267755
0.2891,0.9307,-0.2183,0.004,0.117,-0.0434,-1.3563,-2.1088,-6.3263,0,0,0,0.28100000000267755
0.2891,0.9307,-0.2183,0.0056,0.1148,-0.0443,-0.9887,-1.8988,-6.3263,0,0,0,0.2970000000059372
0.2862,0.9265,-0.2184,0.0056,0.1148,-0.0443,-1.085,-1.82,-6.3088,0,0,0,0.3120000000053551
0.2896,0.9225,-0.2194,0.0056,0.1148,-0.0428,-0.84,-1.7325,-6.0462,0,0,0,0.3120000000053551
0.2847,0.922,-0.2186,0.0062,0.1158,-0.0428,-0.84,-1.7325,-6.0462,0,0,0,0.32800000000861473
0.2872,0.9208,-0.2181,0.0062,0.1158,-0.0428,-0.8925,-1.3475,-6.5188,0,0,0,0.32800000000861473
0.2841,0.9235,-0.2176,0.0068,0.115,-0.0416,-0.35,-0.9187,-5.6788,0,0,0,0.3430000000007567
0.2841,0.9235,-0.2176,0.0068,0.115,-0.0416,0.1925,-0.2625,-5.2675,0,0,0,0.3430000000007567
0.2862,0.9238,-0.2168,0.0055,0.1175,-0.0511,0.1925,-0.2625,-5.2675,0,0,0,0.35900000000401633
0.2835,0.9227,-0.2177,0.0055,0.1175,-0.0511,-0.1225,-0.455,-5.425,0,0,0,0.35900000000401633
0.2842,0.9252,-0.2147,0.0055,0.1175,-0.0511,0.2887,-1.05,-5.8362,0,0,0,0.375
0.2843,0.9284,-0.2184,0.0052,0.115,-0.047,0.8225,-0.8487,-5.39,0,0,0,0.375
0.2843,0.9284,-0.2184,0.0052,0.115,-0.047,0.8225,-0.8487,-5.39,0,0,0,0.3900000000066939
0.2845,0.9341,-0.2125,0.0057,0.1158,-0.0478,0.3063,-0.5863,-5.0575,0,0,0,0.3900000000066939
0.2817,0.9348,-0.21,0.0057,0.1158,-0.0478,-0.3237,-1.12,-4.8562,0,0,0,0.4060000000099535
0.2757,0.9299,-0.2158,0.0057,0.1158,-0.0478,0.0613,-1.75,-4.8825,0,0,0,0.4060000000099535
0.2746,0.9257,-0.2119,0.007,0.1154,-0.0534,0.0613,-1.75,-4.8825,0,0,0,0.4210000000020955
0.2746,0.9249,-0.2148,0.007,0.1154,-0.0534,0.4112,-2.345,-4.9175,0,0,0,0.4210000000020955
0.2738,0.9249,-0.2148,0.0062,0.1165,-0.0473,0.3762,-3.1937,-4.2175,0,0,0,0.4370000000053551
0.2756,0.9285,-0.2126,0.0062,0.1165,-0.0473,0.3762,-3.1937,-3.7362,0,0,0,0.4370000000053551
0.2768,0.9299,-0.215,0.0062,0.1165,-0.0473,0.2362,-3.3338,-3.7362,0,0,0,0.4530000000013388
0.28,0.9315,-0.2173,0.0056,0.1162,-0.0524,0.8662,-3.7362,-3.955,0,0,0,0.4530000000013388
0.2782,0.9313,-0.2183,0.0056,0.1162,-0.0524,0.9887,-4.3225,-4.3137,0,0,0,0.46800000000803266
0.2782,0.9313,-0.2183,0.0058,0.1148,-0.0462,0.9887,-4.3225,-4.3137,0,0,0,0.46800000000803266
0.2797,0.9321,-0.2197,0.0058,0.1148,-0.0462,0.5163,-4.7863,-4.515,0,0,0,0.4840000000112923
0.2787,0.9303,-0.22,0.0058,0.1148,-0.0462,0.245,-4.795,-4.7688,0,0,0,0.4840000000112923
0.28,0.9284,-0.2226,0.0055,0.1159,-0.0479,-0.3762,-5.7925,-4.6375,0,0,0,0.49900000000343425
0.2829,0.9271,-0.2212,0.0055,0.1159,-0.0479,-0.3762,-5.7925,-4.6375,0,0,0,0.49900000000343425
0.2672,0.9225,-0.2219,0.0046,0.113,-0.0496,-0.8313,-6.3437,-4.655,0,0,0,0.5150000000066939
0.2808,0.9225,-0.2219,0.0046,0.113,-0.0496,-0.9887,-6.16,-4.6112,0,0,0,0.5150000000066939
0.2827,0.9209,-0.2268,0.0068,0.1166,-0.0492,-0.035,-5.705,-5.2937,0,0,0,0.5310000000026776
0.2822,0.9225,-0.2258,0.0068,0.1166,-0.0492,-0.035,-5.705,-5.2937,0,0,0,0.5310000000026776
0.2845,0.9227,-0.2277,0.0068,0.1166,-0.0492,0.385,-5.1363,-5.5563,0,0,0,0.5460000000093714
0.2882,0.9206,-0.2279,0.007,0.1158,-0.0427,0.28,-4.9875,-5.6175,0,0,0,0.5460000000093714
0.2882,0.9206,-0.2279,0.007,0.1158,-0.0427,0.2013,-5.1712,-5.355,0,0,0,0.5620000000053551
0.2893,0.9221,-0.2214,0.0069,0.1164,-0.0503,0.2013,-5.1712,-5.355,0,0,0,0.5620000000053551
0.2922,0.9195,-0.2255,0.0069,0.1164,-0.0503,0.315,-4.0687,-5.0662,0,0,0,0.577000000004773
0.2934,0.9173,-0.2267,0.0069,0.1164,-0.0503,0.56,-3.2462,-4.935,0,0,0,0.577000000004773
0.2959,0.9201,-0.2286,0.0057,0.1154,-0.0367,0.9363,-2.4237,-4.5588,0,0,0,0.5930000000080327
0.2959,0.9202,-0.225,0.0057,0.1154,-0.0367,0.9363,-2.4237,-4.5588,0,0,0,0.5930000000080327
0.2955,0.9202,-0.225,0.0063,0.1137,-0.0479,0.8138,-2.4588,-4.7775,0,0,0,0.6090000000040163
0.2994,0.9176,-0.2227,0.0063,0.1137,-0.0479,0.6125,-1.8375,-4.6638,0,0,0,0.6090000000040163
0.2954,0.9141,-0.2255,0.0063,0.1137,-0.0479,0.6125,-1.8375,-4.6375,0,0,0,0.6240000000034343
0.2926,0.9137,-0.2268,0.005,0.1139,-0.041,1.1287,-0.6125,-4.6375,0,0,0,0.6240000000034343
0.2912,0.9137,-0.2333,0.005,0.1139,-0.041,1.8112,-0.2275,-4.8125,0,0,0,0.6399999999994179
0.2912,0.9137,-0.2333,0.0071,0.1146,-0.0486,2.0563,0.175,-4.7775,0,0,0,0.6399999999994179
0.2962,0.9135,-0.2333,0.0071,0.1146,-0.0486,2.0563,0.175,-4.7775,0,0,0,0.6550000000061118
0.2993,0.9199,-0.2357,0.0071,0.1146,-0.0486,2.0825,0.5775,-4.7337,0,0,0,0.6550000000061118
0.3071,0.9215,-0.2346,0.005,0.1163,-0.0434,2.7912,0.5163,-4.5763,0,0,0,0.6710000000093714
0.3145,0.9199,-0.2345,0.005,0.1163,-0.0434,2.5113,0.9887,-3.8937,0,0,0,0.6710000000093714
0.3145,0.9199,-0.2302,0.0059,0.1164,-0.0464,2.5113,0.9887,-3.8937,0,0,0,0.6870000000053551
0.3142,0.9159,-0.2302,0.0059,0.1164,-0.0464,2.8087,1.4963,-3.3425,0,0,0,0.702000000004773
0.3149,0.918,-0.2353,0.0042,0.1147,-0.0496,2.8263,2.275,-2.5812,0,0,0,0.702000000004773
0.3179,0.9127,-0.2344,0.0042,0.1147,-0.0496,2.7912,2.3012,-2.4413,0,0,0,0.7180000000007567
0.3179,0.9112,-0.2309,0.0042,0.1147,-0.0496,2.7912,2.3012,-2.4413,0,0,0,0.7180000000007567
0.3143,0.9074,-0.2312,0.0035,0.1151,-0.051,3.2375,2.8437,-1.61,0,0,0,0.7330000000074506
0.3143,0.9074,-0.2312,0.0035,0.1151,-0.051,3.3775,3.1675,-1.4088,0,0,0,0.7330000000074506
0.3104,0.908,-0.2284,0.0033,0.1153,-0.0527,3.6488,3.5263,-2.0738,0,0,0,0.7490000000107102
0.3137,0.9065,-0.224,0.0033,0.1153,-0.0527,3.6488,3.5263,-2.0738,0,0,0,0.7490000000107102
0.3145,0.9068,-0.2191,0.0033,0.1153,-0.0527,4.2263,3.2462,-2.4237,0,0,0,0.7660000000032596
0.3143,0.9051,-0.2252,0.0024,0.116,-0.041,4.41,4.1825,-2.2925,0,0,0,0.7669999999998254
0.3143,0.9207,-0.2345,0.0024,0.116,-0.041,6.65,4.3225,-2.0825,0,0,0,0.7820000000065193
0.3068,0.908,-0.2345,0.0018,0.1163,-0.052,4.6988,4.3225,-2.0825,0,0,0,0.7820000000065193
0.2995,0.9128,-0.2316,0.0018,0.1163,-0.052,5.1887,3.2462,-2.5113,0,0,0,0.7980000000097789
0.2965,0.9151,-0.2333,0.0018,0.1163,-0.052,5.635,2.4413,-3.6662,-11.95328915950179,7.927841813714377,0.0,0.7980000000097789
0.2967,0.9203,-0.2341,0.0017,0.1156,-0.0521,5.635,2.4413,-5.9062,-13.891008191508634,13.434107920454544,0.03661949998081618,0.8130000000019209
0.3007,0.9246,-0.2373,0.0017,0.1156,-0.0521,6.5188,1.1463,-4.9963,-14.32216615041842,14.776885545221035,0.054960299984552693,0.8290000000051805
0.3007,0.9246,-0.2373,0.0014,0.1155,-0.0554,6.5363,0.665,-6.2475,-14.384034902441163,16.49920518546985,0.054960299984552693,0.8290000000051805
0.3076,0.9242,-0.2314,0.0014,0.1155,-0.0554,6.1075,0.77,-7.2888,-14.106563633049719,17.525306351651537,0.054960299984552693,0.8290000000051805
0.3055,0.9215,-0.2332,0.0014,0.1155,-0.0554,6.1075,0.77,-7.2888,-14.186978808637972,17.740033417242522,0.06728029998146012,0.8450000000011642
0.304,0.921,-0.2324,0.0014,0.1158,-0.0594,4.9088,1.0762,-6.8162,-14.16670641130371,17.74487700268884,0.06728029998146012,0.8450000000011642
0.297,0.9229,-0.2354,0.0014,0.1158,-0.0594,4.0163,0.7437,-7.105,-14.277223143730541,17.437107197586236,0.07843579998643836,0.860000000007858
0.297,0.9229,-0.2328,0.0015,0.1166,-0.0562,3.6662,0.875,-7.1225,-14.186505584954883,17.35948084021262,0.07843579998643836,0.860000000007858
0.2867,0.9153,-0.2328,0.0015,0.1166,-0.0562,3.6662,0.875,-7.1225,-14.249876428123477,17.017074912014863,0.09243579998292407,0.8760000000038417
0.2783,0.9056,-0.2376,0.0015,0.1161,-0.061,3.7625,0.8575,-7.98,-14.594138692825451,16.657806630377248,0.09243579998292407,0.8760000000038417
0.2751,0.9071,-0.2423,0.0024,0.1161,-0.061,4.2962,-0.2537,-8.855,-14.879329369268785,16.391754688816892,0.08863029998307174,0.8910000000032596
0.2704,0.9177,-0.2411,0.0024,0.1161,-0.061,4.8475,-0.9887,-9.6075,-14.7502247485631,15.985895939693494,0.08863029998307174,0.8910000000032596
0.269,0.9298,-0.2462,0.0059,0.119,-0.0611,4.8475,-0.9887,-9.6075,-14.815666452216007,15.683914034166133,0.07281109997984894,0.9070000000065193
0.269,0.9298,-0.2462,0.0059,0.119,-0.0611,4.3225,-2.4062,-10.7712,-14.827697087984534,15.632916036452468,0.07281109997984894,0.9070000000065193
0.2737,0.9359,-0.2541,0.0033,0.1185,-0.0611,3.4213,-3.1588,-11.515,-15.096359213573786,15.744654691760427,0.02227029999253572,0.9230000000025029
0.2788,0.939,-0.2535,0.0033,0.1185,-0.0611,2.4062,-3.6225,-11.8387,-15.103843490803206,15.964904404006168,0.02227029999253572,0.9230000000025029
0.2846,0.9384,-0.2485,0.0033,0.1185,-0.0611,2.4062,-3.6225,-11.8387,-14.927196356326062,16.294935692545533,-0.032067200031712866,0.9380000000091968
0.28,0.9348,-0.2474,0.0054,0.1194,-0.0591,0.7875,-3.535,-11.7688,-14.90714518743649,16.166570954878452,-0.032067200031712866,0.9380000000091968
0.28,0.9348,-0.2474,0.0054,0.1194,-0.0591,-0.3063,-3.1762,-11.725,-14.868764935272706,16.151057448188126,-0.0828864000189562,0.9540000000051805
0.271,0.9312,-0.2481,0.0054,0.1171,-0.0595,-0.3063,-3.1762,-11.5588,-14.89179187975435,15.761795238333143,-0.0828864000189562,0.9540000000051805
0.2641,0.924,-0.2482,0.0054,0.1171,-0.0595,-0.0175,-3.2375,-11.5588,-14.943668145779348,15.4724830985865,-0.1314489000170717,0.9690000000045984
0.2593,0.9243,-0.2514,0.0054,0.1171,-0.0595,-0.1312,-3.6137,-11.34,-15.053628566077943,15.18857788945651,-0.1314489000170717,0.9690000000045984
0.26,0.9274,-0.2471,0.007,0.1187,-0.0548,-0.2013,-4.515,-11.0775,-14.996219288968025,15.161829333009115,-0.20368890003178894,0.985000000007858
0.2667,0.9328,-0.2456,0.007,0.1187,-0.0548,-0.2013,-4.515,-11.0775,-14.89118683047181,15.416834914802825,-0.20368890003178894,0.985000000007858
0.2667,0.9328,-0.2456,0.0086,0.1193,-0.0574,-0.77,-4.9525,-10.2025,-14.811401534708581,15.449821957076807,-0.2829289000118981,1.0010000000038417
0.2729,0.9356,-0.2478,0.0086,0.1193,-0.0574,-1.0762,-4.4538,-9.8787,-14.825731023083591,15.699948213973554,-0.2829289000118981,1.0010000000038417
0.2702,0.9288,-0.2494,0.0086,0.1193,-0.0574,-1.19,-3.955,-9.73,-14.955639833618209,15.694331796852095,-0.342253900009596,1.0160000000032596
0.2707,0.9223,-0.253,0.0107,0.1196,-0.0647,-1.19,-3.955,-9.73,-15.199386026741053,15.786490952630885,-0.342253900009596,1.0160000000032596
0.2687,0.9252,-0.2559,0.0107,0.1196,-0.0647,-0.7962,-3.4913,-10.0712,-15.349264499751825,15.660328771873226,-0.3981146999955738,1.0319999999992433
0.2687,0.9252,-0.2559,0.0095,0.1227,-0.0582,-0.4288,-2.6513,-9.4062,-15.404373158570282,15.641516225977846,-0.3981146999955738,1.0319999999992433
0.2768,0.9276,-0.2471,0.0095,0.1227,-0.0582,-0.8138,-1.8463,-8.1462,-15.123114376063022,15.98943020367518,-0.4258092000079327,1.0470000000059372
0.284,0.9329,-0.2435,0.0095,0.1227,-0.0599,-0.8138,-1.8463,-8.1462,-14.838086035425192,16.321656702478847,-0.4258092000079327,1.0470000000059372
0.2775,0.9238,-0.2387,0.0102,0.1185,-0.0599,-1.6013,-0.5337,-6.8425,-14.599020556142497,16.247909269247884,-0.4343484000096724,1.0630000000091968
0.2645,0.9218,-0.2411,0.0102,0.1185,-0.0599,-2.03,0.7437,-5.9938,-14.641191905171224,15.808751777529011,-0.4343484000096724,1.0630000000091968
0.2543,0.9272,-0.2456,0.0092,0.1197,-0.0559,-1.7237,0.0525,-5.2413,-14.776431521044582,15.400247711641049,-0.4335084000098833,1.0790000000051805
0.2543,0.9272,-0.2456,0.0092,0.1197,-0.0559,-1.7237,0.0525,-5.2413,-14.81778079279004,15.165586252154382,-0.4335084000098833,1.0790000000051805
0.2513,0.9291,-0.2524,0.01,0.1202,-0.0576,-1.4175,-1.2862,-4.97,-15.069891070807166,14.994069889560645,-0.4528014000091346,1.0940000000045984
0.2603,0.9306,-0.243,0.01,0.1202,-0.0576,-1.4088,-2.7562,-4.7425,-14.781741031177768,15.02321023029521,-0.4528014000091346,1.0940000000045984
0.2658,0.9351,-0.243,0.01,0.1202,-0.0576,-1.7763,-3.4388,-5.1363,-14.631606644492994,15.16271673892379,-0.5078221999953233,1.110000000000582
0.2733,0.9346,-0.2403,0.011,0.119,-0.0589,-1.7763,-3.4388,-5.1363,-14.483181093029764,15.41540018315254,-0.5078221999953233,1.110000000000582
0.2733,0.9346,-0.2403,0.011,0.119,-0.0589,-2.2662,-4.3575,-5.5388,-14.436048695851484,15.61784190539094,-0.5731847000244918,1.125000000007276
0.2771,0.9369,-0.2342,0.0088,0.1202,-0.0585,-2.2575,-4.2787,-5.4862,-14.14027117388999,15.812495718395015,-0.6416439000073072,1.1410000000032596
0.2793,0.9403,-0.2317,0.0088,0.1202,-0.0585,-2.2575,-4.2787,-5.9062,-13.920788847830996,15.973412598552896,-0.6416439000073072,1.1410000000032596
0.2806,0.9398,-0.2337,0.0088,0.1202,-0.0585,-3.08,-4.5937,-5.9062,-13.955050155335979,16.0818220730476,-0.715143100022281,1.1570000000065193
0.2728,0.9326,-0.2308,0.0106,0.1186,-0.0545,-3.15,-4.1388,-6.3088,-13.911940590019544,15.933745512686942,-0.715143100022281,1.1570000000065193
0.267,0.9298,-0.2286,0.0106,0.1186,-0.0545,-2.9488,-3.5,-6.9563,-13.834804644597128,15.683324713403143,-0.7676431000202437,1.1720000000059372
0.267,0.9298,-0.2286,0.0101,0.1204,-0.0574,-2.9488,-3.5,-6.9563,-13.8176471763081,15.610861280153294,-0.7676431000202437,1.1720000000059372
0.2644,0.9307,-0.238,0.0101,0.1204,-0.0574,-2.0387,-2.94,-8.225,-14.197466027409565,15.435592179739281,-0.8146831000084357,1.1880000000019209
0.2655,0.9256,-0.2375,0.0101,0.1204,-0.0574,-0.9712,-2.6862,-8.8462,-14.314189811238187,15.510261753456154,-0.8146831000084357,1.1880000000019209
0.266,0.9197,-0.241,0.0121,0.1194,-0.0491,-0.0263,-2.5463,-8.995,-14.448849742368514,15.608601523292672,-0.8528776000254803,1.2030000000086147
0.2677,0.9209,-0.2448,0.0121,0.1194,-0.0491,-0.0263,-2.5463,-8.995,-14.60831583514169,15.676846188231684,-0.8528776000254803,1.2030000000086147
0.2677,0.9209,-0.2448,0.0121,0.1201,-0.0582,0.7437,-1.8988,-8.925,-14.654045346734872,15.689231016837327,-0.883258400017854,1.2190000000045984
0.2691,0.9188,-0.2423,0.0121,0.1201,-0.0582,1.3475,-1.925,-8.9425,-14.707081743310114,15.789539146480246,-0.883258400017854,1.2190000000045984
0.2696,0.9113,-0.2516,0.0121,0.1201,-0.0603,2.7475,-1.9688,-8.2775,-15.207047096055714,15.890055523716283,-0.9147592000242716,1.235000000007858
0.271,0.9094,-0.2492,0.0131,0.1206,-0.0603,2.7475,-1.9688,-8.2775,-15.287733446671892,16.00452118227853,-0.9147592000242716,1.235000000007858
0.2713,0.9061,-0.2554,0.0131,0.1206,-0.0603,3.5438,-1.5575,-7.6388,-15.627901732418792,16.05890170430805,-0.938121700023365,1.250000000007276
0.279,0.9005,-0.2582,0.0129,0.1217,-0.0642,5.2587,-1.155,-6.6325,-15.934164067349105,16.416990546286005,-0.938121700023365,1.250000000007276
0.279,0.9005,-0.2582,0.0129,0.1217,-0.0642,6.6588,-0.7962,-6.1775,-15.990024292475649,16.522207523204,-0.9508609000201672,1.2660000000032596
0.2848,0.8989,-0.2592,0.012,0.12,-0.0595,6.6588,-0.7962,-6.1775,-16.07168406521116,16.77875169098549,-0.9508609000201672,1.2660000000032596
0.2885,0.9055,-0.2598,0.012,0.12,-0.0595,7.4113,0.2187,-5.11,-16.01687451863329,16.872891331931967,-0.9475804000187033,1.2810000000099535
0.2874,0.9159,-0.266,0.012,0.12,-0.0595,8.0063,1.1638,-4.7775,-16.17359350509822,16.850479666943766,-0.9475804000187033,1.2810000000099535
0.2876,0.9166,-0.2638,0.0118,0.1214,-0.0637,8.0063,1.8637,-5.2675,-16.069869255058663,16.819700250832792,-0.9177612000397487,1.2969999999986612
0.2876,0.9166,-0.2638,0.0118,0.1214,-0.0637,7.7263,1.8637,-5.2675,-16.05766401250824,16.802281453165207,-0.9177612000397487,1.2969999999986612
0.2809,0.9209,-0.2672,0.013,0.1213,-0.0607,8.3475,2.8788,-5.8975,-16.166219564079892,16.525697581734427,-0.8717004000303649,1.3130000000019209
0.2799,0.9229,-0.2705,0.013,0.1213,-0.0607,8.4613,3.675,-6.5363,-16.316729762542845,16.325449315221718,-0.8717004000303649,1.3130000000019209
0.2808,0.9237,-0.2666,0.013,0.1213,-0.0607,8.4613,3.675,-6.5363,-16.123686950617234,16.296079764406304,-0.8165754000057649,1.3280000000086147
0.2838,0.9173,-0.2637,0.0126,0.1211,-0.073,8.1637,4.4275,-6.72,-16.048450834162317,16.47768880612571,-0.8165754000057649,1.3280000000086147
0.2838,0.9191,-0.2646,0.0126,0.1211,-0.073,8.0325,4.9963,-6.65,-16.059166376175,16.51142833829529,-0.7316383000429902,1.3450000000011642
0.2862,0.9191,-0.2646,0.014,0.1226,-0.065,7.8313,5.775,-5.7575,-16.060425080011658,16.593713344084296,-0.7316383000429902,1.3450000000011642
0.2859,0.9203,-0.266,0.014,0.1226,-0.065,7.8313,5.775,-5.7575,-16.113870237367664,16.606895825456252,-0.6450133000043331,1.360000000007858
0.2831,0.9227,-0.2679,0.014,0.1226,-0.065,7.2187,6.0988,-5.215,-16.180350251718906,16.527985833424168,-0.6450133000043331,1.360000000007858
0.2821,0.9243,-0.2655,0.0101,0.1203,-0.0616,7.0963,6.23,-5.5037,-16.04680619366867,16.43816403641172,-0.5453333000293548,1.3760000000038417
0.2809,0.926,-0.2607,0.0101,0.1203,-0.0616,6.8513,6.72,-5.7663,-15.767924649651542,16.348471332999342,-0.5453333000293548,1.3760000000038417
0.2809,0.926,-0.2607,0.0109,0.123,-0.0676,6.8513,6.72,-5.7663,-15.729744371225491,16.308886288884075,-0.43781330000745006,1.3920000000071013
0.277,0.9271,-0.2592,0.0109,0.123,-0.0676,5.9062,6.5625,-6.6937,-15.63726463564758,16.133134334226238,-0.43781330000745006,1.3920000000071013
0.2744,0.9254,-0.2636,0.0109,0.123,-0.0676,5.6,6.545,-7.6125,-15.856253849237227,15.96949004422276,-0.30036830005088055,1.4130000000004657
0.2694,0.9285,-0.2624,0.0092,0.1231,-0.0679,5.005,6.6238,-8.7937,-15.7944847597017,15.67001116003109,-0.24737790004008497,1.4210000000020955
0.2687,0.9319,-0.262,0.0092,0.1231,-0.0679,5.005,6.6238,-8.7937,-15.719857978978423,15.542887453253371,-0.1943875000292894,1.4290000000037253
0.2687,0.9304,-0.2629,0.0125,0.1225,-0.0646,4.0425,6.4662,-10.08,-15.765472435085593,15.53331259858494,-0.1426579000187507,1.437000000005355
0.272,0.9304,-0.2629,0.0125,0.1225,-0.0646,3.1675,5.5563,-11.06,-15.774917524207659,15.68921043753976,-0.09820750000969496,1.445000000006985
0.2776,0.9317,-0.2596,0.0142,0.125,-0.0681,2.765,5.3463,-12.0837,-15.6333032230307,15.976492121801904,-0.05543710003988093,1.4530000000013388
0.2788,0.9334,-0.2596,0.0142,0.125,-0.0681,2.765,5.3463,-12.0837,-15.570697528224448,16.045191492871403,-0.012666700031167447,1.4610000000029686
0.2727,0.9356,-0.264,0.0142,0.125,-0.0681,0.9712,4.9875,-12.5387,-15.6263620009239,15.711257350819047,0.02723329997696125,1.4690000000045984
0.2673,0.9388,-0.2564,0.0146,0.1246,-0.0646,0.6037,4.9875,-12.6525,-15.607539257777768,15.396984810440495,0.06713329998508995,1.4770000000062282
0.2673,0.9388,-0.2564,0.0146,0.1246,-0.0646,0.6037,4.9875,-12.88,-15.589727088079469,15.36254350657417,0.10703329999321864,1.485000000007858
0.2605,0.9413,-0.2552,0.0138,0.1246,-0.0682,-0.9013,3.9725,-12.88,-15.340889200206956,14.998209860798248,0.13881329997078934,1.493000000002212
0.256,0.9413,-0.251,0.0138,0.1246,-0.0682,-1.4438,3.3775,-12.4075,-15.06782495638309,14.754285940677091,0.16583329997629404,1.5010000000038417
0.2541,0.9417,-0.248,0.0138,0.1246,-0.0682,-2.7037,2.3275,-12.74,-14.827863520980356,14.638408816525017,0.18445329998008742,1.5090000000054715
0.245,0.9396,-0.2488,0.0159,0.1231,-0.0597,-2.7037,2.3275,-12.74,-14.830394289969375,14.200537363460628,0.2030732999838808,1.5170000000071013
0.245,0.9378,-0.2455,0.0159,0.1231,-0.0597,-3.255,2.3012,-13.0463,-14.703289972242741,14.18532228709712,0.22148289998763132,1.5250000000087311
0.2425,0.9378,-0.2455,0.0148,0.1244,-0.0713,-3.6225,1.3563,-12.5125,-14.676325810564496,14.06018625003856,0.23233329997997346,1.533000000003085
0.2406,0.9379,-0.2431,0.0148,0.1244,-0.0713,-3.4562,0.4988,-13.1337,-14.560097116251786,13.95772828450051,0.2363236999807864,1.5410000000047148
0.2377,0.9401,-0.2419,0.0148,0.1244,-0.0713,-3.4562,0.4988,-13.1337,-14.455938464871869,13.779824882165899,0.24031409998159936,1.5490000000063446
0.2334,0.9416,-0.2435,0.0178,0.1248,-0.0647,-3.9462,-0.4988,-13.2037,-14.49131090631491,13.524107834155268,0.23682249998270266,1.5560000000041327
0.2319,0.9401,-0.2443,0.0178,0.1248,-0.0647,-4.4625,-1.4088,-12.635,-14.55442415483584,13.438336627130244,0.23682249998270266,1.5560000000041327
0.2319,0.9401,-0.2443,0.0202,0.1254,-0.0646,-5.0925,-1.6363,-13.125,-14.565125392455354,13.428888074198879,0.21064169998927457,1.5720000000001164
0.2298,0.9418,-0.2392,0.0202,0.1254,-0.0646,-5.0925,-1.6363,-13.125,-14.298106652793019,13.318370145770535,0.21064169998927457,1.5720000000001164
0.2313,0.9417,-0.2385,0.0202,0.1254,-0.0646,-4.935,-2.4237,-13.5363,-14.225448361008464,13.38544026788211,0.17428619997305062,1.5870000000068103
0.232,0.9398,-0.2348,0.0194,0.1249,-0.0643,-4.7863,-3.1762,-13.1075,-14.058870027806428,13.459951540693984,0.17428619997305062,1.5870000000068103
0.2317,0.9392,-0.241,0.0194,0.1249,-0.0643,-4.8562,-3.78,-12.8625,-14.33969421190223,13.441465146040631,0.11380619996072922,1.60300000001007
0.2317,0.9382,-0.2361,0.0229,0.1245,-0.0727,-4.8562,-3.78,-12.8625,-14.158781679876308,13.4655075026208,0.11380619996072922,1.60300000001007
0.2358,0.9382,-0.2361,0.0229,0.1245,-0.0727,-4.795,-3.3075,-12.4075,-14.130578529745298,13.671725010625455,0.06088619997401322,1.6190000000060536
0.2389,0.9372,-0.2323,0.0229,0.1252,-0.0661,-4.8475,-3.22,-12.0925,-13.9538661416455,13.870858962996572,0.06088619997401322,1.6190000000060536
0.2428,0.9376,-0.2339,0.0229,0.1252,-0.0661,-4.2875,-3.4738,-11.6725,-13.998293068260343,14.07555656162285,0.008779199976035233,1.6340000000054715
0.2413,0.9354,-0.238,0.0229,0.1252,-0.0661,-4.2875,-3.4738,-11.6725,-14.22777130601876,14.041015298426132,0.008779199976035233,1.6340000000054715
0.2383,0.9381,-0.2369,0.0238,0.1262,-0.0632,-3.5788,-2.6688,-10.7625,-14.18343248257181,13.86433669307732,-0.03392160001324599,1.6500000000014552
0.2383,0.9381,-0.2369,0.0238,0.1262,-0.0632,-3.6312,-2.2225,-9.695,-14.174761079395354,13.840677108889032,-0.03392160001324599,1.6500000000014552
0.2324,0.9398,-0.2363,0.0266,0.1247,-0.0624,-3.6312,-2.2225,-9.9225,-14.125475762995503,13.541304793268948,-0.06725910002812314,1.665000000008149
0.2304,0.9409,-0.2374,0.0266,0.1247,-0.0624,-3.0625,-2.0825,-9.9225,-14.153160426628945,13.385254909961036,-0.06725910002812314,1.665000000008149
0.2298,0.9428,-0.2407,0.0266,0.1247,-0.0624,-2.3888,-2.4237,-10.045,-14.279004424534824,13.30276981561226,-0.10603830003602352,1.6810000000114087
0.232,0.9472,-0.2401,0.0265,0.1269,-0.0647,-2.065,-1.9162,-9.625,-14.239201343049146,13.34736475755016,-0.10603830003602352,1.6810000000114087
0.232,0.9435,-0.2421,0.0265,0.1269,-0.0647,-2.065,-1.9162,-9.625,-14.349317108507586,13.388831911558633,-0.13669750002832742,1.6970000000073924
0.2313,0.9435,-0.2421,0.027,0.124,-0.0677,-1.96,-2.0125,-9.2487,-14.379454037034133,13.363324925045301,-0.13669750002832742,1.6970000000073924
0.2349,0.9455,-0.2425,0.027,0.124,-0.0677,-1.7675,-1.9512,-8.9338,-14.383354257322225,13.500132158361271,-0.16596550002719168,1.7120000000068103
0.2337,0.9487,-0.2378,0.027,0.124,-0.0677,-1.4438,-1.855,-8.6888,-14.175948022463576,13.450431153459432,-0.16596550002719168,1.7120000000068103
0.2341,0.9452,-0.2431,0.0287,0.1255,-0.067,-1.4438,-1.855,-8.6888,-14.340751017618345,13.481143199983634,-0.1956455000197414,1.728000000002794
0.23,0.9462,-0.2468,0.0287,0.1255,-0.067,-1.47,-1.4875,-8.5662,-14.526706346174736,13.284275148992803,-0.1956455000197414,1.728000000002794
0.23,0.9462,-0.2468,0.0282,0.1256,-0.0594,-1.26,-1.54,-8.7762,-14.586056658491353,13.245031893112708,-0.29266550002269953,1.7910000000047148
0.2264,0.941,-0.2434,0.0282,0.1256,-0.0594,-0.9013,-1.7938,-8.3038,-14.536529256250871,13.13974126853807,-0.29266550002269953,1.7910000000047148
0.2263,0.9376,-0.246,0.0282,0.1256,-0.0594,-0.9013,-1.7938,-8.3038,-14.634083760359882,13.140623593883832,-0.29266550002269953,1.7910000000047148
0.2248,0.9417,-0.2432,0.0286,0.1258,-0.0688,-0.4988,-2.2575,-7.98,-14.555624266847591,13.042611859225348,-0.32878550001363266,1.8070000000006985
0.2271,0.946,-0.2434,0.0286,0.1258,-0.0688,-0.1575,-2.6688,-7.8488,-14.503243675576206,13.077760361256423,-0.32878550001363266,1.8070000000006985
0.2271,0.9467,-0.2474,0.0294,0.1271,-0.0629,0.28,-2.8963,-7.4812,-14.533220575236037,13.069356297829627,-0.32878550001363266,1.8070000000006985
0.2241,0.9467,-0.2474,0.0294,0.1271,-0.0629,0.28,-2.8963,-7.4812,-14.556880976004667,12.942347961000515,-0.32878550001363266,1.8070000000006985
0.2268,0.9418,-0.2474,0.0296,0.1277,-0.064,-0.385,-3.3425,-7.3412,-14.63479929845673,13.06723737597476,-0.32878550001363266,1.8070000000006985
0.2234,0.9396,-0.2483,0.0296,0.1277,-0.064,-0.1925,-3.5175,-7.28,-14.706166033298357,12.977842108010547,-0.32878550001363266,1.8070000000006985
0.2264,0.9394,-0.2496,0.0296,0.1277,-0.064,-0.3325,-3.325,-6.895,-14.787404358536689,13.072291977925039,-0.3786605000358898,1.8220000000073924
0.2294,0.939,-0.2474,0.0297,0.128,-0.0642,-0.3325,-3.325,-6.895,-14.774759204629609,13.227193772626164,-0.3786605000358898,1.8220000000073924
0.2294,0.939,-0.2474,0.0297,0.128,-0.0642,0.07,-2.9838,-6.3088,-14.770115956776452,13.268848700414733,-0.3786605000358898,1.8220000000073924
0.2289,0.9399,-0.2521,0.0296,0.1278,-0.0689,-0.0088,-3.4475,-5.9588,-14.857408912396416,13.249730740747713,-0.43382050002204353,1.838000000003376
0.2304,0.9404,-0.2464,0.0296,0.1278,-0.0689,-0.0088,-3.4475,-6.265,-14.794878468223107,13.303002971609503,-0.43382050002204353,1.838000000003376
0.2311,0.9404,-0.2463,0.0296,0.1278,-0.0689,-0.3237,-3.955,-6.265,-14.73985811939027,13.347415742721617,-0.49710050003493533,1.8540000000066357
0.2274,0.9406,-0.2499,0.0289,0.1266,-0.0718,0.0,-3.535,-5.5825,-14.788950531313942,13.245590866377066,-0.49710050003493533,1.8540000000066357
0.2274,0.9438,-0.2473,0.0289,0.1266,-0.0718,0.3938,-3.5963,-5.8362,-14.774862836685852,13.173685844078223,-0.551045000032842,1.8690000000060536
0.2289,0.9438,-0.2473,0.03,0.1254,-0.0649,0.3938,-3.5963,-5.8362,-14.762646289506486,13.19066356151734,-0.551045000032842,1.8690000000060536
0.2305,0.9434,-0.2489,0.03,0.1254,-0.0649,0.3325,-3.36,-5.6087,-14.765663017878907,13.244004678079984,-0.6048050000193471,1.8850000000020373
0.2305,0.9428,-0.2521,0.03,0.1254,-0.0649,0.14,-3.9288,-6.0462,-14.824874482941077,13.271302745784148,-0.6048050000193471,1.8850000000020373
0.2308,0.9439,-0.2476,0.0303,0.1286,-0.0723,-0.5075,-3.99,-6.3263,-14.759979535702398,13.294245796340984,-0.6646550000460557,1.9000000000087311
0.2306,0.9422,-0.2519,0.0303,0.1286,-0.0723,-0.5075,-3.99,-6.3263,-14.866810972596888,13.299787917864315,-0.7284950000300305,1.9160000000047148
0.2306,0.9422,-0.2519,0.0305,0.1278,-0.0627,-0.07,-3.5,-6.2038,-14.905467853439015,13.301700483913415,-0.7284950000300305,1.9160000000047148
0.2328,0.9424,-0.2475,0.0305,0.1278,-0.0627,-0.0175,-3.605,-5.915,-14.836792897807753,13.381293256260061,-0.7861750000417815,1.9320000000079744
0.2381,0.9393,-0.2484,0.0305,0.1278,-0.0627,0.315,-3.2113,-6.0375,-14.832293895653395,13.616582792800958,-0.7861750000417815,1.9320000000079744
0.2371,0.9405,-0.2484,0.0298,0.1262,-0.0594,0.315,-3.2113,-6.0375,-14.825239527003808,13.666078564207172,-0.8343445000399123,1.9470000000073924
0.237,0.9404,-0.2518,0.0298,0.1262,-0.0594,-0.1225,-3.08,-5.8713,-14.891229307709905,13.67540068371748,-0.8343445000399123,1.9470000000073924
0.237,0.9404,-0.2492,0.0317,0.1254,-0.0612,0.14,-3.08,-5.285,-14.876956593101633,13.682372459985842,-0.883624500027542,1.963000000003376
0.2331,0.9404,-0.2492,0.0317,0.1254,-0.0612,-0.0787,-2.695,-5.495,-14.863458875834505,13.578591976096309,-0.883624500027542,1.963000000003376
0.2322,0.9394,-0.2478,0.029,0.1274,-0.073,-0.0787,-2.695,-5.495,-14.830253814256995,13.510354676893424,-0.9240495000455821,1.97800000001007
0.2355,0.9401,-0.2502,0.029,0.1274,-0.073,0.2975,-2.485,-5.705,-14.844846561093446,13.56386277679737,-0.9240495000455821,1.97800000001007
0.235,0.9414,-0.2541,0.029,0.1274,-0.073,0.1663,-2.52,-5.8362,-14.91661526266715,13.555979875545754,-0.9643695000171255,1.9939999999987776
0.2305,0.939,-0.2481,0.0303,0.1274,-0.0626,-2.0738,-2.5375,-5.6262,-14.832434350170644,13.447414917456687,-0.9643695000171255,1.9939999999987776
0.2305,0.939,-0.2481,0.0303,0.1274,-0.0626,-0.1575,-2.5375,-5.6262,-14.81915866691419,13.396342901917,-1.0049695000253969,2.0100000000020373
0.2343,0.9354,-0.2474,0.0293,0.1268,-0.0692,-0.14,-2.2925,-5.6525,-14.817340669046521,13.512002393705764,-1.0049695000253969,2.0100000000020373
0.2347,0.9372,-0.2538,0.0293,0.1268,-0.0692,0.5775,-2.1437,-5.6175,-14.82727579069091,13.552570290794105,-1.0371250000397465,2.025000000008731
0.2323,0.9388,-0.2527,0.0293,0.1268,-0.0692,0.5775,-2.1437,-5.6175,-14.834332177798297,13.492239979403642,-1.0371250000397465,2.025000000008731
0.2332,0.9386,-0.2552,0.0306,0.1283,-0.0556,0.805,-2.31,-5.6875,-14.911526386187255,13.48681862054643,-1.0740850000304687,2.041000000004715
0.2332,0.9386,-0.2558,0.0306,0.1283,-0.0556,0.49,-2.5638,-5.5388,-14.929487463774738,13.483420139848043,-1.0740850000304687,2.041000000004715
0.2381,0.9394,-0.2558,0.0316,0.1264,-0.0654,0.6825,-2.1962,-5.635,-14.965643463115414,13.62099210180629,-1.1070280000291903,2.0560000000041327
0.2346,0.9452,-0.2563,0.0316,0.1264,-0.0654,0.6825,-2.1962,-5.635,-14.990211640799737,13.541481012720116,-1.1070280000291903,2.0560000000041327
0.2344,0.9442,-0.2565,0.0316,0.1264,-0.0654,0.8838,-2.2925,-5.6788,-15.042594405371291,13.504129122106269,-1.1437080000199829,2.0720000000001164
0.2349,0.9413,-0.2548,0.0304,0.1286,-0.0627,0.5075,-2.5375,-6.1075,-15.046535115677646,13.528319645525366,-1.1437080000199829,2.0720000000001164
0.2353,0.9423,-0.2538,0.0304,0.1286,-0.0627,-0.1575,-2.0563,-6.335,-15.058041711283323,13.546330680385731,-1.1766088000266857,2.088000000003376
0.2353,0.9423,-0.2538,0.0302,0.1279,-0.0647,-0.1575,-2.0563,-6.335,-15.064792566012335,13.552684848215861,-1.1766088000266857,2.088000000003376
0.2342,0.9421,-0.2519,0.0302,0.1279,-0.0647,-0.1138,-1.9425,-5.775,-15.026935159338622,13.525538194860811,-1.205746300025555,2.103000000002794
0.2295,0.9381,-0.2518,0.0302,0.1279,-0.0647,0.0962,-2.1962,-5.8713,-15.026300252626681,13.391675985823584,-1.205746300025555,2.103000000002794
0.2259,0.9379,-0.2505,0.0321,0.127,-0.0663,0.1225,-1.9775,-5.5563,-15.00471080921072,13.24168456968961,-1.237386300032001,2.1190000000060536
0.2284,0.9416,-0.2478,0.0321,0.127,-0.0663,0.1225,-1.9775,-5.5563,-14.927071902396321,13.221133292228007,-1.237386300032001,2.1190000000060536
0.2284,0.9416,-0.2502,0.031,0.1273,-0.0647,-0.105,-2.6075,-6.3088,-14.908753112496827,13.20343341859829,-1.276498800030483,2.1340000000054715
0.2258,0.9416,-0.2502,0.031,0.1273,-0.0647,0.63,-2.2575,-6.7638,-14.906598886819406,13.096062234941082,-1.276498800030483,2.1340000000054715
0.2261,0.9421,-0.2552,0.031,0.1265,-0.0698,0.21,-3.0712,-6.615,-14.969654611160342,13.059610140437655,-1.3256380000181482,2.150000000001455
0.2267,0.9417,-0.2493,0.0319,0.1265,-0.0698,0.21,-3.0712,-6.615,-14.933948602020783,13.08742741015652,-1.3256380000181482,2.150000000001455
0.2264,0.9417,-0.2509,0.0319,0.1265,-0.0698,0.2187,-3.0975,-6.93,-14.930234378742501,13.08111647919199,-1.3751980000282449,2.166000000004715
0.2274,0.9429,-0.2535,0.0329,0.1264,-0.0714,0.3063,-2.9137,-6.475,-14.953121284984345,13.10062384961684,-1.3751980000282449,2.166000000004715
0.2274,0.9429,-0.2535,0.0329,0.1264,-0.0714,0.3063,-2.9137,-6.3612,-14.971568574334688,13.107049875228105,-1.4189035000265489,2.1810000000041327
0.2257,0.9471,-0.2558,0.0322,0.127,-0.0634,0.4025,-2.835,-6.3612,-14.98957978212056,13.008921822828224,-1.4189035000265489,2.1810000000041327
0.2203,0.9462,-0.2553,0.0322,0.127,-0.0634,0.4375,-2.835,-6.3437,-15.000450110449037,12.788419286404572,-1.46426350003579,2.1970000000073924
0.2205,0.9459,-0.2555,0.0322,0.127,-0.0634,0.1488,-3.1412,-6.1075,-15.033246646230998,12.723371558632099,-1.5113815000339617,2.2120000000068103
0.2225,0.9446,-0.2548,0.0312,0.1278,-0.0675,0.1488,-3.1412,-6.1075,-15.051086828560384,12.778213785018687,-1.5113815000339617,2.2120000000068103
0.2225,0.9446,-0.2548,0.0312,0.1278,-0.0675,0.42,-3.4125,-6.3963,-15.0561347175517,12.800555615861741,-1.565981500020256,2.228000000002794
0.2245,0.9434,-0.2572,0.0314,0.1277,-0.0659,0.35,-3.2375,-6.3525,-15.088032608213432,12.884890186682629,-1.565981500020256,2.228000000002794
0.2259,0.943,-0.2589,0.0314,0.1277,-0.0659,-0.385,-3.465,-6.2475,-15.215484900825288,12.962879277455919,-1.6214215000315506,2.2440000000060536
0.2232,0.9426,-0.2585,0.0314,0.1277,-0.0659,-0.385,-3.465,-6.2475,-15.273542273168179,12.899677086033556,-1.6214215000315506,2.2440000000060536
0.2258,0.9399,-0.2582,0.0337,0.128,-0.0568,-0.35,-3.1237,-5.3375,-15.314804512124521,12.964917168083383,-1.6682770000297324,2.2590000000054715
0.2234,0.942,-0.263,0.0337,0.128,-0.0568,-0.3675,-2.5725,-5.3463,-15.45073137125401,12.919923795102708,-1.6682770000297324,2.2590000000054715
0.2234,0.942,-0.263,0.0346,0.1296,-0.0658,-0.3588,-2.8525,-5.74,-15.521376851517426,12.890481739809244,-1.713917000018276,2.275000000001455
0.2202,0.9426,-0.2636,0.0346,0.1296,-0.0658,-0.3588,-2.8525,-5.74,-15.570035627538925,12.77351929282138,-1.713917000018276,2.275000000001455
0.2226,0.9395,-0.2707,0.0346,0.1296,-0.0658,-0.56,-2.8963,-5.845,-15.83448626445046,12.803633782818064,-1.7573615000376634,2.290000000008149
0.2225,0.939,-0.2628,0.035,0.1279,-0.0672,-0.4288,-3.3425,-6.0462,-15.736192000577057,12.834221339091295,-1.7573615000376634,2.290000000008149
0.2259,0.9415,-0.2619,0.035,0.1279,-0.0672,-0.3413,-3.0975,-6.2737,-15.646317711866143,12.950346662946147,-1.8069215000252228,2.3060000000041327
0.2259,0.9415,-0.2619,0.0334,0.1286,-0.0646,-0.3413,-3.0975,-6.2737,-15.598721485324363,12.992220440804926,-1.8069215000252228,2.3060000000041327
0.2317,0.9385,-0.2627,0.0334,0.1286,-0.0646,-0.1575,-2.7825,-6.5012,-15.614838715694443,13.246441919087395,-1.8514415000342928,2.3220000000073924
0.2328,0.9362,-0.2614,0.0334,0.127,-0.0708,-0.0875,-2.2313,-6.055,-15.609260749431394,13.381794347324135,-1.8514415000342928,2.3220000000073924
0.2356,0.9385,-0.2593,0.0341,0.127,-0.0708,-0.0525,-1.085,-5.6,-15.547715158205591,13.497415177332874,-1.8677165000257667,2.3369999999995343
0.2349,0.9412,-0.2594,0.0341,0.127,-0.0708,-0.0525,-1.085,-5.6,-15.495540650842257,13.513676429006376,-1.8677165000257667,2.3369999999995343
0.2334,0.9412,-0.2619,0.0343,0.1277,-0.0702,-0.6125,-1.0325,-5.6175,-15.524702325778968,13.472888627355715,-1.885269000033099,2.3540000000066357
0.2334,0.9412,-0.2619,0.0343,0.1277,-0.0702,-1.015,-0.7437,-5.8888,-15.540036236379997,13.451662750478809,-1.885269000033099,2.3540000000066357
0.2342,0.9418,-0.2548,0.0342,0.127,-0.0604,-1.015,-0.7437,-6.0725,-15.295361705157664,13.480019510178582,-1.896424500032666,2.3690000000060536
0.232,0.9428,-0.2572,0.0342,0.127,-0.0604,-0.6737,-0.3938,-6.0725,-15.27550199645978,13.403485593702705,-1.896424500032666,2.3690000000060536
0.2289,0.943,-0.2576,0.0342,0.127,-0.0604,-0.3237,0.2713,-6.2562,-15.277020852054866,13.260297193955502,-1.8920837000337556,2.3850000000020373
0.2259,0.9444,-0.2536,0.0348,0.1294,-0.0573,-0.56,0.3675,-6.6588,-15.147796662300678,13.087887299532824,-1.8920837000337556,2.3850000000020373
0.2259,0.9444,-0.2536,0.0348,0.1294,-0.0573,-0.56,0.3675,-6.6588,-15.086464751350952,13.033298236152454,-1.8862037000325578,2.401000000005297
0.2234,0.9468,-0.2564,0.035,0.128,-0.066,-0.5163,0.56,-6.6062,-15.120576485766355,12.895612582421954,-1.8862037000325578,2.401000000005297
0.2242,0.9467,-0.253,0.035,0.128,-0.066,-1.0237,0.4375,-6.5975,-15.023871069737059,12.88983986789624,-1.8796412000328124,2.416000000004715
0.2242,0.9458,-0.2504,0.035,0.128,-0.066,-0.5863,0.2713,-6.055,-14.92024835964273,12.900080872468063,-1.8796412000328124,2.416000000004715
0.2245,0.9435,-0.2549,0.035,0.1281,-0.0662,-0.5863,0.2713,-6.055,-15.025485745583463,12.922483620232363,-1.875300400031928,2.4320000000079744
0.2245,0.9447,-0.2508,0.035,0.1281,-0.0662,-1.3563,-0.2013,-6.4313,-14.922231592592153,12.931148109293552,-1.875300400031928,2.4320000000079744
0.2207,0.9447,-0.2508,0.0328,0.1296,-0.0645,-0.9275,0.1138,-5.9763,-14.889904889093637,12.80758892852974,-1.8735934000319943,2.4470000000073924
0.2228,0.9409,-0.2521,0.0328,0.1296,-0.0645,-0.3675,-0.0875,-6.1337,-14.942129488295333,12.8546476450589,-1.8735934000319943,2.4470000000073924
0.2239,0.9459,-0.2492,0.0328,0.1296,-0.0645,-0.3675,-0.0875,-6.1337,-14.85482954999603,12.878216303583816,-1.8749934000316428,2.463000000003376
0.2266,0.9459,-0.2473,0.0342,0.1274,-0.0684,-0.4288,-0.315,-6.2825,-14.754506673787654,12.987642050396788,-1.8749934000316428,2.463000000003376
0.2264,0.944,-0.2488,0.0342,0.1274,-0.0684,-0.6737,-0.0088,-6.195,-14.760313805994382,13.031080304724599,-1.8751342000316715,2.4790000000066357
0.2264,0.944,-0.2488,0.0355,0.1278,-0.0692,-1.1463,-0.1838,-5.9588,-14.763304769165174,13.046287169242705,-1.8751342000316715,2.4790000000066357
0.2237,0.9457,-0.2474,0.0355,0.1278,-0.0692,-1.1463,-0.1838,-5.9588,-14.698562882384637,12.953456619930844,-1.8778912000315646,2.4940000000060536
0.2211,0.9429,-0.2483,0.0355,0.1278,-0.0692,-0.9363,-0.3413,-5.9412,-14.731158309595596,12.848858804663545,-1.8778912000315646,2.4940000000060536
0.2191,0.9403,-0.2447,0.0359,0.1276,-0.0697,-1.0675,-0.9975,-6.4662,-14.642068449508331,12.75526479565633,-1.8938512000275582,2.5100000000020373
0.2183,0.9401,-0.2453,0.0359,0.1276,-0.0697,-1.0675,-1.1725,-6.5275,-14.63097224307446,12.693670473663031,-1.8938512000275582,2.5100000000020373
0.2183,0.9397,-0.2481,0.0345,0.1275,-0.0642,-0.6913,-1.1725,-6.5275,-14.71882430082049,12.670586902982546,-1.9114387000354067,2.525000000008731
0.217,0.9397,-0.2481,0.0345,0.1275,-0.0642,0.3762,-0.5163,-5.8362,-14.729172564172138,12.622340730326341,-1.9114387000354067,2.525000000008731
0.2219,0.9433,-0.2465,0.0351,0.1276,-0.0666,0.3325,-1.3913,-6.1775,-14.71428283076382,12.747322549423034,-1.9336995000298187,2.541000000004715
0.2266,0.9491,-0.2475,0.0351,0.1276,-0.0666,0.3325,-1.3913,-6.1775,-14.696876199273056,12.91100604280992,-1.9336995000298187,2.541000000004715
0.2261,0.9468,-0.2496,0.0351,0.1276,-0.0666,0.875,-1.3475,-5.8362,-14.714587909660402,12.963357625397629,-1.955259500034211,2.5570000000079744
0.2239,0.9448,-0.2517,0.0372,0.1287,-0.0718,-0.28,-1.5313,-5.9325,-14.806412562745463,12.924896915690605,-1.955259500034211,2.5570000000079744
0.2239,0.9448,-0.2517,0.0372,0.1287,-0.0718,-0.6125,-1.5137,-6.1512,-14.866031419122464,12.908171490903381,-1.9779650000223163,2.5720000000001164
0.2201,0.946,-0.2545,0.0381,0.1286,-0.0636,-0.6125,-1.5137,-6.1512,-14.968903597493613,12.755291106436694,-1.9779650000223163,2.5720000000001164
0.2205,0.9487,-0.2494,0.0381,0.1286,-0.0636,0.3063,-1.0237,-6.195,-14.922366036847128,12.700833615509195,-1.9943442000256533,2.588000000003376
0.2206,0.9448,-0.2513,0.0381,0.1286,-0.0636,0.28,-0.7088,-6.0113,-14.916557220353367,12.709632548040094,-1.9943442000256533,2.588000000003376
0.2192,0.943,-0.2477,0.0364,0.1294,-0.0664,-0.1488,-0.5512,-5.6962,-14.834901475054137,12.688446525642144,-2.0026122000253324,2.603000000002794
0.2192,0.9445,-0.251,0.0364,0.1294,-0.0664,-0.1488,-0.5512,-5.6962,-14.85435797887089,12.663127603788396,-2.011431400027129,2.6190000000060536
0.2199,0.9445,-0.251,0.0368,0.1292,-0.0677,0.6212,0.0525,-5.7838,-14.856290443885689,12.673184256159786,-2.011431400027129,2.6190000000060536
0.2195,0.9449,-0.2505,0.0368,0.1292,-0.0677,1.12,0.5163,-6.1163,-14.853262224941693,12.662235878307966,-2.003170600025446,2.6350000000093132
0.2221,0.9465,-0.2522,0.0368,0.1292,-0.0677,1.2425,0.1312,-6.125,-14.880685658691625,12.732276938814211,-2.003170600025446,2.6350000000093132
0.2241,0.9452,-0.2513,0.0358,0.1287,-0.0738,1.2425,0.1312,-6.125,-14.88400410149073,12.839532896874681,-2.001202600026477,2.650000000001455
0.2284,0.941,-0.2513,0.0358,0.1287,-0.0738,0.5425,-0.0613,-6.5887,-14.88430750322835,13.081601933838082,-2.001202600026477,2.650000000001455
0.2284,0.941,-0.2513,0.0346,0.1277,-0.0562,0.0875,0.1312,-5.7488,-14.905699698309661,13.14596409769321,-1.9991034000260495,2.666000000004715
0.2322,0.9443,-0.2503,0.0346,0.1277,-0.0562,0.2537,0.6037,-5.3987,-14.89208421837212,13.252179597617667,-1.9991034000260495,2.666000000004715
0.2288,0.9424,-0.2519,0.0346,0.1277,-0.0767,0.2537,0.6037,-5.3987,-14.908639317509149,13.227541674727316,-1.9900479000264009,2.6810000000041327
0.2284,0.9392,-0.2496,0.0374,0.1297,-0.0749,0.77,0.945,-5.6175,-14.903928085277778,13.226754192497642,-1.9900479000264009,2.6810000000041327
0.2278,0.9391,-0.2501,0.0374,0.1297,-0.0749,0.1925,0.5163,-5.8625,-14.906252064259562,13.206773322015474,-1.9817871000247178,2.6970000000073924
0.2278,0.9394,-0.2433,0.037,0.1296,-0.0626,0.1925,1.0325,-5.4862,-14.805240750945194,13.208850665920787,-1.9817871000247178,2.6970000000073924
0.2325,0.9394,-0.2433,0.037,0.1296,-0.0626,0.9013,1.0325,-5.4862,-14.730684406003766,13.340315702451166,-1.9652671000213522,2.713000000010652
0.2307,0.9381,-0.2467,0.0382,0.1322,-0.065,1.3913,1.3913,-5.4075,-14.732175769080484,13.358448714324199,-1.9652671000213522,2.713000000010652
0.2312,0.9409,-0.2504,0.0382,0.1322,-0.065,2.2138,1.6975,-5.2063,-14.838700184164104,13.358219598930054,-1.9398046000346911,2.728000000002794
0.2292,0.9414,-0.2526,0.0382,0.1322,-0.065,2.2138,1.6975,-5.2063,-14.952030824584133,13.306263153144782,-1.9398046000346911,2.728000000002794
0.2291,0.9421,-0.2472,0.036,0.1283,-0.0727,1.995,1.5137,-5.25,-14.804456486724387,13.276317019215972,-1.9140717000349554,2.7450000000026193
0.2291,0.9421,-0.2472,0.036,0.1283,-0.0727,2.4675,2.205,-4.7863,-14.737438466369229,13.267435816527659,-1.9140717000349554,2.7450000000026193
0.2306,0.9421,-0.2439,0.0357,0.1276,-0.067,2.6337,1.8025,-4.9262,-14.58680140477906,13.286396089903416,-1.8870342000360045,2.7600000000020373
0.2334,0.9407,-0.2443,0.0357,0.1276,-0.067,2.6337,1.8025,-4.9262,-14.567416324632696,13.351281950457269,-1.8870342000360045,2.7600000000020373
0.2341,0.942,-0.2447,0.0357,0.1276,-0.067,3.0975,1.7062,-4.9,-14.563296769302582,13.400728591572367,-1.859735000030443,2.776000000005297
0.2308,0.9392,-0.249,0.0358,0.1285,-0.0716,2.73,1.75,-4.9262,-14.75897515016157,13.38919670451785,-1.859735000030443,2.776000000005297
0.2308,0.9397,-0.2428,0.0358,0.1285,-0.0716,3.1412,1.8112,-5.4075,-14.562856052607858,13.383170450784249,-1.830755800024539,2.7920000000085565
0.2295,0.9397,-0.2428,0.036,0.13,-0.0686,3.1412,1.8112,-5.4075,-14.508291145874237,13.345452571317217,-1.830755800024539,2.7920000000085565
0.2305,0.9368,-0.2472,0.036,0.13,-0.0686,3.5963,1.5838,-5.3725,-14.714474780504267,13.36260994112955,-1.8069988000369845,2.8070000000006985
0.2351,0.9388,-0.245,0.036,0.13,-0.0686,3.71,2.0387,-5.3637,-14.64751051560545,13.482248182620948,-1.8069988000369845,2.8070000000006985
0.2416,0.9393,-0.2392,0.0353,0.1302,-0.0651,3.29,1.61,-5.1887,-14.383415209121175,13.691765631089078,-1.7812388000317365,2.823000000003958
0.2443,0.9381,-0.2427,0.0353,0.1302,-0.0651,3.29,1.61,-5.1887,-14.472663975358698,13.878757146207501,-1.7812388000317365,2.823000000003958
0.2443,0.9381,-0.2427,0.0362,0.1306,-0.0756,3.8412,1.9338,-5.285,-14.497623691498367,13.998204421844921,-1.752231800032862,2.838000000003376
0.2422,0.936,-0.2437,0.0362,0.1306,-0.0756,4.1038,2.7562,-5.6087,-14.572623180302054,14.029885033136873,-1.752231800032862,2.838000000003376
0.2444,0.934,-0.2403,0.0362,0.1306,-0.0756,4.1737,3.0363,-6.2213,-14.459392083184808,14.15036455658265,-1.7036510000229648,2.8540000000066357
0.2425,0.9307,-0.242,0.0346,0.13,-0.0723,4.1737,3.0363,-6.2213,-14.550212281820171,14.152204159050555,-1.7036510000229648,2.8540000000066357
0.2339,0.9303,-0.2463,0.0346,0.13,-0.0723,4.3488,4.13,-6.335,-14.77095658987624,13.834209098297347,-1.6375710000095025,2.8700000000098953
0.2339,0.9338,-0.2474,0.034,0.1287,-0.074,4.8038,3.7713,-6.9563,-14.826023090703105,13.675570227606993,-1.6375710000095025,2.8700000000098953
0.2323,0.9338,-0.2474,0.034,0.1287,-0.074,4.8038,3.7713,-7.4025,-14.836498310265233,13.560833393029514,-1.5810015000391375,2.8850000000020373
0.2293,0.9425,-0.2488,0.0361,0.1309,-0.0758,4.8562,3.3425,-7.4025,-14.79676216068544,13.320065490992373,-1.5810015000391375,2.8850000000020373
0.2314,0.9409,-0.2491,0.0361,0.1309,-0.0758,4.8212,2.975,-7.7613,-14.8226087455465,13.360922434517112,-1.53340150002944,2.901000000005297
0.2267,0.9404,-0.2536,0.0361,0.1309,-0.0758,3.9025,2.7213,-8.6275,-15.030213781565172,13.15288599521874,-1.53340150002944,2.901000000005297
0.2234,0.9434,-0.257,0.0349,0.1319,-0.0723,3.9025,2.7213,-8.6275,-15.190812017218095,12.925057885678083,-1.4925820000310241,2.916000000004715
0.2234,0.9434,-0.257,0.0349,0.1319,-0.0723,3.6488,2.4762,-9.3013,-15.227004593820556,12.879370480009284,-1.4925820000310241,2.916000000004715
0.2177,0.9451,-0.2625,0.0358,0.1336,-0.0766,3.0712,2.3187,-10.0887,-15.43868742320378,12.569140476311901,-1.455482800023466,2.9320000000079744
0.2151,0.946,-0.2627,0.0358,0.1336,-0.0766,3.5875,2.3625,-10.9462,-15.499678354611225,12.385975332986504,-1.4176828000157653,2.948000000011234
0.2091,0.9452,-0.2652,0.0358,0.1336,-0.0766,3.5875,2.3625,-10.9462,-15.629969215115114,12.072783433973425,-1.4176828000157653,2.948000000011234
0.2064,0.9473,-0.2731,0.0377,0.1325,-0.0866,3.9288,1.89,-11.5588,-15.978765364504062,11.855250791616708,-1.3893328000306169,2.963000000003376
0.2064,0.9482,-0.2708,0.0377,0.1325,-0.0866,3.2287,0.9712,-11.7338,-15.949808784544068,11.825812579335174,-1.3893328000306169,2.963000000003376
0.2117,0.9482,-0.2708,0.0373,0.1338,-0.077,2.8087,0.9013,-11.76,-15.942321498053415,12.08125519504124,-1.3749120000276789,2.9790000000066357
0.213,0.9499,-0.2692,0.0373,0.1338,-0.077,2.8087,0.9013,-11.76,-15.859330555638019,12.163024959955585,-1.3749120000276789,2.9790000000066357
0.2115,0.9517,-0.2696,0.0373,0.1338,-0.077,2.59,0.5688,-11.6812,-15.830575152800353,12.080707424241478,-1.36638000002801,2.9940000000060536
0.214,0.9454,-0.2672,0.0375,0.1333,-0.0778,2.485,0.4375,-12.18,-15.798515635109998,12.264621072057636,-1.36638000002801,2.9940000000060536
0.2154,0.9471,-0.269,0.0375,0.1333,-0.0778,1.7675,0.8838,-11.8387,-15.830039590116824,12.331495144055639,-1.352239200025129,3.0100000000093132
0.2154,0.9471,-0.269,0.039,0.1323,-0.0829,1.7675,0.8838,-11.8387,-15.844236148606926,12.33951532677299,-1.352239200025129,3.0100000000093132
0.2152,0.945,-0.2736,0.039,0.1323,-0.0829,1.8813,1.1025,-11.5413,-16.017293262192403,12.338730728758554,-1.334599200029557,3.026000000005297
0.2125,0.9422,-0.2697,0.039,0.1323,-0.0829,1.12,1.0325,-11.2963,-16.001340902959978,12.2473836821639,-1.334599200029557,3.026000000005297
0.2123,0.9439,-0.2664,0.0408,0.1347,-0.0773,0.525,1.3388,-10.9375,-15.996171686249541,12.21841414903756,-1.3145172000303362,3.041000000004715
0.2112,0.9468,-0.2681,0.0408,0.1347,-0.0773,0.525,1.3388,-10.9375,-15.992175272455016,12.127631408429686,-1.3145172000303362,3.041000000004715
0.2112,0.9468,-0.2741,0.0415,0.1351,-0.0792,0.315,1.26,-10.57,-16.02110259580674,12.098610063228577,-1.2943572000262291,3.0570000000079744
0.2065,0.9492,-0.2741,0.0415,0.1351,-0.0792,0.4988,1.4,-11.025,-16.025054506720327,11.844478393750382,-1.2943572000262291,3.0570000000079744
0.2065,0.9514,-0.2716,0.043,0.1342,-0.0825,0.4988,1.4,-11.445,-16.020809223632224,11.795988075326981,-1.2733572000372304,3.0720000000001164
0.2006,0.9525,-0.265,0.043,0.1342,-0.0825,0.035,1.3913,-11.445,-15.860500711043665,11.51057230328412,-1.2733572000372304,3.0720000000001164
0.2002,0.9507,-0.2664,0.043,0.1342,-0.0825,-0.5337,1.3038,-11.7513,-15.75306383792356,11.468349412173744,-1.2524964000329806,3.088000000003376
0.1964,0.9509,-0.267,0.0438,0.1354,-0.0798,-0.0525,1.47,-12.0138,-15.727191138501285,11.27266539232566,-1.2524964000329806,3.088000000003376
0.1964,0.9509,-0.267,0.0438,0.1354,-0.0798,-0.0525,1.47,-12.0138,-15.711015292563879,11.249679770865264,-1.2289764000281889,3.1040000000066357
0.1867,0.954,-0.2701,0.0437,0.1341,-0.0754,-0.3675,1.0938,-12.3112,-15.757376561237962,10.730448099592984,-1.2289764000281889,3.1040000000066357
0.1804,0.9568,-0.2735,0.0437,0.1341,-0.0754,-0.5075,0.6037,-12.3287,-15.857531769283558,10.32679405007641,-1.2199209000285403,3.1190000000060536
0.1819,0.9561,-0.2709,0.0437,0.1341,-0.0754,-0.4288,-0.5337,-11.6462,-15.838734968752144,10.367282445544216,-1.2199209000285403,3.1190000000060536
0.1847,0.9616,-0.2702,0.0446,0.1353,-0.0698,-0.4288,-0.5337,-11.6462,-15.76766647807941,10.463070106294198,-1.22846010003028,3.1350000000093132
0.1847,0.9616,-0.2799,0.0446,0.1353,-0.0698,-0.245,-1.0412,-11.375,-15.971590957228965,10.45094942303848,-1.22846010003028,3.1350000000093132
0.1763,0.964,-0.2799,0.0452,0.1354,-0.0785,-0.77,-1.3125,-10.9987,-16.09618824189608,10.026589869683812,-1.2481476000199663,3.150000000001455
0.1806,0.9619,-0.2728,0.0452,0.1354,-0.0785,-1.0675,-2.0825,-10.3425,-15.934049609401141,10.207882824190902,-1.2481476000199663,3.150000000001455
0.1771,0.9617,-0.2682,0.0452,0.1354,-0.0785,-1.0675,-2.0825,-10.3425,-15.717138800176535,10.080535913829172,-1.2814676000267544,3.166000000004715
0.1777,0.9603,-0.2753,0.0469,0.1348,-0.0705,-0.42,-2.5287,-9.5025,-15.854524693258098,10.085364509091091,-1.2814676000267544,3.166000000004715
0.177,0.9598,-0.2713,0.0469,0.1348,-0.0705,-0.8662,-2.8612,-8.9075,-15.813012674482822,10.067104405007832,-1.3272468000152629,3.1820000000006985
0.177,0.9598,-0.2713,0.0489,0.1355,-0.0785,-0.5425,-2.5812,-8.295,-15.79769618759876,10.063825191344424,-1.3272468000152629,3.1820000000006985
0.1772,0.9554,-0.2688,0.0489,0.1355,-0.0785,-0.5425,-2.5812,-8.295,-15.753976917637706,10.110612013631984,-1.365964800032541,3.1970000000073924
0.1762,0.9508,-0.27,0.0489,0.1355,-0.0785,-0.7437,-3.15,-7.42,-15.809787748934202,10.108583165408442,-1.365964800032541,3.1970000000073924
0.1773,0.9501,-0.2688,0.046,0.1354,-0.0769,-0.63,-3.8063,-6.4138,-15.80295046788294,10.155334548029085,-1.4268656000449482,3.213000000010652
0.1769,0.9519,-0.2717,0.046,0.1354,-0.0769,-0.2713,-3.71,-5.6525,-15.86025656862796,10.142799777888651,-1.4268656000449482,3.213000000010652
0.1769,0.9519,-0.2699,0.0466,0.1354,-0.0802,-0.2713,-3.71,-5.6525,-15.846666624930792,10.139619097885943,-1.4825156000157949,3.228000000002794
0.1807,0.9526,-0.2699,0.0466,0.1354,-0.0802,-0.1838,-3.64,-5.4513,-15.834988728642733,10.238776422823639,-1.4825156000157949,3.228000000002794
0.1849,0.9536,-0.267,0.0482,0.1358,-0.0778,-0.2625,-3.675,-4.9612,-15.748565989375924,10.345220692592196,-1.541315600027774,3.2440000000060536
0.1873,0.9513,-0.2711,0.0482,0.1358,-0.0778,-0.2625,-3.675,-2.7213,-15.819177573420577,10.58643007570639,-1.541315600027774,3.2440000000060536
0.1931,0.9514,-0.2683,0.0482,0.1358,-0.0778,-0.105,-3.5087,-4.3225,-15.791379445472403,10.656960809739406,-1.597454800013682,3.2600000000020373
0.1963,0.9522,-0.2653,0.0481,0.137,-0.0737,-0.2013,-2.87,-4.48,-15.696110478543822,10.668504417481403,-1.597454800013682,3.2600000000020373
0.1963,0.9522,-0.2653,0.0481,0.137,-0.0737,0.385,-1.96,-4.2,-15.678363511088309,10.798756234157368,-1.626854800026802,3.275000000008731
0.1985,0.946,-0.2663,0.0482,0.1362,-0.0742,0.385,-1.96,-4.2,-15.684441357814592,10.942066597675518,-1.626854800026802,3.275000000008731
0.1938,0.942,-0.2707,0.0482,0.1362,-0.0742,-0.0175,-2.065,-3.7187,-15.810173999638916,11.048580676417723,-1.6619598000264413,3.2920000000085565
0.1891,0.9437,-0.272,0.0482,0.1362,-0.0742,0.4812,-1.6275,-3.9987,-15.826726608408418,10.998449523298998,-1.6619598000264413,3.2920000000085565
0.1949,0.9443,-0.2688,0.0476,0.1354,-0.0795,1.2163,-1.2775,-3.9288,-15.8518096012168,11.08188857101188,-1.6811223000164026,3.3070000000006985
0.1949,0.9443,-0.2688,0.0476,0.1354,-0.0795,1.2163,-1.2775,-3.9288,-15.86683534069293,11.134977753911983,-1.6811223000164026,3.3070000000006985
0.1929,0.945,-0.2722,0.0473,0.1346,-0.0795,1.575,-1.5838,-3.7362,-15.969132505219022,11.118862476817686,-1.7064631000215653,3.323000000003958
0.1946,0.9478,-0.2683,0.0473,0.1346,-0.0795,2.1437,-2.0475,-4.5588,-15.868561642476864,11.121964946974286,-1.7064631000215653,3.323000000003958
0.1929,0.9493,-0.2732,0.0473,0.1346,-0.0795,2.2225,-2.3187,-4.6725,-15.98553182677945,11.111324185697276,-1.7435623000122527,3.338999999999942
0.1953,0.9492,-0.2719,0.0462,0.136,-0.0714,2.2225,-2.3187,-4.6725,-15.9848561351494,11.122654405953432,-1.7783428000277737,3.3540000000066357
0.1957,0.9501,-0.2704,0.0462,0.136,-0.0714,2.6688,-1.925,-4.4187,-15.917964405969586,11.128942618919936,-1.7783428000277737,3.3540000000066357
0.1957,0.9501,-0.2704,0.0478,0.1365,-0.0771,2.4413,-2.2487,-5.0925,-15.897331100826532,11.157537303414552,-1.8143220000351037,3.3700000000098953
0.1934,0.9511,-0.2751,0.0478,0.1365,-0.0771,2.4588,-2.5287,-5.4775,-16.051538150491833,11.10576746920741,-1.8168507000264196,3.371000000006461
0.1917,0.9485,-0.2748,0.0478,0.1365,-0.0771,2.4588,-2.5287,-5.4775,-16.12103899598734,11.046545340518065,-1.8168507000264196,3.371000000006461
0.1881,0.9488,-0.2775,0.0456,0.1356,-0.0742,1.9075,-2.135,-4.7512,-16.22583634364974,10.991789180977642,-1.8488757000251768,3.386000000005879
0.1874,0.95,-0.2777,0.0456,0.1356,-0.0742,2.0912,-2.0475,-4.2263,-16.26749680882199,10.933615689879263,-1.8816357000318509,3.4020000000091386
0.1874,0.95,-0.2788,0.0472,0.1369,-0.0803,2.0912,-2.6513,-4.3837,-16.32095667503576,10.91108738211904,-1.8816357000318509,3.4020000000091386
0.1893,0.9498,-0.2788,0.0472,0.1369,-0.0803,1.715,-2.6513,-4.3837,-16.341364028074835,10.902224932852778,-1.9240565000212024,3.4180000000051223
0.1896,0.9517,-0.2822,0.0472,0.1363,-0.0788,1.365,-2.7738,-4.7337,-16.420054738858497,10.885424133798356,-1.9240565000212024,3.4180000000051223
0.1913,0.951,-0.2835,0.0478,0.1363,-0.0788,1.4612,-2.38,-4.4887,-16.505853206811054,10.885724744311307,-1.9597565000198172,3.43300000000454
0.1906,0.9521,-0.2843,0.0478,0.1363,-0.0788,1.4612,-2.38,-4.4887,-16.563133568091306,10.885408719377487,-1.9597565000198172,3.43300000000454
0.1934,0.9528,-0.2852,0.047,0.1369,-0.085,1.33,-2.6425,-4.8825,-16.607399007476733,10.918241823040944,-2.0020365000284306,3.4490000000078
0.1934,0.9528,-0.2852,0.047,0.1369,-0.085,0.9187,-3.1063,-4.83,-16.622718586748668,10.939543426958958,-2.0020365000284306,3.4490000000078
0.1945,0.9534,-0.2807,0.048,0.136,-0.0749,0.5863,-3.15,-4.6725,-16.614496973498287,10.95911614027796,-2.049286500026597,3.4640000000072177
0.1957,0.9532,-0.283,0.048,0.136,-0.0749,0.5863,-3.15,-4.6725,-16.611521368793454,10.984855104150958,-2.049286500026597,3.4640000000072177
0.1959,0.9515,-0.2848,0.048,0.136,-0.0749,0.1838,-2.835,-4.3225,-16.625323520508687,11.010980643230095,-2.0946465000152106,3.4800000000032014
0.1976,0.9501,-0.2832,0.046,0.1355,-0.0693,0.1488,-2.4588,-4.6375,-16.617526647026647,11.04244071175891,-2.0946465000152106,3.4800000000032014
0.1976,0.9501,-0.2832,0.046,0.1355,-0.0693,-0.6125,-2.66,-4.585,-16.607012625072837,11.060334501461323,-2.137206500004527,3.495999999999185
0.199,0.95,-0.2846,0.0475,0.137,-0.0798,-0.6125,-2.66,-4.585,-16.644648969908502,11.082631853217203,-2.137206500004527,3.495999999999185
0.2009,0.9462,-0.2843,0.0475,0.137,-0.0798,-0.8925,-2.065,-4.0512,-16.691285929348314,11.210143277195348,-2.16818150001835,3.511000000005879
0.2008,0.9465,-0.2843,0.0475,0.137,-0.0798,-0.49,-1.8988,-3.9987,-16.705231473326542,11.302025023989065,-2.16818150001835,3.511000000005879
0.2009,0.9426,-0.2825,0.0445,0.1348,-0.0874,-1.1725,-1.435,-4.1213,-16.69157233605784,11.367186664475918,-2.1911415000230274,3.5270000000091386
0.2005,0.944,-0.2786,0.0445,0.1348,-0.0874,-1.1725,-1.435,-4.1213,-16.534252654213947,11.407565392314773,-2.1911415000230274,3.5270000000091386
0.2005,0.944,-0.2786,0.0482,0.1366,-0.0814,-0.9013,-0.8838,-4.2438,-16.480129969588425,11.4293161271537,-2.2043985000160826,3.5420000000012806
0.2051,0.9418,-0.2776,0.0482,0.1366,-0.0814,-0.5163,-0.8138,-4.515,-16.450756212355905,11.43460550798464,-2.2043985000160826,3.5420000000012806
0.2056,0.9425,-0.2737,0.0482,0.1366,-0.0814,-0.8313,-0.4288,-4.27,-16.301487167283483,11.50898864784891,-2.2112593000174803,3.55800000000454
0.2017,0.943,-0.2745,0.0462,0.135,-0.0814,-0.8313,-0.4288,-4.27,-16.25998268440765,11.527037906558014,-2.2112593000174803,3.55800000000454
0.1975,0.9437,-0.2761,0.0462,0.135,-0.0814,-0.84,-0.315,-4.4012,-16.28787604012055,11.511720797055478,-2.2162993000162152,3.574000000000524
0.1975,0.9437,-0.2761,0.0493,0.135,-0.083,-0.3413,-0.4112,-4.6025,-16.297336557115038,11.49743726534101,-2.2162993000162152,3.574000000000524
0.199,0.9428,-0.2736,0.0493,0.135,-0.083,-0.3413,-0.4112,-4.4975,-16.243408706755897,11.497323671086443,-2.222467300018968,3.5890000000072177
0.1979,0.9468,-0.2758,0.0493,0.135,-0.0822,0.175,-0.4112,-4.4975,-16.242669714808027,11.49687847905415,-2.222467300018968,3.5890000000072177
0.2009,0.9496,-0.2773,0.0453,0.1346,-0.0822,-0.105,-0.7,-4.5413,-16.256904596448837,11.496199790245765,-2.2336673000212497,3.6050000000104774
0.1998,0.9512,-0.2778,0.0453,0.1346,-0.0822,0.035,-0.4462,-4.5237,-16.264913614652084,11.494006662158208,-2.2336673000212497,3.6050000000104774
0.2033,0.9511,-0.2791,0.047,0.1354,-0.0854,0.035,-0.4462,-4.5237,-16.295184004937706,11.496204262446026,-2.2403603000177434,3.6200000000026193
0.2033,0.9511,-0.2791,0.047,0.1354,-0.0854,0.0962,-0.6475,-4.6463,-16.313554923272555,11.508247378576907,-2.2403603000177434,3.6200000000026193
0.199,0.9507,-0.2763,0.0461,0.137,-0.0822,-0.0787,-0.5775,-4.6813,-16.271907200822554,11.486336378439773,-2.249600300019626,3.636000000005879
0.1937,0.9497,-0.2777,0.0461,0.137,-0.0822,-0.4025,-1.3563,-4.9875,-16.285272379541695,11.352025910989605,-2.249600300019626,3.636000000005879
0.1943,0.9489,-0.2765,0.0461,0.137,-0.0822,-0.4025,-1.3563,-4.9875,-16.265948536469306,11.276625703018759,-2.2713011000141785,3.6520000000018626
0.195,0.9479,-0.2757,0.0458,0.1362,-0.0798,-0.6388,-1.6275,-5.1887,-16.239532694863854,11.234755732870662,-2.2713011000141785,3.6520000000018626
0.195,0.9479,-0.2757,0.0458,0.1362,-0.0798,-0.7525,-2.3625,-5.53,-16.226943336167686,11.203894338464178,-2.306738600029993,3.6670000000085565
0.1909,0.9476,-0.2782,0.0454,0.1351,-0.08,-1.1025,-2.1788,-5.6438,-16.310641351959145,11.06325298212286,-2.306738600029993,3.6670000000085565
0.1941,0.9471,-0.2772,0.0454,0.1351,-0.08,-1.1025,-2.1788,-5.6438,-16.312640455428177,11.097502238164404,-2.3415994000212423,3.68300000000454
0.1952,0.9479,-0.2758,0.0454,0.1351,-0.08,-0.7525,-1.9512,-5.5563,-16.261886041106557,11.142326612524364,-2.3708674000201064,3.698000000003958
0.1961,0.9468,-0.2753,0.0466,0.1335,-0.0778,-0.9538,-2.2838,-5.565,-16.232421268319133,11.196979819242172,-2.3708674000201064,3.698000000003958
0.194,0.9454,-0.2754,0.0466,0.1335,-0.0778,-0.8662,-2.59,-5.81,-16.237515076314637,11.167730446423771,-2.4123074000285487,3.7140000000072177
0.194,0.9454,-0.2754,0.0478,0.1365,-0.0798,-0.8662,-2.59,-5.81,-16.239625917469514,11.155065765094163,-2.4123074000285487,3.7140000000072177
0.1957,0.9443,-0.2759,0.0478,0.1365,-0.0798,-0.7788,-2.4325,-5.9675,-16.26662807835101,11.211984106653006,-2.451227400018779,3.7300000000032014
0.1945,0.9448,-0.2721,0.0478,0.1365,-0.0798,-0.6562,-2.3625,-5.81,-16.157208913991962,11.199492090706896,-2.451227400018779,3.7300000000032014
0.2003,0.9455,-0.2698,0.0482,0.1374,-0.081,0.1838,-2.1088,-5.5475,-16.095661256293337,11.360564694083754,-2.4828594000328947,3.7450000000098953
0.2022,0.9454,-0.2707,0.0482,0.1374,-0.081,0.1838,-2.1088,-5.5475,-16.0643703310041,11.492715256630339,-2.4828594000328947,3.7450000000098953
0.2022,0.9454,-0.2707,0.0473,0.1358,-0.0875,0.0088,-2.03,-5.5213,-16.03422452198166,11.556473297620872,-2.5153394000099714,3.760999999998603
0.2011,0.9472,-0.2733,0.0473,0.1358,-0.0875,-0.105,-1.9162,-5.565,-16.058084815835844,11.542562693894146,-2.5153394000099714,3.760999999998603
0.2016,0.9468,-0.2741,0.0473,0.1358,-0.0806,-0.105,-1.9162,-5.67,-16.09270573218574,11.55155346981164,-2.5440824000227984,3.776000000005297
0.2,0.9456,-0.2746,0.0481,0.1351,-0.0806,-0.4812,-1.9688,-5.67,-16.143636443680048,11.513753073523066,-2.5440824000227984,3.776000000005297
0.1961,0.9484,-0.275,0.0481,0.1351,-0.0806,-0.7525,-1.7587,-5.5125,-16.158621290558433,11.372131050116113,-2.572221600028531,3.7920000000085565
0.1961,0.9484,-0.2753,0.0466,0.1359,-0.0819,-0.4112,-1.4875,-5.25,-16.172443747714677,11.311781815266189,-2.572221600028531,3.7920000000085565
0.1996,0.9484,-0.2753,0.0466,0.1359,-0.0819,-0.4112,-1.4875,-5.25,-16.179502630472893,11.360925612141854,-2.596021600022557,3.80800000000454
0.201,0.9481,-0.2742,0.0492,0.136,-0.0729,-0.1488,-1.1725,-5.3987,-16.159355150500694,11.432058185989309,-2.596021600022557,3.80800000000454
0.2002,0.9485,-0.2733,0.0492,0.136,-0.0729,-0.4462,-1.3563,-5.8362,-16.116705949983515,11.450969432129742,-2.6163661000217675,3.823000000003958
0.1993,0.9493,-0.273,0.0492,0.136,-0.0729,-0.1312,-1.2513,-5.6613,-16.08740306788772,11.427469131368607,-2.6163661000217675,3.823000000003958
0.2011,0.9478,-0.2712,0.0481,0.1364,-0.082,-0.1312,-1.2513,-5.6613,-16.03904953732894,11.482298924175575,-2.636386900016742,3.838999999999942
0.2011,0.9478,-0.2712,0.0481,0.1364,-0.082,-0.3938,-1.015,-5.7838,-16.004487366069373,11.508846155053694,-2.636386900016742,3.838999999999942
0.2026,0.9478,-0.2731,0.0469,0.1366,-0.0822,-1.0237,-0.91,-5.7663,-16.04687250643589,11.563790696018923,-2.650036900022833,3.8540000000066357
0.2022,0.9506,-0.2761,0.0469,0.1366,-0.0822,-0.5163,-1.1812,-6.09,-16.123640488224876,11.552117716103853,-2.650036900022833,3.8540000000066357
0.2011,0.9501,-0.2796,0.0469,0.1366,-0.0822,-0.5163,-1.1812,-6.09,-16.265209583438,11.506605214467708,-2.6689361000266834,3.8700000000098953
0.1969,0.9481,-0.2694,0.047,0.1357,-0.0806,-0.5075,-0.7875,-6.4313,-16.058441219777986,11.368701926413982,-2.6689361000266834,3.8700000000098953
0.1969,0.9496,-0.2729,0.047,0.1357,-0.0806,-0.4375,-0.4988,-6.0375,-16.046223401896327,11.3092059296354,-2.67691690002468,3.886000000005879
0.1969,0.9496,-0.2729,0.0486,0.1362,-0.081,-0.5512,-0.6388,-6.0462,-16.039727771184065,11.285702680643954,-2.67691690002468,3.886000000005879
0.1944,0.9485,-0.2727,0.0486,0.1362,-0.081,-0.5512,-0.6388,-6.0462,-16.040023097050828,11.199193349182185,-2.6864989000243082,3.901000000005297
0.1933,0.949,-0.2728,0.0486,0.1362,-0.081,-0.2537,-0.7175,-6.1075,-16.039057753703744,11.123363064011405,-2.6864989000243082,3.901000000005297
0.1906,0.9509,-0.274,0.047,0.137,-0.0849,-0.7088,-1.2862,-6.1512,-16.0586402028309,10.985487151241447,-2.7070781000191424,3.9170000000012806
0.1879,0.9524,-0.2682,0.047,0.137,-0.0849,-0.7088,-1.12,-6.0375,-15.874270321526774,10.844459842621891,-2.7070781000191424,3.9170000000012806
0.1879,0.9524,-0.2682,0.0487,0.1362,-0.0746,-1.0588,-1.12,-6.0375,-15.783795373402247,10.788872128746394,-2.7238781000266394,3.9320000000079744
0.1915,0.9527,-0.2713,0.0487,0.1362,-0.0746,-0.8662,-1.2862,-5.985,-15.849117829384696,10.880099071347283,-2.7238781000266394,3.9320000000079744
0.1902,0.9515,-0.2774,0.0487,0.1362,-0.0746,-1.4175,-1.435,-5.7575,-16.117089370666637,10.870749665830195,-2.746838100020876,3.948000000003958
0.1902,0.9515,-0.2766,0.0473,0.137,-0.0842,-1.4175,-1.435,-5.7575,-16.17805518270796,10.867940146618535,-2.746838100020876,3.948000000003958
0.1933,0.9542,-0.2711,0.0473,0.137,-0.0842,-1.4,-1.5662,-5.67,-15.96825850179192,10.953580791329832,-2.771897300025981,3.9640000000072177
0.1933,0.9532,-0.2706,0.0486,0.1399,-0.0805,-1.8637,-1.8725,-5.775,-15.883609070299983,11.001295547090473,-2.771897300025981,3.9640000000072177
0.1943,0.9532,-0.2706,0.0486,0.1399,-0.0805,-1.4875,-1.9688,-5.6962,-15.860066424242184,11.052011709588966,-2.801429300024835,3.9790000000066357
0.1943,0.9534,-0.2702,0.048,0.1378,-0.0845,-1.4875,-1.9688,-5.6962,-15.835274142438815,11.074614399628151,-2.801429300024835,3.9790000000066357
0.197,0.9495,-0.2711,0.048,0.1378,-0.0845,-1.75,-1.6625,-5.8538,-15.904776307719692,11.194254696612292,-2.8280293000181578,3.9950000000026193
0.1927,0.9474,-0.2723,0.048,0.1378,-0.0845,-1.6275,-1.26,-6.0813,-15.994398390976526,11.112603905384406,-2.8469293000265923,4.010000000009313
0.1971,0.9458,-0.2677,0.0486,0.1367,-0.0782,-1.7062,-1.1812,-5.5912,-15.862304111168864,11.23042990320552,-2.8469293000265923,4.010000000009313
0.1971,0.9458,-0.2677,0.0486,0.1367,-0.0782,-1.7062,-1.1812,-5.5912,-15.821699260259773,11.286786483116446,-2.8658285000218484,4.026000000005297
0.1976,0.9487,-0.2666,0.0464,0.1355,-0.0813,-1.645,-0.6737,-6.1775,-15.735530572296039,11.319161636248813,-2.8658285000218484,4.026000000005297
0.2005,0.949,-0.2658,0.0464,0.1355,-0.0813,-1.645,-0.8925,-6.2737,-15.67454674335031,11.434562445068114,-2.880108500018264,4.042000000001281
0.2045,0.9444,-0.2639,0.0464,0.1355,-0.0813,-1.2862,-0.1838,-6.685,-15.634278932027295,11.671665849092305,-2.880108500018264,4.042000000001281
0.1997,0.9467,-0.2681,0.0482,0.1374,-0.0856,-1.2862,-0.1838,-6.685,-15.749152894521622,11.535383463376622,-2.8828655000194945,4.0570000000079744
0.1997,0.9468,-0.2701,0.0482,0.1374,-0.0856,-0.9975,-0.0437,-7.1312,-15.85419973172049,11.484895478987246,-2.8828655000194945,4.0570000000079744
0.2007,0.9468,-0.2701,0.0491,0.137,-0.0783,-1.0762,0.1663,-6.5275,-15.896286150324762,11.50946553782328,-2.8802047000201623,4.073000000003958
0.1977,0.9449,-0.2671,0.0491,0.137,-0.0783,-1.1812,0.6037,-6.475,-15.825343897843373,11.425969793423679,-2.8802047000201623,4.073000000003958
0.1984,0.9443,-0.2666,0.0491,0.137,-0.0783,-1.1812,0.6037,-6.475,-15.787580054288355,11.429320646112146,-2.871149200016121,4.088000000010652
0.1946,0.9492,-0.2694,0.0492,0.1362,-0.085,-0.9538,0.5075,-6.9388,-15.82197536572617,11.236183955459744,-2.871149200016121,4.088000000010652
0.1917,0.9494,-0.2745,0.0492,0.1362,-0.085,-1.1287,0.1575,-6.7112,-16.012478587689284,11.058040182226684,-2.8686292000178994,4.10399999999936
0.1917,0.9494,-0.2745,0.0502,0.1378,-0.0784,-1.1287,-2.0825,-7.1663,-16.083677045628942,10.99944038191553,-2.8686292000178994,4.10399999999936
0.1922,0.9534,-0.2694,0.0502,0.1378,-0.0784,-0.5512,-0.0875,-7.1663,-15.923989075975854,10.984503647811675,-2.870029200018185,4.120000000002619
0.1927,0.9557,-0.2728,0.0502,0.1378,-0.0784,-0.5688,0.3762,-7.3412,-15.927761349499523,10.975862864600362,-2.870029200018185,4.120000000002619
0.1906,0.9523,-0.2691,0.0492,0.1359,-0.0794,-0.5512,0.1663,-7.1137,-15.849994232657872,10.922402393411753,-2.8675347000170714,4.135000000009313
0.1917,0.9541,-0.2689,0.0492,0.1359,-0.0794,-0.5512,0.1663,-7.1137,-15.792299644948224,10.938913691783688,-2.8675347000170714,4.135000000009313
0.1917,0.952,-0.2653,0.0502,0.1355,-0.0795,-0.6825,0.21,-7.5163,-15.670759141713807,10.967953000465128,-2.864174700017915,4.151000000005297
0.1967,0.952,-0.2653,0.0502,0.1355,-0.0795,-0.7437,1.0237,-7.91,-15.615058934184319,11.191203479278196,-2.864174700017915,4.151000000005297
0.1907,0.9571,-0.2746,0.0502,0.1367,-0.0811,-1.0237,0.1663,-8.1637,-15.855528144410737,10.916924254629915,-2.8616802000180117,4.166000000004715
0.1928,0.9517,-0.2705,0.0502,0.1367,-0.0811,-1.0237,0.1663,-8.1637,-15.862321088389816,11.00326894321398,-2.8616802000180117,4.166000000004715
0.1895,0.9484,-0.2695,0.0502,0.1367,-0.0811,-1.6275,0.3675,-8.3475,-15.862907824932808,10.905134046944735,-2.8558002000194875,4.1820000000006985
0.192,0.948,-0.2689,0.0499,0.1363,-0.0769,-2.0825,0.7875,-8.1375,-15.843396860368959,10.999659509411227,-2.8558002000194875,4.1820000000006985
0.192,0.948,-0.2689,0.0499,0.1363,-0.0769,-1.6187,1.33,-7.805,-15.838320672710289,11.019611512787968,-2.8345202000151524,4.198000000003958
0.1895,0.9496,-0.2725,0.051,0.1376,-0.0746,-1.6187,1.33,-7.805,-15.956805982934187,10.895824076509053,-2.8345202000151524,4.198000000003958
0.1908,0.9509,-0.273,0.051,0.1376,-0.0746,-1.785,1.1025,-8.2513,-16.000042812654097,10.911834953272141,-2.817982700015794,4.213000000003376
0.1945,0.9502,-0.2683,0.051,0.1376,-0.0746,-1.5575,1.3125,-8.4963,-15.84250248832636,11.097599984031904,-2.817982700015794,4.213000000003376
0.1926,0.9506,-0.268,0.0514,0.1358,-0.0826,-1.2075,1.61,-8.9338,-15.780135661788242,11.046198995256445,-2.792222700010546,4.229000000006636
0.1926,0.9506,-0.27,0.0514,0.1358,-0.0826,-1.2075,1.61,-8.9338,-15.82858338957696,11.031898636436422,-2.792222700010546,4.229000000006636
0.192,0.9517,-0.27,0.0517,0.1379,-0.0803,-0.6212,2.2138,-8.6975,-15.834082697544625,10.992957472669081,-2.759015700011835,4.244000000006054
0.1884,0.9508,-0.2738,0.0517,0.1379,-0.0803,-0.91,2.17,-8.8112,-15.970842609174124,10.820669969411275,-2.759015700011835,4.244000000006054
0.1873,0.9521,-0.2694,0.0517,0.1379,-0.0803,-1.5225,2.065,-8.295,-15.855014762000796,10.74002596036859,-2.7259757000201286,4.260000000002037
0.1853,0.9526,-0.2661,0.0508,0.1374,-0.0777,-1.5225,2.065,-8.295,-15.687945173523897,10.638104508839197,-2.7259757000201286,4.260000000002037
0.1861,0.9537,-0.2616,0.0508,0.1374,-0.0777,-1.3125,2.0825,-7.735,-15.461007183584904,10.65291037807748,-2.6926557000133404,4.276000000005297
0.1861,0.9537,-0.2616,0.0528,0.1374,-0.0762,-1.61,2.4413,-7.5075,-15.37762130161141,10.656345471718675,-2.6926557000133404,4.276000000005297
0.1818,0.9514,-0.2639,0.0528,0.1374,-0.0762,-1.61,2.4413,-7.84,-15.463276707761121,10.48466596470506,-2.6560362000147615,4.291000000004715
0.1798,0.9509,-0.2664,0.0528,0.1374,-0.0762,-2.0387,1.8813,-7.84,-15.598296748843392,10.35719180372578,-2.6560362000147615,4.291000000004715
0.1739,0.9557,-0.2625,0.0525,0.1376,-0.0733,-1.1638,1.8375,-7.5425,-15.446994607242821,10.052213023375662,-2.6266362000087717,4.3070000000079744
0.1738,0.9518,-0.2647,0.0525,0.1376,-0.0733,-1.2337,1.1463,-7.1575,-15.507510839248031,9.99804182951802,-2.6266362000087717,4.3070000000079744
0.1738,0.9518,-0.2592,0.0519,0.1378,-0.0744,-1.2337,1.1463,-7.1575,-15.332184495994184,9.993737868275899,-2.6094417000094388,4.322000000007392
0.1787,0.9543,-0.2592,0.0519,0.1378,-0.0744,-0.7088,0.3325,-6.9913,-15.256183990185761,10.171878872265053,-2.6094417000094388,4.322000000007392
0.1809,0.9558,-0.2591,0.0515,0.1368,-0.0768,-0.3325,0.1488,-6.6238,-15.214606828321365,10.294485944085663,-2.6070609000100364,4.338000000003376
0.1799,0.9547,-0.2652,0.0515,0.1368,-0.0768,-0.945,0.1575,-6.4662,-15.400095466376975,10.291910825048642,-2.6070609000100364,4.338000000003376
0.1797,0.9554,-0.2577,0.0515,0.1368,-0.0768,-0.945,0.1575,-6.4662,-15.217523320704641,10.292415766326302,-2.604540900009523,4.354000000006636
0.179,0.9537,-0.2597,0.0522,0.1366,-0.0749,-0.4112,-0.1225,-6.1425,-15.224973545443529,10.275239098538396,-2.6063784000094516,4.369000000006054
0.179,0.9537,-0.2597,0.0522,0.1366,-0.0749,-1.1812,-0.77,-6.1863,-15.229898969679326,10.268673198506253,-2.6063784000094516,4.369000000006054
0.1815,0.9543,-0.262,0.0518,0.138,-0.074,-0.8487,-1.2687,-5.6875,-15.30109486176894,10.336065249493513,-2.6266776000043563,4.385000000002037
0.1828,0.9577,-0.2624,0.0518,0.138,-0.074,-0.8487,-1.2687,-5.6875,-15.31352127548982,10.387456385967788,-2.6279463000092305,4.386000000005879
0.1818,0.9564,-0.2658,0.0518,0.138,-0.074,-1.2075,-1.6888,-5.6525,-15.452380215813715,10.382660559565494,-2.6279463000092305,4.386000000005879
0.1834,0.9546,-0.2646,0.0529,0.1382,-0.0742,-0.7875,-1.2337,-5.7575,-15.475331745637488,10.44192126376272,-2.646451800008512,4.401000000005297
0.1834,0.9546,-0.2611,0.0529,0.1382,-0.0742,-0.9712,-1.1638,-5.4425,-15.367976844939843,10.469460078149904,-2.665072600003838,4.417000000001281
0.1831,0.9576,-0.2611,0.0547,0.1381,-0.0784,-0.9712,-1.1638,-5.4425,-15.297799691618973,10.460997166042826,-2.665072600003838,4.417000000001281
0.1825,0.9554,-0.2649,0.0547,0.1381,-0.0784,-1.1725,-1.5838,-5.7312,-15.423679825464736,10.443874648180039,-2.6904134000090005,4.43300000000454
0.1854,0.9578,-0.2636,0.0547,0.1381,-0.0784,-0.9275,-1.68,-5.88,-15.40221158690657,10.517850568979071,-2.6904134000090005,4.43300000000454
0.1854,0.9559,-0.2629,0.0538,0.1372,-0.0801,-0.9712,-2.1437,-6.4575,-15.387484352968261,10.567257070250735,-2.7225689000077526,4.448000000003958
0.1848,0.9553,-0.2649,0.0538,0.1372,-0.0801,-0.9712,-2.1437,-6.4575,-15.454373643484091,10.562105704537274,-2.7225689000077526,4.448000000003958
0.1848,0.9553,-0.2649,0.0548,0.1371,-0.078,-1.2775,-1.6013,-6.2825,-15.482833778333681,10.560419621177852,-2.7481897000129725,4.464000000007218
0.1878,0.9542,-0.2586,0.0548,0.1371,-0.078,-1.1812,-1.19,-6.055,-15.280629593908545,10.679341117140181,-2.7481897000129725,4.464000000007218
0.1875,0.9547,-0.2623,0.0548,0.1371,-0.078,-1.1812,-1.19,-6.2213,-15.332630090427132,10.707351575644221,-2.76603970001228,4.479000000006636
0.1891,0.9512,-0.2578,0.0526,0.1383,-0.0848,-0.7875,-1.1025,-6.2213,-15.236438515801966,10.805063777223115,-2.76603970001228,4.479000000006636
0.184,0.9512,-0.2618,0.0526,0.1383,-0.0848,-0.6212,-1.2425,-6.44,-15.318404300257537,10.646375439070754,-2.7859197000072897,4.495000000002619
0.184,0.9512,-0.2582,0.0548,0.1376,-0.0751,-0.7088,-0.7788,-6.3,-15.245140763840265,10.600175458735189,-2.7859197000072897,4.495000000002619
0.1832,0.952,-0.2582,0.0548,0.1376,-0.0751,-0.7088,-0.7788,-6.3,-15.205885627906087,10.549602228921097,-2.7983805000098285,4.511000000005879
0.1795,0.9542,-0.263,0.0548,0.1388,-0.0778,-0.6825,-0.6212,-6.1687,-15.318149874377216,10.380452292196267,-2.7983805000098285,4.511000000005879
0.1801,0.9545,-0.2599,0.0535,0.1388,-0.0778,0.035,-0.0525,-5.915,-15.28889468837756,10.343914321547865,-2.799168000009798,4.526000000005297
0.1813,0.9573,-0.2586,0.0535,0.1388,-0.0778,0.4288,0.35,-5.74,-15.270705080549831,10.353447987767597,-2.799168000009798,4.526000000005297
0.1796,0.9596,-0.2592,0.0529,0.1375,-0.0832,0.4288,0.35,-5.74,-15.254312389580509,10.291782316788693,-2.793568000008657,4.5420000000085565
0.1796,0.9596,-0.2592,0.0529,0.1375,-0.0832,0.2187,0.3063,-5.25,-15.22002761932373,10.270468845926372,-2.793568000008657,4.5420000000085565
0.1824,0.9591,-0.2602,0.0546,0.1382,-0.0741,-0.4462,-0.0263,-5.1625,-15.199465965900147,10.322269794747182,-2.7939625000084503,4.5570000000006985
0.1793,0.9606,-0.2631,0.0546,0.1382,-0.0741,-0.9887,0.1138,-5.3288,-15.270755378042178,10.269276447672349,-2.7939625000084503,4.5570000000006985
0.1807,0.959,-0.2616,0.0546,0.1382,-0.0741,-0.9887,0.1138,-5.3288,-15.263122372706967,10.284518139823868,-2.7921417000080795,4.573000000003958
0.1821,0.9563,-0.2596,0.0538,0.1366,-0.0946,-0.595,0.2362,-5.2675,-15.222896182356402,10.340328934685822,-2.7921417000080795,4.573000000003958
0.1821,0.9563,-0.2596,0.0538,0.1366,-0.0946,-0.6125,0.245,-5.5475,-15.203982870446971,10.37754610248092,-2.788221700007281,4.589000000007218
0.1816,0.9543,-0.2601,0.0526,0.1358,-0.0796,-1.0412,0.5688,-5.2063,-15.229749599642892,10.388324768242763,-2.788221700007281,4.589000000007218
0.1803,0.9534,-0.2625,0.0526,0.1358,-0.0796,-1.0412,0.5688,-5.2063,-15.330445318543095,10.365482993863957,-2.779689700007612,4.604000000006636
0.1804,0.9545,-0.2607,0.0526,0.1358,-0.0796,-1.26,0.4725,-5.0487,-15.295685684648113,10.35389222720614,-2.779689700007612,4.604000000006636
0.1823,0.9529,-0.2617,0.0542,0.1394,-0.0755,-0.7613,0.315,-5.005,-15.330337343676243,10.386928733050285,-2.7746497000088772,4.620000000002619
0.1842,0.9566,-0.2612,0.0542,0.1394,-0.0755,-0.7613,0.28,-5.1625,-15.29747087040576,10.4411835232445,-2.7746497000088772,4.620000000002619
0.1842,0.9566,-0.2612,0.0526,0.137,-0.0785,-0.3588,0.28,-5.1625,-15.285530891210769,10.473827349589994,-2.7704497000090402,4.635000000002037
0.1868,0.9564,-0.2636,0.0526,0.137,-0.0785,0.0088,0.7613,-5.1275,-15.32876689154773,10.546977582053886,-2.7704497000090402,4.635000000002037
0.1878,0.9569,-0.2582,0.0526,0.137,-0.0785,-0.42,0.98,-5.5125,-15.216539501597556,10.63869397084501,-2.7547697000058458,4.651000000005297
0.1846,0.9561,-0.255,0.0532,0.1392,-0.0818,-0.42,0.98,-5.5125,-15.077472798011929,10.602800544083028,-2.7547697000058458,4.651000000005297
0.1822,0.9536,-0.2602,0.0532,0.1392,-0.0818,-0.2362,1.4088,-5.3812,-15.158620714147379,10.528397092500503,-2.7322289000012536,4.6670000000085565
0.1822,0.9536,-0.2602,0.0529,0.1377,-0.0778,-0.4988,1.2862,-5.0312,-15.211587358522845,10.499106709789753,-2.7322289000012536,4.6670000000085565
0.1789,0.9525,-0.2601,0.0529,0.1377,-0.0778,0.35,1.715,-4.9788,-15.221765545263592,10.424935020652722,-2.70650390001473,4.6820000000006985
0.1798,0.954,-0.2584,0.0529,0.1382,-0.0763,0.35,1.715,-4.9788,-15.210855858274195,10.387810131576646,-2.70650390001473,4.6820000000006985
0.1795,0.9585,-0.2601,0.0526,0.1382,-0.0763,0.2013,1.6275,-4.935,-15.203509869077115,10.34448868887625,-2.680463900009425,4.698000000003958
0.1817,0.96,-0.2589,0.0526,0.1382,-0.0763,0.21,1.5925,-4.97,-15.175628395723326,10.34818943506255,-2.680463900009425,4.698000000003958
0.186,0.9579,-0.2595,0.0527,0.1365,-0.0849,0.0,1.7413,-4.5237,-15.169359820633748,10.35424910404287,-2.6543444000104386,4.713000000003376
0.186,0.9579,-0.2595,0.0527,0.1365,-0.0849,0.0,1.7413,-4.5237,-15.165307644217618,10.360171243185869,-2.6543444000104386,4.713000000003376
0.1851,0.9558,-0.2596,0.0518,0.139,-0.0775,-0.1663,2.1088,-4.5588,-15.177772606514344,10.37260742397443,-2.6206036000035646,4.729000000006636
0.1863,0.9526,-0.2567,0.0518,0.139,-0.0775,0.385,2.1,-5.1712,-15.164343419577438,10.501421611118761,-2.6206036000035646,4.729000000006636
0.1859,0.9553,-0.2563,0.0518,0.139,-0.0775,0.1575,2.2313,-5.1537,-15.123424658259498,10.558014300448804,-2.5849027999962915,4.745000000009895
0.1878,0.955,-0.2533,0.0523,0.1388,-0.0684,0.1575,2.2313,-5.1537,-15.048140650220272,10.638699922866763,-2.551433300013825,4.760000000002037
0.1878,0.955,-0.2533,0.0523,0.1388,-0.0684,0.14,1.89,-5.495,-14.992228259314814,10.700289960332565,-2.551433300013825,4.760000000002037
0.1878,0.9525,-0.2599,0.0538,0.1386,-0.0794,0.3675,2.3012,-5.39,-15.033313349493849,10.732949408266705,-2.514614100006324,4.776000000005297
0.1881,0.9536,-0.2594,0.0538,0.1386,-0.0794,0.56,2.7562,-5.355,-15.03568320567695,10.753041471752582,-2.514614100006324,4.776000000005297
0.1882,0.9569,-0.2585,0.0538,0.1386,-0.0794,0.56,2.7562,-5.355,-15.036732369107213,10.752014555355519,-2.473271100007928,4.791000000004715
0.1886,0.9518,-0.2571,0.0517,0.1391,-0.0862,0.245,2.73,-5.3288,-15.055110232204504,10.787144050020247,-2.473271100007928,4.791000000004715
0.1876,0.9492,-0.2548,0.0517,0.1391,-0.0862,1.0675,3.0712,-5.6788,-15.045162305601998,10.797752944753386,-2.424131899997917,4.8070000000079744
0.1876,0.9492,-0.2548,0.051,0.1382,-0.0818,1.0675,3.0712,-5.53,-15.038619919795353,10.802320121946037,-2.424131899997917,4.8070000000079744
0.184,0.9526,-0.2602,0.051,0.1382,-0.0818,0.7,2.7475,-5.53,-15.07032620166696,10.676791192006895,-2.3801718999889614,4.823000000011234
0.1894,0.9536,-0.2579,0.051,0.1382,-0.0818,0.8575,2.5025,-5.32,-15.085305108523427,10.756373466084197,-2.3801718999889614,4.823000000011234
0.1857,0.9515,-0.2607,0.0518,0.1382,-0.0851,0.5337,2.625,-4.8125,-15.08840839808989,10.733444246204032,-2.3407969000095887,4.838000000003376
0.1909,0.9542,-0.2573,0.0518,0.1382,-0.0851,0.5337,2.625,-4.8125,-15.088440765739994,10.780856227887258,-2.3407969000095887,4.838000000003376
0.1909,0.9542,-0.2573,0.0522,0.1374,-0.0786,0.7788,3.1762,-5.3375,-15.088899995874588,10.850091004907497,-2.2899776999992354,4.854000000006636
0.1889,0.9545,-0.2618,0.0522,0.1374,-0.0786,0.875,3.7713,-5.4075,-15.150399288994691,10.82878142924936,-2.2899776999992354,4.854000000006636
0.1851,0.9545,-0.2658,0.0522,0.1374,-0.0786,0.3237,3.5612,-5.25,-15.225330523790293,10.722952238450533,-2.236559700001308,4.869000000006054
0.1835,0.954,-0.264,0.0511,0.138,-0.0761,0.3237,3.5612,-5.25,-15.269683491487466,10.628426293836398,-2.236559700001308,4.869000000006054
0.1859,0.9567,-0.2562,0.0511,0.138,-0.0761,0.1838,2.9662,-5.2238,-15.195648006016588,10.629389039499046,-2.1891004999916395,4.885000000009313
0.1859,0.9556,-0.2593,0.0508,0.1376,-0.0811,0.875,3.115,-5.5213,-15.192160558471377,10.63141402858348,-2.1891004999916395,4.885000000009313
0.1857,0.9556,-0.2593,0.0508,0.1376,-0.0811,0.63,2.73,-5.9325,-15.191345467282046,10.625999384371198,-2.145420500002604,4.901000000005297
0.1824,0.9561,-0.2662,0.0513,0.1391,-0.0866,0.63,2.73,-5.9325,-15.219488082138765,10.501092230648398,-2.145420500002604,4.901000000005297
0.1819,0.9589,-0.2585,0.0513,0.1391,-0.0866,0.245,1.7675,-5.8362,-15.188790017610998,10.431347694938014,-2.118908000003633,4.916000000004715
0.1789,0.9568,-0.2635,0.0513,0.1391,-0.0866,-0.2625,1.295,-5.8975,-15.282113866166458,10.307444393856755,-2.118908000003633,4.916000000004715
0.1807,0.9535,-0.2586,0.051,0.1374,-0.0915,-0.21,0.945,-6.1075,-15.235639363706953,10.342986514464798,-2.1037880000005527,4.9320000000079744
0.1807,0.9535,-0.2586,0.051,0.1374,-0.0915,-0.21,0.945,-6.1075,-15.20918778245206,10.356619735425275,-2.1037880000005527,4.9320000000079744
0.1806,0.9548,-0.2613,0.0524,0.1386,-0.0817,-0.0787,0.8838,-6.44,-15.246207090540619,10.345245890167643,-2.0905310000074975,4.947000000000116
0.1818,0.954,-0.2618,0.0524,0.1386,-0.0817,-0.6475,0.35,-6.4837,-15.300273156152482,10.390397794363379,-2.0905310000074975,4.947000000000116
0.1829,0.9531,-0.2583,0.0524,0.1386,-0.0817,-0.6475,0.1225,-6.2125,-15.225836664580624,10.455380856777884,-2.0885710000070983,4.963000000003376
0.1834,0.9543,-0.2578,0.0498,0.138,-0.0862,-0.2013,0.1225,-6.2125,-15.179405310226747,10.490295212603822,-2.0885710000070983,4.963000000003376
0.1834,0.9529,-0.2567,0.0498,0.138,-0.0862,-0.6475,0.3675,-5.9763,-15.12360944173078,10.512619746475895,-2.0826910000059002,4.979000000006636
0.1816,0.9529,-0.2567,0.0517,0.1378,-0.081,-0.6913,-0.0787,-6.2387,-15.097767168895372,10.458076532535879,-2.0826910000059002,4.979000000006636
0.1812,0.9556,-0.2592,0.0517,0.1378,-0.081,-0.6913,-0.0787,-6.2387,-15.141016843683758,10.402631664234905,-2.084265000006221,4.99900000001071
0.1865,0.9597,-0.2583,0.0517,0.1378,-0.081,-0.6825,-0.1138,-6.2387,-15.098540524454979,10.545794319477508,-2.0851754000055784,5.007000000005064
0.1857,0.9604,-0.255,0.0499,0.1383,-0.0926,-0.875,-0.4025,-5.9412,-14.964221241281683,10.569190852727472,-2.0883954000062346,5.015000000006694
0.1878,0.9584,-0.2549,0.0499,0.1383,-0.0926,-0.8487,-0.0875,-6.2213,-14.923212373133081,10.666490607590445,-2.0886579000059697,5.018000000003667
0.1878,0.9584,-0.2549,0.0506,0.1382,-0.0774,-0.8487,-0.0875,-6.2213,-14.906094425444818,10.702251755913208,-2.0886579000059697,5.018000000003667
0.1848,0.957,-0.2545,0.0506,0.1382,-0.0774,-1.6187,-0.56,-5.95,-14.896646066572222,10.624456386733135,-2.097617900007795,5.034000000006927
0.1853,0.9544,-0.2546,0.0506,0.1382,-0.0774,-1.6363,-0.7437,-5.7838,-14.924081793096683,10.624658064560702,-2.097617900007795,5.034000000006927
0.1846,0.9537,-0.2566,0.0511,0.1383,-0.0697,-1.6625,-0.4375,-5.2238,-15.017116201882152,10.608956284663051,-2.1041804000075404,5.049000000006345
0.1843,0.9525,-0.2574,0.0511,0.1383,-0.0697,-1.6625,-0.4375,-5.2238,-15.08945071431178,10.596963036784699,-2.1041804000075404,5.049000000006345
0.1843,0.9681,-0.2505,0.0502,0.1381,-0.0866,-1.6538,-0.8662,-5.2413,-14.689205997999757,10.531271430476684,-2.1180396000040616,5.065000000002328
0.1853,0.9543,-0.2505,0.0502,0.1381,-0.0866,-1.2775,-0.6913,-5.6525,-14.70140624041012,10.587800592262344,-2.1180396000040616,5.065000000002328
0.186,0.9525,-0.2516,0.0503,0.1386,-0.0799,-1.2425,-0.7437,-5.3025,-14.762441790611856,10.633995631579822,-2.1299388000064856,5.081000000005588
0.1864,0.9528,-0.25,0.0503,0.1386,-0.0799,-1.2425,-0.7437,-5.3025,-14.723741901099041,10.670181746520242,-2.1299388000064856,5.081000000005588
0.1855,0.9553,-0.2532,0.0503,0.1386,-0.0799,-0.9625,-1.0938,-5.2675,-14.796545507158765,10.653025319707087,-2.146345800005849,5.096000000005006
0.1886,0.9532,-0.2533,0.0516,0.1387,-0.0863,-1.1725,-1.365,-5.3725,-14.850353840014995,10.733413763056456,-2.146345800005849,5.096000000005006
0.1886,0.9532,-0.2533,0.0516,0.1387,-0.0863,-0.7262,-1.015,-5.1275,-14.867880934462846,10.768940511310225,-2.1625858000091576,5.1120000000082655
0.1896,0.9541,-0.2557,0.0517,0.1379,-0.0853,-0.7262,-1.015,-5.1275,-14.943437663571094,10.806201492654166,-2.1625858000091576,5.1120000000082655
0.1916,0.9568,-0.2533,0.0517,0.1379,-0.0853,-0.5425,-1.155,-4.83,-14.883313111809464,10.84330984535074,-2.1799108000084852,5.127000000007683
0.1887,0.9556,-0.2533,0.0517,0.1379,-0.0853,-0.7788,-0.875,-4.7162,-14.862000365566749,10.836758368061796,-2.193910800004971,5.143000000003667
0.1848,0.9542,-0.2533,0.0506,0.1377,-0.0824,-0.7788,-0.875,-4.9963,-14.86470356130055,10.759052231852932,-2.193910800004971,5.143000000003667
0.1848,0.9532,-0.2561,0.0506,0.1377,-0.0824,-0.8662,-0.805,-4.9963,-14.966618273062476,10.707951450352487,-2.206790800007595,5.159000000006927
0.1859,0.9532,-0.2561,0.0508,0.1384,-0.0809,-0.5512,-1.0237,-5.1363,-15.004364362769602,10.691866608607965,-2.206790800007595,5.159000000006927
0.1883,0.9537,-0.2541,0.0508,0.1384,-0.0809,-0.3762,-0.6737,-5.6788,-14.963424363253171,10.751126939325012,-2.216896300002301,5.173999999999069
0.1903,0.956,-0.2519,0.0508,0.1384,-0.0809,-0.3762,-0.6737,-5.6788,-14.86652308818885,10.829233787377808,-2.216896300002301,5.173999999999069
0.1896,0.9564,-0.2519,0.0514,0.1374,-0.0722,-0.1138,-0.8487,-5.53,-14.822411188944548,10.840909882037407,-2.2304755000050673,5.190000000002328
0.1881,0.957,-0.2533,0.0514,0.1374,-0.0722,-0.6562,-1.6013,-5.1363,-14.823914244330668,10.808858851659068,-2.2304755000050673,5.190000000002328
0.1881,0.957,-0.2533,0.0499,0.1402,-0.088,-0.35,-1.47,-5.4687,-14.824504942973954,10.78406141129676,-2.2525255000042117,5.205000000001746
0.1893,0.9554,-0.2524,0.0499,0.1402,-0.088,-0.35,-1.47,-5.4687,-14.81218723173178,10.81377933369111,-2.2525255000042117,5.205000000001746
0.1875,0.9548,-0.2536,0.0499,0.1402,-0.088,-0.6737,-1.6538,-5.635,-14.84651159885492,10.778106652911717,-2.2789863000096027,5.221000000005006
0.1906,0.9538,-0.2507,0.051,0.1379,-0.0808,-0.805,-1.2862,-6.09,-14.777645315798258,10.87659543867267,-2.2789863000096027,5.221000000005006
0.1854,0.9517,-0.2547,0.051,0.1379,-0.0808,-1.1812,-1.2337,-6.1687,-14.907563432093971,10.73970565670217,-2.298725500013624,5.2370000000082655
0.1854,0.9517,-0.2562,0.0517,0.1382,-0.0835,-1.1812,-1.2337,-6.1687,-15.00854436820527,10.685833118054376,-2.298725500013624,5.2370000000082655
0.1871,0.9526,-0.2562,0.0517,0.1382,-0.0835,-0.7,-1.3913,-6.2562,-15.033430678781663,10.720159187583969,-2.3195950000026913,5.2520000000004075
0.1845,0.9539,-0.2567,0.0518,0.1389,-0.083,-0.1138,-1.435,-5.9325,-15.044722059461652,10.63724715395094,-2.3195950000026913,5.2520000000004075
0.1863,0.9565,-0.2546,0.0518,0.1389,-0.083,0.0263,-1.0762,-5.9588,-14.996990353205769,10.650414418136517,-2.336814200006199,5.268000000003667
0.1843,0.9595,-0.2487,0.0518,0.1389,-0.083,0.0263,-1.0762,-5.9588,-14.837486222634256,10.580762493484995,-2.336814200006199,5.268000000003667
0.1842,0.9587,-0.254,0.0506,0.1391,-0.0847,0.1838,-1.19,-6.1687,-14.83792354834953,10.543711185542131,-2.3546642000055065,5.283000000003085
0.1842,0.9587,-0.254,0.0506,0.1391,-0.0847,0.0875,-1.6625,-6.0113,-14.838302653581643,10.53034686362226,-2.3546642000055065,5.283000000003085
0.1831,0.9578,-0.2543,0.0502,0.1406,-0.081,0.035,-1.7325,-6.2038,-14.848771869459474,10.491217717553662,-2.382384200011154,5.299000000006345
0.1782,0.9594,-0.2529,0.0502,0.1406,-0.081,0.035,-1.7325,-6.2038,-14.821208815317496,10.296444862524984,-2.382384200011154,5.299000000006345
0.1776,0.9595,-0.2555,0.0502,0.1406,-0.081,-0.0263,-1.4875,-6.16,-14.853917251341933,10.199382725359051,-2.4061842000160025,5.315000000009604
0.1771,0.9601,-0.2544,0.052,0.1399,-0.0846,-0.6212,-2.1788,-6.3,-14.84682265893342,10.141907581909065,-2.4061842000160025,5.315000000009604
0.1771,0.9601,-0.2548,0.052,0.1399,-0.0846,-0.6212,-2.1788,-6.0813,-14.855566608529811,10.121718032911467,-2.4388661999988814,5.330000000001746
0.1765,0.9592,-0.2548,0.0529,0.139,-0.0828,-1.1375,-2.4325,-6.0813,-14.868626381702315,10.098645744924548,-2.4388661999988814,5.330000000001746
0.1777,0.9585,-0.2567,0.0529,0.139,-0.0828,-1.015,-2.8875,-6.0813,-14.944324782992814,10.131975835083361,-2.4850662000082937,5.346000000005006
0.1769,0.9567,-0.2571,0.0529,0.139,-0.0828,-0.6212,-3.5788,-6.2125,-14.99698673252304,10.127340389486546,-2.4850662000082937,5.346000000005006
0.177,0.9589,-0.2544,0.0527,0.1393,-0.0782,-0.6212,-3.5788,-6.2125,-14.922373065651687,10.120148455874174,-2.5423270000199594,5.3620000000082655
0.1797,0.9568,-0.2506,0.0527,0.1393,-0.0782,-0.21,-3.2638,-6.1075,-14.816625823629828,10.229452385828639,-2.5423270000199594,5.3620000000082655
0.1797,0.9568,-0.2506,0.0514,0.1378,-0.0821,-0.6562,-2.695,-5.6262,-14.740335155869884,10.26547195818435,-2.585447000009135,5.378000000004249
0.1809,0.9559,-0.2528,0.0514,0.1378,-0.0821,-0.7088,-2.7738,-5.6613,-14.781045421407208,10.320514296777976,-2.585447000009135,5.378000000004249
0.1795,0.959,-0.2573,0.0514,0.1378,-0.0821,-0.7088,-2.7738,-5.6613,-14.9133837823439,10.281172579623831,-2.632601600008651,5.3950000000040745
0.1804,0.9573,-0.2546,0.0538,0.1374,-0.0768,-1.2425,-2.975,-5.9588,-14.900572675800262,10.30501202378182,-2.632601600008651,5.3950000000040745
0.1771,0.9578,-0.2591,0.0538,0.1374,-0.0768,-0.8487,-3.2725,-5.7225,-15.038377246160486,10.203267704543288,-2.681689100006746,5.4100000000034925
0.1771,0.9578,-0.2561,0.0533,0.1378,-0.0864,-0.6562,-2.555,-5.4862,-15.000904735293982,10.165803831037978,-2.681689100006746,5.4100000000034925
0.1786,0.9591,-0.2561,0.0533,0.1378,-0.0864,-0.6562,-2.555,-5.4862,-14.973311886573086,10.182347933672897,-2.7225691000150745,5.426000000006752
0.1803,0.9578,-0.253,0.0534,0.1386,-0.0754,-0.5337,-3.0625,-5.9325,-14.881505155108941,10.26046370052031,-2.7225691000150745,5.426000000006752
0.1833,0.9557,-0.253,0.0534,0.1386,-0.0754,-0.49,-2.8,-5.8012,-14.854080489709851,10.398101576543812,-2.7645691000134445,5.44100000000617
0.1821,0.9572,-0.2563,0.0534,0.1386,-0.0754,-0.9538,-2.7037,-5.7225,-14.935584542591863,10.406289463319274,-2.7645691000134445,5.44100000000617
0.1809,0.9557,-0.253,0.0531,0.1387,-0.0769,-0.9538,-2.7037,-5.7225,-14.87080067157633,10.385996117002087,-2.8078283000025857,5.457000000002154
0.1809,0.9557,-0.253,0.0531,0.1387,-0.0769,-0.6913,-2.66,-5.9325,-14.846919463318592,10.376217969089872,-2.8078283000025857,5.457000000002154
0.1851,0.956,-0.2479,0.0554,0.1386,-0.0845,-0.4725,-2.345,-5.9938,-14.690546367506817,10.519385303558769,-2.8453483000102295,5.473000000005413
0.1829,0.9538,-0.2517,0.0554,0.1386,-0.0845,-0.315,-2.135,-5.5825,-14.733291596666232,10.511410460819132,-2.8453483000102295,5.473000000005413
0.1819,0.9547,-0.2563,0.0554,0.1386,-0.0845,-0.315,-2.135,-5.5825,-14.869431301628893,10.467363651504355,-2.877373300008987,5.488000000004831
0.181,0.9588,-0.2554,0.0525,0.1386,-0.0806,-0.1488,-1.96,-5.2413,-14.888454005849033,10.412330527548175,-2.877373300008987,5.488000000004831
0.181,0.9588,-0.2521,0.0525,0.1386,-0.0806,-0.3588,-2.1788,-4.8475,-14.813858545872181,10.395411850692792,-2.912234100016089,5.504000000008091
0.1829,0.9623,-0.2521,0.0557,0.1382,-0.0795,-0.3588,-2.1788,-5.2413,-14.750352955608752,10.405064908043908,-2.912234100016089,5.504000000008091
0.1844,0.96,-0.2528,0.0557,0.1382,-0.0795,-0.28,-2.1875,-5.2413,-14.751534509267147,10.455172814437523,-2.9450465999988995,5.519000000000233
0.1811,0.9597,-0.2552,0.0557,0.1382,-0.0795,-0.2537,-2.1088,-5.2413,-14.813671493718465,10.40415683896577,-2.9787874000057735,5.5350000000034925
0.1846,0.9581,-0.2544,0.0545,0.1388,-0.0846,-0.385,-2.065,-5.1275,-14.841016481558487,10.4598999512845,-2.9787874000057735,5.5350000000034925
0.1785,0.96,-0.255,0.0545,0.1388,-0.0846,-0.385,-2.065,-5.1275,-14.857738860805341,10.354978979427447,-3.0118274000125047,5.551000000006752
0.1785,0.96,-0.255,0.055,0.138,-0.0809,-0.7088,-2.3712,-5.4513,-14.867727653187853,10.27342209169419,-3.0118274000125047,5.551000000006752
0.1767,0.9568,-0.2514,0.055,0.138,-0.0809,-0.84,-2.1,-5.2238,-14.78290527691538,10.212011611046298,-3.0433274000112824,5.56600000000617
0.1743,0.9535,-0.2524,0.055,0.138,-0.0809,-0.035,-2.2313,-5.5912,-14.798996065980585,10.112618434536795,-3.0433274000112824,5.56600000000617
0.1745,0.9569,-0.2557,0.0534,0.1386,-0.0882,-0.035,-2.2313,-5.5912,-14.858539687755155,10.049551192808027,-3.0790282000185556,5.58200000000943
0.1758,0.9533,-0.2553,0.0534,0.1386,-0.0882,0.1575,-3.1412,-5.3637,-14.896053608956485,10.073118778501028,-3.0790282000185556,5.58200000000943
0.1758,0.9533,-0.2553,0.053,0.1394,-0.0802,0.1575,-2.765,-4.9963,-14.923052433109184,10.082168569585635,-3.1205031999968282,5.597000000001572
0.1815,0.9543,-0.2519,0.053,0.1394,-0.0802,-0.2625,-2.52,-5.145,-14.862055959734937,10.214526703316025,-3.1205031999968282,5.597000000001572
0.1829,0.9577,-0.2542,0.053,0.1376,-0.0846,-0.2625,-2.52,-5.145,-14.86342487574889,10.310076639096367,-3.1608232000050425,5.613000000004831
0.1835,0.9557,-0.2537,0.0529,0.1376,-0.0846,-0.3413,-2.0213,-5.2675,-14.865033310742696,10.398273096197428,-3.1608232000050425,5.613000000004831
0.1814,0.9542,-0.2578,0.0529,0.1376,-0.0846,-0.3413,-2.4325,-5.1275,-14.984439148079856,10.398775076191207,-3.1997432000129713,5.629000000008091
0.182,0.9542,-0.2549,0.0546,0.1393,-0.0766,0.35,-2.5725,-5.1975,-14.97983411166374,10.416115238975644,-3.1997432000129713,5.629000000008091
0.182,0.9542,-0.2549,0.0546,0.1393,-0.0766,0.35,-2.5725,-5.1975,-14.975986850953428,10.42633322823356,-3.2383306999927566,5.644000000000233
0.1792,0.9559,-0.2539,0.0541,0.1394,-0.0822,0.1488,-2.45,-5.2762,-14.94724796251861,10.357916072777567,-3.2383306999927566,5.644000000000233
0.1815,0.9596,-0.257,0.0541,0.1394,-0.0822,0.14,-2.87,-5.3375,-14.960507621122677,10.356076343065206,-3.2842507000021115,5.6600000000034925
0.1795,0.9581,-0.2613,0.0541,0.1394,-0.0822,0.14,-2.8963,-5.6788,-15.04572395483369,10.296265626199101,-3.2842507000021115,5.6600000000034925
0.1811,0.9612,-0.2574,0.0553,0.1386,-0.0767,0.4375,-2.8963,-5.6788,-15.04037432309624,10.306290591048738,-3.327695200000426,5.67500000000291
0.1811,0.9612,-0.2574,0.0553,0.1386,-0.0767,0.21,-2.765,-5.8975,-15.028057084308873,10.311249085809267,-3.327695200000426,5.67500000000291
0.1789,0.9601,-0.2544,0.0553,0.1392,-0.0804,0.4025,-2.5113,-5.7312,-15.004413366442716,10.255704273056253,-3.3678760000086116,5.69100000000617
0.1778,0.9577,-0.2564,0.0553,0.1392,-0.0804,0.4025,-2.5113,-5.7312,-15.002341713253594,10.20686749381182,-3.3678760000086116,5.69100000000617
0.176,0.9575,-0.2566,0.0553,0.1392,-0.0804,0.2362,-1.9425,-5.5825,-15.00229809294094,10.134583321208863,-3.3989560000149437,5.70700000000943
0.1736,0.9546,-0.2585,0.0534,0.1393,-0.08,0.2275,-2.3975,-5.6788,-15.03853647471915,10.037950320489403,-3.3989560000149437,5.70700000000943
0.1726,0.9557,-0.259,0.0534,0.1393,-0.08,0.3588,-2.1175,-6.0637,-15.058288509823718,9.946526603544863,-3.4307184999983042,5.722000000001572
0.1726,0.9557,-0.259,0.0537,0.1382,-0.081,0.3588,-2.1175,-6.0637,-15.074912493112715,9.910859118919243,-3.4307184999983042,5.722000000001572
0.1739,0.9594,-0.2554,0.0537,0.1382,-0.081,0.3675,-1.8725,-5.6613,-15.049345302201463,9.923869741429314,-3.460678500004408,5.738000000004831
0.1752,0.9591,-0.2569,0.0537,0.1382,-0.081,0.0613,-2.5113,-5.9325,-15.031573111376654,9.972755304090452,-3.460678500004408,5.738000000004831
0.1728,0.9603,-0.2606,0.0545,0.1395,-0.082,0.1312,-2.0038,-5.7925,-15.076012968517405,9.904621953595145,-3.4907355000032414,5.753000000004249
0.1712,0.9603,-0.2629,0.0545,0.1395,-0.082,0.1312,-2.0038,-5.7925,-15.14491480930994,9.821188985631947,-3.4907355000032414,5.753000000004249
0.1712,0.9603,-0.2629,0.0559,0.139,-0.0803,-0.3413,-2.1175,-5.7137,-15.222873135289113,9.785790644650397,-3.524615500010144,5.769000000007509
0.1754,0.9604,-0.2582,0.0559,0.139,-0.0803,-0.2187,-2.0738,-5.6438,-15.147018088016948,9.901319960439944,-3.524615500010144,5.769000000007509
0.1759,0.9601,-0.2574,0.0559,0.139,-0.0779,-0.0962,-2.1613,-5.4775,-15.092566695610898,9.967490232397813,-3.559196300017189,5.785000000010768
0.1767,0.9573,-0.2608,0.0556,0.1389,-0.0779,-0.0962,-2.1613,-5.4775,-15.150047011778817,10.031983155793064,-3.559196300017189,5.785000000010768
0.1776,0.9594,-0.2583,0.0556,0.1389,-0.0779,-0.1312,-2.52,-5.4163,-15.11708817932733,10.081047616860959,-3.596996299997387,5.80000000000291
0.1785,0.9572,-0.2585,0.0539,0.1382,-0.0758,-0.7,-2.0213,-4.8475,-15.114652574126131,10.11317247959551,-3.596996299997387,5.80000000000291
0.1785,0.9572,-0.2585,0.0539,0.1382,-0.0758,-0.2887,-1.5575,-4.4012,-15.11376339058631,10.121532830848112,-3.6219163000024635,5.81600000000617
0.1776,0.9578,-0.2584,0.0542,0.1384,-0.0789,-0.2887,-1.5575,-4.4012,-15.106627737491012,10.12408710963807,-3.6219163000024635,5.81600000000617
0.178,0.9557,-0.2632,0.0542,0.1384,-0.0789,-0.0613,-1.7938,-4.2787,-15.216664927666697,10.134213199358921,-3.6488233000014194,5.831000000005588
0.1784,0.9572,-0.2572,0.0542,0.1384,-0.0789,0.3588,-1.4,-4.1388,-15.188710796667685,10.152631050720373,-3.6488233000014194,5.831000000005588
0.1788,0.9597,-0.2592,0.0529,0.1394,-0.0742,0.3588,-1.4,-4.1737,-15.176892174665914,10.16341135073307,-3.671223300005983,5.847000000008848
0.1788,0.9597,-0.2592,0.0529,0.1394,-0.0742,1.0325,-0.9363,-4.1737,-15.156363275993321,10.171536529276787,-3.686204100009035,5.863000000012107
0.182,0.9579,-0.263,0.0534,0.1408,-0.0807,0.3675,-1.1463,-4.585,-15.186245688051796,10.187978199816284,-3.686204100009035,5.863000000012107
0.1821,0.9578,-0.2588,0.0534,0.1408,-0.0807,-0.0525,-0.9275,-4.2,-15.16156400675666,10.23705273188003,-3.7001166000017465,5.878000000004249
0.1858,0.9581,-0.2614,0.0534,0.1408,-0.0807,-0.0525,-0.9275,-4.2,-15.198713541943475,10.32017564427057,-3.7001166000017465,5.878000000004249
0.1823,0.9567,-0.2599,0.0571,0.1401,-0.0814,-0.3588,-0.9538,-3.8412,-15.198539364675955,10.359639677191394,-3.7153774000048556,5.894000000007509
0.1837,0.9545,-0.259,0.0571,0.1401,-0.0814,-0.385,-1.0762,-4.0862,-15.19029288285022,10.407265053555902,-3.7153774000048556,5.894000000007509
0.1837,0.9545,-0.259,0.0546,0.1392,-0.0813,-0.1575,-0.805,-4.0512,-15.186635752528858,10.442902812365732,-3.727452400004387,5.909000000006927
0.1857,0.9545,-0.2588,0.0546,0.1392,-0.0813,-0.1575,-0.805,-4.0512,-15.17986827386868,10.502370930128597,-3.727452400004387,5.909000000006927
0.1824,0.9545,-0.2621,0.0546,0.1392,-0.0813,-0.7875,-1.0325,-3.92,-15.279764958402351,10.479823151638554,-3.74397240000024,5.92500000000291
0.1831,0.9543,-0.2597,0.0531,0.1392,-0.0771,0.07,-1.0325,-4.27,-15.261632538841354,10.481489480753199,-3.74397240000024,5.92500000000291
0.1814,0.9546,-0.2621,0.0531,0.1392,-0.0771,0.3237,-1.0325,-4.3925,-15.278325202683703,10.4719883897486,-3.7604924000036055,5.94100000000617
0.1814,0.9546,-0.2621,0.0541,0.1385,-0.073,0.3237,-1.0325,-4.3925,-15.29197119422466,10.463413219862764,-3.7604924000036055,5.94100000000617
0.184,0.9554,-0.2607,0.0541,0.1385,-0.073,0.0175,-1.2513,-4.585,-15.281848598651205,10.468239951976416,-3.779261900002877,5.956000000005588
0.1842,0.9567,-0.2609,0.0541,0.1385,-0.073,-0.2713,-1.085,-4.8475,-15.269363367816426,10.482335769313162,-3.779261900002877,5.956000000005588
0.1817,0.9578,-0.2619,0.0538,0.139,-0.0781,-0.525,-1.1988,-4.795,-15.281630789063222,10.45671225271487,-3.7984427000067846,5.972000000008848
0.1822,0.9573,-0.2574,0.0538,0.139,-0.0781,-0.525,-1.1988,-4.795,-15.161695996787449,10.44714462106057,-3.7984427000067846,5.972000000008848
0.1822,0.9549,-0.2639,0.0553,0.1398,-0.0814,-0.3237,-0.8838,-4.7688,-15.295361922338047,10.441590080454178,-3.81169969999984,5.9870000000009895
0.1805,0.9549,-0.2639,0.0553,0.1398,-0.0814,0.385,-1.2513,-5.075,-15.316761132898373,10.399324886778697,-3.81169969999984,5.9870000000009895
0.1804,0.9572,-0.2603,0.056,0.1395,-0.0862,-0.14,-1.2425,-5.5475,-15.274536809865035,10.352239813998393,-3.83157970000389,6.003000000004249
0.1799,0.9562,-0.2585,0.056,0.1395,-0.0862,-0.14,-1.2425,-5.5475,-15.214774701996943,10.322398471719405,-3.83157970000389,6.003000000004249
0.1817,0.9567,-0.2553,0.056,0.1395,-0.0862,-0.4725,-1.7938,-5.7225,-15.076810772312957,10.364099728040982,-3.8602804999966853,6.019000000000233
0.179,0.9572,-0.2618,0.0553,0.1388,-0.0867,-0.3325,-1.4175,-5.53,-15.179677451172891,10.293534290188752,-3.8602804999966853,6.019000000000233
0.179,0.9572,-0.2618,0.0553,0.1388,-0.0867,-0.3325,-1.4175,-5.705,-15.234409345014985,10.256083891095512,-3.881543000006174,6.034000000006927
0.1781,0.9548,-0.2581,0.0553,0.1385,-0.0836,-0.3675,-1.2337,-5.705,-15.182901920837498,10.229680184130116,-3.881543000006174,6.034000000006927
0.1793,0.9559,-0.2545,0.0553,0.1385,-0.0836,-0.3762,-1.4612,-5.8888,-15.051258216541791,10.25530323519771,-3.9049222000109367,6.050000000010186
0.1783,0.9547,-0.2557,0.0553,0.1385,-0.0836,-0.7525,-1.4262,-5.9763,-15.018775888626172,10.23799687222608,-3.9049222000109367,6.050000000010186
0.1775,0.9549,-0.2575,0.053,0.139,-0.079,-0.7525,-1.4262,-5.9763,-15.059879020143795,10.200261945113311,-3.9263151999997294,6.065000000002328
0.1775,0.9569,-0.2572,0.053,0.139,-0.079,-0.7175,-1.9162,-6.1075,-15.051375515163809,10.173014707281062,-3.9263151999997294,6.065000000002328
0.1783,0.9569,-0.2572,0.0546,0.1386,-0.0813,-0.3762,-2.1088,-6.2038,-15.048147363415366,10.190568620639278,-3.9600560000066034,6.081000000005588
0.181,0.9537,-0.2567,0.0546,0.1386,-0.0813,0.21,-1.925,-5.9588,-15.052350862479402,10.305937612044698,-3.9600560000066034,6.081000000005588
0.1784,0.9567,-0.2564,0.0546,0.1386,-0.0813,0.21,-1.925,-5.9588,-15.03990299692409,10.249331681195706,-3.990855999998872,6.097000000001572
0.1793,0.957,-0.2594,0.0545,0.1399,-0.0774,-0.105,-1.8725,-5.3987,-15.089637054143783,10.249691761763902,-3.990855999998872,6.097000000001572
0.1781,0.9586,-0.2594,0.0545,0.1399,-0.0774,-0.1925,-1.4612,-5.6525,-15.111799355840066,10.205653649409792,-4.012774000008653,6.1120000000082655
0.1781,0.9586,-0.2594,0.0557,0.1396,-0.0707,-0.7262,-1.6363,-5.6788,-15.128585500837273,10.184975597408146,-4.012774000008653,6.1120000000082655
0.1804,0.9615,-0.2582,0.0557,0.1396,-0.0707,-0.7262,-1.6363,-5.6788,-15.074215715939806,10.231378888902398,-4.038954800013987,6.128000000011525
0.179,0.9621,-0.2609,0.0557,0.1396,-0.0912,-0.5775,-2.0038,-5.18,-15.12620793671865,10.210546472443577,-4.038954800013987,6.128000000011525
0.1771,0.9595,-0.2606,0.0538,0.1409,-0.0821,-0.4112,-2.0125,-5.5037,-15.159856347164936,10.15505423068272,-4.069142299998172,6.143000000003667
0.1779,0.9607,-0.2607,0.0538,0.1409,-0.0821,-0.4812,-1.6888,-5.4163,-15.1712973876356,10.144319921154016,-4.096163100003677,6.159000000006927
0.1779,0.9601,-0.2608,0.0543,0.1385,-0.0827,-0.4812,-1.6888,-5.4163,-15.184343617142108,10.141352654983455,-4.096163100003677,6.159000000006927
0.1804,0.9601,-0.2608,0.0543,0.1385,-0.0827,-0.2625,-1.855,-5.95,-15.190019979175684,10.221957757269372,-4.125843099996227,6.17500000000291
0.1733,0.958,-0.263,0.055,0.1387,-0.0806,-0.5688,-1.9688,-5.95,-15.275033750767609,10.028657739400204,-4.155375100009406,6.190000000009604
0.1756,0.9574,-0.2594,0.055,0.1387,-0.0806,-0.5688,-1.6363,-6.0725,-15.214304292222836,10.035036458946808,-4.155375100009406,6.190000000009604
0.1736,0.9564,-0.2608,0.055,0.1387,-0.0806,-0.9363,-1.6363,-6.0725,-15.237471783391959,9.972615266446779,-4.155375100009406,6.190000000009604
0.1724,0.9562,-0.2613,0.0575,0.1425,-0.0746,-0.7525,-2.3187,-5.81,-15.263773964549538,9.912275878676954,-4.192474300000094,6.206000000005588
0.1724,0.9562,-0.2613,0.0575,0.1425,-0.0746,-0.8575,-2.4062,-5.8012,-15.27559674538949,9.886225847085429,-4.192474300000094,6.206000000005588
0.1691,0.9565,-0.2624,0.0564,0.1397,-0.0795,-0.8575,-2.4062,-5.8012,-15.313649053899772,9.767034330289103,-4.228567299998693,6.221000000005006
0.1692,0.9584,-0.2582,0.0564,0.1397,-0.0795,-1.3125,-2.3975,-5.915,-15.160358847182668,9.71253831589367,-4.228567299998693,6.221000000005006
0.1733,0.9572,-0.2584,0.0564,0.1397,-0.0795,-1.155,-2.2662,-5.7575,-15.126823946511136,9.825116286609664,-4.26482650000608,6.2370000000082655
0.1746,0.9575,-0.2622,0.0561,0.1408,-0.0811,-0.9712,-1.9512,-6.0988,-15.239876167159029,9.917238359501178,-4.26482650000608,6.2370000000082655
0.1746,0.9573,-0.2584,0.0561,0.1408,-0.0811,-0.9712,-1.9512,-6.0988,-15.158931662737249,9.959908231227132,-4.296045699998244,6.253000000004249
0.1727,0.9573,-0.2584,0.0558,0.1397,-0.0806,-0.91,-2.0387,-6.1863,-15.127314816823352,9.909804238457795,-4.296045699998244,6.253000000004249
0.1767,0.9561,-0.2569,0.0558,0.1397,-0.0806,-0.665,-2.1525,-5.6613,-15.079419856852713,10.022583847959078,-4.328333199996991,6.268000000003667
0.1748,0.9584,-0.2571,0.0558,0.1397,-0.0806,-0.6825,-1.2775,-5.7137,-15.044772879503284,10.005085183456169,-4.328333199996991,6.268000000003667
0.1779,0.9589,-0.2581,0.055,0.1406,-0.0872,-0.6825,-1.2775,-5.7137,-15.055842061128569,10.088217103876529,-4.34877319999186,6.283999999999651
0.1781,0.9586,-0.2583,0.055,0.1406,-0.0872,-0.6475,-1.505,-6.1687,-15.06925867796405,10.139538362159557,-4.34877319999186,6.283999999999651
0.1781,0.9586,-0.2583,0.0545,0.1393,-0.0722,-0.4812,-1.4,-5.67,-15.074952830806962,10.156122301467112,-4.369773200001231,6.299000000006345
0.1793,0.9587,-0.2561,0.0545,0.1393,-0.0722,-0.6037,-1.1287,-4.9788,-15.011489898122495,10.183962029462968,-4.369773200001231,6.299000000006345
0.1793,0.9577,-0.256,0.0545,0.1393,-0.0926,-0.6037,-1.1287,-4.9788,-14.986974549545874,10.206039617353674,-4.3878324000049105,6.315000000009604
0.1774,0.9587,-0.2539,0.0558,0.1389,-0.0848,0.0263,-0.8838,-5.32,-14.934440735090922,10.17699429200143,-4.3878324000049105,6.315000000009604
0.1799,0.961,-0.2536,0.0558,0.1389,-0.0848,0.1488,-0.8313,-5.11,-14.891279998005981,10.2083174449588,-4.4011332000015715,6.331000000005588
0.1799,0.9586,-0.2555,0.0561,0.1395,-0.0767,-0.4025,-0.4025,-5.0138,-14.907385726316024,10.232041165020053,-4.4011332000015715,6.331000000005588
0.1812,0.9586,-0.2555,0.0561,0.1395,-0.0767,-0.4025,-0.4025,-5.0138,-14.91564734081541,10.27236865647856,-4.407170700001338,6.346000000005006
0.1812,0.9557,-0.255,0.0554,0.1385,-0.083,-0.1488,-0.2887,-5.0312,-14.925485684337191,10.31001022742254,-4.407170700001338,6.346000000005006
0.1807,0.9584,-0.2554,0.0554,0.1385,-0.083,-0.49,0.21,-4.865,-14.923580055428584,10.314071653259521,-4.403810700002181,6.3620000000009895
0.1773,0.9576,-0.2569,0.0554,0.1385,-0.083,-0.49,0.21,-4.865,-14.971345220641412,10.267264948163321,-4.403810700002181,6.3620000000009895
0.1724,0.9551,-0.2529,0.0558,0.1382,-0.0837,-0.6562,0.2537,-4.865,-14.89466439015578,10.168607035449263,-4.400005200000482,6.377000000007683
0.1724,0.9551,-0.2529,0.0558,0.1382,-0.0837,0.0,-0.0613,-5.145,-14.872130266819262,10.062533888107028,-4.400005200000482,6.377000000007683
0.1737,0.9555,-0.2529,0.0551,0.1391,-0.0771,0.175,-0.3762,-4.935,-14.859351463694914,10.033680847716397,-4.406024400001709,6.393000000010943
0.1723,0.9561,-0.2582,0.0551,0.1391,-0.0771,0.175,-0.3762,-4.935,-14.927994290849362,9.983938478715688,-4.406024400001709,6.393000000010943
0.1685,0.9589,-0.2596,0.0551,0.1391,-0.0771,0.6212,-0.7437,-4.4713,-14.943224395440739,9.973810080395825,-4.419410999993613,6.411000000000058
0.1712,0.9626,-0.2576,0.0548,0.1394,-0.0827,0.6037,-1.6187,-4.9,-14.945294890709967,9.9095168642495,-4.419410999993613,6.411000000000058
0.1712,0.9625,-0.2564,0.0548,0.1394,-0.0827,0.4812,-2.065,-5.25,-14.943523965595803,9.842244455460234,-4.450386000007436,6.426000000006752
0.1746,0.9625,-0.2564,0.0548,0.139,-0.0806,0.4812,-2.065,-5.25,-14.941862318690376,9.885129190217926,-4.450386000007436,6.426000000006752
0.1744,0.9605,-0.2577,0.0548,0.139,-0.0806,0.0088,-2.31,-5.3725,-14.968722114078378,9.913860063688228,-4.487346000014965,6.442000000010012
0.1727,0.9606,-0.2564,0.0548,0.139,-0.0806,-0.1488,-1.8112,-5.1275,-14.958899167396568,9.890823554565051,-4.487346000014965,6.442000000010012
0.1723,0.959,-0.2603,0.0573,0.1401,-0.0841,-0.5425,-2.03,-5.0838,-15.077226639479832,9.870942698226976,-4.517795999999014,6.457000000002154
0.1728,0.9564,-0.2621,0.0573,0.1401,-0.0841,-0.5425,-2.03,-5.0838,-15.206707588220672,9.87600697286569,-4.517795999999014,6.457000000002154
0.1728,0.9564,-0.2621,0.0558,0.1397,-0.0829,-0.1575,-2.1175,-4.9262,-15.25582821767016,9.878599361490537,-4.551676000005916,6.473000000005413
0.1703,0.9567,-0.2576,0.0558,0.1397,-0.0829,0.0263,-2.5287,-5.39,-15.192199056153637,9.819485257340943,-4.551676000005916,6.473000000005413
0.1735,0.957,-0.2579,0.0558,0.1397,-0.0829,-0.245,-2.6163,-4.9437,-15.143597202962917,9.853137472762425,-4.593536799995408,6.489000000001397
0.1752,0.957,-0.2589,0.0563,0.1391,-0.085,-0.245,-2.6163,-4.9437,-15.141136950671978,9.90493634188359,-4.593536799995408,6.489000000001397
0.1779,0.959,-0.2601,0.0563,0.1391,-0.085,-0.4725,-2.6862,-4.9262,-15.158084028865932,9.97827721268264,-4.633829800013389,6.504000000008091
0.1779,0.959,-0.261,0.055,0.1389,-0.0824,-0.07,-2.4325,-5.0925,-15.183533164345368,10.041462798110132,-4.633829800013389,6.504000000008091
0.1792,0.9586,-0.261,0.055,0.1389,-0.0824,-0.2625,-2.2575,-5.2413,-15.204695887642611,10.119431609912114,-4.669949800004322,6.5200000000040745
0.1823,0.9594,-0.2581,0.0566,0.138,-0.0762,-0.2625,-2.2575,-5.2413,-15.138780970965113,10.237800141969707,-4.669949800004322,6.5200000000040745
0.1799,0.9575,-0.2591,0.0566,0.138,-0.0762,-0.8925,-1.68,-5.1275,-15.140467887359597,10.253894075653898,-4.695149800003344,6.5350000000034925
0.1802,0.9577,-0.2594,0.0566,0.138,-0.0762,-0.8838,-1.4525,-5.2675,-15.149224877233914,10.271120974615348,-4.695149800003344,6.5350000000034925
0.1798,0.9557,-0.2578,0.0544,0.1394,-0.0796,-0.8838,-1.4525,-4.9525,-15.118025495140897,10.278574474226597,-4.718389800008079,6.551000000006752
0.1798,0.9557,-0.2578,0.0544,0.1394,-0.0796,-0.77,-1.0675,-4.9525,-15.10563089716101,10.283707657110925,-4.718389800008079,6.551000000006752
0.182,0.9563,-0.2564,0.0556,0.1403,-0.0806,-0.5425,-0.6562,-5.3725,-15.05522282683356,10.345363843717092,-4.728889000005443,6.567000000002736
0.1818,0.9558,-0.2552,0.0556,0.1403,-0.0806,-0.2362,-0.805,-5.565,-15.008712421327884,10.380255524182148,-4.728889000005443,6.567000000002736
0.1798,0.9555,-0.2618,0.0556,0.1403,-0.0806,-0.2362,-0.805,-5.565,-15.146562774795846,10.331837645073021,-4.740964000010832,6.58200000000943
0.1809,0.9583,-0.2537,0.0558,0.1391,-0.078,0.1138,-0.7875,-5.3288,-15.050366141383419,10.336366267119931,-4.753564000007669,6.598000000005413
0.1809,0.9583,-0.2548,0.0558,0.1391,-0.078,-0.0175,-1.1113,-5.4338,-14.992408173654242,10.337615962254256,-4.753564000007669,6.598000000005413
0.1758,0.9586,-0.2548,0.0559,0.1395,-0.0802,-0.1838,-1.085,-5.2762,-14.947175387009997,10.212244660183371,-4.769839000007038,6.613000000004831
0.1761,0.9561,-0.2583,0.0559,0.1395,-0.0802,-0.1838,-1.085,-5.2762,-15.019351993877468,10.155543936207614,-4.769839000007038,6.613000000004831
0.1785,0.9565,-0.2555,0.0559,0.1395,-0.0802,-0.2625,-1.2337,-5.4513,-14.990854184565666,10.187164389262481,-4.78957820001106,6.629000000008091
0.179,0.9583,-0.2584,0.0571,0.1394,-0.079,0.2362,-1.0675,-5.9938,-15.014495643088283,10.208791021167613,-4.78957820001106,6.629000000008091
0.1789,0.9582,-0.2558,0.0571,0.1394,-0.079,-0.4288,-1.435,-5.705,-14.981185065754952,10.217894026624545,-4.812538200005297,6.6450000000040745
0.1789,0.9582,-0.2558,0.055,0.1389,-0.0782,-0.4288,-1.435,-5.705,-14.96432548107088,10.222023267034796,-4.812538200005297,6.6450000000040745
0.1778,0.9581,-0.2555,0.055,0.1389,-0.0782,-0.3762,-1.8288,-5.8275,-14.94870738047485,10.189869139768993,-4.839970200017539,6.660000000010768
0.1757,0.9561,-0.2639,0.055,0.1389,-0.0782,-0.315,-1.5925,-5.3113,-15.171707238231175,10.125162293784008,-4.839970200017539,6.660000000010768
0.1771,0.955,-0.2608,0.0556,0.1399,-0.0754,-0.1488,-1.8463,-5.5037,-15.213844839110406,10.13389189019995,-4.86951099999669,6.675999999999476
0.1737,0.9595,-0.2592,0.0556,0.1399,-0.0754,-0.1488,-1.8463,-5.5037,-15.174146145430717,10.023418902531597,-4.86951099999669,6.675999999999476
0.1737,0.9595,-0.2636,0.056,0.1382,-0.0832,-0.7175,-1.8112,-5.18,-15.27886254212607,9.974296403071381,-4.896679000008814,6.69100000000617
0.1771,0.9597,-0.2636,0.056,0.1382,-0.0832,-0.0875,-2.2838,-5.075,-15.309825491810782,10.016502753661271,-4.896679000008814,6.69100000000617
0.1799,0.9592,-0.2592,0.0573,0.1388,-0.0835,-0.0875,-2.3537,-5.1363,-15.23676033624059,10.112188677672956,-4.934338200016486,6.70700000000943
0.1795,0.9566,-0.2594,0.0573,0.1388,-0.0835,-0.5425,-2.3537,-5.1363,-15.202977947907815,10.171660325243254,-4.934338200016486,6.70700000000943
0.1773,0.96,-0.2599,0.0573,0.1388,-0.0835,-0.9187,-2.2838,-4.7512,-15.170599059138507,10.158884794273517,-4.970879000007314,6.723000000005413
0.1783,0.9565,-0.2591,0.0559,0.1401,-0.0802,-1.0412,-2.2838,-4.795,-15.162096099443307,10.168188582017349,-4.970879000007314,6.723000000005413
0.1783,0.9565,-0.2591,0.0559,0.1401,-0.0802,-1.0412,-2.2838,-4.795,-15.15881077578921,10.175375621369938,-5.005136000005985,6.738000000004831
0.1804,0.9555,-0.2575,0.0538,0.1398,-0.0787,-1.1638,-2.7125,-5.3725,-15.110628985552907,10.248078015024157,-5.005136000005985,6.738000000004831
0.1823,0.9547,-0.2573,0.0538,0.1398,-0.0787,-1.26,-2.5988,-5.7225,-15.093060332305278,10.357144406358536,-5.046716799995547,6.754000000000815
0.1767,0.9557,-0.2603,0.0538,0.1398,-0.0787,-1.2425,-2.5025,-5.7663,-15.184654790757625,10.221710777253728,-5.046716799995547,6.754000000000815
0.1783,0.9564,-0.2536,0.057,0.1394,-0.0722,-1.2425,-2.5025,-5.7663,-14.970514405885904,10.218029757523817,-5.084254300012298,6.769000000007509
0.1783,0.9564,-0.2541,0.057,0.1394,-0.0722,-1.1375,-1.5575,-5.7663,-14.912983493440128,10.215681031547113,-5.084254300012298,6.769000000007509
0.1759,0.9561,-0.2541,0.0566,0.1372,-0.0787,-0.9187,-1.8813,-6.1775,-14.895333451363632,10.131982554419244,-5.114355100004742,6.7850000000034925
0.1792,0.9565,-0.255,0.0566,0.1372,-0.0787,-0.6388,-1.7325,-6.2475,-14.912886045306825,10.214007282253318,-5.114355100004742,6.7850000000034925
0.1757,0.954,-0.2579,0.0566,0.1372,-0.0787,-0.6388,-1.7325,-6.2475,-15.029305548437327,10.129591197974577,-5.1420751000103895,6.801000000006752
0.1752,0.9554,-0.2555,0.0566,0.1386,-0.0728,-0.2537,-1.645,-6.8338,-15.003866821660926,10.071015053937696,-5.1420751000103895,6.801000000006752
0.1725,0.9552,-0.2536,0.0566,0.1386,-0.0728,-1.26,-2.0387,-6.65,-14.91683995514542,9.954895002835746,-5.172655600009203,6.81600000000617
0.1725,0.9552,-0.2536,0.0558,0.1399,-0.075,-0.7,-2.0912,-6.7112,-14.890112256733566,9.917698970866397,-5.172655600009203,6.81600000000617
0.1734,0.9564,-0.2555,0.0558,0.1399,-0.075,-0.7,-2.0912,-6.7112,-14.927310828597637,9.929789553263811,-5.206114800000804,6.832000000002154
0.1715,0.9565,-0.2554,0.0558,0.1399,-0.075,-0.1575,-1.75,-6.5975,-14.936711992618964,9.860758548758978,-5.206114800000804,6.832000000002154
0.1731,0.96,-0.2589,0.0562,0.1402,-0.0796,-0.1838,-1.7062,-6.86,-15.002651680474996,9.871318022512817,-5.231707800012225,6.847000000008848
0.1713,0.9642,-0.2577,0.0562,0.1402,-0.0796,-0.35,-1.8813,-6.3612,-14.984181487414913,9.78532640788784,-5.231707800012225,6.847000000008848
0.1713,0.9642,-0.2588,0.0566,0.1392,-0.0748,-0.35,-1.8813,-6.3612,-15.003283494661886,9.753495761131655,-5.261808600004668,6.863000000004831
0.1703,0.9625,-0.2588,0.0566,0.1392,-0.0748,-0.6212,-1.995,-6.6325,-15.028406981183636,9.714543520913256,-5.261808600004668,6.863000000004831
0.1708,0.9615,-0.256,0.0594,0.139,-0.0783,-0.7962,-1.7413,-6.5625,-14.960052187936688,9.731953638707097,-5.289669400010345,6.879000000008091
0.1697,0.9609,-0.2596,0.0594,0.139,-0.0783,-0.7962,-1.7675,-6.3437,-15.050764164537242,9.695347735421736,-5.316181900009316,6.894000000007509
0.1686,0.9578,-0.2577,0.0594,0.139,-0.0783,-1.1375,-1.7675,-6.3437,-15.055962488584278,9.664080512216247,-5.316181900009316,6.894000000007509
0.1681,0.961,-0.2566,0.0564,0.1389,-0.0817,-1.2513,-1.5225,-6.6325,-14.987847820463344,9.615293902591597,-5.340541900003202,6.9100000000034925
0.1681,0.961,-0.2566,0.0564,0.1389,-0.0817,-1.3388,-1.9075,-6.6588,-14.963095634314554,9.599656354850675,-5.340541900003202,6.9100000000034925
0.1699,0.9622,-0.2581,0.0592,0.1403,-0.0793,-1.3388,-1.9075,-6.6588,-14.997350480118866,9.653481396950797,-5.3691544000159706,6.925000000010186
