AcclX,AcclY,AcclZ,MagX,MagY,MagZ,GyroX,GyroY,GyroZ,Roll,Pitch,Yaw,Time Elapsed(s)
0.1122,0.9716,-0.3329,0.1049,0.158,-0.0707,4.9175,5.3113,-3.885,0,0,0,0.0
0.1057,0.9653,-0.3362,0.1049,0.158,-0.0707,4.9175,5.3113,-3.885,0,0,0,0.0
0.0937,0.9586,-0.3353,0.1049,0.1591,-0.0755,4.6112,6.0637,-3.2462,0,0,0,0.014999999992141966
0.0877,0.955,-0.3346,0.1037,0.1591,-0.0755,4.3925,5.3463,-3.9288,0,0,0,0.030999999995401595
0.086,0.9598,-0.3338,0.1037,0.1591,-0.0755,4.9963,5.1275,-4.0862,0,0,0,0.030999999995401595
0.0875,0.9645,-0.3329,0.1031,0.1577,-0.0682,4.9963,5.1275,-4.0862,0,0,0,0.030999999995401595
0.0875,0.9645,-0.3329,0.1031,0.1577,-0.0682,4.3137,5.0487,-3.8588,0,0,0,0.046999999998661224
0.0908,0.9634,-0.3304,0.103,0.1597,-0.0711,3.9113,5.0138,-3.885,0,0,0,0.046999999998661224
0.0907,0.9643,-0.3335,0.103,0.1597,-0.0711,2.9137,5.075,-3.7975,0,0,0,0.06199999999807915
0.088,0.9719,-0.3342,0.103,0.1597,-0.0711,2.9137,5.075,-3.7975,0,0,0,0.06199999999807915
0.0872,0.9732,-0.3296,0.1012,0.158,-0.0715,2.2225,4.2613,-3.9638,0,0,0,0.07800000000133878
0.0872,0.9732,-0.3295,0.1012,0.158,-0.0715,1.47,3.7187,-4.2525,0,0,0,0.07800000000133878
0.0854,0.9713,-0.3295,0.1018,0.1594,-0.0742,0.6037,3.2025,-4.5675,0,0,0,0.09299999999348074
0.0853,0.9694,-0.3304,0.1018,0.1594,-0.0742,0.6037,3.2025,-4.5675,0,0,0,0.09299999999348074
0.0875,0.9676,-0.3201,0.1018,0.1594,-0.0742,-0.3938,2.4675,-4.4975,0,0,0,0.10899999999674037
0.0919,0.9678,-0.3186,0.1013,0.1586,-0.0635,-1.47,2.0475,-4.8038,0,0,0,0.10899999999674037
0.0935,0.9686,-0.3242,0.1013,0.1586,-0.0635,-1.47,2.0475,-4.865,0,0,0,0.125
0.0935,0.9686,-0.3242,0.1026,0.159,-0.0734,-3.0363,2.205,-4.865,0,0,0,0.125
0.0892,0.9682,-0.3196,0.1026,0.159,-0.0734,-3.4213,1.9775,-5.0312,0,0,0,0.13999999999941792
0.0879,0.9667,-0.3193,0.1026,0.159,-0.0734,-4.5763,1.8637,-5.4775,0,0,0,0.13999999999941792
0.0864,0.9665,-0.3209,0.1008,0.1586,-0.0699,-4.5763,1.8637,-5.4775,0,0,0,0.1559999999954016
0.0863,0.9678,-0.3138,0.1008,0.1586,-0.0699,-4.9612,1.1638,-5.8275,0,0,0,0.17099999999481952
0.0863,0.9678,-0.2982,0.1002,0.1593,-0.073,-4.725,0.1838,-6.2387,0,0,0,0.17099999999481952
0.0886,0.9651,-0.3095,0.1002,0.1593,-0.073,-5.0312,-0.105,-7.0087,0,0,0,0.18699999999807915
0.0885,0.9623,-0.3104,0.1002,0.1583,-0.0684,-5.0312,-0.105,-7.0087,0,0,0,0.18699999999807915
0.0859,0.9624,-0.306,0.1017,0.1583,-0.0684,-5.2762,-0.175,-7.4988,0,0,0,0.20299999999406282
0.0869,0.9633,-0.3081,0.1017,0.1583,-0.0684,-5.0925,-0.56,-8.0675,0,0,0,0.20299999999406282
0.0812,0.9595,-0.312,0.1012,0.1585,-0.0679,-4.76,-0.2275,-8.1287,0,0,0,0.21799999999348074
0.0812,0.9595,-0.312,0.1012,0.1585,-0.0679,-4.76,-0.2275,-8.1287,0,0,0,0.21799999999348074
0.0789,0.9608,-0.3102,0.1028,0.1598,-0.0673,-3.885,-0.91,-8.5225,0,0,0,0.23399999999674037
0.0867,0.9641,-0.3057,0.1028,0.1598,-0.0673,-3.4125,-2.135,-9.1438,0,0,0,0.23399999999674037
0.0919,0.9639,-0.307,0.1028,0.1598,-0.0673,-2.7562,-2.0387,-8.8988,0,0,0,0.2489999999961583
0.0875,0.9622,-0.3069,0.1042,0.1586,-0.0762,-2.7562,-2.0387,-8.8988,0,0,0,0.2489999999961583
0.0875,0.9622,-0.3069,0.1042,0.1586,-0.0762,-2.1962,-1.33,-8.995,0,0,0,0.2649999999994179
0.0861,0.9597,-0.3067,0.1037,0.1583,-0.0701,-1.3212,-1.2687,-8.5575,0,0,0,0.2649999999994179
0.0831,0.9634,-0.3109,0.1037,0.1583,-0.0701,-1.3212,-1.2687,-8.4175,0,0,0,0.2809999999954016
0.0825,0.9661,-0.3145,0.1037,0.1583,-0.0701,-0.2187,-1.3913,-8.4175,0,0,0,0.2809999999954016
0.083,0.9699,-0.3115,0.1021,0.1607,-0.075,-0.175,-1.54,-8.0063,0,0,0,0.2959999999948195
0.0824,0.9704,-0.3121,0.1021,0.1607,-0.075,0.7175,-1.435,-8.0588,0,0,0,0.2959999999948195
0.0824,0.9704,-0.3121,0.103,0.1594,-0.0703,0.7175,-1.435,-8.0588,0,0,0,0.31199999999807915
0.0782,0.974,-0.3091,0.103,0.1594,-0.0703,1.3038,-0.49,-7.4637,0,0,0,0.31199999999807915
0.0749,0.9773,-0.3137,0.103,0.1594,-0.0703,0.875,0.2713,-6.825,0,0,0,0.32699999999749707
0.0734,0.9747,-0.3145,0.1054,0.1588,-0.0746,0.4638,-0.7962,-6.7112,0,0,0,0.32699999999749707
0.0701,0.9736,-0.3181,0.1054,0.1588,-0.0746,0.4638,-0.7962,-6.7112,0,0,0,0.3430000000007567
0.0701,0.9736,-0.3181,0.1042,0.1593,-0.0738,0.7962,-1.1638,-6.7638,0,0,0,0.3430000000007567
0.0711,0.9727,-0.3139,0.1042,0.1593,-0.0738,0.3413,-1.0938,-6.4488,0,0,0,0.35899999999674037
0.072,0.9728,-0.3155,0.1042,0.1593,-0.0748,-0.0263,-1.7062,-5.7575,0,0,0,0.35899999999674037
0.0753,0.9706,-0.3163,0.1055,0.1591,-0.0748,-0.0263,-1.7062,-5.7575,0,0,0,0.3739999999961583
0.0774,0.9676,-0.314,0.1055,0.1591,-0.0748,-0.3413,-1.5488,-5.4425,0,0,0,0.3739999999961583
0.0848,0.965,-0.3136,0.1041,0.1604,-0.0647,-0.77,-1.3038,-4.9612,0,0,0,0.3899999999994179
0.0848,0.965,-0.3136,0.1041,0.1604,-0.0647,-1.05,-1.0588,-4.55,0,0,0,0.3899999999994179
0.0859,0.9653,-0.3172,0.1025,0.1596,-0.0753,-1.05,-1.0588,-4.55,0,0,0,0.40499999999883585
0.0896,0.9688,-0.311,0.1025,0.1596,-0.0753,-0.4988,-0.5688,-4.4538,0,0,0,0.40499999999883585
0.0966,0.9658,-0.3126,0.1025,0.1596,-0.0753,-0.7788,-0.2713,-4.0425,0,0,0,0.4210000000020955
0.1002,0.9666,-0.3154,0.1046,0.159,-0.0669,-1.0588,0.4725,-3.5788,0,0,0,0.4210000000020955
0.1002,0.9666,-0.3154,0.1046,0.159,-0.0669,-1.0588,0.4725,-3.5788,0,0,0,0.4369999999908032
0.1011,0.968,-0.3143,0.1037,0.1594,-0.071,-1.0325,0.9275,-3.6137,0,0,0,0.4369999999908032
0.1011,0.9658,-0.3152,0.1037,0.1594,-0.071,-0.8138,1.225,-3.745,0,0,0,0.4539999999979045
0.0988,0.9657,-0.3201,0.1037,0.1594,-0.071,-0.8138,1.225,-3.745,0,0,0,0.4539999999979045
0.0999,0.967,-0.3137,0.1038,0.1591,-0.0744,-0.5337,1.505,-3.885,0,0,0,0.47000000000116415
0.0978,0.9648,-0.3115,0.1038,0.1591,-0.0744,-0.4025,1.6712,-4.5413,0,0,0,0.47000000000116415
0.0978,0.9648,-0.3115,0.1029,0.1604,-0.0706,-0.2362,1.8025,-5.1887,0,0,0,0.4849999999933061
0.1001,0.9629,-0.3161,0.1029,0.1604,-0.0706,-0.2362,1.8025,-5.1887,0,0,0,0.4849999999933061
0.0947,0.9638,-0.3132,0.1029,0.1604,-0.0706,0.2187,2.345,-4.8212,0,0,0,0.5009999999965657
0.0944,0.9633,-0.313,0.1027,0.1593,-0.0594,0.49,2.5025,-5.355,0,0,0,0.5009999999965657
0.0906,0.9652,-0.3155,0.1027,0.1593,-0.0594,0.3675,2.3275,-5.53,0,0,0,0.5169999999925494
0.0906,0.9652,-0.3155,0.103,0.1592,-0.0658,0.3675,2.3275,-5.53,0,0,0,0.5169999999925494
0.0876,0.9676,-0.314,0.103,0.1592,-0.0658,0.5163,2.3012,-5.6525,0,0,0,0.5319999999992433
0.0869,0.9694,-0.3095,0.103,0.1592,-0.0658,0.6475,1.9162,-5.7137,0,0,0,0.5319999999992433
0.0858,0.9712,-0.3157,0.1036,0.1604,-0.0696,0.63,1.7587,-5.845,0,0,0,0.5480000000025029
0.0836,0.973,-0.3129,0.1036,0.1604,-0.0696,0.63,1.7587,-5.845,0,0,0,0.5480000000025029
0.0836,0.9702,-0.3081,0.1036,0.1598,-0.0655,0.0962,1.3913,-5.9763,0,0,0,0.5629999999946449
0.0867,0.9702,-0.3081,0.1036,0.1598,-0.0655,-0.2713,0.35,-6.37,0,0,0,0.5629999999946449
0.0858,0.9702,-0.3095,0.1015,0.1593,-0.077,-0.735,-0.3675,-5.565,0,0,0,0.5789999999979045
0.0807,0.9715,-0.3101,0.1015,0.1593,-0.077,-0.735,-0.3675,-5.565,0,0,0,0.5949999999938882
0.0847,0.9728,-0.304,0.1015,0.1593,-0.077,-1.3388,-0.2625,-5.5125,0,0,0,0.5949999999938882
0.0825,0.9691,-0.3045,0.1019,0.16,-0.0753,-1.5838,-0.9887,-5.2762,0,0,0,0.6100000000005821
0.0825,0.9691,-0.3045,0.1019,0.16,-0.0753,-1.5838,-0.9887,-5.3113,0,0,0,0.6100000000005821
0.0816,0.9706,-0.3047,0.1033,0.1586,-0.0744,-2.3888,-1.1812,-5.3113,0,0,0,0.6259999999965657
0.0847,0.9715,-0.3055,0.1033,0.1586,-0.0744,-2.625,-1.54,-5.2063,0,0,0,0.6259999999965657
0.0824,0.9684,-0.3041,0.1033,0.1586,-0.0744,-2.8963,-1.9863,-4.8825,0,0,0,0.6409999999959837
0.0825,0.9654,-0.2978,0.1016,0.1601,-0.0759,-2.8963,-1.9863,-4.8825,0,0,0,0.6409999999959837
0.0825,0.9643,-0.2997,0.1016,0.1601,-0.0759,-2.9575,-2.345,-5.285,0,0,0,0.6569999999992433
0.087,0.9643,-0.2997,0.104,0.1596,-0.0722,-2.4938,-2.555,-5.04,0,0,0,0.6569999999992433
0.0905,0.9648,-0.3007,0.104,0.1596,-0.0722,-2.975,-2.3712,-5.425,0,0,0,0.672999999995227
0.091,0.9619,-0.2998,0.104,0.1596,-0.0722,-2.975,-2.3712,-5.425,0,0,0,0.672999999995227
0.0919,0.962,-0.3009,0.1033,0.1582,-0.0787,-3.1063,-1.9688,-5.4687,0,0,0,0.6879999999946449
0.0899,0.962,-0.3032,0.1033,0.1582,-0.0787,-2.38,-2.03,-5.46,0,0,0,0.6879999999946449
0.0899,0.962,-0.3032,0.103,0.1585,-0.0753,-2.0038,-2.24,-6.2125,0,0,0,0.7039999999979045
0.092,0.9577,-0.2982,0.103,0.1585,-0.0753,-2.0038,-2.24,-6.2125,0,0,0,0.7039999999979045
0.1003,0.9578,-0.2993,0.103,0.1585,-0.0753,-1.295,-2.0038,-6.4138,0,0,0,0.7189999999973224
0.0994,0.9556,-0.3019,0.1033,0.1579,-0.0665,-0.14,-1.1812,-6.4575,0,0,0,0.7189999999973224
0.1008,0.9562,-0.3017,0.1033,0.1579,-0.0665,0.7088,-0.7175,-6.3875,0,0,0,0.7350000000005821
0.1008,0.9562,-0.3029,0.103,0.1589,-0.0706,0.7088,-0.7175,-6.3875,0,0,0,0.7350000000005821
0.101,0.9584,-0.3029,0.103,0.1589,-0.0706,1.5925,0.2013,-6.2737,0,0,0,0.7509999999965657
0.1002,0.9577,-0.3085,0.1047,0.1599,-0.0718,2.835,0.1312,-6.79,0,0,0,0.7509999999965657
0.0979,0.959,-0.3112,0.1047,0.1599,-0.0718,2.835,0.1312,-6.6937,0,0,0,0.7659999999959837
0.1011,0.9621,-0.3106,0.1047,0.1599,-0.0718,4.5062,0.0175,-6.6937,0,0,0,0.7659999999959837
0.0997,0.968,-0.3154,0.1032,0.1597,-0.0686,4.9612,0.5688,-6.3875,0,0,0,0.7819999999919673
0.0997,0.968,-0.3154,0.1032,0.1597,-0.0686,4.8038,0.7262,-6.3263,0,0,0,0.7819999999919673
0.0974,0.9703,-0.3167,0.1043,0.1599,-0.0739,4.8038,0.7262,-6.3263,-15.318203167259949,2.4931050818967786,0.0,0.7969999999986612
0.0923,0.9733,-0.3198,0.1043,0.1599,-0.0739,5.39,0.7962,-6.4225,-17.78703043940095,3.7788619232326703,0.025478399999397515,0.8289999999979045
0.087,0.9749,-0.3226,0.1043,0.1599,-0.0739,5.705,0.98,-6.2913,-18.23956874054703,4.25422021390091,0.025478399999397515,0.8289999999979045
0.0849,0.9775,-0.322,0.104,0.1597,-0.0753,5.215,0.5512,-6.3,-18.23350726036567,4.461730866259059,0.025478399999397515,0.8289999999979045
0.0849,0.9775,-0.3199,0.104,0.1597,-0.0753,5.215,0.5512,-6.3,-18.137477835729097,4.5773083412614985,0.03374639999907668,0.8439999999973224
0.087,0.9792,-0.3199,0.1033,0.1618,-0.0738,4.55,0.3675,-6.4488,-18.09919328470711,4.7001878110563355,0.03374639999907668,0.8439999999973224
0.0866,0.9784,-0.319,0.1033,0.1618,-0.0738,3.5875,0.0875,-6.09,-18.065856315063012,4.741729952558348,0.03374639999907668,0.8439999999973224
0.0837,0.9795,-0.3231,0.1033,0.1618,-0.0738,2.7825,-0.56,-5.5388,-18.213867996886645,4.736364627046627,0.03374639999907668,0.8439999999973224
0.0824,0.9798,-0.3203,0.1044,0.1624,-0.0753,2.7825,-0.56,-5.5388,-18.1272637029674,4.727653780026501,0.02478640000132582,0.8599999999933061
0.0814,0.9828,-0.3218,0.1044,0.1624,-0.0753,1.5838,-0.1225,-5.18,-18.129244826259644,4.674798435746166,0.02478640000132582,0.8599999999933061
0.0814,0.9828,-0.3218,0.1044,0.161,-0.0764,0.28,-1.4,-5.67,-18.12967553966131,4.647413547441988,0.0037863999919543895,0.875
0.0757,0.9833,-0.3257,0.1044,0.161,-0.0764,-1.4438,-2.4762,-5.11,-18.21029942814035,4.520266351140519,0.0037863999919543895,0.875
0.0714,0.9809,-0.322,0.1044,0.161,-0.0764,-1.4438,-2.4762,-5.11,-18.19520683862373,4.366902506701243,-0.035832800016117106,0.8910000000032596
0.0755,0.9775,-0.3174,0.1051,0.161,-0.0776,-2.5113,-3.675,-6.2475,-18.063624626333475,4.295273949939326,-0.035832800016117106,0.8910000000032596
0.0763,0.9787,-0.3108,0.1051,0.161,-0.0776,-4.3313,-4.4713,-6.895,-17.715254355711668,4.268474963030369,-0.10737359996562591,0.9069999999919673
0.0763,0.9787,-0.3108,0.1034,0.1597,-0.0742,-5.6087,-5.5738,-6.86,-17.6345836379338,4.257478142302735,-0.10737359996562591,0.9069999999919673
0.078,0.9773,-0.3074,0.1034,0.1597,-0.0742,-5.6087,-5.5738,-6.86,-17.490172332751367,4.313256812774553,-0.19098060000293626,0.9219999999986612
0.076,0.9698,-0.3079,0.1034,0.1597,-0.0667,-7.1575,-5.95,-7.1137,-17.597306116744097,4.287460842168725,-0.19098060000293626,0.9219999999986612
0.072,0.9664,-0.3131,0.1059,0.1597,-0.0667,-8.225,-6.9037,-7.7438,-17.909790796676102,4.125697915381717,-0.30143979997520876,0.9379999999946449
0.0783,0.9665,-0.309,0.1059,0.1597,-0.0667,-8.225,-6.9037,-7.7438,-17.75087312078339,4.324568009354507,-0.40499529997119027,0.9529999999940628
0.084,0.9667,-0.3031,0.1061,0.161,-0.0745,-8.505,-8.7762,-8.2163,-17.447466246252766,4.628529765949167,-0.40499529997119027,0.9529999999940628
0.084,0.9667,-0.3031,0.1061,0.161,-0.0745,-8.5225,-9.485,-8.2163,-17.412802186089504,4.709958635738915,-0.5567553000021078,0.9689999999973224
0.0891,0.9669,-0.3037,0.1072,0.161,-0.0734,-8.3737,-9.1,-7.665,-17.43448256443637,4.925475182023099,-0.5567553000021078,0.9689999999973224
0.091,0.9702,-0.3011,0.1072,0.161,-0.0734,-8.3737,-9.1,-7.665,-17.26400639986736,5.058108635668773,-0.7023552999655592,0.9849999999933061
0.092,0.9728,-0.3012,0.1072,0.161,-0.0734,-8.12,-8.9075,-7.315,-17.21086979750551,5.125408592170585,-0.7023552999655592,0.9849999999933061
0.0926,0.9703,-0.2987,0.1098,0.1604,-0.0842,-7.9975,-8.2425,-6.8162,-17.12276858008841,5.174621307698031,-0.8259928000207335,1.0
0.0926,0.9703,-0.2987,0.1098,0.1604,-0.0842,-7.6825,-7.9012,-6.755,-17.11214497617242,5.19529127454857,-0.8259928000207335,1.0
0.091,0.9686,-0.3018,0.107,0.159,-0.0671,-7.6825,-7.9012,-6.755,-17.281723169160436,5.1562414610559495,-0.9524119999889997,1.0159999999959837
0.0905,0.9679,-0.2967,0.107,0.159,-0.0671,-6.79,-7.5075,-5.9675,-17.07638908838234,5.14064038352819,-0.9524119999889997,1.0159999999959837
0.088,0.9647,-0.2936,0.107,0.159,-0.0671,-5.9325,-6.51,-6.2038,-16.95139506372356,5.076496390650472,-1.0500619999852103,1.0309999999954016
0.0872,0.9608,-0.2947,0.1086,0.1602,-0.0629,-4.83,-5.565,-6.055,-17.03220455871968,5.033769878052178,-1.0500619999852103,1.0309999999954016
0.0856,0.96,-0.2957,0.1086,0.1602,-0.0629,-4.83,-5.565,-6.055,-17.10265534784232,4.974476777462039,-1.1391019999628595,1.0469999999913853
0.0856,0.96,-0.2957,0.108,0.1607,-0.0658,-3.4738,-4.5675,-5.775,-17.11528561667269,4.951058672175061,-1.1391019999628595,1.0469999999913853
0.0841,0.9594,-0.2971,0.108,0.1607,-0.0658,-2.2487,-3.255,-5.5475,-17.169891642701508,4.941155771887672,-1.1911819999734696,1.062999999994645
0.0803,0.96,-0.2974,0.108,0.1607,-0.0658,-0.9363,-3.0013,-5.6175,-17.17659106261617,4.897071534299523,-1.1911819999734696,1.062999999994645
0.0769,0.9627,-0.299,0.1077,0.1614,-0.0586,-0.9363,-3.0013,-5.6175,-17.188749408705746,4.833865183418707,-1.23620149999356,1.0780000000013388
0.0745,0.9642,-0.2984,0.1077,0.1614,-0.0586,0.4638,-2.275,-5.845,-17.19284382955865,4.671248036986737,-1.23620149999356,1.0780000000013388
0.0745,0.9642,-0.2984,0.1086,0.1609,-0.0678,1.295,-1.61,-5.9237,-17.19510930987113,4.533761728667267,-1.2619614999870936,1.0939999999973224
0.0751,0.9622,-0.2993,0.1086,0.1609,-0.0678,1.295,-1.61,-6.0637,-17.25126366184694,4.434068993169409,-1.2619614999870936,1.0939999999973224
0.075,0.964,-0.3013,0.1086,0.1609,-0.067,2.1437,-1.645,-6.0637,-17.329644847442484,4.365338563267499,-1.2866364999861362,1.1089999999967404
0.075,0.9675,-0.2999,0.1081,0.1618,-0.067,3.0625,-1.47,-5.4513,-17.24443561701721,4.361268315897562,-1.2866364999861362,1.1089999999967404
0.0725,0.9717,-0.3043,0.1081,0.1618,-0.067,3.4125,-1.4787,-4.9612,-17.360674053184017,4.262262297940994,-1.3102956999801971,1.124999999992724
0.0677,0.9763,-0.303,0.1083,0.1606,-0.0734,3.4125,-1.4787,-4.9612,-17.264998463000335,4.099899258566982,-1.3102956999801971,1.124999999992724
0.0677,0.9763,-0.303,0.1083,0.1606,-0.0734,3.2462,-1.3825,-4.3925,-17.246613749606105,3.9376921351125085,-1.3324156999847037,1.1409999999959837
0.0683,0.9807,-0.3065,0.107,0.16,-0.0703,3.43,-1.5838,-4.6112,-17.334631003846,3.8749628058762937,-1.3324156999847037,1.1409999999959837
0.0667,0.9831,-0.3063,0.107,0.16,-0.0703,2.8612,-2.4237,-4.4538,-17.31160610209938,3.789339360911139,-1.3687712000009276,1.1560000000026776
0.0684,0.9865,-0.3115,0.107,0.16,-0.0703,2.8612,-2.4237,-4.4538,-17.478079074167443,3.786014309659891,-1.3687712000009276,1.1560000000026776
0.0729,0.985,-0.3052,0.1065,0.1604,-0.0572,1.96,-2.2487,-4.7162,-17.286258787432562,3.897915346862735,-1.404750399991896,1.1719999999986612
0.0729,0.985,-0.3052,0.1065,0.1604,-0.0572,1.7325,-2.2662,-4.4275,-17.23580116441333,3.9728233156502055,-1.404750399991896,1.1719999999986612
0.0752,0.9858,-0.307,0.108,0.1615,-0.065,0.35,-2.4062,-4.2,-17.268248975363235,4.08121873595503,-1.4408433999904955,1.1869999999980791
0.0744,0.9812,-0.3129,0.108,0.1615,-0.065,0.35,-2.4062,-4.2,-17.48771452552882,4.109725852973707,-1.4408433999904955,1.1869999999980791
0.0734,0.9823,-0.3126,0.108,0.1615,-0.065,-0.7962,-2.24,-3.71,-17.495008129128422,4.086124848973006,-1.476683399981499,1.2029999999940628
0.0767,0.9789,-0.3074,0.1066,0.1598,-0.0661,-1.0325,-2.03,-3.22,-17.48148964330248,4.217221737277974,-1.476683399981499,1.2029999999940628
0.0767,0.9769,-0.313,0.1066,0.1598,-0.0661,-2.0825,-1.9425,-3.01,-17.643753481858223,4.259096236161092,-1.5077633999878308,1.2189999999973224
0.0722,0.9769,-0.313,0.1062,0.16,-0.0673,-2.0825,-1.9425,-3.01,-17.71331904757021,4.093108925222172,-1.5077633999878308,1.2189999999973224
0.0734,0.9786,-0.3078,0.1062,0.16,-0.0673,-2.6688,-2.0912,-2.7912,-17.546772084545356,4.092667492403487,-1.5391313999866136,1.2339999999967404
0.0733,0.977,-0.3104,0.1062,0.16,-0.0673,-2.6862,-1.9512,-2.87,-17.59864171731469,4.0906619833731215,-1.5391313999866136,1.2339999999967404
0.0739,0.9735,-0.3127,0.1065,0.1596,-0.0685,-2.6862,-1.9512,-2.835,-17.736466066148413,4.122007573085133,-1.570350599978777,1.249999999992724
0.0747,0.9709,-0.3039,0.1065,0.1596,-0.0685,-3.1675,-2.0038,-2.835,-17.484705647002954,4.178234803842489,-1.570350599978777,1.249999999992724
0.0747,0.9709,-0.3039,0.1058,0.1575,-0.0749,-3.2725,-2.1613,-3.1063,-17.41012998976809,4.193178607487116,-1.6027700999932446,1.264999999999418
0.0777,0.9673,-0.2996,0.1058,0.1575,-0.0749,-2.8612,-1.7587,-3.22,-17.273797562683846,4.328119766778222,-1.6027700999932446,1.264999999999418
0.0797,0.9691,-0.3055,0.1058,0.1575,-0.0749,-2.8612,-1.7587,-3.22,-17.425249240246057,4.4368447071101365,-1.6309092999861812,1.2809999999954016
0.0815,0.9714,-0.2971,0.1054,0.1589,-0.0606,-3.255,-1.6187,-2.8875,-17.125689863039163,4.545291266088517,-1.6309092999861812,1.2809999999954016
0.0817,0.9691,-0.302,0.1054,0.1589,-0.0606,-3.57,-1.5575,-2.9662,-17.260693622993934,4.5856391055203,-1.655829299991258,1.2969999999986612
0.0817,0.9694,-0.3054,0.105,0.1599,-0.0729,-3.3425,-1.33,-3.15,-17.423663133445583,4.592747693504477,-1.6757792999808068,1.3119999999908032
0.0844,0.9694,-0.3054,0.105,0.1599,-0.0729,-3.3425,-1.33,-3.15,-17.46902655841022,4.700720057986279,-1.6757792999808068,1.3119999999908032
0.083,0.9712,-0.3,0.1055,0.1598,-0.0606,-3.0975,-1.3737,-3.4125,-17.256326389032623,4.678720353860075,-1.6977584999852846,1.3279999999940628
0.0825,0.9667,-0.2984,0.1055,0.1598,-0.0606,-2.8437,-1.1463,-3.5263,-17.187318462082587,4.667580334411651,-1.6977584999852846,1.3279999999940628
0.0807,0.9643,-0.3011,0.1055,0.1598,-0.0606,-2.3537,-0.7,-3.6137,-17.281871283770908,4.602252585398259,-1.7082584999899704,1.3430000000007567
0.0808,0.9647,-0.2992,0.1043,0.1574,-0.0614,-2.3537,-0.7,-3.6137,-17.250651383692514,4.583696608925144,-1.7082584999899704,1.3430000000007567
0.0808,0.9647,-0.2992,0.1043,0.1574,-0.0614,-1.9425,-1.0588,-3.8675,-17.240063140213525,4.577566068629315,-1.725199299985718,1.3589999999967404
0.0871,0.9642,-0.2964,0.1043,0.1566,-0.0686,-2.0825,-0.8138,-3.7975,-17.153018270738297,4.801947322222389,-1.725199299985718,1.3589999999967404
0.087,0.962,-0.2991,0.1043,0.1566,-0.0686,-2.0213,-0.9013,-4.0512,-17.219190776764194,4.88073754047392,-1.739620099988656,1.375
0.0811,0.9639,-0.3013,0.1043,0.1566,-0.0686,-2.0213,-0.9013,-4.0512,-17.297123989959367,4.710307689495342,-1.739620099988656,1.375
0.0838,0.9673,-0.3004,0.104,0.1609,-0.058,-1.2862,-0.805,-3.885,-17.281530549004145,4.7221735962541,-1.7516950999823302,1.389999999992142
0.0838,0.983,-0.3018,0.104,0.1609,-0.058,-0.805,-1.1375,-4.165,-17.27036650690694,4.686256145779198,-1.7516950999823302,1.389999999992142
0.0874,0.9721,-0.3018,0.1057,0.1586,-0.0647,0.0175,-0.63,-4.5413,-17.26047084776426,4.793676314854442,-1.7617750999843838,1.4059999999954016
0.0879,0.9739,-0.3018,0.1057,0.1586,-0.0647,0.0175,-0.63,-4.5413,-17.24184925746979,4.858521721052145,-1.7617750999843838,1.4059999999954016
0.0899,0.975,-0.3005,0.1057,0.1586,-0.0647,0.035,-0.875,-4.8738,-17.19247103855199,4.925594407414518,-1.774900099990241,1.4210000000020955
0.0898,0.9753,-0.2984,0.1041,0.159,-0.0727,0.3588,-0.7875,-5.5388,-17.097510409089303,4.93115711465816,-1.774900099990241,1.4210000000020955
0.0875,0.9725,-0.2987,0.1041,0.159,-0.0727,0.3588,-0.7875,-5.5388,-17.085232113651085,4.93035372914634,-1.787500099987078,1.4369999999980791
0.0875,0.9725,-0.2987,0.106,0.1587,-0.0721,-0.0613,-0.7875,-5.5213,-17.0807160192952,4.92982438554906,-1.787500099987078,1.4369999999980791
0.0897,0.9717,-0.2948,0.106,0.1587,-0.0721,-0.1138,-0.9275,-5.8187,-17.00152865861232,4.959547514101379,-1.8023400999901014,1.4530000000013388
0.0895,0.9661,-0.2984,0.106,0.1587,-0.0721,-0.3413,-1.2337,-5.3463,-17.048775506274982,4.971460771326304,-1.8023400999901014,1.4530000000013388
0.0888,0.9678,-0.2993,0.106,0.1594,-0.0624,-0.3413,-1.2337,-5.3463,-17.088193405827166,4.976066519005792,-1.8233129999898858,1.4700000000011642
0.0858,0.9676,-0.2978,0.106,0.1594,-0.0624,-0.0787,-0.63,-5.0838,-17.095702888298312,4.938424178882999,-1.8233129999898858,1.4700000000011642
0.0858,0.9676,-0.3028,0.1046,0.1595,-0.0622,0.0962,-0.455,-4.9437,-17.224608551703064,4.9029366015085305,-1.8305929999880584,1.4859999999971478
0.0847,0.9656,-0.3028,0.1046,0.1595,-0.0622,0.6037,-0.4288,-5.1887,-17.33167460019605,4.875957763251534,-1.8305929999880584,1.4859999999971478
0.0817,0.967,-0.3003,0.1045,0.1578,-0.0648,0.6037,-0.4288,-5.1887,-17.28589814480291,4.816101384058286,-1.8370249999878088,1.5009999999965657
0.084,0.9653,-0.2967,0.1045,0.1578,-0.0648,0.4462,-0.8225,-5.18,-17.17681793036044,4.801845670126554,-1.8370249999878088,1.5009999999965657
0.0836,0.9681,-0.3013,0.1045,0.1578,-0.0648,0.9975,-1.015,-5.1188,-17.247287235254223,4.778260968785341,-1.8532649999837323,1.5169999999925494
0.0883,0.9684,-0.3011,0.1051,0.1594,-0.0652,1.1725,-0.9013,-5.4163,-17.26340435908493,4.790714736455937,-1.8532649999837323,1.5169999999925494
0.0883,0.9684,-0.3011,0.1051,0.1594,-0.0652,1.1725,-0.9013,-5.4163,-17.26891925892842,4.802384855624372,-1.8676857999866703,1.532999999995809
0.0904,0.9688,-0.2968,0.1063,0.1589,-0.0635,0.875,-0.5337,-5.495,-17.122803561514484,4.80576408148616,-1.8676857999866703,1.532999999995809
0.0907,0.9698,-0.3012,0.1063,0.1589,-0.0635,1.2862,-0.1838,-5.6175,-17.210603142598572,4.841002910125914,-1.8704427999865634,1.547999999995227
0.0913,0.9724,-0.2988,0.1063,0.1589,-0.0635,0.9275,-0.1312,-5.4687,-17.129527925236797,4.845182494869418,-1.8704427999865634,1.547999999995227
0.0879,0.9688,-0.301,0.1034,0.159,-0.0642,0.9275,-0.1312,-5.4687,-17.211074514132733,4.846735663448705,-1.872541999986991,1.5639999999984866
0.0879,0.9688,-0.3014,0.1034,0.159,-0.0642,0.6125,-0.035,-5.11,-17.251550729084087,4.875210485569042,-1.872541999986991,1.5639999999984866
0.0822,0.9695,-0.3014,0.1046,0.1583,-0.0669,0.98,0.0,-5.11,-17.262940060250834,4.8082052801731,-1.872541999986991,1.5789999999979045
0.0828,0.9673,-0.3002,0.1046,0.1583,-0.0669,0.98,0.0,-5.0662,-17.24944592400191,4.768600460007884,-1.872541999986991,1.5789999999979045
0.0892,0.9678,-0.3029,0.1046,0.1583,-0.0669,1.2425,-0.3063,-5.0662,-17.33568410722937,4.8446221392746205,-1.8774427999857608,1.5949999999938882
0.0938,0.9663,-0.3,0.1048,0.1583,-0.0622,0.7262,-0.5337,-5.0925,-17.28318089063538,4.97164035854114,-1.8774427999857608,1.5949999999938882
0.0884,0.9665,-0.3008,0.1048,0.1583,-0.0622,0.7262,-0.21,-5.2238,-17.285757966446116,4.9756524035593115,-1.8808027999864454,1.6109999999971478
0.0884,0.9665,-0.3008,0.1023,0.1591,-0.0673,0.7262,-0.21,-5.2238,-17.286798717626965,4.978837451007547,-1.8808027999864454,1.6109999999971478
0.0847,0.9645,-0.3024,0.1023,0.1591,-0.0673,1.0675,0.1925,-5.0925,-17.36484683531077,4.92574333826918,-1.8779152999865574,1.6259999999965657
0.0859,0.9705,-0.3036,0.1023,0.1591,-0.0673,1.3737,-0.3413,-5.6788,-17.369143674940457,4.9098592967189685,-1.8779152999865574,1.6259999999965657
0.0893,0.9709,-0.3002,0.1024,0.1585,-0.0637,1.0675,-0.5163,-5.6262,-17.248091057044803,4.923841918030533,-1.8861760999844837,1.6419999999925494
0.0913,0.974,-0.3038,0.1024,0.1585,-0.0637,1.0675,-0.5163,-5.6262,-17.296544436265933,4.947534696963718,-1.8861760999844837,1.6419999999925494
0.0913,0.974,-0.3038,0.1058,0.157,-0.0666,1.1725,-0.2537,-5.8975,-17.31408188810166,4.996133761318736,-1.889981599986182,1.6569999999992433
0.0885,0.9755,-0.3007,0.1058,0.157,-0.0666,0.9363,-0.2975,-5.8362,-17.199800180959134,4.985405963068088,-1.889981599986182,1.6569999999992433
0.0887,0.9747,-0.3051,0.1058,0.157,-0.067,0.6037,-0.0088,-5.53,-17.304089765558327,4.984432357645657,-1.8901223999861467,1.672999999995227
0.0889,0.9771,-0.3032,0.1046,0.159,-0.067,0.6037,-0.0088,-5.53,-17.26690222312667,4.983625937089922,-1.8901223999861467,1.672999999995227
0.0865,0.9761,-0.3023,0.1046,0.159,-0.067,0.2713,-0.4375,-5.7225,-17.237066005091695,4.9556505169173475,-1.8971223999875728,1.6889999999984866
0.0831,0.9726,-0.3039,0.1062,0.1582,-0.0622,-0.0787,-0.2713,-6.0025,-17.283234339211447,4.855417102156786,-1.8971223999875728,1.6889999999984866
0.0831,0.9726,-0.3039,0.1062,0.1582,-0.0622,0.105,-0.1225,-6.4575,-17.31493448976647,4.760131686471327,-1.8989598999866102,1.7039999999906286
0.0817,0.9723,-0.3032,0.1061,0.157,-0.0594,0.105,-0.1225,-6.4575,-17.31701948512132,4.674366738090023,-1.8989598999866102,1.7039999999906286
0.0847,0.9704,-0.3012,0.1061,0.157,-0.0594,-0.2975,-0.4638,-6.3525,-17.294175442212858,4.716593557008763,-1.906380699988122,1.7199999999938882
0.0858,0.9699,-0.3041,0.1061,0.157,-0.0594,-0.0525,-0.7613,-6.5538,-17.341011605761196,4.772613929616564,-1.9178001999932182,1.735000000000582
0.0844,0.9704,-0.3053,0.1062,0.1602,-0.0657,-0.0525,-0.7613,-6.8338,-17.391639993505127,4.755427714143526,-1.9178001999932182,1.735000000000582
0.0844,0.9704,-0.3053,0.1062,0.1602,-0.0657,-0.6825,-0.6562,-6.8338,-17.39622793836365,4.748115520013699,-1.9282993999905826,1.7509999999965657
0.085,0.9754,-0.3022,0.103,0.16,-0.0658,-1.1725,-0.5688,-6.1425,-17.342134157372556,4.752177527430254,-1.9282993999905826,1.7509999999965657
0.0865,0.9692,-0.303,0.103,0.16,-0.0658,-1.3737,-0.5775,-5.8538,-17.349287650196388,4.78371743352198,-1.937539399992465,1.7669999999998254
0.0835,0.9706,-0.3046,0.103,0.16,-0.0658,-1.3737,-0.5775,-5.8538,-17.37769508237167,4.75904914970333,-1.937539399992465,1.7669999999998254
0.0833,0.9713,-0.3026,0.1062,0.1602,-0.0664,-0.9187,-0.2887,-5.88,-17.3670505890977,4.736865942555736,-1.9600579999928516,1.8450000000011642
0.0833,0.9681,-0.3029,0.1062,0.1602,-0.0664,-0.5075,-0.1488,-5.67,-17.368388203940206,4.730212599816709,-1.9600579999928516,1.8450000000011642
0.0832,0.9681,-0.3029,0.1061,0.1598,-0.0682,-0.7,0.1663,-5.7663,-17.368650746091287,4.721111886411184,-1.9600579999928516,1.8450000000011642
0.0778,0.9665,-0.3034,0.1061,0.1598,-0.0682,-0.7,0.1663,-5.7663,-17.37147131200506,4.648497765929714,-1.9575634999941585,1.8599999999933061
0.0854,0.9525,-0.3032,0.1061,0.1598,-0.0682,-0.3237,-0.0875,-5.9675,-17.456904173596545,4.725047943867705,-1.9575634999941585,1.8599999999933061
0.0846,0.9647,-0.2995,0.1055,0.1596,-0.0654,0.9887,0.1663,-6.2125,-17.323922083517818,4.751371563189345,-1.9575634999941585,1.8599999999933061
0.0894,0.9577,-0.3022,0.1055,0.1596,-0.0654,2.3975,1.4787,-4.0425,-17.46738794486478,4.949598365006954,-1.9575634999941585,1.8599999999933061
0.0894,0.9577,-0.3022,0.1053,0.1583,-0.0645,2.3975,1.4787,-4.0425,-17.50197912839068,5.030807239345883,-1.9575634999941585,1.8599999999933061
0.0875,0.9487,-0.3043,0.1053,0.1583,-0.0645,3.185,2.8263,-1.9512,-17.72676360273875,5.021667143938002,-1.9575634999941585,1.8599999999933061
0.0903,0.9385,-0.3057,0.1053,0.1583,-0.0645,6.09,3.6925,-0.9187,-18.001892135841512,5.1902868152173625,-1.8984834999821223,1.8759999999965657
0.1065,0.9166,-0.3051,0.1034,0.1603,-0.0664,11.2175,5.5563,0.3588,-18.379051463945032,6.130195493358615,-1.8984834999821223,1.8759999999965657
0.1272,0.8915,-0.304,0.1034,0.1603,-0.0664,11.2175,5.5563,0.3588,-18.79456930089709,7.462880724094539,-1.8984834999821223,1.8759999999965657
0.1272,0.8691,-0.2903,0.103,0.1622,-0.067,18.655,8.3125,3.3512,-18.486421035543664,7.858453287436775,-1.8984834999821223,1.8759999999965657
0.1522,0.8691,-0.2903,0.103,0.1622,-0.067,26.4163,14.2187,8.96,-18.471104961820856,9.329050311562035,-1.8984834999821223,1.8759999999965657
0.1304,0.8875,-0.29,0.099,0.1594,-0.0812,33.1362,21.5688,18.9,-18.106121256397643,8.004951516682542,-1.574951499994677,1.8909999999959837
0.1059,0.9158,-0.3026,0.099,0.1594,-0.0812,33.0488,21.5688,18.9,-18.279534402415006,6.334378272250428,-1.574951499994677,1.8909999999959837
0.0658,0.9675,-0.3092,0.099,0.1594,-0.0812,36.0238,26.4862,28.8137,-17.73790978147788,3.7810297324184146,-1.1511722999083418,1.9069999999992433
0.0648,0.9964,-0.317,0.0906,0.1593,-0.081,35.8138,27.475,34.545,-17.650612944061088,3.5519974721849885,-1.1511722999083418,1.9069999999992433
0.0648,0.9964,-0.317,0.0906,0.1593,-0.081,35.8138,27.475,34.545,-17.648288980312486,3.5464151930534733,-0.7115723000186904,1.922999999995227
0.0609,1.0376,-0.3298,0.0859,0.157,-0.0924,33.9675,26.6963,35.6125,-17.633234047860782,3.2097292844518233,-0.7115723000186904,1.922999999995227
0.0609,1.0275,-0.3423,0.0859,0.157,-0.0924,30.1525,23.6425,33.4425,-18.400095480760175,3.218237460464302,-0.3569348000324522,1.937999999994645
0.0948,1.0094,-0.3457,0.0859,0.157,-0.0924,26.3375,20.1688,31.7712,-18.88735307314055,5.028843588899031,-0.3569348000324522,1.937999999994645
0.114,0.9959,-0.35,0.0778,0.1578,-0.0906,26.3375,20.1688,31.7712,-19.34660694119486,6.134058568648243,-0.034233999966709394,1.9539999999979045
0.114,0.982,-0.3609,0.0778,0.1578,-0.0906,26.2413,18.6725,29.1987,-20.14940812973759,6.216265528966742,-0.034233999966709394,1.9539999999979045
0.1201,0.982,-0.3609,0.0695,0.1565,-0.0987,27.4487,18.2787,25.9963,-20.17813248293111,6.538338418494353,0.239946500022651,1.9689999999973224
0.1294,0.9789,-0.3535,0.0695,0.1565,-0.0987,28.7875,18.5063,22.8813,-19.866206216504935,7.068563290811195,0.239946500022651,1.9689999999973224
0.1225,0.975,-0.3636,0.0695,0.1565,-0.0987,28.7875,18.5063,22.8813,-20.432475020129154,6.726119185605931,0.5360472999483237,1.9849999999933061
0.1103,0.9633,-0.3727,0.0647,0.158,-0.1031,27.6413,16.9575,22.4,-21.126953256036433,6.117250959729509,0.5360472999483237,1.9849999999933061
0.1159,0.9514,-0.3781,0.0647,0.158,-0.1031,25.8475,13.2913,22.6537,-21.653775070372625,6.447125397262103,0.7487080999916483,2.0009999999965657
0.1159,0.9514,-0.3781,0.0622,0.1575,-0.107,25.6637,8.3912,22.2425,-21.672859755754573,6.458441075568401,0.7487080999916483,2.0009999999965657
0.1391,0.9435,-0.3742,0.0622,0.1575,-0.107,25.6637,8.3912,22.2425,-21.635120265828576,7.756655216918168,0.874576099986764,2.0159999999959837
0.1765,0.9297,-0.363,0.0622,0.1575,-0.107,27.2475,7.385,20.475,-21.338674732488798,9.944457452900277,0.874576099986764,2.0159999999959837
0.1928,0.926,-0.3642,0.0574,0.1564,-0.1179,28.1488,8.9687,19.635,-21.46554908962919,10.926634878012043,1.0180753000159986,2.0319999999992433
0.1873,0.9203,-0.3759,0.0574,0.1564,-0.1179,28.3762,11.025,22.9338,-22.19277639287312,10.678733671860165,1.0180753000159986,2.0319999999992433
0.1873,0.9139,-0.3867,0.0523,0.1563,-0.1084,28.3762,11.025,22.9338,-22.910129987187137,10.68820046540824,1.1834502999293637,2.0469999999913853
0.1768,0.9139,-0.3867,0.0523,0.1563,-0.1084,27.405,11.025,26.8625,-22.933914397208472,10.119609736568854,1.1834502999293637,2.0469999999913853
0.1623,0.9162,-0.3922,0.0458,0.1562,-0.1226,27.4225,9.0825,29.7588,-23.166189438934623,9.273492878319699,1.3287702999589692,2.062999999994645
0.1676,0.9182,-0.3931,0.0458,0.1562,-0.1226,27.4225,8.4525,29.715,-23.17638500995034,9.518523659829706,1.4640102999865212,2.0789999999979045
0.1682,0.9245,-0.3985,0.0458,0.1562,-0.1226,27.6325,8.4525,29.715,-23.31333382238755,9.486051926235145,1.4640102999865212,2.0789999999979045
0.1817,0.9208,-0.3989,0.0407,0.1562,-0.1215,27.5888,7.525,28.4725,-23.419025779153515,10.240996785604686,1.576885299982141,2.0939999999973224
0.1817,0.9208,-0.3989,0.0407,0.1562,-0.1215,28.1138,6.09,27.1863,-23.422630481256252,10.262569523464778,1.576885299982141,2.0939999999973224
0.2014,0.9088,-0.3965,0.0354,0.1582,-0.1296,28.1138,6.09,24.9463,-23.566170262163237,11.44296084782391,1.6743253000019922,2.110000000000582
0.2167,0.8954,-0.4058,0.0354,0.1582,-0.1296,27.9387,6.3525,26.1537,-24.35286254690916,12.400818034219498,1.6743253000019922,2.110000000000582
0.2213,0.8899,-0.4046,0.0354,0.1582,-0.1296,26.25,7.14,26.775,-24.445846671017843,12.744952061682477,1.781425299945886,2.124999999992724
0.2267,0.8835,-0.4038,0.0305,0.159,-0.1341,25.2175,7.5163,27.4925,-24.55824492394313,13.124685645607514,1.781425299945886,2.124999999992724
0.2292,0.8854,-0.4116,0.0305,0.159,-0.1341,25.2175,7.5163,27.4925,-24.918642576485414,13.207961944269554,1.9016860999703864,2.1409999999959837
0.2292,0.8854,-0.4116,0.0233,0.1577,-0.1366,22.7938,7.8925,27.5012,-24.93195591776135,13.210412999947177,1.9016860999703864,2.1409999999959837
0.2389,0.8885,-0.4166,0.0233,0.1577,-0.1366,20.3263,8.0325,26.8188,-25.11238672974068,13.668197224010987,2.0302060999965694,2.1569999999992433
0.2427,0.8797,-0.4244,0.0233,0.1577,-0.1366,18.0163,7.735,25.3312,-25.72191044823394,13.945465930470514,2.0302060999965694,2.1569999999992433
0.2544,0.8727,-0.4338,0.0191,0.1562,-0.1429,18.0163,7.735,25.3312,-26.39508985314726,14.608398853027762,2.1462310999920673,2.1719999999986612
0.2691,0.8716,-0.432,0.0191,0.1562,-0.1429,16.1262,6.5012,23.52,-26.366555278161705,15.434476753365342,2.1462310999920673,2.1719999999986612
0.2691,0.8716,-0.432,0.0158,0.1581,-0.143,17.045,6.3612,21.1663,-26.364954418857504,15.461928708050486,2.2480103000128024,2.188000000001921
0.2797,0.8702,-0.4333,0.0158,0.1581,-0.143,16.4675,6.86,19.5387,-26.46438516179593,16.02916880070857,2.2480103000128024,2.188000000001921
0.2833,0.8672,-0.4424,0.0158,0.1581,-0.1428,16.4675,6.86,19.5387,-26.997338306408864,16.2176700577466,2.350910299958896,2.202999999994063
0.2833,0.8684,-0.443,0.0114,0.1564,-0.1428,15.2688,6.9125,18.97,-27.025873629170206,16.204582261381123,2.350910299958896,2.202999999994063
0.2869,0.8712,-0.4418,0.0114,0.1564,-0.1428,13.5975,6.79,18.4538,-26.899155680161638,16.361397807314013,2.459550299981029,2.2189999999973224
0.2924,0.8729,-0.4452,0.0067,0.1579,-0.1424,12.3287,6.8338,17.2288,-27.01390192589004,16.604657502298622,2.459550299981029,2.2189999999973224
0.2924,0.8729,-0.4452,0.0067,0.1579,-0.1424,12.3287,6.8338,17.2288,-27.02205228766986,16.614916321895436,2.5688911000033046,2.235000000000582
0.2976,0.8712,-0.4477,0.0038,0.157,-0.155,10.815,7.0,15.1112,-27.184114729627378,16.8870257532528,2.5688911000033046,2.235000000000582
0.3037,0.8744,-0.4496,0.0038,0.157,-0.155,8.89,6.1863,12.7837,-27.208811605232963,17.150651370221183,2.6616855999997036,2.25
0.307,0.8687,-0.448,0.0038,0.157,-0.155,6.0113,5.8888,10.3775,-27.27148318392784,17.420158159431978,2.6616855999997036,2.25
0.3108,0.8609,-0.454,-0.0005,0.1578,-0.139,6.0113,5.8888,10.3775,-27.736390863339256,17.69286264092244,2.7559063999760522,2.2659999999959837
0.3108,0.8609,-0.454,-0.0005,0.1578,-0.139,2.9313,3.885,8.435,-27.790462866773993,17.708903596993878,2.7559063999760522,2.2659999999959837
0.3217,0.8571,-0.4541,-0.0014,0.157,-0.1485,1.8288,2.66,5.8012,-27.88026042789677,18.29665343865279,2.795806399974504,2.2809999999954016
0.3362,0.8467,-0.4574,-0.0014,0.157,-0.1485,1.8288,2.66,3.5612,-28.239337272555833,19.161428446747998,2.795806399974504,2.2809999999954016
0.3384,0.8375,-0.4599,-0.0014,0.157,-0.1485,0.5863,0.9538,2.4588,-28.544403045282333,19.464595691565307,2.811067199977613,2.2969999999986612
0.3373,0.8286,-0.4633,-0.0014,0.1577,-0.1466,0.6475,-0.0525,-0.5163,-28.9330293540538,19.544274299623613,2.811067199977613,2.2969999999986612
0.3388,0.8212,-0.4612,-0.0014,0.1577,-0.1466,0.4812,-0.6475,-2.345,-29.14618258464503,19.72654165816708,2.800707199980214,2.312999999994645
0.3388,0.8212,-0.4612,-0.0008,0.1559,-0.1478,0.4812,-0.6475,-2.345,-29.2417169124307,19.770584079494736,2.800707199980214,2.312999999994645
0.3379,0.8192,-0.4599,-0.0008,0.1559,-0.1478,0.28,-1.4787,-3.6837,-29.276318747038353,19.77808681294371,2.7785266999810747,2.327999999994063
0.3405,0.8223,-0.462,-0.0008,0.1559,-0.1478,0.0962,-1.9863,-4.8212,-29.300448371329363,19.806694110904257,2.7785266999810747,2.327999999994063
0.3417,0.8286,-0.4596,-0.0021,0.1558,-0.1539,-0.2975,-2.3275,-5.39,-29.211788213359068,19.808723592667004,2.7412866999734877,2.3439999999973224
0.3435,0.8284,-0.4638,-0.0021,0.1558,-0.1539,-0.2975,-2.3275,-5.39,-29.221620306673188,19.81571554949719,2.7412866999734877,2.3439999999973224
0.3435,0.8284,-0.4638,-0.0012,0.155,-0.1432,-1.1113,-2.345,-6.2038,-29.22738795338655,19.84704452413968,2.7061116999748527,2.3589999999967404
0.3443,0.8274,-0.4591,-0.0012,0.155,-0.1432,-1.7587,-2.0475,-7.1838,-29.125558135594954,19.939925258050124,2.7061116999748527,2.3589999999967404
0.3459,0.8279,-0.457,-0.0012,0.155,-0.1442,-2.2487,-1.5925,-7.9012,-28.98946244759448,20.047063873963182,2.6806316999696618,2.375
0.3379,0.8318,-0.4613,-0.0019,0.1562,-0.1442,-2.2487,-1.5925,-7.9012,-29.00291609177829,19.700931176246666,2.6806316999696618,2.375
0.3334,0.8355,-0.459,-0.0019,0.1562,-0.1442,-3.3863,-1.3038,-8.9163,-28.843582704625074,19.37246432312837,2.659770899974898,2.3909999999959837
0.3301,0.8372,-0.4535,-0.001,0.1569,-0.1482,-5.1712,-0.5775,-9.8875,-28.51755245664257,19.167616084627763,2.659770899974898,2.3909999999959837
0.3301,0.8372,-0.4535,-0.001,0.1569,-0.1482,-6.9388,-0.98,-10.7537,-28.45406834638198,19.128520622334612,2.6450708999754684,2.4059999999954016
0.3254,0.8416,-0.4579,0.0011,0.1559,-0.1488,-6.9388,-0.98,-10.7537,-28.53652366453604,18.817919802564873,2.629390899972274,2.4219999999986612
0.3207,0.8469,-0.4575,0.0011,0.1559,-0.1488,-9.5025,-1.1988,-12.1275,-28.394397823063493,18.477714981192694,2.629390899972274,2.4219999999986612
0.3214,0.8507,-0.4512,0.0011,0.1559,-0.1488,-11.06,-1.4525,-13.755,-27.98098435928083,18.45947128770518,2.607603399973119,2.436999999998079
0.3173,0.8503,-0.4578,0.001,0.1545,-0.1401,-15.54,-1.645,-15.3125,-28.27786958103202,18.21382910222545,2.607603399973119,2.436999999998079
0.3173,0.8503,-0.4578,0.001,0.1545,-0.1401,-14.0,-1.645,-15.3125,-28.296534262426203,18.191145470191266,2.581283399967757,2.4530000000013388
0.3204,0.86,-0.4524,0.0047,0.1551,-0.1418,-16.6775,-2.2487,-16.9662,-27.77895350095297,18.243836440062864,2.581283399967757,2.4530000000013388
0.3187,0.8644,-0.4472,0.0047,0.1551,-0.1418,-19.4338,-2.7475,-17.8412,-27.37646655765828,18.14026967056547,2.537323399978792,2.4689999999973224
0.312,0.8631,-0.446,0.0047,0.1551,-0.1418,-19.4338,-2.7475,-20.0812,-27.32979495008264,17.825716952764243,2.537323399978792,2.4689999999973224
0.2996,0.8785,-0.4365,0.0067,0.153,-0.1532,-21.9363,-3.1675,-18.7775,-26.46233202962409,17.0422936238347,2.486643399968467,2.485000000000582
0.2956,0.8957,-0.4364,0.0067,0.153,-0.1532,-25.2612,-3.8063,-20.7288,-25.995176042211035,16.556506798531796,2.482837099981539,2.485999999997148
0.2956,0.8957,-0.4364,0.0095,0.1534,-0.1361,-29.1812,-5.075,-23.7213,-25.97676476008017,16.52629855745943,2.4016370999649963,2.5020000000004075
0.294,0.9079,-0.4338,0.0095,0.1534,-0.1361,-29.1812,-5.075,-23.7213,-25.55363014866465,16.299961154837227,2.4016370999649963,2.5020000000004075
0.2959,0.9053,-0.4381,0.0095,0.1534,-0.1361,-34.2038,-7.3063,-27.0988,-25.815801927630528,16.39039299206618,2.284736299994341,2.517999999996391
0.3009,0.8858,-0.4463,0.0133,0.1512,-0.1337,-38.1675,-9.975,-31.2987,-26.716642035073548,16.857772456724753,2.244836299986212,2.521999999997206
0.3081,0.8857,-0.4407,0.0133,0.1512,-0.1337,-36.855,-12.635,-36.5138,-26.46076372660499,17.284794002262874,2.244836299986212,2.521999999997206
0.3081,0.8857,-0.4251,0.0184,0.1507,-0.1301,-36.855,-12.635,-36.5138,-25.66125696471281,17.407935655927847,2.0426763000369585,2.5379999999931897
0.3148,0.888,-0.4271,0.0184,0.1507,-0.1301,-33.705,-13.3175,-40.3725,-25.685355981435436,17.70866720907495,2.0426763000369585,2.5379999999931897
0.3063,0.8874,-0.4161,0.0184,0.1503,-0.1205,-33.25,-12.2675,-41.545,-25.138605258053918,17.36438386529856,1.846396299996971,2.5539999999964493
0.2901,0.8926,-0.408,0.0244,0.1503,-0.1205,-33.95,-11.9963,-41.125,-24.581523662323118,16.49164033667298,1.846396299996971,2.5539999999964493
0.2733,0.906,-0.4003,0.0244,0.1503,-0.1205,-33.95,-11.9963,-41.125,-23.859145025684125,15.454517130244756,1.6664517999166693,2.569000000003143
0.2605,0.9186,-0.3938,0.0313,0.1492,-0.1126,-36.1375,-12.1275,-38.9287,-23.22260028272005,14.633264642305255,1.6664517999166693,2.569000000003143
0.2605,0.9186,-0.3938,0.0313,0.1492,-0.1126,-38.5788,-13.0025,-37.765,-23.20507571644921,14.609447311614733,1.4584117999688915,2.584999999999127
0.2511,0.9191,-0.3895,0.0372,0.1473,-0.1082,-39.7775,-14.0875,-37.24,-22.97242157684361,14.134549827589959,1.4584117999688915,2.584999999999127
0.2525,0.9156,-0.3769,0.0372,0.1473,-0.1082,-39.7775,-14.0875,-37.24,-22.389101157339937,14.30108639251473,1.2470992999770916,2.599999999998545
0.2458,0.9127,-0.3663,0.0372,0.1473,-0.1082,-39.5325,-13.8425,-38.36,-21.880515986409865,14.040579354884377,1.2470992999770916,2.599999999998545
0.231,0.9018,-0.3623,0.0427,0.1478,-0.1073,-39.48,-12.2762,-37.765,-21.887710338452607,13.390628462272504,1.0506801000263968,2.6159999999945285
0.231,0.9018,-0.3467,0.0427,0.1478,-0.1073,-39.48,-10.9637,-36.2687,-21.051024376442694,13.444853273325595,1.0506801000263968,2.6159999999945285
0.2153,0.8951,-0.3504,0.0465,0.1465,-0.0973,-39.5325,-10.9637,-36.2687,-21.37035260255598,12.650616011157325,0.8752608999906593,2.631999999997788
0.1998,0.89,-0.3436,0.0465,0.1465,-0.0973,-39.0163,-10.115,-33.9325,-21.11658166442217,11.85634884247057,0.8752608999906593,2.631999999997788
0.19,0.8855,-0.3392,0.0465,0.1465,-0.0973,-37.8438,-9.59,-31.6313,-20.963972775415158,11.34971007124851,0.7314108999962414,2.646999999997206
0.1903,0.8873,-0.3255,0.049,0.1471,-0.086,-37.8438,-9.59,-29.3913,-20.16671351057241,11.382905801000303,0.7314108999962414,2.646999999997206
0.1945,0.8888,-0.3162,0.049,0.1471,-0.086,-36.1637,-9.6775,-29.3125,-19.59956843853708,11.63900563775753,0.5765709000351095,2.6629999999931897
0.1945,0.8888,-0.3162,0.0555,0.1474,-0.0856,-35.0262,-10.0538,-27.895,-19.58400758690317,11.649293953854306,0.5765709000351095,2.6629999999931897
0.1962,0.8961,-0.3093,0.0555,0.1474,-0.0856,-33.6437,-9.5113,-26.32,-19.058716869227588,11.691221882501702,0.43390139997144195,2.6779999999998836
0.1953,0.9066,-0.3029,0.0555,0.1474,-0.0856,-33.6437,-9.5113,-26.32,-18.49198387446183,11.554209005986415,0.43390139997144195,2.6779999999998836
0.1927,0.9189,-0.2968,0.0604,0.1473,-0.0774,-33.425,-8.7063,-25.3487,-17.917764866123836,11.298351290262321,0.2946006000064093,2.6939999999958673
0.1815,0.9218,-0.3059,0.0604,0.1473,-0.0774,-33.705,-8.7325,-25.375,-18.345483603147468,10.619263811270093,0.1548805999779446,2.709999999999127
0.1815,0.9218,-0.3027,0.0629,0.146,-0.0769,-33.705,-10.0712,-26.8888,-18.184007332379032,10.596866932117281,0.1548805999779446,2.709999999999127
0.1799,0.9235,-0.3027,0.0629,0.146,-0.0769,-33.705,-10.0712,-26.8888,-18.14890364287312,10.492314584380418,0.0038126000570844476,2.724999999991269
0.1845,0.9333,-0.3005,0.066,0.1457,-0.0791,-31.0363,-10.8763,-30.4587,-17.85694151726328,10.650530120490414,0.0038126000570844476,2.724999999991269
0.1767,0.9292,-0.299,0.066,0.1457,-0.0791,-27.6938,-10.9462,-33.9238,-17.837954685279968,10.273951143423284,-0.1713265999785961,2.7409999999945285
0.1781,0.9325,-0.2901,0.066,0.1457,-0.0791,-23.625,-10.4738,-37.1263,-17.304209026925278,10.333595880417986,-0.1713265999785961,2.7409999999945285
0.1727,0.9354,-0.2833,0.074,0.1473,-0.0705,-23.625,-10.4738,-37.1263,-16.868764023261747,10.030340748178766,-0.3284336000487065,2.7560000000012224
0.1727,0.9354,-0.2833,0.074,0.1473,-0.0705,-22.1812,-10.1763,-38.6488,-16.850576832162538,10.0210375713089,-0.3284336000487065,2.7560000000012224
0.1639,0.9416,-0.2797,0.08,0.1494,-0.0678,-21.2537,-9.2925,-37.66,-16.558184983559507,9.489583665878781,-0.47711360001138475,2.771999999997206
0.1534,0.949,-0.2721,0.08,0.1494,-0.0678,-21.3675,-8.1287,-36.3125,-16.02468383858153,8.852813521732656,-0.47711360001138475,2.771999999997206
0.1482,0.9553,-0.2732,0.08,0.1494,-0.0678,-21.3675,-8.1287,-36.3125,-15.962661729945333,8.495012732546746,-0.6071728000378813,2.7880000000004657
0.139,0.9645,-0.2691,0.0841,0.1501,-0.0587,-20.7813,-7.2625,-35.42,-15.607100580234043,7.922115694551919,-0.6071728000378813,2.7880000000004657
0.139,0.9645,-0.2576,0.0841,0.1501,-0.0587,-20.7463,-7.2713,-34.86,-14.98472374530467,7.926504127568361,-0.7162422999807432,2.8029999999926076
0.1261,0.9643,-0.2576,0.0899,0.151,-0.0611,-21.2013,-7.525,-34.7375,-14.957874498953391,7.224496142256409,-0.7162422999807432,2.8029999999926076
0.1163,0.969,-0.2574,0.0899,0.151,-0.0611,-21.2013,-7.525,-34.7375,-14.880007240615697,6.636710763162709,-0.8366423000052718,2.8189999999958673
0.1082,0.9775,-0.2544,0.0899,0.151,-0.0611,-21.2975,-8.2075,-35.2975,-14.601495636283444,6.131281495794335,-0.8366423000052718,2.8189999999958673
0.1058,0.9849,-0.2495,0.0942,0.1506,-0.0512,-21.3412,-9.0475,-35.7612,-14.233297455621983,5.950897446524376,-0.9723548000658347,2.834000000002561
0.0996,0.9909,-0.2512,0.0942,0.1506,-0.0512,-21.3412,-9.0475,-36.2863,-14.225573780143103,5.5770506591963915,-0.9723548000658347,2.834000000002561
0.0996,0.9909,-0.2512,0.0967,0.153,-0.0533,-22.6625,-9.135,-36.2863,-14.225215055522254,5.565295524441866,-1.1185148000291456,2.849999999998545
0.0996,0.9914,-0.2458,0.0967,0.153,-0.0533,-24.57,-10.2463,-36.8462,-13.93679166596855,5.569271239681695,-1.1185148000291456,2.849999999998545
0.0947,0.9934,-0.2473,0.0967,0.153,-0.0533,-26.565,-11.4975,-37.2137,-13.977648725298614,5.2938335887143175,-1.3024748000666233,2.8660000000018044
0.0845,0.9884,-0.2436,0.1019,0.1534,-0.0514,-26.565,-11.4975,-37.2137,-13.85007276172862,4.761884878107792,-1.3024748000666233,2.8660000000018044
0.0724,0.9916,-0.2413,0.1019,0.1534,-0.0514,-27.3962,-12.4775,-38.3512,-13.683031204979732,4.078722545745226,-1.4896372999685747,2.8809999999939464
0.0724,0.9916,-0.2408,0.1082,0.1556,-0.0503,-27.5275,-13.1775,-40.4688,-13.650691483303726,4.058970060334969,-1.4896372999685747,2.8809999999939464
0.0609,0.9838,-0.2408,0.1082,0.1556,-0.0503,-25.585,-14.9187,-43.8025,-13.749624909889844,3.456650248759164,-1.7283365000172042,2.896999999997206
0.0611,0.9866,-0.2352,0.1153,0.1579,-0.0392,-25.585,-14.9187,-43.8025,-13.421917832966104,3.4476627623900407,-1.7283365000172042,2.896999999997206
0.0639,0.999,-0.222,0.1153,0.1579,-0.0392,-24.15,-15.9425,-46.725,-12.565410536574749,3.5699892074366146,-1.9674740000079245,2.911999999996624
0.0594,0.9989,-0.2236,0.1153,0.1579,-0.0392,-23.975,-15.505,-48.0288,-12.615299171512763,3.3268271021158906,-1.9674740000079245,2.911999999996624
0.0528,0.9989,-0.2179,0.1221,0.1594,-0.0417,-24.9288,-13.6588,-47.6263,-12.318021120527558,2.9649265592183967,-2.186014799953066,2.9279999999926076
0.0528,0.9989,-0.2179,0.1221,0.1594,-0.0417,-24.9288,-13.6588,-47.6263,-12.306214454404527,2.9565381346498407,-2.186014799953066,2.9279999999926076
0.0444,1.0052,-0.2155,0.1281,0.1632,-0.0367,-25.865,-12.355,-45.4125,-12.108095138854416,2.484822100904028,-2.383694799993339,2.9439999999958673
0.0367,1.0123,-0.2142,0.1281,0.1632,-0.0367,-26.4338,-12.46,-43.3475,-11.953428768906878,2.043025546899394,-2.383694799993339,2.9439999999958673
0.0325,1.0214,-0.2084,0.1281,0.1632,-0.0367,-27.8337,-12.5212,-41.5187,-11.546989719128662,1.7926653462341076,-2.5715127999860505,2.958999999995285
0.0223,1.0221,-0.2064,0.1346,0.1635,-0.0333,-27.8337,-12.5212,-41.5187,-11.421258670573026,1.2404721784564379,-2.5715127999860505,2.958999999995285
0.0223,1.0313,-0.2002,0.1346,0.1635,-0.0333,-29.3125,-12.1012,-40.6,-11.000572802054105,1.216707825982576,-2.765132000025496,2.974999999998545
0.0096,1.0313,-0.2002,0.1394,0.167,-0.0247,-30.9312,-12.1187,-40.285,-10.98631656436562,0.5429181612404681,-2.9469124999302667,2.9899999999906868
0.0004,1.0332,-0.1892,0.1394,0.167,-0.0247,-33.425,-12.6175,-40.5563,-10.395146472697823,0.03626480137206832,-2.9469124999302667,2.9899999999906868
-0.0068,1.0271,-0.1934,0.1394,0.167,-0.0247,-33.425,-12.6175,-40.5563,-10.655793947712821,-0.3614358323969977,-3.148792499971395,3.0059999999939464
-0.0102,1.0291,-0.1899,0.1433,0.167,-0.0118,-35.8225,-13.615,-41.2562,-10.460748810154055,-0.5530875306215385,-3.148792499971395,3.0059999999939464
-0.0035,1.0312,-0.1807,0.1433,0.167,-0.0118,-37.9575,-14.9625,-42.4025,-9.952834530899109,-0.20108294829754048,-3.3881925000201676,3.021999999997206
-0.0035,1.0312,-0.1807,0.1498,0.1708,-0.0199,-37.9575,-14.9625,-44.7912,-9.939540966359308,-0.19178499353672396,-3.3881925000201676,3.021999999997206
-0.004,1.0284,-0.1824,0.1498,0.1708,-0.0199,-39.8125,-15.33,-44.7912,-10.05460779985021,-0.21874254537632667,-3.618142500011244,3.036999999996624
-0.0068,1.0283,-0.1817,0.1498,0.1708,-0.0199,-40.8537,-15.8375,-47.355,-10.021518776808666,-0.36950297103900276,-3.618142500011244,3.036999999996624
-0.0123,1.0259,-0.1694,0.157,0.1746,-0.0043,-41.615,-16.0387,-50.4963,-9.391675420256512,-0.6710379285786654,-3.8747617000635244,3.0529999999998836
-0.0199,1.023,-0.1652,0.157,0.1746,-0.0043,-41.615,-16.0387,-50.4963,-9.178481248698473,-1.0908356663744352,-3.8747617000635244,3.0529999999998836
-0.0199,1.0263,-0.1525,0.1639,0.1769,-0.004,-42.7962,-16.31,-53.8213,-8.468733916892388,-1.0986066675573094,-4.11941169993536,3.0679999999920256
-0.0291,1.0263,-0.1525,0.1639,0.1769,-0.004,-43.96,-16.5462,-57.89,-8.452235569079752,-1.5970059233586955,-4.11941169993536,3.0679999999920256
-0.0323,1.0304,-0.1448,0.1721,0.1822,0.0022,-46.8825,-16.6775,-61.6263,-8.008886412871352,-1.7748392655551515,-4.386251699989722,3.083999999995285
-0.0345,1.035,-0.139,0.1721,0.1822,0.0022,-46.8825,-16.6775,-61.6263,-7.65666279136856,-1.8901237962644184,-4.386251699989722,3.083999999995285
-0.0328,1.0385,-0.1345,0.1721,0.1822,0.0022,-49.5513,-16.24,-65.135,-7.385076903851567,-1.7956392731964095,-4.646091700042658,3.099999999998545
-0.0373,1.032,-0.1292,0.1827,0.1873,0.0166,-51.7825,-15.75,-69.0287,-7.140737017167165,-2.0499421737123913,-4.646091700042658,3.099999999998545
-0.0373,1.032,-0.1292,0.1827,0.1873,0.0166,-54.8538,-15.365,-72.905,-7.13603598216888,-2.0538856028881947,-4.876566700033714,3.1149999999979627
-0.0393,1.0208,-0.1256,0.1914,0.1933,0.0238,-54.8538,-15.365,-72.905,-7.0166665334918905,-2.1863040347409823,-4.876566700033714,3.1149999999979627
-0.05,1.0109,-0.1222,0.1914,0.1933,0.0238,-56.3325,-14.2625,-76.6413,-6.894799818301603,-2.802500912965215,-5.104766700080204,3.1310000000012224
-0.0677,1.0041,-0.1016,0.1914,0.1933,0.0238,-57.5662,-13.2738,-80.0362,-5.797136025070995,-3.8240089052665236,-5.104766700080204,3.1310000000012224
-0.087,0.9887,-0.0852,0.2026,0.2002,0.0279,-58.9837,-12.5125,-83.3525,-4.93994539405786,-4.995237045515211,-5.29245419998188,3.1459999999933643
-0.1026,0.9759,-0.0725,0.2026,0.2002,0.0279,-58.9837,-12.5125,-83.3525,-4.260390879273348,-5.972744155976787,-5.29245419998188,3.1459999999933643
-0.1053,0.9759,-0.0725,0.2123,0.209,0.0362,-60.3225,-11.3138,-86.4413,-4.248914100315334,-6.139556226679791,-5.473475000018759,3.161999999996624
-0.1175,0.9636,-0.0592,0.2123,0.209,0.0362,-61.775,-9.625,-88.6637,-3.52744342883336,-6.92978712600863,-5.473475000018759,3.161999999996624
-0.1354,0.9527,-0.05,0.2123,0.209,0.0362,-61.4688,-7.9012,-89.32,-3.0127415831489364,-8.064338707670576,-5.599894200044514,3.1779999999998836
-0.1478,0.9514,-0.0405,0.2242,0.2167,0.0421,-61.4688,-7.9012,-89.32,-2.446863209300574,-8.813515291330143,-5.599894200044514,3.1779999999998836
-0.1543,0.9304,-0.0323,0.2242,0.2167,0.0421,-59.6488,-7.2013,-89.5738,-1.9959518398550113,-9.403791946650237,-5.707913700040322,3.1929999999993015
-0.1543,0.9304,-0.0323,0.2352,0.2246,0.0429,-56.63,-5.6525,-87.7625,-1.9884307405195865,-9.41072720995184,-5.707913700040322,3.1929999999993015
-0.1854,0.9263,-0.0275,0.2352,0.2246,0.0429,-56.63,-5.6525,-85.6275,-1.705560078658643,-11.289954716305763,-5.7983537000176195,3.208999999995285
-0.2097,0.9337,-0.0149,0.2352,0.2246,0.0536,-52.5438,-4.1388,-85.6275,-0.9292380887321187,-12.639640456086315,-5.7983537000176195,3.208999999995285
-0.231,0.9292,0.002,0.2447,0.234,0.0536,-48.7113,-3.36,-82.1537,0.10182482769533692,-13.943733929186317,-5.8487537000156635,3.223999999994703
-0.2567,0.9293,0.0124,0.2447,0.234,0.0536,-43.9688,-2.765,-77.2538,0.7494881293475287,-15.419842681481612,-5.8487537000156635,3.223999999994703
-0.2737,0.9394,0.0228,0.252,0.2432,0.0616,-43.9688,-2.765,-77.2538,1.3758492997597,-16.22801793565034,-5.892993700024676,3.2399999999979627
-0.2737,0.9394,0.0228,0.252,0.2432,0.0616,-39.5938,-1.4875,-71.225,1.389978343767222,-16.23910978941476,-5.892993700024676,3.2399999999979627
-0.2839,0.9667,0.0351,0.259,0.249,0.0587,-36.05,0.3413,-64.6537,2.0604507480564123,-16.354285866324783,-5.887532900026047,3.2559999999939464
-0.3007,0.9906,0.0441,0.259,0.249,0.0587,-34.055,1.7938,-58.7038,2.534795140610307,-16.860573709076114,-5.887532900026047,3.2559999999939464
-0.3168,0.9892,0.0646,0.259,0.249,0.0587,-34.055,1.7938,-58.7038,3.7013848444013915,-17.70683775403621,-5.860625900027091,3.2709999999933643
-0.3301,0.9835,0.07,0.2654,0.2542,0.0658,-33.7313,2.6075,-53.4012,4.0602454736175995,-18.493667381113525,-5.73807340001161,3.3179999999993015
-0.3301,0.9835,0.07,0.2654,0.2542,0.0658,-32.0075,4.1562,-48.9738,4.070788885759347,-18.50971872382631,-5.671574200028302,3.333999999995285
-0.3659,0.9872,0.0747,0.2679,0.2597,0.0649,-31.675,5.2325,-46.0513,4.319209685057099,-20.24101472676729,-5.671574200028302,3.333999999995285
-0.391,0.9749,0.0893,0.2679,0.2597,0.0649,-31.675,5.2325,-46.0513,5.204996170614425,-21.73468829157907,-5.593086700031348,3.348999999994703
-0.4154,0.9655,0.1079,0.2679,0.2597,0.0649,-30.765,4.935,-44.4762,6.338886065237308,-23.115254144181378,-5.593086700031348,3.348999999994703
-0.4257,0.9695,0.1067,0.2732,0.2645,0.0694,-29.7413,4.7425,-43.8812,6.282456446108728,-23.56742297741151,-5.593086700031348,3.348999999994703
-0.4199,0.9805,0.1119,0.2732,0.2645,0.0694,-27.5187,4.6463,-42.0175,6.502516505880488,-23.063022484656965,-5.518745900016203,3.3649999999979627
-0.4199,0.9805,0.1119,0.2778,0.2722,0.0726,-27.5187,4.6463,-42.0175,6.510441248994306,-23.0495840069879,-5.518745900016203,3.3649999999979627
-0.4272,0.9732,0.116,0.2778,0.2722,0.0726,-25.2875,3.7713,-39.0337,6.786035859427538,-23.536844516705237,-5.518745900016203,3.3649999999979627
-0.4327,0.9667,0.119,0.2778,0.2722,0.0726,-20.7813,4.1038,-35.77,7.006741255709482,-23.93996783636392,-5.518745900016203,3.3649999999979627
-0.4344,0.9532,0.1232,0.28,0.2754,0.0761,-15.8375,3.4037,-31.64,7.342341801338788,-24.307425268373493,-5.518745900016203,3.3649999999979627
-0.4371,0.9599,0.1221,0.28,0.2754,0.0761,-15.8375,3.4037,-31.64,7.254929970780957,-24.30957196667349,-5.467690400018184,3.3799999999973807
-0.4371,0.9599,0.1221,0.2815,0.2761,0.071,-11.725,2.7387,-26.46,7.249620134274631,-24.30965030334194,-5.467690400018184,3.3799999999973807
-0.4352,0.9771,0.1223,0.2815,0.2761,0.071,-8.6363,2.2575,-21.5688,7.14736451713197,-23.870395805256063,-5.467690400018184,3.3799999999973807
-0.4304,0.9866,0.126,0.2815,0.2761,0.0678,-8.6363,2.2575,-17.8762,7.263230822982663,-23.43478209591375,-5.431570400010825,3.3960000000006403
-0.4293,0.9956,0.1212,0.2846,0.2763,0.0678,-6.4837,1.7062,-17.8762,6.988671171505693,-23.192296252623326,-5.431570400010825,3.3960000000006403
-0.4332,0.9982,0.1211,0.2846,0.2763,0.0678,-5.1188,1.435,-15.1375,6.930533949066897,-23.296646005732217,-5.408610400016588,3.411999999996624
-0.4308,0.9905,0.1219,0.2833,0.2783,0.0786,-5.1975,1.0063,-13.8863,7.00036282636855,-23.343121972747312,-5.408610400016588,3.411999999996624
-0.4308,0.9905,0.1219,0.2833,0.2783,0.0786,-5.1975,1.0063,-13.8863,7.013181271514001,-23.34806472595672,-5.393515900017174,3.426999999996042
-0.4293,0.9878,0.113,0.2853,0.2802,0.0722,-5.4862,0.2887,-12.6175,6.610945411918955,-23.353282935346936,-5.393515900017174,3.426999999996042
-0.4243,0.9862,0.1099,0.2853,0.2802,0.0722,-5.6262,-0.2275,-11.2525,6.401612370286462,-23.180960591634395,-5.397155900017916,3.4429999999993015
-0.4196,0.9805,0.1138,0.2853,0.2802,0.0722,-5.6262,-1.1812,-10.045,6.583094955898461,-23.05708297102524,-5.397155900017916,3.4429999999993015
-0.4124,0.9738,0.108,0.2851,0.2801,0.0658,-5.6262,-1.1812,-10.045,6.371882268237753,-22.868328018563343,-5.414873900017229,3.4579999999987194
-0.4124,0.9738,0.108,0.2851,0.2801,0.0658,-5.3375,-1.6187,-9.4237,6.336319562340019,-22.83532446023416,-5.473147100017323,3.4939999999987776
-0.4117,0.9679,0.109,0.2854,0.2816,0.0762,-5.3637,-2.17,-9.0037,6.409441193703521,-22.89574445282189,-5.473147100017323,3.4939999999987776
-0.408,0.9598,0.106,0.2854,0.2816,0.0762,-5.0838,-2.3012,-8.4,6.322295807806355,-22.9026465866043,-5.473147100017323,3.4939999999987776
-0.4035,0.9617,0.1054,0.2854,0.2816,0.0762,-5.0838,-2.3012,-8.4,6.267224024844944,-22.706805201437845,-5.473147100017323,3.4939999999987776
-0.3925,0.9592,0.1087,0.2864,0.2804,0.0846,-5.2675,-2.2313,-7.4988,6.429467475131249,-22.31881709445908,-5.473147100017323,3.4939999999987776
-0.3896,0.9542,0.1049,0.2864,0.2804,0.0846,-4.7512,-1.9425,-6.5712,6.3047819245019365,-22.199609932246755,-5.502284600016193,3.5089999999981956
-0.3896,0.9542,0.1049,0.2858,0.2812,0.0743,-4.3313,-1.6712,-6.2213,6.280422036117722,-22.153080360975338,-5.502284600016193,3.5089999999981956
-0.388,0.9542,0.1007,0.2858,0.2812,0.0743,-4.3313,-1.6712,-6.2213,6.080222275966151,-22.09543638762635,-5.5290238000094805,3.5249999999941792
-0.3887,0.9556,0.106,0.2858,0.2812,0.0743,-3.9725,-0.7962,-6.5188,6.27058874791267,-22.053260964351367,-5.5290238000094805,3.5249999999941792
-0.3881,0.9501,0.107,0.2874,0.2822,0.0754,-3.2287,-0.7613,-6.4837,6.381012214367772,-22.073174310181145,-5.540443300009037,3.539999999993597
-0.3905,0.9543,0.1051,0.2874,0.2822,0.0754,-3.0625,0.2887,-6.3963,6.313867438203877,-22.10201008217915,-5.540443300009037,3.539999999993597
-0.3905,0.9543,0.1207,0.2866,0.2806,0.0786,-3.0625,0.2887,-6.3963,6.938426374241515,-22.098898002197874,-5.535824100008096,3.555999999996857
-0.3858,0.9573,0.1099,0.2866,0.2806,0.0786,-2.9662,0.6212,-5.985,6.670083206016645,-22.005777529038376,-5.535824100008096,3.555999999996857
-0.3869,0.9546,0.1067,0.2866,0.2814,0.0736,-2.2138,1.155,-5.5563,6.4963930610918394,-22.001256473336348,-5.516189100008297,3.572999999996682
-0.3849,0.9601,0.1111,0.2848,0.2814,0.0736,-2.2138,1.155,-5.1188,6.558391078520672,-21.924589589955907,-5.516189100008297,3.572999999996682
-0.387,0.965,0.1112,0.2848,0.2814,0.0736,-2.1525,1.9162,-5.1188,6.567141663968304,-21.870543878625067,-5.487446100009413,3.5879999999961
-0.3922,0.9714,0.1071,0.2866,0.2821,0.0798,-1.645,2.7475,-5.2762,6.437018424689287,-21.869824043349126,-5.487446100009413,3.5879999999961
-0.3922,0.9714,0.1071,0.2866,0.2821,0.0798,-1.3388,3.2812,-5.3637,6.383138156390806,-21.869452599614316,-5.434946899998717,3.6039999999993597
-0.4008,0.9695,0.1094,0.288,0.2812,0.0828,-1.3388,3.2812,-5.3637,6.403513904818127,-21.919020430122142,-5.434946899998717,3.6039999999993597
-0.4033,0.9612,0.1089,0.288,0.2812,0.0828,-1.5225,3.8412,-5.7575,6.4297945311215035,-22.072354316693794,-5.3773289000289015,3.6189999999915017
-0.4074,0.968,0.1072,0.288,0.2812,0.0828,-1.1025,3.6137,-5.7663,6.4010212964784055,-22.210756277521675,-5.3773289000289015,3.6189999999915017
-0.4031,0.9703,0.1113,0.2867,0.2801,0.0778,-0.175,3.8763,-4.8738,6.453077725496343,-22.29285162378031,-5.315308100016266,3.6349999999947613
-0.4031,0.9703,0.0956,0.2867,0.2801,0.0778,-0.175,3.8763,-4.8738,6.1514954236728245,-22.35691438999664,-5.315308100016266,3.6349999999947613
-0.3983,0.9616,0.1078,0.2859,0.2808,0.0739,0.1925,3.9288,-3.675,6.270334030870921,-22.367522867292816,-5.2524473000034595,3.650999999998021
-0.4039,0.9567,0.1108,0.2859,0.2808,0.0739,2.205,4.5763,-2.4062,6.5213269727635605,-22.657752116671862,-5.2524473000034595,3.650999999998021
-0.4095,0.9567,0.114,0.2859,0.2808,0.0739,3.64,4.4975,-1.2337,6.744471052827902,-22.95650448159326,-5.184984800006077,3.665999999997439
-0.4111,0.9561,0.1146,0.2866,0.2815,0.0789,3.64,4.4975,-1.2337,6.818184039672843,-23.08773232232892,-5.184984800006077,3.665999999997439
-0.4178,0.9654,0.1197,0.2866,0.2815,0.0789,5.285,4.3837,0.84,7.0325185608904555,-23.22163272194675,-5.114845599991789,3.6820000000006985
-0.4178,0.9654,0.1197,0.285,0.281,0.0727,7.945,4.2438,4.4275,7.064370706674879,-23.240867204340372,-5.114845599991789,3.6820000000006985
-0.4283,0.9645,0.12,0.285,0.281,0.0727,10.1763,4.585,10.6663,7.089786810318709,-23.749967182003264,-5.046070600027818,3.6969999999928405
-0.4387,0.9649,0.1177,0.285,0.281,0.0727,10.1763,4.585,10.6663,6.965999294547851,-24.258781452718253,-5.046070600027818,3.6969999999928405
-0.4515,0.9721,0.1202,0.2833,0.2787,0.0766,13.93,4.2525,18.13,7.043551955767579,-24.727397878681167,-4.978030600013956,3.7129999999961
-0.4505,0.9795,0.1176,0.2833,0.2787,0.0766,17.9112,3.8412,25.3225,6.856269220360156,-24.549539442196536,-4.978030600013956,3.7129999999961
-0.4505,0.9795,0.1176,0.2801,0.2714,0.0666,22.3913,2.3537,31.045,6.846648978882896,-24.543919776502374,-4.940371400006284,3.7289999999993597
-0.4441,0.988,0.1171,0.2801,0.2714,0.0666,21.4288,2.3537,31.045,6.763061731300065,-24.067575566052177,-4.940371400006284,3.7289999999993597
-0.4362,0.9753,0.1113,0.2801,0.2665,0.0598,23.555,1.4875,35.9975,6.520343928540746,-23.961151677720494,-4.91805890000715,3.7439999999987776
-0.4054,0.9598,0.1058,0.2752,0.2665,0.0598,26.74,1.26,39.8825,6.298463457947629,-22.80004411538507,-4.91805890000715,3.7439999999987776
-0.3778,0.9558,0.0941,0.2752,0.2665,0.0598,26.74,1.26,46.6025,5.6464569828318245,-21.498141657893886,-4.89789890001221,3.7599999999947613
-0.3651,0.9506,0.0896,0.2678,0.2611,0.0568,31.4738,1.4875,46.3225,5.392459778036054,-20.936613516646407,-4.89789890001221,3.7599999999947613
-0.3651,0.9506,0.0896,0.2678,0.2611,0.0568,36.3037,2.66,55.2125,5.384784620769335,-20.925950135287724,-4.857998900013759,3.7749999999941792
-0.3573,0.9483,0.081,0.2601,0.2525,0.0542,41.8512,3.8675,65.2663,4.893655134999721,-20.581630008496635,-4.857998900013759,3.7749999999941792
-0.3533,0.9546,0.0715,0.2601,0.2525,0.0542,41.8512,3.8675,65.2663,4.297477606148955,-20.262050114224518,-4.796118900001153,3.790999999997439
-0.3375,0.9808,0.0672,0.2601,0.2525,0.0542,46.2,4.3575,73.4125,3.9274055292948984,-18.96390268040103,-4.796118900001153,3.790999999997439
-0.3092,1.0055,0.0569,0.2509,0.2439,0.0455,48.2738,4.2962,78.05,3.252607639516297,-17.089838247610427,-4.727379699987148,3.8070000000006985
-0.3092,1.0055,0.0413,0.2509,0.2439,0.0455,48.4313,4.1562,78.9688,2.3699961324737306,-17.079676653489937,-4.727379699987148,3.8070000000006985
-0.2862,1.0172,0.0431,0.2429,0.2326,0.0466,48.4313,4.1562,78.9688,2.4251197086822196,-15.717250158847873,-4.665036700019808,3.8219999999928405
-0.2499,0.997,0.0303,0.2429,0.2326,0.0466,47.4688,4.375,78.0238,1.7546548220092575,-14.08470875498248,-4.665036700019808,3.8219999999928405
-0.2103,0.9997,0.0219,0.2429,0.2326,0.0466,47.8975,5.9325,78.3213,1.2650183864377134,-11.90296859498588,-4.5701167000004705,3.8379999999961
-0.1934,1.0012,0.0028,0.2314,0.2232,0.0398,47.985,8.4875,81.515,0.18244888471268328,-10.94404507071481,-4.5701167000004705,3.8379999999961
-0.1997,0.9975,-0.012,0.2314,0.2232,0.0398,47.985,8.4875,81.515,-0.6717126216195035,-11.31590578390674,-4.442804200005411,3.852999999995518
-0.1997,0.9975,-0.012,0.2222,0.2122,0.0326,49.2713,11.1475,82.8713,-0.688895770402746,-11.320132285539472,-4.264444199969074,3.8689999999987776
-0.1972,1.0055,-0.0254,0.2222,0.2122,0.0326,50.5575,13.2125,80.6838,-1.4325505333580983,-11.095249039994842,-4.264444199969074,3.8689999999987776
-0.1881,1.0289,-0.0341,0.2222,0.2122,0.0326,49.245,13.4925,76.2562,-1.8890813172263416,-10.363600131365432,-4.048564199925094,3.8850000000020373
-0.1743,1.033,-0.0424,0.2099,0.2053,0.0177,49.245,13.4925,76.2562,-2.3413678461853453,-9.57910083307134,-4.048564199925094,3.8850000000020373
-0.1565,1.0189,-0.0491,0.2099,0.2053,0.0177,45.955,12.5825,70.6125,-2.7501523927045386,-8.733365703598917,-3.8598267000239677,3.8999999999941792
-0.1565,1.0189,-0.0508,0.1996,0.1994,0.0232,42.6125,11.0162,64.645,-2.851924706679369,-8.721717002129372,-3.8598267000239677,3.8999999999941792
-0.1449,0.9831,-0.0508,0.1996,0.1994,0.0232,41.9212,10.4125,58.1787,-2.9556002270987887,-8.378881640827572,-3.693226699990027,3.915999999997439
-0.1156,0.9791,-0.061,0.1917,0.1942,0.0126,41.9212,10.4125,58.1787,-3.5510851261610457,-6.74633539495675,-3.693226699990027,3.915999999997439
-0.0902,0.999,-0.065,0.1917,0.1942,0.0126,42.35,10.3337,55.4925,-3.7188145891323625,-5.174217827564566,-3.538221199996042,3.930999999996857
-0.0824,0.9999,-0.0784,0.1917,0.1942,0.0126,41.1775,11.2087,54.5125,-4.465458002199482,-4.704478733780479,-3.538221199996042,3.930999999996857
-0.078,0.9961,-0.0944,0.1852,0.1889,0.0082,41.1775,11.2087,53.13,-5.3916393378711955,-4.461682759268987,-3.3588819999595056,3.9470000000001164
-0.078,0.9961,-0.0944,0.1852,0.1889,0.0082,41.6587,11.5675,53.13,-5.413220535957754,-4.457609920429572,-3.3588819999595056,3.9470000000001164
-0.0652,0.9988,-0.1003,0.1757,0.1834,0.0031,42.805,11.7075,52.64,-5.7272370757237345,-3.7287753746149432,-3.1715619999213436,3.963000000003376
-0.0609,0.9927,-0.1124,0.1757,0.1834,0.0031,41.72,11.2437,52.3075,-6.443037330247219,-3.4924283769076276,-3.1715619999213436,3.963000000003376
-0.0544,0.9762,-0.1255,0.1757,0.1834,0.0031,41.72,11.2437,52.3075,-7.305440603539405,-3.1691925522220905,-2.823007299973047,3.9939999999987776
-0.03,0.9708,-0.1261,0.1678,0.1784,-0.0122,40.95,10.36,51.695,-7.398641039458705,-1.7795776343022567,-2.6676072999790774,4.008999999998196
-0.03,0.9708,-0.1282,0.1678,0.1784,-0.0122,42.07,11.2,51.7562,-7.519894261177362,-1.755211652891746,-2.6676072999790774,4.008999999998196
-0.0126,0.9744,-0.1282,0.1583,0.174,-0.0106,42.2625,12.7837,52.6225,-7.495809169772317,-0.7517918230057298,-2.4630680999374075,4.025000000001455
-0.0129,0.9769,-0.1479,0.1583,0.174,-0.0106,42.2625,12.7837,52.6225,-8.583752259304186,-0.7480893542252582,-2.4630680999374075,4.025000000001455
-0.0047,0.9881,-0.1538,0.1583,0.174,-0.0106,42.28,13.02,52.78,-8.841240511067003,-0.27736790217794643,-2.4630680999374075,4.025000000001455
0.0099,0.9989,-0.1623,0.1501,0.1721,-0.0213,42.805,12.7225,52.0537,-9.220002537508144,0.5461715448211767,-2.4630680999374075,4.025000000001455
0.0185,1.0034,-0.1767,0.1501,0.1721,-0.0213,42.735,13.3875,50.0588,-9.97020442609235,1.0315189105884424,-2.4630680999374075,4.025000000001455
0.0185,1.0034,-0.1767,0.1431,0.1684,-0.0254,42.735,13.3875,50.0588,-9.987068591797044,1.040102710592285,-2.248868099991176,4.040999999997439
0.0315,1.005,-0.1838,0.1431,0.1684,-0.0254,42.2275,12.8625,48.7287,-10.355463452444399,1.7528315599586783,-2.248868099991176,4.040999999997439
0.0411,0.9977,-0.1866,0.1431,0.1684,-0.0254,42.2013,12.7312,47.1712,-10.588228707348618,2.3082409351147737,-2.057900099998587,4.055999999996857
0.0389,0.9992,-0.1989,0.1344,0.1641,-0.0356,41.9125,13.4488,45.2113,-11.242753151637347,2.188959379828173,-2.057900099998587,4.055999999996857
0.0424,1.007,-0.2036,0.1344,0.1641,-0.0356,41.9125,13.4488,45.2113,-11.42594779382541,2.3598940197820792,-1.8427192999547488,4.072000000000116
0.0424,1.007,-0.2048,0.1274,0.1614,-0.0399,40.5387,13.2475,43.5313,-11.494169851847234,2.36266156606049,-1.8427192999547488,4.072000000000116
0.0523,1.0113,-0.2048,0.1274,0.1614,-0.0399,38.7363,12.53,41.7725,-11.449370302714838,2.8904814820167406,-1.65476930005321,4.086999999992258
0.0551,1.0154,-0.213,0.1189,0.1586,-0.0392,34.2562,11.5588,40.1888,-11.836085305619783,3.0368289422029133,-1.65476930005321,4.086999999992258
0.0547,1.0106,-0.2176,0.1189,0.1586,-0.0392,35.7438,11.5588,40.1888,-12.142867560096144,3.0290697992399056,-1.4698285000155327,4.102999999995518
0.0634,1.0063,-0.2233,0.1189,0.1586,-0.0392,32.6813,9.8,37.345,-12.50062229150642,3.5084619571100033,-1.4698285000155327,4.102999999995518
0.0803,1.0056,-0.2255,0.113,0.1574,-0.0442,31.1675,7.63,33.635,-12.634952404241982,4.431755859979717,-1.3477485000461773,4.118999999991502
0.0803,1.0056,-0.2255,0.113,0.1574,-0.0442,31.1675,7.63,29.155,-12.639033219590681,4.454696100765188,-1.3477485000461773,4.118999999991502
0.088,1.0149,-0.2244,0.1079,0.1571,-0.0467,29.5837,7.7787,30.6513,-12.473286454806427,4.828949236069465,-1.2310679999941077,4.133999999998196
0.1003,1.0074,-0.2322,0.1079,0.1571,-0.0467,27.6938,8.2688,28.7175,-12.962464201267714,5.521216282419298,-1.2310679999941077,4.133999999998196
0.1072,1.0077,-0.2296,0.1079,0.1571,-0.0467,26.005,8.0413,26.495,-12.84004809908053,5.909549557778825,-1.102407199967896,4.150000000001455
0.111,1.0053,-0.2284,0.1027,0.1549,-0.0591,26.005,8.0413,26.495,-12.801518342727922,6.138260494272934,-1.102407199967896,4.150000000001455
0.111,1.0053,-0.2319,0.1027,0.1549,-0.0591,24.7275,9.2925,24.92,-12.982517455295461,6.140714851613703,-0.9630197000409167,4.164999999993597
0.1053,1.002,-0.2319,0.0973,0.1538,-0.0582,22.3038,9.3625,24.115,-13.028930888903053,5.855417534502044,-0.8132197000103984,4.180999999996857
0.101,0.9893,-0.2405,0.0973,0.1538,-0.0582,20.93,8.6363,23.17,-13.635637437675054,5.6717912827984005,-0.8132197000103984,4.180999999996857
0.106,0.9845,-0.2451,0.0973,0.1538,-0.0582,20.93,8.6363,23.17,-13.964898580489686,5.9547302957401635,-0.6750389000450847,4.1969999999928405
0.1202,0.9771,-0.2415,0.0918,0.1529,-0.0671,20.8687,7.8663,21.8312,-13.886612417673133,6.779995002914329,-0.6750389000450847,4.1969999999928405
0.1266,0.9711,-0.2474,0.0918,0.1529,-0.0671,20.8162,7.98,20.7375,-14.274782703687713,7.1847311122651565,-0.5553388999916675,4.211999999999534
0.1266,0.9711,-0.2474,0.0889,0.1511,-0.0689,21.0963,8.7413,20.7375,-14.291993908564852,7.199599664220574,-0.5553388999916675,4.211999999999534
0.123,0.9694,-0.2506,0.0889,0.1511,-0.0689,21.0963,8.7413,20.7375,-14.485391962060874,7.0105799826931054,-0.4154780999631741,4.228000000002794
0.1286,0.9659,-0.2487,0.0889,0.1511,-0.0689,21.3762,8.2338,21.0788,-14.44090485038028,7.334681282934022,-0.4154780999631741,4.228000000002794
0.1311,0.9653,-0.2536,0.0848,0.1514,-0.0736,20.5713,8.4613,22.0675,-14.707396138176286,7.478055693794749,-0.28855860002966327,4.242999999994936
0.124,0.9656,-0.2574,0.0848,0.1514,-0.0736,19.6437,7.7962,22.3038,-14.916016928212752,7.087422537801941,-0.28855860002966327,4.242999999994936
0.124,0.9656,-0.2564,0.0804,0.1508,-0.0718,19.6437,7.7962,22.3038,-14.87294415889639,7.075592167815994,-0.16381940000425055,4.258999999998196
0.1279,0.9659,-0.2564,0.0804,0.1508,-0.0718,19.5387,6.3963,22.1112,-14.866724461080253,7.285625179519683,-0.16381940000425055,4.258999999998196
0.1402,0.9704,-0.2578,0.0747,0.1507,-0.0735,19.18,5.3113,20.7375,-14.877223394950976,7.924619443337053,-0.07883860002558248,4.274999999994179
0.1446,0.9709,-0.2621,0.0747,0.1507,-0.0735,19.18,5.1625,19.6262,-15.096221568274526,8.17242650047698,-0.07883860002558248,4.274999999994179
0.1527,0.9689,-0.2633,0.0747,0.1507,-0.0735,18.2087,5.1625,19.6262,-15.197713793534184,8.629404912582425,-0.0014010999910253202,4.290000000000873
0.1631,0.9679,-0.2642,0.0714,0.1483,-0.075,17.745,4.2875,18.8475,-15.264053286958715,9.209496066122579,-0.0014010999910253202,4.290000000000873
0.1631,0.9679,-0.2642,0.0714,0.1483,-0.075,17.29,4.0075,17.5875,-15.267451793366595,9.232347287802481,0.06271889999287925,4.305999999996857
0.1674,0.9666,-0.2663,0.0678,0.1498,-0.0789,17.29,4.0075,17.5875,-15.395857378915565,9.468646544413442,0.06271889999287925,4.305999999996857
0.1688,0.9594,-0.2683,0.0678,0.1498,-0.0789,16.2575,5.1975,17.92,-15.611197558841665,9.610906481824724,0.1406813999898539,4.320999999996275
0.1677,0.9536,-0.2771,0.0678,0.1498,-0.0789,15.54,5.3725,18.165,-16.16874288601388,9.586400862365135,0.1406813999898539,4.320999999996275
0.1715,0.9514,-0.2741,0.0618,0.1474,-0.0901,15.1637,4.69,18.095,-16.07751605326245,9.81720877425496,0.21572140000514156,4.336999999999534
0.1715,0.9514,-0.2797,0.0618,0.1474,-0.0901,15.1637,4.69,18.095,-16.36464990777187,9.812012063636237,0.21572140000514156,4.336999999999534
0.1732,0.9455,-0.2797,0.0602,0.1478,-0.0834,14.5338,4.445,17.955,-16.47234638437201,9.956685756578663,0.28684139998728897,4.352999999995518
0.1702,0.9395,-0.2901,0.0602,0.1478,-0.0834,15.1637,3.885,17.1325,-17.119068708303335,9.826136563769715,0.28684139998728897,4.352999999995518
0.1776,0.9377,-0.2866,0.0602,0.1478,-0.0834,16.7388,2.4675,16.065,-17.00201792807059,10.247043607696144,0.3238538999858527,4.367999999994936
0.1915,0.9287,-0.2931,0.057,0.1469,-0.0902,16.7388,2.4675,16.065,-17.48803396358021,11.085855437789691,0.3238538999858527,4.367999999994936
0.2027,0.9234,-0.2873,0.057,0.1469,-0.0902,19.2938,1.925,15.4788,-17.29239063053875,11.80379424115889,0.35465389997812125,4.38399999999092
0.2027,0.9234,-0.2873,0.0527,0.1475,-0.0926,21.9188,2.5025,16.3713,-17.283042216694916,11.836544813838909,0.35465389997812125,4.38399999999092
0.2073,0.9162,-0.2882,0.0527,0.1475,-0.0926,23.4063,3.71,19.3288,-17.454403386875992,12.166272303592555,0.4103039000029555,4.3989999999976135
0.1962,0.922,-0.2969,0.0527,0.1475,-0.0926,23.4063,3.71,19.3288,-17.83375534612122,11.478361902220414,0.4103039000029555,4.3989999999976135
0.1887,0.931,-0.2989,0.048,0.1489,-0.0907,24.0275,4.7688,21.9538,-17.800698190665333,10.942386193952416,0.48660470001850004,4.415000000000873
0.182,0.9297,-0.3055,0.048,0.1489,-0.0907,23.1262,4.1038,23.7913,-18.1748835418751,10.548863811802494,0.48660470001850004,4.415000000000873
0.182,0.9297,-0.3102,0.0428,0.1463,-0.1003,22.5313,1.785,24.4562,-18.44019108696793,10.520831107350235,0.5151647000113309,4.430999999996857
0.1914,0.9323,-0.3102,0.0428,0.1463,-0.1003,22.5313,1.785,24.4562,-18.405107310880666,11.006877673975737,0.5151647000113309,4.430999999996857
0.2042,0.9333,-0.3072,0.0392,0.147,-0.0978,23.5987,0.4988,23.5112,-18.226532682365736,11.715908919904146,0.5226467000110405,4.445999999996275
0.2098,0.9226,-0.3134,0.0392,0.147,-0.0978,25.13,0.6388,23.3363,-18.74229325866344,12.136645569445351,0.5226467000110405,4.445999999996275
0.2194,0.9264,-0.315,0.0392,0.147,-0.0978,25.13,0.6388,23.7563,-18.77798463645319,12.621429810467102,0.5328675000084749,4.461999999992258
0.2195,0.9232,-0.3204,0.0345,0.1466,-0.0989,26.0662,0.6913,23.7563,-19.126524230435432,12.658252076516137,0.5432370000131024,4.476999999998952
0.2195,0.9232,-0.3204,0.0345,0.1466,-0.0989,25.3575,1.4875,24.8762,-19.139042122086792,12.65947124130182,0.5432370000131024,4.476999999998952
0.2212,0.926,-0.3303,0.029,0.1465,-0.1058,24.2813,1.4262,25.4188,-19.612184795977594,12.67931828723516,0.5660562000177513,4.493000000002212
0.2255,0.9223,-0.3297,0.029,0.1465,-0.1058,24.2813,1.4262,25.4188,-19.66849480124118,12.956274135530615,0.5660562000177513,4.493000000002212
0.227,0.9116,-0.3388,0.029,0.1465,-0.1058,23.5112,0.8662,26.11,-20.3593218137224,13.132797692210085,0.5799154000142723,4.508999999998196
0.2392,0.9076,-0.3457,0.0245,0.1467,-0.112,23.7038,1.015,25.8825,-20.832231382709935,13.814334319595464,0.5819454000073008,4.510999999991327
0.2392,0.8919,-0.3374,0.0245,0.1467,-0.112,25.6375,1.155,25.3838,-20.72535638977274,14.073296990642378,0.5819454000073008,4.510999999991327
0.253,0.9043,-0.3374,0.0195,0.1446,-0.1149,25.6375,1.155,25.3838,-20.4705179172007,14.668842050267635,0.5992704000150322,4.525999999998021
0.2553,0.8933,-0.3463,0.0195,0.1446,-0.1149,27.0287,3.1412,26.1362,-21.16452148159687,14.913257907406019,0.5992704000150322,4.525999999998021
0.253,0.8907,-0.3526,0.0195,0.1446,-0.1149,28.0,4.1737,28.525,-21.582509601918687,14.797695107500967,0.6660496000286369,4.542000000001281
0.2533,0.8884,-0.3551,0.013,0.1454,-0.1127,29.085,3.4475,31.4212,-21.78032241646918,14.828195016835975,0.6660496000286369,4.542000000001281
0.261,0.8918,-0.3597,0.013,0.1454,-0.1127,29.085,3.4475,31.4212,-21.960237919839688,15.175965321119293,0.7177621000015463,4.5569999999934225
0.261,0.8918,-0.3597,0.0058,0.1455,-0.1223,29.2075,2.59,33.3725,-21.96607348159245,15.185152364576354,0.7177621000015463,4.5569999999934225
0.2717,0.8888,-0.36,0.0058,0.1455,-0.1223,30.205,1.9863,34.5713,-22.047316573375568,15.803771984264861,0.7495429000080209,4.572999999996682
0.2897,0.8836,-0.3639,0.0058,0.1455,-0.1223,30.94,2.6075,35.4375,-22.373431660271788,16.839894171772748,0.7912628999975484,4.588999999992666
0.2977,0.8766,-0.3777,0.0006,0.148,-0.1298,30.94,2.6075,35.4375,-23.281083330936713,17.310599303372964,0.7912628999975484,4.588999999992666
0.305,0.8686,-0.3841,0.0006,0.148,-0.1298,32.235,3.4825,36.0062,-23.838398539788297,17.79238443768267,0.8435004000208598,4.60399999999936
0.305,0.8584,-0.384,-0.005,0.1484,-0.1386,33.3288,4.1737,37.5812,-24.093575757550376,17.96584336681745,0.8435004000208598,4.60399999999936
0.3098,0.8584,-0.384,-0.005,0.1484,-0.1386,34.23,4.3488,39.1388,-24.100855510392783,18.228214178673685,0.9130812000033935,4.619999999995343
0.3145,0.8558,-0.3919,-0.0116,0.149,-0.1422,34.23,4.3488,39.1388,-24.59065609245495,18.470332550913866,0.9130812000033935,4.619999999995343
0.3162,0.8567,-0.4002,-0.0116,0.149,-0.1422,33.8275,4.515,39.8037,-25.026615123988822,18.489658436494064,0.9808062000007655,4.634999999994761
0.3278,0.8591,-0.4003,-0.0116,0.149,-0.1422,33.1275,4.1213,39.7687,-24.98453656914853,19.065711003791208,0.9808062000007655,4.634999999994761
0.344,0.8543,-0.4036,-0.0218,0.1498,-0.1395,33.1275,4.1213,39.2612,-25.27893284628648,19.985158625863626,1.0467470000141994,4.650999999998021
0.344,0.8543,-0.4036,-0.0218,0.1498,-0.1395,32.6637,3.71,39.2612,-25.287370361056215,20.00525819208771,1.0467470000141994,4.650999999998021
0.3454,0.8441,-0.4161,-0.0283,0.1506,-0.153,31.5438,3.1937,38.3512,-26.21239785369985,20.150951234138034,1.0978462000013725,4.666999999994005
0.3547,0.8395,-0.4219,-0.0283,0.1506,-0.153,30.485,3.1063,36.8025,-26.667742639311008,20.670241404923694,1.0978462000013725,4.666999999994005
0.365,0.837,-0.4322,-0.0283,0.1506,-0.153,30.485,3.1063,36.8025,-27.29044591790065,21.168230696473444,1.1444407000221657,4.6820000000006985
0.3737,0.8315,-0.4347,-0.034,0.1509,-0.1505,28.875,2.5375,35.21,-27.590012765456656,21.703492493241104,1.1444407000221657,4.6820000000006985
0.3737,0.8235,-0.4414,-0.034,0.1509,-0.1505,28.315,1.5925,33.6437,-28.17151750046579,21.797169065519885,1.1699207000157696,4.697999999996682
0.3803,0.8235,-0.4414,-0.0391,0.1528,-0.1521,28.6563,0.3325,31.0538,-28.19086657438285,22.138287150971248,1.1699207000157696,4.697999999996682
0.4021,0.8171,-0.4443,-0.0391,0.1528,-0.1521,28.6563,0.3325,31.0538,-28.523912398671854,23.347043021849828,1.1749082000155762,4.7129999999961
0.4015,0.8176,-0.4441,-0.0391,0.1528,-0.1521,29.3738,0.5163,28.91,-28.510166111326907,23.341435926100214,1.1749082000155762,4.7129999999961
0.3956,0.8142,-0.4425,-0.044,0.154,-0.1559,28.5075,0.4812,28.1225,-28.522690530355476,23.124211515714133,1.1826074000171447,4.72899999999936
0.3907,0.8114,-0.4484,-0.044,0.154,-0.1559,25.6112,0.455,27.0637,-28.91139576136351,22.860684092655756,1.1826074000171447,4.72899999999936
0.3907,0.8114,-0.4484,-0.0493,0.1555,-0.1546,25.6112,0.455,27.0637,-28.925602216906697,22.852828658645468,1.1903424000137548,4.745999999991909
0.3976,0.8115,-0.452,-0.0493,0.1555,-0.1546,23.135,-0.6037,25.4275,-29.109798692584675,23.16273242703073,1.1903424000137548,4.745999999991909
0.4078,0.8103,-0.4509,-0.0493,0.1555,-0.1546,21.1663,-1.4787,22.6712,-29.094892912969993,23.718632158685345,1.1681619000038566,4.760999999998603
0.416,0.7996,-0.4638,-0.055,0.1534,-0.1647,19.04,-1.4262,20.3,-30.06636004247126,24.21026982326071,1.1681619000038566,4.760999999998603
0.4257,0.7918,-0.4693,-0.055,0.1534,-0.1647,19.04,-1.4262,20.3,-30.626905110930196,24.797832000539245,1.1453427000095846,4.776999999994587
0.4257,0.7826,-0.4709,-0.0567,0.1563,-0.1693,17.9988,-1.6625,18.34,-31.015130755783762,24.981843789191092,1.1453427000095846,4.776999999994587
0.4331,0.7826,-0.4709,-0.0567,0.1563,-0.1693,16.9837,-1.3038,17.115,-31.034732161471133,25.35331095712775,1.1257857000103435,4.791999999994005
0.4301,0.7799,-0.4779,-0.0598,0.1574,-0.1763,16.2313,-1.1113,15.8813,-31.472947871402432,25.191473848423204,1.1257857000103435,4.791999999994005
0.428,0.7774,-0.481,-0.0598,0.1574,-0.1763,16.2313,-1.1113,15.8813,-31.731083193760192,25.092806419628122,1.1080049000067211,4.807999999997264
0.4331,0.7718,-0.4784,-0.0598,0.1574,-0.1763,14.84,-1.2687,14.9975,-31.788978441925394,25.480347155726825,1.1080049000067211,4.807999999997264
0.4316,0.7796,-0.4779,-0.0636,0.159,-0.1735,13.8337,-1.6275,14.3062,-31.526568388626444,25.277245398638204,1.0819649000132576,4.823999999993248
0.4316,0.7796,-0.4779,-0.0636,0.159,-0.1735,13.8337,-1.6275,12.6438,-31.509729603530396,25.26751893522925,1.0819649000132576,4.823999999993248
0.4349,0.7801,-0.4767,-0.065,0.16,-0.1743,12.565,-1.435,12.6438,-31.433783933417143,25.431652690146162,1.060439900003652,4.838999999999942
0.4367,0.772,-0.485,-0.065,0.16,-0.1743,10.9987,-1.2163,10.99,-32.083326955072614,25.5847451694905,1.060439900003652,4.838999999999942
0.4383,0.7717,-0.4852,-0.065,0.16,-0.1743,9.7563,-1.7237,8.8988,-32.15268731780012,25.673238325390145,1.032860700010575,4.8549999999959255
0.447,0.7638,-0.4845,-0.068,0.1578,-0.1665,9.7563,-1.7237,8.8988,-32.36765404759142,26.257607442244332,1.032860700010575,4.8549999999959255
0.4626,0.7577,-0.485,-0.068,0.1578,-0.1665,8.8375,-2.1525,6.8863,-32.598977644200474,27.14130191656848,1.000573200011828,4.869999999995343
0.4559,0.7577,-0.485,-0.0699,0.1605,-0.1743,9.5813,-1.2075,5.1975,-32.620976043628126,26.897106142158158,1.000573200011828,4.869999999995343
0.4544,0.7471,-0.4841,-0.0699,0.1605,-0.1743,9.8875,0.1575,5.2238,-32.914518842936126,27.02879957854783,1.0030932000123414,4.885999999998603
0.4516,0.7413,-0.4845,-0.0699,0.1605,-0.1743,9.8875,0.1575,5.2238,-33.14611787020242,27.019858057089643,1.0030932000123414,4.885999999998603
0.4429,0.7415,-0.4854,-0.0734,0.1611,-0.1813,9.555,0.7875,5.7925,-33.203912406777846,26.591458637671334,1.0156932000091785,4.901999999994587
0.4347,0.7415,-0.4839,-0.0734,0.1611,-0.1813,9.1788,1.33,6.0725,-33.13522720612233,26.18396542493156,1.0356432000180813,4.917000000001281
0.4347,0.7415,-0.4839,-0.0728,0.1616,-0.1738,8.5312,1.085,5.5825,-33.128982270762975,26.151625284035937,1.0356432000180813,4.917000000001281
0.4341,0.7372,-0.4866,-0.0728,0.1616,-0.1738,8.5312,1.085,5.5825,-33.39838313013815,26.16991592729168,1.0530032000137235,4.932999999997264
0.4419,0.7358,-0.4824,-0.0728,0.1616,-0.1745,8.365,-0.2275,4.9612,-33.2640994533425,26.624673930799172,1.0530032000137235,4.932999999997264
0.4534,0.7397,-0.4811,-0.0745,0.1618,-0.1745,8.1287,0.2537,5.11,-33.06262047722444,27.146281651061436,1.0568087000135757,4.947999999996682
0.4588,0.7433,-0.4892,-0.0745,0.1618,-0.1745,8.9338,1.4875,4.1562,-33.3237882550035,27.263454480371912,1.0568087000135757,4.947999999996682
0.4613,0.7434,-0.4876,-0.074,0.1636,-0.1739,8.9338,1.4875,4.1562,-33.26695050690178,27.408512985238257,1.0806087000076015,4.963999999992666
0.4613,0.7434,-0.4876,-0.074,0.1636,-0.1739,9.8175,2.24,4.2613,-33.261588528256006,27.422160586265047,1.0806087000076015,4.963999999992666
0.4554,0.7426,-0.4858,-0.0783,0.1638,-0.1766,9.7212,3.2462,4.4275,-33.198275990962976,27.189955104804675,1.1325479000181828,4.9799999999959255
0.4479,0.7397,-0.4901,-0.0783,0.1638,-0.1766,9.6512,3.2375,4.6988,-33.498256413164384,26.81976271177184,1.1325479000181828,4.9799999999959255
0.4434,0.743,-0.4863,-0.0783,0.1638,-0.1766,9.6512,3.2375,4.6988,-33.230810982506405,26.559717346120287,1.1811104000398542,4.995000000002619
0.4402,0.7409,-0.4831,-0.0798,0.163,-0.1727,8.9513,2.8,5.46,-33.11780094925202,26.467466143164792,1.1811104000398542,4.995000000002619
0.4402,0.7409,-0.4831,-0.0798,0.163,-0.1727,8.5312,2.66,5.4163,-33.10728499620327,26.459744735550043,1.2236704000098169,5.010999999991327
0.4412,0.7335,-0.4876,-0.082,0.1646,-0.1829,8.5312,2.66,5.0575,-33.56497734987427,26.594377963402987,1.2236704000098169,5.010999999991327
0.438,0.7311,-0.4872,-0.082,0.1646,-0.1829,8.89,2.345,5.0575,-33.66847837013264,26.506516727884637,1.258845400025514,5.025999999998021
0.4391,0.7318,-0.4879,-0.082,0.1646,-0.1829,9.7388,2.1,4.6988,-33.689837864158704,26.528187486659185,1.258845400025514,5.025999999998021
0.4399,0.7324,-0.4914,-0.0842,0.1632,-0.1768,9.1962,1.295,5.5738,-33.84393845371813,26.510086319329503,1.279565400020313,5.041999999994005
0.4444,0.7319,-0.4943,-0.0842,0.1632,-0.1768,9.1962,1.295,5.5738,-34.01639475360346,26.69402136578072,1.279565400020313,5.041999999994005
0.4444,0.7319,-0.4943,-0.085,0.1668,-0.1831,8.575,0.665,6.0725,-34.03205439707032,26.70933130384899,1.2902054000224805,5.057999999997264
0.4522,0.7336,-0.4898,-0.085,0.1668,-0.1831,8.2513,0.1225,6.6588,-33.75993261484034,27.108999431146945,1.2902054000224805,5.057999999997264
0.454,0.7287,-0.4973,-0.085,0.1668,-0.1831,7.7525,-0.4375,6.825,-34.25346565913878,27.221703343496284,1.2836429000227352,5.072999999996682
0.4559,0.7235,-0.5,-0.0858,0.1657,-0.1856,7.7525,-0.4375,6.825,-34.60627444517645,27.388053178421554,1.2836429000227352,5.072999999996682
0.4757,0.7145,-0.4926,-0.0858,0.1657,-0.1856,6.8338,-1.4,6.7025,-34.58630149356416,28.627046173095447,1.261242900028358,5.088999999992666
0.4757,0.7145,-0.4926,-0.089,0.1686,-0.1842,7.3763,-1.19,6.6675,-34.58395642749604,28.720988771034484,1.261242900028358,5.088999999992666
0.4747,0.7212,-0.5022,-0.089,0.1686,-0.1842,7.3938,-0.2625,6.7987,-34.82180951411738,28.40180838315093,1.2573054000266009,5.10399999999936
0.4731,0.7161,-0.5039,-0.089,0.1685,-0.1923,7.3938,-0.2625,6.7987,-35.09897039700758,28.38387694616683,1.2573054000266009,5.10399999999936
0.475,0.7141,-0.5032,-0.0922,0.1685,-0.1923,7.4113,0.3675,6.8075,-35.16308830893272,28.523226317978725,1.2631854000251248,5.119999999995343
0.4677,0.7098,-0.504,-0.0922,0.1685,-0.1923,7.455,0.4812,6.7725,-35.35376645810427,28.267986541028122,1.2631854000251248,5.119999999995343
0.4685,0.71,-0.507,-0.0922,0.1686,-0.1835,7.7,0.0787,6.7463,-35.51138973378962,28.238255313610374,1.2644446000253813,5.135999999998603
0.4685,0.71,-0.507,-0.0922,0.1686,-0.1835,7.7,0.0787,6.7463,-35.52806950021905,28.236008012836148,1.2644446000253813,5.135999999998603
0.4778,0.7087,-0.5051,-0.092,0.1699,-0.1885,8.5662,0.175,6.3088,-35.482837201122535,28.72613517715564,1.2670696000252795,5.150999999998021
0.4761,0.7055,-0.5067,-0.092,0.1699,-0.1885,8.8988,0.77,6.0287,-35.66731826535824,28.727880632629567,1.2670696000252795,5.150999999998021
0.4735,0.7017,-0.5078,-0.092,0.1699,-0.1885,8.6275,0.7613,6.3612,-35.87050460877112,28.668739339878098,1.2792504000222218,5.166999999994005
0.4779,0.6978,-0.5034,-0.0964,0.1702,-0.2034,8.6275,0.7613,6.3612,-35.813176018018666,29.019139804852216,1.2792504000222218,5.166999999994005
0.4779,0.6978,-0.5034,-0.0964,0.1702,-0.2034,8.1112,0.385,7.14,-35.80768252917735,29.04655134286013,1.285025400024799,5.1820000000006985
0.4746,0.7022,-0.5091,-0.0976,0.1706,-0.1916,7.5163,0.9275,7.4288,-35.927843039529435,28.713054019104348,1.285025400024799,5.1820000000006985
0.475,0.7043,-0.5101,-0.0976,0.1706,-0.1916,7.5163,0.9275,6.825,-35.91594657633418,28.649216644250064,1.2998654000210739,5.197999999996682
0.4793,0.7002,-0.5108,-0.0976,0.1706,-0.1916,8.0937,1.295,6.825,-36.0911579072467,28.920831900582485,1.2998654000210739,5.197999999996682
0.4774,0.6961,-0.513,-0.1001,0.1702,-0.1834,7.63,1.47,6.7463,-36.35710751539666,28.904117647459344,1.3233854000258656,5.213999999999942
0.4805,0.6955,-0.5142,-0.1001,0.1702,-0.1834,7.0963,1.7325,6.2562,-36.46292765826598,29.041744782058778,1.3233854000258656,5.213999999999942
0.4805,0.6955,-0.5142,-0.1016,0.172,-0.1953,7.0963,1.7325,6.2562,-36.47488977957038,29.05254783666384,1.3493729000122516,5.228999999992084
0.4896,0.6906,-0.5139,-0.1016,0.172,-0.1953,7.2625,1.5313,5.8275,-36.634344896885324,29.58246393136425,1.3493729000122516,5.228999999992084
0.4901,0.69,-0.514,-0.1016,0.172,-0.1953,7.77,1.6363,5.5037,-36.67828349851764,29.659508810487235,1.3755537000175853,5.244999999995343
0.4917,0.6862,-0.5156,-0.1054,0.1731,-0.1944,7.7787,1.68,5.6875,-36.89519678943883,29.7946990599965,1.3755537000175853,5.244999999995343
0.4948,0.6877,-0.5176,-0.1054,0.1731,-0.1944,7.7787,1.68,5.6875,-36.95954127204286,29.885072748213197,1.400753700028831,5.260000000002037
0.4948,0.6877,-0.5176,-0.1045,0.1722,-0.193,7.3587,1.645,5.2762,-36.966257488824,29.892474860124995,1.4270737000222242,5.275999999998021
0.4917,0.6897,-0.5181,-0.1045,0.1722,-0.193,6.8775,1.3388,4.9788,-36.91982305556573,29.701698566998196,1.4270737000222242,5.275999999998021
0.4957,0.685,-0.5188,-0.1045,0.173,-0.1944,5.8362,1.26,3.8675,-37.11034979762717,29.952608532157225,1.4472337000171636,5.291999999994005
0.4986,0.6843,-0.5181,-0.1084,0.173,-0.1944,5.8362,1.26,3.8675,-37.12761825811539,30.13338949108579,1.4472337000171636,5.291999999994005
0.5001,0.6818,-0.5179,-0.1084,0.173,-0.1944,5.8187,0.6037,3.1762,-37.208276187673185,30.27288693104772,1.4568929000191313,5.307999999997264
0.5012,0.6755,-0.5154,-0.1072,0.1746,-0.1988,6.1687,0.9013,2.7037,-37.32623391027444,30.50679654562696,1.4586955000194985,5.309999999997672
0.5012,0.6755,-0.5154,-0.1072,0.1746,-0.1988,6.79,0.8838,1.995,-37.34128670334299,30.531997121024315,1.4586955000194985,5.309999999997672
0.5043,0.6748,-0.5241,-0.1094,0.175,-0.2013,6.79,0.8838,1.995,-37.777698632159236,30.547986630422677,1.472836300015949,5.325999999993655
0.5067,0.6778,-0.5162,-0.1094,0.175,-0.2013,7.1137,1.0938,2.1613,-37.3470013537595,30.71886933210066,1.472836300015949,5.325999999993655
0.4999,0.6745,-0.518,-0.1094,0.175,-0.2013,6.72,0.7262,2.3625,-37.50258043876834,30.477849650436294,1.48372930002081,5.341000000000349
0.4992,0.6733,-0.5187,-0.1114,0.1749,-0.1968,7.2013,0.4812,2.3012,-37.5980928242786,30.433230559563007,1.48372930002081,5.341000000000349
0.4992,0.6733,-0.5187,-0.1114,0.1749,-0.1968,7.2013,0.4812,2.3012,-37.60876308628394,30.428151348567315,1.4914285000223786,5.357000000003609
0.4986,0.6732,-0.5153,-0.1122,0.1762,-0.1997,7.595,0.7437,2.695,-37.4510932692417,30.457238141576312,1.4914285000223786,5.357000000003609
0.5009,0.6715,-0.5174,-0.1122,0.1762,-0.1997,7.6125,1.33,2.9838,-37.59726704196755,30.565422599542202,1.51270850000736,5.372999999992317
0.4898,0.6669,-0.5251,-0.1122,0.1762,-0.1997,7.6125,1.33,2.94,-38.14990516934299,30.048092437319955,1.5326585000162627,5.3879999999990105
0.5048,0.6591,-0.5126,-0.1126,0.1756,-0.1994,7.6825,0.6037,2.94,-37.902515840628915,31.038493000305948,1.5326585000162627,5.3879999999990105
0.5116,0.6672,-0.5131,-0.1126,0.1756,-0.1994,7.805,0.1838,4.2613,-37.59722231096274,31.268888170953748,1.5355993000155246,5.403999999994994
0.5116,0.6672,-0.5131,-0.1158,0.1772,-0.2016,8.8287,1.9162,4.2962,-37.5649096073257,31.290337875861965,1.5355993000155246,5.403999999994994
0.51,0.6674,-0.5185,-0.1158,0.1772,-0.2016,8.8287,1.9162,4.2962,-37.8171378303635,31.125671966981667,1.5643423000144092,5.418999999994412
0.511,0.6606,-0.5119,-0.1158,0.1772,-0.2016,8.8725,2.52,4.5062,-37.77639601736339,31.414616290182728,1.5643423000144092,5.418999999994412
0.5109,0.6614,-0.5158,-0.116,0.1771,-0.2016,8.295,3.1237,4.725,-37.93206489487982,31.352572926305395,1.6143215000245914,5.434999999997672
0.5099,0.6608,-0.5215,-0.116,0.1771,-0.2016,9.0475,3.5612,4.9788,-38.24806866405993,31.217438047934447,1.6143215000245914,5.434999999997672
0.5099,0.6608,-0.5215,-0.1188,0.1791,-0.2078,9.0475,3.5612,4.9788,-38.277335130968055,31.20564848843514,1.6713007000102884,5.450999999993655
0.5147,0.6539,-0.5195,-0.1188,0.1791,-0.2078,9.1962,3.8063,5.2937,-38.44865215296079,31.608212822022637,1.6713007000102884,5.450999999993655
0.5136,0.6532,-0.5274,-0.1188,0.1805,-0.2058,9.905,4.2175,5.425,-38.87749391881904,31.469599587572084,1.7345632000385198,5.466000000000349
0.5111,0.6542,-0.5289,-0.1217,0.1805,-0.2058,9.7738,3.7362,5.0138,-38.94776550581284,31.296946379043497,1.7345632000385198,5.466000000000349
0.518,0.662,-0.5292,-0.1217,0.1805,-0.2058,9.7738,3.7362,5.0138,-38.6655128815915,31.42112125536812,1.794342400023514,5.481999999996333
0.5218,0.6628,-0.5298,-0.1236,0.1826,-0.2124,9.555,3.3425,5.145,-38.63916498288661,31.57498783489245,1.794342400023514,5.481999999996333
0.5218,0.6628,-0.5298,-0.1236,0.1826,-0.2124,9.73,2.8788,4.9875,-38.63683088761862,31.58820264919475,1.8375244000218383,5.496999999995751
0.5233,0.6602,-0.5302,-0.1295,0.1822,-0.2047,8.9513,2.52,4.375,-38.75537852763025,31.704821535039052,1.8375244000218383,5.496999999995751
0.5298,0.662,-0.5316,-0.1295,0.1822,-0.2047,8.9513,2.52,4.375,-38.764283124964095,31.940664228528554,1.8778444000117172,5.5129999999917345
0.5317,0.6575,-0.5332,-0.1295,0.1822,-0.2047,9.065,2.9488,4.2613,-39.01481815872468,32.11486842969419,1.8778444000117172,5.5129999999917345
0.5353,0.6498,-0.5275,-0.1264,0.1819,-0.2144,9.1175,3.1237,4.1825,-39.064273950373725,32.556450822808365,1.9309473000338997,5.529999999998836
0.5353,0.6498,-0.5286,-0.1264,0.1819,-0.2144,9.0212,3.8412,4.4187,-39.121812980820394,32.578377452404595,1.9309473000338997,5.529999999998836
0.5296,0.6423,-0.5286,-0.1264,0.184,-0.2105,9.0212,3.8412,4.4187,-39.42288233395494,32.491871786792345,1.9885653000316639,5.544999999998254
0.525,0.6446,-0.5284,-0.1264,0.184,-0.2105,8.9338,4.0512,4.9175,-39.35012336112015,32.23096657997818,1.9885653000316639,5.544999999998254
0.5245,0.6476,-0.5278,-0.1264,0.184,-0.2105,8.6363,4.1038,5.1275,-39.19669870738226,32.13061497304688,2.054226100015182,5.560999999994237
0.527,0.6376,-0.5285,-0.1294,0.185,-0.2138,8.6363,4.1038,4.9088,-39.610857944459305,32.4408580731354,2.054226100015182,5.560999999994237
0.5356,0.6328,-0.5334,-0.1294,0.185,-0.2138,8.82,3.43,4.9088,-40.0792744732793,32.8681533914011,2.1056761000381417,5.576000000000931
0.5356,0.6328,-0.5334,-0.1321,0.1858,-0.2166,9.87,2.9488,5.005,-40.124008702633624,32.90569115737607,2.1056761000381417,5.576000000000931
0.5369,0.6313,-0.5318,-0.1321,0.1858,-0.2166,10.7975,3.885,6.265,-40.111492527667714,33.03096758222971,2.167836100022538,5.591999999996915
0.5358,0.6287,-0.5339,-0.1321,0.1858,-0.2166,10.7975,3.885,6.265,-40.32025811590256,33.009704233873016,2.167836100022538,5.591999999996915
0.5386,0.6303,-0.5289,-0.1342,0.1859,-0.2054,11.6637,4.4187,6.8513,-40.024640804126314,33.19336920597919,2.2385353000047914,5.607999999992899
0.5258,0.6262,-0.5389,-0.1342,0.1859,-0.2054,11.515,4.5237,7.7,-40.662846257346324,32.52495769988089,2.2385353000047914,5.607999999992899
0.5258,0.6262,-0.527,-0.1348,0.1886,-0.2094,11.6025,3.4037,9.0387,-40.126827636271145,32.70571251796479,2.2895908000275753,5.6229999999995925
0.5374,0.6322,-0.527,-0.1348,0.1886,-0.2094,11.6025,3.4037,9.0387,-39.83787646354059,33.1140063673775,2.2895908000275753,5.6229999999995925
0.5408,0.6329,-0.5344,-0.1398,0.1887,-0.2135,11.7513,4.5937,8.575,-40.15155826728669,33.13773392678698,2.3630900000091257,5.638999999995576
0.5398,0.6285,-0.5384,-0.1398,0.1887,-0.2135,11.8475,4.6988,8.6187,-40.5529139919326,33.11647485489935,2.3630900000091257,5.638999999995576
0.546,0.6158,-0.5348,-0.1398,0.1887,-0.2135,12.2937,4.6287,8.8112,-40.94320988280881,33.75514091405807,2.4325205000064316,5.653999999994994
0.5548,0.6082,-0.5359,-0.1413,0.1892,-0.2208,12.2937,4.6287,8.8112,-41.35267933308478,34.34706873543586,2.4325205000064316,5.653999999994994
0.5548,0.6082,-0.5359,-0.1413,0.1892,-0.2208,13.5887,5.2063,10.0712,-41.382024926742005,34.385976427202934,2.5158212999855216,5.669999999990978
0.552,0.6091,-0.5381,-0.1443,0.1917,-0.2221,13.9125,6.0462,11.4975,-41.45360955578881,34.19481347590189,2.5158212999855216,5.669999999990978
0.5438,0.6145,-0.5348,-0.1443,0.1917,-0.2221,13.7113,6.125,12.3638,-41.06028415547432,33.74974022499206,2.613821300005487,5.685999999994237
0.5333,0.6157,-0.5352,-0.1443,0.1917,-0.2221,13.7113,6.125,12.3638,-41.002915211092215,33.2038791513717,2.613821300005487,5.685999999994237
0.5312,0.6099,-0.5363,-0.1486,0.1924,-0.2154,13.5712,6.1775,11.7163,-41.304872514898044,33.18810576535531,2.706483800046838,5.701000000000931
0.5312,0.6062,-0.5408,-0.1486,0.1924,-0.2154,12.9237,4.7688,10.815,-41.70720138352947,33.18073181385919,2.706483800046838,5.701000000000931
0.5427,0.6062,-0.5408,-0.1498,0.1944,-0.222,12.3375,3.9288,10.0712,-41.73453636764822,33.7106881935161,2.769344600031059,5.716999999996915
0.5659,0.5973,-0.5373,-0.1498,0.1944,-0.222,12.3375,3.9288,10.0712,-41.95597981537133,35.07245899477312,2.769344600031059,5.716999999996915
0.573,0.5979,-0.545,-0.1498,0.1944,-0.222,12.0138,4.375,9.7563,-42.32129147932851,35.29411709909801,2.8349696000285123,5.731999999996333
0.5772,0.5887,-0.5439,-0.1524,0.1961,-0.2219,11.165,4.6287,9.765,-42.702824618267556,35.73103835638021,2.909028800009922,5.747999999992317
0.5714,0.594,-0.5422,-0.1524,0.1961,-0.2219,11.165,4.6287,10.3075,-42.4139087119075,35.41302904819488,2.909028800009922,5.747999999992317
0.5714,0.594,-0.5422,-0.155,0.1983,-0.2282,11.1388,5.1625,10.3075,-42.39154190519864,35.39408972027207,2.9916288000267497,5.763999999995576
0.5705,0.5913,-0.5417,-0.155,0.1983,-0.2282,10.8763,5.6262,10.3775,-42.48526824150816,35.426684602568265,2.9916288000267497,5.763999999995576
0.5731,0.5852,-0.5467,-0.155,0.1983,-0.2282,10.2375,5.3725,9.6425,-43.00464506920188,35.57846987151106,3.0722163000236224,5.778999999994994
0.575,0.5814,-0.5458,-0.159,0.1976,-0.2244,10.2375,5.3725,9.6425,-43.17549714782913,35.78015439589224,3.0722163000236224,5.778999999994994
0.5813,0.5778,-0.5479,-0.159,0.1976,-0.2244,9.6163,4.8387,8.82,-43.451851198632056,36.10759768790107,3.1496355000393947,5.794999999998254
0.5813,0.5661,-0.5475,-0.1614,0.2003,-0.2322,9.66,4.8125,7.8488,-43.99128255263816,36.4090729517698,3.1496355000393947,5.794999999998254
0.5871,0.5661,-0.5475,-0.1614,0.2003,-0.2322,9.275,4.4363,7.6562,-44.03840115620574,36.68302473349999,3.2161800000368124,5.809999999997672
0.5941,0.5661,-0.5463,-0.1629,0.1999,-0.2234,9.275,4.4363,7.6562,-43.985551673568985,37.03242054927592,3.2161800000368124,5.809999999997672
0.5908,0.5695,-0.5453,-0.1629,0.1999,-0.2234,9.2137,4.585,6.9475,-43.77732150659885,36.85826156242885,3.2895400000183974,5.825999999993655
0.5897,0.5592,-0.5419,-0.1629,0.1999,-0.2234,8.5225,3.745,7.2625,-44.06846880494544,37.116265752412275,3.2895400000183974,5.825999999993655
0.5932,0.5671,-0.5433,-0.1646,0.2013,-0.2221,8.1812,2.9313,7.0437,-43.801966075075796,37.06865953633065,3.3364408000279524,5.841999999996915
0.5932,0.5671,-0.5433,-0.1646,0.2013,-0.2221,8.1812,2.9313,7.0437,-43.77513109423219,37.06514022767498,3.3364408000279524,5.841999999996915
0.5917,0.5652,-0.5473,-0.1662,0.2016,-0.2318,8.0937,3.535,5.7488,-44.04740899731102,36.95561048271172,3.389465800025895,5.856999999996333
0.6032,0.5541,-0.5463,-0.1662,0.2016,-0.2318,7.4025,3.4037,5.1013,-44.534168337591915,37.71149851473862,3.389465800025895,5.856999999996333
0.5999,0.5447,-0.5485,-0.1662,0.2016,-0.2318,7.9187,3.2638,4.935,-45.13038313184531,37.80445099744282,3.4416866000365336,5.8729999999995925
0.5974,0.5451,-0.5474,-0.1681,0.2045,-0.2318,7.9187,3.2638,4.935,-45.121632025330726,37.72320500724355,3.4416866000365336,5.8729999999995925
0.5977,0.5467,-0.5488,-0.1681,0.2045,-0.2318,8.7675,3.3863,4.6725,-45.11095397309383,37.659586102769616,3.4924811000345626,5.8879999999990105
0.5977,0.5467,-0.5488,-0.1714,0.2038,-0.2323,9.275,3.7013,4.6463,-45.10993379444146,37.65388473639324,3.4924811000345626,5.8879999999990105
0.5946,0.5515,-0.5482,-0.1714,0.2038,-0.2323,8.295,3.7713,4.55,-44.85612685163799,37.42610388883333,3.5528219000194157,5.903999999994994
0.5939,0.5511,-0.5462,-0.1714,0.2038,-0.2323,8.295,3.7713,4.55,-44.755294889975644,37.43063805654443,3.5528219000194157,5.903999999994994
0.5949,0.5513,-0.5511,-0.1758,0.2058,-0.2382,6.93,2.9838,3.8063,-44.96261088582451,37.35755657716389,3.600562700029142,5.919999999998254
0.5996,0.5422,-0.5489,-0.1758,0.2058,-0.2382,6.1687,1.7237,3.0538,-45.3026740563643,37.80060702338709,3.600562700029142,5.919999999998254
0.5996,0.5422,-0.5489,-0.1738,0.2074,-0.2318,5.81,1.0412,2.7738,-45.34532403502702,37.84689717682609,3.61618070002096,5.934999999990396
0.6121,0.5459,-0.5447,-0.1738,0.2074,-0.2318,5.81,1.0412,2.7738,-44.99097385650219,38.37594019401023,3.61618070002096,5.934999999990396
0.6187,0.5353,-0.5482,-0.1738,0.2074,-0.2294,6.1163,1.7763,2.345,-45.594260910637026,38.85874326182178,3.64460150002675,5.950999999993655
0.6114,0.5343,-0.5483,-0.1727,0.2075,-0.2294,6.8162,1.7325,3.045,-45.72377985863991,38.637269589774874,3.64460150002675,5.950999999993655
0.5991,0.5434,-0.5467,-0.1727,0.2075,-0.2294,6.8162,1.7325,3.045,-45.237692667462426,37.937272763605854,3.670589000038347,5.966000000000349
0.5932,0.5481,-0.5425,-0.1762,0.2094,-0.2329,6.5712,1.96,2.8525,-44.769721212252726,37.607414923790174,3.670589000038347,5.966000000000349
0.5932,0.5481,-0.5425,-0.1762,0.2094,-0.2329,5.46,1.2163,2.1175,-44.71466644056782,37.572445122684094,3.6900498000334623,5.981999999996333
0.5927,0.5476,-0.5466,-0.1783,0.2095,-0.2388,4.48,0.5425,1.4963,-44.91024173093525,37.46854592224417,3.6900498000334623,5.981999999996333
0.6002,0.5383,-0.5464,-0.1783,0.2095,-0.2388,4.48,0.5425,1.4963,-45.34476507606297,37.971442607695344,3.6987298000352307,5.9979999999995925
0.6099,0.5282,-0.5503,-0.1783,0.2095,-0.2388,3.64,-0.2362,0.9363,-46.02007708071979,38.554357360159116,3.6987298000352307,5.9979999999995925
0.6165,0.5198,-0.5553,-0.1783,0.2103,-0.231,3.465,-0.2975,1.0762,-46.724181495472926,38.96307595010265,3.6942673000375685,6.0129999999917345
0.6165,0.5198,-0.5553,-0.1783,0.2103,-0.231,3.9638,-0.21,1.61,-46.86199389673885,39.017685368045534,3.690907300036884,6.028999999994994
0.6209,0.5105,-0.55,-0.1794,0.2094,-0.236,3.9638,-0.21,1.61,-47.08564049890342,39.53240393948633,3.690907300036884,6.028999999994994
0.6162,0.5072,-0.5507,-0.1794,0.2094,-0.236,5.3288,0.0437,2.345,-47.31663058001501,39.46467607471032,3.6915628000368583,6.043999999994412
0.596,0.5142,-0.5557,-0.1794,0.2094,-0.236,5.635,-0.1488,2.8788,-47.23422049129729,38.344228017910396,3.6915628000368583,6.043999999994412
0.614,0.5286,-0.5473,-0.1828,0.2104,-0.2395,5.74,-1.0237,2.9313,-46.16109715199069,38.84252867531996,3.6751836000335216,6.059999999997672
0.6104,0.5429,-0.5572,-0.1828,0.2104,-0.2395,5.74,-1.0237,2.9313,-45.800324720705284,38.19542427668609,3.6751836000335216,6.059999999997672
0.6104,0.5429,-0.5572,-0.1814,0.2118,-0.2354,5.355,-0.4025,1.8375,-45.75255947716103,38.12776495140439,3.66874360003221,6.076000000000931
0.6234,0.537,-0.5613,-0.1814,0.2118,-0.2354,3.78,-0.8925,0.7788,-46.1743557936649,38.66229686389175,3.66874360003221,6.076000000000931
0.6369,0.5233,-0.5584,-0.1814,0.2118,-0.2354,3.7187,-0.49,1.33,-46.73342545182385,39.62712483406369,3.6613936000360603,6.090999999993073
0.625,0.5136,-0.5632,-0.1827,0.2138,-0.2502,3.7187,-0.49,1.33,-47.472031802510195,39.386199109718405,3.6613936000360603,6.090999999993073
0.6311,0.5156,-0.5544,-0.1827,0.2138,-0.2502,3.8412,-0.5863,1.5137,-47.14743227616087,39.760244606192416,3.652012800034149,6.106999999996333
0.6311,0.5156,-0.5544,-0.1855,0.2122,-0.2414,3.6312,-0.105,1.1638,-47.089869997598825,39.80671110718751,3.652012800034149,6.106999999996333
0.6245,0.5223,-0.5528,-0.1855,0.2122,-0.2414,3.6312,0.4462,0.2625,-46.71139979097121,39.45281004762453,3.6587058000338897,6.121999999995751
0.6149,0.5158,-0.5597,-0.1855,0.2122,-0.2371,2.7738,0.4462,0.2625,-47.19903098361606,39.01099036997926,3.6587058000338897,6.121999999995751
0.613,0.5161,-0.558,-0.1867,0.2148,-0.2371,1.2513,0.6475,-0.1488,-47.2223095620452,38.9056730697761,3.6690658000360004,6.1379999999990105
0.6204,0.5075,-0.5599,-0.1867,0.2148,-0.2371,0.595,-0.875,-0.5075,-47.55964923257048,39.305282655030034,3.6690658000360004,6.1379999999990105
0.633,0.5077,-0.5613,-0.1837,0.2146,-0.239,0.595,-0.875,-0.5075,-47.73789612679684,39.807080832589634,3.655065800033148,6.15400000000227
0.633,0.5077,-0.5613,-0.1837,0.2146,-0.239,-0.3413,-1.8025,-2.3888,-47.77634401005004,39.88329712610663,3.655065800033148,6.15400000000227
0.6461,0.5067,-0.5588,-0.1868,0.2127,-0.2397,0.21,-1.7062,-3.5438,-47.78762448602382,40.34369437731329,3.6294728000465555,6.168999999994412
0.6468,0.498,-0.5609,-0.1868,0.2127,-0.2397,1.0588,-1.6187,-3.9987,-48.18162129506686,40.5994129243872,3.6294728000465555,6.168999999994412
0.644,0.506,-0.5607,-0.1868,0.2127,-0.2397,1.0588,-1.6187,-3.9987,-48.023149272175345,40.51234850981346,3.6035736000412792,6.184999999997672
0.6365,0.5137,-0.5539,-0.1836,0.2121,-0.2271,1.925,-0.9625,-4.025,-47.3922726103952,40.27716555023399,3.6035736000412792,6.184999999997672
0.6365,0.5137,-0.5539,-0.1836,0.2121,-0.2271,1.8112,0.315,-4.27,-47.22265483588749,40.188762657475515,3.608298600041096,6.19999999999709
0.6249,0.5228,-0.5566,-0.1846,0.2141,-0.2387,1.3125,0.5863,-5.1887,-46.93367157231764,39.98520862562579,3.608298600041096,6.19999999999709
0.6179,0.5187,-0.5542,-0.1846,0.2141,-0.2387,1.3125,0.5863,-5.1887,-46.90769843524677,39.79424472850586,3.617679400038741,6.215999999993073
0.6161,0.5114,-0.5527,-0.1846,0.2141,-0.2387,0.4725,-0.21,-5.8012,-47.0809410013269,39.67262317419909,3.617679400038741,6.215999999993073
0.6066,0.508,-0.556,-0.1869,0.2144,-0.2384,0.4112,-0.385,-6.335,-47.35070210987905,39.29402669667746,3.611519400037486,6.231999999996333
0.5923,0.5059,-0.5566,-0.1869,0.2144,-0.2384,1.155,0.315,-6.1863,-47.600708455478554,38.8504607372908,3.611519400037486,6.231999999996333
0.5923,0.5059,-0.5566,-0.1875,0.2156,-0.2399,1.155,0.315,-6.1863,-47.68677007802926,38.58997627924302,3.616244400037303,6.246999999995751
0.5894,0.519,-0.5555,-0.1875,0.2156,-0.2399,1.7413,0.1838,-5.215,-47.157855878279236,38.41989469642991,3.616244400037303,6.246999999995751
0.6067,0.5284,-0.5549,-0.1875,0.2156,-0.2399,1.3737,-0.875,-4.0425,-46.6435055052614,38.39153311084289,3.6022444000344507,6.2629999999990105
0.6052,0.5308,-0.5628,-0.1855,0.2146,-0.2455,0.245,-2.6425,-3.1588,-46.65974294299238,38.14282058381011,3.6022444000344507,6.2629999999990105
0.6404,0.5256,-0.5423,-0.1855,0.2146,-0.2455,0.245,-2.6425,-3.1588,-46.27879859132297,39.64911742231952,3.5626069000552154,6.277999999991152
0.6404,0.5256,-0.5423,-0.1846,0.2137,-0.2383,-1.4262,-2.8175,-1.9338,-46.12433959921193,40.15466325529092,3.5626069000552154,6.277999999991152
0.6407,0.5314,-0.5484,-0.1846,0.2137,-0.2383,-2.38,-0.5163,-2.87,-45.98652051620174,40.04087822964123,3.5543461000535324,6.293999999994412
0.6279,0.5238,-0.5551,-0.1846,0.2137,-0.2361,-2.38,1.7237,-3.395,-46.405007731839916,39.637354854177566,3.5543461000535324,6.293999999994412
0.6209,0.5205,-0.5541,-0.1857,0.2142,-0.2361,-3.2638,0.63,-3.395,-46.681085735887564,39.36831156589856,3.564426100055586,6.309999999997672
0.6175,0.5181,-0.5576,-0.1857,0.2142,-0.2361,-3.5,0.7437,-4.9788,-46.99046987390579,39.26207590184116,3.564426100055586,6.309999999997672
0.6202,0.5121,-0.5613,-0.1866,0.2133,-0.2318,-4.41,-0.175,-6.3,-47.48832763428593,39.244711684851055,3.561801100055688,6.32499999999709
0.6202,0.5121,-0.5613,-0.1866,0.2133,-0.2318,-4.41,-0.175,-6.3,-47.595163352842334,39.23515278639513,3.561801100055688,6.32499999999709
0.6321,0.5095,-0.5581,-0.1856,0.2154,-0.2386,-4.7512,-1.1638,-7.2275,-47.60419903293799,39.664686714309916,3.5431803000518944,6.341000000000349
0.6382,0.5035,-0.5539,-0.1856,0.2154,-0.2386,-4.7512,-1.1287,-7.5425,-47.70395427586085,40.193648624696834,3.5431803000518944,6.341000000000349
0.6359,0.5082,-0.5619,-0.1856,0.2154,-0.2386,-4.9175,-0.5863,-7.8575,-47.84014167572359,40.062868801579654,3.5343858000565014,6.355999999992491
0.6312,0.5117,-0.5586,-0.1884,0.2135,-0.2315,-4.9175,-0.5863,-7.8575,-47.57313502954489,39.879142445001996,3.5343858000565014,6.355999999992491
0.6312,0.5117,-0.5586,-0.1884,0.2135,-0.2315,-5.6788,0.0263,-8.5925,-47.519872953667246,39.82058691963134,3.534806600056587,6.371999999995751
0.6325,0.5065,-0.5589,-0.1876,0.2113,-0.2351,-6.9212,0.1488,-9.7388,-47.77447611890465,39.95137845183851,3.534806600056587,6.371999999995751
0.6342,0.5059,-0.5616,-0.1876,0.2113,-0.2351,-7.8488,0.455,-11.2875,-47.96064450044774,39.991160151064484,3.54208660005807,6.3879999999990105
0.6469,0.5113,-0.5608,-0.1876,0.2113,-0.2351,-7.8488,0.455,-11.2875,-47.68268543863874,40.378289976701126,3.54208660005807,6.3879999999990105
0.6615,0.5136,-0.5631,-0.1843,0.2084,-0.2374,-9.45,-0.2713,-12.705,-47.63745109046914,40.88586186624504,3.538017100058228,6.402999999998428
0.6701,0.5074,-0.5638,-0.1843,0.2084,-0.2374,-10.745,-0.21,-15.1462,-47.97967140007461,41.40529378088733,3.5346571000575433,6.419000000001688
0.6701,0.5074,-0.5638,-0.183,0.2098,-0.2326,-12.4075,0.5163,-17.3075,-48.01120541099851,41.45485807681712,3.5346571000575433,6.419000000001688
0.6757,0.5018,-0.5603,-0.183,0.2098,-0.2326,-12.4075,0.5163,-17.3075,-48.141466741104495,41.89751243570545,3.5424016000534864,6.43399999999383
0.6659,0.5042,-0.557,-0.183,0.2098,-0.2326,-13.9475,0.7962,-19.635,-47.86904420425863,41.574027412496356,3.5424016000534864,6.43399999999383
0.651,0.5149,-0.5542,-0.18,0.2079,-0.2348,-15.3825,0.7613,-22.1637,-47.15409871864682,40.762816537699564,3.554582400055968,6.44999999999709
0.645,0.5247,-0.5509,-0.18,0.2079,-0.2348,-16.9225,-0.7525,-25.3663,-46.43954627058873,40.31396386979585,3.554582400055968,6.44999999999709
0.645,0.5247,-0.5509,-0.1782,0.2047,-0.2314,-16.9225,-0.7525,-25.3663,-46.39793607066781,40.292470028298936,3.542542400053515,6.466000000000349
0.6494,0.5365,-0.5522,-0.1782,0.2047,-0.2314,-19.1712,-2.7387,-28.7612,-45.855636492066175,40.1529002215819,3.542542400053515,6.466000000000349
0.6639,0.5413,-0.5503,-0.1782,0.2031,-0.2318,-21.2188,-4.4887,-32.2612,-45.49023204625399,40.67856958711261,3.4752119000561277,6.480999999999767
0.6736,0.5316,-0.5453,-0.1753,0.2031,-0.2318,-23.4587,-5.04,-34.4925,-45.71879546565249,41.46617986856479,3.4752119000561277,6.480999999999767
0.6528,0.54,-0.5392,-0.1753,0.2031,-0.2318,-23.24,-5.04,-34.4925,-44.989935369329594,40.57592231437991,3.39457190007637,6.496999999995751
0.6331,0.5894,-0.5347,-0.1686,0.199,-0.2295,-24.7712,-4.5763,-35.7262,-42.32505737373332,38.570401314973815,3.39457190007637,6.496999999995751
0.6331,0.5894,-0.5347,-0.1686,0.199,-0.2295,-28.0263,-4.655,-37.5988,-42.21804229722268,38.50608972537423,3.3247469000790795,6.511999999995169
0.639,0.6343,-0.5414,-0.1649,0.1956,-0.2159,-28.0263,-4.655,-39.8387,-40.54345403218029,37.49052790249455,3.3247469000790795,6.511999999995169
0.6274,0.635,-0.5491,-0.1649,0.1956,-0.2159,-33.5825,-5.0225,-39.655,-40.841688573940566,36.79346152730398,3.244386900062708,6.527999999998428
0.6059,0.6051,-0.5423,-0.1649,0.1956,-0.2159,-38.6225,-4.9175,-42.3413,-41.840806949178855,36.71327536365515,3.244386900062708,6.527999999998428
0.581,0.5793,-0.5412,-0.1591,0.1938,-0.2217,-41.685,-5.53,-45.1237,-43.0236449078356,36.2483869484082,3.144846900042429,6.5460000000020955
0.581,0.5637,-0.5328,-0.1591,0.1938,-0.2217,-41.685,-5.53,-45.1237,-43.37716314545171,36.82056777507705,3.144846900042429,6.5460000000020955
0.5672,0.5733,-0.5328,-0.1525,0.1879,-0.211,-42.1488,-8.0325,-46.6025,-42.91422647427234,35.95243510521135,3.0243594001055483,6.560999999994237
0.566,0.5908,-0.5273,-0.1525,0.1879,-0.211,-41.58,-10.9812,-47.6963,-41.77734964252759,35.56431764530502,3.0243594001055483,6.560999999994237
0.5607,0.6116,-0.5181,-0.1525,0.1879,-0.211,-42.1575,-13.0988,-49.7438,-40.30425476905795,34.9866035503677,2.814778600062851,6.576999999997497
0.5633,0.6502,-0.5184,-0.1454,0.1837,-0.2076,-42.1575,-13.0988,-49.7438,-38.60612540165033,34.13293328499318,2.814778600062851,6.576999999997497
0.5708,0.6684,-0.5179,-0.1454,0.1837,-0.2076,-45.0713,-15.4613,-53.1563,-37.78824623124146,34.02369442484229,2.582859100071851,6.591999999996915
0.5708,0.6684,-0.5179,-0.1385,0.1772,-0.2044,-49.6037,-17.9288,-57.2687,-37.77016298382145,34.021446408115395,2.582859100071851,6.591999999996915
0.5652,0.6883,-0.523,-0.1385,0.1772,-0.2044,-54.5825,-19.5125,-63.0525,-37.239001822122084,33.19190530368684,2.270659100008247,6.608000000000175
0.5494,0.6981,-0.5163,-0.1385,0.1772,-0.2044,-54.5825,-19.5125,-63.0525,-36.49958183618622,32.33822986308854,2.270659100008247,6.608000000000175
0.5261,0.705,-0.5097,-0.1282,0.1733,-0.1864,-58.9137,-21.6388,-68.845,-35.87683543491338,31.18149611967839,1.9244383000951557,6.623999999996158
0.5126,0.7218,-0.5078,-0.1282,0.1733,-0.1864,-63.7262,-24.395,-74.0512,-35.1388326233122,30.164196244455365,1.9244383000951557,6.623999999996158
0.5126,0.7226,-0.4937,-0.1122,0.1661,-0.1811,-68.3375,-27.4487,-79.3538,-34.353571645536924,30.356062288234106,1.512707800111133,6.638999999995576
0.5135,0.7226,-0.4937,-0.1122,0.1661,-0.1811,-68.3375,-27.4487,-79.3538,-34.34212261148764,30.401890922264922,1.512707800111133,6.638999999995576
0.5108,0.7302,-0.488,-0.0981,0.1614,-0.1794,-72.415,-29.435,-83.93,-33.76328215180743,30.18531179080159,1.0417478000151856,6.654999999998836
0.5023,0.7444,-0.4764,-0.0981,0.1614,-0.1794,-75.4775,-30.52,-87.8675,-32.633488251104424,29.61845898754702,1.0417478000151856,6.654999999998836
0.4857,0.7607,-0.4743,-0.0981,0.1614,-0.1794,-79.8262,-30.7388,-91.455,-31.95234563305833,28.462413595687927,0.580665800033078,6.669999999998254
0.4754,0.7678,-0.4645,-0.0834,0.1557,-0.1652,-79.8262,-30.7388,-91.455,-31.18263404664009,27.91956817868077,0.580665800033078,6.669999999998254
0.4754,0.7678,-0.4645,-0.0834,0.1557,-0.1652,-83.1425,-30.3275,-94.71,-31.17301697720613,27.913323915944353,0.09542580015488317,6.685999999994237
0.4469,0.793,-0.4563,-0.0656,0.1504,-0.1542,-84.9887,-29.8025,-98.9625,-29.931286578280616,26.053728603927844,0.09542580015488317,6.685999999994237
0.4135,0.7948,-0.4473,-0.0656,0.1504,-0.1542,-84.9887,-29.8025,-101.57,-29.37665739213226,24.406122581214326,-0.3814141999422619,6.701999999997497
0.3953,0.7879,-0.4342,-0.0656,0.1504,-0.1542,-87.3075,-30.8263,-101.57,-28.864425022346314,23.728116240826047,-0.3814141999422619,6.701999999997497
0.3773,0.8184,-0.4214,-0.0495,0.1458,-0.1362,-87.2375,-31.5263,-102.27,-27.262780699804452,22.302334701123783,-0.8543086999239111,6.716999999996915
0.393,0.8057,-0.4114,-0.0495,0.1458,-0.1362,-88.4713,-32.62,-105.0088,-27.051801983470426,23.469330038601775,-0.8543086999239111,6.716999999996915
0.3922,0.8057,-0.4114,-0.0316,0.142,-0.1295,-88.4713,-32.62,-105.0088,-27.04942399033218,23.43872583453979,-1.3762287000302402,6.733000000000175
0.3844,0.7856,-0.4051,-0.0316,0.142,-0.1295,-87.5788,-33.7663,-104.6413,-27.275598892331175,23.503208067529247,-1.3762287000302402,6.733000000000175
0.3628,0.8273,-0.3838,-0.0316,0.142,-0.1295,-82.6263,-32.6725,-104.2387,-24.91628603082669,21.7113467886693,-1.8663161997734985,6.747999999992317
0.3614,0.7984,-0.3663,-0.0138,0.1399,-0.1106,-81.445,-32.55,-102.5588,-24.648623163280988,22.356668138488047,-1.8663161997734985,6.747999999992317
0.3431,0.8242,-0.3488,-0.0138,0.1399,-0.1106,-81.445,-32.55,-102.5588,-22.95893564171459,20.989202701513147,-2.3871161998795993,6.763999999995576
0.3431,0.8242,-0.3488,0.0029,0.139,-0.0988,-77.945,-29.9775,-98.2975,-22.93826424633217,20.975266217147798,-2.866756199977315,6.779999999998836
0.3195,0.835,-0.3398,0.0029,0.139,-0.0988,-75.3463,-28.1313,-95.2962,-22.15418507159721,19.53102808317076,-2.866756199977315,6.779999999998836
0.3001,0.8429,-0.336,0.0029,0.139,-0.0973,-72.3012,-25.8388,-93.3275,-21.739202455351236,18.314184780627922,-3.2543381999622745,6.794999999998254
0.2874,0.8275,-0.3229,0.0163,0.1377,-0.0973,-72.3012,-25.8388,-93.3275,-21.32212913886932,17.933368037714622,-3.2543381999622745,6.794999999998254
0.2697,0.8201,-0.3152,0.0163,0.1377,-0.0973,-68.915,-24.5,-90.2475,-21.02824442080363,17.07505088133567,-3.6463382000421354,6.811000000001513
0.2461,0.8217,-0.312,0.0301,0.1392,-0.0867,-62.5013,-23.2925,-85.8812,-20.795568678889094,15.65966393115619,-3.6463382000421354,6.811000000001513
0.2461,0.8217,-0.312,0.0301,0.1392,-0.0867,-55.1862,-22.8988,-80.99,-20.79186870092935,15.642289231690274,-3.989820199862196,6.825999999993655
0.2231,0.8458,-0.3004,0.043,0.1398,-0.0842,-55.1862,-22.8988,-80.99,-19.575685845870016,13.98068808036538,-3.989820199862196,6.825999999993655
0.2221,0.8714,-0.2876,0.043,0.1398,-0.0842,-49.0962,-22.4963,-76.1075,-18.29170120746888,13.611191077063047,-4.349760999935525,6.841999999996915
0.2151,0.8983,-0.282,0.043,0.1398,-0.0842,-44.4588,-21.8487,-72.1438,-17.44775347311129,12.879875524408272,-4.349760999935525,6.841999999996915
0.2159,0.9127,-0.2735,0.054,0.1409,-0.077,-41.7113,-20.5275,-68.8012,-16.69965239490317,12.769131475475984,-4.67820099985308,6.857999999992899
0.2159,0.9127,-0.2735,0.054,0.1409,-0.077,-41.7113,-20.5275,-68.8012,-16.681824050082362,12.767409648314239,-4.67820099985308,6.857999999992899
0.2115,0.9267,-0.2676,0.0642,0.1427,-0.0646,-39.9437,-19.11,-65.8875,-16.12125318936339,12.374039495117115,-4.9648509999809995,6.8729999999995925
0.2039,0.9426,-0.2638,0.0642,0.1427,-0.0646,-38.78,-16.9837,-63.245,-15.647489019415952,11.777468582053999,-4.9648509999809995,6.8729999999995925
0.1893,0.9575,-0.2522,0.0642,0.1427,-0.0646,-38.78,-16.9837,-60.2962,-14.779062766504616,10.840400644814407,-5.23659020003636,6.889000000002852
0.1713,0.9601,-0.2458,0.0714,0.1454,-0.0598,-37.59,-14.175,-60.2962,-14.371213842579934,9.824890833291947,-5.23659020003636,6.889000000002852
0.1492,0.9624,-0.2409,0.0714,0.1454,-0.0598,-36.2513,-12.2325,-57.7675,-14.061768357695774,8.576455373574767,-5.420077699940237,6.903999999994994
0.1492,0.9624,-0.2409,0.0815,0.1449,-0.0565,-35.1838,-10.675,-56.735,-14.05329790251787,8.553034413131243,-5.420077699940237,6.903999999994994
0.1305,0.9649,-0.2402,0.0815,0.1449,-0.0565,-35.1838,-10.675,-56.735,-13.981043274055136,7.497462733558473,-5.590877699975034,6.919999999998254
0.1175,0.9716,-0.2265,0.0815,0.1449,-0.0565,-34.2562,-9.1438,-55.7113,-13.147345652777735,6.732388526902173,-5.590877699975034,6.919999999998254
0.1072,0.9731,-0.2279,0.0891,0.1467,-0.0515,-32.5763,-9.4412,-55.0112,-13.180076161524504,6.134274790521422,-5.741936899937115,6.935999999994237
0.1002,0.9784,-0.2233,0.0891,0.1467,-0.0515,-32.27,-9.1788,-54.1975,-12.86634939377489,5.710483386976497,-5.741936899937115,6.935999999994237
0.1002,0.9784,-0.2233,0.0974,0.1494,-0.0452,-32.27,-9.1788,-54.1975,-12.856702208390917,5.701958806831752,-5.879618899998556,6.951000000000931
0.0971,0.9784,-0.22,0.0974,0.1494,-0.0452,-31.1413,-7.8663,-53.1738,-12.678445195706963,5.5340055955752305,-5.879618899998556,6.951000000000931
