AcclX,AcclY,AcclZ,MagX,MagY,MagZ,GyroX,GyroY,GyroZ,Roll,Pitch,Yaw,Time Elapsed(s)
-0.0422,1.0205,-0.1995,0.1568,0.1761,-0.0057,-1.855,-2.7475,-6.79,0,0,0,0.0
-0.0451,1.0157,-0.1957,0.1568,0.1761,-0.0057,-1.855,-2.9838,-6.5975,0,0,0,0.01600000000325963
-0.0464,1.0061,-0.1994,0.1568,0.1761,-0.0057,-2.065,-2.9838,-6.5975,0,0,0,0.01600000000325963
-0.0507,1.0008,-0.2043,0.1574,0.1756,-0.0138,-2.0387,-3.2375,-6.4488,0,0,0,0.0319999999992433
-0.0507,1.0008,-0.2043,0.1574,0.1756,-0.0138,-1.6888,-3.29,-6.4138,0,0,0,0.0319999999992433
-0.0506,0.9948,-0.2011,0.1564,0.1752,-0.0165,-1.6888,-3.29,-6.4138,0,0,0,0.046999999998661224
-0.0427,0.9911,-0.2047,0.1564,0.1752,-0.0165,-0.56,-4.0687,-6.0637,0,0,0,0.046999999998661224
-0.0387,0.9937,-0.2092,0.1564,0.1752,-0.0165,0.0962,-4.095,-5.2238,0,0,0,0.06300000000192085
-0.0377,0.9967,-0.2087,0.1559,0.1765,-0.012,1.295,-3.7275,-4.9963,0,0,0,0.06300000000192085
-0.0377,1.0037,-0.2133,0.1559,0.1765,-0.012,1.295,-3.7275,-4.9963,0,0,0,0.07800000000133878
-0.0321,1.0037,-0.2133,0.1565,0.1758,-0.011,2.625,-3.7013,-4.76,0,0,0,0.07800000000133878
-0.0288,1.0086,-0.2134,0.1565,0.1758,-0.011,2.52,-3.9288,-4.7512,0,0,0,0.0940000000045984
-0.0268,1.0124,-0.2198,0.1565,0.1758,-0.011,2.1,-3.535,-4.48,0,0,0,0.0940000000045984
-0.0247,1.0175,-0.2165,0.1589,0.1766,-0.0166,2.1,-3.535,-4.48,0,0,0,0.10999999999330612
-0.0257,1.0177,-0.2169,0.1589,0.1766,-0.0166,2.1437,-3.1063,-4.7775,0,0,0,0.10999999999330612
-0.0257,1.0177,-0.2169,0.157,0.1738,-0.0178,1.7938,-1.8112,-4.655,0,0,0,0.125
-0.0267,1.0181,-0.2168,0.157,0.1738,-0.0178,0.9712,-1.2425,-4.7425,0,0,0,0.125
-0.0287,1.0166,-0.216,0.157,0.1738,-0.0178,0.9712,-1.2425,-4.7425,0,0,0,0.14099999999598367
-0.0289,1.0141,-0.2159,0.1566,0.1754,-0.0155,-0.0875,-1.26,-4.9525,0,0,0,0.14099999999598367
-0.0332,1.0093,-0.2158,0.1566,0.1754,-0.0155,-0.5163,-0.7,-5.075,0,0,0,0.1559999999954016
-0.0332,1.007,-0.2151,0.1563,0.175,-0.0178,-1.015,-0.0787,-5.2675,0,0,0,0.1559999999954016
-0.0287,1.007,-0.2151,0.1563,0.175,-0.0178,-1.015,-0.0787,-5.2675,0,0,0,0.17199999999866122
-0.0283,1.0063,-0.2067,0.157,0.1758,-0.0125,-1.295,0.3063,-5.075,0,0,0,0.17199999999866122
-0.0254,1.0043,-0.2092,0.157,0.1758,-0.0125,-1.9863,0.8925,-4.9,0,0,0,0.1879999999946449
-0.0298,1.0022,-0.2056,0.157,0.1758,-0.0125,-1.9863,0.8925,-4.5325,0,0,0,0.1879999999946449
-0.034,0.9972,-0.2036,0.1552,0.1745,-0.0103,-2.5113,0.9712,-4.5325,0,0,0,0.20300000000133878
-0.034,0.9972,-0.2036,0.1552,0.1745,-0.0103,-1.7675,1.715,-4.48,0,0,0,0.20300000000133878
-0.0364,0.9959,-0.2037,0.158,0.1785,-0.012,-1.5137,1.4963,-4.5675,0,0,0,0.21899999999732245
-0.0362,0.9994,-0.2041,0.158,0.1785,-0.012,-1.5137,1.4963,-4.5675,0,0,0,0.21899999999732245
-0.0304,1.0044,-0.2026,0.158,0.1785,-0.012,-1.47,1.155,-4.8387,0,0,0,0.23399999999674037
-0.0328,1.0072,-0.2023,0.1566,0.1756,-0.002,-1.0237,0.6913,-4.6988,0,0,0,0.23399999999674037
-0.0328,1.0072,-0.2034,0.1566,0.1756,-0.002,-1.155,0.4638,-4.8913,0,0,0,0.25
-0.0323,1.0077,-0.2034,0.1558,0.1743,-0.0126,-1.155,0.4638,-4.8913,0,0,0,0.25
-0.031,1.0093,-0.2025,0.1558,0.1743,-0.0126,-0.9975,0.0613,-5.5037,0,0,0,0.26599999999598367
-0.0314,1.0062,-0.2026,0.1558,0.1743,-0.0126,-0.9013,-0.2713,-5.4075,0,0,0,0.26599999999598367
-0.0365,1.0044,-0.2034,0.1555,0.1758,-0.013,-0.5337,-0.4988,-4.8913,0,0,0,0.28100000000267755
-0.0407,1.0042,-0.2008,0.1555,0.1758,-0.013,-0.5337,-0.4988,-4.8913,0,0,0,0.28100000000267755
-0.0407,1.0042,-0.2008,0.1545,0.1758,-0.0103,-0.6037,-0.56,-5.2325,0,0,0,0.2969999999986612
-0.0397,1.0035,-0.2029,0.1545,0.1758,-0.0103,-0.7962,-1.3212,-5.0138,0,0,0,0.2969999999986612
-0.0404,1.005,-0.2057,0.1545,0.1758,-0.0103,-0.8838,-1.7413,-4.9963,0,0,0,0.31199999999807915
-0.0401,1.005,-0.2073,0.1563,0.176,-0.0216,-0.8838,-1.7413,-4.9963,0,0,0,0.31199999999807915
-0.0368,1.0059,-0.2052,0.1563,0.176,-0.0216,0.035,-2.2575,-5.3113,0,0,0,0.3280000000013388
-0.0368,1.0059,-0.2046,0.1568,0.176,-0.0131,0.1488,-2.8525,-5.6525,0,0,0,0.3280000000013388
-0.0354,1.0063,-0.2046,0.1568,0.176,-0.0131,0.1488,-3.0625,-5.565,0,0,0,0.34399999999732245
-0.0348,1.006,-0.2066,0.1584,0.1765,-0.0109,0.315,-3.0625,-5.565,0,0,0,0.34399999999732245
-0.0315,1.0066,-0.2037,0.1584,0.1765,-0.0109,0.3588,-3.7625,-6.1512,0,0,0,0.35900000000401633
-0.0312,1.0061,-0.21,0.1584,0.1765,-0.0109,0.3938,-3.22,-6.475,0,0,0,0.375
-0.0303,1.0042,-0.2112,0.1558,0.1745,-0.0101,0.3938,-3.22,-6.475,0,0,0,0.375
-0.0303,1.0042,-0.2112,0.1558,0.1745,-0.0101,0.21,-2.6513,-6.055,0,0,0,0.375
-0.0287,1.005,-0.209,0.1562,0.1761,-0.0046,0.1925,-2.7387,-6.1687,0,0,0,0.3899999999994179
-0.0327,1.0036,-0.2136,0.1562,0.1761,-0.0046,0.28,-3.1762,-5.9588,0,0,0,0.3899999999994179
-0.032,1.0059,-0.2151,0.1562,0.1761,-0.0046,0.28,-3.1762,-5.9588,0,0,0,0.4059999999954016
-0.032,1.0061,-0.2121,0.1566,0.1761,-0.0026,0.5425,-2.7562,-5.915,0,0,0,0.4219999999986612
-0.032,1.0061,-0.2121,0.1566,0.1761,-0.0026,0.6562,-2.17,-6.265,0,0,0,0.4219999999986612
-0.0302,1.0056,-0.2111,0.1579,0.1764,-0.0104,0.2187,-2.0825,-5.9062,0,0,0,0.4219999999986612
-0.0317,1.0087,-0.2123,0.1579,0.1764,-0.0104,0.2187,-2.0825,-5.9062,0,0,0,0.43699999999807915
-0.0285,1.0107,-0.2103,0.1579,0.1764,-0.0104,-0.5337,-2.59,-5.5037,0,0,0,0.4529999999940628
-0.0309,1.0066,-0.21,0.1568,0.1773,-0.0063,-0.9975,-1.9162,-5.46,0,0,0,0.4529999999940628
-0.0311,1.0055,-0.2128,0.1568,0.1773,-0.0063,-1.2687,-1.8025,-5.2587,0,0,0,0.4680000000007567
-0.0311,1.0055,-0.2128,0.1575,0.1757,-0.0116,-1.2687,-1.8025,-5.2587,0,0,0,0.4680000000007567
-0.0328,1.0042,-0.2094,0.1575,0.1757,-0.0116,-0.735,-1.1375,-4.7162,0,0,0,0.48399999999674037
-0.0322,1.0019,-0.2107,0.1575,0.1757,-0.0116,-0.7962,-1.3212,-4.9788,0,0,0,0.48399999999674037
-0.0353,1.0018,-0.2087,0.1575,0.1758,-0.0154,-0.7962,-0.8575,-5.4338,0,0,0,0.5
-0.0345,1.0041,-0.2114,0.1575,0.1758,-0.0154,-0.7962,-0.8575,-5.4338,0,0,0,0.5
-0.0345,1.0041,-0.2114,0.157,0.1729,-0.0142,-0.4988,-0.7,-5.285,0,0,0,0.5149999999994179
-0.0303,1.0049,-0.2062,0.157,0.1729,-0.0142,-0.5775,-0.7875,-5.4687,0,0,0,0.5149999999994179
-0.0326,1.0075,-0.2092,0.157,0.1753,-0.0145,-0.5775,-0.7875,-6.0462,0,0,0,0.5309999999954016
-0.0342,1.007,-0.2108,0.1596,0.1753,-0.0145,-0.8925,-0.9013,-6.0462,0,0,0,0.5309999999954016
-0.0363,1.0085,-0.207,0.1596,0.1753,-0.0145,-0.3325,-1.3125,-6.0637,0,0,0,0.5460000000020955
-0.0352,1.006,-0.2095,0.1566,0.1777,-0.0078,-0.4988,-1.5838,-6.195,0,0,0,0.5460000000020955
-0.0352,1.006,-0.2095,0.1566,0.1777,-0.0078,-0.4988,-1.5838,-6.195,0,0,0,0.5619999999980791
-0.0374,1.0086,-0.2112,0.1566,0.1768,-0.0163,-1.1812,-1.2425,-6.335,0,0,0,0.5619999999980791
-0.0415,1.0078,-0.2055,0.1566,0.1768,-0.0163,-1.085,-1.505,-6.3963,0,0,0,0.5780000000013388
-0.0418,1.0043,-0.2091,0.1566,0.1768,-0.0163,-0.9013,-2.0038,-5.7137,0,0,0,0.5780000000013388
-0.0365,1.0104,-0.2089,0.1573,0.1769,-0.0078,-0.9013,-2.0038,-5.7137,0,0,0,0.5930000000007567
-0.0365,1.0104,-0.2089,0.1573,0.1769,-0.0078,-0.8138,-2.0912,-5.845,0,0,0,0.5930000000007567
-0.0332,1.0129,-0.2043,0.1574,0.1757,-0.011,-0.4112,-1.9775,-6.1163,0,0,0,0.6089999999967404
-0.0322,1.0081,-0.2059,0.1574,0.1757,-0.011,-1.225,-0.98,-6.0375,0,0,0,0.6089999999967404
-0.0332,1.01,-0.2036,0.1574,0.1757,-0.011,-1.225,-0.98,-6.0375,0,0,0,0.6240000000034343
-0.0315,1.0097,-0.2058,0.1579,0.1762,-0.0189,-1.3212,-1.3038,-5.9062,0,0,0,0.6240000000034343
-0.034,1.006,-0.2052,0.1579,0.1762,-0.0189,-1.47,-1.4262,-5.9237,0,0,0,0.6399999999994179
-0.034,1.006,-0.2052,0.157,0.1766,-0.0094,-1.4525,-1.26,-5.5563,0,0,0,0.6399999999994179
-0.039,1.0031,-0.204,0.157,0.1766,-0.0094,-1.4525,-1.26,-5.5563,0,0,0,0.6560000000026776
-0.0432,1.0024,-0.205,0.157,0.1766,-0.0094,-1.1463,-1.6363,-5.8625,0,0,0,0.6560000000026776
-0.0423,1.0074,-0.2031,0.1566,0.1769,-0.0014,-0.5775,-1.7587,-6.1863,0,0,0,0.6709999999948195
-0.0386,1.0097,-0.2023,0.1566,0.1769,-0.0014,-0.5775,-1.7587,-6.7112,0,0,0,0.6709999999948195
-0.0386,1.0097,-0.2023,0.1582,0.1774,-0.0073,-0.0175,-1.6625,-6.7112,0,0,0,0.6869999999980791
-0.0365,1.0111,-0.208,0.1582,0.1774,-0.0073,-0.63,-1.9162,-6.8162,0,0,0,0.6869999999980791
-0.0375,1.0104,-0.2041,0.1582,0.1774,-0.0106,-0.7175,-1.7763,-6.9388,0,0,0,0.7030000000013388
-0.0355,1.0109,-0.1982,0.1584,0.1774,-0.0106,-0.7175,-1.7763,-6.9388,0,0,0,0.7030000000013388
-0.041,1.0103,-0.2034,0.1584,0.1774,-0.0106,-0.455,-1.61,-6.7112,0,0,0,0.7189999999973224
-0.041,1.0075,-0.1993,0.1576,0.177,-0.0122,-0.7875,-1.365,-6.4925,0,0,0,0.7189999999973224
-0.041,1.0075,-0.1993,0.1576,0.177,-0.0122,-0.8925,-1.4175,-6.2125,0,0,0,0.7350000000005821
-0.0418,1.006,-0.2054,0.158,0.1762,-0.0069,-0.8925,-1.4175,-6.2125,0,0,0,0.7350000000005821
-0.0422,1.0051,-0.2031,0.158,0.1762,-0.0069,-0.7088,-1.7763,-6.1687,0,0,0,0.749999999992724
-0.0387,1.0049,-0.2019,0.158,0.1762,-0.0069,-0.6825,-1.8288,-6.195,0,0,0,0.7659999999959837
-0.0407,1.0049,-0.2036,0.1574,0.1771,-0.019,-0.4375,-2.0038,-6.0813,0,0,0,0.7659999999959837
-0.0407,1.0049,-0.2036,0.1574,0.1771,-0.019,-0.4375,-2.0038,-6.0813,0,0,0,0.7810000000026776
-0.0398,1.0066,-0.1996,0.1573,0.1755,-0.0119,-0.7437,-1.6975,-5.705,0,0,0,0.7810000000026776
-0.0432,1.0041,-0.204,0.1573,0.1755,-0.0119,-0.7962,-1.6975,-5.5825,0,0,0,0.7969999999986612
-0.0446,1.0066,-0.2053,0.1573,0.1755,-0.0119,-0.5075,-1.7413,-5.8187,-1.0221771378769975,-0.907362669318995,0.0,0.7969999999986612
-0.0407,1.0067,-0.2027,0.1602,0.1776,-0.0176,-0.5075,-1.7413,-5.8187,-1.941012840641935,-1.404610880045153,-0.053980299991992796,0.8279999999940628
-0.0407,1.0065,-0.2027,0.1602,0.1776,-0.0176,-0.3588,-1.9075,-5.845,-2.4027783326814385,-1.7295445786414516,-0.053980299991992796,0.8279999999940628
-0.0413,1.0065,-0.2027,0.1572,0.1754,-0.0106,-0.6475,-2.2838,-5.495,-4.125761684170298,-1.8447517872388728,-0.09052109999943714,0.8439999999973224
-0.0398,1.007,-0.2047,0.1572,0.1754,-0.0106,-1.085,-2.3363,-5.8713,-7.093059153172066,-1.9886612268882091,-0.09052109999943714,0.8439999999973224
-0.0415,1.0071,-0.2047,0.1572,0.1754,-0.0106,-1.085,-2.3363,-5.8713,-8.86434410676802,-2.1134904368229654,-0.09052109999943714,0.8439999999973224
-0.0401,1.0064,-0.2053,0.1582,0.1762,-0.0184,-0.8138,-2.24,-5.6788,-9.63079310230482,-2.1505460703796913,-0.09052109999943714,0.8439999999973224
-0.041,1.0061,-0.2071,0.1582,0.1762,-0.0184,-0.5863,-2.5812,-6.1863,-9.93037002998627,-2.2161309165979644,-0.12923910001671537,0.8590000000040163
-0.041,1.0061,-0.2071,0.157,0.1763,-0.0182,-0.5863,-2.5812,-6.1863,-10.185090655512543,-2.2498953502222774,-0.12923910001671537,0.8590000000040163
-0.0423,1.0062,-0.2047,0.157,0.1763,-0.0182,-0.805,-2.2138,-6.2213,-10.557065405459285,-2.3038224752573515,-0.16465990000782402,0.875
-0.0357,1.007,-0.2037,0.157,0.1763,-0.0182,-1.0412,-1.8725,-6.2213,-10.896993974553851,-2.148759681646324,-0.16465990000782402,0.875
-0.0329,1.01,-0.206,0.1622,0.1778,-0.0138,-0.8662,-1.96,-6.1512,-11.094601673896394,-1.9962188878529479,-0.19601990001421288,0.8910000000032596
-0.031,1.0102,-0.2033,0.1622,0.1778,-0.0138,-0.8662,-1.96,-6.1512,-11.18355594753843,-1.8663219342759176,-0.19601990001421288,0.8910000000032596
-0.0466,1.0028,-0.2041,0.16,0.1778,-0.0038,-1.5488,-1.4787,-5.9763,-11.35431150840201,-2.179561401716779,-0.2182004000025932,0.9059999999954016
-0.0349,1.0028,-0.2041,0.16,0.1778,-0.0038,-1.1287,-0.9712,-5.775,-11.417013438918278,-2.101047568883919,-0.2182004000025932,0.9059999999954016
-0.0442,0.9996,-0.2064,0.159,0.1766,-0.005,-0.7088,-1.54,-6.195,-11.474408605520784,-2.285581307137785,-0.24284040000761303,0.9219999999986612
-0.045,1.0002,-0.2027,0.159,0.1766,-0.005,-0.7088,-1.54,-6.195,-11.470261483786144,-2.402194233431728,-0.24284040000761303,0.9219999999986612
-0.044,1.0053,-0.2064,0.159,0.1766,-0.005,-0.2362,-1.0675,-6.4488,-11.489826941638205,-2.4310401973723508,-0.2588529000069917,0.9369999999980791
-0.042,1.0097,-0.2051,0.1599,0.1781,-0.0089,-0.2187,-1.5838,-6.3875,-11.488608649133313,-2.3794366619261482,-0.2588529000069917,0.9369999999980791
-0.042,1.0097,-0.2051,0.1599,0.1781,-0.0089,-0.1575,-1.8988,-6.4313,-11.487325311415429,-2.3549421355829985,-0.2892336999993655,0.9529999999940628
-0.039,1.0113,-0.2025,0.1598,0.178,-0.0111,-0.1575,-1.8988,-6.4313,-11.454178165731813,-2.2521204933984156,-0.2892336999993655,0.9529999999940628
-0.039,1.0124,-0.205,0.1598,0.178,-0.0111,-0.245,-1.54,-6.1337,-11.453160210018812,-2.209798410585193,-0.3138737000043853,0.9689999999973224
-0.0415,1.0133,-0.204,0.1598,0.178,-0.0111,-0.1225,-1.2075,-6.09,-11.437433149055485,-2.250761917111724,-0.3138737000043853,0.9689999999973224
-0.0409,1.0102,-0.1992,0.1594,0.1782,-0.0178,-0.595,-1.155,-6.0813,-11.393375344876343,-2.2616785928007195,-0.331198700003713,0.9839999999967404
-0.0409,1.0083,-0.2052,0.1594,0.1782,-0.0178,-0.595,-1.155,-6.0813,-11.410508731952293,-2.268308636376103,-0.331198700003713,0.9839999999967404
-0.0456,1.0083,-0.2052,0.1566,0.1784,-0.0082,-0.9625,-1.47,-5.8625,-11.443495566744172,-2.3711807995910252,-0.35471870000850464,1.0
-0.0482,1.0085,-0.2045,0.1566,0.1784,-0.0082,-0.3762,-1.3563,-5.8362,-11.444130605447723,-2.486727210116668,-0.35471870000850464,1.0
-0.0461,1.0076,-0.2017,0.1566,0.1784,-0.0082,-0.3762,-1.3563,-5.67,-11.440041507326486,-2.511219361684571,-0.37506319999784676,1.014999999992142
-0.0456,1.0049,-0.2036,0.1601,0.1786,-0.0063,-0.455,-1.4,-5.67,-11.440618493899104,-2.521759643984951,-0.37506319999784676,1.014999999992142
-0.047,1.0072,-0.2048,0.1601,0.1786,-0.0063,-0.3325,-1.7325,-5.635,-11.444438367958313,-2.5488780468688,-0.40278320000349405,1.0309999999954016
-0.047,1.0072,-0.2048,0.16,0.1778,-0.0114,0.2975,-1.6538,-5.4862,-11.464811867923535,-2.562402234788051,-0.40278320000349405,1.0309999999954016
-0.0458,1.0086,-0.2039,0.16,0.1778,-0.0114,0.2975,-1.6538,-5.4862,-11.449954050749808,-2.559690370083756,-0.4292440000088848,1.0469999999986612
-0.0439,1.0071,-0.2048,0.16,0.1778,-0.0114,0.525,-1.575,-5.1975,-11.471583221685158,-2.554650304101858,-0.4292440000088848,1.0469999999986612
-0.045,1.0085,-0.2065,0.1589,0.1775,-0.0138,0.2013,-1.6275,-4.935,-11.509650999660494,-2.542466273501437,-0.45365650000793745,1.0619999999980791
-0.045,1.0092,-0.2029,0.1589,0.1775,-0.0138,-0.105,-2.1437,-4.9525,-11.476478161135315,-2.533582261555905,-0.45365650000793745,1.0619999999980791
-0.045,1.0092,-0.2044,0.1594,0.1763,-0.0157,-0.105,-2.1437,-4.9525,-11.470196438236435,-2.5265402326691944,-0.4879557000149251,1.0780000000013388
-0.0424,1.0091,-0.2044,0.1594,0.1763,-0.0157,0.2275,-1.8025,-5.39,-11.462612083502718,-2.505075678988398,-0.4879557000149251,1.0780000000013388
-0.0418,1.0068,-0.2067,0.1589,0.1781,-0.0077,-0.2625,-1.5925,-5.3637,-11.480529240384497,-2.48622474655352,-0.5118432000024112,1.0929999999934807
-0.0411,1.0072,-0.2018,0.1589,0.1781,-0.0077,0.035,-1.61,-5.3113,-11.434041776756443,-2.4739085112880996,-0.5118432000024112,1.0929999999934807
-0.0426,1.0056,-0.2061,0.1589,0.1781,-0.0077,0.035,-1.61,-5.3113,-11.479775461058201,-2.46775051010278,-0.5376032000076593,1.1089999999967404
-0.0411,1.0061,-0.2081,0.159,0.1806,-0.0088,0.245,-1.6275,-5.3375,-11.561474514887546,-2.452605504244459,-0.5376032000076593,1.1089999999967404
-0.0411,1.0061,-0.2081,0.159,0.1806,-0.0088,-0.0525,-2.1088,-5.7137,-11.594326246060296,-2.4008981737161506,-0.5713440000145331,1.125
-0.0403,1.0056,-0.2054,0.1598,0.1786,-0.0046,0.1663,-1.26,-5.5213,-11.57600339515827,-2.367813378295533,-0.5713440000145331,1.125
-0.0371,1.0045,-0.2083,0.1598,0.1786,-0.0046,0.1663,-1.26,-5.5213,-11.626907748109513,-2.3033892194683947,-0.5902440000137997,1.139999999999418
-0.0415,1.0066,-0.2067,0.1598,0.1786,-0.0046,-0.2713,-0.7,-5.6525,-11.624123637463555,-2.3060747384833316,-0.5902440000137997,1.139999999999418
-0.0443,1.0064,-0.2043,0.16,0.1792,-0.0088,-0.4988,-0.98,-5.3113,-11.611999380349587,-2.3164364940151745,-0.6059240000169942,1.1560000000026776
-0.0443,1.0064,-0.2043,0.16,0.1792,-0.0088,-0.4988,-0.98,-5.6788,-11.600861903669477,-2.3630169034702138,-0.6059240000169942,1.1560000000026776
-0.045,1.0063,-0.2064,0.159,0.1775,-0.0114,-0.3325,-1.2337,-5.6788,-11.600154818660732,-2.4070561574441713,-0.6244295000072998,1.1709999999948195
-0.0448,1.0061,-0.2049,0.159,0.1775,-0.0114,-0.63,-1.3038,-5.9325,-11.584143707063717,-2.444300293925825,-0.6244295000072998,1.1709999999948195
-0.0465,1.0066,-0.2049,0.159,0.1775,-0.0114,-0.1225,-1.7062,-5.8012,-11.566625354799811,-2.4970963946315026,-0.6517287000128614,1.1869999999980791
-0.0456,1.0058,-0.2023,0.1589,0.1786,-0.0047,-0.1225,-1.7062,-5.8012,-11.523222648999667,-2.5142203667715095,-0.6790279000184231,1.2030000000013388
-0.0453,1.0049,-0.2088,0.1589,0.1786,-0.0047,-0.4988,-1.6975,-5.8187,-11.540703422259497,-2.518954591174111,-0.6790279000184231,1.2030000000013388
-0.0453,1.0049,-0.2088,0.159,0.1782,-0.0098,-0.14,-1.9075,-6.37,-11.582673536764904,-2.523316851422213,-0.7076404000173128,1.2180000000007567
-0.044,1.0085,-0.2029,0.159,0.1782,-0.0098,-0.315,-1.89,-6.4488,-11.564662484615404,-2.4827963859131983,-0.7076404000173128,1.2180000000007567
-0.0418,1.0081,-0.2056,0.159,0.1782,-0.0098,-0.315,-1.89,-6.4488,-11.561412253645363,-2.3973970472356374,-0.7378804000097219,1.2339999999967404
-0.0437,1.0067,-0.2051,0.1606,0.1784,-0.0042,-0.3938,-1.6275,-6.51,-11.560672273588088,-2.418757484686306,-0.7378804000097219,1.2339999999967404
-0.0432,1.0102,-0.2074,0.1606,0.1784,-0.0042,-0.525,-2.065,-6.3088,-11.564922361754991,-2.408424879116754,-0.7688554000085199,1.2489999999961583
-0.0432,1.0102,-0.2074,0.1627,0.179,-0.0075,-0.6562,-1.995,-5.9938,-11.572231616800119,-2.4042668330013908,-0.7688554000085199,1.2489999999961583
-0.0439,1.0078,-0.2065,0.1627,0.179,-0.0075,-0.6562,-1.995,-5.9938,-11.573710996080166,-2.421095415530097,-0.8007754000150229,1.264999999999418
-0.0434,1.0097,-0.2053,0.1627,0.179,-0.0145,-1.015,-1.5662,-6.2737,-11.543348414021855,-2.4164508301189067,-0.8007754000150229,1.264999999999418
-0.0461,1.0065,-0.2061,0.161,0.1786,-0.0145,-1.3737,-1.785,-6.6937,-11.557616052063468,-2.5068534826054716,-0.8293354000208414,1.2810000000026776
-0.0467,1.0055,-0.2064,0.161,0.1786,-0.0145,-1.5925,-1.995,-6.8075,-11.580592882930407,-2.566672158049406,-0.8293354000208414,1.2810000000026776
-0.0418,1.0085,-0.2028,0.1625,0.178,-0.0109,-1.5925,-1.995,-6.8075,-11.466506054312424,-2.4204235027602365,-0.8592604000051646,1.2959999999948195
-0.0418,1.0085,-0.2028,0.1625,0.178,-0.0109,-0.945,-2.0125,-6.9388,-11.43288220534128,-2.3615983232662954,-0.8592604000051646,1.2959999999948195
-0.0426,1.0109,-0.2037,0.1623,0.1773,-0.0105,-1.3475,-1.8463,-6.8775,-11.41346337294905,-2.364057482177337,-0.8888012000111828,1.3119999999980791
-0.04,1.0045,-0.2046,0.1623,0.1773,-0.0105,-1.3475,-1.1025,-6.8162,-11.46148333871016,-2.284882111606153,-0.8888012000111828,1.3119999999980791
-0.0422,1.0094,-0.1992,0.1623,0.1773,-0.0105,-1.9162,-1.1025,-6.8162,-11.28245976431911,-2.3239057379500303,-0.9053387000105411,1.326999999997497
-0.0428,1.0091,-0.2037,0.1622,0.1789,-0.0044,-1.75,-0.945,-6.79,-11.356942385215282,-2.3584089675718607,-0.9053387000105411,1.326999999997497
-0.0428,1.0091,-0.2037,0.1622,0.1789,-0.0044,-2.3625,-0.7437,-6.8075,-11.393704547213384,-2.3720200738765325,-0.9172379000129652,1.3430000000007567
-0.0445,1.0099,-0.2045,0.1634,0.1802,-0.0107,-2.3625,-0.7437,-6.8075,-11.429170930181316,-2.433555239990687,-0.9172379000129652,1.3430000000007567
-0.0445,1.0064,-0.2009,0.1634,0.1802,-0.0107,-2.1437,-0.805,-7.5075,-11.340360791990204,-2.467763155787974,-0.9301179000155892,1.3590000000040163
-0.0447,1.0045,-0.2026,0.1634,0.1802,-0.0107,-2.0563,-1.1375,-7.6038,-11.37941422745511,-2.488814824841438,-0.9301179000155892,1.3590000000040163
-0.0421,1.0064,-0.2037,0.1629,0.1794,-0.0083,-1.2862,-1.6013,-7.4462,-11.40880029685339,-2.3918768207404444,-0.9541374000030062,1.3739999999961583
-0.0408,1.0098,-0.2043,0.1629,0.1794,-0.0083,-1.2862,-1.6013,-7.4462,-11.422220230653384,-2.306562240219248,-0.9541374000030062,1.3739999999961583
-0.0408,1.0098,-0.2043,0.161,0.1791,-0.0093,-0.8225,-1.4612,-7.5163,-11.42669254831273,-2.2796616476712703,-0.9775166000077692,1.389999999999418
-0.0412,1.0052,-0.2023,0.161,0.1791,-0.0093,-0.9013,-1.855,-7.3587,-11.410975831402876,-2.294133322594362,-0.9775166000077692,1.389999999999418
-0.0429,1.0118,-0.2026,0.161,0.1791,-0.0093,-0.3413,-1.3038,-7.595,-11.405305001596636,-2.3548450137818717,-0.9970736000070103,1.4049999999988358
-0.0432,1.0177,-0.1998,0.1625,0.1794,-0.0061,-0.3413,-1.3038,-7.595,-11.386097845599606,-2.376135963669615,-0.9970736000070103,1.4049999999988358
-0.0433,1.0152,-0.2019,0.1625,0.1794,-0.0061,-0.4288,-0.8925,-7.245,-11.383577124580915,-2.3889980035734113,-1.0113536000099195,1.4210000000020955
-0.0433,1.0152,-0.2019,0.164,0.1798,-0.0102,-0.35,-0.1575,-7.1575,-11.37588191362837,-2.393219427382997,-1.0113536000099195,1.4210000000020955
-0.0506,1.0113,-0.2001,0.164,0.1798,-0.0102,-0.4638,-0.56,-7.1487,-11.36653819182985,-2.6665180921887157,-1.0208736000098217,1.4380000000019209
-0.0553,1.0089,-0.2006,0.164,0.1798,-0.0102,-0.4638,-0.56,-7.1487,-11.360379717352561,-2.935852331586983,-1.0208736000098217,1.4380000000019209
-0.0501,1.0096,-0.1986,0.1631,0.1799,-0.0054,-0.56,-1.05,-7.3238,-11.330189397225832,-2.835707304482811,-1.0366236000092106,1.4530000000013388
-0.0506,1.0079,-0.2015,0.1631,0.1799,-0.0054,-0.63,-0.6125,-7.2537,-11.325751265774565,-2.824118030507575,-1.0366236000092106,1.4530000000013388
-0.0506,1.0086,-0.1962,0.165,0.1798,-0.0057,-0.4025,-0.56,-6.7725,-11.323324057888136,-2.8211929377129032,-1.0455836000069614,1.4689999999973224
-0.0495,1.0086,-0.1962,0.165,0.1798,-0.0057,-0.4025,-0.56,-6.7725,-11.320915396692913,-2.7830432654465027,-1.0455836000069614,1.4689999999973224
-0.0526,1.0089,-0.1965,0.1652,0.1795,-0.0043,-0.6737,-0.2362,-6.09,-11.258436353265148,-2.8501778652881993,-1.0491266000068238,1.4839999999967404
-0.058,1.0087,-0.2,0.1652,0.1795,-0.0043,-0.3413,0.2362,-5.4075,-11.255627962238433,-2.9033286652298895,-1.0491266000068238,1.4839999999967404
-0.0612,1.0086,-0.1976,0.1652,0.1795,-0.0043,-0.3413,0.2362,-5.4075,-11.244610968499524,-2.9742540309609753,-1.0453474000060539,1.5
-0.0589,1.0083,-0.1932,0.163,0.1795,-0.0095,-0.35,-0.2975,-5.3987,-11.222031256635596,-3.015719637004808,-1.0453474000060539,1.5
-0.0589,1.0083,-0.1932,0.163,0.1795,-0.0095,-0.77,-0.7,-5.4425,-11.122786395916863,-3.060100780524182,-1.0565474000032424,1.5159999999959837
-0.0593,1.008,-0.1962,0.1628,0.1784,-0.0077,-0.7613,-1.015,-4.9612,-11.094645410214746,-3.1140523662132344,-1.0565474000032424,1.5159999999959837
-0.0604,1.0073,-0.1932,0.1628,0.1784,-0.0077,-0.7613,-1.015,-4.9612,-11.03301128660036,-3.1705004015604006,-1.0717724000026516,1.5309999999954016
-0.059,1.0063,-0.1962,0.1628,0.1784,-0.0077,-0.9013,-1.365,-4.5237,-11.032890889460397,-3.222025074958532,-1.0717724000026516,1.5309999999954016
-0.0608,1.0069,-0.194,0.1618,0.1799,-0.0048,-0.9187,-1.5925,-4.6988,-10.989974249402495,-3.2824328275174457,-1.0972524000078425,1.5469999999986612
-0.0608,1.0069,-0.1964,0.1618,0.1799,-0.0048,-1.0412,-1.7413,-4.4975,-11.008243591578498,-3.329153409436551,-1.0972524000078425,1.5469999999986612
-0.0602,1.0064,-0.1964,0.1638,0.1798,-0.0085,-1.0412,-1.7413,-4.4975,-11.021514226604376,-3.3423194385794823,-1.123371900006829,1.5619999999980791
-0.0542,1.002,-0.1961,0.1638,0.1798,-0.0085,-1.33,-2.0125,-4.5413,-11.046332801617401,-3.2170211016059254,-1.123371900006829,1.5619999999980791
-0.05,1.0078,-0.1994,0.1638,0.1798,-0.0085,-0.9275,-1.6712,-4.4887,-11.09592965342687,-3.0317261877820982,-1.1501111000122763,1.5780000000013388
-0.0434,1.0088,-0.1945,0.1623,0.1797,-0.003,-0.5337,-1.33,-4.6988,-11.075811311354107,-2.8155427713205796,-1.1713911000069346,1.5939999999973224
-0.0401,1.0074,-0.1986,0.1623,0.1797,-0.003,-0.5337,-1.33,-4.6988,-11.084224391327583,-2.611259310027729,-1.1713911000069346,1.5939999999973224
-0.0401,1.0074,-0.1986,0.163,0.1802,-0.0063,-0.735,-1.5575,-4.3313,-11.100925825294757,-2.4324350285105876,-1.194753600006028,1.6089999999967404
-0.0426,1.0016,-0.2,0.163,0.1802,-0.0063,-0.5425,-1.0325,-4.1388,-11.123289848521887,-2.409287327638921,-1.194753600006028,1.6089999999967404
-0.0482,1.0027,-0.1996,0.163,0.1802,-0.0063,0.3413,-0.1925,-4.6025,-11.18120713789083,-2.522580899158722,-1.1978336000066554,1.625
-0.0477,1.0072,-0.1979,0.1621,0.1771,-0.0154,0.3413,-0.1925,-4.6025,-11.153302413584099,-2.576531394261804,-1.1978336000066554,1.625
-0.0486,1.0099,-0.2001,0.1621,0.1771,-0.0154,0.7437,-0.1663,-4.6375,-11.18225069665606,-2.6241541894012284,-1.2003281000065587,1.639999999999418
-0.0486,1.0099,-0.2008,0.1615,0.1786,-0.0127,0.7262,-0.3063,-5.04,-11.215919254658148,-2.637393871790703,-1.2003281000065587,1.639999999999418
-0.0474,1.0124,-0.2008,0.1615,0.1786,-0.0127,0.7262,-0.3063,-5.4075,-11.217282580556184,-2.636277065931579,-1.2052289000075571,1.6560000000026776
-0.0458,1.0125,-0.1978,0.1619,0.1791,-0.0007,0.1225,-0.4638,-5.4075,-11.160522052929128,-2.623019647409957,-1.2052289000075571,1.6560000000026776
-0.0492,1.0114,-0.2029,0.1619,0.1791,-0.0007,0.035,-0.2013,-6.1863,-11.216950978502242,-2.675245214776223,-1.2084497000067487,1.6719999999986612
-0.055,1.01,-0.1968,0.1619,0.1791,-0.0007,0.2887,-0.175,-6.265,-11.138401445086036,-2.8694113461762294,-1.2084497000067487,1.6719999999986612
-0.0512,1.0105,-0.196,0.1628,0.1784,-0.0064,0.2887,-0.175,-6.265,-11.071995229020867,-2.8583915600464143,-1.2110747000066469,1.6869999999980791
-0.0512,1.0105,-0.196,0.1628,0.1784,-0.0064,-0.0787,-0.4988,-6.23,-11.04833951530734,-2.8530333485554547,-1.2110747000066469,1.6869999999980791
-0.0533,1.0095,-0.2017,0.1636,0.1802,-0.0147,-0.245,-0.9275,-6.6325,-11.083880173422042,-2.9174547128304362,-1.2259147000096702,1.7030000000013388
-0.0525,1.0082,-0.1992,0.1636,0.1802,-0.0147,0.0875,-0.5775,-6.6238,-11.114671663925465,-2.921502902688909,-1.2259147000096702,1.7030000000013388
-0.05,1.0107,-0.1987,0.1636,0.1802,-0.0147,0.0875,-0.5775,-6.6238,-11.117206594529634,-2.838900907168366,-1.234577200009334,1.7180000000007567
-0.0511,1.011,-0.1997,0.1638,0.1799,-0.0106,-0.2187,-0.6212,-6.4488,-11.12627606534873,-2.8388125122441275,-1.234577200009334,1.7180000000007567
-0.0511,1.011,-0.1967,0.1638,0.1799,-0.0106,0.42,-0.0787,-6.0813,-11.073491798522223,-2.8395028707960153,-1.2358364000095905,1.7340000000040163
-0.0511,1.0123,-0.1967,0.1634,0.1793,-0.0117,-0.1225,0.2975,-5.8888,-11.056204706350226,-2.8384503055033137,-1.2358364000095905,1.7340000000040163
-0.0526,1.0089,-0.2013,0.1634,0.1793,-0.0117,-0.1225,0.2975,-5.8888,-11.107036348117669,-2.8731218099420897,-1.23107640001295,1.749999999992724
-0.0558,1.0094,-0.1973,0.1634,0.1793,-0.0117,0.0875,0.0525,-5.7312,-11.091320548394842,-2.949248550131242,-1.23107640001295,1.749999999992724
-0.0578,1.0037,-0.1965,0.1633,0.1793,-0.0164,0.4375,-0.3588,-5.3987,-11.084757424204243,-2.987501763781419,-1.2364584000153518,1.764999999999418
-0.0583,1.0044,-0.2002,0.1633,0.1793,-0.0164,0.1925,-0.5863,-5.1188,-11.155407118831612,-3.0175773229168037,-1.2364584000153518,1.764999999999418
-0.0583,1.0044,-0.2002,0.1619,0.1798,-0.009,0.1925,-0.5863,-5.1188,-11.199488790153358,-3.044309347362605,-1.245839200012997,1.7809999999954016
-0.0592,1.0095,-0.1988,0.1619,0.1798,-0.009,0.2625,-0.4112,-4.9088,-11.175827826402175,-3.106736306026658,-1.245839200012997,1.7809999999954016
-0.0549,1.0042,-0.195,0.1619,0.1798,-0.009,0.56,-1.12,-4.795,-11.083917890459599,-3.095973809720884,-1.262639200012345,1.7959999999948195
-0.0556,1.0074,-0.2006,0.1621,0.1805,-0.005,0.56,-1.12,-4.6287,-11.171513422879428,-3.0968721162003363,-1.262639200012345,1.7959999999948195
-0.0562,1.0082,-0.1986,0.1621,0.1805,-0.005,0.8925,-1.015,-4.6287,-11.155789223164886,-3.109678655258808,-1.2788792000156535,1.8119999999980791
-0.0562,1.0082,-0.1986,0.1638,0.1795,-0.0096,1.05,-0.5775,-4.48,-11.148625050109196,-3.1186941010979985,-1.2788792000156535,1.8119999999980791
-0.0517,1.0088,-0.2018,0.1638,0.1795,-0.0096,0.2362,-0.9625,-4.3225,-11.21281427712796,-3.0027384065827074,-1.2942792000117878,1.8279999999940628
-0.0489,1.0138,-0.2045,0.1638,0.1795,-0.0122,0.2362,-0.9625,-4.3225,-11.28805576113102,-2.860941173909879,-1.2942792000117878,1.8279999999940628
-0.0448,1.0033,-0.2017,0.1638,0.1803,-0.0122,0.1838,-1.0412,-4.8125,-11.317484711440752,-2.7541600462179905,-1.3098972000187574,1.8430000000007567
-0.044,1.0056,-0.1996,0.1638,0.1803,-0.0122,0.4638,-0.6737,-4.5588,-11.275113879478306,-2.6335496259258595,-1.3098972000187574,1.8430000000007567
-0.047,1.0057,-0.2053,0.1634,0.1789,-0.0118,0.3237,-0.875,-4.2,-11.38622971883431,-2.627498767377663,-1.3238972000152431,1.8589999999967404
-0.047,1.0057,-0.2053,0.1634,0.1789,-0.0118,0.3237,-0.875,-4.2,-11.450314060120428,-2.6245382851624033,-1.3238972000152431,1.8589999999967404
-0.0454,1.0068,-0.205,0.1627,0.1793,-0.007,0.6212,-0.385,-4.6025,-11.480097435211146,-2.5876224884282464,-1.329672200015019,1.8739999999961583
-0.0444,1.0068,-0.2034,0.1627,0.1793,-0.007,0.2887,-0.4375,-5.1537,-11.45599865932585,-2.5783209507901166,-1.329672200015019,1.8739999999961583
-0.05,1.0086,-0.2069,0.1627,0.1793,-0.007,0.245,-0.2275,-5.32,-11.51006931820393,-2.592604358476635,-1.3333122000157605,1.889999999999418
-0.0522,1.0078,-0.2075,0.1634,0.1813,0.0023,0.245,-0.2275,-5.32,-11.559235575338054,-2.6146484620842085,-1.3369522000148468,1.9059999999954016
-0.0522,1.0078,-0.2075,0.1634,0.1813,0.0023,0.1838,-0.2362,-5.2762,-11.587199066269468,-2.6237158024188343,-1.3369522000148468,1.9059999999954016
-0.0487,1.0077,-0.2037,0.163,0.1802,-0.0104,0.035,-0.6388,-5.8275,-11.538148888103139,-2.6562737793303746,-1.346534200019123,1.9210000000020955
-0.0473,1.0061,-0.2041,0.163,0.1802,-0.0104,-0.07,-0.7613,-5.5388,-11.520227508521971,-2.6521166633276865,-1.346534200019123,1.9210000000020955
-0.0522,1.008,-0.2054,0.163,0.1802,-0.0104,-0.07,-0.7613,-5.5388,-11.51952742431028,-2.7096811796296607,-1.3587150000160653,1.9369999999980791
-0.0515,1.006,-0.2067,0.1638,0.1808,-0.0181,0.175,-0.98,-6.2125,-11.553226730634073,-2.7889120483973193,-1.3587150000160653,1.9369999999980791
-0.0515,1.0059,-0.2072,0.1638,0.1808,-0.0181,0.1312,-0.8487,-5.9237,-11.583444613756072,-2.822012228265387,-1.3714455000155712,1.951999999997497
-0.0501,1.0059,-0.2072,0.1624,0.1794,-0.011,0.1312,-0.8487,-6.0988,-11.603048793801486,-2.808543106688688,-1.3714455000155712,1.951999999997497
-0.0522,1.0064,-0.2108,0.1624,0.1794,-0.011,-0.7175,-1.0063,-6.0988,-11.65642363568647,-2.853553993677864,-1.3875463000188513,1.9680000000007567
-0.0534,1.0072,-0.206,0.1624,0.1794,-0.011,-0.5425,-1.5225,-6.265,-11.645056608077693,-2.914123945050195,-1.3875463000188513,1.9680000000007567
-0.0536,1.006,-0.208,0.1635,0.179,-0.008,0.0525,-1.3038,-6.4662,-11.656691044384402,-2.954096006702479,-1.4084071000136147,1.9839999999967404
-0.0515,1.0118,-0.2089,0.1635,0.179,-0.008,0.0525,-1.3038,-6.4662,-11.659504853738738,-2.8988869848528767,-1.4084071000136147,1.9839999999967404
-0.0515,1.0118,-0.2089,0.1611,0.1801,-0.0124,-0.0437,-1.4787,-6.1687,-11.66113587458761,-2.8771853835696413,-1.430587600023513,1.9990000000034343
-0.052,1.0133,-0.2062,0.1611,0.1801,-0.0124,-0.8225,-1.9075,-6.1075,-11.614756978443216,-2.8779335250481766,-1.430587600023513,1.9990000000034343
-0.0504,1.0107,-0.2068,0.1611,0.1801,-0.0124,-1.19,-1.3475,-6.2125,-11.592394383199776,-2.8380719360889675,-1.4521476000181008,2.014999999999418
-0.0493,1.0105,-0.2081,0.1626,0.1818,-0.0125,-1.19,-1.3475,-6.2125,-11.61179487219807,-2.7877488307068368,-1.4521476000181008,2.014999999999418
-0.0503,1.01,-0.2049,0.1626,0.1818,-0.0125,-1.33,-0.7875,-6.3263,-11.542915338630063,-2.791132825796394,-1.4639601000176425,2.029999999998836
-0.0503,1.0068,-0.2077,0.1642,0.1805,-0.0126,-1.5925,-1.12,-5.9763,-11.604415792758637,-2.795407626249783,-1.4639601000176425,2.029999999998836
-0.0487,1.0068,-0.2077,0.1642,0.1805,-0.0126,-1.7938,-1.4963,-6.475,-11.634610290485087,-2.7495349788798356,-1.487900900011633,2.0459999999948195
-0.0533,1.007,-0.21,0.1642,0.1802,-0.0066,-1.7938,-1.4963,-6.475,-11.718800421741902,-2.869043724222995,-1.487900900011633,2.0459999999948195
-0.0556,1.0103,-0.2089,0.1642,0.1802,-0.0066,-1.8288,-1.7237,-6.3612,-11.697468029798594,-2.9829340366321024,-1.5154801000172515,2.061999999998079
-0.0507,1.0117,-0.2066,0.1642,0.1802,-0.0066,-1.3563,-2.0825,-6.9563,-11.621751671946608,-2.8743777927672762,-1.5154801000172515,2.061999999998079
-0.0465,1.0088,-0.2061,0.1643,0.1828,-0.0126,-1.2075,-2.1175,-7.385,-11.588479822594348,-2.677675118003941,-1.5472426000160189,2.076999999997497
-0.0465,1.0088,-0.2061,0.1643,0.1828,-0.0126,-1.2075,-2.1175,-7.385,-11.569967693649675,-2.615053370259078,-1.5472426000160189,2.076999999997497
-0.0462,1.0164,-0.2065,0.1649,0.1791,-0.0108,-1.6363,-2.1613,-7.315,-11.522816275528251,-2.5715370269149984,-1.5818234000073383,2.0929999999934807
-0.0426,1.0149,-0.204,0.1649,0.1791,-0.0108,-2.3712,-1.6013,-7.56,-11.418490825414041,-2.421329830579622,-1.5818234000073383,2.0929999999934807
-0.0447,1.0149,-0.2045,0.1649,0.1791,-0.0108,-2.835,-1.2862,-7.7787,-11.40003182435957,-2.4578556661461426,-1.601116400015948,2.1080000000001746
-0.0494,1.0119,-0.2006,0.1632,0.1807,-0.0065,-2.835,-1.2862,-7.7787,-11.267603288840746,-2.6613555710512484,-1.601116400015948,2.1080000000001746
-0.0494,1.0059,-0.1977,0.1632,0.1807,-0.0065,-2.9137,-0.91,-8.365,-11.161565950290735,-2.735196705710584,-1.615676400012293,2.1239999999961583
-0.0509,1.0059,-0.1977,0.165,0.1813,-0.009,-2.7912,-0.6125,-8.4175,-11.131737860094667,-2.816783107890535,-1.615676400012293,2.1239999999961583
-0.0486,1.0023,-0.1995,0.165,0.1813,-0.009,-2.7912,-0.6125,-8.7238,-11.220060819289388,-2.7436886637223994,-1.6254764000142894,2.139999999999418
-0.051,1.0032,-0.2007,0.165,0.1813,-0.009,-3.1675,-0.5425,-8.7238,-11.288431261468734,-2.8292249155421003,-1.6254764000142894,2.139999999999418
-0.0487,1.001,-0.1961,0.1661,0.1827,-0.012,-2.1613,-0.2187,-9.0825,-11.158375001135983,-2.753238312083784,-1.6287569000141622,2.154999999998836
-0.0525,1.0003,-0.1972,0.1661,0.1827,-0.012,-2.4413,0.2537,-8.5312,-11.154324377562984,-2.9023713629241676,-1.6287569000141622,2.154999999998836
-0.0525,1.0003,-0.1972,0.1651,0.182,-0.0145,-2.4413,0.2537,-8.5312,-11.152988023245083,-2.9371560096736054,-1.6246977000151812,2.1709999999948195
-0.0592,1.0061,-0.1998,0.1651,0.182,-0.0145,-2.1788,0.63,-7.7613,-11.203560379812773,-3.199066787823638,-1.6246977000151812,2.1709999999948195
-0.0605,1.0088,-0.1986,0.1651,0.182,-0.0145,-1.5313,0.21,-7.4375,-11.16851574459819,-3.314801542397232,-1.6215477000137755,2.1860000000015134
-0.0593,1.0094,-0.1954,0.165,0.1837,-0.0088,-2.0475,0.0525,-7.2537,-11.03647374304406,-3.305581125950874,-1.6215477000137755,2.1860000000015134
-0.0627,1.016,-0.1979,0.165,0.1837,-0.0088,-2.0475,0.0525,-7.2537,-11.027647288575476,-3.412975109154294,-1.6207077000139862,2.201999999997497
-0.0627,1.016,-0.1954,0.1672,0.1819,-0.0134,-1.9338,0.2275,-7.0788,-10.94234863951385,-3.448588674821584,-1.6207077000139862,2.201999999997497
-0.0615,1.0184,-0.1954,0.1672,0.1819,-0.0134,-2.2838,-0.0875,-7.77,-10.889517210593345,-3.409529889932149,-1.6221077000142714,2.2180000000007567
-0.0577,1.0142,-0.1938,0.1654,0.1811,-0.0054,-2.9313,-0.0263,-7.9625,-10.838341026975376,-3.255192579222589,-1.6221077000142714,2.2180000000007567
-0.057,1.011,-0.1956,0.1654,0.1811,-0.0054,-2.9313,-0.0263,-7.9625,-10.918169375771622,-3.191652901730529,-1.6225022000142562,2.2330000000001746
-0.0631,1.0103,-0.1934,0.1654,0.1811,-0.0054,-3.0187,-0.0962,-8.19,-10.859443306916226,-3.4295419458927894,-1.6225022000142562,2.2330000000001746
-0.0667,1.0078,-0.194,0.1671,0.1838,-0.0053,-3.2812,-0.0875,-7.9275,-10.886608116240721,-3.6400245512508618,-1.6239022000139047,2.2489999999961583
-0.0667,1.0078,-0.194,0.1671,0.1838,-0.0053,-3.1063,-0.49,-7.7787,-10.89350996998657,-3.6962683387938027,-1.6239022000139047,2.2489999999961583
-0.0677,1.0074,-0.1979,0.1682,0.1826,-0.0092,-3.1063,-0.49,-7.7787,-11.054358660509639,-3.751117779668618,-1.6312522000171847,2.264000000002852
-0.0636,1.0127,-0.1883,0.1682,0.1826,-0.0092,-2.17,-0.6037,-7.455,-10.722043415253202,-3.6010585265216832,-1.64091140001476,2.279999999998836
-0.0595,1.0125,-0.1914,0.1682,0.1826,-0.0092,-2.38,-0.8838,-7.7175,-10.710544144325398,-3.3900504978283594,-1.695707000019493,2.342000000004191
-0.0611,1.0117,-0.1913,0.167,0.1821,-0.0101,-2.38,-0.8838,-7.1137,-10.708530026638543,-3.39396286391332,-1.7098478000095128,2.3579999999928987
-0.0611,1.0117,-0.1876,0.167,0.1821,-0.0101,-2.2838,-0.3063,-7.1137,-10.575869186148276,-3.3967872034470914,-1.7098478000095128,2.3579999999928987
-0.0612,1.0044,-0.1876,0.1667,0.1812,-0.0084,-2.8875,-0.4638,-6.5188,-10.578596330671095,-3.414110299143956,-1.7172686000110247,2.3739999999961583
-0.0665,1.0013,-0.1926,0.1667,0.1812,-0.0084,-1.7325,-0.7788,-5.8362,-10.754689630725258,-3.5321526106375765,-1.7172686000110247,2.3739999999961583
-0.0687,1.0053,-0.1882,0.1667,0.1812,-0.0084,-1.7325,-0.7788,-5.8362,-10.668592646475092,-3.6477226825508957,-1.7172686000110247,2.3739999999961583
-0.0653,1.0095,-0.1868,0.1686,0.1832,-0.0018,-0.9887,-1.085,-5.3288,-10.600777058123347,-3.647074009623452,-1.7172686000110247,2.3739999999961583
-0.0695,1.013,-0.1903,0.1686,0.1832,-0.0018,-0.5075,-1.295,-5.0925,-10.604207233632852,-3.6747442613954644,-1.7172686000110247,2.3739999999961583
-0.0695,1.013,-0.1903,0.1686,0.1826,-0.0107,-0.7962,-1.4963,-4.7688,-10.614025336454262,-3.733615717810182,-1.7172686000110247,2.3739999999961583
-0.0695,1.0114,-0.1858,0.1686,0.1826,-0.0107,-0.7962,-1.4963,-4.7688,-10.557065380885593,-3.7764113621897777,-1.7172686000110247,2.3739999999961583
-0.0697,1.0116,-0.1888,0.1686,0.1826,-0.0107,-0.7262,-2.0213,-4.515,-10.560596756303699,-3.81788889541473,-1.747588100009848,2.388999999995576
-0.0714,1.0127,-0.1893,0.168,0.1829,-0.0025,0.0875,-1.47,-4.5062,-10.569664340957157,-3.8801275539230886,-1.747588100009848,2.388999999995576
-0.0681,1.01,-0.1862,0.168,0.1829,-0.0025,-0.1838,-1.8813,-4.7775,-10.546754155378192,-3.8526187017436464,-1.747588100009848,2.388999999995576
-0.0681,1.01,-0.1898,0.167,0.1822,-0.0046,-0.1838,-1.8813,-4.7775,-10.564511369312289,-3.833087756952123,-1.747588100009848,2.388999999995576
-0.0683,1.0099,-0.1898,0.167,0.1822,-0.0046,0.1925,-2.2575,-4.5588,-10.594393551232102,-3.820722840315894,-1.747588100009848,2.388999999995576
-0.0649,1.0157,-0.1906,0.168,0.1823,-0.009,-0.3762,-2.8263,-4.41,-10.595504181479816,-3.7174000436583903,-1.7928089000190608,2.404999999998836
-0.0595,1.0116,-0.1872,0.168,0.1823,-0.009,-0.665,-3.2375,-4.7775,-10.572897730726337,-3.587846206230404,-1.7928089000190608,2.404999999998836
-0.0608,1.0092,-0.1915,0.168,0.1823,-0.009,-0.665,-3.2375,-4.7775,-10.607718400298394,-3.524082077820832,-1.8413714000171764,2.4199999999982538
-0.0616,1.0093,-0.1903,0.1683,0.182,-0.0116,-0.2713,-2.835,-5.0838,-10.616237351747586,-3.511409029133835,-1.8413714000171764,2.4199999999982538
-0.0616,1.0093,-0.1903,0.1683,0.182,-0.0116,-0.455,-2.765,-4.5325,-10.618867188239928,-3.4785004863621913,-1.8856114000060713,2.4359999999942374
-0.0583,1.0116,-0.1868,0.1669,0.1831,-0.0106,-0.3413,-2.5463,-4.5675,-10.608773025314052,-3.383753479836946,-1.8856114000060713,2.4359999999942374
-0.0595,1.0121,-0.1901,0.1669,0.1831,-0.0106,-0.3413,-2.5463,-4.5675,-10.610642112905909,-3.352695287801124,-1.9288985000241534,2.4530000000013388
-0.0596,1.0113,-0.1889,0.1669,0.1831,-0.0106,-0.525,-2.6862,-4.8913,-10.60751877608463,-3.34301464471503,-1.9288985000241534,2.4530000000013388
-0.0551,1.0084,-0.1906,0.1686,0.1829,-0.0121,-0.9887,-2.7125,-5.1712,-10.642635198198581,-3.324739622866979,-1.9695860000225744,2.4680000000007567
-0.0551,1.0084,-0.191,0.1686,0.1829,-0.0121,-0.9887,-2.7125,-5.0662,-10.672923315229557,-3.286768493203338,-1.9695860000225744,2.4680000000007567
-0.0556,1.0064,-0.191,0.1693,0.1833,-0.0069,-1.0063,-2.1875,-5.0662,-10.700252033734682,-3.2596207499272576,-2.0045860000137887,2.4839999999967404
-0.0559,1.0081,-0.1892,0.1693,0.1833,-0.0069,-0.7262,-2.205,-5.39,-10.683288519163748,-3.2417555521909374,-2.0045860000137887,2.4839999999967404
-0.0576,1.0085,-0.189,0.1693,0.1833,-0.0069,-0.5775,-2.5463,-5.3025,-10.67343101252057,-3.240166113043966,-2.0427805000308332,2.4990000000034343
-0.0556,1.0052,-0.1918,0.1676,0.1849,-0.0123,-0.5775,-2.5463,-5.3025,-10.691948287681772,-3.232954842719947,-2.0427805000308332,2.4990000000034343
-0.0552,1.0091,-0.19,0.1676,0.1849,-0.0123,-0.0175,-1.75,-5.145,-10.683838415274332,-3.2189331299395088,-2.0707805000238046,2.514999999999418
-0.0552,1.0091,-0.19,0.1682,0.1822,-0.0038,0.07,-1.365,-5.5388,-10.67713872268148,-3.1866351014424628,-2.0707805000238046,2.514999999999418
-0.0528,1.006,-0.1839,0.1682,0.1822,-0.0038,-0.0787,-1.6187,-5.705,-10.59804891994238,-3.1136993097637635,-2.096679700029081,2.5310000000026776
-0.0551,1.0025,-0.193,0.1682,0.1822,-0.0038,-0.0787,-1.6187,-5.705,-10.672524146447197,-3.10601234318519,-2.096679700029081,2.5310000000026776
-0.0583,1.004,-0.1893,0.1668,0.1814,-0.006,0.1925,-1.5313,-5.425,-10.674406660834357,-3.1305291414229286,-2.1196492000170477,2.5459999999948195
-0.0598,1.0091,-0.1887,0.1668,0.1814,-0.006,0.7437,-1.1463,-5.5388,-10.630197437896634,-3.1768179449860248,-2.1196492000170477,2.5459999999948195
-0.0598,1.0091,-0.1949,0.1674,0.1823,-0.0051,0.5337,-1.365,-5.7575,-10.776568857784193,-3.2288055259671573,-2.141489200021497,2.561999999998079
-0.0605,1.012,-0.1949,0.1674,0.1823,-0.0051,0.5337,-1.365,-5.7575,-10.837020704550897,-3.273197607745653,-2.141489200021497,2.561999999998079
-0.062,1.0114,-0.1922,0.1674,0.1819,-0.0126,-0.4112,-1.1113,-6.16,-10.836943587030252,-3.356000196591564,-2.158158700028936,2.577000000004773
-0.0608,1.0074,-0.1873,0.1678,0.1819,-0.0126,-0.315,-1.1725,-5.8888,-10.810471898555246,-3.3715853689299133,-2.158158700028936,2.577000000004773
-0.0621,1.006,-0.194,0.1678,0.1819,-0.0126,0.0088,-0.9712,-5.8538,-10.841365715967129,-3.408346268633259,-2.173697900017969,2.5929999999934807
-0.0615,1.0078,-0.1929,0.1679,0.1834,-0.0024,0.0088,-0.9712,-5.8538,-10.839708909066914,-3.4165401508366764,-2.173697900017969,2.5929999999934807
-0.0615,1.0078,-0.1929,0.1679,0.1834,-0.0024,-0.2625,-1.155,-5.8713,-10.839200035391032,-3.4217194906311033,-2.1921779000217336,2.6089999999967404
-0.0611,1.0107,-0.194,0.1679,0.181,-0.0113,-0.1575,-0.7437,-5.9412,-10.844515676846832,-3.41182084974827,-2.1921779000217336,2.6089999999967404
-0.0611,1.0074,-0.1925,0.1679,0.181,-0.0113,-0.1575,-0.7437,-5.8275,-10.839168502402293,-3.410880670243961,-2.2033334000213007,2.6239999999961583
-0.0627,1.009,-0.1929,0.1679,0.181,-0.0113,0.0088,-0.7175,-5.8275,-10.834445185006436,-3.441046750503725,-2.2148134000236395,2.639999999999418
-0.0591,1.0111,-0.1968,0.1675,0.1834,-0.0046,-0.1225,-0.9275,-5.915,-10.874630703547178,-3.3778627560950474,-2.2148134000236395,2.639999999999418
-0.0591,1.0111,-0.1968,0.1675,0.1834,-0.0046,-0.3237,-1.0675,-5.46,-10.885750992996352,-3.3611314653699584,-2.230825900023018,2.654999999998836
-0.0638,1.012,-0.195,0.1674,0.1846,-0.0092,-0.3237,-1.0675,-5.46,-10.887404844696782,-3.393338509662081,-2.230825900023018,2.654999999998836
-0.0592,1.0103,-0.1924,0.1674,0.1846,-0.0092,-0.4638,-0.9275,-5.6875,-10.882053401761567,-3.362941550871378,-2.245665900019293,2.6709999999948195
-0.0583,1.0157,-0.1961,0.1674,0.1846,-0.0092,-0.5337,-1.1725,-5.6875,-10.887057359256088,-3.3207571339933466,-2.245665900019293,2.6709999999948195
-0.0592,1.0174,-0.1936,0.1676,0.1824,-0.0182,-0.9538,-1.33,-5.8187,-10.847223718318645,-3.3028038967595044,-2.2669459000236283,2.686999999998079
-0.0617,1.0105,-0.1918,0.1676,0.1824,-0.0182,-0.9538,-1.33,-5.8187,-10.812032571897898,-3.3503036821243213,-2.2669459000236283,2.686999999998079
-0.0617,1.0105,-0.1918,0.1684,0.1834,-0.0059,-1.4088,-1.0588,-5.9675,-10.779686641652766,-3.3849955101234097,-2.282827900023012,2.701999999997497
-0.0597,1.0079,-0.193,0.1684,0.1834,-0.0059,-1.2075,-0.8925,-6.1163,-10.806525987632314,-3.3591082068195046,-2.282827900023012,2.701999999997497
-0.0615,1.01,-0.1934,0.1684,0.1834,-0.0059,-0.98,-0.7788,-5.6262,-10.818702606806312,-3.3766333211131374,-2.2952887000255506,2.7180000000007567
-0.0631,1.0046,-0.1933,0.1682,0.1834,-0.0102,-0.98,-0.7788,-5.6262,-10.84510815982662,-3.41891665064669,-2.2952887000255506,2.7180000000007567
-0.067,1.0054,-0.1967,0.1682,0.1834,-0.0102,-1.1463,-0.6125,-5.4163,-10.940344998823411,-3.46640626786143,-2.304476200025194,2.7330000000001746
-0.067,1.0054,-0.1967,0.1681,0.1803,-0.0054,-0.9625,-0.9975,-6.0813,-10.986377814526012,-3.5919332164267246,-2.304476200025194,2.7330000000001746
-0.066,1.0073,-0.1909,0.1681,0.1803,-0.0054,-0.4462,-1.4963,-6.1512,-10.977511641203474,-3.6354347830631832,-2.328417000019184,2.7489999999961583
-0.0659,1.0111,-0.192,0.1681,0.1816,-0.0001,-0.4462,-1.4963,-6.1512,-10.969675520493915,-3.6489179168847,-2.328417000019184,2.7489999999961583
-0.0666,1.0144,-0.1953,0.1685,0.1816,-0.0001,-0.35,-1.4787,-6.2038,-10.965587326697918,-3.6684449787081266,-2.3520762000240043,2.764999999999418
-0.0629,1.019,-0.195,0.1685,0.1816,-0.0001,-0.2887,-1.3388,-6.405,-10.951264506660529,-3.5615180860625086,-2.3520762000240043,2.764999999999418
-0.0603,1.0197,-0.19,0.1697,0.182,-0.0034,0.0875,-1.1812,-6.3875,-10.819530237916421,-3.436464169034707,-2.3697942000233168,2.779999999998836
-0.0603,1.0197,-0.19,0.1697,0.182,-0.0034,0.0875,-1.1812,-6.3875,-10.731572523591717,-3.3781265515104573,-2.3697942000233168,2.779999999998836
-0.0614,1.017,-0.1907,0.1695,0.183,-0.004,-0.5075,-1.3212,-6.335,-10.72170889985785,-3.387409794410138,-2.3909334000276234,2.7960000000020955
-0.0619,1.0142,-0.1926,0.1695,0.183,-0.004,-0.5337,-0.5863,-6.1687,-10.725107169521225,-3.4085667584161996,-2.3909334000276234,2.7960000000020955
-0.0642,1.0094,-0.189,0.1695,0.183,-0.004,-0.5337,-0.5863,-6.195,-10.711933109370754,-3.4907865370067537,-2.3997279000230165,2.8109999999942374
-0.0671,1.0068,-0.1922,0.169,0.1838,-0.0037,-0.3588,-0.4725,-6.195,-10.716621318440934,-3.614953239249096,-2.3997279000230165,2.8109999999942374
-0.0671,1.0068,-0.1922,0.169,0.1838,-0.0037,-0.6913,-0.35,-5.8975,-10.736634754875935,-3.666554371343818,-2.405327900024157,2.826999999997497
-0.0691,1.0061,-0.1873,0.1695,0.1827,-0.0062,-0.84,-0.4375,-5.1188,-10.679243081452022,-3.688371595816329,-2.405327900024157,2.826999999997497
-0.0667,1.0041,-0.1878,0.1695,0.1827,-0.0062,-0.84,-0.4375,-5.1188,-10.653562905363778,-3.6936495662278443,-2.4123279000255833,2.8430000000007567
-0.0715,1.0072,-0.1909,0.1695,0.1827,-0.0062,-0.5337,-0.175,-4.8125,-10.662214704055488,-3.782887606362551,-2.4123279000255833,2.8430000000007567
-0.0702,1.0094,-0.1919,0.1674,0.1823,-0.0106,-0.3413,-0.4112,-5.0487,-10.66878935150352,-3.8034035906156594,-2.418495900025344,2.8580000000001746
-0.0695,1.0108,-0.1928,0.1674,0.1823,-0.0106,0.4025,-0.8575,-5.1975,-10.727115370251491,-3.806083796448751,-2.418495900025344,2.8580000000001746
-0.0695,1.0108,-0.1928,0.1686,0.1822,-0.0102,0.4025,-0.8575,-5.1975,-10.759291692173468,-3.8086452139823064,-2.4322159000219,2.8739999999961583
-0.0698,1.0123,-0.192,0.1686,0.1822,-0.0102,0.035,-0.4812,-5.2063,-10.753212176462984,-3.8110675625263712,-2.4322159000219,2.8739999999961583
-0.0658,1.0127,-0.1882,0.1686,0.1822,-0.0102,-0.1312,-0.5775,-4.9437,-10.704027366066132,-3.775070160148281,-2.440878400021564,2.888999999995576
-0.0658,1.0117,-0.1917,0.168,0.1843,-0.0022,-0.1925,-0.9712,-4.865,-10.708559405938008,-3.742447372215618,-2.440878400021564,2.888999999995576
-0.0647,1.0131,-0.1903,0.168,0.1843,-0.0022,-0.1925,-0.9712,-4.865,-10.696022520052994,-3.7009706912109257,-2.4564176000247295,2.904999999998836
-0.0647,1.0131,-0.1903,0.1658,0.185,-0.0066,0.1225,-1.0938,-4.5763,-10.676007465270835,-3.657145685657237,-2.4564176000247295,2.904999999998836
-0.0629,1.0108,-0.1961,0.1658,0.185,-0.0066,0.035,-1.4525,-4.8825,-10.769426912225276,-3.614314903756788,-2.4796576000294643,2.9210000000020955
-0.0672,1.0097,-0.1934,0.1658,0.185,-0.0123,-0.315,-1.4262,-4.7075,-10.775841100900482,-3.6581530180202706,-2.4796576000294643,2.9210000000020955
-0.0678,1.0058,-0.1906,0.1687,0.1847,-0.0123,-0.315,-1.4262,-4.7075,-10.771888041850413,-3.7038984404624373,-2.501050600018257,2.9359999999942374
-0.0633,1.005,-0.1951,0.1687,0.1847,-0.0123,-1.1287,-1.54,-4.2263,-10.861467910180753,-3.6202960634879813,-2.501050600018257,2.9359999999942374
-0.0636,1.0105,-0.1975,0.1694,0.1837,-0.0022,-0.1838,-1.12,-4.5413,-10.897919360216347,-3.5849708863126137,-2.5189706000219076,2.951999999997497
-0.0636,1.0105,-0.1975,0.1694,0.1837,-0.0022,-0.1838,-1.12,-4.3663,-10.927641677596968,-3.5614703241704544,-2.5189706000219076,2.951999999997497
-0.0594,1.016,-0.1912,0.1681,0.1827,-0.0138,0.0263,-1.0675,-4.3663,-10.845642151286164,-3.4338244945347545,-2.5349831000212864,2.966999999996915
-0.0585,1.0116,-0.192,0.1681,0.1827,-0.0138,-0.525,-1.0063,-4.5062,-10.835465112060628,-3.356533976902716,-2.5349831000212864,2.966999999996915
-0.0633,1.0067,-0.1956,0.1681,0.1827,-0.0138,-0.8838,-0.98,-5.2238,-10.886888027405906,-3.3599886165653174,-2.550663100024481,2.9830000000001746
-0.0619,1.0058,-0.1938,0.1684,0.1822,-0.0043,-0.8838,-0.98,-5.2238,-10.893104800717632,-3.3619227310990034,-2.5663431000276753,2.9990000000034343
-0.0619,1.0058,-0.1938,0.1684,0.1822,-0.0043,-0.945,-0.9187,-5.495,-10.89767876686395,-3.381259898931881,-2.5663431000276753,2.9990000000034343
-0.0592,1.0097,-0.1926,0.1666,0.1825,-0.0054,-0.7262,-0.7962,-5.425,-10.874084937886254,-3.368214065931236,-2.5782861000214186,3.013999999995576
-0.059,1.0128,-0.1934,0.1666,0.1825,-0.0054,-0.28,-0.8662,-5.4513,-10.866795746559678,-3.352186781061102,-2.5782861000214186,3.013999999995576
-0.058,1.0124,-0.1951,0.1666,0.1825,-0.0054,-0.28,-0.8662,-5.4513,-10.871516646416516,-3.3294363137663767,-2.5921453000242423,3.029999999998836
-0.0544,1.0099,-0.1907,0.1677,0.1831,-0.0083,-0.8925,-0.77,-5.6613,-10.813524860443055,-3.241228115974054,-2.5921453000242423,3.029999999998836
-0.0544,1.0077,-0.1939,0.1677,0.1831,-0.0083,-1.1725,-0.3675,-6.2213,-10.847315451859268,-3.139051825928781,-2.5976578000240282,3.0449999999982538
-0.056,1.0077,-0.1939,0.1685,0.1838,-0.0074,-1.4787,-0.3938,-6.7812,-10.870212994398807,-3.1296848207981895,-2.5976578000240282,3.0449999999982538
-0.0568,1.0064,-0.1948,0.1685,0.1838,-0.0074,-1.4787,-0.3938,-6.7812,-10.913891952587013,-3.1550412869446873,-2.603958600025312,3.0610000000015134
-0.0528,1.0084,-0.1906,0.1685,0.1838,-0.0074,-1.5488,-0.3063,-6.615,-10.801791969821933,-3.0337135727341398,-2.603958600025312,3.0610000000015134
-0.0526,1.0042,-0.1939,0.1681,0.1838,-0.0081,-1.3038,-0.595,-5.7663,-10.86167647999188,-3.002972715450896,-2.613478600022922,3.076999999997497
-0.0531,1.0061,-0.195,0.1681,0.1838,-0.0081,-1.4963,0.0787,-5.9062,-10.91751964853532,-2.9882659153227182,-2.613478600022922,3.076999999997497
-0.0531,1.0061,-0.195,0.1697,0.1834,-0.0042,-1.4963,0.0787,-5.9062,-10.9442888199765,-2.979418783158243,-2.612298100022968,3.091999999996915
-0.0549,1.0099,-0.1907,0.1697,0.1834,-0.0042,-0.8487,0.1663,-5.8713,-10.86777490468725,-3.0096019279248893,-2.612298100022968,3.091999999996915
-0.0584,1.0142,-0.1928,0.1697,0.1834,-0.0042,-1.0938,0.1225,-5.7575,-10.82544727159293,-3.0870129636713077,-2.610338100022569,3.1080000000001746
-0.0628,1.0156,-0.1948,0.1693,0.1835,-0.0046,-1.5662,0.0088,-6.3875,-10.842849936287184,-3.2941164067059994,-2.610338100022569,3.1080000000001746
-0.0648,1.0189,-0.1941,0.1693,0.1835,-0.0046,-1.5662,0.0088,-6.3875,-10.812148340662139,-3.443903265526909,-2.610206100022574,3.1229999999995925
-0.0648,1.0186,-0.192,0.1695,0.186,-0.0136,-1.7587,-0.455,-7.49,-10.733205210219326,-3.536162780152262,-2.610206100022574,3.1229999999995925
-0.0606,1.0186,-0.192,0.1695,0.186,-0.0136,-2.4325,-1.33,-7.8575,-10.694033601836077,-3.3985693934407903,-2.631486100026909,3.139000000002852
-0.0573,1.0092,-0.1918,0.1696,0.1843,-0.0042,-2.4325,-1.33,-7.8575,-10.738719732481133,-3.2496020473433975,-2.631486100026909,3.139000000002852
-0.0595,1.0038,-0.1871,0.1696,0.1843,-0.0042,-2.7738,-0.98,-7.8488,-10.611938415826298,-3.3112537367630743,-2.6471661000158426,3.15499999999156
-0.0648,1.0094,-0.186,0.1696,0.1843,-0.0042,-2.2313,-0.455,-7.3763,-10.501369276586821,-3.516328070537225,-2.6471661000158426,3.15499999999156
-0.0697,1.0155,-0.1886,0.1701,0.1846,-0.0102,-1.855,-0.7962,-6.0375,-10.513073178633904,-3.6686543081948275,-2.659109100021172,3.1699999999982538
-0.0697,1.0155,-0.1886,0.1701,0.1846,-0.0102,-1.855,-0.7962,-6.0375,-10.517860442233006,-3.7535808243752546,-2.659109100021172,3.1699999999982538
-0.0692,1.0195,-0.1853,0.1685,0.1842,-0.0121,-1.8463,-0.8225,-5.3812,-10.390246192093404,-3.761681408521094,-2.672269100023853,3.1860000000015134
-0.0688,1.0177,-0.1836,0.1685,0.1842,-0.0121,-2.52,-0.7613,-5.0225,-10.27918783025464,-3.769758929043736,-2.672269100023853,3.1860000000015134
-0.0725,1.0155,-0.1849,0.1685,0.1842,-0.0121,-1.8725,-0.7962,-4.375,-10.302976518916887,-3.8850673986329403,-2.6842121000233896,3.2010000000009313
-0.0768,1.0116,-0.1839,0.1686,0.1832,-0.0045,-1.8725,-0.7962,-4.375,-10.303199031787475,-4.064858101759352,-2.6842121000233896,3.2010000000009313
-0.0768,1.0101,-0.1814,0.1686,0.1832,-0.0045,-1.61,-0.9363,-4.445,-10.236553338616956,-4.1602893676456985,-2.699192900019629,3.216999999996915
-0.0732,1.0101,-0.1814,0.1675,0.1828,-0.0082,-1.3125,-1.575,-4.1125,-10.210206095358824,-4.11757846507013,-2.699192900019629,3.216999999996915
-0.075,1.0105,-0.181,0.1675,0.1828,-0.0082,-1.2775,-2.065,-3.2113,-10.184604862594496,-4.158403320472445,-2.7322329000113355,3.2329999999928987
-0.0742,1.0101,-0.1835,0.1675,0.1828,-0.0082,-1.2775,-2.065,-3.2113,-10.236511713303807,-4.14196132676411,-2.7322329000113355,3.2329999999928987
-0.0718,1.0096,-0.1783,0.1687,0.1826,-0.0005,-1.5313,-2.0912,-2.8875,-10.119657533578533,-4.046567256855671,-2.7636009000253337,3.2479999999995925
-0.0705,1.0114,-0.1827,0.1687,0.1826,-0.0005,-1.05,-2.3012,-2.765,-10.166426898580633,-3.9592797071232226,-2.7636009000253337,3.2479999999995925
-0.0705,1.0114,-0.1827,0.1679,0.1827,0.0042,-0.0613,-2.5725,-3.0013,-10.185334587676376,-3.934926592893897,-2.804760900033719,3.264000000002852
-0.0719,1.0144,-0.1797,0.1679,0.1827,0.0042,-0.0613,-2.5725,-3.0013,-10.149210805491924,-3.974642567690312,-2.804760900033719,3.264000000002852
-0.0647,1.0145,-0.1793,0.1679,0.1827,0.0042,-0.2625,-2.9575,-3.2025,-10.1329426688596,-3.7188645079320324,-2.849123400010479,3.278999999994994
-0.0633,1.0145,-0.1837,0.1681,0.1835,-0.0072,-0.35,-3.1237,-3.465,-10.140361072747911,-3.5873188380793164,-2.849123400010479,3.278999999994994
-0.0645,1.0132,-0.1803,0.1681,0.1835,-0.0072,-0.35,-3.5087,-3.3338,-10.137514037992243,-3.5866673174436365,-2.905262600021916,3.2949999999982538
-0.0645,1.0103,-0.1854,0.1683,0.1832,-0.0021,-0.6037,-3.5087,-3.3338,-10.179850277315591,-3.5908930822885257,-2.905262600021916,3.2949999999982538
-0.0643,1.0103,-0.1854,0.1683,0.1832,-0.0021,-0.6125,-3.3425,-3.0888,-10.216664390554246,-3.584813929922512,-2.9587426000084918,3.3109999999942374
-0.0635,1.0098,-0.1856,0.1694,0.1841,-0.0097,-0.5425,-3.0712,-3.5,-10.23979811213416,-3.5557647300454027,-3.00481060002905,3.3260000000009313
-0.0651,1.01,-0.1821,0.1694,0.1841,-0.0097,-0.5425,-3.0712,-3.5,-10.237538298629131,-3.602666967046567,-3.00481060002905,3.3260000000009313
-0.0654,1.0089,-0.1872,0.1694,0.1841,-0.0097,-0.0525,-3.4213,-4.0075,-10.309744881444217,-3.6270801719697467,-3.059551400015309,3.341999999996915
-0.0636,1.0114,-0.1832,0.1679,0.1817,-0.0085,0.2187,-3.535,-3.92,-10.293223964253155,-3.577889914895304,-3.059551400015309,3.341999999996915
-0.0636,1.0114,-0.1832,0.1679,0.1817,-0.0085,0.21,-3.2113,-4.235,-10.283168185864772,-3.5592297084739917,-3.1077209000134394,3.356999999996333
-0.0592,1.0094,-0.1825,0.1682,0.1816,-0.0025,0.21,-3.2113,-4.235,-10.2698561425407,-3.430572635346374,-3.1077209000134394,3.356999999996333
-0.06,1.0074,-0.1838,0.1682,0.1816,-0.0025,0.4288,-3.0888,-4.3225,-10.301801726247204,-3.39348994248163,-3.157141700023508,3.3729999999995925
-0.0562,1.0078,-0.1846,0.1682,0.1816,-0.0025,-0.035,-2.835,-4.5062,-10.323102322935327,-3.285737044815786,-3.157141700023508,3.3729999999995925
-0.0545,1.0085,-0.1862,0.1679,0.1819,-0.0065,-0.0088,-2.4588,-4.2525,-10.362529691513453,-3.164385275290208,-3.1964825000136323,3.388999999995576
-0.0545,1.007,-0.1874,0.1679,0.1819,-0.0065,-0.0088,-2.4588,-4.2525,-10.41393422794257,-3.105300357483966,-3.1964825000136323,3.388999999995576
-0.0584,1.007,-0.1874,0.169,0.1829,-0.0063,-0.3063,-2.3187,-4.1912,-10.425987636932353,-3.1862738444781633,-3.2312630000291533,3.40400000000227
-0.0558,1.005,-0.1853,0.169,0.1829,-0.0063,-0.2187,-2.1088,-3.8412,-10.429326489446597,-3.1507141710897066,-3.2312630000291533,3.40400000000227
-0.0603,1.0056,-0.1886,0.169,0.1829,-0.0063,0.0088,-1.54,-4.27,-10.486339085536391,-3.260345442662661,-3.2559030000229683,3.4199999999982538
-0.0588,1.0075,-0.1862,0.168,0.1829,-0.0054,0.0088,-1.54,-4.27,-10.481782524950171,-3.272324247085692,-3.2559030000229683,3.4199999999982538
-0.0581,1.0111,-0.1862,0.168,0.1829,-0.0054,0.6825,-1.8112,-4.4538,-10.457066101898134,-3.2556093846912497,-3.283071000021914,3.4349999999976717
-0.0581,1.0111,-0.1862,0.169,0.1814,-0.0077,0.4988,-1.995,-4.8038,-10.44629543408071,-3.249144270382019,-3.283071000021914,3.4349999999976717
-0.0578,1.0171,-0.1881,0.169,0.1814,-0.0077,0.28,-1.8112,-5.215,-10.459143858419027,-3.247720089482558,-3.312050200027818,3.4510000000009313
-0.0583,1.0175,-0.1848,0.169,0.1814,-0.0077,0.28,-1.8112,-5.215,-10.39168399539825,-3.2471283603272534,-3.312050200027818,3.4510000000009313
-0.0573,1.0155,-0.1873,0.1667,0.1814,-0.0014,0.0175,-1.6538,-5.5125,-10.409230445587863,-3.2320789755374957,-3.340164800015496,3.4679999999934807
-0.0602,1.0082,-0.1882,0.1667,0.1814,-0.0014,0.4725,-1.2687,-5.3288,-10.486327525690907,-3.242030050764949,-3.340164800015496,3.4679999999934807
-0.0602,1.0082,-0.1832,0.1669,0.1814,-0.0141,0.4725,-1.2687,-5.3288,-10.398426792445857,-3.2514340690272374,-3.359195300023989,3.4830000000001746
-0.058,1.0108,-0.1832,0.1669,0.1814,-0.0141,0.2975,-1.1638,-5.4163,-10.346414237989912,-3.24850462874321,-3.359195300023989,3.4830000000001746
-0.0617,1.005,-0.188,0.1674,0.1824,-0.0061,0.1488,-1.0237,-5.425,-10.43574811772803,-3.2799247890554017,-3.3755745000273256,3.4990000000034343
-0.056,1.0077,-0.189,0.1674,0.1824,-0.0061,0.2013,-0.8925,-5.2762,-10.506705935677358,-3.2751167815512283,-3.3755745000273256,3.4990000000034343
-0.0573,1.0069,-0.1886,0.1674,0.1824,-0.0061,0.2013,-0.8925,-5.2762,-10.545524106679265,-3.2728110726286603,-3.3889620000203124,3.513999999995576
-0.0615,1.0118,-0.1887,0.1658,0.184,-0.0093,0.2713,-0.9187,-5.4163,-10.553116445165623,-3.294384027416346,-3.3889620000203124,3.513999999995576
-0.0615,1.0118,-0.1887,0.1658,0.184,-0.0093,0.2887,-0.8662,-5.425,-10.557699519758849,-3.3135703801165417,-3.402821200023136,3.529999999998836
-0.0601,1.0145,-0.1873,0.1663,0.181,-0.0093,0.315,-1.1025,-5.145,-10.516769223011092,-3.3154159569955617,-3.402821200023136,3.529999999998836
-0.0634,1.0145,-0.1911,0.1663,0.181,-0.0093,0.315,-1.1025,-5.145,-10.5802256545,-3.3333146345123863,-3.4204612000187082,3.5459999999948195
-0.0659,1.0153,-0.187,0.1663,0.181,-0.0093,-0.0088,-0.6825,-5.4687,-10.538885445466402,-3.391888416352638,-3.4204612000187082,3.5459999999948195
-0.0661,1.0167,-0.1862,0.1678,0.1797,-0.0014,-0.2537,-1.0325,-5.7838,-10.517144624787035,-3.485583851420044,-3.4359487000256195,3.5610000000015134
-0.0661,1.0167,-0.1917,0.1678,0.1797,-0.0014,-0.8225,-1.5137,-5.6962,-10.564053662414779,-3.5385269505497,-3.4359487000256195,3.5610000000015134
-0.0691,1.0127,-0.1917,0.1658,0.181,-0.0083,-0.8225,-1.5137,-5.6962,-10.609296119977287,-3.6310286486947256,-3.46016790001954,3.576999999997497
-0.0707,1.0114,-0.1883,0.1658,0.181,-0.0083,-0.8662,-1.7587,-5.7225,-10.58961095776202,-3.728229103178395,-3.46016790001954,3.576999999997497
-0.0705,1.0108,-0.1898,0.1658,0.181,-0.0083,-0.07,-1.75,-5.5475,-10.601059812714347,-3.77322458812967,-3.4864179000185214,3.591999999996915
-0.0692,1.0099,-0.1929,0.1672,0.1822,-0.0028,-0.63,-2.1437,-5.425,-10.63938600901981,-3.7850710673842674,-3.4864179000185214,3.591999999996915
-0.0693,1.0069,-0.1913,0.1672,0.1822,-0.0028,-0.63,-2.1437,-5.425,-10.660644685977713,-3.79781893016429,-3.520717100025509,3.6080000000001746
-0.0693,1.0069,-0.1913,0.1678,0.1819,-0.0078,-0.1488,-2.1962,-5.2587,-10.680687620193085,-3.798847031814241,-3.520717100025509,3.6080000000001746
-0.0626,1.0066,-0.1921,0.1678,0.1819,-0.0078,-0.0088,-2.17,-4.41,-10.716132752805523,-3.66099901265281,-3.5554371000167935,3.6239999999961583
-0.0569,1.0133,-0.1925,0.1678,0.1819,-0.0078,-0.0088,-2.17,-4.5413,-10.727693221783541,-3.4532721569337843,-3.5554371000167935,3.6239999999961583
-0.0508,1.0134,-0.1903,0.1674,0.1826,-0.0039,-0.5075,-1.9512,-4.5413,-10.719505579141783,-3.1921638999040503,-3.5847051000298547,3.639000000002852
-0.0515,1.0091,-0.1891,0.1674,0.1826,-0.0039,-0.0175,-1.61,-4.5062,-10.689707438402088,-3.056115480319955,-3.5847051000298547,3.639000000002852
-0.0515,1.0091,-0.1907,0.1665,0.1829,-0.0056,-0.525,-0.665,-4.4363,-10.690928667915626,-2.9733487978013615,-3.595345100027184,3.654999999998836
-0.0565,1.0028,-0.1907,0.1665,0.1829,-0.0056,-0.525,-0.665,-4.4363,-10.698786156004761,-3.060360860009287,-3.595345100027184,3.654999999998836
-0.0602,1.0027,-0.1893,0.1665,0.1815,-0.0023,-0.2187,0.0175,-4.7075,-10.697543533472373,-3.17065864097936,-3.5950826000271943,3.6699999999982538
-0.0567,1.0052,-0.1867,0.1686,0.1815,-0.0023,0.1838,0.2625,-5.1712,-10.632085313697548,-3.170903338458316,-3.5950826000271943,3.6699999999982538
-0.0591,1.007,-0.1894,0.1686,0.1815,-0.0023,0.4112,0.4462,-4.9,-10.6410409640016,-3.204203269164865,-3.5879434000257397,3.6860000000015134
-0.0549,1.01,-0.1862,0.1664,0.1826,-0.011,0.4112,0.4462,-4.9,-10.55288490673441,-3.1672705025347887,-3.5879434000257397,3.6860000000015134
-0.0549,1.01,-0.1862,0.1664,0.1826,-0.011,0.3762,0.0437,-5.18,-10.5056392103631,-3.1608220326499605,-3.587244200025915,3.701999999997497
-0.0503,1.0098,-0.1874,0.1673,0.183,-0.0042,0.6913,0.5163,-5.3725,-10.509716893894593,-3.120140231969384,-3.587244200025915,3.701999999997497
-0.0529,1.01,-0.1922,0.1673,0.183,-0.0042,0.91,1.4963,-5.3812,-10.66031761024402,-3.099045920758092,-3.564799700015899,3.717000000004191
-0.0575,1.0117,-0.1868,0.1673,0.183,-0.0042,0.91,1.4963,-5.3812,-10.547051697654428,-3.111108760475954,-3.5408589000327955,3.7329999999928987
-0.06,1.01,-0.1896,0.1658,0.1825,-0.015,0.5337,1.9425,-5.425,-10.588292878447268,-3.146436381720802,-3.5408589000327955,3.7329999999928987
-0.06,1.01,-0.1896,0.1658,0.1825,-0.015,0.6562,1.7325,-4.9612,-10.610841024975375,-3.189420731668759,-3.5148714000211982,3.7479999999995925
-0.0651,1.0077,-0.1907,0.1669,0.1822,-0.0085,0.9275,1.435,-4.9088,-10.671067663728643,-3.3005063894547377,-3.5148714000211982,3.7479999999995925
-0.0682,1.0069,-0.1913,0.1669,0.1822,-0.0085,0.9275,1.435,-4.9088,-10.720448345517239,-3.427621338648877,-3.491911400016521,3.764000000002852
-0.0675,1.0092,-0.1903,0.1669,0.1822,-0.0085,1.0325,1.1375,-4.83,-10.695733532452751,-3.5250437578530582,-3.491911400016521,3.764000000002852
-0.0659,1.0122,-0.1945,0.1677,0.1819,-0.0134,0.7,0.5425,-5.0138,-10.791167679569329,-3.549965522738319,-3.4832314000186995,3.779999999998836
-0.0666,1.0153,-0.194,0.1677,0.1819,-0.0134,0.7,0.5425,-4.8738,-10.805014467776912,-3.5868488845486137,-3.4832314000186995,3.779999999998836
-0.0666,1.0153,-0.194,0.1679,0.1828,-0.0099,0.7525,0.42,-4.8738,-10.811719783301251,-3.6137695530445915,-3.4769314000189437,3.7949999999982538
-0.0623,1.0155,-0.189,0.1679,0.1828,-0.0099,0.56,-0.0437,-4.9175,-10.679386400302109,-3.5738458069051418,-3.4769314000189437,3.7949999999982538
-0.0628,1.0141,-0.1935,0.1679,0.1828,-0.0099,0.0613,-0.6125,-4.6813,-10.718908336373461,-3.5404104200095046,-3.4867314000164837,3.8109999999942374
-0.0608,1.0139,-0.1936,0.1666,0.1827,-0.0174,0.0613,-0.6125,-4.6813,-10.748180368698534,-3.4794020011471583,-3.4867314000164837,3.8109999999942374
-0.0583,1.013,-0.1925,0.1666,0.1827,-0.0174,0.1225,-1.1638,-4.8212,-10.75215099599403,-3.407104917153736,-3.5041884000242742,3.8260000000009313
-0.0583,1.013,-0.1925,0.1658,0.183,-0.0116,-0.1312,-1.3737,-5.1363,-10.7537769568491,-3.3904916500524975,-3.5041884000242742,3.8260000000009313
-0.0588,1.0103,-0.1948,0.1658,0.183,-0.0116,-0.4025,-1.75,-5.0312,-10.75499742678288,-3.3694964853597034,-3.5321884000172457,3.841999999996915
-0.0594,1.0106,-0.1968,0.1658,0.183,-0.0115,-0.4025,-1.75,-5.0312,-10.757019491376429,-3.3576447136755903,-3.5321884000172457,3.841999999996915
-0.0554,1.0104,-0.1948,0.1683,0.1826,-0.0115,-0.9187,-1.9775,-4.7863,-10.809412129065157,-3.2710279456769267,-3.5638284000236915,3.8580000000001746
-0.0578,1.0098,-0.1921,0.1683,0.1826,-0.0115,-0.9275,-2.2925,-5.3463,-10.796316130699086,-3.2661372620030984,-3.5638284000236915,3.8580000000001746
-0.0553,1.0113,-0.1956,0.1676,0.1822,-0.0152,-1.6888,-2.275,-5.7225,-10.880681271951692,-3.203650341463895,-3.597953400022367,3.8729999999995925
-0.0553,1.0113,-0.1956,0.1676,0.1822,-0.0152,-1.6888,-2.275,-5.7225,-10.917706261529773,-3.16139015865934,-3.597953400022367,3.8729999999995925
-0.0573,1.0142,-0.1928,0.1671,0.1807,-0.0148,-1.1638,-2.1175,-6.0725,-10.851449237173245,-3.1684046342764316,-3.631833400013863,3.888999999995576
-0.0551,1.0097,-0.192,0.1671,0.1807,-0.0148,-1.7325,-1.9512,-6.3437,-10.803117054628492,-3.1161774719051105,-3.631833400013863,3.888999999995576
-0.0545,1.0089,-0.1958,0.1671,0.1807,-0.0148,-2.5812,-2.6425,-6.93,-10.926285424272363,-3.06556010898964,-3.6714709000315513,3.90400000000227
-0.054,1.0062,-0.1925,0.1674,0.1806,0.005,-2.5812,-2.6425,-6.93,-10.860778568616595,-3.035292763680658,-3.6714709000315513,3.90400000000227
-0.054,1.0062,-0.1925,0.1674,0.1806,0.005,-2.135,-2.485,-6.965,-10.841678670829554,-3.023938769972662,-3.7112309000215706,3.9199999999982538
-0.0519,1.0039,-0.1911,0.1657,0.1826,-0.0083,-2.0912,-2.0738,-7.1312,-10.801589551620797,-2.9477291196778763,-3.7112309000215706,3.9199999999982538
-0.0514,1.006,-0.1893,0.1657,0.1826,-0.0083,-2.66,-1.8988,-7.7263,-10.701345827271451,-2.895551987531001,-3.74161170002776,3.9360000000015134
-0.0461,1.008,-0.1889,0.1657,0.1826,-0.0083,-2.66,-1.8988,-7.7263,-10.64099090982526,-2.6661965504503833,-3.74161170002776,3.9360000000015134
-0.0487,1.0081,-0.1892,0.1676,0.1833,-0.007,-2.1613,-1.6975,-8.2163,-10.633744637158294,-2.7052186582956375,-3.767074200026772,3.9510000000009313
-0.0486,1.0097,-0.1901,0.1676,0.1833,-0.007,-2.8525,-1.26,-7.98,-10.65412940175104,-2.7073941615217048,-3.767074200026772,3.9510000000009313
-0.0486,1.0097,-0.1901,0.1674,0.1838,-0.0078,-2.8525,-1.26,-7.6912,-10.660051246039089,-2.7079586217179195,-3.7872342000217114,3.966999999996915
-0.0475,1.0081,-0.1879,0.1674,0.1838,-0.0078,-2.8263,-0.56,-7.6912,-10.588027661909136,-2.668288373074723,-3.7872342000217114,3.966999999996915
-0.0498,1.0075,-0.1894,0.1674,0.1838,-0.0078,-2.0738,-0.21,-7.42,-10.624721526839366,-2.745614203574675,-3.790384200023117,3.982000000003609
-0.0556,1.0108,-0.189,0.1683,0.1832,-0.0024,-1.7587,0.07,-7.3587,-10.60530383761651,-2.9827669904824288,-3.790384200023117,3.982000000003609
-0.0608,1.013,-0.1864,0.1683,0.1832,-0.0024,-1.7587,0.07,-7.3587,-10.502489600582143,-3.2512328023945156,-3.7892642000233985,3.9979999999995925
-0.0608,1.013,-0.1864,0.1686,0.1827,-0.0114,-1.6888,0.2187,-7.1487,-10.459706829255287,-3.3344761980783306,-3.7892642000233985,3.9979999999995925
-0.0656,1.0111,-0.1851,0.1686,0.1827,-0.0114,-1.3475,0.4725,-6.825,-10.418310984614694,-3.5287498600273906,-3.7817042000252963,4.013999999995576
-0.0662,1.0111,-0.1862,0.1686,0.1827,-0.0098,-1.3825,0.035,-7.0875,-10.42626544174322,-3.6295453170993968,-3.7817042000252963,4.013999999995576
-0.0631,1.0146,-0.1835,0.1684,0.1814,-0.0098,-1.3825,0.035,-7.0875,-10.340190884099549,-3.546907753579864,-3.781179200025062,4.02900000000227
-0.0673,1.0098,-0.185,0.1684,0.1814,-0.0098,-2.0387,-0.1838,-7.175,-10.36592128489751,-3.6811749995382805,-3.781179200025062,4.02900000000227
-0.0698,1.0078,-0.1779,0.1686,0.1856,-0.0011,-1.8637,-0.6475,-6.6762,-10.155599164705828,-3.811113055883547,-3.7915392000224615,4.044999999998254
-0.0698,1.0078,-0.1779,0.1686,0.1856,-0.0011,-1.6625,-0.8225,-6.3263,-10.07514434633317,-3.85826757821071,-3.7915392000224615,4.044999999998254
-0.0659,1.007,-0.1792,0.1702,0.1838,0.0014,-1.6625,-0.8225,-6.3263,-10.083628249375897,-3.7689603750860488,-3.803876700021983,4.059999999997672
-0.0661,1.0066,-0.1818,0.1702,0.1838,0.0014,-1.3475,-0.5512,-5.3288,-10.158176697782054,-3.7633570109356005,-3.803876700021983,4.059999999997672
-0.0694,1.0108,-0.1805,0.1702,0.1838,0.0014,-0.7613,-0.9625,-4.9525,-10.149469999254109,-3.786674789432161,-3.8346767000212547,4.091999999996915
-0.0709,1.0095,-0.1823,0.1699,0.185,-0.0042,-0.595,-1.365,-4.6813,-10.163029885470237,-3.8468104312610487,-3.8346767000212547,4.091999999996915
-0.0709,1.0095,-0.1823,0.1699,0.185,-0.0042,-0.595,-1.365,-4.6813,-10.17447475904901,-3.88529537012411,-3.8346767000212547,4.091999999996915
-0.0746,1.0082,-0.1857,0.169,0.1817,-0.0066,-0.4112,-1.8375,-4.4887,-10.17473634090477,-4.0043624326849,-3.862239200020185,4.106999999996333
-0.0703,1.0135,-0.1795,0.169,0.1817,-0.0066,0.035,-1.925,-4.3837,-10.13429335533338,-3.959465602782686,-3.862239200020185,4.106999999996333
-0.0642,1.0167,-0.1784,0.169,0.1817,-0.0066,0.035,-2.205,-3.5612,-10.078245905393267,-3.7082413215011276,-3.8975192000273724,4.1229999999995925
-0.0634,1.0153,-0.1807,0.1682,0.182,-0.007,0.665,-2.205,-3.5612,-10.085195928620669,-3.5889340069312596,-3.8975192000273724,4.1229999999995925
-0.0634,1.0161,-0.1801,0.1682,0.182,-0.007,0.0263,-2.1263,-3.1325,-10.074828938010336,-3.539243562973681,-3.9294137000261347,4.1379999999990105
-0.0659,1.0161,-0.1801,0.1664,0.1838,-0.0074,0.07,-1.8288,-3.2462,-10.067123981123018,-3.615699876327956,-3.9294137000261347,4.1379999999990105
-0.0643,1.0122,-0.1781,0.1664,0.1838,-0.0074,0.07,-1.8288,-3.2462,-10.038612323402814,-3.5918967641533994,-3.9586745000187897,4.153999999994994
-0.0672,1.0087,-0.1815,0.1664,0.1838,-0.0074,0.455,-2.1525,-3.1937,-10.113633171350672,-3.699085193467699,-3.9586745000187897,4.153999999994994
-0.0676,1.0088,-0.1839,0.1681,0.183,0.0042,0.7088,-2.205,-3.1762,-10.228596407023277,-3.7480306870968296,-3.993954500025977,4.169999999998254
-0.0653,1.0065,-0.1821,0.1681,0.183,0.0042,1.4,-2.0387,-2.905,-10.245762158394406,-3.6813984911554134,-3.993954500025977,4.169999999998254
-0.0653,1.0065,-0.1821,0.1686,0.1826,-0.0068,1.4,-2.0387,-2.905,-10.251870531951848,-3.6614420159998775,-4.02453500002479,4.184999999997672
-0.0639,1.0074,-0.1839,0.1686,0.1826,-0.0068,1.0938,-1.9688,-2.7125,-10.308036972111935,-3.596320279443484,-4.02453500002479,4.184999999997672
-0.0633,1.0095,-0.1826,0.1686,0.1826,-0.0068,1.5575,-1.9863,-2.1875,-10.271475236675482,-3.5469875985795065,-4.056315800031265,4.201000000000931
-0.0606,1.0131,-0.1839,0.1654,0.1826,-0.006,1.5225,-2.1613,-2.9838,-10.282643491032157,-3.423066653739437,-4.056315800031265,4.201000000000931
-0.0545,1.012,-0.1871,0.1654,0.1826,-0.006,1.5225,-2.1613,-2.9838,-10.409178353539794,-3.1514996364163914,-4.088735300030007,4.216000000000349
-0.0545,1.0122,-0.1879,0.1676,0.1823,-0.0124,1.68,-1.8025,-3.29,-10.481707292142126,-3.0713538760073607,-4.088735300030007,4.216000000000349
-0.0572,1.0122,-0.1879,0.1676,0.1823,-0.0124,1.4438,-1.1025,-3.535,-10.504248606705477,-3.1399939934258696,-4.1063753000255785,4.231999999996333
-0.0553,1.0099,-0.184,0.1682,0.1827,-0.0166,1.3475,-1.2337,-3.92,-10.39051814015922,-3.1078692888593626,-4.1063753000255785,4.231999999996333
-0.0544,1.0086,-0.1893,0.1682,0.1827,-0.0166,1.3475,-1.2337,-3.92,-10.543123495041721,-3.0660382307674925,-4.1261145000296,4.2479999999995925
-0.0572,1.0114,-0.1926,0.1682,0.1827,-0.0166,0.8313,-1.61,-3.7625,-10.675260955726058,-3.1340177033524146,-4.1261145000296,4.2479999999995925
-0.0573,1.0123,-0.1898,0.1659,0.183,-0.0082,0.98,-1.4525,-4.0425,-10.64272054315496,-3.161475097774251,-4.147902000028755,4.2629999999990105
-0.0573,1.0123,-0.1898,0.1659,0.183,-0.0082,0.4112,-1.2337,-4.2263,-10.632164646321787,-3.173002125104207,-4.147902000028755,4.2629999999990105
-0.0554,1.0103,-0.1917,0.168,0.1814,-0.0113,0.4112,-1.2337,-4.2263,-10.68255384895583,-3.127996805908236,-4.167641200032777,4.27900000000227
-0.0551,1.0112,-0.189,0.168,0.1814,-0.0113,0.5863,-1.0412,-4.8562,-10.634765672566411,-3.1106646281745545,-4.167641200032777,4.27900000000227
-0.0539,1.0073,-0.1891,0.168,0.1814,-0.0113,0.245,-0.8138,-4.865,-10.633814055354899,-3.083128896423895,-4.179848200032303,4.294000000001688
-0.0506,1.0107,-0.1875,0.1667,0.1832,-0.0039,0.245,-0.8138,-5.1537,-10.584702453455298,-3.061204646541527,-4.179848200032303,4.294000000001688
-0.0506,1.0168,-0.1906,0.1667,0.1832,-0.0039,0.4288,-0.5688,-5.1537,-10.599407094074387,-3.0396170122602486,-4.188949000030019,4.309999999997672
-0.0491,1.0168,-0.1906,0.1659,0.1793,-0.0089,0.0787,-0.7788,-4.9437,-10.605162115719,-2.965211448967034,-4.188949000030019,4.309999999997672
-0.0499,1.0144,-0.1874,0.1659,0.1793,-0.0089,-0.4375,-0.2013,-5.18,-10.601485197912337,-2.95345573835048,-4.192169800030674,4.326000000000931
-0.0561,1.0085,-0.1882,0.1659,0.1793,-0.0089,-0.4375,-0.2013,-5.18,-10.600664316366263,-2.9640554022618004,-4.192169800030674,4.326000000000931
-0.0606,1.0047,-0.1911,0.167,0.1812,-0.0102,-0.735,-0.1575,-5.8888,-10.642023306463729,-3.1314665209425754,-4.1945323000294366,4.340999999993073
-0.0639,1.004,-0.1882,0.167,0.1812,-0.0102,-0.84,-0.2187,-6.615,-10.634470837430742,-3.3905594536481685,-4.1945323000294366,4.340999999993073
-0.0639,1.004,-0.1882,0.1662,0.1811,-0.0063,0.0962,-0.3237,-6.93,-10.628563715544605,-3.5091751839316356,-4.199711500030491,4.356999999996333
-0.0622,1.0084,-0.1859,0.1662,0.1811,-0.0063,0.0962,-0.3237,-6.93,-10.566951487115727,-3.485395230630332,-4.199711500030491,4.356999999996333
-0.0611,1.0172,-0.1931,0.1662,0.1811,-0.0063,0.07,-0.945,-7.21,-10.625956883003706,-3.413726633472946,-4.2138865000299415,4.371999999995751
-0.0597,1.017,-0.1878,0.1683,0.1821,-0.0082,0.2013,-0.5337,-7.0963,-10.56390251743601,-3.342334868266878,-4.2138865000299415,4.371999999995751
-0.0621,1.0124,-0.1872,0.1683,0.1821,-0.0082,-0.49,-0.6125,-7.7438,-10.557411783659926,-3.420468627765164,-4.223686500031938,4.3879999999990105
-0.0621,1.028,-0.189,0.1666,0.1846,-0.0068,-0.49,-0.6125,-7.7438,-10.547080366628022,-3.405923108709971,-4.223686500031938,4.3879999999990105
-0.0658,1.0165,-0.189,0.1666,0.1846,-0.0068,-0.7088,-0.7175,-7.665,-10.543807941178628,-3.5726133798068545,-4.2351665000342775,4.40400000000227
-0.0661,1.0134,-0.1876,0.1694,0.1844,-0.0081,-0.525,-0.9538,-7.665,-10.538043719786948,-3.6413298570728276,-4.2351665000342775,4.40400000000227
-0.0676,1.0077,-0.1892,0.1694,0.1844,-0.0081,-0.875,-1.2862,-7.3238,-10.568406106493336,-3.729663390053248,-4.25445950002417,4.418999999994412
-0.0712,1.0091,-0.1902,0.1694,0.1844,-0.0081,-0.875,-1.2862,-7.3238,-10.601961112022488,-3.889515643606978,-4.275038700028363,4.434999999997672
-0.0667,1.0153,-0.1872,0.1687,0.1834,-0.0129,-0.9538,-1.1375,-6.8688,-10.547322922563879,-3.770036503272551,-4.275038700028363,4.434999999997672
-0.0667,1.0153,-0.1872,0.1687,0.1834,-0.0129,-0.7262,-1.7938,-6.3963,-10.523187881336813,-3.73066848947637,-4.301945700027319,4.44999999999709
-0.0672,1.0104,-0.1874,0.1708,0.183,-0.0104,-0.7262,-1.7938,-5.985,-10.519376408077273,-3.735245107427752,-4.301945700027319,4.44999999999709
-0.0636,1.0131,-0.1903,0.1708,0.183,-0.0104,-0.63,-1.0588,-5.985,-10.540829920896357,-3.6481330086722163,-4.31888650003077,4.466000000000349
-0.0641,1.0135,-0.1845,0.1708,0.183,-0.0104,-0.8138,-1.0237,-5.565,-10.476549871188256,-3.626845888623182,-4.31888650003077,4.466000000000349
-0.0651,1.0123,-0.181,0.1673,0.1834,-0.0006,-1.155,-1.3212,-5.5037,-10.331779345845083,-3.6259037926894537,-4.340025700035076,4.482000000003609
-0.0651,1.0123,-0.1872,0.1673,0.1834,-0.0006,-1.155,-1.3212,-5.5037,-10.393806265024535,-3.6243531090296606,-4.340025700035076,4.482000000003609
-0.0685,1.0113,-0.1872,0.1687,0.1839,-0.0082,-0.8925,-1.0675,-5.5037,-10.424199413151191,-3.6627335252273348,-4.357105700030789,4.4979999999995925
-0.0662,1.0113,-0.1859,0.1687,0.1839,-0.0082,-1.05,-1.19,-5.53,-10.420995574104685,-3.667399919735383,-4.357105700030789,4.4979999999995925
-0.0684,1.008,-0.1871,0.1687,0.1839,-0.0082,-0.4812,-1.5137,-5.0487,-10.427246626532265,-3.6918265335597553,-4.381324900035723,4.514000000002852
-0.0675,1.0111,-0.1895,0.168,0.1839,-0.0053,-0.4812,-1.5137,-5.0487,-10.439707144921256,-3.702006848917139,-4.381324900035723,4.514000000002852
-0.0675,1.0094,-0.1883,0.168,0.1839,-0.0053,-0.2275,-1.435,-5.1625,-10.459350581650522,-3.706450929408301,-4.402849900024447,4.528999999994994
-0.0675,1.0094,-0.1883,0.169,0.1835,-0.0049,0.1312,-1.575,-5.1013,-10.497114914934297,-3.713265631994946,-4.402849900024447,4.528999999994994
-0.0637,1.0113,-0.1907,0.169,0.1835,-0.0049,-0.3588,-1.9162,-5.2063,-10.505998072261308,-3.7070610015858843,-4.433509100030693,4.544999999998254
-0.0641,1.0123,-0.1882,0.169,0.1835,-0.0049,-0.3588,-1.9162,-5.2063,-10.507259680929062,-3.7018191080603735,-4.433509100030693,4.544999999998254
-0.0589,1.0121,-0.1873,0.1681,0.1841,-0.0134,0.0525,-1.6975,-4.4975,-10.500086763873414,-3.5194594297834354,-4.460669100036227,4.561000000001513
-0.0606,1.0098,-0.1917,0.1681,0.1841,-0.0134,-0.0263,-1.7237,-4.8387,-10.569162824080577,-3.4775712657492632,-4.460669100036227,4.561000000001513
-0.0606,1.0098,-0.1874,0.1683,0.182,-0.0114,-0.0088,-1.47,-5.0225,-10.553196191504705,-3.459304322334247,-4.482719100024675,4.575999999993655
-0.0637,1.0121,-0.1874,0.1683,0.182,-0.0114,-0.0088,-1.47,-5.0225,-10.535111649426966,-3.4741698124790554,-4.482719100024675,4.575999999993655
-0.0612,1.0117,-0.1901,0.1674,0.183,-0.0056,0.0088,-1.6888,-4.935,-10.5666378878466,-3.4572173926024963,-4.50973990003018,4.591999999996915
-0.063,1.0091,-0.1912,0.1674,0.183,-0.0056,-0.3063,-1.4262,-5.1013,-10.58191716474887,-3.463822920611635,-4.50973990003018,4.591999999996915
-0.0631,1.0106,-0.1915,0.1674,0.183,-0.0056,-0.0525,-1.54,-5.25,-10.620888604488794,-3.4641070025622986,-4.532839900029283,4.606999999996333
-0.0625,1.0088,-0.193,0.1684,0.1825,-0.0092,-0.0525,-1.54,-5.25,-10.676177836805012,-3.4642172596489407,-4.532839900029283,4.606999999996333
-0.0625,1.0088,-0.193,0.1684,0.1825,-0.0092,0.175,-1.4525,-5.6788,-10.733239164625955,-3.469674282908121,-4.5560799000340175,4.6229999999995925
-0.0608,1.01,-0.1965,0.166,0.1819,-0.0091,-0.1575,-1.6363,-5.67,-10.788990730632188,-3.443381776062836,-4.5560799000340175,4.6229999999995925
-0.063,1.0108,-0.1917,0.166,0.1819,-0.0091,-0.1575,-1.6363,-5.67,-10.778847569267288,-3.4615396746559504,-4.582260700039352,4.639000000002852
-0.0598,1.0067,-0.1913,0.166,0.1819,-0.0091,-0.4638,-1.2163,-5.9938,-10.777860764594504,-3.409395001615963,-4.582260700039352,4.639000000002852
-0.0603,1.0085,-0.1904,0.1689,0.1832,-0.0275,-0.07,-1.0325,-5.8012,-10.755895518584042,-3.392605883739262,-4.597748200031238,4.653999999994994
-0.0603,1.0085,-0.1904,0.1689,0.1832,-0.0275,0.0263,-0.5775,-6.2125,-10.736276359886899,-3.3777836866751394,-4.597748200031238,4.653999999994994
-0.0605,1.0097,-0.1884,0.1672,0.1833,-0.0108,0.0263,-0.5775,-6.2125,-10.685533106529046,-3.374422443137445,-4.60698820003312,4.669999999998254
-0.0642,1.0095,-0.1931,0.1672,0.1833,-0.0108,-0.07,-0.8487,-5.915,-10.72192302121657,-3.4546706745439115,-4.60698820003312,4.669999999998254
-0.0658,1.0061,-0.1931,0.1672,0.1833,-0.0108,0.0525,-0.5425,-6.1775,-10.767061087893136,-3.561048324490216,-4.615125700032804,4.684999999997672
-0.061,1.0081,-0.1917,0.1694,0.1836,-0.0096,-0.175,-0.5512,-6.3175,-10.767011088785129,-3.4786609671995325,-4.615125700032804,4.684999999997672
-0.0605,1.0113,-0.1954,0.1694,0.1836,-0.0096,-0.175,-0.5512,-6.3175,-10.799139672109867,-3.4180292225444755,-4.6239449000346005,4.701000000000931
-0.0605,1.0113,-0.1954,0.1695,0.1822,-0.0092,0.0,-0.1225,-6.0287,-10.838874304963985,-3.3931964773661543,-4.6239449000346005,4.701000000000931
-0.0622,1.0056,-0.194,0.1695,0.1822,-0.0092,-0.0175,0.3237,-5.8625,-10.861561929431932,-3.4246592403917706,-4.618765700033546,4.717000000004191
-0.0645,1.0094,-0.1919,0.1695,0.1822,-0.0092,-0.1575,0.21,-5.4163,-10.841924164393422,-3.4492735321655106,-4.618765700033546,4.717000000004191
-0.0651,1.0147,-0.1954,0.1682,0.1838,-0.0096,-0.1575,0.21,-5.4163,-10.853634844799007,-3.4721516857079715,-4.615615700035196,4.731999999996333
-0.0656,1.016,-0.194,0.1682,0.1838,-0.0096,-1.0938,0.0,-4.725,-10.836002643709362,-3.525700465578506,-4.615615700035196,4.731999999996333
-0.0656,1.016,-0.194,0.1688,0.1847,-0.0111,-1.5575,-0.3588,-4.2438,-10.82222138944209,-3.577303174748759,-4.621356500036366,4.7479999999995925
-0.0637,1.0152,-0.192,0.1688,0.1847,-0.0111,-1.225,-0.5775,-4.5413,-10.7716520929797,-3.5569619746964647,-4.621356500036366,4.7479999999995925
-0.0666,1.0155,-0.1923,0.1688,0.1642,-0.0023,-1.225,-0.5775,-4.5413,-10.749736347590906,-3.6105997893967756,-4.63001900003603,4.7629999999990105
-0.0658,1.0161,-0.1945,0.1674,0.1838,-0.0023,-1.1638,-0.84,-5.2675,-10.786966925669702,-3.611261275764061,-4.63001900003603,4.7629999999990105
-0.0627,1.0167,-0.1924,0.1674,0.1838,-0.0023,-1.4612,-0.9887,-5.775,-10.750558542767436,-3.561419757177472,-4.645838200039252,4.77900000000227
-0.0608,1.0158,-0.19,0.1692,0.1832,-0.0093,-1.4612,-0.9887,-6.195,-10.670564433476171,-3.4666728349408724,-4.645838200039252,4.77900000000227
-0.0608,1.0158,-0.19,0.1692,0.1832,-0.0093,-1.4963,-1.3913,-6.195,-10.630937544180592,-3.4181126602740646,-4.668099000043787,4.79500000000553
-0.0606,1.0138,-0.1889,0.1686,0.181,-0.009,-2.3187,-1.4175,-6.5887,-10.580983015752862,-3.386530037363985,-4.668099000043787,4.79500000000553
-0.0572,1.0103,-0.1912,0.1686,0.181,-0.009,-2.345,-1.6975,-6.65,-10.670341575514179,-3.268200936535633,-4.693561500030448,4.809999999997672
-0.0605,1.0088,-0.1898,0.1686,0.181,-0.009,-2.345,-1.6975,-6.65,-10.6604349354189,-3.3294482913890886,-4.720721500035982,4.826000000000931
-0.059,1.0085,-0.1889,0.1696,0.183,-0.014,-1.9775,-1.1113,-7.07,-10.629047615687307,-3.304629188284759,-4.720721500035982,4.826000000000931
-0.059,1.0085,-0.1889,0.1696,0.183,-0.014,-2.17,-1.3388,-7.6475,-10.616277706732992,-3.295031187671033,-4.740803500035202,4.841000000000349
-0.0626,1.0078,-0.189,0.1709,0.1837,-0.0101,-2.345,-1.1375,-8.0675,-10.61986218393945,-3.441696691989821,-4.740803500035202,4.841000000000349
-0.0614,1.0085,-0.1906,0.1709,0.1837,-0.0101,-2.345,-1.1375,-8.0675,-10.674210867844899,-3.4282974324445536,-4.759003500030634,4.856999999996333
-0.0598,1.0112,-0.1901,0.1709,0.1837,-0.0101,-2.94,-0.98,-8.05,-10.654724120137352,-3.3530708930919757,-4.759003500030634,4.856999999996333
-0.058,1.0066,-0.1903,0.1698,0.1848,-0.0154,-3.0975,-0.945,-8.0588,-10.691764654171275,-3.2699680928404677,-4.774123500033714,4.8729999999995925
-0.0613,1.0045,-0.1885,0.1698,0.1848,-0.0154,-3.2113,-1.0675,-8.8638,-10.644970385421072,-3.3972416685676343,-4.774123500033714,4.8729999999995925
-0.0613,1.0045,-0.1885,0.1714,0.1843,-0.0082,-3.2113,-1.0675,-8.8638,-10.6326596677998,-3.4247905147666557,-4.790136000033093,4.8879999999990105
-0.0596,1.0049,-0.1832,0.1714,0.1843,-0.0082,-2.205,-0.6037,-8.89,-10.439538637121757,-3.3576930361290236,-4.790136000033093,4.8879999999990105
-0.0528,1.0023,-0.1809,0.1714,0.1843,-0.0082,-1.8112,-0.385,-8.6888,-10.317785712697358,-3.055383162531794,-4.796296000034348,4.90400000000227
-0.055,1.0008,-0.1871,0.1719,0.1845,-0.0101,-1.4088,0.2013,-8.1375,-10.453414857080626,-3.082684805480492,-4.796296000034348,4.90400000000227
-0.0625,1.0038,-0.1862,0.1719,0.1845,-0.0101,-1.4088,0.2013,-8.1375,-10.48101065635562,-3.3952159987876565,-4.7932765000359305,4.918999999994412
-0.0625,1.0038,-0.1862,0.1711,0.1835,-0.0186,-1.0762,0.385,-7.6038,-10.492057816447668,-3.4710772209921297,-4.7932765000359305,4.918999999994412
-0.0625,1.0032,-0.1795,0.1711,0.1835,-0.0186,-1.0588,0.4812,-7.3763,-10.355295433613009,-3.4971419806497903,-4.785577300034362,4.934999999997672
-0.069,1.007,-0.1881,0.1711,0.1835,-0.0186,-1.0588,0.4812,-7.105,-10.44389160266418,-3.728856025798447,-4.785577300034362,4.934999999997672
-0.0714,1.0123,-0.1869,0.1708,0.1856,-0.0044,-0.5775,0.2887,-7.105,-10.446295882004005,-3.884215351072638,-4.780958100035521,4.950999999993655
-0.0722,1.0178,-0.1817,0.1708,0.1856,-0.0044,-0.2887,0.2713,-7.7263,-10.411156548289894,-3.962948664707813,-4.780958100035521,4.950999999993655
-0.0722,1.016,-0.1842,0.1711,0.187,-0.0114,-0.42,-0.035,-7.9012,-10.409845456770089,-3.989716228104915,-4.78155310003577,4.968000000000757
-0.0761,1.016,-0.1842,0.1711,0.187,-0.0114,-0.42,-0.035,-7.9012,-10.408547089251963,-4.153464216540536,-4.78155310003577,4.968000000000757
-0.0733,1.0177,-0.1822,0.1725,0.1861,-0.0131,-0.7262,-0.5337,-8.085,-10.346511339546788,-4.080904056376589,-4.791159700033844,4.985999999997148
-0.0706,1.0197,-0.1776,0.1725,0.1861,-0.0131,-0.5512,-1.0588,-7.595,-10.288866019950254,-3.9554260061244864,-4.798571300039206,4.993000000002212
-0.0732,1.0172,-0.1774,0.1725,0.1861,-0.0131,-1.19,-0.9625,-6.7725,-10.115379422332461,-4.015645840467613,-4.798571300039206,4.993000000002212
-0.0798,1.0152,-0.1821,0.1724,0.1857,-0.01,-1.19,-0.9625,-6.7725,-10.13896115219011,-4.262617041123356,-4.813008800031643,5.007999999994354
-0.0798,1.0152,-0.1821,0.1724,0.1857,-0.01,-1.575,-1.12,-6.335,-10.155232593041648,-4.346919445484036,-4.813008800031643,5.007999999994354
-0.0867,1.0132,-0.1819,0.1726,0.1848,-0.0072,-1.7062,-1.505,-6.09,-10.168026794594669,-4.5611373339127095,-4.837088800036549,5.0239999999976135
-0.0851,1.0136,-0.178,0.1726,0.1848,-0.0072,-1.6187,-2.6425,-5.88,-10.054329030128292,-4.625698594288816,-4.837088800036549,5.0239999999976135
-0.083,1.015,-0.1814,0.1726,0.1848,-0.0072,-1.6187,-2.6425,-5.88,-10.097310869306863,-4.616588779726969,-4.879368800045162,5.040000000000873
-0.0816,1.0176,-0.1802,0.173,0.1846,-0.0048,-1.8725,-3.08,-5.6525,-10.064477127702421,-4.587037653711753,-4.879368800045162,5.040000000000873
-0.0816,1.0182,-0.1798,0.173,0.1846,-0.0048,-1.6625,-3.2375,-5.7575,-10.03663373342417,-4.561728452563811,-4.927931300043277,5.055000000000291
-0.0781,1.0182,-0.1798,0.173,0.1866,-0.0069,-1.75,-3.8063,-5.25,-10.023902366540204,-4.560255004553805,-4.927931300043277,5.055000000000291
-0.0722,1.0163,-0.179,0.173,0.1866,-0.0069,-1.75,-3.8063,-5.25,-10.003918841068083,-4.556858171977789,-4.988832100055684,5.071000000003551
-0.0749,1.0141,-0.1784,0.173,0.1866,-0.0069,-1.6712,-3.4037,-4.9788,-9.989105060420497,-4.473798920318215,-4.988832100055684,5.071000000003551
-0.0737,1.0089,-0.1766,0.1734,0.1862,-0.0115,-1.715,-3.15,-4.4887,-9.95484460582544,-4.319712195943706,-5.0360821000309315,5.085999999995693
-0.074,1.0088,-0.1798,0.1734,0.1862,-0.0115,-1.3825,-2.7825,-4.3575,-10.029261958836145,-4.2308165105623745,-5.0360821000309315,5.085999999995693
-0.074,1.0088,-0.1798,0.1724,0.1854,-0.0026,-1.3825,-2.7825,-4.3575,-10.066993213214642,-4.183691395854949,-5.080602100040001,5.101999999998952
-0.0734,1.006,-0.1773,0.1724,0.1854,-0.0026,-1.61,-2.8963,-4.4187,-10.027895142343427,-4.150335796693284,-5.080602100040001,5.101999999998952
-0.0708,1.0032,-0.1759,0.1724,0.1854,-0.0026,-0.875,-3.1063,-4.2787,-10.001618675580763,-4.064930980394352,-5.130302900027525,5.117999999994936
-0.0689,1.0017,-0.174,0.1736,0.186,-0.0054,-0.875,-3.1063,-4.0862,-9.954847134704591,-3.964049514781676,-5.130302900027525,5.117999999994936
-0.0698,1.0026,-0.1771,0.1736,0.186,-0.0054,0.0962,-2.6075,-4.0862,-9.975886605433697,-3.941448935445971,-5.169415400044979,5.13300000000163
-0.0698,1.0055,-0.1757,0.171,0.186,-0.007,0.1663,-2.6775,-4.27,-9.952426129817724,-3.926876979983136,-5.169415400044979,5.13300000000163
-0.0692,1.0055,-0.1757,0.171,0.186,-0.007,0.2362,-2.0038,-3.8412,-9.936448826094303,-3.898570660498265,-5.201476200051511,5.149000000004889
-0.067,1.0038,-0.1776,0.1726,0.1846,-0.0107,0.2362,-2.0038,-3.8412,-9.97450380952102,-3.817900819248596,-5.201476200051511,5.149000000004889
-0.067,1.0028,-0.1775,0.1726,0.1846,-0.0107,1.0063,-1.82,-3.8675,-10.011511620566564,-3.786727778883745,-5.228776200037209,5.163999999997031
-0.0666,1.009,-0.1785,0.1726,0.1846,-0.0107,0.8138,-1.3825,-3.9813,-10.022938098712448,-3.748825538460063,-5.228776200037209,5.163999999997031
-0.0659,1.0119,-0.1789,0.1708,0.1879,-0.0098,1.085,-1.1375,-4.55,-10.024813286549518,-3.7162816808239563,-5.246976200040916,5.180000000000291
-0.0659,1.0119,-0.1789,0.1708,0.1879,-0.0098,1.085,-1.1375,-4.55,-10.025564804599002,-3.6970690243862316,-5.246976200040916,5.180000000000291
-0.0668,1.0128,-0.1819,0.1739,0.1869,0.0042,1.68,-1.0063,-4.76,-10.131265051225972,-3.7026756955887135,-5.2630770000368745,5.195999999996275
-0.0681,1.0137,-0.179,0.1739,0.1869,0.0042,1.1025,-1.54,-4.8825,-10.060732758087928,-3.724516163253571,-5.2630770000368745,5.195999999996275
-0.0677,1.0137,-0.1839,0.1739,0.1869,0.0042,0.6388,-1.3038,-5.5125,-10.174248807568294,-3.7319536947419354,-5.282634000036116,5.210999999995693
-0.0717,1.0134,-0.1856,0.1728,0.1849,-0.0093,0.6388,-1.3038,-5.5125,-10.2787984899536,-3.7846973182037886,-5.282634000036116,5.210999999995693
-0.0717,1.0134,-0.1831,0.1728,0.1849,-0.0093,0.49,-1.295,-5.9763,-10.261198246586979,-3.8684368363425885,-5.303354000040337,5.226999999998952
-0.0733,1.0141,-0.1831,0.1723,0.1858,-0.0082,0.1925,-1.33,-6.3263,-10.251243570686706,-3.9724990114704113,-5.303354000040337,5.226999999998952
-0.0699,1.0112,-0.1837,0.1723,0.1858,-0.0082,0.2887,-1.8988,-6.5975,-10.269807742878141,-3.925537220664439,-5.331836000039232,5.24199999999837
-0.0732,1.0149,-0.1847,0.1723,0.1858,-0.0082,0.2887,-1.8988,-6.5975,-10.288105130484588,-4.002234174022982,-5.331836000039232,5.24199999999837
-0.0759,1.0163,-0.1832,0.1721,0.1853,-0.0045,0.2537,-1.6187,-6.7375,-10.260331988614432,-4.122830784541611,-5.357735200044508,5.25800000000163
-0.0744,1.0152,-0.1804,0.1721,0.1853,-0.0045,0.1312,-1.8288,-6.965,-10.195665081774662,-4.1255078980689674,-5.357735200044508,5.25800000000163
-0.0744,1.0152,-0.1804,0.1726,0.1857,-0.0086,0.1312,-1.8288,-7.2625,-10.153711723243607,-4.126548060202947,-5.386996000037163,5.2739999999976135
-0.0752,1.015,-0.1802,0.1726,0.1857,-0.0086,-0.4812,-2.2313,-7.2625,-10.147978012442078,-4.157089661429583,-5.386996000037163,5.2739999999976135
-0.075,1.013,-0.1831,0.1726,0.1857,-0.0086,-0.8662,-2.2487,-6.72,-10.178553562295738,-4.163016879485607,-5.420726500035854,5.288999999997031
-0.0772,1.0095,-0.1822,0.1737,0.1854,-0.0066,-0.2625,-1.5313,-6.58,-10.185291346054422,-4.243552497426132,-5.4452273000408455,5.305000000000291
-0.0778,1.0066,-0.1849,0.1737,0.1854,-0.0066,-0.2625,-1.5313,-6.58,-10.214016283466902,-4.302805837532622,-5.44828990004147,5.3070000000006985
-0.0778,1.0066,-0.1827,0.1727,0.1856,-0.0062,0.6125,-1.4,-6.3525,-10.25107648914902,-4.327001143065123,-5.44828990004147,5.3070000000006985
-0.0785,1.0106,-0.1827,0.1727,0.1856,-0.0062,0.84,-1.2687,-5.7575,-10.249067678741262,-4.341948677952158,-5.467320400040731,5.322000000000116
-0.079,1.0161,-0.1823,0.1728,0.1866,-0.0108,0.3675,-1.7587,-5.2325,-10.215050008432096,-4.342332914436967,-5.467320400040731,5.322000000000116
-0.0788,1.0098,-0.1809,0.1728,0.1866,-0.0108,0.3675,-1.7587,-5.2325,-10.18942795615288,-4.342896103795281,-5.4954596000336675,5.3379999999961
-0.074,1.0144,-0.1841,0.1728,0.1866,-0.0108,0.0962,-2.065,-5.1275,-10.222045024135648,-4.318146805809833,-5.4954596000336675,5.3379999999961
-0.0731,1.0088,-0.1842,0.1738,0.1852,-0.0068,0.0787,-1.7938,-5.04,-10.263346145651223,-4.277369975797315,-5.524160400039515,5.35399999999936
-0.0731,1.0088,-0.1842,0.1738,0.1852,-0.0068,0.63,-0.875,-4.8738,-10.306417240735449,-4.223345119657221,-5.524160400039515,5.35399999999936
-0.0692,1.0171,-0.1859,0.1739,0.1849,-0.0082,0.63,-0.875,-4.8738,-10.332655733759548,-4.116819824024834,-5.537285400039005,5.368999999998778
-0.0709,1.0113,-0.1846,0.1739,0.1849,-0.0082,0.3675,-1.1812,-4.8387,-10.337936588116023,-4.0673740387061725,-5.556184600042855,5.385000000002037
-0.0706,1.0072,-0.187,0.1739,0.1849,-0.0082,0.4462,-0.8575,-4.5237,-10.420983797133578,-4.015073313874276,-5.556184600042855,5.385000000002037
-0.0722,1.01,-0.1845,0.1725,0.1862,-0.0058,0.0787,-0.7788,-4.2875,-10.398418855896564,-4.018704898830846,-5.567866600036735,5.399999999994179
-0.0722,1.01,-0.1892,0.1725,0.1862,-0.0058,0.0787,-0.7788,-4.2875,-10.46791555014267,-4.018930395637887,-5.567866600036735,5.399999999994179
-0.0715,1.0089,-0.1892,0.1727,0.1842,-0.0062,0.2887,-1.1812,-4.3137,-10.531044103786254,-4.002339852310085,-5.5867658000405855,5.415999999997439
-0.0758,1.0086,-0.1871,0.1727,0.1842,-0.0062,0.77,-1.1287,-4.6112,-10.519205041886337,-4.089040374648606,-5.5867658000405855,5.415999999997439
-0.0803,1.0075,-0.1882,0.1727,0.1842,-0.0062,0.8662,-0.9363,-4.9788,-10.553770258710843,-4.1709184052490595,-5.601746600036825,5.4319999999934225
-0.0726,1.0171,-0.1851,0.1702,0.1864,0.0002,0.8662,-0.9363,-4.9788,-10.419477279639096,-4.1386790368574395,-5.601746600036825,5.4319999999934225
-0.0702,1.0179,-0.1881,0.1702,0.1864,0.0002,1.0412,-1.1988,-5.1887,-10.449216617201127,-4.125137107147733,-5.61972860004485,5.447000000000116
-0.0702,1.0179,-0.1881,0.1711,0.1861,-0.0102,0.7613,-1.1463,-5.6087,-10.46027079971715,-4.059532084137553,-5.61972860004485,5.447000000000116
-0.0675,1.0191,-0.1875,0.1711,0.1861,-0.0102,0.7613,-1.1463,-5.565,-10.441256321781031,-3.9787208234224223,-5.638069400048586,5.463000000003376
-0.0689,1.0221,-0.1854,0.1711,0.1861,-0.0102,0.3413,-1.4963,-5.565,-10.372567945476899,-3.9340030602712623,-5.638069400048586,5.463000000003376
-0.0671,1.0153,-0.1853,0.1731,0.1866,-0.0086,0.0088,-1.155,-5.88,-10.363860909407835,-3.8507385874461475,-5.65539440003951,5.477999999995518
-0.0713,1.01,-0.1861,0.1731,0.1866,-0.0086,-0.49,-1.1725,-5.8012,-10.36949327350105,-3.8939230567147574,-5.65539440003951,5.477999999995518
-0.0713,1.01,-0.186,0.173,0.1844,-0.0084,-0.49,-1.1725,-5.8012,-10.374303912154959,-3.92167796707307,-5.675326900047836,5.495000000002619
-0.0762,1.0074,-0.186,0.173,0.1844,-0.0084,-0.9363,-1.7237,-5.915,-10.404165049027796,-4.0551387671966665,-5.675326900047836,5.495000000002619
-0.0736,1.0055,-0.1829,0.173,0.1849,-0.0078,-0.7088,-1.365,-5.8362,-10.382365446140573,-4.078925833013376,-5.697166900042354,5.510999999998603
-0.0758,1.0055,-0.1862,0.173,0.1849,-0.0078,-0.2187,-1.3475,-5.8362,-10.399869256170636,-4.138584631712567,-5.697166900042354,5.510999999998603
-0.075,1.0069,-0.1851,0.173,0.1849,-0.0078,-0.2187,-1.3475,-5.8362,-10.402537921247488,-4.157679605987771,-5.717379400041569,5.525999999998021
-0.0715,1.0097,-0.1834,0.1724,0.1858,-0.0022,-0.2975,-1.155,-5.7838,-10.391631641284368,-4.097322287242812,-5.717379400041569,5.525999999998021
-0.0715,1.0097,-0.1834,0.1724,0.1858,-0.0022,0.56,-0.9712,-6.3,-10.343977167170117,-4.03990232325626,-5.7329186000447345,5.542000000001281
-0.0758,1.0095,-0.185,0.1747,0.1865,-0.0041,0.42,-0.9887,-6.195,-10.362467407269678,-4.129649766939238,-5.7329186000447345,5.542000000001281
-0.0759,1.0101,-0.1866,0.1747,0.1865,-0.0041,0.42,-0.9887,-6.195,-10.409653878040919,-4.176595005621929,-5.747749100044159,5.5570000000006985
-0.0741,1.0128,-0.1843,0.1747,0.1865,-0.0041,0.525,-0.7613,-5.565,-10.363094663843954,-4.16214134046006,-5.747749100044159,5.5570000000006985
-0.073,1.0113,-0.1874,0.1727,0.1868,-0.0046,-0.1925,-1.2337,-5.985,-10.387243716860649,-4.118586283969071,-5.767488300039204,5.572999999996682
-0.073,1.0113,-0.1874,0.1727,0.1868,-0.0046,-0.0088,-0.9625,-5.9588,-10.41901662234909,-4.09408647476043,-5.767488300039204,5.572999999996682
-0.0779,1.0116,-0.19,0.1737,0.1853,-0.0085,-0.0088,-0.9625,-5.9588,-10.481578210782416,-4.1916370094884545,-5.782888300035339,5.588999999992666
-0.0791,1.0118,-0.1846,0.1737,0.1853,-0.0085,0.2713,-0.7525,-5.5912,-10.424086189276478,-4.244794897980757,-5.782888300035339,5.588999999992666
-0.0809,1.0133,-0.1884,0.1737,0.1853,-0.0085,-0.07,-1.1025,-5.3637,-10.451625156225571,-4.270830629255455,-5.799425800042719,5.60399999999936
-0.0827,1.0119,-0.1926,0.1731,0.1854,-0.0148,-0.07,-1.1025,-5.4687,-10.53409023865038,-4.329454516676179,-5.799425800042719,5.60399999999936
-0.0825,1.0106,-0.1873,0.1731,0.1854,-0.0148,0.4375,-1.015,-5.4687,-10.518358588796264,-4.377125791998234,-5.815665800046027,5.620000000002619
-0.0825,1.0106,-0.1873,0.1741,0.1872,-0.0074,0.1575,-0.98,-5.4862,-10.511638298645023,-4.418485327632849,-5.815665800046027,5.620000000002619
-0.0747,1.0121,-0.1893,0.1741,0.1872,-0.0074,-0.35,-1.4,-5.18,-10.516315964374007,-4.402333654976426,-5.836665800035026,5.634999999994761
-0.075,1.0174,-0.1883,0.1741,0.1872,-0.0074,-0.35,-1.4,-5.18,-10.51457348892036,-4.386937584577806,-5.836665800035026,5.634999999994761
-0.0691,1.0178,-0.1871,0.1732,0.1862,0.0015,-0.3237,-1.5925,-4.6725,-10.506747094341833,-4.180835116716728,-5.862145800040217,5.650999999998021
-0.0728,1.0122,-0.1886,0.1732,0.1862,0.0015,-0.7788,-1.6013,-4.2875,-10.519663617119855,-4.114140901046359,-5.862145800040217,5.650999999998021
-0.0728,1.0122,-0.1886,0.173,0.1866,-0.0006,-0.84,-1.2775,-4.6287,-10.530197328185297,-4.087580230704281,-5.882585800035086,5.666999999994005
-0.0775,1.0094,-0.1911,0.173,0.1866,-0.0006,-0.84,-1.2775,-4.6287,-10.587366595344415,-4.173863699187422,-5.882585800035086,5.666999999994005
-0.0794,1.0118,-0.1934,0.173,0.1866,-0.0092,-0.2625,-1.6625,-4.8387,-10.617464752595763,-4.241249324671235,-5.907523300046215,5.6820000000006985
-0.0743,1.0131,-0.1903,0.1729,0.1872,-0.0092,-0.245,-2.1875,-5.3463,-10.62043782336661,-4.230232777170649,-5.907523300046215,5.6820000000006985
-0.0688,1.0153,-0.1896,0.1729,0.1872,-0.0092,-0.1663,-1.7413,-5.5125,-10.612065870190966,-4.14144981794515,-5.935384100039221,5.697999999996682
-0.0657,1.0153,-0.1877,0.1748,0.1857,-0.0048,-0.1663,-1.7413,-5.5125,-10.58501341968307,-4.035465122860243,-5.935384100039221,5.697999999996682
-0.0657,1.0153,-0.1877,0.1748,0.1857,-0.0048,-0.2275,-1.7325,-5.7312,-10.567879419728925,-3.906191310294602,-5.963104100044869,5.713999999999942
-0.0646,1.0164,-0.1882,0.1739,0.1863,-0.0046,-0.6913,-1.3388,-5.4075,-10.550849386767878,-3.8597708129773913,-5.963104100044869,5.713999999999942
-0.0669,1.0146,-0.191,0.1739,0.1863,-0.0046,-0.8662,-0.6475,-5.5125,-10.585424331529854,-3.82753518540686,-5.9734641000469795,5.730000000003201
-0.0718,1.0127,-0.1879,0.1739,0.1863,-0.0046,-0.8662,-0.6475,-5.5125,-10.562219057848022,-3.861433598819423,-5.9734641000469795,5.730000000003201
-0.0744,1.0117,-0.1864,0.1726,0.1875,-0.0206,-0.8838,-0.525,-5.7575,-10.522729940751123,-3.9547935903037015,-5.981864100044871,5.745999999999185
-0.0744,1.0117,-0.1864,0.1726,0.1875,-0.0206,-0.8138,-0.5688,-5.4775,-10.49875411751162,-3.989216703122055,-5.981864100044871,5.745999999999185
-0.0747,1.0106,-0.1903,0.1746,0.1857,-0.0068,-1.1463,-0.2013,-5.9237,-10.5688808822484,-4.056171562331279,-5.984883600044753,5.760999999998603
-0.0764,1.0109,-0.1859,0.1746,0.1857,-0.0068,-1.1463,-0.2013,-5.9237,-10.505764086913656,-4.135005979241875,-5.984883600044753,5.760999999998603
-0.0737,1.0112,-0.1854,0.1746,0.1857,-0.0068,-1.26,-0.3588,-5.9062,-10.452393009510125,-4.121236262972426,-5.990624400045923,5.777000000001863
-0.0738,1.009,-0.1911,0.172,0.1872,-0.0036,-1.1375,-0.4288,-5.915,-10.566980164990483,-4.116903483009375,-5.990624400045923,5.777000000001863
-0.074,1.0114,-0.1855,0.172,0.1872,-0.0036,-1.1375,-0.4288,-6.2387,-10.493748902194245,-4.116564210997541,-5.997056400045674,5.792000000001281
-0.074,1.0114,-0.1855,0.1743,0.1865,-0.0058,-1.295,-0.8487,-6.2387,-10.4464813865693,-4.116394134834514,-6.010635600042265,5.807999999997264
-0.0716,1.011,-0.1837,0.1743,0.1865,-0.0058,-1.19,-0.7788,-6.545,-10.38158493396787,-4.042626032414088,-6.010635600042265,5.807999999997264
-0.0758,1.0144,-0.187,0.1743,0.1865,-0.0058,-1.47,-0.49,-6.8513,-10.414187620454081,-4.141412962112501,-6.018475600040297,5.823999999993248
-0.0725,1.0142,-0.1854,0.1742,0.1859,-0.0121,-1.47,-0.49,-6.8513,-10.386061666544746,-4.068041530584512,-6.018475600040297,5.823999999993248
-0.0712,1.0122,-0.1862,0.1742,0.1859,-0.0121,-1.785,-0.4988,-6.7025,-10.407651590784646,-4.002446403489144,-6.025957600043636,5.838999999999942
-0.0712,1.0122,-0.1862,0.1741,0.1863,-0.0027,-2.6513,-0.4988,-6.9738,-10.418510354915147,-3.9739490394691988,-6.025957600043636,5.838999999999942
-0.0731,1.0106,-0.1865,0.1741,0.1863,-0.0027,-2.9313,-0.6562,-6.9125,-10.445313256292376,-4.033206458198025,-6.036456800045775,5.855000000003201
-0.0747,1.0102,-0.1846,0.1741,0.1863,-0.0074,-2.9313,-0.6562,-6.9125,-10.381184473951913,-4.112760723438106,-6.036456800045775,5.855000000003201
-0.073,1.0142,-0.1838,0.1742,0.1885,-0.0074,-2.8263,-1.4787,-6.9913,-10.30398407476767,-4.07358566574298,-6.058637300034155,5.869999999995343
-0.0723,1.0139,-0.1873,0.1742,0.1885,-0.0074,-2.3712,-1.6363,-6.8688,-10.411536770846721,-4.034934897801435,-6.058637300034155,5.869999999995343
-0.0708,1.0096,-0.1845,0.174,0.1892,-0.0063,-2.94,-1.8988,-7.455,-10.37193231273417,-3.973874752809044,-6.089018100040344,5.885999999998603
-0.0708,1.0096,-0.1845,0.174,0.1892,-0.0063,-2.94,-1.8988,-7.455,-10.360712283805462,-3.954859559066171,-6.089018100040344,5.885999999998603
-0.0731,1.0071,-0.182,0.176,0.1878,0.0007,-2.9313,-1.4787,-7.4288,-10.276971524631769,-4.044525923389333,-6.112677300034405,5.901999999994587
-0.0742,1.0091,-0.1809,0.176,0.1878,0.0007,-2.8437,-1.4525,-7.945,-10.196463752597474,-4.113971940841474,-6.112677300034405,5.901999999994587
-0.0724,1.0122,-0.1795,0.176,0.1878,0.0007,-2.7387,-1.6538,-7.63,-10.098261232708612,-4.053815421690588,-6.137484300045475,5.917000000001281
-0.0736,1.0097,-0.177,0.1753,0.1871,0.0011,-2.7387,-1.6538,-7.63,-9.989576089040005,-4.091069102704316,-6.137484300045475,5.917000000001281
-0.0736,1.0097,-0.177,0.1753,0.1871,0.0011,-2.4588,-1.6187,-7.245,-9.95821070101522,-4.1014794745755205,-6.163383500038974,5.932999999997264
-0.0772,1.0099,-0.1811,0.1755,0.187,-0.0073,-2.1613,-1.1375,-7.28,-10.090782959928616,-4.236623587107686,-6.163383500038974,5.932999999997264
-0.0778,1.0083,-0.1746,0.1755,0.187,-0.0073,-2.1613,-1.1375,-7.2713,-9.921020948201,-4.31102788976614,-6.180446000038312,5.947999999996682
-0.0794,1.0058,-0.1749,0.1755,0.187,-0.0073,-1.8025,-1.1375,-7.2713,-9.888187256622654,-4.402238459398723,-6.180446000038312,5.947999999996682
-0.0822,1.0102,-0.1765,0.1762,0.1871,-0.0086,-1.61,-1.4612,-6.58,-9.900390007129582,-4.505503528225539,-6.249122400046987,5.995000000002619
-0.0816,1.0098,-0.1734,0.1762,0.1871,-0.0086,-1.155,-0.9975,-6.545,-9.83347893037303,-4.532677606064515,-6.2650824000429814,6.010999999998603
-0.0816,1.0098,-0.1734,0.1764,0.1881,-0.0046,-1.155,-0.9975,-6.545,-9.795130078495133,-4.544486651487088,-6.2650824000429814,6.010999999998603
-0.0891,1.0085,-0.1716,0.1764,0.1881,-0.0046,-0.9625,-1.155,-5.9325,-9.745843154570778,-4.7211682975377975,-6.28240740004231,6.025999999998021
-0.0895,1.0055,-0.1776,0.1764,0.1881,-0.0046,-0.9712,-0.5863,-5.5563,-9.843205306630228,-4.789777672665874,-6.28240740004231,6.025999999998021
-0.0906,1.0094,-0.179,0.1762,0.1887,-0.0042,-0.2713,-0.735,-4.8125,-9.869145114209012,-4.868361793187204,-6.28240740004231,6.025999999998021
-0.088,1.0127,-0.1773,0.1762,0.1887,-0.0042,-0.2713,-0.735,-4.8125,-9.876627930221751,-4.875569899905808,-6.28240740004231,6.025999999998021
-0.088,1.0127,-0.1773,0.1766,0.187,0.0002,0.455,-0.8138,-4.6375,-9.901617220689497,-4.881877440085978,-6.28240740004231,6.025999999998021
-0.0832,1.0128,-0.1753,0.1766,0.187,0.0002,1.0063,-1.6625,-4.6463,-9.853612687877257,-4.7868076351310185,-6.3090074000477285,6.042000000001281
-0.0802,1.0122,-0.1756,0.1766,0.187,-0.0059,-0.0263,-2.0738,-3.7713,-9.85036819136398,-4.594479117800825,-6.3090074000477285,6.042000000001281
-0.078,1.0177,-0.1757,0.1753,0.1871,-0.0059,-0.0263,-2.0738,-3.7713,-9.835071683341898,-4.4304896907006714,-6.3090074000477285,6.042000000001281
-0.0808,1.0154,-0.1748,0.1753,0.1871,-0.0059,-0.14,-1.5575,-2.9313,-9.820733334005766,-4.467857923357482,-6.3090074000477285,6.042000000001281
-0.0802,1.0118,-0.1776,0.1763,0.1863,-0.0039,0.1225,-1.3388,-2.4325,-9.867620472906555,-4.465078338680747,-6.330428200042351,6.057999999997264
-0.0802,1.0118,-0.1776,0.1763,0.1863,-0.0039,-0.21,-1.2862,-2.31,-9.882302346695907,-4.46434097445412,-6.330428200042351,6.057999999997264
-0.0849,1.0147,-0.1768,0.175,0.1861,-0.0052,-0.21,-1.2862,-2.31,-9.882571583777812,-4.649144570064534,-6.34972120005096,6.073000000003958
-0.0813,1.0135,-0.1758,0.175,0.1861,-0.0052,-0.07,-1.47,-2.1437,-9.871896015901209,-4.550804808439458,-6.34972120005096,6.073000000003958
-0.0845,1.0106,-0.1815,0.175,0.1861,-0.0052,0.1925,-1.505,-2.3625,-9.988348540788477,-4.665026666770621,-6.373801200033966,6.088999999992666
-0.0855,1.0119,-0.182,0.1738,0.1875,0.0042,0.49,-1.575,-2.94,-10.086809159565082,-4.726920777304632,-6.373801200033966,6.088999999992666
-0.0855,1.0119,-0.182,0.1738,0.1875,0.0042,0.49,-1.575,-2.94,-10.138625083560768,-4.745654564690724,-6.397426200044508,6.10399999999936
-0.0799,1.0121,-0.1779,0.1726,0.1885,-0.0037,0.7,-2.625,-3.2025,-10.049499942208087,-4.544499659623984,-6.397426200044508,6.10399999999936
-0.0734,1.0144,-0.1813,0.1726,0.1885,-0.0037,1.2163,-1.75,-3.0712,-10.101377650451312,-4.222475230801379,-6.425426200050213,6.120000000002619
-0.0725,1.0207,-0.1804,0.1726,0.1885,-0.0037,1.2163,-1.75,-3.115,-10.05285952096843,-4.071833588853252,-6.453426200043184,6.135999999998603
-0.0709,1.0194,-0.176,0.1754,0.1867,-0.0034,0.7262,-1.7062,-3.115,-9.916007554088031,-3.9690263429915396,-6.453426200043184,6.135999999998603
-0.0709,1.0159,-0.1796,0.1754,0.1867,-0.0034,0.7088,-1.225,-3.29,-9.973920399812906,-3.9441704905872186,-6.471801200042471,6.150999999998021
-0.0721,1.0159,-0.1796,0.1746,0.1843,-0.0072,0.4288,-1.435,-3.4388,-9.99753197989279,-3.978665795228934,-6.471801200042471,6.150999999998021
-0.0737,1.0139,-0.1754,0.1746,0.1843,-0.0072,0.4288,-1.435,-3.4388,-9.914148218560017,-4.054721350497988,-6.494761200036708,6.166999999994005
-0.0752,1.007,-0.1771,0.1746,0.1843,-0.0072,0.2013,-0.8575,-3.6662,-9.937066127128992,-4.147584163364768,-6.494761200036708,6.166999999994005
-0.0772,1.0046,-0.179,0.1736,0.185,-0.0131,0.875,-0.7788,-3.6925,-10.030363182282716,-4.256354435304959,-6.506443200041921,6.1820000000006985
-0.0784,1.0049,-0.1779,0.1736,0.185,-0.0131,0.56,-0.8487,-3.9288,-10.034715688845829,-4.3339838742271946,-6.506443200041921,6.1820000000006985
-0.0784,1.0049,-0.1779,0.1738,0.1853,-0.0028,0.56,-0.8487,-3.9288,-10.036924858759091,-4.367516008343843,-6.5200224000385125,6.197999999996682
-0.078,1.0052,-0.1792,0.1738,0.1853,-0.0028,0.7875,-1.05,-4.3313,-10.07571348300441,-4.367965912919938,-6.5200224000385125,6.197999999996682
-0.0785,1.007,-0.1834,0.1738,0.1853,-0.0028,1.47,-0.9975,-4.62,-10.23640445206424,-4.3747356477516774,-6.535982400041764,6.213999999999942
-0.0753,1.011,-0.181,0.1746,0.1866,-0.0001,1.6187,-1.1988,-5.0138,-10.178639678423028,-4.34076959233421,-6.535982400041764,6.213999999999942
-0.0736,1.0125,-0.1821,0.1746,0.1866,-0.0001,1.6187,-1.1988,-5.0138,-10.190102073266575,-4.294270345360931,-6.553964400041066,6.22899999999936
-0.0736,1.0141,-0.1808,0.1738,0.1867,-0.0087,1.4963,-1.1113,-5.32,-10.136793201932946,-4.279596793230018,-6.553964400041066,6.22899999999936
-0.0716,1.0141,-0.1808,0.1738,0.1867,-0.0087,0.7437,-1.2425,-5.5563,-10.12181342607302,-4.207359519965846,-6.573844400036076,6.244999999995343
-0.0689,1.0142,-0.1813,0.1746,0.1849,-0.004,0.14,-1.855,-5.6,-10.126575195008405,-4.107204944941011,-6.573844400036076,6.244999999995343
-0.0716,1.0107,-0.1846,0.1746,0.1849,-0.004,0.14,-1.855,-5.6,-10.206134555464894,-4.075493632480836,-6.601669400048492,6.260000000002037
-0.0746,1.0085,-0.1835,0.1746,0.1849,-0.004,0.6913,-1.2337,-5.5125,-10.261805006841278,-4.093903900724136,-6.601669400048492,6.260000000002037
-0.0709,1.008,-0.1843,0.1735,0.186,-0.0124,0.5425,-1.015,-5.145,-10.310376288624562,-4.081675803858698,-6.617909400044415,6.275999999998021
-0.0709,1.008,-0.1843,0.1735,0.186,-0.0124,0.5425,-1.015,-4.935,-10.335250197460166,-4.052491210830384,-6.617909400044415,6.275999999998021
-0.0775,1.013,-0.1881,0.1757,0.1867,-0.0074,0.1225,-1.0938,-4.935,-10.399190870507656,-4.1112934044939635,-6.635410200047981,6.292000000001281
-0.0781,1.0157,-0.1835,0.1757,0.1867,-0.0074,0.315,-1.4612,-5.7925,-10.33260875788426,-4.18778199163611,-6.635410200047981,6.292000000001281
-0.0797,1.0136,-0.1828,0.1757,0.1867,-0.0074,0.28,-1.6625,-5.95,-10.287949876649126,-4.28590244555608,-6.660347700047013,6.3070000000006985
-0.0716,1.0175,-0.1855,0.1747,0.1859,-0.0154,0.28,-1.6625,-5.95,-10.305978071250543,-4.1510712071618405,-6.660347700047013,6.3070000000006985
-0.0716,1.0175,-0.1834,0.1747,0.1859,-0.0154,-0.2013,-1.8112,-6.055,-10.29070773072505,-4.066195477137393,-6.689326900039739,6.322999999996682
-0.0711,1.0178,-0.1834,0.175,0.1866,-0.0069,-0.21,-1.7062,-6.4313,-10.278022660140836,-3.9938149052288505,-6.689326900039739,6.322999999996682
-0.0706,1.0163,-0.1796,0.175,0.1866,-0.0069,-0.35,-1.3125,-6.5012,-10.263474378118259,-3.9490108077683286,-6.709014400048525,6.338000000003376
-0.0778,1.0081,-0.1837,0.175,0.1866,-0.0069,-0.35,-1.3125,-6.5012,-10.267101442628938,-4.16781015399133,-6.709014400048525,6.338000000003376
-0.0809,1.0041,-0.184,0.1744,0.1871,-0.0079,-0.63,-1.3475,-6.5975,-10.28819556978686,-4.376817020577752,-6.730574400043113,6.35399999999936
-0.0799,1.0049,-0.1846,0.1744,0.1871,-0.0079,-0.6125,-1.6363,-6.5012,-10.308551605488033,-4.429575329000793,-6.730574400043113,6.35399999999936
-0.0799,1.0049,-0.1846,0.1746,0.1866,-0.0056,-0.0525,-1.8813,-6.37,-10.335061771248466,-4.4518003040092635,-6.760675200035557,6.369999999995343
-0.0785,1.0092,-0.1875,0.1746,0.1866,-0.0056,-0.0525,-1.8813,-6.37,-10.38510766440286,-4.410180121312453,-6.760675200035557,6.369999999995343
-0.0772,1.01,-0.1864,0.1746,0.1866,-0.0056,0.105,-1.96,-6.055,-10.40939383217715,-4.360220014696543,-6.790075200048677,6.385000000002037
-0.0752,1.0138,-0.1864,0.1737,0.1858,-0.0019,0.2713,-1.6888,-5.81,-10.412962486082542,-4.292375742709418,-6.790075200048677,6.385000000002037
-0.0763,1.0152,-0.1862,0.1737,0.1858,-0.0019,-0.105,-1.89,-5.3725,-10.408347419123112,-4.2850243607604925,-6.820315200041086,6.400999999998021
-0.0763,1.0152,-0.1878,0.1752,0.1866,-0.0037,-0.105,-1.89,-5.3725,-10.425233939766683,-4.278376002026495,-6.820315200041086,6.400999999998021
-0.0763,1.0161,-0.1878,0.1752,0.1866,-0.0037,-0.0787,-1.47,-4.9262,-10.436749110921065,-4.265044975587963,-6.84236520004023,6.415999999997439
-0.0749,1.0155,-0.1864,0.1742,0.188,-0.0042,0.385,-1.295,-4.5413,-10.42097542605141,-4.217258200547594,-6.84236520004023,6.415999999997439
-0.0797,1.013,-0.1897,0.1742,0.188,-0.0042,-0.2362,-1.3563,-4.3225,-10.448498609871173,-4.315463134249585,-6.864066000034782,6.4319999999934225
-0.0809,1.0138,-0.1878,0.1742,0.188,-0.0042,-0.2362,-1.3563,-4.3225,-10.455348401853989,-4.397461551116778,-6.885766800039203,6.447999999996682
-0.0791,1.0136,-0.1843,0.1769,0.1886,-0.013,0.56,-1.3563,-4.5325,-10.38148059037265,-4.394585835706669,-6.885766800039203,6.447999999996682
-0.0791,1.0136,-0.1843,0.1769,0.1886,-0.013,0.0613,-1.7938,-4.2263,-10.35708477193639,-4.3925469933480725,-6.912673800038159,6.4629999999961
-0.0813,1.0094,-0.1869,0.1754,0.1863,-0.0085,0.0613,-1.7938,-6.4662,-10.399691009717873,-4.467152295315366,-6.912673800038159,6.4629999999961
-0.0788,1.0109,-0.1891,0.1754,0.1863,-0.0085,0.0875,-1.5662,-4.9612,-10.464712574829337,-4.448279902022356,-6.937733000043265,6.47899999999936
-0.0755,1.01,-0.187,0.1754,0.1863,-0.0085,0.4638,-1.47,-4.7775,-10.476247617711733,-4.370544839807137,-6.937733000043265,6.47899999999936
-0.0722,1.0094,-0.1903,0.1747,0.1866,-0.0028,0.6737,-1.5662,-4.4538,-10.580423407356188,-4.216124083758667,-6.961226000042353,6.493999999998778
-0.0722,1.0094,-0.1884,0.1747,0.1866,-0.0028,0.6737,-1.5662,-4.4538,-10.576225877491025,-4.1304625814456335,-6.961226000042353,6.493999999998778
-0.0719,1.01,-0.1884,0.1757,0.1854,-0.0088,0.4375,-1.75,-4.6112,-10.571632620709886,-4.081105087339654,-6.989226000035324,6.509999999994761
-0.0704,1.0115,-0.1843,0.1757,0.1854,-0.0088,0.3762,-1.5313,-5.0487,-10.463624392345004,-4.05431592259397,-6.989226000035324,6.509999999994761
-0.0703,1.0122,-0.192,0.1757,0.1854,-0.0088,0.7525,-0.8225,-4.8913,-10.612526773740711,-4.015023623408285,-7.002386000038006,6.525999999998021
-0.0727,1.0124,-0.1886,0.1741,0.1862,0.0026,0.7525,-0.8225,-4.8913,-10.580345519903242,-4.021038639586786,-7.002386000038006,6.525999999998021
-0.0737,1.0135,-0.1873,0.1741,0.1862,0.0026,0.5337,-0.6737,-4.8913,-10.526969960663466,-4.039044456309943,-7.012491500037614,6.540999999997439
-0.0737,1.0135,-0.1873,0.1745,0.187,-0.004,0.63,-0.28,-4.725,-10.498138904078067,-4.056490676220055,-7.012491500037614,6.540999999997439
-0.0748,1.0113,-0.186,0.1745,0.187,-0.004,0.4112,-0.4375,-4.7688,-10.463562618644266,-4.090020991533646,-7.01949150003904,6.5570000000006985
-0.0775,1.0133,-0.1909,0.1745,0.187,-0.004,0.4112,-0.4375,-4.7688,-10.556276589175942,-4.157102141898993,-7.01949150003904,6.5570000000006985
-0.0748,1.0157,-0.1885,0.175,0.1882,-0.0098,0.175,-0.315,-4.9525,-10.540557086384403,-4.153561835965,-7.024216500038857,6.572000000000116
-0.0755,1.0117,-0.1892,0.175,0.1882,-0.0098,0.0,-0.9275,-4.8475,-10.55570698344127,-4.165445400915893,-7.024216500038857,6.572000000000116
-0.0755,1.0117,-0.1892,0.1758,0.1869,-0.008,0.1838,-0.7788,-5.3725,-10.569469953140203,-4.168862142423072,-7.036677300035729,6.5879999999961
-0.0781,1.0088,-0.1926,0.1758,0.1869,-0.008,0.1838,-0.7788,-5.3725,-10.658666390823212,-4.189357210806107,-7.036677300035729,6.5879999999961
-0.0775,1.0076,-0.1874,0.1758,0.1862,-0.008,0.2187,-0.875,-5.2238,-10.611252398239982,-4.192015016767506,-7.050677300038581,6.60399999999936
-0.0766,1.0063,-0.1918,0.1751,0.1862,-0.008,0.175,-1.1812,-5.425,-10.677645894063737,-4.204939537200701,-7.050677300038581,6.60399999999936
-0.0776,1.0098,-0.1911,0.1751,0.1862,-0.008,0.175,-1.1812,-5.2413,-10.691890551725002,-4.20523008854589,-7.068395300037894,6.618999999998778
-0.0747,1.0127,-0.1875,0.1752,0.1859,-0.0134,-0.0962,-0.5075,-5.2413,-10.64351459136164,-4.2050841416350595,-7.068395300037894,6.618999999998778
-0.0747,1.0127,-0.1875,0.1752,0.1859,-0.0134,-0.3675,-0.8925,-4.795,-10.637205476222917,-4.1875314301099715,-7.082675300040803,6.635000000002037
-0.0743,1.0113,-0.1876,0.1758,0.1859,-0.0103,-0.0613,-0.6475,-5.25,-10.604077155660065,-4.187191729234368,-7.082675300040803,6.635000000002037
-0.0783,1.0113,-0.1906,0.1758,0.1859,-0.0103,-0.0613,-0.6475,-5.25,-10.621995203351572,-4.188188778266735,-7.092387800040426,6.650000000001455
-0.0778,1.0105,-0.1887,0.1758,0.1859,-0.0103,-0.0875,-0.7613,-5.0487,-10.611149777208464,-4.211033866632329,-7.092387800040426,6.650000000001455
-0.0747,1.0097,-0.19,0.175,0.1877,-0.0117,0.2537,-0.7,-5.005,-10.629442356601997,-4.200894385264096,-7.103587800037615,6.665999999997439
-0.0747,1.0097,-0.19,0.175,0.1877,-0.0117,0.21,-0.9538,-5.4338,-10.639989513681986,-4.1941194703119535,-7.103587800037615,6.665999999997439
-0.0765,1.0117,-0.1902,0.175,0.1872,-0.0076,0.21,-0.9538,-5.4338,-10.642806893962776,-4.2030439858634505,-7.118848600040724,6.6820000000006985
-0.069,1.0128,-0.1891,0.175,0.1872,-0.0076,-0.0787,-1.1812,-5.1188,-10.626156418554741,-4.161729438025712,-7.118848600040724,6.6820000000006985
-0.0728,1.015,-0.1926,0.175,0.1872,-0.0076,-0.6037,-1.2163,-5.32,-10.645318268147388,-4.152466424697933,-7.1370931000400155,6.697000000000116
-0.0753,1.0113,-0.1916,0.1744,0.187,-0.0014,-0.4288,-1.1375,-5.1188,-10.64682903952023,-4.155988244255707,-7.1370931000400155,6.697000000000116
-0.0752,1.0142,-0.1905,0.1744,0.187,-0.0014,-0.4288,-1.1375,-5.1188,-10.646669154784945,-4.157316138670538,-7.155293100035447,6.7129999999961
-0.0752,1.0142,-0.1905,0.1758,0.186,-0.0093,-0.455,-1.19,-5.5125,-10.646300568723273,-4.159564165287408,-7.155293100035447,6.7129999999961
-0.0737,1.016,-0.1905,0.1758,0.186,-0.0093,-1.12,-1.54,-5.9938,-10.635239141266926,-4.124658312541201,-7.17839310003455,6.727999999995518
-0.0725,1.016,-0.1907,0.1758,0.186,-0.0093,-1.0237,-1.3913,-5.4338,-10.633456395420238,-4.106643008713617,-7.17839310003455,6.727999999995518
-0.0695,1.0133,-0.189,0.1758,0.185,-0.0081,-1.0237,-1.3913,-5.4338,-10.60756553761986,-4.066849795778783,-7.200653900039085,6.743999999998778
-0.0694,1.0114,-0.1902,0.1758,0.185,-0.0081,-1.89,-1.61,-5.8538,-10.633147861880728,-3.987703375410989,-7.200653900039085,6.743999999998778
-0.0694,1.0114,-0.1902,0.1751,0.1873,-0.0098,-2.2313,-1.3212,-6.3875,-10.64430755597026,-3.918474033277213,-7.221793100043391,6.760000000002037
-0.0698,1.0171,-0.1872,0.1751,0.1873,-0.0098,-4.4713,-1.2775,-6.1075,-10.471324231764351,-3.8919320207444694,-7.221793100043391,6.760000000002037
-0.0691,1.0095,-0.1864,0.1751,0.1873,-0.0035,-2.485,-1.2775,-6.1075,-10.464761127903072,-3.8729068797055555,-7.240955600033352,6.774999999994179
-0.0742,1.0067,-0.1892,0.175,0.1862,-0.0035,-2.905,-1.61,-6.4925,-10.592749367465053,-4.022969763484444,-7.240955600033352,6.774999999994179
-0.0745,1.0096,-0.1913,0.175,0.1862,-0.0035,-3.1237,-1.365,-6.475,-10.692501531715282,-4.091286569930353,-7.262795600037801,6.790999999997439
-0.0731,1.0134,-0.1886,0.1767,0.189,-0.0047,-3.1237,-1.365,-8.715,-10.582884738405113,-4.064189575816358,-7.283270600037007,6.805999999996857
-0.0731,1.0134,-0.1886,0.1767,0.189,-0.0047,-3.2113,-2.1788,-7.455,-10.55311557804097,-4.058814222557016,-7.283270600037007,6.805999999996857
-0.0683,1.0159,-0.1886,0.1767,0.1885,-0.0095,-3.4037,-2.59,-8.3387,-10.526136337061876,-3.849479603741251,-7.324710600045449,6.822000000000116
-0.0658,1.0162,-0.1871,0.1767,0.1885,-0.0095,-3.5438,-2.8525,-9.31,-10.455007760658347,-3.684329534484394,-7.324710600045449,6.822000000000116
-0.0645,1.0165,-0.1854,0.1767,0.1885,-0.0095,-3.5438,-2.8525,-9.31,-10.36523643900634,-3.5941345833926146,-7.370350600054747,6.838000000003376
-0.0628,1.0126,-0.184,0.1775,0.1874,0.0011,-3.92,-2.7912,-9.0475,-10.3135869894354,-3.5131211878580193,-7.370350600054747,6.838000000003376
-0.0628,1.0126,-0.184,0.1775,0.1874,0.0011,-3.9375,-2.0563,-8.645,-10.302121662254626,-3.496661631800881,-7.4011951000385885,6.852999999995518
-0.0705,1.0133,-0.1868,0.1774,0.1858,-0.0054,-3.8937,-2.1613,-8.575,-10.413212204016194,-3.817777695403143,-7.4011951000385885,6.852999999995518
-0.0742,1.0135,-0.1828,0.1774,0.1858,-0.0054,-3.8937,-2.1613,-8.575,-10.266382963839536,-4.050980465020118,-7.435775900045633,6.868999999998778
-0.075,1.0105,-0.1776,0.1774,0.1858,-0.0054,-3.605,-2.1613,-9.0475,-10.039275955195189,-4.153853217879011,-7.435775900045633,6.868999999998778
