AcclX,AcclY,AcclZ,MagX,MagY,MagZ,GyroX,GyroY,GyroZ,Roll,Pitch,Yaw,Time Elapsed(s)
0.274,0.8959,-0.3536,0.0002,0.1222,-0.0734,-6.9563,-0.175,-14.9537,0,0,0,0.0
0.2751,0.8913,-0.3561,0.0002,0.1222,-0.0734,-7.7263,-1.54,-15.1637,0,0,0,0.0
0.2793,0.8926,-0.353,0.0025,0.1236,-0.0702,-7.9625,-2.3712,-14.9187,0,0,0,0.01600000000325963
0.2793,0.8926,-0.353,0.0025,0.1236,-0.0702,-7.5338,-2.7125,-14.63,0,0,0,0.01600000000325963
0.2762,0.8896,-0.3569,0.0038,0.1221,-0.0678,-7.5338,-2.7125,-14.63,0,0,0,0.031000000002677552
0.2778,0.8976,-0.3529,0.0038,0.1221,-0.0678,-6.4138,-3.99,-14.6475,0,0,0,0.031000000002677552
0.2781,0.8979,-0.3509,0.0038,0.1221,-0.0678,-6.5712,-4.3837,-14.2887,0,0,0,0.04700000000593718
0.2815,0.9011,-0.3499,0.0058,0.1222,-0.0618,-6.615,-4.9,-13.7025,0,0,0,0.04700000000593718
0.2815,0.9046,-0.3488,0.0058,0.1222,-0.0618,-6.615,-4.9,-13.7025,0,0,0,0.06199999999807915
0.281,0.9046,-0.3488,0.0062,0.1222,-0.068,-7.2625,-4.3313,-12.4862,0,0,0,0.06199999999807915
0.2745,0.9012,-0.3495,0.0062,0.1222,-0.068,-7.6213,-3.8937,-12.0225,0,0,0,0.07800000000133878
0.2635,0.8945,-0.3492,0.0062,0.1222,-0.068,-7.5512,-3.465,-11.3837,0,0,0,0.07800000000133878
0.2599,0.8816,-0.3548,0.0074,0.1214,-0.0688,-7.5512,-3.465,-11.3837,0,0,0,0.0940000000045984
0.2575,0.868,-0.3558,0.0074,0.1214,-0.0688,-7.245,-4.2438,-11.0075,0,0,0,0.0940000000045984
0.2575,0.868,-0.3558,0.0085,0.1212,-0.0574,-6.02,-4.7775,-10.5262,0,0,0,0.11099999999714782
0.263,0.8635,-0.3543,0.0085,0.1212,-0.0574,-6.02,-4.7775,-8.9513,0,0,0,0.11099999999714782
0.2689,0.8666,-0.3604,0.0085,0.1212,-0.0574,-4.0425,-4.2875,-8.9513,0,0,0,0.12700000000040745
0.2735,0.8578,-0.3692,0.0114,0.1219,-0.0592,-1.715,-3.8325,-8.015,0,0,0,0.12700000000040745
0.283,0.8519,-0.3713,0.0114,0.1219,-0.0592,0.3325,-4.3137,-6.2475,0,0,0,0.14200000000710133
0.283,0.8624,-0.3674,0.0087,0.1235,-0.0677,0.3325,-4.3137,-6.2475,0,0,0,0.14200000000710133
0.2913,0.8624,-0.3674,0.0087,0.1235,-0.0677,2.9225,-3.4213,-4.83,0,0,0,0.158000000003085
0.2952,0.8674,-0.3715,0.0094,0.1238,-0.0592,4.6988,-2.6688,-3.2287,0,0,0,0.158000000003085
0.2966,0.8663,-0.3713,0.0094,0.1238,-0.0592,5.9763,-1.5662,-2.0038,0,0,0,0.17400000000634464
0.2984,0.8664,-0.368,0.0094,0.1238,-0.0592,5.9763,-1.5662,-2.0038,0,0,0,0.17400000000634464
0.2961,0.8601,-0.3675,0.0084,0.122,-0.0765,7.1225,-0.21,-1.3212,0,0,0,0.1889999999984866
0.2961,0.8601,-0.3675,0.0084,0.122,-0.0765,7.7875,1.3563,-0.5775,0,0,0,0.20500000000174623
0.2918,0.8574,-0.3717,0.007,0.1218,-0.0714,8.2775,2.2487,0.0787,0,0,0,0.20500000000174623
0.2876,0.854,-0.3676,0.007,0.1218,-0.0714,8.2775,2.2487,0.0787,0,0,0,0.22000000000116415
0.2887,0.8472,-0.37,0.007,0.1218,-0.0714,9.3888,3.0363,0.1138,0,0,0,0.22000000000116415
0.2907,0.8474,-0.373,0.0067,0.1234,-0.0657,9.6075,3.4388,-0.0088,0,0,0,0.23700000000098953
0.2907,0.8564,-0.3703,0.0067,0.1234,-0.0657,10.2113,4.06,1.0325,0,0,0,0.23700000000098953
0.2936,0.8564,-0.3703,0.0055,0.1253,-0.071,10.2113,4.06,1.0325,0,0,0,0.25300000000424916
0.2977,0.8636,-0.3709,0.0055,0.1253,-0.071,10.2025,4.6375,1.6975,0,0,0,0.25300000000424916
0.2986,0.8678,-0.3755,0.0055,0.1253,-0.071,9.8875,4.6988,2.03,0,0,0,0.2679999999963911
0.2958,0.875,-0.3791,0.0024,0.1228,-0.0682,10.0013,4.5588,2.17,0,0,0,0.2679999999963911
0.2934,0.8806,-0.3696,0.0024,0.1228,-0.0682,10.0013,4.5588,2.17,0,0,0,0.28399999999965075
0.2934,0.8806,-0.3696,0.0026,0.1236,-0.073,9.8175,4.585,2.135,0,0,0,0.28399999999965075
0.2943,0.8879,-0.3764,0.0026,0.1236,-0.073,8.3387,3.9113,1.82,0,0,0,0.29900000000634464
0.2962,0.8951,-0.3766,0.0026,0.1236,-0.073,8.3387,3.9113,1.5662,0,0,0,0.29900000000634464
0.3032,0.9007,-0.3678,-0.0008,0.1233,-0.0747,7.0963,3.0888,1.5662,0,0,0,0.3150000000023283
0.3048,0.9063,-0.3694,-0.0008,0.1233,-0.0747,6.1512,2.9838,1.1287,0,0,0,0.3150000000023283
0.3048,0.9063,-0.3719,0.0002,0.1234,-0.0806,4.3488,3.1762,-0.2625,0,0,0,0.33100000000558794
0.299,0.9094,-0.3719,0.0002,0.1234,-0.0806,4.3488,3.1762,-0.2625,0,0,0,0.33100000000558794
0.3022,0.9135,-0.3699,-0.0014,0.1249,-0.075,2.7213,3.0975,-1.1812,0,0,0,0.3459999999977299
0.3043,0.9155,-0.3678,-0.0014,0.1249,-0.075,1.365,3.4213,-1.8375,0,0,0,0.3459999999977299
0.3003,0.9184,-0.371,-0.0014,0.1249,-0.075,-0.5425,2.87,-3.185,0,0,0,0.36200000000098953
0.2936,0.9159,-0.3663,-0.0011,0.1255,-0.08,-0.5425,2.87,-3.185,0,0,0,0.36200000000098953
0.2936,0.9159,-0.3663,-0.0011,0.1255,-0.08,-1.4875,2.7037,-4.55,0,0,0,0.3770000000076834
0.2868,0.9142,-0.373,-0.0017,0.123,-0.0806,-2.5463,2.4062,-5.8012,0,0,0,0.3770000000076834
0.2758,0.9135,-0.3753,-0.0017,0.123,-0.0806,-2.9225,1.3212,-7.7438,0,0,0,0.3930000000036671
0.265,0.9103,-0.3719,-0.0017,0.123,-0.0806,-2.9225,1.3212,-7.7438,0,0,0,0.3930000000036671
0.2643,0.9059,-0.3747,-0.0024,0.1246,-0.0828,-3.8412,-0.3938,-9.1875,0,0,0,0.4090000000069267
0.2643,0.9059,-0.3764,-0.0024,0.1246,-0.0828,-3.99,-2.03,-10.7362,0,0,0,0.4090000000069267
0.2594,0.9044,-0.3764,-0.0016,0.125,-0.0767,-3.43,-3.5612,-11.8125,0,0,0,0.4239999999990687
0.2588,0.8983,-0.3693,-0.0016,0.125,-0.0767,-3.43,-3.5612,-11.8125,0,0,0,0.4239999999990687
0.2569,0.8944,-0.3686,-0.0016,0.125,-0.0767,-2.9313,-5.0225,-13.405,0,0,0,0.4400000000023283
0.2595,0.8952,-0.3689,0.0005,0.1254,-0.0821,-2.6425,-6.2125,-14.07,0,0,0,0.4400000000023283
0.2643,0.8961,-0.3669,0.0005,0.1254,-0.0821,-2.6425,-8.4525,-14.28,0,0,0,0.45500000000174623
0.2643,0.8961,-0.3669,0.0031,0.125,-0.0802,-2.9838,-7.0613,-14.28,0,0,0,0.45500000000174623
0.2681,0.8911,-0.3716,0.0031,0.125,-0.0802,-3.6488,-7.4988,-13.9738,0,0,0,0.47100000000500586
0.2651,0.8921,-0.3692,0.0031,0.125,-0.0802,-2.7475,-7.455,-13.9125,0,0,0,0.47100000000500586
0.2661,0.8913,-0.3682,0.0034,0.1246,-0.0762,-2.7475,-7.455,-13.9125,0,0,0,0.48700000000098953
0.266,0.8907,-0.3687,0.0034,0.1246,-0.0762,-3.0975,-7.2187,-12.9762,0,0,0,0.48700000000098953
0.266,0.8907,-0.3694,0.0044,0.1252,-0.0746,-3.1063,-7.2888,-12.0662,0,0,0,0.5020000000004075
0.2692,0.8952,-0.3694,0.0044,0.1252,-0.0746,-3.2287,-6.3875,-11.5063,0,0,0,0.5020000000004075
0.2751,0.8983,-0.3635,0.008,0.1256,-0.0704,-3.2287,-6.3875,-11.5063,0,0,0,0.5180000000036671
0.2766,0.8977,-0.3674,0.008,0.1256,-0.0704,-3.3425,-5.6525,-10.7013,0,0,0,0.5180000000036671
0.2763,0.9012,-0.3657,0.008,0.1256,-0.0704,-4.025,-4.8913,-10.5262,0,0,0,0.532999999995809
0.278,0.9015,-0.365,0.0079,0.1262,-0.0721,-4.4975,-3.7625,-9.9312,0,0,0,0.532999999995809
0.278,0.9015,-0.365,0.0079,0.1262,-0.0721,-4.4975,-3.7625,-9.9312,0,0,0,0.5489999999990687
0.2744,0.8997,-0.3671,0.0082,0.1235,-0.0725,-4.9088,-3.0013,-9.52,0,0,0,0.5489999999990687
0.2721,0.8995,-0.3636,0.0082,0.1235,-0.0725,-5.6875,-1.7675,-9.1,0,0,0,0.5650000000023283
0.2764,0.8965,-0.365,0.0082,0.1235,-0.0725,-5.6525,-1.4438,-8.8725,0,0,0,0.5650000000023283
0.2786,0.8943,-0.367,0.0092,0.1238,-0.0734,-5.6525,-1.4438,-8.8725,0,0,0,0.5800000000017462
0.2786,0.8943,-0.3654,0.0092,0.1238,-0.0734,-5.5738,-1.155,-8.9425,0,0,0,0.5800000000017462
0.2798,0.8947,-0.3654,0.0106,0.1263,-0.0721,-5.7137,-0.2362,-8.4613,0,0,0,0.5960000000050059
0.2826,0.8919,-0.3632,0.0106,0.1263,-0.0721,-4.34,0.5075,-7.9275,0,0,0,0.5960000000050059
0.2836,0.892,-0.3665,0.0106,0.1263,-0.0721,-4.34,0.5075,-7.9275,0,0,0,0.6109999999971478
0.2847,0.8925,-0.3588,0.0106,0.1256,-0.0715,-3.7187,1.2862,-8.05,0,0,0,0.6270000000004075
0.2839,0.8947,-0.3601,0.0106,0.1256,-0.0715,-3.2638,1.7587,-7.6825,0,0,0,0.6270000000004075
0.2839,0.8947,-0.3601,0.0101,0.1236,-0.0702,-3.2638,3.9987,-7.3325,0,0,0,0.6430000000036671
0.2804,0.8955,-0.3628,0.0101,0.1236,-0.0702,-2.5463,2.3537,-7.3325,0,0,0,0.6430000000036671
0.278,0.8932,-0.359,0.0101,0.1236,-0.0702,-1.7237,2.7738,-6.5625,0,0,0,0.658000000003085
0.2743,0.8902,-0.3606,0.0102,0.1249,-0.0639,-1.2337,2.5375,-6.5188,0,0,0,0.658000000003085
0.2663,0.8911,-0.3585,0.0102,0.1249,-0.0639,-1.2337,2.5375,-6.5188,0,0,0,0.6740000000063446
0.2663,0.8883,-0.3532,0.0084,0.1234,-0.0732,-0.7613,1.75,-6.3175,0,0,0,0.6740000000063446
0.2641,0.8883,-0.3532,0.0084,0.1234,-0.0732,-0.3237,1.8813,-5.9062,0,0,0,0.6889999999984866
0.2661,0.8854,-0.3525,0.0097,0.1267,-0.0632,1.1725,1.61,-5.81,0,0,0,0.6889999999984866
0.2646,0.8855,-0.3495,0.0097,0.1267,-0.0632,1.1725,1.61,-5.81,0,0,0,0.7050000000017462
0.2691,0.8851,-0.3476,0.0097,0.1267,-0.0632,1.0412,1.12,-5.7312,0,0,0,0.7050000000017462
0.2702,0.8796,-0.348,0.0098,0.1229,-0.0722,1.1988,0.9887,-5.1625,0,0,0,0.7210000000050059
0.2702,0.8796,-0.348,0.0098,0.1229,-0.0722,1.365,1.3563,-4.8825,0,0,0,0.7210000000050059
0.2633,0.8747,-0.3527,0.0098,0.1241,-0.0738,1.365,1.3563,-4.8825,0,0,0,0.7360000000044238
0.2621,0.874,-0.3528,0.0098,0.1241,-0.0738,2.0387,1.1375,-4.1562,0,0,0,0.7360000000044238
0.2646,0.8739,-0.3572,0.0098,0.1241,-0.0738,2.5463,0.0437,-3.7713,0,0,0,0.7520000000076834
0.2698,0.8788,-0.3587,0.0093,0.1258,-0.076,3.43,-0.7088,-3.5087,0,0,0,0.7520000000076834
0.2698,0.8808,-0.356,0.0093,0.1258,-0.076,3.43,-0.7088,-3.5087,0,0,0,0.7669999999998254
0.2761,0.8808,-0.356,0.0072,0.1236,-0.0734,4.0775,-1.2425,-3.08,0,0,0,0.7669999999998254
0.2787,0.887,-0.3626,0.0072,0.1236,-0.0734,3.9987,-1.435,-2.555,0,0,0,0.783000000003085
0.2829,0.8908,-0.3601,0.0072,0.1236,-0.0734,4.5062,-1.2775,-2.1,0,0,0,0.783000000003085
0.2821,0.8918,-0.3619,0.0094,0.1259,-0.0762,4.5062,-1.2775,-2.1,-18.116873875937834,13.06851003792487,0.0,0.7989999999990687
0.279,0.8972,-0.3689,0.0094,0.1259,-0.0762,3.7975,-1.0762,-1.9162,-21.478581319240778,15.47111050834454,-0.06672440000576317,0.8610000000044238
0.279,0.8972,-0.3689,0.007,0.1239,-0.0692,3.2987,-1.0938,-2.1962,-22.150595612426798,15.928351969318106,-0.06672440000576317,0.8610000000044238
0.2826,0.8993,-0.3662,0.007,0.1239,-0.0692,3.2987,-1.0938,-2.065,-22.155089218338134,16.167755475720824,-0.06672440000576317,0.8610000000044238
0.278,0.8968,-0.3713,0.007,0.1239,-0.0692,2.9137,-1.0675,-2.065,-22.406317673239844,16.019231465167053,-0.08380440000147574,0.8770000000004075
0.2788,0.8997,-0.3693,0.0087,0.1261,-0.0739,2.5113,-0.98,-2.66,-22.34181061638115,16.001269867707734,-0.08380440000147574,0.8770000000004075
0.2807,0.8991,-0.3727,0.0087,0.1261,-0.0739,1.75,-0.9712,-2.5638,-22.453452157586796,16.06871428549684,-0.08380440000147574,0.8770000000004075
0.2807,0.8991,-0.3741,0.0068,0.1222,-0.0757,1.75,-0.9712,-2.5638,-22.542212002983433,16.077028296874484,-0.08380440000147574,0.8770000000004075
0.2791,0.899,-0.3741,0.0068,0.1222,-0.0757,1.0762,-1.155,-3.255,-22.56950868500873,16.015499430895215,-0.10112940000080343,0.8919999999998254
0.2799,0.9015,-0.3721,0.0074,0.1216,-0.0766,0.56,-1.5488,-3.8063,-22.51582259975675,16.013948004054207,-0.10112940000080343,0.8919999999998254
0.2847,0.8969,-0.3741,0.0074,0.1216,-0.0766,0.6212,-1.4088,-4.445,-22.566449812156712,16.210089670988722,-0.10112940000080343,0.8919999999998254
0.2825,0.8971,-0.3774,0.0074,0.1216,-0.0766,0.6212,-1.4088,-4.445,-22.6672127082499,16.19514650133051,-0.10112940000080343,0.8919999999998254
0.2855,0.8951,-0.3736,0.0072,0.1238,-0.0772,0.7788,-1.2513,-5.1013,-22.661588539513712,16.298312068108753,-0.10112940000080343,0.8919999999998254
0.2855,0.8951,-0.3736,0.0072,0.1238,-0.0772,0.315,-1.8112,-5.3025,-22.65976506927128,16.34415704661002,-0.13010860000670726,0.908000000003085
0.2829,0.8941,-0.3773,0.0076,0.1253,-0.0782,0.6737,-1.5925,-5.2063,-22.752351760964668,16.30077600787509,-0.13010860000670726,0.908000000003085
0.2833,0.895,-0.375,0.0076,0.1253,-0.0782,0.6737,-1.5925,-5.2063,-22.744359982846902,16.288584719203243,-0.15399610000578032,0.9230000000025029
0.283,0.8927,-0.3722,0.0076,0.1253,-0.0782,0.6825,-1.855,-5.3113,-22.697079646135872,16.297832554450643,-0.15399610000578032,0.9230000000025029
0.2815,0.8894,-0.3719,0.0085,0.1258,-0.0839,0.2975,-1.6712,-5.5388,-22.69577841568283,16.290740276827194,-0.1807353000112278,0.9390000000057626
0.2815,0.9051,-0.3756,0.0085,0.1258,-0.0839,0.595,-1.05,-5.9237,-22.633376439922646,16.25145706629988,-0.1807353000112278,0.9390000000057626
0.2796,0.8921,-0.3756,0.0062,0.1238,-0.0758,0.595,-1.05,-5.9237,-22.711913300190016,16.23063389562155,-0.19753530000701067,0.9550000000017462
0.2818,0.8894,-0.3749,0.0062,0.1238,-0.0758,0.9975,-0.9275,-5.6262,-22.78604884076823,16.24517873921727,-0.19753530000701067,0.9550000000017462
0.2788,0.8901,-0.3782,0.0062,0.1238,-0.0758,0.665,-0.8138,-5.1887,-22.884269322587766,16.167040351519987,-0.20974230000653699,0.9700000000011642
0.279,0.8906,-0.3744,0.007,0.1259,-0.0757,0.665,0.0437,-5.3113,-22.84955892353582,16.14112809252133,-0.20974230000653699,0.9700000000011642
0.2774,0.889,-0.375,0.007,0.1259,-0.0757,0.7613,0.0437,-5.3113,-22.8592485783831,16.096641685017932,-0.20904310000639453,0.9860000000044238
0.2774,0.889,-0.375,0.0079,0.1242,-0.079,0.6037,-0.4988,-5.215,-22.863960616534587,16.07014238696753,-0.20904310000639453,0.9860000000044238
0.2718,0.8905,-0.3787,0.0079,0.1242,-0.079,0.595,-0.6212,-5.425,-22.93277314893591,15.916636946600814,-0.21836110000603295,1.0010000000038417
0.2708,0.8932,-0.3733,0.0079,0.1242,-0.079,0.595,-0.6212,-5.425,-22.833781942262274,15.800422683699225,-0.21836110000603295,1.0010000000038417
0.269,0.8933,-0.3731,0.0066,0.1245,-0.0664,-0.0437,-1.12,-5.4775,-22.831732886098052,15.696357631978525,-0.23628110000968375,1.0170000000071013
0.2686,0.8968,-0.3763,0.0066,0.1245,-0.0664,0.0525,-1.225,-5.5825,-22.824997591903845,15.608759007020652,-0.23628110000968375,1.0170000000071013
0.2686,0.8968,-0.3712,0.0078,0.1239,-0.0806,-0.6475,-1.7763,-6.4925,-22.69883663595659,15.569259763828926,-0.26470190000254956,1.033000000003085
0.2697,0.8993,-0.3712,0.0078,0.1239,-0.0806,-0.6475,-1.7763,-6.4925,-22.598630279781958,15.548028321133422,-0.26470190000254956,1.033000000003085
0.271,0.8976,-0.3701,0.0078,0.1264,-0.0778,-0.9625,-2.1088,-6.79,-22.50772698611169,15.567430761016743,-0.2963339000013221,1.048000000002503
0.2674,0.8979,-0.3704,0.0078,0.1264,-0.0778,-1.6625,-1.7325,-6.9125,-22.45183215243426,15.488878117602692,-0.2963339000013221,1.048000000002503
0.2687,0.8974,-0.3683,0.0078,0.1264,-0.0778,-2.7738,-1.96,-7.7263,-22.350806606001367,15.485063231088228,-0.3276938999934501,1.0639999999984866
0.2719,0.8943,-0.3694,0.008,0.1263,-0.075,-2.7738,-1.96,-7.7263,-22.41862896264404,15.615571352517088,-0.3276938999934501,1.0639999999984866
0.2719,0.8943,-0.3694,0.008,0.1263,-0.075,-3.7887,-2.205,-7.9625,-22.43831256189077,15.66776340180377,-0.3607689000082101,1.0790000000051805
0.2702,0.8946,-0.3714,0.0084,0.125,-0.0742,-3.8675,-2.3712,-7.9975,-22.52373901505396,15.614508080066393,-0.3607689000082101,1.0790000000051805
0.2757,0.8901,-0.37,0.0084,0.125,-0.0742,-4.1562,-2.6513,-7.9275,-22.56242145644152,15.838674706457054,-0.40318970001685234,1.09500000000844
0.2794,0.8893,-0.3701,0.0084,0.125,-0.0742,-4.1562,-2.6513,-7.9275,-22.589105915592103,16.05641431445244,-0.40318970001685234,1.09500000000844
0.2786,0.8921,-0.3648,0.0098,0.1244,-0.0765,-3.7362,-2.38,-7.5338,-22.315202041816935,16.095413070437456,-0.44126969998997667,1.1109999999971478
0.2786,0.8921,-0.3643,0.0098,0.1244,-0.0765,-3.2638,-1.9338,-7.4637,-22.23748287003495,16.1128308195596,-0.44126969998997667,1.1109999999971478
0.2821,0.8882,-0.3643,0.0093,0.1248,-0.0736,-2.8963,-1.54,-7.5775,-22.284643951147256,16.26953800334228,-0.46744970000091274,1.1280000000042492
0.2804,0.8867,-0.3683,0.0093,0.1248,-0.0736,-2.8963,-1.54,-7.5775,-22.485379253443533,16.27568763984336,-0.46744970000091274,1.1280000000042492
0.2776,0.8894,-0.3637,0.0093,0.1248,-0.0736,-2.6337,-0.77,-7.0437,-22.309308497831633,16.19711424333932,-0.47976970000342267,1.1440000000075088
0.2801,0.8894,-0.3686,0.0094,0.126,-0.0668,-2.2925,-0.8925,-6.475,-22.44861616839703,16.20380521817705,-0.47976970000342267,1.1440000000075088
0.2787,0.8895,-0.367,0.0094,0.126,-0.0668,-2.2925,-0.8925,-6.195,-22.429270757072327,16.199356481289286,-0.4931571999964094,1.1589999999996508
0.2787,0.8895,-0.367,0.0102,0.1259,-0.0702,-1.925,-0.6913,-6.195,-22.423635455837992,16.195297370343035,-0.4931571999964094,1.1589999999996508
0.276,0.8887,-0.3654,0.0102,0.1259,-0.0702,-1.0325,-0.0263,-5.8975,-22.387566985181046,16.16688497190447,-0.4935779999964951,1.1750000000029104
0.2706,0.8875,-0.3722,0.0102,0.1259,-0.0702,-0.4812,-0.4288,-6.0813,-22.496311384708342,16.15884120187153,-0.4935779999964951,1.1750000000029104
0.2678,0.8893,-0.3741,0.0102,0.1263,-0.0726,-0.4812,-0.4288,-6.0813,-22.5913286111894,16.14760726542962,-0.5004387999947729,1.190999999998894
0.2715,0.8927,-0.3678,0.0102,0.1263,-0.0726,-0.1488,-0.6825,-6.405,-22.57445158307835,16.044154651879644,-0.5004387999947729,1.190999999998894
0.2715,0.8927,-0.3667,0.0101,0.1258,-0.0794,0.945,-0.4638,-6.3263,-22.452997655706337,15.982740330753572,-0.5073957999978775,1.206000000005588
0.2762,0.8948,-0.3667,0.0101,0.1258,-0.0794,0.7175,-0.9363,-6.3,-22.379459455284522,15.975641319724431,-0.5073957999978775,1.206000000005588
0.2778,0.8985,-0.3658,0.0075,0.1254,-0.0661,0.7175,-0.9363,-6.3,-22.280396329854497,15.976298565099347,-0.5223766000009296,1.2220000000088476
0.2784,0.8977,-0.367,0.0075,0.1254,-0.0661,0.5337,-0.7962,-5.9938,-22.263867552359297,15.98015573264317,-0.5223766000009296,1.2220000000088476
0.2739,0.8987,-0.3666,0.0075,0.1254,-0.0661,0.2013,-0.175,-6.0813,-22.24907787246111,15.97630577384219,-0.5250015999995544,1.2370000000009895
0.2706,0.8978,-0.3621,0.0092,0.1261,-0.0779,-0.3413,-0.0088,-5.7663,-22.186102439202973,15.886606353742426,-0.5250015999995544,1.2370000000009895
0.2706,0.8978,-0.3621,0.0092,0.1261,-0.0779,-0.3413,-0.0088,-5.7663,-22.137095883569234,15.819300424104396,-0.5251423999995831,1.2530000000042492
0.2667,0.8948,-0.3667,0.0105,0.1261,-0.0706,-0.7,0.2887,-5.5563,-22.194792383621923,15.67832538198186,-0.5251423999995831,1.2530000000042492
0.264,0.8937,-0.367,0.0105,0.1261,-0.0706,-1.1638,-0.0613,-5.635,-22.26354382553742,15.553158908603606,-0.5261231999993369,1.2690000000002328
0.2654,0.8919,-0.3654,0.0105,0.1261,-0.0706,-1.1287,-0.2013,-5.9938,-22.27117140360601,15.53811618261808,-0.5261231999993369,1.2690000000002328
0.2632,0.8892,-0.3694,0.0126,0.1264,-0.0826,-1.1287,-0.2013,-5.9938,-22.42034628329449,15.514323355899963,-0.5291426999992197,1.2839999999996508
0.2632,0.8892,-0.3661,0.0126,0.1264,-0.0826,-0.665,-0.7962,-6.1512,-22.404272084123143,15.50405472905376,-0.5291426999992197,1.2839999999996508
0.264,0.8923,-0.3661,0.0094,0.1249,-0.0752,-0.6037,-1.19,-6.5363,-22.37012713714408,15.444446527362903,-0.5481827000030987,1.3000000000029104
0.2688,0.8919,-0.3668,0.0094,0.1249,-0.0752,-1.1463,-1.0762,-6.51,-22.362369049349706,15.482376388741564,-0.5481827000030987,1.3000000000029104
0.2699,0.8935,-0.3661,0.0094,0.1249,-0.0752,-1.1463,-1.0762,-6.51,-22.319789514561776,15.521468870688748,-0.5643257000024722,1.3150000000023283
0.2697,0.8946,-0.3632,0.0103,0.1247,-0.0793,-0.805,-1.1287,-6.3525,-22.224286307004057,15.538716551205347,-0.5643257000024722,1.3150000000023283
0.2702,0.8966,-0.3665,0.0103,0.1247,-0.0793,-0.9625,-0.6388,-5.7838,-22.22847492570148,15.55022133060177,-0.5745465000045544,1.331000000005588
0.2702,0.8966,-0.3665,0.0096,0.1249,-0.0778,-0.9625,-0.6388,-5.7838,-22.230672244244843,15.558968802033315,-0.5745465000045544,1.331000000005588
0.269,0.8993,-0.3627,0.0096,0.1249,-0.0778,-1.1025,-1.1025,-5.6175,-22.09478058190523,15.541268069267034,-0.5921865000001264,1.3470000000015716
0.27,0.8971,-0.3672,0.0096,0.1249,-0.0778,-1.1812,-0.8575,-5.7137,-22.182360687559974,15.547761958948879,-0.5921865000001264,1.3470000000015716
0.2672,0.9004,-0.3656,0.0114,0.1254,-0.0675,-1.47,-0.6388,-5.4687,-22.13365681742807,15.48053389731152,-0.6017684999997546,1.3620000000009895
0.2672,0.8977,-0.3653,0.0114,0.1254,-0.0675,-1.47,-0.6388,-5.4687,-22.13902621591355,15.454568838850927,-0.611989299997189,1.3779999999969732
0.2672,0.8977,-0.3659,0.0091,0.1269,-0.0679,-1.2513,-0.735,-5.635,-22.15897674463221,15.440426349601706,-0.611989299997189,1.3779999999969732
0.2652,0.8979,-0.3659,0.0091,0.1269,-0.0679,-1.26,-1.2513,-6.2737,-22.165659029520153,15.419133471547942,-0.6307588000055651,1.393000000003667
0.2666,0.9006,-0.3643,0.0107,0.1274,-0.075,-0.8575,-1.4787,-5.915,-22.10252568759292,15.407695948054315,-0.6307588000055651,1.393000000003667
0.2739,0.9001,-0.3627,0.0107,0.1274,-0.075,-0.8575,-1.4787,-5.915,-22.033444987553427,15.462687141603244,-0.6544180000103851,1.4090000000069267
0.2689,0.8962,-0.3666,0.0107,0.1274,-0.075,-1.0938,-1.33,-6.16,-22.14245972103713,15.466005665503449,-0.6544180000103851,1.4090000000069267
0.2641,0.8938,-0.3634,0.011,0.1248,-0.0768,-1.3212,-1.4525,-5.88,-22.133049032225426,15.43763518920866,-0.6776580000045513,1.4250000000029104
0.2641,0.8938,-0.3634,0.011,0.1248,-0.0768,-0.2887,-1.2163,-5.5912,-22.13164590277336,15.394008276604746,-0.6776580000045513,1.4250000000029104
0.2665,0.8959,-0.3644,0.0098,0.1258,-0.0747,-0.2887,-1.2163,-5.5912,-22.132020435388934,15.3978081407252,-0.6959025000038433,1.4400000000023283
0.2675,0.8949,-0.3675,0.0098,0.1258,-0.0747,-0.2537,-1.6712,-6.1075,-22.16400737796781,15.398302763125379,-0.6959025000038433,1.4400000000023283
0.2667,0.8996,-0.3642,0.0098,0.1258,-0.0747,0.1838,-1.5575,-5.7925,-22.140077912759715,15.390620944315213,-0.720822499997588,1.455999999998312
0.2701,0.8979,-0.3608,0.011,0.1268,-0.0792,-0.4812,-2.1088,-5.32,-22.065968140510883,15.480367310449553,-0.720822499997588,1.455999999998312
0.2701,0.8979,-0.3655,0.011,0.1268,-0.0792,-0.4812,-2.1088,-5.32,-22.090824305453175,15.519003443706376,-0.752454500011704,1.4710000000050059
0.2688,0.9005,-0.3655,0.01,0.1268,-0.0736,-0.4025,-2.0912,-5.145,-22.091004794926366,15.49054189931016,-0.752454500011704,1.4710000000050059
0.2652,0.899,-0.3603,0.01,0.1268,-0.0736,0.3762,-1.925,-5.285,-22.015183823977402,15.411086470795723,-0.7832545000179788,1.4870000000082655
0.266,0.8943,-0.3606,0.01,0.1268,-0.0736,0.3762,-1.9425,-5.1887,-21.998613617582425,15.416263092497854,-0.7832545000179788,1.4870000000082655
0.2683,0.8916,-0.3649,0.0119,0.1258,-0.0698,-0.2887,-1.9425,-5.1887,-22.047445933971666,15.48591731488023,-0.814334500010177,1.5030000000042492
0.2692,0.8895,-0.3592,0.0119,0.1258,-0.0698,0.0525,-1.7938,-4.9175,-22.04180693689808,15.588555238970784,-0.814334500010177,1.5030000000042492
0.2692,0.8895,-0.3592,0.0118,0.124,-0.0751,0.3938,-1.4438,-4.5062,-22.025714550900535,15.641921062240003,-0.8359915000093366,1.518000000003667
0.2679,0.8883,-0.3627,0.0118,0.124,-0.0751,0.3938,-1.4438,-4.5062,-22.08309388840432,15.616322770733085,-0.8359915000093366,1.518000000003667
0.2674,0.8913,-0.3628,0.0118,0.124,-0.0751,0.525,-1.225,-4.1125,-22.10716560740708,15.558362608122467,-0.8555915000044166,1.5339999999996508
0.2703,0.8913,-0.3609,0.0101,0.1269,-0.0855,0.7875,-1.015,-4.2,-22.078132207072592,15.651428655696328,-0.8708165000112109,1.5490000000063446
0.2711,0.8908,-0.3647,0.0101,0.1269,-0.0855,1.6187,-1.1725,-4.5237,-22.19485983626018,15.699199657309178,-0.8708165000112109,1.5490000000063446
0.2711,0.8908,-0.3669,0.0108,0.1258,-0.0832,1.6187,-1.1725,-4.5237,-22.314315674870745,15.709815543829617,-0.8708165000112109,1.5490000000063446
0.2688,0.8927,-0.3669,0.0108,0.1258,-0.0832,0.875,-1.1287,-4.0338,-22.327992468171516,15.610709400420493,-0.8888757000066777,1.5650000000023283
0.272,0.8937,-0.3648,0.0092,0.1256,-0.0773,0.7525,-1.1375,-3.5963,-22.27291972906089,15.700841603876503,-0.8888757000066777,1.5650000000023283
0.2724,0.8929,-0.3652,0.0092,0.1256,-0.0773,1.0063,-1.1287,-3.57,-22.25842102044067,15.748967096776907,-0.9069349000021445,1.580999999998312
0.2707,0.8963,-0.3644,0.0092,0.1256,-0.0773,1.0063,-1.1287,-3.57,-22.18953628504588,15.664133592932554,-0.9069349000021445,1.580999999998312
0.2733,0.8958,-0.3635,0.0098,0.1255,-0.072,0.8313,-0.6125,-3.3775,-22.14106603000497,15.753042212634858,-0.9161224000062445,1.5960000000050059
0.2733,0.8958,-0.3635,0.0098,0.1255,-0.072,0.9187,-0.49,-3.465,-22.11410687093347,15.776721302538155,-0.9161224000062445,1.5960000000050059
0.2727,0.8976,-0.3664,0.0109,0.1238,-0.0776,0.735,-0.2713,-3.5525,-22.154374541167318,15.728915612576685,-0.9204632000051548,1.6120000000009895
0.2763,0.8972,-0.3611,0.0109,0.1238,-0.0776,0.735,-0.2713,-3.5525,-22.05239889746982,15.883336895359,-0.9204632000051548,1.6120000000009895
0.2727,0.8962,-0.3661,0.0109,0.1238,-0.0776,0.665,0.1575,-3.325,-22.122687791556533,15.772014814377343,-0.9181007000052465,1.6270000000004075
0.272,0.8965,-0.364,0.0105,0.1279,-0.0779,0.5425,-0.1225,-3.0275,-22.113555939204847,15.718761228424174,-0.9181007000052465,1.6270000000004075
0.272,0.8965,-0.3604,0.0105,0.1279,-0.0779,0.9275,0.7788,-3.1063,-22.0079061957681,15.721379676404146,-0.9056399000083744,1.6429999999963911
0.2716,0.8955,-0.3604,0.0071,0.1255,-0.0758,0.9275,0.7788,-3.1063,-21.965627863406446,15.716312357146316,-0.9056399000083744,1.6429999999963911
0.2716,0.8924,-0.3647,0.0071,0.1255,-0.0758,1.3388,0.9363,-3.2462,-22.11875608947765,15.729475779652802,-0.8887865000049409,1.6610000000000582
0.2716,0.8927,-0.3626,0.0071,0.1255,-0.0758,1.54,0.4812,-3.0187,-22.111022248812837,15.738987707477342,-0.8887865000049409,1.6610000000000582
0.2756,0.8913,-0.3614,0.0081,0.125,-0.0803,1.54,0.4812,-2.3363,-22.08661912083768,15.937076755576625,-0.8815685000017197,1.676000000006752
0.2728,0.8883,-0.3663,0.0081,0.125,-0.0803,1.6712,0.455,-2.3363,-22.29100815498343,15.868198337310174,-0.8815685000017197,1.676000000006752
0.2728,0.8883,-0.3663,0.0075,0.1252,-0.0741,1.61,1.3825,-2.17,-22.36494995464956,15.853606644885824,-0.8594485000173313,1.6919999999954598
0.2734,0.8896,-0.3638,0.0075,0.1252,-0.0741,2.5812,1.225,-1.7413,-22.2758020103986,15.87428335111558,-0.8594485000173313,1.6919999999954598
0.275,0.8764,-0.3687,0.0075,0.1252,-0.0741,2.5812,1.225,-1.7413,-22.66778614714539,16.083487714124182,-0.8410735000091313,1.7070000000021537
0.2758,0.8711,-0.367,0.0084,0.1242,-0.0762,4.2,0.6913,-1.4438,-22.812097438265983,16.23360310332901,-0.8410735000091313,1.7070000000021537
0.2754,0.8694,-0.3642,0.0084,0.1242,-0.0762,6.5625,0.28,-0.6913,-22.740148034479436,16.278482922294643,-0.8365935000082186,1.7230000000054133
0.2754,0.8694,-0.3623,0.0087,0.1255,-0.0741,9.4412,1.4787,0.315,-22.633863425205128,16.29603904403659,-0.8365935000082186,1.7230000000054133
0.2763,0.8725,-0.3623,0.0087,0.1255,-0.0741,9.4412,1.4787,0.315,-22.558308615333882,16.301456461858344,-0.8129343000141576,1.739000000001397
0.268,0.8805,-0.358,0.0087,0.125,-0.0874,11.515,3.0888,1.68,-22.160414415570944,15.809458954878039,-0.8129343000141576,1.739000000001397
0.2635,0.8799,-0.3612,0.0046,0.125,-0.0874,12.1713,3.9113,4.5413,-22.30627937325535,15.512385186768828,-0.7542648000164343,1.754000000000815
0.2651,0.8809,-0.3681,0.0046,0.125,-0.0874,13.5712,4.7337,7.0613,-22.653047209763717,15.518163987147018,-0.7542648000164343,1.754000000000815
0.2772,0.8788,-0.3635,0.0026,0.1271,-0.0877,13.5712,4.7337,7.0613,-22.48397091684086,16.198607188219572,-0.6785256000354464,1.7699999999967986
0.2772,0.8788,-0.3635,0.0026,0.1271,-0.0877,15.7325,4.9437,8.9163,-22.472302894987234,16.24708295088407,-0.6785256000354464,1.7699999999967986
0.2743,0.8721,-0.3702,-0.0006,0.1261,-0.0854,18.095,5.7663,10.99,-22.973264300935135,16.152473509232003,-0.5920310999968474,1.7850000000034925
0.2813,0.8652,-0.3681,-0.0006,0.1261,-0.0854,22.015,7.6737,12.3638,-23.044152221807618,16.63005327184556,-0.5920310999968474,1.7850000000034925
0.2905,0.8653,-0.3628,-0.0006,0.1261,-0.0854,22.015,7.6737,12.3638,-22.760034308285075,17.17357365811886,-0.46925189997183403,1.801000000006752
0.2868,0.865,-0.3678,-0.0042,0.1275,-0.0857,25.375,9.625,15.75,-23.024894750465677,16.977160223497137,-0.3152519000104912,1.8170000000027358
0.2868,0.865,-0.3689,-0.0042,0.1275,-0.0857,27.0462,12.2413,20.65,-23.094421427893124,16.961428785358567,-0.3152519000104912,1.8170000000027358
0.2822,0.8605,-0.3689,-0.0103,0.1266,-0.0954,27.0462,14.07,25.795,-23.201083518847433,16.77946149524497,-0.10420190001868102,1.8320000000021537
0.2805,0.8581,-0.3765,-0.0103,0.1266,-0.0954,28.0613,14.07,25.795,-23.673157371848358,16.668007858992645,-0.10420190001868102,1.8320000000021537
0.2833,0.855,-0.3808,-0.0103,0.1266,-0.0954,29.6187,15.7413,30.45,-23.996349536645205,16.835520797613245,0.14765889991809678,1.8479999999981374
0.297,0.8456,-0.3857,-0.0172,0.1293,-0.098,30.6863,16.8263,35.1838,-24.5024900499046,17.700707666889556,0.14765889991809678,1.8479999999981374
0.3152,0.828,-0.3969,-0.0172,0.1293,-0.098,30.6863,16.8263,41.9038,-25.575718273631544,18.920689827215732,0.40005340003073003,1.8630000000048312
0.3152,0.828,-0.3969,-0.0246,0.128,-0.1057,34.1162,17.9375,41.0288,-25.609635909163664,18.94557656432667,0.40005340003073003,1.8630000000048312
0.3233,0.8095,-0.391,-0.0246,0.128,-0.1057,37.8438,19.5212,47.11,-25.77679215407441,19.764633625228207,0.7123925999523265,1.879000000000815
0.337,0.8032,-0.4008,-0.0246,0.128,-0.1057,41.7463,21.3412,52.535,-26.50202986081747,20.563801293332578,0.7123925999523265,1.879000000000815
0.3388,0.8126,-0.4096,-0.0363,0.1298,-0.1162,41.7463,21.3412,52.535,-26.745078729445964,20.423186770483248,1.0538518000218908,1.8950000000040745
0.3455,0.8283,-0.4063,-0.0363,0.1298,-0.1162,44.7212,23.03,57.7675,-26.142459832158234,20.528858016260017,1.0538518000218908,1.8950000000040745
0.3455,0.8283,-0.411,-0.0487,0.1313,-0.1237,45.3075,24.2025,61.2588,-26.38512160236942,20.488776676355233,1.416889300007803,1.9100000000034925
0.3554,0.8389,-0.411,-0.0487,0.1313,-0.1237,45.5962,24.8937,61.7575,-26.1075739063338,20.82410234697102,1.416889300007803,1.9100000000034925
0.3632,0.8405,-0.4196,-0.0618,0.1336,-0.124,45.5962,24.8937,61.7575,-26.520546487201717,21.13308203413568,1.8151884999078218,1.9259999999994761
0.3711,0.8311,-0.4307,-0.0618,0.1336,-0.124,44.3275,24.7625,60.5325,-27.375237146556003,21.61827687051273,1.8151884999078218,1.9259999999994761
0.3803,0.8108,-0.4391,-0.0618,0.1336,-0.124,43.855,24.2113,60.0337,-28.414703490456844,22.401533493505145,2.1783580000698892,1.94100000000617
0.396,0.8074,-0.4524,-0.073,0.1357,-0.1329,43.47,22.3475,58.2137,-29.243610269680868,23.15314854746862,2.1783580000698892,1.94100000000617
0.396,0.8074,-0.4524,-0.073,0.1357,-0.1329,43.47,22.3475,58.2137,-29.262226403123023,23.16465649180208,2.5359179999801342,1.9570000000021537
0.4185,0.8034,-0.4553,-0.0838,0.1377,-0.1354,42.2537,20.7987,56.1312,-29.534506147552534,24.360557703252486,2.5359179999801342,1.9570000000021537
0.436,0.8043,-0.4622,-0.0838,0.1377,-0.1354,40.8013,19.8188,52.4038,-29.875954012660433,25.160176316552754,2.8530187999005356,1.9729999999981374
0.4458,0.7933,-0.4664,-0.0838,0.1377,-0.1354,38.5962,19.18,48.6237,-30.437751869743902,25.834859287920832,2.8530187999005356,1.9729999999981374
0.4533,0.7854,-0.4636,-0.0946,0.1378,-0.1394,38.5962,19.18,48.6237,-30.549297990608245,26.418064166639876,3.140718800028924,1.9880000000048312
0.4533,0.7698,-0.4693,-0.0946,0.1378,-0.1394,36.9775,19.25,45.4475,-31.346580030816583,26.687461213831234,3.140718800028924,1.9880000000048312
0.4579,0.7768,-0.4693,-0.1032,0.1408,-0.1472,34.0288,18.7862,41.93,-31.14401477880009,26.771076045748046,3.4412979999534725,2.004000000000815
0.4616,0.7696,-0.4707,-0.1032,0.1408,-0.1472,31.01,18.27,38.4738,-31.441078491972263,27.090596194594234,3.4412979999534725,2.004000000000815
0.4717,0.7624,-0.4671,-0.1032,0.1408,-0.1472,31.01,18.27,38.4738,-31.492905026294945,27.798568128897823,3.7153480000757697,2.019000000007509
0.477,0.7531,-0.4721,-0.109,0.1434,-0.1445,27.5187,17.4737,35.77,-32.061958156655024,28.210569521327592,3.7153480000757697,2.019000000007509
0.4804,0.7338,-0.4681,-0.109,0.1434,-0.1445,24.5263,15.8287,33.8625,-32.51583818650005,28.87915687546095,3.9686071998970274,2.0349999999962165
0.4804,0.7338,-0.4681,-0.1186,0.1453,-0.1454,24.5263,15.8287,33.7487,-32.53357996244377,28.895478068459912,3.9686071998970274,2.0349999999962165
0.4801,0.7155,-0.4684,-0.1186,0.1453,-0.1454,23.4675,15.0937,33.7487,-33.183038600725915,29.29970909704249,4.210106399946227,2.050999999999476
0.4799,0.7078,-0.4713,-0.1186,0.1453,-0.1454,22.8288,14.2625,33.0925,-33.63840102780543,29.434856462928874,4.210106399946227,2.050999999999476
0.4855,0.7081,-0.4727,-0.1236,0.1455,-0.16,22.1725,12.9237,32.2,-33.72177996672711,29.68733528817506,4.403961900032737,2.06600000000617
0.49,0.6999,-0.4718,-0.1236,0.1455,-0.16,22.1725,12.9237,32.2,-33.972485519279864,30.124610405676844,4.403961900032737,2.06600000000617
0.49,0.6955,-0.4778,-0.1306,0.148,-0.1522,20.8512,11.5588,32.7775,-34.46503115212445,30.143270490508357,4.588902699986313,2.0820000000021537
0.4909,0.6955,-0.4778,-0.1306,0.148,-0.1522,20.1075,9.6163,32.6025,-34.48747637434889,30.18826711109408,4.588902699986313,2.0820000000021537
0.502,0.6898,-0.4798,-0.1374,0.1498,-0.1587,19.04,8.1637,31.6838,-34.80448152993889,30.838413927159863,4.711358199981562,2.0970000000015716
0.5097,0.6835,-0.4771,-0.1374,0.1498,-0.1587,19.04,8.1637,31.6838,-34.910449864187655,31.42951359182245,4.841977399948774,2.1129999999975553
0.5191,0.6771,-0.4765,-0.1374,0.1498,-0.1587,18.3838,7.0087,31.1763,-35.12387660218154,32.06904002843274,4.841977399948774,2.1129999999975553
0.5281,0.6626,-0.4697,-0.143,0.1487,-0.1651,18.3838,6.195,30.5112,-35.32114355174913,33.0069173537094,4.941097399968967,2.129000000000815
0.5281,0.6626,-0.4697,-0.143,0.1487,-0.1651,18.2437,6.4662,31.2987,-35.33128700315482,33.031868096448996,4.960495999949395,2.131999999997788
0.5359,0.6467,-0.4736,-0.1496,0.1525,-0.1718,18.2437,6.4662,31.2987,-36.170693748598,33.74605331346296,4.960495999949395,2.131999999997788
0.5347,0.6355,-0.477,-0.1496,0.1525,-0.1718,18.62,6.5012,31.8762,-36.85489477687392,33.93237960644281,5.058013999992913,2.147000000004482
0.5356,0.6329,-0.4735,-0.1496,0.1525,-0.1718,19.4513,6.405,33.04,-36.804350203522766,34.117387851100915,5.058013999992913,2.147000000004482
0.5386,0.6262,-0.4782,-0.1544,0.1545,-0.1638,20.3787,5.7488,34.2388,-37.341036741099366,34.34999840480065,5.149994799969824,2.1630000000004657
0.5413,0.6187,-0.4854,-0.1544,0.1545,-0.1638,20.3787,5.7488,34.2388,-38.07974603323539,34.53652303642319,5.149994799969824,2.1630000000004657
0.5413,0.6187,-0.4854,-0.1629,0.1558,-0.1692,20.7113,5.1887,35.7,-38.11423462915599,34.54103905922774,5.227825299966804,2.1779999999998836
0.5453,0.6226,-0.4824,-0.1629,0.1558,-0.1692,21.6038,5.0312,36.61,-37.78430409197346,34.6929105788655,5.227825299966804,2.1779999999998836
0.5558,0.616,-0.4882,-0.1629,0.1558,-0.1692,21.9538,4.9,37.0563,-38.37129784050345,35.252131710298634,5.306225299982776,2.194000000003143
0.5627,0.6124,-0.4927,-0.1666,0.1592,-0.172,21.9538,4.9,37.0563,-38.79863643279744,35.59133722150137,5.306225299982776,2.194000000003143
0.5741,0.6069,-0.497,-0.1666,0.1592,-0.172,22.68,5.0575,36.8288,-39.2928517759353,36.18526751970838,5.387145299962463,2.209999999999127
0.5741,0.6069,-0.497,-0.1752,0.1614,-0.1834,22.33,5.0925,36.855,-39.313659184037206,36.198788305703225,5.387145299962463,2.209999999999127
0.5849,0.606,-0.4953,-0.1752,0.1614,-0.1834,22.33,5.0925,36.9863,-39.262339842755296,36.75859160144252,5.4635327999965515,2.2250000000058208
0.5912,0.6016,-0.5017,-0.1752,0.1614,-0.1874,21.9625,5.9062,36.9863,-39.80167945872407,37.03594992806875,5.5580319999728305,2.2410000000018044
0.593,0.6006,-0.5051,-0.1836,0.1666,-0.1874,20.6238,6.5538,36.6888,-40.05149826011974,37.075455898322716,5.5580319999728305,2.2410000000018044
0.6012,0.5868,-0.5001,-0.1836,0.1666,-0.1874,19.495,7.1137,37.0563,-40.42040971364033,37.926353952479495,5.66473749996869,2.2560000000012224
0.607,0.5727,-0.5049,-0.1898,0.1672,-0.1788,19.495,7.1137,37.0563,-41.35217535602218,38.47337784714451,5.66473749996869,2.2560000000012224
0.607,0.5727,-0.5049,-0.1898,0.1672,-0.1788,19.0487,7.315,36.6362,-41.39746249465859,38.485763721301474,5.781777499992534,2.272000000004482
0.6155,0.5553,-0.5146,-0.197,0.1691,-0.1753,19.3463,7.1663,35.8838,-42.75166993660797,39.09626638167562,5.781777499992534,2.272000000004482
0.6286,0.545,-0.5129,-0.197,0.1691,-0.1753,19.3638,7.7875,35.49,-43.2370082309406,40.00614848086071,5.906377499961257,2.2880000000004657
0.641,0.536,-0.5184,-0.197,0.1691,-0.1753,19.3638,7.7875,35.49,-44.00420472668419,40.667159830414676,5.906377499961257,2.2880000000004657
0.6512,0.5336,-0.5203,-0.2015,0.1724,-0.1809,19.4163,8.1637,35.4025,-44.26365367146061,41.13461028671149,6.028833000015904,2.3030000000071595
0.6512,0.5336,-0.5203,-0.2015,0.1724,-0.1809,19.2325,9.31,34.7287,-44.276320785598266,41.14560446061258,6.028833000015904,2.3030000000071595
0.6554,0.5334,-0.5173,-0.209,0.1762,-0.1872,18.8125,10.1587,34.0988,-44.129879749716125,41.40729782981338,6.1913721999751035,2.319000000003143
0.6636,0.5292,-0.52,-0.209,0.1762,-0.1872,18.8125,10.1587,34.0988,-44.47910197000054,41.8006222387866,6.1913721999751035,2.319000000003143
0.6617,0.5315,-0.5217,-0.209,0.1762,-0.1872,17.9813,10.7275,33.3638,-44.46752158700429,41.62482729911442,6.352284699968859,2.334000000002561
0.6613,0.5274,-0.5183,-0.2166,0.1764,-0.1902,17.1763,11.2963,32.3312,-44.49954873079727,41.80209500252033,6.352284699968859,2.334000000002561
0.6589,0.5173,-0.5184,-0.2166,0.1764,-0.1902,16.6338,11.725,31.1063,-45.029122965853695,41.973281581040204,6.539884700007078,2.3500000000058208
0.6589,0.5173,-0.5184,-0.2222,0.1817,-0.191,16.6338,11.725,31.1063,-45.059059227516606,41.977762282009735,6.539884700007078,2.3500000000058208
0.6664,0.5061,-0.5185,-0.2222,0.1817,-0.191,15.8813,11.3313,29.9075,-45.65592563229092,42.588931347289005,6.7211854999615674,2.3660000000018044
0.6683,0.4955,-0.5147,-0.2222,0.1817,-0.191,15.7937,11.1912,28.8575,-46.06314803061975,43.074608346974685,6.7211854999615674,2.3660000000018044
0.6689,0.485,-0.5165,-0.2279,0.183,-0.1903,15.8463,11.2437,28.1663,-46.75783593855361,43.344618194361885,6.889840999955023,2.3810000000012224
0.67,0.4749,-0.5124,-0.2279,0.183,-0.1903,15.8463,11.2437,28.1663,-47.15049280850302,43.78866398649685,6.889840999955023,2.3810000000012224
0.67,0.4749,-0.5124,-0.2324,0.1858,-0.1927,16.205,10.325,27.51,-47.17375378180213,43.80124859219211,7.055040999913555,2.396999999997206
0.6689,0.4713,-0.5123,-0.2324,0.1858,-0.1927,16.0212,9.6775,26.5562,-47.374431282264844,43.85616726386997,7.055040999913555,2.396999999997206
0.6747,0.4665,-0.5112,-0.2324,0.1892,-0.199,13.7812,8.7675,25.7075,-47.6013175898558,44.25958971706001,7.186553499972243,2.4120000000039
0.6777,0.4624,-0.51,-0.238,0.1892,-0.199,15.645,8.7675,25.7075,-47.79040847987735,44.54178651863972,7.186553499972243,2.4120000000039
0.6849,0.4606,-0.5081,-0.238,0.1892,-0.199,15.015,7.84,25.0863,-47.806190796412174,44.94942010421436,7.311993499940755,2.4279999999998836
0.6897,0.4508,-0.5132,-0.2428,0.1914,-0.1944,14.7437,7.315,24.185,-48.64680695505924,45.26594962430124,7.311993499940755,2.4279999999998836
0.6897,0.4508,-0.5132,-0.2428,0.1914,-0.1944,14.7437,7.315,24.185,-48.7000106474642,45.27606755674823,7.429033499964599,2.444000000003143
0.6977,0.4376,-0.5182,-0.2476,0.1941,-0.1974,14.6825,6.545,22.9513,-49.749018924952786,45.79203969505444,7.429033499964599,2.444000000003143
0.7111,0.4293,-0.5151,-0.2476,0.1941,-0.1974,14.8663,6.0637,21.8312,-50.16337941058843,46.650690196898964,7.519988999961069,2.459000000002561
0.7158,0.421,-0.5198,-0.2476,0.1941,-0.1974,15.33,5.495,21.3412,-50.94430218184727,46.92952737066931,7.519988999961069,2.459000000002561
0.7206,0.4166,-0.5175,-0.253,0.1962,-0.2023,15.33,5.495,21.3412,-51.15162100571024,47.311839108686115,7.607908999938999,2.474999999998545
0.7206,0.4166,-0.5156,-0.253,0.1962,-0.2023,15.54,5.5213,21.2625,-51.06750485552728,47.38666644841462,7.607908999938999,2.474999999998545
0.7201,0.4124,-0.5156,-0.2558,0.1981,-0.1996,15.9862,5.705,20.3612,-51.32929432479048,47.47961872871438,7.693483999977188,2.4900000000052387
0.7169,0.4174,-0.5177,-0.2558,0.1981,-0.1996,15.8112,5.565,19.1625,-51.13448735381643,47.16302181090896,7.693483999977188,2.4900000000052387
0.7164,0.4185,-0.5137,-0.2558,0.1981,-0.1996,15.8112,5.565,19.1625,-50.84904834213888,47.23175766717171,7.782523999954837,2.5060000000012224
0.7186,0.421,-0.5147,-0.2595,0.2014,-0.207,14.105,4.8212,18.0163,-50.7270868469313,47.22113533741056,7.8596631999705515,2.522000000004482
0.7228,0.4115,-0.5212,-0.2595,0.2014,-0.207,13.0288,4.5413,17.535,-51.6384087133536,47.4168201650534,7.8596631999705515,2.522000000004482
0.7228,0.4115,-0.5212,-0.263,0.2041,-0.2043,12.9325,3.745,16.0387,-51.70307599068292,47.42474211373236,7.915838199968372,2.5370000000039
0.7247,0.4035,-0.5183,-0.263,0.2041,-0.2043,12.9325,3.745,16.0387,-52.07070145201896,47.79505333031591,7.915838199968372,2.5370000000039
0.7254,0.392,-0.5158,-0.263,0.2041,-0.2043,13.37,3.8325,14.56,-52.717551346342304,48.21185548942061,7.977158199952979,2.5529999999998836
0.7207,0.3819,-0.5144,-0.267,0.2038,-0.2088,13.545,3.2725,14.105,-53.361765054275885,48.357249321805426,7.977158199952979,2.5529999999998836
0.7217,0.3752,-0.5133,-0.267,0.2038,-0.2088,13.6938,2.73,13.8775,-53.80274730320796,48.60783404620474,8.018108199971254,2.5680000000065775
0.7217,0.3596,-0.5158,-0.2698,0.2097,-0.2005,13.6938,2.73,13.8775,-55.02787000242271,48.92048073559921,8.018108199971254,2.5680000000065775
0.7231,0.372,-0.5158,-0.2698,0.2097,-0.2005,13.5363,2.7738,13.965,-54.257187868018335,48.680999252231196,8.062488999960113,2.584000000002561
0.7173,0.3794,-0.5212,-0.2718,0.2069,-0.2074,12.8538,1.925,13.79,-53.97003839797822,48.082799270809275,8.062488999960113,2.584000000002561
0.7238,0.38,-0.5172,-0.2718,0.2069,-0.2074,12.9587,0.7875,13.405,-53.71400082679828,48.419439476934926,8.07508899996268,2.6000000000058208
0.7286,0.3801,-0.5223,-0.2718,0.2069,-0.2074,12.9587,0.7875,13.405,-53.93782217883475,48.439221252051595,8.07508899996268,2.6000000000058208
0.7307,0.3797,-0.5197,-0.2742,0.2103,-0.2064,12.7312,-0.0875,12.3638,-53.854162097551644,48.61553079711609,8.073776499962731,2.6150000000052387
0.7307,0.3797,-0.5197,-0.2742,0.2103,-0.2064,11.8125,-0.4462,11.8475,-53.84812813415039,48.624576217632736,8.073776499962731,2.6150000000052387
0.735,0.3713,-0.5191,-0.2755,0.2132,-0.2064,11.8125,-0.4462,11.55,-54.37994449427548,49.00941606794881,8.066637299964523,2.6310000000012224
0.732,0.3664,-0.5201,-0.2755,0.2132,-0.2064,11.725,-1.1287,11.55,-54.80038644302898,49.005395567322104,8.066637299964523,2.6310000000012224
0.7351,0.366,-0.5175,-0.2755,0.2132,-0.2064,11.06,-1.3475,10.5875,-54.73606477711895,49.21741661500718,8.046424799955503,2.6460000000079162
0.7371,0.3605,-0.5188,-0.2798,0.2148,-0.2078,9.765,-1.6538,10.0538,-55.16222328814461,49.39005830455425,8.046424799955503,2.6460000000079162
0.7371,0.3449,-0.5244,-0.2798,0.2148,-0.2078,9.765,-1.6538,10.0538,-56.52786884360573,49.57357709761169,8.019963999962146,2.6620000000039
0.7402,0.3513,-0.5244,-0.2791,0.2162,-0.213,8.6538,-2.1788,9.2225,-56.217202132298524,49.54636542896911,8.019963999962146,2.6620000000039
0.7476,0.3487,-0.5211,-0.2791,0.2162,-0.213,8.8725,-2.3275,8.3387,-56.21170554415608,49.98342878045083,7.982723999971494,2.6779999999998836
0.7442,0.3478,-0.5237,-0.2791,0.2162,-0.213,8.1025,-1.9775,7.595,-56.389276611132416,49.8219995395111,7.982723999971494,2.6779999999998836
0.7432,0.3528,-0.5245,-0.2822,0.218,-0.2062,8.1025,-1.9775,7.595,-56.108085969744096,49.631729018492294,7.953061499972645,2.6929999999993015
0.7425,0.3562,-0.5253,-0.2822,0.218,-0.2062,6.7725,-1.6013,6.8338,-55.89103254675527,49.487720471370224,7.953061499972645,2.6929999999993015
0.7425,0.3562,-0.5253,-0.283,0.2191,-0.2113,6.0462,-1.54,6.1775,-55.86372259152861,49.47742405005955,7.928421499967626,2.709000000002561
0.7468,0.3516,-0.5252,-0.283,0.2191,-0.2113,4.8738,-1.6712,5.1625,-56.142713759720614,49.735417247645884,7.928421499967626,2.709000000002561
0.7484,0.3458,-0.5305,-0.283,0.2191,-0.2113,4.8738,-1.6712,5.1625,-56.774099167970824,49.761737317713184,7.903353499968598,2.724000000001979
0.7541,0.3378,-0.5275,-0.2835,0.2212,-0.2163,3.7887,-1.9425,3.9288,-57.24331454901138,50.2379156219744,7.903353499968598,2.724000000001979
0.7566,0.3298,-0.5254,-0.2835,0.2212,-0.2163,4.0425,-2.0038,2.7387,-57.75754544762625,50.609745492174746,7.871292699976646,2.7399999999979627
0.7566,0.3284,-0.5286,-0.2842,0.2208,-0.2053,4.4713,-1.5925,2.7825,-58.07803036551372,50.56737014482374,7.871292699976646,2.7399999999979627
0.7541,0.3284,-0.5286,-0.2842,0.2208,-0.2053,4.4713,-1.5925,2.7825,-58.136009831293734,50.47943539566566,7.845812699971455,2.7560000000012224
0.7454,0.3279,-0.5235,-0.2864,0.2203,-0.2145,4.095,-0.8487,2.3363,-57.97690217307318,50.36497713947226,7.845812699971455,2.7560000000012224
0.7477,0.3344,-0.5237,-0.2864,0.2203,-0.2145,4.0687,-1.1638,1.855,-57.54508800134494,50.2828900528101,7.828355699972132,2.7710000000006403
0.7478,0.3375,-0.5282,-0.2864,0.2203,-0.2145,2.9838,-0.8487,1.47,-57.45317971269192,50.05924265524569,7.828355699972132,2.7710000000006403
0.7529,0.3349,-0.5199,-0.2855,0.2229,-0.2174,2.9838,-0.8487,1.47,-57.271614786364594,50.53730976841505,7.814776499969366,2.7870000000039
0.7529,0.3349,-0.5199,-0.2855,0.2229,-0.2174,1.7413,-0.0263,0.5075,-57.2332393042289,50.59216731097535,7.814776499969366,2.7870000000039
0.7469,0.326,-0.5319,-0.2877,0.2214,-0.2161,0.8925,-1.6363,0.4025,-57.848011153446535,50.19111275051832,7.7902319999703185,2.802000000003318
0.7555,0.3193,-0.516,-0.2877,0.2214,-0.2161,0.8925,-1.6363,0.0962,-58.044130608229565,51.08500738015593,7.7902319999703185,2.802000000003318
0.7555,0.327,-0.5244,-0.2877,0.2214,-0.2161,1.5575,-0.7613,0.0962,-58.04996551899106,50.76795255542937,7.778051199973376,2.8179999999993015
0.7527,0.3234,-0.5232,-0.2878,0.2233,-0.2173,2.2575,0.4112,-0.7613,-58.20987691334669,50.748978711852295,7.784630399974716,2.834000000002561
0.7487,0.3276,-0.5215,-0.2878,0.2233,-0.2173,2.7562,0.0437,-1.0588,-57.954322960103106,50.59146165150147,7.784630399974716,2.834000000002561
0.7487,0.3276,-0.5215,-0.2879,0.2237,-0.216,2.7562,0.0437,-1.0588,-57.887291694129196,50.56538358332261,7.785285899974691,2.849000000001979
0.7462,0.3315,-0.5227,-0.2879,0.2237,-0.216,2.3625,0.98,-0.91,-57.69595068310442,50.36386140718466,7.785285899974691,2.849000000001979
0.7428,0.3364,-0.523,-0.2879,0.2237,-0.216,1.9688,1.015,-1.435,-57.397673240334086,50.117815542724,7.8015258999779995,2.8650000000052387
0.7422,0.3352,-0.5188,-0.2897,0.2273,-0.2117,1.715,0.7875,-1.9688,-57.228659191645356,50.21006646722997,7.8015258999779995,2.8650000000052387
0.7361,0.3349,-0.5214,-0.2897,0.2273,-0.2117,1.715,0.7875,-1.9688,-57.265944682514096,49.96643606424855,7.813338399977541,2.8800000000046566
0.7361,0.3349,-0.5214,-0.2906,0.2249,-0.2092,1.3038,0.3588,-2.6688,-57.27807557304084,49.920763479305165,7.813338399977541,2.8800000000046566
0.7377,0.3375,-0.5226,-0.2906,0.2249,-0.2092,1.2513,0.1575,-2.9838,-57.20280831977316,49.87390286339315,7.815858399976908,2.8960000000006403
0.7367,0.3361,-0.5225,-0.2906,0.2249,-0.219,0.8925,-0.1663,-3.2812,-57.225152841910955,49.862773657541794,7.815858399976908,2.8960000000006403
0.7329,0.3369,-0.525,-0.2899,0.2234,-0.219,0.8925,-0.1663,-3.2812,-57.26701149354347,49.66704333228427,7.813197599976366,2.9120000000039
0.7375,0.3328,-0.5216,-0.2899,0.2234,-0.219,0.21,-0.5863,-3.4037,-57.30772313424885,49.91354044896592,7.813197599976366,2.9120000000039
0.7361,0.3307,-0.5261,-0.2898,0.225,-0.2118,0.3938,-1.5575,-3.9725,-57.475111147674525,49.85634098457917,7.789835099977273,2.927000000003318
0.7361,0.3307,-0.5261,-0.2898,0.225,-0.2118,0.525,-1.2862,-4.095,-57.61182785310294,49.83839683921162,7.789835099977273,2.927000000003318
0.7394,0.3287,-0.5223,-0.291,0.2257,-0.2139,0.525,-1.2862,-4.095,-57.68705925242143,50.04674821980008,7.76925589997308,2.9430000000065775
0.7448,0.3284,-0.5264,-0.291,0.2257,-0.2139,0.455,-1.575,-4.445,-57.807001421462125,50.14525066971691,7.76925589997308,2.9430000000065775
0.7437,0.3303,-0.5245,-0.291,0.2257,-0.2139,0.2713,-1.4875,-4.655,-57.80518276730369,50.17196058364877,7.746943399984769,2.9579999999987194
0.7447,0.3334,-0.5233,-0.2903,0.2251,-0.2267,-0.245,-1.2513,-5.11,-57.7564664126428,50.18541091897234,7.746943399984769,2.9579999999987194
0.7447,0.3334,-0.5233,-0.2903,0.2251,-0.2267,-0.245,-1.2513,-5.11,-57.71548494177498,50.19217323881936,7.72692259998069,2.974000000001979
0.746,0.3326,-0.5228,-0.2907,0.2238,-0.2161,-0.07,-0.6913,-5.3113,-57.71305070905398,50.23387814560798,7.72692259998069,2.974000000001979
0.7427,0.3335,-0.5255,-0.2907,0.2238,-0.2161,-0.1575,-0.7788,-5.1363,-57.70260354029475,50.137084095739176,7.714461799978151,2.9900000000052387
0.7427,0.3329,-0.5247,-0.2907,0.2238,-0.2161,-0.1575,-0.7788,-5.6175,-57.6937773671387,50.11910038707408,7.714461799978151,2.9900000000052387
0.7431,0.3306,-0.5251,-0.2905,0.2238,-0.2169,-0.4988,-1.0588,-5.6175,-57.72811687162138,50.12503895263762,7.698579799986471,3.0049999999973807
0.7428,0.3293,-0.527,-0.2905,0.2238,-0.2169,-1.0412,-1.295,-5.7925,-57.86326565084077,50.115474627611334,7.698579799986471,3.0049999999973807
0.7428,0.3293,-0.527,-0.2903,0.2256,-0.2173,-0.5775,-1.3388,-6.5012,-57.9102813023289,50.10652449012065,7.677158999982107,3.0210000000006403
0.7416,0.3301,-0.5259,-0.2903,0.2256,-0.2173,-0.5775,-1.3388,-6.5012,-57.90130655326972,50.093674137155936,7.677158999982107,3.0210000000006403
0.7454,0.3291,-0.5242,-0.2903,0.2256,-0.2173,-0.2275,-1.0588,-6.7987,-57.898020408895015,50.176706145417334,7.661276999982723,3.036000000000058
0.7426,0.3309,-0.5286,-0.2898,0.2242,-0.221,-0.385,-1.47,-7.6388,-57.91179949134705,50.055489270698125,7.661276999982723,3.036000000000058
0.7447,0.3319,-0.5229,-0.2898,0.2242,-0.221,-0.91,-1.3388,-8.0325,-57.766129172425714,50.18430647918389,7.639856199978359,3.052000000003318
0.7447,0.3319,-0.5229,-0.2894,0.2246,-0.2182,-0.91,-1.3388,-8.0325,-57.687547364653575,50.22821912122836,7.639856199978359,3.052000000003318
0.7429,0.3337,-0.522,-0.2894,0.2246,-0.2182,-0.8225,-1.1812,-7.9012,-57.56729474186452,50.19289020771535,7.620956999974509,3.0680000000065775
0.7428,0.3387,-0.525,-0.2894,0.2243,-0.2194,-1.0412,-0.9013,-8.1637,-57.37124805148644,50.01751953754481,7.620956999974509,3.0680000000065775
0.7463,0.3363,-0.5256,-0.2887,0.2243,-0.2194,-1.995,-1.2163,-8.7937,-57.38180711766854,50.078402476956605,7.602712499984067,3.0829999999987194
0.7435,0.3353,-0.5291,-0.2887,0.2243,-0.2194,-1.995,-1.2163,-8.7937,-57.550059594419935,49.93804037639629,7.602712499984067,3.0829999999987194
0.7411,0.334,-0.5262,-0.2876,0.2245,-0.2146,-1.89,-1.3563,-8.7937,-57.5791957727342,49.937121210555425,7.581011699979646,3.099000000001979
0.7411,0.334,-0.5262,-0.2876,0.2245,-0.2146,-2.3012,-1.3038,-9.135,-57.59018817765526,49.93686462301001,7.581011699979646,3.099000000001979
0.7375,0.3367,-0.5259,-0.2874,0.2227,-0.2234,-2.0213,-1.4963,-9.4237,-57.44503947302329,49.789379199774146,7.558567199980517,3.114000000001397
0.7358,0.3392,-0.5253,-0.2874,0.2227,-0.2234,-2.0213,-1.4963,-9.4237,-57.248583342483194,49.675665206993024,7.558567199980517,3.114000000001397
0.731,0.3416,-0.5256,-0.2874,0.2227,-0.2234,-2.4062,-1.8375,-9.7563,-57.059612856607686,49.44814960493018,7.529167199974527,3.1300000000046566
0.7318,0.3425,-0.5242,-0.2888,0.2231,-0.2221,-2.6513,-2.135,-10.3162,-56.90133300211977,49.44778606030907,7.529167199974527,3.1300000000046566
0.7318,0.3425,-0.5229,-0.2888,0.2231,-0.2221,-2.765,-2.0213,-9.905,-56.809182529524634,49.48668794874148,7.492783799981821,3.1480000000010477
0.7303,0.345,-0.5229,-0.2874,0.2224,-0.215,-2.765,-2.0213,-9.905,-56.64463695834239,49.39959683577085,7.492783799981821,3.1480000000010477
0.7288,0.3437,-0.5262,-0.2874,0.2224,-0.215,-2.7912,-1.82,-10.0275,-56.79390768616396,49.26134155448973,7.465483799982881,3.1630000000004657
0.7341,0.3409,-0.5222,-0.2874,0.2224,-0.215,-3.2638,-2.45,-9.975,-56.84649850480999,49.571777857804314,7.465483799982881,3.1630000000004657
0.7319,0.3417,-0.5231,-0.2838,0.2206,-0.2089,-3.2638,-1.8988,-10.2987,-56.84656053421591,49.52432382564719,7.435102999976691,3.1790000000037253
0.7342,0.344,-0.5265,-0.2838,0.2206,-0.2089,-3.0975,-1.8988,-10.2987,-56.84203787358695,49.43725554442903,7.435102999976691,3.1790000000037253
0.7342,0.344,-0.5265,-0.2842,0.2215,-0.2097,-3.255,-1.995,-10.3863,-56.840904943384395,49.420444579769935,7.405177999977853,3.194000000003143
0.7335,0.3485,-0.5231,-0.2842,0.2215,-0.2097,-2.9575,-2.4588,-10.535,-56.459196812726745,49.40842750010756,7.405177999977853,3.194000000003143
0.735,0.3502,-0.5262,-0.2842,0.2215,-0.2097,-2.9575,-2.4588,-10.535,-56.38184682366714,49.32428529837204,7.365837199987728,3.209999999999127
0.7374,0.3539,-0.5256,-0.2846,0.2202,-0.2162,-3.78,-2.5113,-11.0425,-56.11757335238663,49.32724967736902,7.365837199987728,3.209999999999127
0.7382,0.3562,-0.5232,-0.2846,0.2202,-0.2162,-4.2175,-2.415,-11.41,-55.823281237188034,49.37985268558777,7.327197199979856,3.2260000000023865
0.7382,0.3562,-0.5295,-0.285,0.221,-0.2181,-4.725,-2.4588,-11.8912,-56.0272019267851,49.18996819796333,7.290315199981287,3.2410000000018044
0.7371,0.3529,-0.5295,-0.285,0.221,-0.2181,-4.725,-2.4588,-11.8912,-56.26622741340721,49.19561036631731,7.290315199981287,3.2410000000018044
0.7307,0.3529,-0.5267,-0.2825,0.2185,-0.2125,-5.2063,-2.9225,-11.9087,-56.19158288472606,49.07416370406523,7.243555199971761,3.257000000005064
0.7315,0.3528,-0.5234,-0.2825,0.2185,-0.2125,-5.7838,-2.6163,-12.5562,-56.04371004439375,49.19137818081878,7.243555199971761,3.257000000005064
0.7324,0.3504,-0.5279,-0.2825,0.2185,-0.2125,-6.125,-2.8612,-13.3437,-56.371318438534956,49.143194883391445,7.200637199994244,3.271999999997206
0.7301,0.3535,-0.5334,-0.2802,0.2177,-0.2166,-6.125,-2.8612,-13.3437,-56.452934363390014,48.812350094861536,7.200637199994244,3.271999999997206
0.7301,0.3535,-0.5334,-0.2802,0.2177,-0.2166,-6.5887,-3.71,-14.3325,-56.464597518742785,48.77162869689573,7.1412771999821505,3.2880000000004657
0.7313,0.3587,-0.5329,-0.281,0.2169,-0.2106,-7.3063,-4.5763,-14.945,-56.104764217938175,48.71068513888116,7.1412771999821505,3.2880000000004657
0.7322,0.3622,-0.5348,-0.281,0.2169,-0.2106,-7.2975,-5.0662,-15.9075,-55.917541655605575,48.59470244550264,7.060217999965636,3.3040000000037253
0.7357,0.3678,-0.5352,-0.281,0.2169,-0.2106,-7.2975,-5.0662,-15.9075,-55.55275848518208,48.568121428566904,7.060217999965636,3.3040000000037253
0.7404,0.3727,-0.5286,-0.2788,0.2154,-0.2078,-7.3238,-5.285,-16.0387,-54.90290334299427,48.834266956985985,6.980942999968713,3.319000000003143
0.7404,0.3777,-0.5299,-0.2788,0.2154,-0.2078,-7.385,-5.145,-16.4237,-54.565657388115284,48.700945117299646,6.980942999968713,3.319000000003143
0.7384,0.3777,-0.5299,-0.2764,0.2143,-0.2101,-8.1375,-5.4775,-16.4675,-54.524707734485375,48.619067365813656,6.893302999950858,3.335000000006403
0.736,0.3781,-0.5297,-0.2764,0.2143,-0.2101,-8.1375,-5.4775,-16.4675,-54.48558513378693,48.52469408056426,6.893302999950858,3.335000000006403
0.7313,0.3766,-0.5225,-0.2764,0.2143,-0.2101,-9.1962,-5.1363,-16.4937,-54.243700312337566,48.61961246682009,6.8162584999912195,3.349999999998545
0.7321,0.3746,-0.5253,-0.2754,0.2125,-0.2154,-9.695,-4.6025,-17.255,-54.481990587063564,48.611587301161265,6.8162584999912195,3.349999999998545
0.7229,0.3743,-0.5236,-0.2754,0.2125,-0.2154,-10.1412,-4.2088,-17.3775,-54.444325438644185,48.34372937817988,6.7489176999775005,3.3660000000018044
0.7229,0.3743,-0.5236,-0.2737,0.2132,-0.2026,-10.1412,-4.2088,-17.3775,-54.440927572257756,48.321914157691694,6.7489176999775005,3.3660000000018044
0.7187,0.3737,-0.5202,-0.2737,0.2132,-0.2026,-10.0188,-3.3863,-16.8438,-54.319563993719946,48.29467575233061,6.694736899966462,3.382000000005064
0.7141,0.3778,-0.5206,-0.2737,0.2132,-0.2011,-9.9225,-3.4562,-17.2725,-54.05807004076906,48.01358970321247,6.694736899966462,3.382000000005064
0.7134,0.3842,-0.5195,-0.2706,0.2086,-0.2011,-9.9225,-3.4562,-17.535,-53.56493539673215,47.84706378614485,6.642893899968474,3.397000000004482
0.7122,0.3898,-0.5186,-0.2706,0.2086,-0.2011,-10.1412,-3.5788,-17.535,-53.11469266377216,47.683177493061145,6.642893899968474,3.397000000004482
0.7117,0.3985,-0.5199,-0.2686,0.2085,-0.2107,-10.5437,-3.8325,-17.9288,-52.580960261738234,47.397377796711034,6.581573899983867,3.4130000000004657
0.7117,0.3985,-0.5199,-0.2686,0.2085,-0.2107,-11.3313,-4.0775,-18.6287,-52.53421374916973,47.375004124227424,6.581573899983867,3.4130000000004657
0.7241,0.4014,-0.5208,-0.2677,0.2074,-0.2003,-11.3313,-4.0775,-18.6287,-52.390006944819916,47.729887624733095,6.52041139998624,3.4279999999998836
0.7217,0.4011,-0.5141,-0.2677,0.2074,-0.2003,-11.97,-3.9813,-19.2763,-52.065906015244764,47.88993870317987,6.52041139998624,3.4279999999998836
0.7193,0.4063,-0.5199,-0.2677,0.2074,-0.2003,-13.1163,-4.305,-19.6,-51.99772116912907,47.49816006959554,6.4515313999722075,3.444000000003143
0.7207,0.4114,-0.5172,-0.265,0.205,-0.2017,-14.385,-4.69,-20.335,-51.53243530463362,47.48100517683984,6.4515313999722075,3.444000000003143
0.7207,0.4114,-0.5172,-0.265,0.205,-0.2017,-14.385,-4.69,-20.335,-51.502081483370965,47.47987923129855,6.37649139995692,3.460000000006403
0.7143,0.4142,-0.5209,-0.2622,0.2016,-0.2033,-15.4875,-5.1537,-21.1925,-51.50914800680403,47.05354286382555,6.37649139995692,3.460000000006403
0.7086,0.4239,-0.5254,-0.2622,0.2016,-0.2033,-16.3975,-5.9237,-22.6887,-51.12635475644149,46.425486075671614,6.287635900003468,3.474999999998545
0.7042,0.4336,-0.5242,-0.2622,0.2016,-0.2033,-18.8388,-7.5512,-25.6112,-50.44016452572882,46.01065060936739,6.287635900003468,3.474999999998545
0.7077,0.4475,-0.5295,-0.2597,0.1998,-0.2125,-18.8388,-7.5512,-25.6112,-49.83009415046885,45.61053633282505,6.166816699978854,3.4910000000018044
0.7074,0.4718,-0.5308,-0.2597,0.1998,-0.2125,-21.7525,-9.345,-28.735,-48.43222954913082,44.918542341291115,6.166816699978854,3.4910000000018044
0.7074,0.4718,-0.5308,-0.2554,0.1963,-0.199,-25.0863,-11.34,-32.2525,-48.37027583896,44.88909765977734,5.996716699985455,3.5060000000012224
0.7151,0.487,-0.5335,-0.2554,0.1963,-0.199,-29.575,-13.685,-35.7962,-47.633875966721114,44.71677753418189,5.996716699985455,3.5060000000012224
0.7131,0.499,-0.5406,-0.2554,0.1963,-0.199,-29.575,-13.685,-35.7962,-47.302709307383246,44.12632701127052,5.777756699940847,3.522000000004482
0.7154,0.5067,-0.5535,-0.2486,0.193,-0.1991,-34.1688,-16.205,-39.4888,-47.52114138798504,43.64636307073592,5.777756699940847,3.522000000004482
0.7251,0.5012,-0.5484,-0.2486,0.193,-0.1991,-38.0013,-19.4425,-43.75,-47.57344999933708,44.28715304457351,5.466676700018934,3.5380000000004657
0.7251,0.5012,-0.5484,-0.2416,0.1875,-0.1926,-41.6763,-21.77,-47.25,-47.57479619071599,44.303768484281846,5.1401267000316055,3.5529999999998836
0.7341,0.5086,-0.5593,-0.2416,0.1875,-0.1926,-41.6763,-21.77,-47.25,-47.71479015820638,44.16255721519794,5.1401267000316055,3.5529999999998836
0.7402,0.5132,-0.5544,-0.2416,0.1818,-0.1862,-45.0713,-24.2113,-50.7588,-47.22098779855783,44.409563015828056,4.752745899952686,3.569000000003143
0.7391,0.5054,-0.5411,-0.2336,0.1818,-0.1862,-47.39,-24.8762,-54.705,-46.95934174944754,44.938096951980604,4.752745899952686,3.569000000003143
0.715,0.5014,-0.5361,-0.2336,0.1818,-0.1862,-47.39,-24.7625,-58.6162,-46.916493396049034,44.260351082877165,4.381308399967099,3.584000000002561
0.6845,0.5126,-0.5247,-0.2242,0.1744,-0.1826,-50.1813,-24.7625,-58.6162,-45.692733330239854,43.042836558123184,4.381308399967099,3.584000000002561
0.6845,0.5126,-0.5247,-0.2242,0.1744,-0.1826,-53.6637,-24.2638,-62.6587,-45.668766268908385,43.02005616256578,3.993087599888008,3.6000000000058208
0.6558,0.5367,-0.5278,-0.2125,0.1683,-0.1774,-57.3387,-26.0662,-67.1125,-44.54067003994915,41.09444353447913,3.993087599888008,3.6000000000058208
0.6412,0.55,-0.5325,-0.2125,0.1683,-0.1774,-57.3387,-26.0662,-73.8325,-44.08183107995484,39.9653789249623,3.5760283999926985,3.6160000000018044
0.6554,0.5807,-0.5464,-0.2125,0.1683,-0.1774,-61.5213,-29.3038,-71.9775,-43.27011424148019,39.42747399731064,3.5760283999926985,3.6160000000018044
0.6822,0.5536,-0.5364,-0.199,0.159,-0.1746,-64.5137,-33.8275,-77.9887,-44.08334164205672,41.48045974473786,3.0686159000123885,3.6310000000012224
0.6822,0.5536,-0.5345,-0.199,0.159,-0.1746,-65.2138,-35.0962,-82.1275,-43.9957048820649,41.556787569907826,3.0686159000123885,3.6310000000012224
0.6795,0.5433,-0.5345,-0.1858,0.154,-0.1595,-65.2138,-35.0962,-82.1275,-44.52409355236587,41.71689388605581,2.507076699897988,3.647000000004482
0.662,0.5295,-0.5192,-0.1858,0.154,-0.1595,-62.6325,-33.95,-84.3675,-44.43864260307418,41.75449696360333,2.507076699897988,3.647000000004482
0.6503,0.5391,-0.5067,-0.1858,0.154,-0.1595,-60.095,-32.445,-84.4463,-43.24535844263768,41.31990037598449,2.0204016999168735,3.6620000000039
0.6152,0.5746,-0.4873,-0.1689,0.1472,-0.1445,-58.2225,-30.975,-82.3025,-40.349995616434754,39.260525751192354,2.0204016999168735,3.6620000000039
0.5932,0.6016,-0.4821,-0.1689,0.1472,-0.1445,-58.2225,-30.975,-82.3025,-38.73515854496921,37.598432497007074,1.5248016998159064,3.6780000000071595
0.5932,0.6016,-0.4821,-0.1558,0.1433,-0.1473,-58.8175,-29.505,-80.0625,-38.70786065591952,37.576912206271075,1.5248016998159064,3.6780000000071595
0.5676,0.6196,-0.4717,-0.1558,0.1433,-0.1473,-59.815,-28.245,-78.8112,-37.30540029894613,36.108070664663714,1.072881700134857,3.6939999999958673
0.5355,0.641,-0.4705,-0.1558,0.1433,-0.1473,-61.5213,-27.825,-78.855,-36.29544889968534,33.98800164451531,1.072881700134857,3.6939999999958673
0.5203,0.6464,-0.4694,-0.1426,0.1386,-0.1399,-61.5213,-27.825,-78.855,-35.99119300060123,33.08884547588356,0.6555066999485997,3.709000000002561
0.5317,0.6532,-0.4565,-0.1426,0.1386,-0.1399,-63.4113,-29.4875,-79.4762,-34.964636823002024,33.70299362003731,0.6555066999485997,3.709000000002561
0.5317,0.6502,-0.4639,-0.1309,0.1332,-0.1313,-60.2088,-28.3762,-79.7387,-35.49795770741783,33.65180940383936,0.20148749985610376,3.7250000000058208
0.5319,0.6502,-0.4639,-0.1309,0.1332,-0.1313,-55.195,-27.5713,-78.1288,-35.50666591533443,33.66092799332778,0.20148749985610376,3.7250000000058208
0.5209,0.6445,-0.4415,-0.1182,0.1293,-0.128,-55.195,-27.5713,-78.1288,-34.43169795009648,33.69405528875445,-0.21208200012784767,3.7400000000052387
0.4881,0.65,-0.431,-0.1182,0.1293,-0.128,-51.6862,-25.2962,-72.9488,-33.564241066313414,32.064387363684936,-0.21208200012784767,3.7400000000052387
0.4724,0.6689,-0.4345,-0.1182,0.1293,-0.128,-49.455,-23.38,-68.3112,-33.01776530709654,30.65884820452166,-0.5861620000339459,3.7560000000012224
0.4676,0.7002,-0.4254,-0.1042,0.1264,-0.1181,-47.3025,-21.805,-64.6888,-31.316394798733143,29.730722458216025,-0.5861620000339459,3.7560000000012224
0.4676,0.7002,-0.4254,-0.1042,0.1264,-0.1181,-47.3025,-21.805,-64.6888,-31.28113048646551,29.715147209881433,-0.9350419999463699,3.771999999997206
0.459,0.7147,-0.4235,-0.0973,0.1242,-0.1148,-46.5238,-20.1338,-61.425,-30.66244406967491,28.935259186041076,-0.9350419999463699,3.771999999997206
0.444,0.7186,-0.4249,-0.0973,0.1242,-0.1148,-44.6688,-18.2087,-59.0713,-30.59681277735536,28.023516559492094,-1.2081725000682568,3.7870000000039
0.4302,0.7246,-0.4218,-0.0973,0.1242,-0.1148,-44.6688,-15.9687,-56.5163,-30.21290101647589,27.179263285050116,-1.2081725000682568,3.7870000000039
0.4188,0.7351,-0.4191,-0.0871,0.123,-0.1026,-43.2513,-16.4675,-56.5163,-29.70047409511564,26.348728950104856,-1.471652500002118,3.8029999999998836
0.4188,0.7483,-0.4185,-0.0871,0.123,-0.1026,-40.9238,-15.8988,-54.1538,-29.228424914250326,26.040381931045356,-1.471652500002118,3.8029999999998836
0.4137,0.7483,-0.4185,-0.0791,0.1206,-0.1019,-38.64,-15.5487,-51.5988,-29.217166007072787,25.764226819581737,-1.7048829999930675,3.8179999999993015
0.4089,0.7603,-0.4108,-0.0791,0.1206,-0.1019,-38.64,-15.5487,-51.5988,-28.404005975781047,25.331319382944603,-1.7048829999930675,3.8179999999993015
0.4028,0.7679,-0.4045,-0.0791,0.1206,-0.1019,-36.4263,-15.4875,-49.385,-27.795263086774995,24.905676592603456,-1.9526830000435509,3.834000000002561
0.411,0.7687,-0.4091,-0.0711,0.1197,-0.0918,-35.1838,-14.595,-46.7337,-28.01551371991538,25.258129297459124,-1.9526830000435509,3.834000000002561
0.4133,0.7684,-0.4044,-0.0711,0.1197,-0.0918,-31.9288,-13.3612,-44.1613,-27.765165968365817,25.448381713119513,-2.166462199989888,3.849999999998545
0.4133,0.7684,-0.4044,-0.0631,0.1186,-0.0911,-31.9288,-13.3612,-44.1613,-27.75755025799072,25.45325220139353,-2.166462199989888,3.849999999998545
0.3993,0.7708,-0.3954,-0.0631,0.1186,-0.0911,-28.56,-12.215,-40.8625,-27.176990957090712,24.765991245919903,-2.3496872000716538,3.8650000000052387
0.3923,0.7879,-0.3965,-0.0631,0.1186,-0.0799,-26.7313,-11.585,-37.94,-26.72996524934812,24.001741900292302,-2.5350472000251245,3.8810000000012224
0.3933,0.8117,-0.3924,-0.0584,0.1166,-0.0799,-25.9088,-11.0688,-34.79,-25.835121928732466,23.583214822923107,-2.5350472000251245,3.8810000000012224
0.3958,0.8192,-0.3882,-0.0584,0.1166,-0.0799,-25.9088,-11.0688,-34.79,-25.373067516267046,23.586555072252686,-2.7010792000186816,3.8960000000006403
0.3787,0.8218,-0.3831,-0.0533,0.1173,-0.0837,-24.6138,-9.6075,-32.9437,-25.008454015180813,22.701526269646543,-2.7010792000186816,3.8960000000006403
0.3787,0.8218,-0.3831,-0.0533,0.1173,-0.0837,-24.5613,-8.6538,-31.815,-24.994188834538814,22.669791816516607,-2.83954000004689,3.9120000000039
0.3798,0.8332,-0.3905,-0.0487,0.1155,-0.0773,-25.0163,-8.0238,-32.0425,-25.10679951134179,22.43734242189568,-2.83954000004689,3.9120000000039
0.396,0.8387,-0.3916,-0.0487,0.1155,-0.0773,-25.0163,-8.0238,-32.0425,-25.03150268008649,23.135415702230134,-2.9679208000146637,3.9279999999998836
0.3877,0.8431,-0.3875,-0.0487,0.1155,-0.0773,-23.6338,-7.7175,-32.1213,-24.69827549833157,22.693667535010125,-2.9679208000146637,3.9279999999998836
0.3764,0.8341,-0.3797,-0.0441,0.115,-0.0678,-22.995,-6.6325,-30.9137,-24.485317875646846,22.34267721501601,-3.067408300059061,3.9430000000065775
0.3764,0.8341,-0.3797,-0.0441,0.115,-0.0678,-22.2075,-5.2325,-29.9862,-24.476435126484077,22.329101099670726,-3.067408300059061,3.9430000000065775
0.366,0.8373,-0.3741,-0.041,0.1167,-0.0729,-22.2075,-5.2325,-29.9862,-24.092119673568263,21.779742700196397,-3.1511283000380454,3.959000000002561
0.3572,0.8387,-0.3698,-0.041,0.1167,-0.0729,-21.5688,-5.0925,-29.1987,-23.806921744832643,21.311042657637326,-3.1511283000380454,3.959000000002561
0.3517,0.8386,-0.3575,-0.041,0.1167,-0.0729,-19.6612,-3.7625,-28.6912,-23.123680653030036,21.1054889364715,-3.2075658000358556,3.974000000001979
0.3443,0.8426,-0.3593,-0.0358,0.1171,-0.0815,-19.6612,-2.9662,-28.0175,-23.095710280708726,20.62179945468623,-3.2075658000358556,3.974000000001979
0.3385,0.8419,-0.3541,-0.0358,0.1171,-0.0815,-18.7512,-2.9662,-28.0175,-22.825874142208548,20.348167419179177,-3.2550250000455243,3.9900000000052387
0.3385,0.8419,-0.3541,-0.0328,0.1146,-0.0666,-18.6462,-2.835,-27.58,-22.812177285960075,20.33623866173553,-3.2550250000455243,3.9900000000052387
0.3365,0.8403,-0.3515,-0.0328,0.1146,-0.0666,-17.6925,-2.24,-26.8363,-22.705738995993755,20.278680521624686,-3.290865000036528,4.006000000001222
0.3252,0.8437,-0.344,-0.0328,0.1146,-0.0666,-17.6925,-2.24,-26.8363,-22.21018957839564,19.671656669601052,-3.290865000036528,4.006000000001222
0.3127,0.8542,-0.3529,-0.0298,0.1161,-0.0637,-16.905,-1.6888,-25.6287,-22.433956613471405,18.74025624053527,-3.3161970000478322,4.021000000007916
0.3185,0.8602,-0.3512,-0.0298,0.1161,-0.0637,-15.8813,-2.2662,-24.78,-22.222437447850705,18.912164567673447,-3.3161970000478322,4.021000000007916
0.3185,0.8602,-0.3512,-0.0262,0.1186,-0.0634,-14.665,-3.01,-24.745,-22.209927664284614,18.920898475386817,-3.3643570000138423,4.036999999996624
0.3219,0.8708,-0.3454,-0.0262,0.1186,-0.0634,-14.665,-3.01,-24.745,-21.67238777311084,18.961402449437728,-3.3643570000138423,4.036999999996624
0.326,0.876,-0.3493,-0.0262,0.1162,-0.0676,-13.79,-2.8437,-23.94,-21.734814106233937,19.063446347801612,-3.4070125000328777,4.052000000003318
0.3269,0.8819,-0.3416,-0.0229,0.1162,-0.0676,-13.6938,-2.5638,-23.7125,-21.211989913303825,19.067602917386985,-3.4070125000328777,4.052000000003318
0.3304,0.8847,-0.339,-0.0229,0.1162,-0.0676,-14.0875,-1.6013,-23.1788,-20.98224405208319,19.216698598770215,-3.4326333000264464,4.0679999999993015
0.3253,0.889,-0.3404,-0.0206,0.1154,-0.058,-14.0875,-1.6013,-23.1788,-20.953965268281106,18.885828138924648,-3.4326333000264464,4.0679999999993015
0.3253,0.889,-0.3404,-0.0206,0.1154,-0.058,-13.8337,-0.7875,-23.485,-20.95208623717618,18.86750972270965,-3.445233300029013,4.084000000002561
0.3239,0.8941,-0.3427,-0.0171,0.1154,-0.0608,-13.5712,-0.4725,-22.575,-20.970024350740687,18.69920679268495,-3.445233300029013,4.084000000002561
0.3172,0.8955,-0.3353,-0.0171,0.1154,-0.0608,-14.1925,-0.07,-22.8988,-20.556541621942703,18.371466447331542,-3.4462833000289725,4.099000000001979
0.3124,0.8951,-0.3417,-0.0171,0.1154,-0.0608,-14.1925,-0.07,-22.8988,-20.87180681229415,18.076660479314697,-3.4462833000289725,4.099000000001979
0.3159,0.8975,-0.34,-0.0123,0.1156,-0.0455,-14.525,0.0962,-23.73,-20.756186051930513,18.211355812584365,-3.444744100029359,4.114999999997963
0.3159,0.8975,-0.34,-0.0123,0.1156,-0.0455,-14.525,0.2275,-25.0775,-20.74871157418448,18.21861310950336,-3.444744100029359,4.114999999997963
0.316,0.8969,-0.3362,-0.0102,0.1154,-0.0534,-14.5513,-0.0613,-26.075,-20.56127506409143,18.256276517531695,-3.4456636000297696,4.130000000004657
0.3184,0.8921,-0.339,-0.0102,0.1154,-0.0534,-14.5513,-0.0613,-26.075,-20.7910512043719,18.441193491161027,-3.4456636000297696,4.130000000004657
0.3212,0.8947,-0.3375,-0.0102,0.1154,-0.0534,-14.9537,-0.315,-26.7138,-20.6753182245294,18.56132357784496,-3.4507036000285045,4.14600000000064
0.318,0.885,-0.3317,-0.0059,0.1142,-0.0495,-14.1313,-0.4812,-27.1338,-20.55468259891799,18.594726493182566,-3.4507036000285045,4.14600000000064
0.306,0.8888,-0.329,-0.0059,0.1142,-0.0495,-14.1313,-0.1925,-28.3237,-20.32869428970765,17.92410419419544,-3.45416860002781,4.163999999997031
0.306,0.8888,-0.329,-0.0031,0.1161,-0.0508,-14.2187,-0.1925,-28.3237,-20.313697258543552,17.89522878803338,-3.45416860002781,4.163999999997031
0.2916,0.8997,-0.3258,-0.0031,0.1161,-0.0508,-14.5338,-0.9187,-29.1287,-19.932687744595423,16.987625956299244,-3.4679491000339593,4.179000000003725
0.2944,0.9143,-0.3234,-0.0031,0.1161,-0.0508,-16.2225,-1.4,-31.6225,-19.50576850587212,16.890243906713515,-3.4679491000339593,4.179000000003725
0.297,0.9094,-0.3203,0.001,0.1169,-0.0403,-16.2225,-1.4,-31.6225,-19.4087852388289,17.112270168695257,-3.4903491000283364,4.194999999999709
0.3026,0.9084,-0.3231,0.001,0.1169,-0.0403,-17.395,-2.2225,-33.9063,-19.570164201026984,17.41371630566565,-3.4903491000283364,4.194999999999709
0.3026,0.9084,-0.3231,0.0069,0.1163,-0.0457,-18.9613,-2.1088,-36.8812,-19.57900403088313,17.424215761277694,-3.521981100027109,4.209999999999127
0.302,0.9136,-0.3209,0.0069,0.1163,-0.0457,-18.69,-2.135,-39.9087,-19.365188109055108,17.324636682059744,-3.521981100027109,4.209999999999127
0.3001,0.9033,-0.3182,0.0069,0.1195,-0.0474,-18.69,-2.135,-39.9087,-19.403467591293847,17.396401705063898,-3.5561411000340684,4.2260000000023865
0.298,0.889,-0.318,0.0132,0.1195,-0.0474,-18.235,-1.6538,-41.5625,-19.667854715112107,17.51360283071098,-3.5561411000340684,4.2260000000023865
0.2906,0.8856,-0.3147,0.0132,0.1195,-0.0474,-17.0012,-0.8838,-42.5425,-19.568641696357975,17.190339264301564,-3.5702819000305186,4.24199999999837
0.2845,0.8796,-0.3123,0.0194,0.1189,-0.0342,-15.8988,-0.3762,-42.4287,-19.548559522478918,16.957681866420298,-3.5702819000305186,4.24199999999837
0.2845,0.8796,-0.3123,0.0194,0.1189,-0.0342,-15.8988,-0.3762,-42.4287,-19.54736717425313,16.95144936327478,-3.5759249000330366,4.257000000005064
0.273,0.8782,-0.3063,0.025,0.1194,-0.0357,-14.9187,0.21,-40.5213,-19.247975891670727,16.374879526660255,-3.57256490003388,4.273000000001048
0.2592,0.8812,-0.3094,0.025,0.1194,-0.0357,-14.1925,1.015,-39.0687,-19.34026399248238,15.536581649199496,-3.57256490003388,4.273000000001048
0.2462,0.8937,-0.3027,0.025,0.1194,-0.0357,-13.4488,0.7437,-37.485,-18.75514919076419,14.65195544495028,-3.561409400034313,4.288000000000466
0.2436,0.908,-0.3018,0.0282,0.1203,-0.0374,-13.4488,0.7437,-37.485,-18.411384281846303,14.294734294304686,-3.561409400034313,4.288000000000466
0.2436,0.908,-0.3018,0.0282,0.1203,-0.0374,-13.2212,1.0588,-36.2687,-18.387528002860382,14.283717893596007,-3.5444686000308616,4.304000000003725
0.2354,0.9256,-0.3003,0.0341,0.1222,-0.0349,-13.2125,1.3038,-35.385,-18.00418128810263,13.621679725905267,-3.5444686000308616,4.304000000003725
0.2316,0.9346,-0.2944,0.0341,0.1222,-0.0349,-14.4375,1.6975,-35.6213,-17.518270887872077,13.308833096799164,-3.5173086000376794,4.319999999999709
0.2317,0.9401,-0.2932,0.0341,0.1222,-0.0349,-14.4375,1.6975,-35.6213,-17.334522473977955,13.242306223841702,-3.5173086000376794,4.319999999999709
0.227,0.9457,-0.2974,0.0398,0.1245,-0.0318,-14.8138,2.1788,-35.7262,-17.44933313817261,12.90842378902861,-3.4846266000230948,4.335000000006403
0.2128,0.947,-0.2913,0.0398,0.1245,-0.0318,-15.015,2.73,-35.6125,-17.120064000611602,12.147510454643173,-3.4846266000230948,4.335000000006403
0.2128,0.947,-0.2913,0.0435,0.1222,-0.0301,-15.015,2.73,-35.0438,-17.099431474677317,12.122589550986902,-3.440946600034059,4.3510000000023865
0.2066,0.9467,-0.285,0.0435,0.1222,-0.0301,-15.6888,2.975,-35.0438,-16.774954077616368,11.813796688897195,-3.440946600034059,4.3510000000023865
0.2018,0.9473,-0.2885,0.0435,0.1222,-0.0301,-16.5287,3.36,-35.525,-16.92876481023541,11.528037583514324,-3.390546600036015,4.366000000001804
0.1928,0.95,-0.2794,0.0493,0.1266,-0.031,-16.9837,2.7125,-35.385,-16.4190018688068,11.034573711705011,-3.390546600036015,4.366000000001804
0.1846,0.9576,-0.2791,0.0493,0.1266,-0.031,-16.9837,2.7125,-35.385,-16.258648700345358,10.503402067544164,-3.3471466000469094,4.381999999997788
0.1846,0.9576,-0.2948,0.0538,0.125,-0.0314,-17.7188,2.2138,-36.015,-17.06545836809295,10.44122252132009,-3.3471466000469094,4.381999999997788
0.1776,0.9654,-0.2816,0.0538,0.125,-0.0314,-18.8475,1.015,-36.96,-16.30219039057512,10.028831064974996,-3.3309066000436007,4.398000000001048
0.1748,0.9758,-0.2828,0.0538,0.129,-0.0306,-20.8162,0.3063,-38.7363,-16.168729844048837,9.770367978486465,-3.3309066000436007,4.398000000001048
0.1804,0.9806,-0.281,0.0582,0.129,-0.0306,-20.8162,0.3063,-38.7363,-15.998352007028938,10.021427670646553,-3.3263121000415503,4.413000000007742
0.1748,0.9881,-0.2814,0.0582,0.129,-0.0306,-22.435,-0.98,-40.95,-15.900731698351,9.666043060254152,-3.3263121000415503,4.413000000007742
0.1784,0.9898,-0.2756,0.0662,0.1306,-0.0242,-23.8088,-1.8725,-43.295,-15.573126715318667,9.845424288051737,-3.3562721000340296,4.429000000003725
0.1784,0.9898,-0.2756,0.0662,0.1306,-0.0242,-26.8275,-2.905,-45.6575,-15.55983094087371,9.850127979450582,-3.3562721000340296,4.429000000003725
0.1765,0.9985,-0.273,0.0722,0.1321,-0.0156,-26.8275,-2.905,-45.6575,-15.301188980197177,9.680564043768475,-3.3998471000323387,4.444000000003143
0.1753,1.0077,-0.2693,0.0722,0.1321,-0.0156,-29.3038,-3.36,-48.23,-14.973408127720045,9.543380680978544,-3.3998471000323387,4.444000000003143
0.1665,1.0139,-0.2608,0.0722,0.1321,-0.0156,-32.4362,-3.4475,-52.115,-14.441589251258696,9.047428865147076,-3.4550071000184923,4.459999999999127
0.1668,1.0123,-0.2581,0.0792,0.1354,-0.0054,-36.2775,-3.605,-56.84,-14.307319023946565,9.071113332777411,-3.4550071000184923,4.459999999999127
0.1668,1.0123,-0.2581,0.0792,0.1354,-0.0054,-36.2775,-3.605,-56.84,-14.303711669014143,9.071571083364438,-3.5126871000302433,4.4760000000023865
0.1673,0.9983,-0.2521,0.0902,0.1378,-0.008,-39.4625,-3.4825,-61.4863,-14.175801624817964,9.226205088866754,-3.5126871000302433,4.4760000000023865
0.168,0.9717,-0.244,0.0902,0.1378,-0.008,-41.265,-2.0738,-65.7213,-14.097779435525315,9.514359344717152,-3.5437941000290363,4.491000000001804
0.1578,0.9534,-0.2451,0.0902,0.1378,-0.008,-41.8338,-0.07,-67.8213,-14.40991945664054,9.113557825217963,-3.5437941000290363,4.491000000001804
0.1391,0.9464,-0.2278,0.0993,0.1406,-0.0093,-41.8338,-0.07,-67.8213,-13.554219235135783,8.147971974428021,-3.544914100028755,4.506999999997788
0.1237,0.944,-0.2236,0.0993,0.1406,-0.0093,-41.9825,1.33,-68.4338,-13.331063742827224,7.28048814127333,-3.544914100028755,4.506999999997788
0.1237,0.944,-0.2236,0.1084,0.1436,0.0038,-41.6063,2.1788,-68.1975,-13.325866259228548,7.266792165586112,-3.5122321000141703,4.522000000004482
0.1069,0.9522,-0.2169,0.1084,0.1436,0.0038,-41.6063,2.1788,-68.6525,-12.843949547571443,6.26290992117483,-3.5122321000141703,4.522000000004482
0.095,0.9628,-0.1966,0.1084,0.1436,0.0038,-41.3787,2.7037,-68.6525,-11.571704713537498,5.53360419944713,-3.468972900025029,4.538000000000466
0.0714,0.9681,-0.1772,0.1204,0.147,0.004,-41.7988,2.9662,-68.4863,-10.400593669293464,4.1712298529244975,-3.468972900025029,4.538000000000466
0.0537,0.9698,-0.1584,0.1204,0.147,0.004,-42.7,4.2263,-69.5362,-9.302119184563107,3.1441841367608516,-3.4013521000112528,4.554000000003725
0.0537,0.9698,-0.1428,0.1294,0.1518,0.0105,-42.7,4.2263,-69.5362,-8.397641289731531,3.1357503535689144,-3.4013521000112528,4.554000000003725
0.0308,0.9722,-0.1437,0.1294,0.1518,0.0105,-42.6563,5.46,-70.3238,-8.407722217050216,1.8156295094447286,-3.319452100014431,4.569000000003143
0.0149,0.9783,-0.1394,0.1294,0.1558,0.0217,-43.3213,5.775,-69.1687,-8.11633783945499,0.8787069600639587,-3.2270521000376253,4.584999999999127
-0.0045,0.9812,-0.1264,0.1385,0.1558,0.0217,-42.1488,5.705,-67.2525,-7.358524528793831,-0.24228492991642162,-3.2270521000376253,4.584999999999127
-0.0275,0.979,-0.1194,0.1385,0.1558,0.0217,-42.1488,5.705,-67.2525,-6.9629185556466515,-1.5753811128533355,-3.141477099999437,4.600000000005821
-0.0462,0.9827,-0.119,0.1476,0.1599,0.029,-41.6587,5.6525,-65.765,-6.905979052874903,-2.654111433234951,-3.141477099999437,4.600000000005821
-0.0462,0.9827,-0.119,0.1476,0.1599,0.029,-39.76,4.655,-64.1725,-6.904644020001005,-2.671884867248374,-3.141477099999437,4.600000000005821
-0.0564,0.987,-0.1047,0.1558,0.1646,0.0307,-37.765,3.99,-62.5275,-6.0771791952086724,-3.242173650943925,-3.077637100015462,4.616000000001804
-0.0703,0.9831,-0.1067,0.1558,0.1646,0.0307,-37.765,3.99,-62.5275,-6.19128097241922,-4.052021598068287,-3.013797100002456,4.632000000005064
-0.0795,0.987,-0.1082,0.1558,0.1646,0.0307,-35.0262,3.43,-61.25,-6.254274390572874,-4.568397592187647,-3.013797100002456,4.632000000005064
-0.0739,0.9697,-0.107,0.1639,0.1706,0.0343,-32.27,2.24,-61.0575,-6.2954597000107375,-4.336074466416186,-2.980197100020058,4.646999999997206
-0.0739,0.9697,-0.107,0.1639,0.1706,0.0343,-28.2013,0.6125,-58.8088,-6.296694334446063,-4.331925924356547,-2.980197100020058,4.646999999997206
-0.0777,0.9631,-0.1008,0.173,0.1751,0.0342,-28.2013,0.6125,-58.8088,-5.985978914215937,-4.582752162269357,-2.9703971000180616,4.663000000000466
-0.0942,0.9725,-0.1023,0.173,0.1751,0.0342,-24.465,-0.2013,-54.6787,-6.004269659789005,-5.483901817969791,-2.9703971000180616,4.663000000000466
-0.1051,0.9866,-0.0977,0.173,0.1751,0.0342,-21.2537,-1.2862,-50.2425,-5.671105979608612,-6.0386974746321425,-2.9896901000266713,4.6780000000071595
-0.1164,0.9972,-0.0956,0.1771,0.1781,0.0253,-19.0138,-3.1325,-45.8937,-5.48589087254034,-6.6132726491846645,-2.9896901000266713,4.6780000000071595
-0.1178,1.0094,-0.0956,0.1771,0.1781,0.0253,-18.8125,-3.1325,-45.8937,-5.414154159834309,-6.626749346729248,-3.03981010001409,4.694000000003143
-0.1178,1.0094,-0.0956,0.1818,0.1819,0.0384,-16.8875,-4.3575,-40.74,-5.410543968363411,-6.6270785005594455,-3.03981010001409,4.694000000003143
-0.1169,1.0205,-0.0913,0.1818,0.1819,0.0384,-16.94,-5.0487,-37.135,-5.12908071979519,-6.512754275263519,-3.120589300030547,4.710000000006403
-0.1172,1.0343,-0.0936,0.1818,0.1819,0.0384,-16.94,-5.0487,-34.895,-5.168611610241031,-6.441197778842293,-3.120589300030547,4.710000000006403
-0.1225,1.0398,-0.0859,0.1861,0.1838,0.0428,-17.5963,-6.3088,-34.8338,-4.746654059029204,-6.687918153285261,-3.215221299980972,4.724999999998545
-0.1361,1.0386,-0.0736,0.1861,0.1838,0.0428,-17.8587,-7.4025,-33.5737,-4.090334613042894,-7.420474176990801,-3.215221299980972,4.724999999998545
-0.1361,1.0386,-0.0736,0.1902,0.1859,0.0437,-19.1537,-9.17,-34.2825,-4.055302193636306,-7.446223488289072,-3.361941300010863,4.741000000001804
-0.1473,1.0338,-0.0676,0.1902,0.1859,0.0437,-19.1537,-9.17,-34.2825,-3.756861946070723,-8.069967859120688,-3.361941300010863,4.741000000001804
-0.1415,1.0328,-0.0625,0.1902,0.1905,0.0447,-20.545,-10.1587,-35.5687,-3.476710346728742,-7.796515469710185,-3.5143218000788643,4.756000000008498
-0.1305,1.026,-0.057,0.193,0.1905,0.0447,-22.0238,-10.1763,-35.9188,-3.19275619788297,-7.255789484707956,-3.5143218000788643,4.756000000008498
-0.138,1.02,-0.0559,0.193,0.1905,0.0447,-22.365,-9.9137,-35.9712,-3.139291954779242,-7.679409623578487,-3.672940999966916,4.771999999997206
-0.1394,1.0155,-0.0487,0.1995,0.1933,0.0462,-22.365,-9.9137,-35.9712,-2.7625011737447283,-7.803262798887871,-3.672940999966916,4.771999999997206
-0.1394,1.0155,-0.0487,0.1995,0.1933,0.0462,-21.2013,-8.6975,-36.3825,-2.746374037692189,-7.807276368844328,-3.8121009999952666,4.788000000000466
-0.1456,1.0077,-0.0467,0.2027,0.1971,0.0483,-20.6675,-7.5862,-36.365,-2.657672448972272,-8.199954258711141,-3.8121009999952666,4.788000000000466
-0.1482,1.0021,-0.0459,0.2027,0.1971,0.0483,-19.8625,-7.4288,-35.7525,-2.624221055147456,-8.397129314132993,-3.9235329999909423,4.802999999999884
-0.1524,0.9967,-0.044,0.2027,0.1971,0.0483,-19.8625,-7.4288,-35.7525,-2.53235808351088,-8.675729391259871,-3.9235329999909423,4.802999999999884
-0.1534,0.9955,-0.0503,0.205,0.2012,0.0506,-18.8563,-7.1225,-35.84,-2.8743540980047033,-8.746629536950696,-4.037493000014159,4.819000000003143
-0.1534,0.9955,-0.0411,0.205,0.2012,0.0506,-18.2,-6.3875,-35.8662,-2.390809425215457,-8.7524647392738,-4.037493000014159,4.819000000003143
-0.1648,1.0038,-0.0411,0.2106,0.2005,0.057,-17.29,-6.0637,-36.2775,-2.3471648363118423,-9.297690752029997,-4.128448500010629,4.834000000002561
-0.1789,1.0073,-0.0265,0.2106,0.2005,0.057,-17.29,-6.0637,-36.2775,-1.5530652047468148,-10.042815333049365,-4.128448500010629,4.834000000002561
-0.1876,1.0088,-0.0261,0.2106,0.2005,0.057,-17.6138,-5.5213,-37.905,-1.4858713857807773,-10.516257232409473,-4.216789299988454,4.849999999998545
-0.1885,1.0166,-0.0214,0.2145,0.2044,0.055,-17.6313,-4.7688,-38.1413,-1.2210010045224873,-10.502741696466186,-4.216789299988454,4.849999999998545
-0.1959,1.0175,-0.0132,0.2145,0.2044,0.055,-17.6313,-4.06,-37.7562,-0.7689746919364164,-10.884882751538008,-4.281749300001688,4.866000000001804
-0.1959,1.0175,-0.0132,0.2184,0.2082,0.0624,-17.1413,-4.06,-37.7562,-0.7446770629228653,-10.896584342473265,-4.281749300001688,4.866000000001804
-0.2026,1.0092,-0.0113,0.2184,0.2082,0.0624,-17.0275,-3.4037,-37.4588,-0.6472538208932569,-11.336687716424764,-4.332804799999707,4.881000000001222
-0.2153,1.011,-0.012,0.2184,0.2082,0.0624,-16.3363,-2.1525,-36.4963,-0.6781395145882094,-11.999353219668736,-4.332804799999707,4.881000000001222
-0.2216,1.0125,-0.0071,0.2229,0.213,0.0712,-16.3363,-2.1525,-36.4963,-0.41776472378935897,-12.334027165396998,-4.367244800006723,4.897000000004482
-0.2325,1.0137,-0.0074,0.2229,0.213,0.0712,-15.155,-1.9425,-35.2275,-0.4182209778042143,-12.898114714865915,-4.396382299991459,4.911999999996624
-0.2325,1.0137,-0.0052,0.2265,0.2145,0.0604,-14.5513,-1.575,-34.3875,-0.3019315899644007,-12.916981641172757,-4.396382299991459,4.911999999996624
-0.245,1.0191,-0.0052,0.2265,0.2145,0.0604,-15.1287,-1.2513,-34.2125,-0.2929476067764344,-13.497043384997147,-4.416403099995538,4.927999999999884
-0.2442,1.0217,-0.0071,0.231,0.2194,0.063,-15.1287,-1.2513,-34.2125,-0.39160781879548434,-13.443851732452488,-4.416403099995538,4.927999999999884
-0.2459,1.0217,-0.005,0.231,0.2194,0.063,-15.0937,-1.9075,-33.6787,-0.2873268565343313,-13.52917105318153,-4.446923100001755,4.944000000003143
-0.2531,1.0227,-0.0022,0.231,0.2194,0.063,-15.75,-1.7675,-33.4775,-0.13308116889465132,-13.887276612644484,-4.446923100001755,4.944000000003143
-0.2485,1.0266,-0.0008,0.2346,0.2209,0.0766,-16.52,-1.1113,-33.6875,-0.04971271355291029,-13.617133456138175,-4.463592600001109,4.959000000002561
-0.2485,1.0266,-0.0008,0.2346,0.2209,0.0766,-16.52,-1.1113,-33.6875,-0.044938910772524286,-13.60768408768937,-4.463592600001109,4.959000000002561
-0.2437,1.037,-0.0018,0.2383,0.2247,0.0675,-17.5175,-1.1725,-33.6787,-0.09649968503735502,-13.238191057194696,-4.482352600004931,4.975000000005821
-0.2414,1.0296,0.0074,0.2383,0.2247,0.0675,-18.97,-1.0237,-32.9875,0.38626772099463674,-13.196449835497107,-4.482352600004931,4.975000000005821
-0.2475,1.0193,0.0092,0.2383,0.2247,0.0675,-20.7288,-0.42,-32.8387,0.5110883296267156,-13.631272013376277,-4.488652600001631,4.989999999997963
-0.2611,1.0159,0.0068,0.2414,0.2284,0.0658,-20.7288,-0.42,-32.8387,0.389394449839922,-14.385311498114277,-4.488652600001631,4.989999999997963
-0.2611,1.0159,0.0103,0.2414,0.2284,0.0658,-21.4288,0.525,-32.935,0.5723307474054578,-14.412111613902054,-4.480252599999919,5.006000000001222
-0.2669,1.0099,0.0103,0.2442,0.2322,0.0769,-21.4638,1.225,-33.0925,0.5838050954598252,-14.789162230400065,-4.480252599999919,5.006000000001222
-0.2726,0.997,0.0108,0.2442,0.2322,0.0769,-20.6413,1.19,-32.8475,0.6189259769564023,-15.27312060450593,-4.46121259999604,5.022000000004482
-0.2773,0.9829,0.0172,0.2442,0.2322,0.0769,-20.6413,1.19,-32.8475,0.9847583399076363,-15.735473104513389,-4.46121259999604,5.022000000004482
-0.2817,0.9848,0.022,0.2486,0.2345,0.0755,-19.1625,1.0325,-31.3862,1.2650780873557397,-15.950774728200019,-4.445725099996642,5.0370000000039
-0.2927,0.99,0.0238,0.2486,0.2345,0.0755,-17.535,1.3913,-29.2775,1.3710836011725112,-16.444844199535073,-4.445725099996642,5.0370000000039
-0.2927,0.99,0.0238,0.251,0.2366,0.0758,-15.295,1.5225,-26.9675,1.376774947856114,-16.465185332774187,-4.421365100002756,5.052999999999884
-0.2955,0.9932,0.0336,0.251,0.2366,0.0758,-15.4175,1.5225,-26.9675,1.9033033899933975,-16.55567035183971,-4.421365100002756,5.052999999999884
-0.2988,1.0001,0.0326,0.251,0.2366,0.0758,-14.4462,1.7587,-25.27,1.8693538331786828,-16.6227329164074,-4.39498460000378,5.0679999999993015
-0.3052,1.0057,0.037,0.2528,0.2388,0.0767,-14.2187,1.6975,-24.2375,2.091306456362123,-16.857759464470398,-4.39498460000378,5.0679999999993015
-0.3088,1.0081,0.0426,0.2528,0.2388,0.0767,-14.2187,1.6975,-24.2375,2.3980873547483887,-17.008209567485732,-4.367824599998246,5.084000000002561
-0.3088,1.0081,0.0403,0.2555,0.2415,0.0748,-14.8225,1.3475,-23.5637,2.296151476320579,-17.017475152814082,-4.367824599998246,5.084000000002561
-0.3116,1.0056,0.0403,0.2555,0.2415,0.0748,-15.435,1.3913,-23.45,2.295007715113206,-17.19324314764053,-4.345563799993712,5.100000000005821
-0.3217,1.0042,0.044,0.257,0.2448,0.0872,-16.5287,1.1025,-23.5287,2.496625878663316,-17.71708270242668,-4.345563799993712,5.100000000005821
-0.3221,1.0046,0.0492,0.257,0.2448,0.0872,-16.5287,1.1025,-23.5287,2.7862235764917886,-17.75503463678325,-4.329026300002375,5.114999999997963
-0.3207,1.003,0.0418,0.257,0.2448,0.0872,-17.535,-0.1312,-23.6075,2.408055149616901,-17.71884888193997,-4.329026300002375,5.114999999997963
-0.322,0.9963,0.0454,0.2594,0.2482,0.0844,-17.7975,-0.5775,-23.7825,2.5983572214898323,-17.883899989727826,-4.338266300004257,5.131000000001222
-0.322,0.9963,0.0454,0.2594,0.2482,0.0844,-18.1737,-1.4088,-24.3687,2.608522671717305,-17.89274924981038,-4.338266300004257,5.131000000001222
-0.3227,0.9878,0.0481,0.2606,0.2491,0.0855,-18.1737,-1.4088,-24.3687,2.7783868602796016,-18.06217634744998,-4.359398300003437,5.14600000000064
-0.3271,0.9892,0.0471,0.2606,0.2491,0.0855,-18.06,-1.505,-24.885,2.7287905784601474,-18.26731702854437,-4.359398300003437,5.14600000000064
-0.3251,0.9891,0.0541,0.2606,0.2491,0.0855,-17.4037,-1.8112,-25.235,3.108833468773542,-18.17428804200737,-4.388377500009341,5.1620000000039
-0.3259,0.9841,0.0551,0.2632,0.251,0.0873,-16.8612,-2.4062,-25.1912,3.1992768026987988,-18.290272607746243,-4.388377500009341,5.1620000000039
-0.3259,0.9841,0.0575,0.2632,0.251,0.0873,-16.8612,-2.4062,-25.1912,3.335809866908467,-18.293788631696607,-4.441313900002618,5.184000000001106
-0.3273,0.9841,0.0575,0.2665,0.2525,0.088,-15.5925,-2.9225,-24.1063,3.3434431259620667,-18.363428333959927,-4.464693900007381,5.192000000002736
-0.3245,0.9869,0.0604,0.2665,0.2525,0.088,-14.7262,-3.7975,-22.7062,3.492099785939688,-18.18050423898266,-4.49507390001357,5.200000000004366
-0.3315,0.9884,0.0708,0.2665,0.2525,0.088,-14.3675,-4.1562,-21.3062,4.057634580907219,-18.47729232003811,-4.528323500020344,5.208000000005995
-0.3387,0.9919,0.0727,0.2668,0.255,0.0923,-14.3675,-4.1562,-21.3062,4.183152327145681,-18.78609187889936,-4.5532606999951835,5.213999999999942
-0.3392,0.9928,0.0784,0.2668,0.255,0.0923,-14.1925,-4.0338,-19.3638,4.493258914401896,-18.807229126662193,-4.5532606999951835,5.213999999999942
-0.3392,0.9928,0.0784,0.2698,0.2583,0.0963,-14.21,-4.55,-18.3838,4.513748276374848,-18.808702664060114,-4.621510700025641,5.229000000006636
-0.3386,0.9881,0.0788,0.2698,0.2583,0.0963,-14.21,-4.7425,-18.0688,4.556604066622743,-18.855883554001277,-4.621510700025641,5.229000000006636
-0.3412,0.9892,0.0806,0.2698,0.2583,0.0963,-14.3238,-4.7425,-18.0688,4.651516531090689,-18.96327470659998,-4.6973907000065935,5.245000000002619
-0.3389,0.9857,0.0855,0.2708,0.2622,0.0908,-13.5363,-4.305,-17.395,4.936321924363712,-18.912395644085077,-4.6973907000065935,5.245000000002619
-0.3436,0.9831,0.0885,0.2708,0.2622,0.0908,-13.5188,-4.2962,-16.4587,5.129620372873014,-19.168259888739787,-4.761833700004093,5.260000000002037
-0.3436,0.9823,0.092,0.2722,0.2622,0.0937,-13.5188,-4.2962,-16.4587,5.335306646128366,-19.19861960702519,-4.761833700004093,5.260000000002037
-0.3441,0.9823,0.092,0.2722,0.2622,0.0937,-12.81,-3.675,-16.0037,5.349474204867345,-19.224799039750334,-4.820633700016073,5.276000000005297
-0.3492,0.981,0.0949,0.2724,0.2635,0.092,-12.9237,-3.185,-15.4613,5.512794404889345,-19.48221499382555,-4.820633700016073,5.276000000005297
-0.3496,0.9799,0.0928,0.2724,0.2635,0.092,-13.195,-3.1588,-15.1462,5.417250070975538,-19.5469602355078,-4.871174500003386,5.292000000001281
-0.3539,0.9772,0.0925,0.2724,0.2635,0.092,-13.195,-3.1588,-15.1462,5.408100151407398,-19.798714248265075,-4.871174500003386,5.292000000001281
-0.3525,0.9717,0.0974,0.2731,0.2629,0.0989,-12.8275,-2.7738,-15.0937,5.701079798358322,-19.842552989051907,-4.9127815000219535,5.3070000000079744
-0.3525,0.9717,0.0974,0.2731,0.2629,0.0989,-12.18,-2.8963,-15.2863,5.722272354876056,-19.84694841243476,-4.9127815000219535,5.3070000000079744
-0.3529,0.977,0.0961,0.2744,0.2652,0.1042,-12.3025,-2.8875,-15.6363,5.625572126807611,-19.7792399837905,-4.958981499989347,5.322999999996682
-0.3523,0.9766,0.1027,0.2744,0.2652,0.1042,-12.3025,-2.8875,-15.6363,5.974694771704585,-19.74020429041859,-4.958981499989347,5.322999999996682
-0.3503,0.9664,0.1034,0.2744,0.2652,0.1042,-12.0662,-2.4413,-15.3387,6.096950336483046,-19.81246425040776,-4.995601000005689,5.338000000003376
-0.3529,0.9681,0.1042,0.2766,0.2684,0.1038,-11.4975,-2.0475,-15.12,6.13957023061039,-19.911334138195258,-4.995601000005689,5.338000000003376
-0.3529,0.9712,0.1149,0.2766,0.2684,0.1038,-10.2987,-1.9162,-14.5863,6.693100806837127,-19.849214459898942,-5.026260200011936,5.354000000006636
-0.3531,0.9712,0.1149,0.2751,0.2688,0.1018,-10.2987,-1.9162,-14.5863,6.742336606805011,-19.85194072876405,-5.056919400004239,5.370000000002619
-0.3579,0.9693,0.1135,0.2751,0.2688,0.1018,-9.8787,-2.2138,-14.0262,6.684512252745028,-20.107287385179532,-5.056919400004239,5.370000000002619
-0.3653,0.9687,0.1143,0.2751,0.2688,0.1018,-9.765,-2.03,-13.8512,6.725205543353978,-20.482759188481005,-5.087369400003058,5.385000000002037
-0.3639,0.9669,0.1189,0.2758,0.2697,0.1014,-9.1,-2.2138,-13.4925,6.982081080272815,-20.482846664170715,-5.087369400003058,5.385000000002037
-0.3625,0.9695,0.12,0.2758,0.2697,0.1014,-9.1,-2.2138,-13.4925,7.048556055471683,-20.37331517820844,-5.122790199994166,5.400999999998021
-0.3625,0.9695,0.12,0.2765,0.2706,0.1041,-8.5925,-2.2138,-12.46,7.055135655859218,-20.36051317081153,-5.122790199994166,5.400999999998021
-0.365,0.9658,0.1212,0.2765,0.2706,0.1041,-7.4025,-1.3825,-11.585,7.141063517877891,-20.52521476091234,-5.14352770000342,5.416000000004715
-0.3633,0.9576,0.1182,0.2765,0.2706,0.1041,-5.1625,-1.47,-10.71,7.053733675173126,-20.613612177211625,-5.14352770000342,5.416000000004715
-0.3614,0.9569,0.1206,0.2769,0.2709,0.1067,-6.5712,-1.47,-10.71,7.165995787241022,-20.55448365433586,-5.167047699997516,5.4320000000006985
-0.3707,0.9664,0.1227,0.2769,0.2709,0.1067,-4.165,-1.5225,-8.7675,7.222219370662376,-20.757445945395563,-5.167047699997516,5.4320000000006985
-0.3707,0.9681,0.1293,0.2771,0.2717,0.1046,-3.0538,-1.435,-7.2275,7.511072587934252,-20.7715207258701,-5.190007700002194,5.448000000003958
-0.3728,0.9681,0.1293,0.2771,0.2717,0.1046,-3.0538,-1.435,-4.9875,7.583330312688514,-20.834729169483015,-5.190007700002194,5.448000000003958
-0.3777,0.9648,0.1265,0.2773,0.273,0.1049,-2.135,-1.4088,-6.475,7.506635534270272,-20.938395934142864,-5.2111397000013735,5.463000000003376
-0.3836,0.9652,0.1265,0.2773,0.273,0.1049,-1.4262,-1.47,-6.0988,7.483539309478325,-20.938516547251904,-5.2111397000013735,5.463000000003376
-0.3838,0.9675,0.128,0.2773,0.273,0.1049,0.0175,-1.61,-5.775,7.4871738322154835,-21.068095007398284,-5.236899699994908,5.47899999999936
-0.383,0.9686,0.1246,0.2761,0.273,0.1107,0.0175,-1.61,-5.775,7.476393038668421,-21.152827670663324,-5.236899699994908,5.47899999999936
-0.383,0.9686,0.1246,0.2761,0.273,0.1107,0.3063,-2.2487,-5.8888,7.437501145607539,-21.19825171629827,-5.27063020000996,5.494000000006054
-0.3816,0.9706,0.1214,0.2798,0.2716,0.1059,0.8925,-2.8175,-6.3263,7.287489297210827,-21.219263347705144,-5.27063020000996,5.494000000006054
-0.3798,0.9745,0.1223,0.2798,0.2716,0.1059,0.5688,-3.4913,-7.1663,7.235850504419309,-21.179234166888037,-5.326490999995938,5.510000000002037
-0.374,0.9739,0.1233,0.2798,0.2716,0.1059,0.5688,-3.4913,-7.1663,7.228026032881159,-21.012321069584477,-5.326490999995938,5.510000000002037
-0.3719,0.9756,0.1191,0.2802,0.2731,0.0949,-0.0437,-4.1825,-7.2537,7.224703574740384,-20.859015273938482,-5.393411000009571,5.526000000005297
-0.3709,0.9761,0.1219,0.2802,0.2731,0.0949,-0.63,-4.13,-7.5163,7.185989980972699,-20.74179271956466,-5.393411000009571,5.526000000005297
-0.3709,0.9761,0.1219,0.2795,0.2734,0.1054,-1.05,-4.4975,-7.7263,7.152358029243904,-20.690564435340562,-5.4608735000069535,5.541000000004715
-0.3708,0.9737,0.1191,0.2795,0.2734,0.1054,-1.05,-4.4975,-7.7263,7.063261335869135,-20.70043722394476,-5.4608735000069535,5.541000000004715
-0.3741,0.9708,0.1184,0.2795,0.2734,0.1054,-1.925,-4.55,-8.3825,6.991777324270733,-20.861996139768845,-5.533673499988679,5.5570000000006985
-0.3765,0.9686,0.1271,0.2788,0.272,0.1111,-2.4325,-4.935,-8.96,7.332338961136622,-21.02111704623553,-5.533673499988679,5.5570000000006985
-0.3751,0.9676,0.118,0.2788,0.272,0.1111,-2.5463,-5.5563,-9.6425,7.061661489978446,-21.041450409581227,-5.6170180000258725,5.572000000007392
-0.3751,0.9676,0.118,0.279,0.2747,0.1173,-2.5463,-5.5563,-9.6425,6.98410438644924,-21.045925685700745,-5.6170180000258725,5.572000000007392
-0.3731,0.9697,0.1187,0.279,0.2747,0.1173,-2.9575,-5.7137,-10.115,6.9801597760250615,-20.930881649527375,-5.708437200002924,5.588000000003376
-0.3725,0.9645,0.1238,0.279,0.2747,0.1101,-3.045,-6.16,-10.2288,7.230530041041787,-20.954505194929766,-5.708437200002924,5.588000000003376
-0.3683,0.9618,0.12,0.2794,0.2737,0.1101,-3.045,-6.2125,-10.1325,7.1415802402246165,-20.83540543449698,-5.807837199977973,5.60399999999936
-0.3668,0.9656,0.1227,0.2794,0.2737,0.1101,-2.7213,-6.2125,-10.1325,7.214480371827412,-20.68545284802044,-5.807837199977973,5.60399999999936
-0.3625,0.966,0.1226,0.2801,0.2731,0.1114,-2.5113,-6.3963,-9.9925,7.2276615539359135,-20.47338667107354,-5.903781700020789,5.619000000006054
-0.3625,0.966,0.1226,0.2801,0.2731,0.1114,-1.715,-6.0725,-9.31,7.231011194116545,-20.431854250293664,-5.903781700020789,5.619000000006054
-0.362,0.9686,0.1204,0.2788,0.274,0.1026,-1.715,-6.0725,-7.07,7.14035342730656,-20.39096762084418,-6.0009416999964005,5.635000000002037
-0.3567,0.9733,0.1248,0.2788,0.274,0.1026,-1.0675,-5.4687,-8.505,7.224041374044161,-20.09830383255438,-6.0009416999964005,5.635000000002037
-0.3601,0.9726,0.1198,0.2788,0.274,0.1026,-0.6125,-4.8738,-7.8925,7.151839733244412,-20.14866390922627,-6.074048699993564,5.650000000001455
-0.3595,0.9665,0.1199,0.2814,0.2758,0.0992,-0.1312,-4.0425,-7.0788,7.146256015448772,-20.204095865505334,-6.074048699993564,5.650000000001455
-0.3595,0.9665,0.1199,0.2814,0.2758,0.0992,-0.1312,-4.0425,-7.0788,7.141061574269545,-20.23209480088582,-6.138728699977328,5.665999999997439
-0.3592,0.9714,0.1225,0.2814,0.2764,0.1098,-0.385,-3.4213,-5.53,7.152535646983558,-20.201078449137675,-6.138728699977328,5.665999999997439
-0.3614,0.9725,0.1212,0.2814,0.2764,0.1098,-0.2362,-2.7213,-5.0925,7.145131965652286,-20.221754467921425,-6.182269499986199,5.6820000000006985
-0.3637,0.9708,0.1246,0.2814,0.2764,0.1098,-0.525,-2.1962,-4.0338,7.198961206046327,-20.331493120917845,-6.182269499986199,5.6820000000006985
-0.3688,0.9618,0.1213,0.2801,0.2754,0.1074,-0.525,-2.1962,-4.0338,7.195482683896818,-20.666370464524526,-6.217408699993357,5.698000000003958
-0.3704,0.9547,0.1202,0.2801,0.2754,0.1074,0.315,-0.8313,-3.22,7.190201591740165,-20.95372016421535,-6.217408699993357,5.698000000003958
-0.3704,0.9547,0.1202,0.2804,0.275,0.1074,2.0825,0.665,-2.31,7.180508760873641,-21.032687471274013,-6.2067686999960285,5.713999999999942
-0.3715,0.9492,0.1199,0.2804,0.275,0.1074,4.585,0.9625,-0.175,7.195965820419717,-21.19382406822673,-6.2067686999960285,5.713999999999942
-0.3656,0.9489,0.1178,0.2804,0.275,0.1074,4.585,0.9625,-0.175,7.097846852635815,-20.963407267501594,-6.192331199989586,5.729000000006636
-0.3728,0.9562,0.1232,0.2782,0.273,0.1102,7.3412,1.8288,2.3363,7.312689321918325,-21.121732171832704,-6.192331199989586,5.729000000006636
-0.3773,0.967,0.1266,0.2782,0.273,0.1102,10.15,2.555,4.7162,7.445728061668896,-21.147768273174936,-6.151451199999848,5.745000000002619
-0.3773,0.967,0.1266,0.279,0.2716,0.0982,11.655,2.975,7.035,7.457737606703956,-21.150005308640864,-6.151451199999848,5.745000000002619
-0.3761,0.9761,0.125,0.279,0.2716,0.0982,11.655,2.975,7.035,7.310212121859834,-20.932783905242463,-6.10385119999015,5.761000000005879
-0.3752,0.9733,0.1173,0.279,0.2716,0.1004,12.565,3.185,8.0413,6.90418943336465,-20.942334167090507,-6.10385119999015,5.761000000005879
-0.3573,0.9448,0.1133,0.277,0.2707,0.1004,14.175,4.06,9.3013,6.842560442147485,-20.6024743683004,-6.0429512000220535,5.775999999998021
-0.338,0.9278,0.1064,0.277,0.2707,0.1004,14.175,6.3,12.18,6.561821022232462,-19.933340168182767,-6.0429512000220535,5.775999999998021
-0.3387,0.9323,0.104,0.277,0.2659,0.0951,17.6838,5.425,12.18,6.375642622572215,-19.85659701227324,-5.95615120000437,5.792000000001281
-0.3387,0.9323,0.104,0.277,0.2659,0.0951,22.6012,6.9913,18.1475,6.365591435880057,-19.852564879513817,-5.95615120000437,5.792000000001281
-0.3477,0.9558,0.1113,0.2697,0.2634,0.1022,26.3638,8.89,25.5063,6.631924533060058,-19.866251923252673,-5.822801199944861,5.8070000000079744
-0.363,0.9728,0.11,0.2697,0.2634,0.1022,26.3638,8.89,25.5063,6.457940491750776,-20.329456644584788,-5.680561200045249,5.822999999996682
-0.3773,0.9875,0.1039,0.2697,0.2634,0.1022,29.7938,10.7712,31.99,6.0209279548742956,-20.79353124436405,-5.680561200045249,5.822999999996682
-0.3754,1.0049,0.0971,0.2661,0.2581,0.087,31.1675,11.6637,35.6475,5.534729461863376,-20.40630636014987,-5.493942000007229,5.838999999999942
-0.3754,1.0049,0.0971,0.2661,0.2581,0.087,32.0775,11.7075,36.9775,5.51962799112939,-20.397241181351642,-5.493942000007229,5.838999999999942
-0.3658,1.0087,0.0849,0.2634,0.2522,0.086,32.0775,11.7075,36.9775,4.83250007462372,-19.880198759097222,-5.318329500014044,5.85399999999936
-0.3572,1.0064,0.077,0.2634,0.2522,0.086,31.2638,11.8562,35.9975,4.38934454332144,-19.497660728356703,-5.318329500014044,5.85399999999936
-0.3443,0.9907,0.0651,0.2634,0.2522,0.086,30.6338,11.585,33.9588,3.7794375859355913,-19.134794131776882,-5.132969499976281,5.870000000002619
-0.3116,0.9631,0.054,0.2606,0.246,0.0739,31.4387,12.3462,31.2638,3.2267036854609965,-17.934209058120263,-5.132969499976281,5.870000000002619
-0.2998,0.9551,0.0423,0.2606,0.246,0.0739,31.4387,12.3462,31.2638,2.5571492837513428,-17.4243630814576,-4.947776499983467,5.885000000002037
-0.2998,0.9551,0.0423,0.2558,0.2422,0.0782,34.0375,12.915,31.2113,2.536495966331224,-17.41107345929434,-4.947776499983467,5.885000000002037
-0.2892,0.9711,0.0492,0.2558,0.2422,0.0782,36.1637,13.195,32.9437,2.8905884746636588,-16.584959916973283,-4.736656500036463,5.900999999998021
-0.2909,0.9886,0.0392,0.2558,0.2422,0.0782,37.3975,14.875,34.545,2.286824826530514,-16.389384619908867,-4.736656500036463,5.900999999998021
-0.2937,1.0006,0.0348,0.2502,0.2362,0.0713,37.3975,14.875,34.545,1.9995643795344922,-16.349840432681074,-4.498656499987976,5.917000000001281
-0.2906,1.011,0.0237,0.2502,0.2362,0.0713,37.5812,15.7937,35.9362,1.3598853407772904,-16.039867607850884,-4.498656499987976,5.917000000001281
-0.2906,1.011,0.0237,0.2422,0.2326,0.0678,37.1087,15.855,35.7525,1.3433348574051807,-16.032665570302484,-4.260831499997205,5.9320000000006985
-0.2904,1.015,0.0175,0.2422,0.2326,0.0678,36.12,15.365,33.8625,0.9973249568957022,-15.965693466253057,-4.260831499997205,5.9320000000006985
-0.2908,1.0173,0.0071,0.2422,0.2326,0.0627,36.12,15.365,33.8625,0.4159463054653205,-15.952788490196102,-4.014991499947121,5.948000000003958
-0.2889,1.0174,0.0037,0.2415,0.2269,0.0627,34.6063,14.7613,31.4125,0.21418847611188566,-15.85488881792281,-4.014991499947121,5.948000000003958
-0.2814,1.0044,-0.0087,0.2415,0.2269,0.0627,34.1775,14.4637,28.28,-0.47611285112466056,-15.656349549225727,-3.79803599995554,5.963000000003376
-0.2767,1.0191,-0.012,0.2378,0.2242,0.051,34.1775,14.4637,26.6963,-0.6689977587780324,-15.20321309340092,-3.79803599995554,5.963000000003376
-0.2767,1.0191,-0.012,0.2378,0.2242,0.051,33.7225,13.37,26.6963,-0.6744701012318045,-15.189804829680059,-3.5841160000092387,5.97899999999936
-0.2707,1.0311,-0.0131,0.2343,0.219,0.0464,32.6987,12.4775,27.1163,-0.7263139634088133,-14.723103549406705,-3.5841160000092387,5.97899999999936
-0.2657,1.0286,-0.0201,0.2343,0.219,0.0464,30.7913,12.0575,27.6413,-1.1071361510200368,-14.487924159756759,-3.391195999969936,5.995000000002619
-0.2574,1.0309,-0.0339,0.2343,0.219,0.0464,30.7913,12.0575,27.6413,-1.8590540226809324,-14.025666942725621,-3.391195999969936,5.995000000002619
-0.2478,1.0375,-0.0349,0.2297,0.2166,0.0482,29.0238,11.1562,27.4137,-1.9243744852939564,-13.443120479839967,-3.2238529999764296,6.010000000002037
-0.2478,1.0375,-0.0349,0.2297,0.2166,0.0482,27.3875,10.36,26.7313,-1.9265417430962721,-13.426251454047433,-3.2238529999764296,6.010000000002037
-0.2399,1.0353,-0.0436,0.2252,0.2137,0.0432,24.9638,9.7913,25.3312,-2.392857293380205,-13.047241417647054,-3.0671921999445138,6.026000000005297
-0.2354,1.0263,-0.0568,0.2252,0.2137,0.0432,24.9638,9.7913,25.3312,-3.137989829582005,-12.903832440351268,-3.0671921999445138,6.026000000005297
-0.2234,1.0078,-0.0575,0.2252,0.2137,0.0432,24.0362,8.6538,23.6163,-3.2603884252052264,-12.492878041668355,-2.937385200012516,6.040999999997439
-0.2033,1.0058,-0.0601,0.2224,0.2085,0.041,24.3862,8.2863,21.7,-3.4132975363175193,-11.444985171575055,-2.937385200012516,6.040999999997439
-0.1977,1.0149,-0.0644,0.2224,0.2085,0.041,23.8263,8.5225,23.1612,-3.6220672060077357,-11.016104741601776,-2.8010251999847355,6.0570000000006985
-0.1977,1.0149,-0.0644,0.2196,0.2067,0.0358,23.8263,8.5225,23.1612,-3.630457406938846,-11.001931660792783,-2.8010251999847355,6.0570000000006985
-0.1957,1.0172,-0.0708,0.2196,0.2067,0.0358,23.6075,8.6888,25.7162,-3.9672929497930673,-10.868655029047433,-2.6620043999564134,6.073000000003958
-0.1947,1.0247,-0.0739,0.2196,0.2067,0.0358,23.5462,9.0738,26.985,-4.11854546960216,-10.735158947580546,-2.6620043999564134,6.073000000003958
-0.1873,1.0282,-0.0789,0.2149,0.2026,0.0322,23.1437,9.0212,27.7025,-4.37691536457577,-10.30702176652335,-2.5266863999616644,6.088000000003376
-0.1795,1.0306,-0.088,0.2149,0.2026,0.0322,23.1437,9.0212,27.7025,-4.859676609737779,-9.858274199426504,-2.5266863999616644,6.088000000003376
-0.1795,1.0306,-0.088,0.2088,0.2,0.0292,22.2775,8.4438,27.2388,-4.879593535235181,-9.845384866121984,-2.3915855999341407,6.104000000006636
-0.1695,1.0278,-0.0897,0.2088,0.2,0.0292,20.8337,7.665,26.1712,-4.982839496612681,-9.345322907682892,-2.3915855999341407,6.104000000006636
-0.1642,1.0221,-0.0936,0.2088,0.1986,0.0257,19.8275,7.6825,24.5438,-5.220387148738198,-9.097267555325033,-2.27634809999451,6.118999999998778
-0.1613,1.0207,-0.1024,0.2053,0.1986,0.0257,19.8275,7.6825,24.5438,-5.704582024850156,-8.94109025717431,-2.153428099969468,6.135000000002037
-0.1532,1.0205,-0.1047,0.2053,0.1986,0.0257,18.9175,7.8837,22.4963,-5.850191343641612,-8.508815784763708,-2.153428099969468,6.135000000002037
-0.1404,1.0159,-0.1088,0.2016,0.1972,0.0171,18.4713,6.6762,21.07,-6.099460764894448,-7.848692270957957,-2.046608899947706,6.151000000005297
-0.1404,1.0159,-0.1088,0.2016,0.1972,0.0171,18.4713,6.6762,20.0637,-6.112225771583345,-7.8252898391352534,-2.046608899947706,6.151000000005297
-0.1326,1.0193,-0.1108,0.1982,0.1939,0.0189,18.3225,6.5363,20.0637,-6.199084191661795,-7.385812598947692,-1.9485643999990685,6.165999999997439
-0.1297,1.0172,-0.1102,0.1982,0.1939,0.0189,17.99,6.51,20.0725,-6.183954147775889,-7.230507979509861,-1.9485643999990685,6.165999999997439
-0.1262,1.0152,-0.1194,0.1982,0.1939,0.0189,17.2638,5.9237,19.5387,-6.679274019095877,-7.045318542932324,-1.8537851999797594,6.1820000000006985
-0.1218,1.02,-0.1221,0.1948,0.1913,0.0227,17.2638,5.9237,19.5387,-6.8181425676639025,-6.77237047219501,-1.8537851999797594,6.1820000000006985
-0.1218,1.02,-0.1377,0.1948,0.1913,0.0227,16.6425,6.0725,19.7138,-7.639274536783026,-6.749772301591767,-1.7566251999599654,6.198000000003958
-0.1216,1.0221,-0.1257,0.1919,0.1874,0.0129,15.505,5.075,18.5238,-7.049076917133734,-6.734967901896366,-1.7566251999599654,6.198000000003958
-0.1161,1.0225,-0.1315,0.1919,0.1874,0.0129,14.805,4.375,17.3425,-7.3107665129793595,-6.438111254202603,-1.6866251999775368,6.213999999999942
-0.115,1.0258,-0.1284,0.1919,0.1874,0.0129,14.805,4.375,17.3425,-7.145744519141405,-6.351171249902446,-1.6866251999775368,6.213999999999942
-0.1133,1.0213,-0.1323,0.1894,0.1849,0.0131,13.9213,4.165,16.1875,-7.365326951148371,-6.2814345466906545,-1.6199851999639605,6.230000000003201
-0.1076,1.0182,-0.1351,0.1894,0.1849,0.0131,13.3525,3.6312,14.2975,-7.544767386235653,-5.994478424211841,-1.6199851999639605,6.230000000003201
-0.1076,1.0182,-0.1351,0.1861,0.1842,0.0104,12.2937,3.465,13.37,-7.557147291245078,-5.981096868016766,-1.5680101999659775,6.245000000002619
-0.0969,1.019,-0.1304,0.1861,0.1842,0.0104,12.2937,3.465,13.37,-7.312255396144463,-5.417381396452552,-1.5680101999659775,6.245000000002619
-0.0928,1.0144,-0.1365,0.1861,0.1842,0.0104,11.9788,3.0975,13.4488,-7.6368465455945955,-5.192109927035468,-1.5184501999558808,6.261000000005879
-0.0883,1.0101,-0.1411,0.1832,0.1847,0.0172,11.5063,3.15,13.8162,-7.9270430977964725,-4.959794032462796,-1.5184501999558808,6.261000000005879
-0.0903,1.0124,-0.1429,0.1832,0.1847,0.0172,11.4012,3.1588,14.525,-8.025606692362826,-5.043142347988215,-1.4710681999807027,6.275999999998021
-0.0903,1.0124,-0.1394,0.1802,0.1822,0.0035,11.4012,3.1588,14.525,-7.854813970496391,-5.049261532764557,-1.4710681999807027,6.275999999998021
-0.0884,1.01,-0.1394,0.1802,0.1822,0.0035,10.7013,2.9225,15.1462,-7.858007432882098,-4.95953713914681,-1.4243081999711764,6.292000000001281
-0.087,1.0103,-0.1462,0.1802,0.1797,-0.0014,10.7187,2.8,14.9275,-8.202145729123156,-4.875286509853011,-1.4243081999711764,6.292000000001281
-0.0831,1.0096,-0.1483,0.179,0.1797,-0.0014,10.6838,2.765,14.8837,-8.343269806763177,-4.665653711858195,-1.3800681999621636,6.30800000000454
-0.0748,1.0074,-0.15,0.179,0.1797,-0.0014,10.6838,2.765,14.8837,-8.45830303164514,-4.221480969808597,-1.3800681999621636,6.30800000000454
-0.0672,1.0118,-0.1499,0.1747,0.1781,0.0015,10.8238,2.17,15.4525,-8.42979450372305,-3.7793969806304957,-1.3475181999634267,6.323000000003958
-0.0672,1.0118,-0.1499,0.1747,0.1781,0.0015,11.3575,2.5113,15.8463,-8.42738532549082,-3.7597780724714607,-1.3475181999634267,6.323000000003958
-0.0697,1.0156,-0.1515,0.1729,0.1765,0.0008,11.3575,2.5113,16.8525,-8.479819648744812,-3.8780314681118515,-1.307337399973513,6.338999999999942
-0.0676,1.015,-0.1541,0.1729,0.1765,0.0008,11.13,2.66,16.8525,-8.620311611054744,-3.7719076653474866,-1.307337399973513,6.338999999999942
-0.0655,1.0102,-0.1581,0.1729,0.1765,0.0008,11.0337,2.3012,17.4037,-8.872138389059465,-3.6696465209653786,-1.2728193999748525,6.35399999999936
-0.0614,1.0084,-0.1582,0.1691,0.1755,-0.0018,10.7625,2.4675,17.5875,-8.912301892680325,-3.4515605594668197,-1.2728193999748525,6.35399999999936
-0.0614,1.0084,-0.1587,0.1691,0.1755,-0.0018,10.7625,2.4675,17.5875,-8.94107908426173,-3.4424758261848325,-1.2333393999668094,6.370000000002619
-0.0582,1.0135,-0.1587,0.167,0.1738,-0.0017,10.5525,2.4938,18.0688,-8.90304119394185,-3.2548689931622063,-1.2333393999668094,6.370000000002619
-0.0514,1.0162,-0.1588,0.167,0.1738,-0.0017,10.57,2.1437,17.815,-8.88352748902355,-2.876736851708067,-1.1990401999598217,6.386000000005879
-0.0468,1.0192,-0.1606,0.167,0.1738,-0.0017,10.92,1.505,17.6663,-8.948782530972867,-2.6083740376699684,-1.1990401999598217,6.386000000005879
-0.0438,1.0108,-0.1613,0.1622,0.1702,-0.0118,10.92,1.505,17.6663,-9.056781064065882,-2.456612693073337,-1.176465199971648,6.400999999998021
-0.0414,1.0042,-0.1635,0.1622,0.1702,-0.0118,10.465,2.345,17.115,-9.230977974047441,-2.3353621641455207,-1.176465199971648,6.400999999998021
-0.0414,1.0042,-0.1635,0.1598,0.171,-0.0063,10.92,2.8525,17.0538,-9.246152177474885,-2.330355257643011,-1.13082519996235,6.417000000001281
-0.0409,1.0094,-0.1698,0.1598,0.171,-0.0063,11.0075,2.8,17.1238,-9.523735016594921,-2.2899316475785745,-1.13082519996235,6.417000000001281
-0.0371,1.0069,-0.1682,0.1598,0.171,-0.0063,11.0075,2.8,17.1238,-9.486875763795286,-2.089949665705776,-1.0888251999639798,6.4320000000006985
-0.0354,1.0069,-0.1709,0.1522,0.169,-0.0106,10.9375,2.3187,17.5438,-9.620767530628529,-1.9894257617660276,-1.0888251999639798,6.4320000000006985
-0.0279,1.0083,-0.1749,0.1522,0.169,-0.0106,10.7975,1.785,17.92,-9.822077647240567,-1.5787774869484974,-1.0602651999581614,6.448000000003958
-0.0279,1.0083,-0.1749,0.154,0.1659,-0.0134,10.955,1.4262,17.9112,-9.839080972884856,-1.562364278497231,-1.0602651999581614,6.448000000003958
-0.0259,1.0073,-0.1745,0.154,0.1659,-0.0134,10.955,1.4262,17.9112,-9.829028302357802,-1.4557171742329102,-1.0374459999535124,6.464000000007218
-0.0212,1.0046,-0.176,0.154,0.1653,-0.0096,11.13,1.12,17.7362,-9.92817310481357,-1.2014651524321038,-1.0206459999623134,6.47899999999936
-0.0156,1.0021,-0.1759,0.1476,0.1653,-0.0096,11.3138,0.8662,16.5637,-9.953552109581173,-0.8920921157453694,-1.0206459999623134,6.47899999999936
-0.0126,0.9984,-0.182,0.1476,0.1653,-0.0096,11.6725,0.9712,15.6538,-10.301443450423873,-0.7192692966756485,-1.0051067999591476,6.495000000002619
-0.0079,0.9992,-0.1798,0.1442,0.1641,-0.0162,11.6725,0.9712,15.6538,-10.208765134994294,-0.457847323146647,-1.0051067999591476,6.495000000002619
-0.0079,0.9992,-0.1798,0.1442,0.1641,-0.0162,11.6375,1.365,16.0475,-10.201485829281383,-0.4463486835234812,-0.9846317999599422,6.510000000002037
-0.0026,1.0031,-0.1803,0.1398,0.1589,-0.0123,11.9525,1.3913,17.0275,-10.190605010197995,-0.15860799671582318,-0.9846317999599422,6.510000000002037
-0.0029,1.0028,-0.1877,0.1398,0.1589,-0.0123,11.9525,1.3913,17.3687,-10.570113129393835,-0.16269097644094216,-0.9623709999554071,6.526000000005297
-0.002,1.0044,-0.1895,0.1398,0.1589,-0.0123,12.0837,1.3737,17.3687,-10.675695634946457,-0.1141786824963488,-0.9623709999554071,6.526000000005297
0.0067,0.9984,-0.1928,0.1374,0.1578,-0.0238,11.6462,1.26,17.9112,-10.909789428717842,0.35785698967702784,-0.9422109999604676,6.542000000001281
0.0067,0.9984,-0.1928,0.1374,0.1578,-0.0238,11.83,0.98,17.7887,-10.928240904392807,0.37672683790461314,-0.9422109999604676,6.542000000001281
0.0068,0.992,-0.1967,0.1345,0.1582,-0.0178,11.83,0.98,17.7887,-11.193198494122218,0.38490461540702936,-0.927510999961038,6.5570000000006985
0.0123,0.9905,-0.1976,0.1345,0.1582,-0.0178,12.8013,0.4112,17.9463,-11.27570274171646,0.6852239529212077,-0.927510999961038,6.5570000000006985
0.0205,0.9931,-0.1934,0.1345,0.1582,-0.0178,14.1838,0.8925,18.0688,-11.036837294640625,1.1418619097662455,-0.9132309999581288,6.573000000003958
0.0272,0.9948,-0.1924,0.129,0.1558,-0.0228,15.1725,1.26,19.0925,-10.951768839200613,1.5226055973272654,-0.9132309999581288,6.573000000003958
0.0232,0.9967,-0.198,0.129,0.1558,-0.0228,15.1725,1.26,19.0925,-11.21834100514209,1.3160727482638885,-0.8943309999588622,6.588000000003376
0.0232,0.9967,-0.198,0.1277,0.1558,-0.0208,16.0212,1.9075,20.6763,-11.234820520907368,1.3081694113608786,-0.8943309999588622,6.588000000003376
0.027,0.9989,-0.2023,0.1277,0.1558,-0.0208,15.68,2.0387,22.4788,-11.436061413982081,1.5104413614572165,-0.8617117999522168,6.604000000006636
0.029,0.9966,-0.2079,0.1277,0.1558,-0.0208,15.5662,2.31,23.7738,-11.762542354045657,1.6277434919589948,-0.8617117999522168,6.604000000006636
0.0357,0.9927,-0.2049,0.1238,0.1541,-0.0238,15.5662,2.31,23.7738,-11.6684771895122,2.0045165795965887,-0.824751799978302,6.619999999995343
0.0418,0.9726,-0.213,0.1238,0.1541,-0.0238,15.7587,2.1175,23.9925,-12.312093440223128,2.3911653515993634,-0.824751799978302,6.619999999995343
0.0418,0.9726,-0.213,0.1189,0.1505,-0.0236,17.675,1.8463,23.6775,-12.350617454520098,2.4035969522396887,-0.797057299965943,6.635000000002037
0.0557,0.9622,-0.2123,0.1189,0.1505,-0.0236,21.1313,2.9838,24.7887,-12.438264448060497,3.209319046766593,-0.797057299965943,6.635000000002037
0.0625,0.9748,-0.2059,0.1189,0.149,-0.0326,21.1313,2.9838,24.7887,-11.949914393868795,3.5776280225138932,-0.749316499956217,6.651000000005297
0.0655,0.9802,-0.2112,0.113,0.149,-0.0326,23.5462,3.675,28.175,-12.150895304925777,3.732944559291265,-0.749316499956217,6.651000000005297
0.0601,0.9837,-0.2222,0.113,0.149,-0.0326,23.87,4.5675,31.325,-12.705296152315382,3.418868838688131,-0.6808039999588756,6.666000000004715
0.0695,0.9862,-0.2226,0.1071,0.1473,-0.0389,23.87,4.76,33.2938,-12.718798326826336,3.9197889705780646,-0.6808039999588756,6.666000000004715
0.0695,0.9862,-0.2226,0.1071,0.1473,-0.0389,23.45,4.76,33.2938,-12.719339623570752,3.9321901901784706,-0.6046439999779933,6.6820000000006985
0.0777,0.9798,-0.2316,0.101,0.1448,-0.0392,24.5525,4.1737,35.0962,-13.27653245288649,4.401668960029163,-0.6046439999779933,6.6820000000006985
0.0948,0.9659,-0.2386,0.101,0.1448,-0.0392,25.8475,3.9725,35.8925,-13.85335451148903,5.418648584788105,-0.5410839999939482,6.697999999996682
0.1091,0.9607,-0.242,0.101,0.1448,-0.0392,25.8475,3.9725,35.8925,-14.128033572632203,6.2641226167273745,-0.5410839999939482,6.697999999996682
0.115,0.9611,-0.2423,0.094,0.143,-0.0432,28.805,4.6375,36.9075,-14.149076692798312,6.6100637426965125,-0.4715214999629053,6.713000000003376
0.115,0.9611,-0.2579,0.094,0.143,-0.0432,31.0012,5.0838,38.6575,-14.993609505027855,6.5926008688447775,-0.4715214999629053,6.713000000003376
0.1185,0.9621,-0.2524,0.087,0.1418,-0.0459,31.745,6.0725,40.4775,-14.708831781541827,6.78976661845474,-0.37436149994311124,6.729000000006636
0.1238,0.9672,-0.2531,0.087,0.1418,-0.0459,31.745,6.0725,40.4775,-14.665864424841489,7.053274943408339,-0.37436149994311124,6.729000000006636
0.1264,0.9748,-0.2607,0.087,0.1418,-0.0459,31.4212,6.895,42.0,-14.9632990689808,7.138214129411664,-0.2709364999972924,6.743999999998778
0.1344,0.9753,-0.2688,0.0782,0.1406,-0.0514,30.59,6.9913,41.6587,-15.394535063212246,7.558655033986096,-0.2709364999972924,6.743999999998778
0.1465,0.9692,-0.2732,0.0782,0.1406,-0.0514,29.7763,6.5538,41.2825,-15.730911491131451,8.262801251850531,-0.16607569997592947,6.760000000002037
0.1465,0.9692,-0.2732,0.0725,0.1373,-0.0562,29.7763,6.5538,41.2825,-15.741821270884707,8.27735528682704,-0.16607569997592947,6.760000000002037
0.1548,0.9672,-0.274,0.0725,0.1373,-0.0562,29.995,6.6588,39.69,-15.81457932609593,8.744004912265568,-0.05953490000267339,6.775999999998021
0.1602,0.9694,-0.2833,0.0725,0.1373,-0.0562,29.1637,7.14,38.22,-16.274860458738384,9.007336187640883,-0.05953490000267339,6.775999999998021
0.1654,0.9665,-0.2912,0.063,0.1365,-0.0574,27.7375,6.5538,36.6625,-16.75010467721485,9.298814776245491,0.038772100041196966,6.791000000004715
0.1768,0.9603,-0.2876,0.063,0.1365,-0.0574,27.7375,6.5538,36.6625,-16.67511684120573,9.986275848860116,0.038772100041196966,6.791000000004715
0.1768,0.9603,-0.2876,0.0578,0.1347,-0.0627,27.1163,5.425,34.4487,-16.6725145986377,10.001965536554746,0.12557210001940838,6.8070000000006985
0.1838,0.9593,-0.2917,0.0578,0.1347,-0.0627,25.6112,4.8913,32.165,-16.904224603302783,10.377782622271503,0.12557210001940838,6.8070000000006985
0.1918,0.9598,-0.2967,0.0578,0.1338,-0.0719,24.0362,4.655,30.1437,-17.16688383494809,10.79722343841273,0.20005210003458196,6.823000000003958
0.2044,0.9575,-0.2969,0.0536,0.1338,-0.0719,24.0362,4.655,30.1437,-17.225113614717323,11.504851115366977,0.20005210003458196,6.823000000003958
0.2108,0.9495,-0.3074,0.0536,0.1338,-0.0719,22.9513,4.725,28.0963,-17.909576611684862,11.914623400907699,0.2756521000499837,6.839000000007218
0.2136,0.9403,-0.3126,0.0497,0.1346,-0.077,21.8312,4.8825,26.8888,-18.36827922064015,12.157276744064236,0.2756521000499837,6.839000000007218
0.2136,0.9403,-0.3126,0.0497,0.1346,-0.077,21.8312,4.7162,25.1912,-18.388320877905613,12.164404788158906,0.351111299996727,6.8549999999959255
0.2186,0.9384,-0.3147,0.0419,0.1344,-0.076,21.7525,4.7162,25.1912,-18.53267357430879,12.445479781216605,0.4218543000282967,6.870000000002619
0.2261,0.9398,-0.3123,0.0419,0.1344,-0.076,22.0325,4.6463,23.2925,-18.388422622418375,12.846970761870114,0.4218543000282967,6.870000000002619
0.2258,0.9412,-0.3191,0.0419,0.1344,-0.076,21.42,5.81,22.4963,-18.71334233281813,12.802072936921448,0.5148143000472352,6.886000000005879
0.2232,0.9292,-0.3275,0.0366,0.133,-0.0847,21.42,5.81,22.4963,-19.383969279922376,12.765991915684817,0.5148143000472352,6.886000000005879
0.2232,0.9292,-0.3331,0.0366,0.133,-0.0847,20.0025,5.8713,22.4963,-19.705721797090376,12.742103197749325,0.6028838000010983,6.900999999998021
0.2309,0.915,-0.3331,0.0318,0.1342,-0.0806,20.615,4.4538,22.4875,-19.989966860768657,13.319703904522571,0.6028838000010983,6.900999999998021
0.2336,0.9071,-0.3354,0.0318,0.1342,-0.0806,22.9075,3.6488,21.525,-20.279263109444017,13.57015307947347,0.661264600012992,6.917000000001281
0.2458,0.9127,-0.3239,0.0318,0.1342,-0.0806,22.9075,3.6488,21.525,-19.569711939453285,14.217676186755693,0.661264600012992,6.917000000001281
