AcclX,AcclY,AcclZ,MagX,MagY,MagZ,GyroX,GyroY,GyroZ,Roll,Pitch,Yaw,Time Elapsed(s)
0.184,0.9282,-0.3337,0.0426,0.1247,-0.0522,-2.3187,-0.2887,-8.9862,0,0,0,0.0
0.1887,0.9282,-0.3337,0.0449,0.1251,-0.0494,-2.3187,-0.2887,-8.9862,0,0,0,0.01600000000325963
0.1916,0.9279,-0.3316,0.0449,0.1251,-0.0494,-1.3038,-0.63,-9.1875,0,0,0,0.01600000000325963
0.1937,0.9317,-0.3298,0.0449,0.1251,-0.0494,-0.63,-0.315,-8.715,0,0,0,0.031000000002677552
0.2009,0.9297,-0.3285,0.0453,0.1278,-0.0518,-0.2275,-0.3237,-8.085,0,0,0,0.031000000002677552
0.1991,0.9295,-0.3306,0.0453,0.1278,-0.0518,-0.2275,-0.3237,-8.085,0,0,0,0.04700000000593718
0.1991,0.9295,-0.3306,0.0454,0.1256,-0.0547,0.1663,0.2275,-7.6125,0,0,0,0.04700000000593718
0.2064,0.9313,-0.3273,0.0454,0.1256,-0.0547,0.8225,1.295,-6.9563,0,0,0,0.06400000000576256
0.2044,0.9347,-0.325,0.0454,0.1256,-0.0547,0.8225,1.6013,-6.2387,0,0,0,0.07100000000355067
0.1995,0.9378,-0.325,0.0458,0.1262,-0.0506,0.105,1.6013,-6.2387,0,0,0,0.07800000000133878
0.1961,0.9376,-0.3293,0.0458,0.1262,-0.0506,0.0875,2.1875,-5.985,0,0,0,0.08600000000296859
0.1961,0.9419,-0.3276,0.045,0.1263,-0.051,0.0088,2.2225,-6.1337,0,0,0,0.0940000000045984
0.1959,0.9419,-0.3276,0.045,0.1263,-0.051,0.0088,2.2225,-6.1337,0,0,0,0.10200000000622822
0.1953,0.9461,-0.3284,0.0454,0.1275,-0.0555,-0.5163,1.6625,-5.9763,0,0,0,0.10500000000320142
0.1898,0.9423,-0.327,0.0454,0.1275,-0.0555,-1.2425,1.7763,-5.7663,0,0,0,0.10500000000320142
0.1869,0.9401,-0.3299,0.0454,0.1275,-0.0555,-1.4175,1.4262,-6.3787,0,0,0,0.12000000000261934
0.1906,0.9396,-0.3268,0.0468,0.1264,-0.0498,-1.4175,1.4262,-6.3787,0,0,0,0.12000000000261934
0.1906,0.9396,-0.3268,0.0468,0.1264,-0.0498,-2.1263,0.8225,-5.8187,0,0,0,0.13600000000587897
0.1916,0.9364,-0.3317,0.0466,0.1265,-0.0438,-2.2225,0.98,-5.5563,0,0,0,0.13600000000587897
0.192,0.9362,-0.3297,0.0466,0.1265,-0.0438,-2.5463,0.8838,-5.5912,0,0,0,0.1510000000052969
0.1905,0.9318,-0.3306,0.0466,0.1265,-0.0438,-2.5463,0.8838,-5.5912,0,0,0,0.1510000000052969
0.1875,0.9296,-0.3343,0.0452,0.1276,-0.0598,-1.8025,0.2887,-5.4687,0,0,0,0.16700000000128057
0.1875,0.9332,-0.3362,0.0452,0.1276,-0.0598,-1.2163,-0.1488,-5.3025,0,0,0,0.1830000000045402
0.1874,0.9332,-0.3362,0.0467,0.1266,-0.0494,-0.3413,-0.945,-5.5738,0,0,0,0.1830000000045402
0.1903,0.9364,-0.3323,0.0467,0.1266,-0.0494,-0.3413,-0.945,-5.5738,0,0,0,0.19800000000395812
0.1964,0.9361,-0.3343,0.0467,0.1266,-0.0494,-0.105,-1.3737,-5.2675,0,0,0,0.19800000000395812
0.1984,0.9365,-0.3345,0.0442,0.1249,-0.0512,0.5075,-1.3038,-5.3725,0,0,0,0.21400000000721775
0.2007,0.9342,-0.3329,0.0442,0.1249,-0.0512,0.28,-1.9338,-5.3025,0,0,0,0.21400000000721775
0.2007,0.9342,-0.3329,0.0444,0.1258,-0.0418,0.28,-1.9338,-5.3025,0,0,0,0.22900000000663567
0.2006,0.9317,-0.3326,0.0444,0.1258,-0.0418,0.84,-1.5838,-4.9963,0,0,0,0.22900000000663567
0.1981,0.9271,-0.3317,0.0444,0.1258,-0.0418,1.05,-1.3737,-4.6813,0,0,0,0.24500000000261934
0.1972,0.9256,-0.3348,0.0449,0.1266,-0.0531,1.05,-1.7587,-4.4363,0,0,0,0.24500000000261934
0.192,0.9256,-0.3325,0.0449,0.1266,-0.0531,1.1812,-1.7587,-4.4363,0,0,0,0.261000000005879
0.192,0.9238,-0.3331,0.0454,0.1273,-0.051,0.8313,-2.1175,-4.235,0,0,0,0.261000000005879
0.1929,0.9238,-0.3331,0.0454,0.1273,-0.051,0.7788,-2.1175,-4.0075,0,0,0,0.2760000000052969
0.1902,0.9276,-0.3386,0.044,0.128,-0.0503,0.7788,-2.1175,-4.0075,0,0,0,0.2760000000052969
0.1887,0.9284,-0.3404,0.044,0.128,-0.0503,0.875,-2.8612,-4.1737,0,0,0,0.2920000000085565
0.1881,0.9317,-0.3387,0.044,0.128,-0.0503,0.8487,-3.5612,-4.585,0,0,0,0.2920000000085565
0.1914,0.9332,-0.3387,0.0462,0.1272,-0.0505,1.2425,-4.2787,-4.9088,0,0,0,0.3070000000006985
0.1914,0.9332,-0.3387,0.0462,0.1272,-0.0505,1.2425,-4.2787,-4.9088,0,0,0,0.3070000000006985
0.1938,0.9351,-0.3402,0.0465,0.1268,-0.0503,0.98,-4.3925,-5.25,0,0,0,0.3230000000039581
0.1959,0.9356,-0.3415,0.0465,0.1268,-0.0503,0.49,-4.9788,-5.6962,0,0,0,0.3230000000039581
0.2009,0.938,-0.3403,0.0465,0.1268,-0.0503,-0.63,-5.1363,-5.5912,0,0,0,0.33900000000721775
0.2012,0.9363,-0.3401,0.0455,0.1266,-0.0493,-0.63,-5.1363,-5.5912,0,0,0,0.33900000000721775
0.2012,0.9363,-0.3445,0.0455,0.1266,-0.0493,-0.7437,-4.6112,-5.285,0,0,0,0.3540000000066357
0.2007,0.9321,-0.3445,0.0462,0.1249,-0.049,-1.225,-4.13,-5.1887,0,0,0,0.3540000000066357
0.2067,0.9332,-0.3408,0.0462,0.1249,-0.049,-1.3825,-4.34,-4.5237,0,0,0,0.37000000000261934
0.2133,0.9315,-0.3409,0.0462,0.1249,-0.049,-1.3825,-4.34,-4.5237,0,0,0,0.37000000000261934
0.2194,0.9318,-0.3398,0.0443,0.1253,-0.058,-1.68,-3.2287,-4.3313,0,0,0,0.38500000000203727
0.2167,0.9274,-0.3384,0.0443,0.1253,-0.058,-1.4,-2.3012,-3.92,0,0,0,0.38500000000203727
0.2167,0.9274,-0.3384,0.045,0.1262,-0.0559,-1.1463,-1.4875,-3.605,0,0,0,0.4010000000052969
0.2095,0.925,-0.3379,0.045,0.1262,-0.0559,-1.1463,-1.4875,-3.605,0,0,0,0.4010000000052969
0.209,0.9235,-0.3418,0.045,0.1262,-0.0559,-1.61,-0.9187,-3.5875,0,0,0,0.4170000000085565
0.208,0.9263,-0.3386,0.0446,0.1256,-0.0465,-1.7325,-1.0325,-3.465,0,0,0,0.4170000000085565
0.2072,0.927,-0.3377,0.0446,0.1256,-0.0465,-1.7325,-1.0325,-3.4213,0,0,0,0.4320000000006985
0.2072,0.927,-0.3386,0.0414,0.1263,-0.0516,-1.1812,-0.7437,-3.4213,0,0,0,0.4480000000039581
0.2073,0.9276,-0.3386,0.0414,0.1263,-0.0516,-0.4288,-0.2362,-3.99,0,0,0,0.4480000000039581
0.2077,0.9308,-0.3371,0.0443,0.1277,-0.0489,-0.385,-0.7,-4.725,0,0,0,0.46300000000337604
0.2078,0.9298,-0.3348,0.0443,0.1277,-0.0489,-0.385,-0.7,-4.725,0,0,0,0.46300000000337604
0.2065,0.9292,-0.3354,0.0443,0.1277,-0.0489,-0.0263,-0.5425,-4.6638,0,0,0,0.4790000000066357
0.2015,0.9256,-0.3362,0.0441,0.1255,-0.0435,-0.3237,-0.5425,-4.6725,0,0,0,0.4790000000066357
0.2015,0.9256,-0.3362,0.0441,0.1255,-0.0435,-0.6388,-0.6475,-5.0487,0,0,0,0.4950000000098953
0.2,0.9296,-0.3346,0.0426,0.127,-0.0502,-0.6388,-0.6475,-5.0487,0,0,0,0.4950000000098953
0.2014,0.9259,-0.3348,0.0426,0.127,-0.0502,-0.6388,-0.5163,-4.9525,0,0,0,0.5100000000020373
0.2018,0.9243,-0.3378,0.0426,0.127,-0.0502,-0.7175,-0.4638,-4.935,0,0,0,0.5100000000020373
0.2016,0.9251,-0.3357,0.0443,0.1266,-0.0401,-0.5075,-0.56,-4.8212,0,0,0,0.5260000000052969
0.2016,0.9251,-0.3335,0.0443,0.1266,-0.0401,-0.5075,-0.56,-4.8212,0,0,0,0.5260000000052969
0.2056,0.9265,-0.3335,0.0434,0.1276,-0.0498,0.28,-0.8313,-4.9088,0,0,0,0.5410000000047148
0.2059,0.9279,-0.335,0.0434,0.1276,-0.0498,0.28,-0.2362,-4.8125,0,0,0,0.5410000000047148
0.2092,0.9285,-0.3343,0.0434,0.1276,-0.0498,0.0175,-0.3237,-4.7075,0,0,0,0.559000000001106
0.2087,0.9285,-0.3332,0.0429,0.1265,-0.0415,0.0175,-0.3237,-4.7075,0,0,0,0.559000000001106
0.2091,0.9288,-0.3316,0.0429,0.1265,-0.0415,0.0088,0.1138,-4.55,0,0,0,0.5750000000043656
0.2091,0.9288,-0.3316,0.0435,0.1258,-0.05,0.035,0.3063,-4.0512,0,0,0,0.5750000000043656
0.2084,0.9293,-0.3349,0.0435,0.1258,-0.05,0.035,0.315,-4.1737,0,0,0,0.5900000000037835
0.2062,0.9293,-0.3344,0.0435,0.1258,-0.05,-0.4375,0.315,-4.1737,0,0,0,0.5900000000037835
0.2061,0.9339,-0.3343,0.0438,0.1284,-0.0472,-0.7875,-0.2013,-4.7075,0,0,0,0.5900000000037835
0.2059,0.9323,-0.3325,0.0438,0.1284,-0.0472,-0.2013,0.105,-4.8125,0,0,0,0.6060000000070431
0.2059,0.9323,-0.3325,0.0438,0.1256,-0.0557,-0.2013,0.105,-4.8125,0,0,0,0.6209999999991851
0.2052,0.9324,-0.3355,0.0438,0.1256,-0.0557,-0.1663,0.0,-5.2413,0,0,0,0.6209999999991851
0.207,0.9318,-0.3356,0.0438,0.1252,-0.0514,-1.085,-0.315,-5.6175,0,0,0,0.6370000000024447
0.2067,0.9319,-0.3356,0.0439,0.1252,-0.0514,-0.8313,-0.6825,-5.8012,0,0,0,0.6370000000024447
0.2114,0.9314,-0.333,0.0439,0.1252,-0.0514,-0.8313,-0.6825,-5.8012,0,0,0,0.6530000000057044
0.2091,0.9294,-0.3359,0.0428,0.1262,-0.0555,-1.0325,-1.0325,-5.88,0,0,0,0.6530000000057044
0.2091,0.9294,-0.3359,0.0428,0.1262,-0.0555,-1.2163,-0.56,-5.9237,0,0,0,0.6680000000051223
0.2079,0.93,-0.3281,0.0438,0.1239,-0.0507,-0.9975,-0.2013,-5.95,0,0,0,0.6680000000051223
0.2025,0.9295,-0.3303,0.0438,0.1239,-0.0507,-0.9975,-0.2013,-5.95,0,0,0,0.6840000000083819
0.1985,0.9299,-0.3344,0.0438,0.1239,-0.0507,-1.2337,-0.49,-6.055,0,0,0,0.6840000000083819
0.197,0.9316,-0.3357,0.0424,0.1265,-0.0655,-0.945,-0.2975,-5.775,0,0,0,0.6990000000005239
0.197,0.9316,-0.3357,0.0424,0.1265,-0.0655,-0.9887,-0.8575,-5.705,0,0,0,0.6990000000005239
0.1998,0.9332,-0.331,0.0436,0.1262,-0.0501,-0.9887,-0.8575,-5.705,0,0,0,0.7150000000037835
0.2048,0.9332,-0.3306,0.0436,0.1262,-0.0501,-1.3737,-1.2337,-5.6175,0,0,0,0.7150000000037835
0.2044,0.9324,-0.3306,0.0436,0.1262,-0.0501,-1.8725,-1.3825,-5.7137,0,0,0,0.7310000000070431
0.208,0.9313,-0.3326,0.0465,0.1262,-0.0461,-1.0063,-1.3388,-6.1075,0,0,0,0.7310000000070431
0.2115,0.9346,-0.3256,0.0465,0.1262,-0.0461,-1.0063,-1.3388,-6.1075,0,0,0,0.746000000006461
0.2115,0.9346,-0.3256,0.0455,0.1262,-0.0486,-1.0588,-0.8838,-5.495,0,0,0,0.746000000006461
0.2128,0.9312,-0.3276,0.0455,0.1262,-0.0486,-1.6275,-0.5163,-5.1712,0,0,0,0.7620000000097207
0.2111,0.9286,-0.3289,0.0455,0.1262,-0.0486,-1.6275,-0.5163,-5.005,0,0,0,0.7620000000097207
0.2074,0.9289,-0.3284,0.0439,0.1265,-0.0562,-2.2225,-0.0175,-5.005,0,0,0,0.7770000000018626
0.2091,0.9272,-0.332,0.0439,0.1265,-0.0562,-1.96,0.6737,-5.145,0,0,0,0.7770000000018626
0.2091,0.9272,-0.332,0.0441,0.127,-0.0563,-2.0387,0.805,-5.18,0,0,0,0.7930000000051223
0.2124,0.927,-0.3298,0.0441,0.127,-0.0563,-2.0387,0.805,-5.18,-11.819893307369236,2.9823348137835053,0.0,0.7930000000051223
0.2122,0.9272,-0.3292,0.0441,0.127,-0.0462,-1.2775,0.7788,-5.6,-15.159602454607121,6.902688065796542,0.0124608000025386,0.8090000000083819
0.2081,0.9274,-0.3337,0.0446,0.1254,-0.0462,-1.1812,0.9887,-5.635,-17.008704129705126,9.100984635370402,0.0124608000025386,0.8090000000083819
0.2094,0.9287,-0.332,0.0446,0.1254,-0.0462,-0.805,1.4262,-6.02,-17.605145603598093,10.653409363307944,0.03385379999133147,0.8240000000005239
0.2065,0.929,-0.3268,0.0453,0.1258,-0.0494,-0.805,1.4262,-6.02,-18.00285641382448,11.293097573563298,0.03385379999133147,0.8240000000005239
0.2065,0.929,-0.3268,0.0453,0.1258,-0.0494,-0.49,1.855,-5.81,-18.038220139199346,11.56139229969735,0.06353379999737808,0.8400000000037835
0.2057,0.9307,-0.3304,0.0447,0.1267,-0.0422,-0.28,2.0912,-6.3963,-18.326250011578733,11.685117745352073,0.06353379999737808,0.8400000000037835
0.2056,0.9323,-0.332,0.0447,0.1267,-0.0422,-0.035,1.9688,-6.4225,-18.74054427178705,11.716336953398594,0.0930657999962321,0.8550000000032014
0.2097,0.937,-0.329,0.0447,0.1267,-0.0422,-0.035,1.9688,-6.4225,-18.93767719333045,11.842772995933426,0.0930657999962321,0.8550000000032014
0.2142,0.9362,-0.3245,0.0447,0.1254,-0.0476,0.245,2.5025,-5.9763,-19.015203122523438,12.030720532733486,0.13310580000438932,0.871000000006461
0.2142,0.9362,-0.3245,0.0447,0.1254,-0.0476,-0.0613,2.975,-5.8975,-19.04704826755515,12.11630142232993,0.13310580000438932,0.871000000006461
0.2148,0.9354,-0.3253,0.0428,0.1256,-0.0446,-0.1663,3.3163,-6.3875,-19.080462370759253,12.18963275676144,0.18616659999106996,0.8870000000024447
0.2145,0.9342,-0.3228,0.0428,0.1256,-0.0446,-0.1663,3.3163,-6.3875,-19.075646500090045,12.222735112118567,0.18616659999106996,0.8870000000024447
0.213,0.9326,-0.3261,0.0428,0.1256,-0.0446,0.2275,4.1213,-6.4488,-19.159861484306703,12.188118734261828,0.24798609998867105,0.9020000000018626
0.2071,0.931,-0.3246,0.0447,0.1259,-0.0464,-0.1225,4.2525,-6.755,-19.177273780559386,11.974760723711073,0.24798609998867105,0.9020000000018626
0.1915,0.9287,-0.3245,0.0447,0.1259,-0.0464,-0.1225,4.9175,-7.0525,-19.200673285424575,11.315586969359677,0.3266661000047003,0.9180000000051223
0.1999,0.9287,-0.3245,0.0446,0.1274,-0.0497,-0.5775,4.9175,-7.0525,-19.204097414023597,11.432770028929948,0.40042860000183794,0.9330000000045402
0.1947,0.927,-0.3239,0.0446,0.1274,-0.0497,-0.2625,5.0575,-6.9738,-19.215365645542786,11.284844654320949,0.40042860000183794,0.9330000000045402
0.1931,0.9277,-0.3264,0.0446,0.1274,-0.0497,-0.1575,4.165,-7.1925,-19.25984662007239,11.161516170898592,0.4670686000154143,0.9490000000077998
0.1956,0.9313,-0.3249,0.0453,0.1284,-0.0446,-0.1575,4.165,-7.1925,-19.252546499387233,11.200135156053927,0.4670686000154143,0.9490000000077998
0.1986,0.9332,-0.3228,0.0453,0.1284,-0.0446,0.0875,3.6225,-7.2362,-19.18789886360645,11.321033339125503,0.5250286000008652,0.9650000000037835
0.1986,0.9332,-0.3228,0.0437,0.1268,-0.0447,0.1838,3.5612,-6.965,-19.143809897945072,11.355487347081297,0.5250286000008652,0.9650000000037835
0.1989,0.9342,-0.3203,0.0437,0.1268,-0.0447,0.5337,3.2812,-6.7987,-19.031632478729613,11.376341792980643,0.5742465999989552,0.9800000000032014
0.2052,0.9334,-0.3233,0.0437,0.1268,-0.0447,0.5337,3.2812,-6.7987,-19.068932272874097,11.613350279252852,0.5742465999989552,0.9800000000032014
0.2097,0.9332,-0.3269,0.0438,0.1265,-0.0486,0.595,3.605,-6.58,-19.19338015420898,11.841365141862992,0.6319266000107062,0.996000000006461
0.2039,0.931,-0.3243,0.0438,0.1265,-0.0486,0.3325,3.9813,-6.3525,-19.198725097151947,11.747834345159827,0.6319266000107062,0.996000000006461
0.2039,0.9279,-0.3235,0.0443,0.1254,-0.054,0.245,3.7887,-6.5625,-19.208107097307444,11.73169279656049,0.6887571000085009,1.011000000005879
0.2042,0.9279,-0.3235,0.0443,0.1254,-0.054,0.245,3.7887,-6.5625,-19.213433714641766,11.736302686548754,0.6887571000085009,1.011000000005879
0.2039,0.9282,-0.3234,0.045,0.1278,-0.0533,1.4262,4.2525,-6.72,-19.210618321569818,11.725256890801367,0.7567971000223624,1.0270000000091386
0.2026,0.9311,-0.3265,0.045,0.1278,-0.0533,1.4088,4.27,-6.6062,-19.28507679286431,11.647755332254246,0.7567971000223624,1.0270000000091386
0.2006,0.9349,-0.3241,0.045,0.1278,-0.0533,1.295,4.2962,-6.8513,-19.1785888008095,11.522918734076796,0.8255363000051075,1.0430000000051223
0.1952,0.9346,-0.3209,0.0448,0.1268,-0.0498,1.295,4.2962,-6.8513,-19.0314306256215,11.290690306474566,0.8255363000051075,1.0430000000051223
0.1952,0.9346,-0.3209,0.0448,0.1268,-0.0498,1.1463,4.1388,-6.2475,-18.980700053096058,11.22297245300429,0.8876183000026984,1.0580000000045402
0.194,0.933,-0.3237,0.0449,0.1265,-0.053,1.3388,4.0687,-5.88,-19.08029365707749,11.167784941265232,0.8876183000026984,1.0580000000045402
0.1957,0.9318,-0.3278,0.0449,0.1265,-0.053,0.8662,3.1675,-5.46,-19.255063790375775,11.182331928987521,0.9382983000130233,1.0740000000077998
0.1957,0.9331,-0.3265,0.0449,0.1265,-0.053,0.8662,3.1675,-5.46,-19.272665188727146,11.188086153111346,0.9382983000130233,1.0740000000077998
0.1979,0.9342,-0.3283,0.0426,0.1274,-0.0601,1.4088,2.1,-5.6262,-19.33190901878588,11.237683017749784,0.9697983000118009,1.0890000000072177
0.1979,0.9357,-0.3243,0.0426,0.1274,-0.0601,1.4262,1.3913,-4.795,-19.189092284772574,11.24131071912731,0.9697983000118009,1.0890000000072177
0.1972,0.9357,-0.3243,0.045,0.1282,-0.055,1.4262,1.3913,-4.8913,-19.140557145604415,11.242020568912107,0.992059100006213,1.1050000000032014
0.2003,0.9344,-0.3276,0.045,0.1282,-0.055,1.2687,1.4262,-4.8913,-19.255973744733144,11.248670182979723,0.992059100006213,1.1050000000032014
0.2011,0.9323,-0.3276,0.045,0.1282,-0.055,1.365,0.805,-4.865,-19.32449480747057,11.250985962196937,1.00493910000298,1.120999999999185
0.2005,0.9309,-0.3276,0.0434,0.128,-0.0458,1.295,0.14,-4.445,-19.36532253956403,11.31896031387353,1.00493910000298,1.120999999999185
0.1981,0.929,-0.3314,0.0434,0.128,-0.0458,1.295,0.14,-4.445,-19.53760848737476,11.329860553691514,1.0070391000039172,1.136000000005879
0.1981,0.929,-0.3314,0.0442,0.1298,-0.0543,1.26,-0.245,-4.1038,-19.598464412483057,11.341249518841185,1.0070391000039172,1.136000000005879
0.2022,0.9299,-0.3305,0.0442,0.1298,-0.0543,1.0063,-0.5863,-3.745,-19.578841291946716,11.466315083361987,0.997658300006272,1.1520000000018626
0.2009,0.9301,-0.3294,0.0442,0.1298,-0.0543,1.1812,-0.7525,-4.025,-19.53040909883311,11.485452772711575,0.997658300006272,1.1520000000018626
0.2048,0.9314,-0.3307,0.0427,0.1278,-0.0513,1.1812,-0.7525,-4.025,-19.54132644755147,11.585817593414545,0.98637080000671,1.1670000000012806
0.2025,0.9348,-0.3317,0.0427,0.1278,-0.0513,1.0675,-1.0938,-3.1063,-19.53835526489746,11.555723932337735,0.98637080000671,1.1670000000012806
0.2025,0.9348,-0.3302,0.0429,0.1278,-0.0613,0.6737,-2.1437,-3.15,-19.49294217361421,11.54845431887613,0.9520715999997222,1.1830000000045402
0.2064,0.9359,-0.3302,0.0429,0.1278,-0.0613,0.1312,-2.24,-3.185,-19.469630389056704,11.67356114367488,0.9520715999997222,1.1830000000045402
0.209,0.9345,-0.329,0.0424,0.1271,-0.0538,0.1312,-2.24,-3.185,-19.440346488146847,11.822907057457623,0.9162316000087188,1.1990000000005239
0.2098,0.9328,-0.3317,0.0424,0.1271,-0.0538,-0.6737,-2.45,-3.115,-19.458679562983743,11.913038415981786,0.9162316000087188,1.1990000000005239
0.209,0.934,-0.3332,0.0424,0.1271,-0.0538,-0.4375,-1.9162,-3.2287,-19.471463951922495,11.905842342624975,0.887488599995892,1.2140000000072177
0.2114,0.9327,-0.3318,0.0427,0.1272,-0.0523,-0.9538,-1.8288,-3.7625,-19.50527899509924,11.983285910637756,0.887488599995892,1.2140000000072177
0.2114,0.9327,-0.3318,0.0427,0.1272,-0.0523,-0.9538,-1.8288,-3.7625,-19.52880320707688,12.020281711068737,0.8582278000032371,1.2300000000032014
0.2128,0.9301,-0.3292,0.0414,0.1287,-0.0562,-0.7788,-2.17,-3.4825,-19.520929668796597,12.107607874048464,0.8582278000032371,1.2300000000032014
0.2123,0.9307,-0.327,0.0414,0.1287,-0.0562,-0.77,-2.2225,-4.0775,-19.488134703115737,12.12416076134434,0.8248903000045307,1.2450000000026193
0.2095,0.9317,-0.3333,0.0414,0.1287,-0.0562,-1.05,-1.7062,-4.2525,-19.55622438821482,12.06014774804875,0.8248903000045307,1.2450000000026193
0.2112,0.9308,-0.3305,0.0406,0.1282,-0.0609,-1.05,-1.7062,-4.2525,-19.55352621538066,12.063625771712449,0.797591099998969,1.261000000005879
0.2112,0.9308,-0.331,0.0406,0.1282,-0.0609,-1.5838,-1.82,-4.8825,-19.565025147728285,12.063724036334136,0.797591099998969,1.261000000005879
0.2112,0.9282,-0.331,0.0418,0.1283,-0.0548,-1.1725,-1.8463,-5.075,-19.589359971478295,12.06961962759385,0.7680503000063844,1.2770000000018626
0.2094,0.9292,-0.3304,0.0418,0.1283,-0.0548,-1.1725,-1.8463,-5.075,-19.58331368842338,12.054886238266624,0.7403557999940255,1.2920000000085565
0.2083,0.9326,-0.3286,0.0418,0.1283,-0.0548,-1.1638,-1.61,-4.9875,-19.51513050662829,12.036395369377917,0.7403557999940255,1.2920000000085565
0.212,0.9307,-0.3249,0.0442,0.1267,-0.0544,-0.945,-2.0038,-5.39,-19.43368703344346,12.071446506741697,0.7082950000020733,1.3080000000045402
0.2119,0.9311,-0.3286,0.0442,0.1267,-0.0544,-0.9625,-1.9688,-5.7575,-19.435248188456924,12.090862260074122,0.7082950000020733,1.3080000000045402
0.2119,0.9311,-0.3286,0.0434,0.1274,-0.0568,-0.9625,-1.9688,-5.7575,-19.436327708186433,12.101071980219496,0.6787630000032193,1.3230000000039581
0.2142,0.9296,-0.3323,0.0434,0.1274,-0.0568,-0.7,-1.33,-5.7225,-19.472618770687518,12.166516422845566,0.6787630000032193,1.3230000000039581
0.2133,0.9267,-0.3269,0.0434,0.1274,-0.0568,-0.7788,-1.2163,-6.5275,-19.46389486459987,12.216726620209492,0.6593021999992547,1.3390000000072177
0.2123,0.9261,-0.3246,0.0421,0.1258,-0.0513,-0.4988,-0.6562,-6.6588,-19.461339407022994,12.210523251633889,0.6593021999992547,1.3390000000072177
0.2101,0.9254,-0.3288,0.0421,0.1258,-0.0513,-0.4988,-0.6562,-6.6588,-19.463047638645886,12.123678447148711,0.6488030000018902,1.3550000000032014
0.2101,0.9254,-0.3303,0.0427,0.1282,-0.0514,-0.805,-0.4812,-6.2213,-19.50332108662859,12.092408543722852,0.6488030000018902,1.3550000000032014
0.2094,0.9246,-0.3303,0.0427,0.1282,-0.0514,-0.4462,-0.1838,-6.6062,-19.513494627065153,12.058693256354065,0.6460460000006598,1.3700000000098953
0.2112,0.9297,-0.3288,0.043,0.1276,-0.0553,-0.3588,-0.42,-6.3263,-19.508497164314367,12.076406953909558,0.6460460000006598,1.3700000000098953
0.2123,0.9294,-0.3279,0.043,0.1276,-0.0553,-0.3588,-0.42,-6.3263,-19.498257667621832,12.124090170462098,0.6393260000023466,1.386000000005879
0.2119,0.9276,-0.3306,0.043,0.1276,-0.0553,-0.455,-0.525,-6.5363,-19.50507742044872,12.13643863130338,0.6393260000023466,1.386000000005879
0.2142,0.9321,-0.3285,0.0426,0.1271,-0.0562,-0.6825,-0.6125,-6.2475,-19.49209855135644,12.190294706341517,0.6301385000027031,1.401000000005297
0.2142,0.9321,-0.3285,0.0426,0.1271,-0.0562,-0.3938,0.0,-6.0988,-19.483571404709465,12.211740001169423,0.6301385000027031,1.401000000005297
0.2161,0.9314,-0.3238,0.0416,0.1259,-0.0552,-0.3938,0.0,-6.0988,-19.449333770802085,12.294453366511991,0.6301385000027031,1.4170000000012806
0.2131,0.9312,-0.3252,0.0416,0.1259,-0.0552,-0.7088,0.7262,-6.0113,-19.41725429965324,12.23915938200776,0.6301385000027031,1.4170000000012806
0.2097,0.9268,-0.3272,0.0416,0.1259,-0.0552,-0.6037,1.2075,-5.8538,-19.419500116706903,12.14159913097767,0.6494585000066391,1.4330000000045402
0.2119,0.9288,-0.3257,0.044,0.1274,-0.0562,-0.6037,1.5575,-5.8975,-19.411836727051853,12.145780742766878,0.6494585000066391,1.4330000000045402
0.2119,0.9288,-0.3316,0.044,0.1274,-0.0562,-1.2163,1.5575,-5.8975,-19.50890038787022,12.135824718157705,0.6728210000057325,1.4480000000039581
0.2076,0.9264,-0.3316,0.0432,0.1279,-0.0543,-0.9625,0.9013,-5.705,-19.56617877971192,12.033859728016274,0.6728210000057325,1.4480000000039581
0.2094,0.9269,-0.3298,0.0432,0.1279,-0.0543,-0.5775,0.8662,-5.495,-19.56732408315219,12.026773194927781,0.6866802000022536,1.4639999999999418
0.2073,0.9277,-0.3307,0.0432,0.1279,-0.0543,-0.5775,0.8662,-5.495,-19.570347148016584,11.971975853452975,0.6866802000022536,1.4639999999999418
0.2064,0.9246,-0.3328,0.0419,0.1267,-0.0428,-0.3675,0.7613,-5.6525,-19.59955715035137,11.92319673895641,0.6980997000073497,1.4790000000066357
0.2081,0.9279,-0.33,0.0419,0.1267,-0.0428,0.0263,0.4988,-5.3637,-19.591802201163883,11.925943399710984,0.6980997000073497,1.4790000000066357
0.2081,0.9279,-0.33,0.0434,0.1269,-0.0536,0.1138,0.5425,-5.3812,-19.586277889599245,11.927806067172623,0.7067797000051708,1.4950000000026193
0.2116,0.9318,-0.3328,0.0434,0.1269,-0.0536,0.1138,0.5425,-5.3812,-19.61268947198577,11.977212771047032,0.7067797000051708,1.4950000000026193
0.211,0.9337,-0.3297,0.0434,0.1269,-0.0536,-0.0875,0.0525,-5.2325,-19.563471077345607,11.991419529050129,0.7076197000053419,1.511000000005879
0.2146,0.936,-0.3258,0.0434,0.1274,-0.0614,-0.1225,0.0613,-5.5213,-19.458459889531603,12.081840271163232,0.7076197000053419,1.511000000005879
0.2136,0.9373,-0.3254,0.0434,0.1274,-0.0614,-0.4462,0.49,-5.7663,-19.437935917661715,12.114053763051787,0.7149697000050567,1.526000000005297
0.2136,0.9373,-0.3271,0.045,0.1279,-0.0559,-0.4462,0.49,-5.7663,-19.424832523091723,12.12775243995114,0.7149697000050567,1.526000000005297
0.2118,0.9333,-0.3271,0.045,0.1279,-0.0559,-1.26,0.5337,-5.845,-19.37772534742395,12.108034618475184,0.7235089000029131,1.5420000000012806
0.2068,0.9332,-0.3273,0.045,0.1285,-0.06,-1.0325,0.6388,-6.3612,-19.36053535793013,11.929660721761564,0.7235089000029131,1.5420000000012806
0.2027,0.9306,-0.3257,0.0428,0.1285,-0.06,-1.1025,0.5512,-6.86,-19.334283727244202,11.721398609009595,0.7328793000068273,1.559000000008382
0.1993,0.9293,-0.3244,0.0428,0.1285,-0.06,-1.1025,0.5512,-6.86,-19.300576398708696,11.538010769633715,0.7328793000068273,1.559000000008382
0.1965,0.9302,-0.3256,0.0438,0.1278,-0.06,-0.6388,-0.0613,-6.8863,-19.299607178368994,11.36242500816369,0.7318985000070736,1.5750000000043656
0.1965,0.9302,-0.3256,0.0438,0.1278,-0.06,-1.0675,-0.105,-7.175,-19.29679489891297,11.302003413328528,0.7318985000070736,1.5750000000043656
0.1934,0.9295,-0.3245,0.0434,0.1269,-0.0583,-1.1287,-0.6562,-6.86,-19.277020884350875,11.176428229451135,0.7213993000097091,1.5910000000003492
0.2014,0.9317,-0.3201,0.0434,0.1269,-0.0583,-1.1287,-0.6562,-6.86,-19.15698209033663,11.428355564053522,0.7213993000097091,1.5910000000003492
0.2033,0.9309,-0.3246,0.0434,0.1269,-0.0583,-0.9975,-1.1375,-6.6238,-19.178557561289328,11.571107155032834,0.7043368000020948,1.6060000000070431
0.2032,0.9296,-0.3206,0.0433,0.1275,-0.0611,-0.7875,-1.645,-7.0175,-19.1464979436623,11.642495028719496,0.7043368000020948,1.6060000000070431
0.2032,0.9296,-0.3206,0.0433,0.1275,-0.0611,-0.7875,-1.645,-6.6238,-19.121277127014924,11.663588399364983,0.6780168000087016,1.6220000000030268
0.2086,0.9315,-0.3223,0.0442,0.1273,-0.0553,-1.2163,-1.435,-6.6238,-19.106617962326673,11.846016746386542,0.6780168000087016,1.6220000000030268
0.2043,0.9309,-0.323,0.0442,0.1273,-0.0553,-1.1638,-1.47,-6.4138,-19.117988026546456,11.76540093069766,0.6559668000095572,1.6370000000024447
0.2008,0.9317,-0.3238,0.0442,0.1273,-0.0553,-1.6013,-1.5137,-6.6413,-19.1420452228742,11.599650381073737,0.6317476000046232,1.6530000000057044
0.1981,0.937,-0.3228,0.0459,0.1289,-0.0583,-1.6013,-1.5137,-6.6413,-19.072822883183527,11.410062819158323,0.6317476000046232,1.6530000000057044
0.1965,0.9357,-0.3263,0.0459,0.1289,-0.0583,-1.5137,-1.9162,-6.72,-19.148727015073323,11.283631565737721,0.6010884000123192,1.669000000001688
0.1965,0.9357,-0.3263,0.0442,0.1282,-0.0546,-0.9275,-2.1875,-6.5712,-19.17090117276391,11.240787121861347,0.6010884000123192,1.669000000001688
0.1982,0.9321,-0.3279,0.0442,0.1282,-0.0546,-0.9975,-3.0013,-6.65,-19.23920840887793,11.305995371958527,0.5560688999922289,1.684000000008382
0.2033,0.9359,-0.3273,0.0442,0.1282,-0.0546,-0.9975,-3.0013,-6.65,-19.251027734627968,11.486883312859826,0.5560688999922289,1.684000000008382
0.2066,0.9406,-0.3241,0.0451,0.1286,-0.0522,-1.0237,-3.2987,-6.4575,-19.17066709381826,11.637530543368227,0.5032897000054776,1.7000000000043656
0.2121,0.9389,-0.3201,0.0451,0.1286,-0.0522,-1.3825,-2.3537,-5.9412,-19.010613808712293,11.862161026559948,0.5032897000054776,1.7000000000043656
0.2121,0.9389,-0.3201,0.0447,0.129,-0.0536,-1.54,-2.555,-5.25,-18.91714094895722,11.920676090636906,0.46496470000696477,1.7150000000037835
0.206,0.9329,-0.3225,0.0447,0.129,-0.0536,-1.54,-2.555,-5.25,-18.994501396295576,11.883256495596664,0.46496470000696477,1.7150000000037835
0.2028,0.9279,-0.3234,0.0447,0.1274,-0.0593,-1.9162,-2.6075,-5.5563,-19.123075942212814,11.7917473856229,0.42324470001743736,1.7309999999997672
0.1992,0.9263,-0.3262,0.0448,0.1274,-0.0593,-1.7325,-2.5638,-5.0138,-19.27499108191448,11.747340370699703,0.42324470001743736,1.7309999999997672
0.1984,0.9306,-0.326,0.0448,0.1274,-0.0593,-1.54,-2.5375,-4.55,-19.290652029869833,11.660473782483978,0.38264470000916606,1.7470000000030268
0.1957,0.9317,-0.3233,0.0444,0.128,-0.0585,-1.54,-2.5375,-4.55,-19.21281644816313,11.558230822185417,0.38264470000916606,1.7470000000030268
0.1957,0.9317,-0.3233,0.0444,0.128,-0.0585,-0.6212,-2.8175,-5.145,-19.205600139989567,11.483231760344205,0.34038219999030606,1.7620000000097207
0.1948,0.9374,-0.323,0.0458,0.127,-0.0487,-0.6737,-3.3163,-5.3812,-19.17933481033347,11.356559933609665,0.34038219999030606,1.7620000000097207
0.1993,0.9372,-0.3187,0.0458,0.127,-0.0487,-0.6737,-4.2525,-5.0838,-19.125160328552514,11.361526802221771,0.2723422000073855,1.7780000000057044
0.1965,0.9396,-0.3196,0.0458,0.127,-0.0487,-0.4988,-4.2525,-5.0838,-19.119303823543667,11.331393714597104,0.2723422000073855,1.7780000000057044
0.197,0.9409,-0.3202,0.0461,0.1276,-0.0443,-0.6913,-4.6638,-5.2937,-19.07087630069149,11.294827707478019,0.20238520001010019,1.7930000000051223
0.197,0.9409,-0.3202,0.0461,0.1276,-0.0443,-0.8838,-4.935,-5.2675,-18.99649671107793,11.270475251987913,0.20238520001010019,1.7930000000051223
0.2023,0.9351,-0.3173,0.0435,0.1282,-0.0527,-0.8838,-4.935,-5.2675,-18.928433202157095,11.360113713669078,0.12342520002992077,1.809000000001106
0.1994,0.9306,-0.3213,0.0435,0.1282,-0.0527,-1.0412,-5.3725,-4.8738,-18.96952042136196,11.361697258999587,0.12342520002992077,1.809000000001106
0.192,0.9304,-0.3226,0.0435,0.1282,-0.0527,-1.0588,-5.3725,-4.8387,-19.02353117748488,11.356166044026805,0.037465200012408426,1.8250000000043656
0.1871,0.9318,-0.3232,0.0447,0.1276,-0.049,-1.4262,-6.09,-5.04,-19.073960879529388,11.260595694753418,0.037465200012408426,1.8250000000043656
0.1884,0.9344,-0.3232,0.0447,0.1276,-0.049,-1.4262,-6.09,-5.04,-19.076843744888862,11.187145165458269,-0.05388480002835731,1.8400000000110595
0.1884,0.9344,-0.3232,0.0462,0.1278,-0.0538,-1.05,-6.4488,-4.8562,-19.077946261618724,11.186988510655379,-0.05388480002835731,1.8400000000110595
0.1889,0.9356,-0.3236,0.0462,0.1278,-0.0538,-1.12,-6.93,-4.935,-19.078413698132916,11.158798965811675,-0.16476479995010176,1.8559999999997672
0.1916,0.9408,-0.3171,0.0462,0.1278,-0.0538,-1.3038,-7.4725,-4.6725,-18.87935700098873,11.122297035498809,-0.16476479995010176,1.8559999999997672
0.1939,0.9409,-0.3213,0.0464,0.1276,-0.0584,-1.3038,-7.4725,-4.6725,-18.868225663646655,11.108839535853472,-0.2768523000001218,1.871000000006461
0.1925,0.9419,-0.3251,0.0464,0.1276,-0.0584,-1.5488,-8.1462,-4.1912,-18.95664715904405,11.039149191726192,-0.2768523000001218,1.871000000006461
0.1925,0.9419,-0.3251,0.0459,0.1275,-0.0478,-2.31,-8.5925,-4.2438,-19.011633167680873,10.999338734635874,-0.4143322999656115,1.8870000000024447
0.1936,0.941,-0.3234,0.0459,0.1275,-0.0478,-3.1937,-9.6862,-4.1825,-18.97889268838203,11.003787260213416,-0.4143322999656115,1.8870000000024447
0.1992,0.9399,-0.3228,0.0459,0.1267,-0.0491,-3.1937,-9.6862,-4.1825,-18.961178477013696,11.136848035138195,-0.5693114999971849,1.9030000000057044
0.1987,0.9379,-0.3224,0.0453,0.1267,-0.0491,-2.9662,-10.5087,-3.8937,-18.967611287730136,11.231169020492299,-0.5693114999971849,1.9030000000057044
0.1998,0.9329,-0.3222,0.0453,0.1267,-0.0491,-3.1063,-10.7975,-3.99,-19.02965765918556,11.329995627458294,-0.7312739999908999,1.9180000000051223
0.1942,0.9293,-0.3249,0.0449,0.128,-0.0552,-2.5812,-10.7625,-3.99,-19.191948440448826,11.250749718817183,-0.7312739999908999,1.9180000000051223
0.1942,0.9293,-0.3249,0.0449,0.128,-0.0552,-2.5812,-10.7625,-3.99,-19.244900594909296,11.208276993266729,-0.9034739999476742,1.934000000001106
0.1904,0.9282,-0.3253,0.0461,0.1256,-0.0414,-2.3363,-11.235,-4.0862,-19.289295642139972,11.098573617560255,-0.9034739999476742,1.934000000001106
0.191,0.9321,-0.3248,0.0461,0.1256,-0.0414,-2.31,-11.8912,-3.885,-19.239299767775822,11.0261306441168,-1.0818420000272724,1.9490000000077998
0.1959,0.9325,-0.3232,0.0461,0.1256,-0.0414,-2.31,-11.795,-3.5525,-19.160180234192342,11.13981874674172,-1.0818420000272724,1.9490000000077998
0.2036,0.9351,-0.3247,0.0471,0.1274,-0.049,-2.2575,-11.795,-3.5525,-19.15296492724254,11.413059017855137,-1.2705619999798998,1.9650000000037835
0.2036,0.9351,-0.3263,0.0471,0.1274,-0.049,-2.0912,-11.6025,-3.4125,-19.203911664744307,11.533356866323691,-1.2705619999798998,1.9650000000037835
0.2187,0.937,-0.3263,0.0462,0.1273,-0.048,-1.8112,-11.7775,-3.4125,-19.201768451010793,12.06328838527346,-1.4590020000182902,1.9810000000070431
0.2264,0.9338,-0.3214,0.0462,0.1273,-0.048,-1.8112,-11.7775,-3.4125,-19.08380146940797,12.56464521809102,-1.4590020000182902,1.9810000000070431
0.2291,0.9296,-0.3272,0.0462,0.1273,-0.048,-2.24,-9.7388,-3.2987,-19.2782208643186,12.882791056565313,-1.6050839999417623,1.995999999999185
0.224,0.9293,-0.3257,0.0478,0.1268,-0.0512,-1.8988,-7.7,-3.57,-19.29926354988545,12.844823795899778,-1.6050839999417623,1.995999999999185
0.2189,0.9229,-0.3234,0.0478,0.1268,-0.0512,-2.0738,-6.195,-3.7975,-19.306615947979264,12.727794083100076,-1.7042039999619558,2.0120000000024447
0.2189,0.9229,-0.3234,0.0452,0.1251,-0.0464,-2.0738,-6.195,-3.7975,-19.309490834279913,12.670936815063914,-1.7042039999619558,2.0120000000024447
0.2165,0.9203,-0.3281,0.0452,0.1251,-0.0464,-1.9075,-5.0925,-3.7713,-19.491231757915305,12.578980954254666,-1.7805914999960444,2.0270000000091386
0.2122,0.9237,-0.33,0.0452,0.1251,-0.0464,-0.9712,-3.815,-4.3225,-19.54390850035261,12.449624186180287,-1.8416314999807222,2.0430000000051223
0.2097,0.9266,-0.3308,0.045,0.1257,-0.0566,-0.5425,-2.7213,-4.83,-19.546530540911633,12.439111882197041,-1.8416314999807222,2.0430000000051223
0.206,0.9287,-0.3299,0.045,0.1257,-0.0566,-0.5425,-2.7213,-4.83,-19.546783378240658,12.423183117933796,-1.8851722999895926,2.059000000008382
0.206,0.9287,-0.3356,0.045,0.1282,-0.047,0.1575,-2.31,-5.74,-19.67613646395032,12.123053252896787,-1.8897922999737262,2.0610000000015134
0.2062,0.9323,-0.3356,0.045,0.1282,-0.047,0.6125,-2.1613,-5.9588,-19.740412892264317,11.930300798810842,-1.8897922999737262,2.0610000000015134
0.2065,0.9371,-0.3285,0.045,0.1245,-0.0393,0.0787,-1.82,-5.8625,-19.58286322645773,11.838563537556285,-1.917092299985909,2.0760000000082073
0.205,0.9338,-0.3318,0.0469,0.1245,-0.0393,0.0787,-1.82,-5.8625,-19.57480483464005,11.76277969384505,-1.917092299985909,2.0760000000082073
0.2027,0.9346,-0.3331,0.0469,0.1245,-0.0393,-0.0787,-1.1988,-5.9675,-19.58750759786267,11.648885039274886,-1.9362730999810942,2.092000000004191
0.202,0.936,-0.3284,0.0465,0.1257,-0.0422,-0.2537,-0.21,-5.4687,-19.534704859671315,11.59626678699374,-1.9362730999810942,2.092000000004191
0.202,0.936,-0.3284,0.0465,0.1257,-0.0422,-0.3762,-0.525,-4.8562,-19.509993155359254,11.596233060308164,-1.9441480999807885,2.107000000003609
0.2023,0.9356,-0.3307,0.0458,0.1258,-0.0462,-0.3762,-0.525,-4.8562,-19.50466159561537,11.596204165424187,-1.95254809997868,2.1229999999995925
0.1994,0.9381,-0.331,0.0458,0.1258,-0.0462,-0.455,-0.385,-5.005,-19.50063087970246,11.562227308170874,-1.95254809997868,2.1229999999995925
0.1959,0.938,-0.328,0.0458,0.1258,-0.0462,-0.7262,-0.4988,-4.8913,-19.46127173715917,11.548181850872929,-1.9605288999803059,2.139000000002852
0.1943,0.9357,-0.3289,0.0452,0.126,-0.0498,-0.7262,-0.4988,-4.7688,-19.444859705793075,11.511027429351786,-1.9605288999803059,2.139000000002852
0.1943,0.9357,-0.3289,0.0452,0.126,-0.0498,-1.3125,-0.9013,-4.7688,-19.41019453846454,11.476846948893849,-1.9740483999863392,2.154000000009546
0.1943,0.9367,-0.3348,0.0458,0.126,-0.0478,-1.295,-1.3212,-4.7075,-19.523126077364704,11.422019889227215,-1.9740483999863392,2.154000000009546
0.1955,0.9359,-0.3284,0.0458,0.126,-0.0478,-1.365,-2.1437,-4.97,-19.437026955347953,11.394191117383084,-2.0083475999777294,2.1700000000055297
0.1997,0.9348,-0.3284,0.0458,0.126,-0.0478,-1.365,-2.1437,-4.97,-19.400121641829074,11.39432149145537,-2.0083475999777294,2.1700000000055297
0.1992,0.9327,-0.327,0.044,0.1275,-0.0469,-1.0325,-2.7213,-5.32,-19.372986003839515,11.394556672126816,-2.0491670999761453,2.1850000000049477
0.1988,0.9337,-0.3254,0.044,0.1275,-0.0469,-1.645,-2.7912,-5.3463,-19.288555646601722,11.38585619852441,-2.0491670999761453,2.1850000000049477
0.1988,0.9337,-0.3254,0.0463,0.1276,-0.0474,-1.785,-3.4037,-5.705,-19.246723319189602,11.377710389111716,-2.103626299962475,2.2010000000009313
0.2014,0.9324,-0.3243,0.0463,0.1276,-0.0474,-1.785,-3.4037,-5.705,-19.208456365276188,11.448054199616628,-2.103626299962475,2.2010000000009313
0.1984,0.9293,-0.3268,0.0463,0.1276,-0.0474,-1.715,-3.5875,-5.9237,-19.299177593949526,11.416645221410912,-2.161026299974169,2.217000000004191
0.1973,0.9299,-0.3282,0.0489,0.1248,-0.0398,-1.5838,-3.4738,-5.7488,-19.37190415642502,11.368317005302805,-2.161026299974169,2.217000000004191
0.1991,0.9302,-0.3239,0.0489,0.1248,-0.0398,-1.5575,-3.99,-5.9062,-19.28338081091938,11.39867615247617,-2.2208762999718465,2.232000000003609
0.1991,0.9302,-0.3239,0.0463,0.1238,-0.051,-1.5575,-3.99,-5.9062,-19.240011611242117,11.41348265404605,-2.2208762999718465,2.232000000003609
0.1947,0.9307,-0.3234,0.0463,0.1238,-0.051,-1.19,-4.0075,-6.16,-19.208344564972503,11.280231934523073,-2.2849962999849094,2.2480000000068685
0.1938,0.931,-0.3251,0.0463,0.1266,-0.0431,-1.0412,-4.0862,-6.16,-19.22230942006338,11.188640805164644,-2.2849962999849094,2.2480000000068685
0.197,0.9321,-0.3242,0.0472,0.1266,-0.0431,-0.8313,-4.4975,-6.3875,-19.21182370950104,11.249378066730424,-2.3524587999822915,2.2630000000062864
0.2034,0.9314,-0.324,0.0472,0.1266,-0.0431,-0.8313,-4.4975,-6.3875,-19.204420911220694,11.494336926333716,-2.3524587999822915,2.2630000000062864
0.2045,0.9315,-0.3263,0.0474,0.1251,-0.0434,-1.2775,-4.1912,-6.4225,-19.24793955598946,11.623360212908588,-2.4195179999654584,2.27900000000227
0.2045,0.9315,-0.3263,0.0474,0.1251,-0.0434,-1.3388,-3.9987,-6.4575,-19.273741773249476,11.674060150699809,-2.4195179999654584,2.27900000000227
0.207,0.931,-0.3231,0.0486,0.1262,-0.0442,-0.9013,-3.535,-5.9763,-19.23632731923552,11.773694721257078,-2.4760779999769813,2.2950000000055297
0.2054,0.9287,-0.3248,0.0486,0.1262,-0.0442,-0.9013,-3.535,-5.9763,-19.247515644063512,11.783499814225278,-2.4760779999769813,2.2950000000055297
0.2014,0.9295,-0.3267,0.0486,0.1262,-0.0442,-0.6475,-2.6425,-5.5825,-19.261198038992383,11.686511663331487,-2.515715499975443,2.3100000000049477
0.1995,0.9295,-0.3215,0.0455,0.1256,-0.0386,-0.1312,-2.2313,-5.6875,-19.21074016432599,11.586543195629073,-2.515715499975443,2.3100000000049477
0.1995,0.9295,-0.3215,0.0455,0.1256,-0.0386,-0.1312,-2.2313,-5.3637,-19.174312247016083,11.546057492029403,-2.5514162999664816,2.3260000000009313
0.198,0.9324,-0.3244,0.0468,0.1265,-0.0459,-0.1488,-2.2138,-5.3637,-19.176855377346065,11.476971464601187,-2.5514162999664816,2.3260000000009313
0.194,0.9298,-0.3271,0.0468,0.1265,-0.0459,-0.0437,-1.9775,-5.005,-19.242591161848424,11.432547398166983,-2.5810787999797187,2.341000000007625
0.1972,0.9344,-0.325,0.0468,0.1265,-0.0459,-0.035,-1.9338,-4.865,-19.221776096210913,11.431094913040333,-2.6120195999719518,2.357000000003609
0.2039,0.9395,-0.3271,0.0472,0.1259,-0.047,-0.035,-1.9338,-4.865,-19.213489333338465,11.432479472669073,-2.6120195999719518,2.357000000003609
0.2103,0.9389,-0.3224,0.0472,0.1259,-0.047,-0.1575,-1.715,-4.5413,-19.144296580252572,11.558918292987741,-2.639459599977542,2.3730000000068685
0.2103,0.9389,-0.3224,0.0454,0.1261,-0.0449,-0.0088,-1.435,-4.5062,-19.079379457020945,11.663059574298916,-2.639459599977542,2.3730000000068685
0.2068,0.9374,-0.3224,0.0454,0.1261,-0.0449,-0.2625,-0.9013,-4.0862,-19.05918531610444,11.715587636095936,-2.652979099970459,2.3879999999990105
0.2028,0.9312,-0.3227,0.0454,0.1261,-0.0449,-0.2625,-0.9013,-4.0862,-19.070151965023065,11.677443312673189,-2.652979099970459,2.3879999999990105
0.1965,0.9298,-0.3268,0.0458,0.1261,-0.0394,-0.315,-0.245,-4.1038,-19.11960488955529,11.505017789571223,-2.6568990999712576,2.40400000000227
0.1913,0.9323,-0.3278,0.0458,0.1261,-0.0394,0.1838,0.2362,-4.3313,-19.223485410465813,11.3159613497538,-2.6568990999712576,2.40400000000227
0.1913,0.9323,-0.3278,0.0462,0.1266,-0.0448,0.7613,0.42,-4.515,-19.30671375075431,11.224343008541059,-2.650599099968446,2.419000000008964
0.1926,0.934,-0.3275,0.0462,0.1266,-0.0448,0.7613,0.42,-4.515,-19.315753925760024,11.170316371149946,-2.650599099968446,2.419000000008964
0.1948,0.9354,-0.3254,0.0462,0.1265,-0.0502,0.6737,-0.1838,-5.0138,-19.24273877843611,11.164481506164249,-2.653539899967708,2.4350000000049477
0.1999,0.9395,-0.3253,0.0468,0.1265,-0.0502,0.5163,-0.2975,-4.7162,-19.169364398545035,11.189462093242703,-2.653539899967708,2.4350000000049477
0.1998,0.9403,-0.3235,0.0468,0.1265,-0.0502,-0.0263,-1.1988,-5.11,-19.108803973777462,11.224223920235858,-2.6727206999716153,2.4510000000082073
0.2031,0.9394,-0.322,0.0461,0.1264,-0.0531,-0.0263,-1.1988,-5.11,-19.046801910857283,11.292026532977124,-2.6727206999716153,2.4510000000082073
0.2031,0.9394,-0.322,0.0461,0.1264,-0.0531,-0.035,-0.5163,-5.145,-19.00568968596185,11.351861172726613,-2.6804651999675584,2.4660000000003492
0.1979,0.9374,-0.3257,0.0466,0.1252,-0.0441,-0.385,-0.5512,-5.18,-19.023581478290705,11.333792249427995,-2.6804651999675584,2.4660000000003492
0.1981,0.9348,-0.3221,0.0466,0.1252,-0.0441,-0.385,-0.7788,-5.355,-19.022259412456098,11.332391613166907,-2.692925999970097,2.482000000003609
0.1954,0.9322,-0.3278,0.0466,0.1252,-0.0441,-0.4025,-0.7788,-5.355,-19.05818732820101,11.283479900752099,-2.692925999970097,2.482000000003609
0.1968,0.9329,-0.326,0.0458,0.1274,-0.0319,-0.2537,-1.155,-5.985,-19.10055410685936,11.272552205737396,-2.710250999969425,2.497000000003027
0.1968,0.9329,-0.326,0.0458,0.1274,-0.0319,-0.2013,-0.9538,-6.0287,-19.139198767151193,11.267328479099088,-2.710250999969425,2.497000000003027
0.197,0.931,-0.3232,0.0468,0.1254,-0.0459,-0.2013,-0.9538,-6.0287,-19.14049957420283,11.287280325950027,-2.725511799972534,2.5130000000062864
0.2017,0.9282,-0.3277,0.0468,0.1254,-0.0459,0.0787,-1.4262,-6.055,-19.254291148571415,11.44690493384806,-2.725511799972534,2.5130000000062864
0.2021,0.9306,-0.3245,0.0468,0.1254,-0.0459,0.6212,-0.4462,-6.1863,-19.237985470511095,11.527773195500163,-2.7326509999739885,2.529000000009546
0.2047,0.9325,-0.3215,0.0464,0.1262,-0.0446,0.6913,0.3762,-5.8975,-19.120254145591865,11.627959251893252,-2.7326509999739885,2.529000000009546
0.2036,0.9336,-0.3241,0.0464,0.1262,-0.0446,0.6913,0.3762,-5.8975,-19.133509757245243,11.634700889065579,-2.7270079999769448,2.544000000001688
0.2036,0.9336,-0.3241,0.0488,0.1258,-0.0465,0.4112,0.6825,-6.3437,-19.138791669483364,11.638571376235562,-2.7270079999769448,2.544000000001688
0.2011,0.9335,-0.3242,0.0488,0.1258,-0.0465,0.3063,0.4288,-5.915,-19.144692279778848,11.56871462949905,-2.720147199975547,2.5600000000049477
0.1997,0.9347,-0.326,0.0488,0.1258,-0.0465,0.6475,1.2163,-5.7925,-19.189228529398264,11.489731302542948,-2.720147199975547,2.5600000000049477
0.2,0.9348,-0.3278,0.047,0.1257,-0.0546,0.6475,1.2163,-5.7925,-19.261659147969795,11.453278631689873,-2.700686399971582,2.5760000000082073
0.2026,0.9368,-0.3264,0.047,0.1257,-0.0546,0.6825,1.1463,-5.6438,-19.23314834816226,11.492648507907989,-2.700686399971582,2.5760000000082073
0.2026,0.9368,-0.3264,0.046,0.1267,-0.0447,0.455,0.7,-5.425,-19.221430239833413,11.510771290400612,-2.6894863999743936,2.592000000004191
0.2104,0.9353,-0.3254,0.046,0.1267,-0.0447,0.5688,1.0412,-5.075,-19.20157866775521,11.597808695580268,-2.6894863999743936,2.592000000004191
0.2101,0.9357,-0.3262,0.046,0.1267,-0.0462,0.5688,1.0412,-5.075,-19.21083898258499,11.664859519248505,-2.6728271999709996,2.6080000000074506
0.205,0.9345,-0.3244,0.0477,0.1258,-0.0462,0.4638,1.4787,-5.145,-19.17765846547561,11.674556049559321,-2.6728271999709996,2.6080000000074506
0.1965,0.9333,-0.3265,0.0477,0.1258,-0.0462,0.21,1.9512,-5.1188,-19.221377741144085,11.584095360748778,-2.643559199986332,2.6229999999995925
0.1881,0.9334,-0.3303,0.0465,0.1271,-0.0444,0.1312,1.9775,-4.97,-19.325863453922278,11.499297614643117,-2.643559199986332,2.6229999999995925
0.1881,0.9334,-0.3303,0.0465,0.1271,-0.0444,0.1312,1.9775,-4.97,-19.38928256515531,11.423190740784044,-2.6119191999798863,2.639000000002852
0.1833,0.9329,-0.3293,0.0442,0.1253,-0.0458,0.6125,1.8288,-5.1188,-19.417386960647516,11.230273963932712,-2.6119191999798863,2.639000000002852
0.1857,0.9349,-0.3267,0.0442,0.1253,-0.0458,1.1375,0.84,-5.32,-19.320504181305036,11.03689295322256,-2.5993191999742633,2.654000000009546
0.1907,0.9358,-0.33,0.0442,0.1253,-0.0458,1.1375,0.84,-5.6087,-19.38541333549165,10.968930754287744,-2.5993191999742633,2.654000000009546
0.1945,0.9379,-0.3254,0.0464,0.127,-0.0617,0.805,0.1925,-5.6087,-19.24229205207248,11.018812104051682,-2.5962391999750363,2.6700000000055297
0.1945,0.9379,-0.3254,0.0464,0.127,-0.0617,0.4375,-0.0437,-5.6613,-19.1894139465312,11.048369821894921,-2.5962391999750363,2.6700000000055297
0.2015,0.9345,-0.3254,0.0463,0.1269,-0.0473,0.175,-0.0962,-5.8362,-19.193130164180438,11.276827870579522,-2.5977783999753497,2.6860000000087894
0.2059,0.9344,-0.3276,0.0463,0.1269,-0.0473,0.175,-0.0962,-5.8362,-19.24524676605918,11.50957656458588,-2.5977783999753497,2.6860000000087894
0.2042,0.9287,-0.3231,0.0463,0.1269,-0.0473,0.1925,-0.14,-5.8713,-19.219457712951353,11.62152299436925,-2.5998783999742496,2.7010000000009313
0.2017,0.9256,-0.322,0.0467,0.1262,-0.0494,0.7437,0.455,-5.81,-19.198512032859053,11.625608788132276,-2.5998783999742496,2.7010000000009313
0.1934,0.9262,-0.3287,0.0467,0.1262,-0.0494,0.4638,0.63,-6.055,-19.367203945594525,11.356841335024995,-2.589798399972196,2.717000000004191
0.1934,0.9262,-0.3287,0.047,0.127,-0.0478,0.4638,0.63,-6.055,-19.45239572857963,11.234629481355366,-2.589798399972196,2.717000000004191
0.1926,0.9271,-0.3279,0.047,0.127,-0.0478,0.6913,0.1925,-6.09,-19.466318988156704,11.149994852192622,-2.586910899972308,2.732000000003609
0.1992,0.9284,-0.3259,0.047,0.127,-0.0478,1.5925,-0.3413,-6.09,-19.382537980345244,11.312916338866906,-2.586910899972308,2.732000000003609
0.2196,0.9251,-0.3262,0.0466,0.1279,-0.0377,1.5838,-0.3063,-6.1425,-19.410074913039544,12.047689735103711,-2.5918116999733063,2.7480000000068685
0.23,0.9223,-0.3272,0.0466,0.1279,-0.0377,1.5838,-0.3063,-6.1425,-19.49329245257393,12.710653215946605,-2.5918116999733063,2.7480000000068685
0.23,0.9223,-0.3272,0.0478,0.1268,-0.0457,2.5287,0.7175,-6.4575,-19.523121287522084,13.027856662078115,-2.5803316999709676,2.764000000010128
0.225,0.9184,-0.3238,0.0478,0.1268,-0.0457,2.5988,2.3537,-6.7812,-19.44589584722127,13.016079294369336,-2.5803316999709676,2.764000000010128
0.2149,0.916,-0.3258,0.0478,0.1268,-0.0489,3.6225,3.7275,-7.2187,-19.55333648383518,12.628403247552255,-2.5244192000002585,2.77900000000227
0.2028,0.9169,-0.3324,0.047,0.1274,-0.0489,3.6225,3.7275,-7.2187,-19.854199773563995,12.008786237942209,-2.4647791999881083,2.7950000000055297
0.199,0.9227,-0.3319,0.047,0.1274,-0.0489,3.8325,4.6725,-7.5075,-19.79706144910315,11.618921980209638,-2.4647791999881083,2.7950000000055297
0.2128,0.9281,-0.3315,0.0458,0.1272,-0.0495,4.27,4.5062,-7.98,-19.68019588725564,12.047395069235526,-2.397186199990731,2.8100000000049477
0.2128,0.9281,-0.3315,0.0458,0.1272,-0.0495,4.8387,4.6725,-8.3562,-19.659621486142793,12.154067468106456,-2.397186199990731,2.8100000000049477
0.2139,0.937,-0.3366,0.046,0.1269,-0.0474,4.8387,4.6725,-8.3562,-19.74411338358339,12.131549809428122,-2.3224262000094975,2.8260000000009313
0.2101,0.9423,-0.3325,0.046,0.1269,-0.0474,4.5937,5.9412,-9.0037,-19.486343766228245,11.924035207474022,-2.3224262000094975,2.8260000000009313
0.2097,0.9437,-0.3345,0.046,0.1269,-0.0474,4.41,6.93,-8.9775,-19.51196864468595,11.847704477904443,-2.211546199986908,2.842000000004191
0.2072,0.9429,-0.3378,0.0479,0.1297,-0.0641,4.41,6.93,-8.6538,-19.676908944568357,11.721320989985918,-2.211546199986908,2.842000000004191
0.2072,0.9429,-0.3378,0.0479,0.1297,-0.0641,3.71,7.3675,-8.6538,-19.703983975722114,11.694980082877773,-2.1010336999911967,2.857000000003609
0.2061,0.9459,-0.3379,0.0478,0.1279,-0.0538,3.1588,7.98,-8.7937,-19.66787110407006,11.61564328032308,-2.1010336999911967,2.857000000003609
0.2012,0.9425,-0.3348,0.0478,0.1279,-0.0538,2.765,8.1462,-8.7675,-19.582385785549615,11.423060156319492,-1.9706944999646432,2.8730000000068685
0.1911,0.9395,-0.3348,0.0478,0.1279,-0.0538,2.765,8.1462,-8.7675,-19.606632611571573,10.96397560348205,-1.9706944999646432,2.8730000000068685
0.1798,0.946,-0.3375,0.049,0.1262,-0.058,1.9512,9.1263,-8.8287,-19.626561456441223,10.312993500370176,-1.833800000036358,2.8879999999990105
0.1715,0.949,-0.3341,0.049,0.1262,-0.058,1.9863,9.135,-8.5487,-19.46101178221311,9.809951606766557,-1.833800000036358,2.8879999999990105
0.1715,0.949,-0.3341,0.0474,0.1294,-0.0563,1.2075,8.1287,-8.155,-19.419147363416677,9.705417452317208,-1.7037408000098613,2.90400000000227
0.1682,0.9476,-0.3355,0.0474,0.1294,-0.0563,1.2075,8.1287,-8.155,-19.468182708185463,9.546956571161921,-1.7037408000098613,2.90400000000227
0.1703,0.9476,-0.3332,0.0474,0.1294,-0.0563,0.0613,6.6062,-6.9738,-19.433316522086255,9.59827832445266,-1.5980415999883275,2.9200000000055297
0.1719,0.9507,-0.3276,0.0484,0.129,-0.0583,-0.175,5.0838,-6.2387,-19.32644324279933,9.657837563876917,-1.5980415999883275,2.9200000000055297
0.1696,0.9498,-0.3299,0.0484,0.129,-0.0583,-0.98,3.2987,-5.985,-19.27180695745791,9.613613139451129,-1.5485610999902475,2.9350000000049477
0.1696,0.9498,-0.3299,0.0486,0.1298,-0.0616,-0.98,3.2987,-5.985,-19.23447834471502,9.592842629485249,-1.5485610999902475,2.9350000000049477
0.1712,0.9468,-0.3287,0.0486,0.1298,-0.0616,-1.9425,1.82,-5.7488,-19.182137688043014,9.640377295106546,-1.5194410999843149,2.9510000000082073
0.1785,0.943,-0.3288,0.0486,0.1298,-0.0411,-2.87,0.6913,-5.5563,-19.210364935821772,9.843644510835576,-1.5194410999843149,2.9510000000082073
0.1835,0.9396,-0.3268,0.0461,0.1293,-0.0532,-3.3075,-0.2975,-5.3812,-19.186582581246807,10.05288990315792,-1.523903599981977,2.9660000000003492
0.1892,0.9368,-0.3256,0.0461,0.1293,-0.0532,-3.3075,-0.2975,-5.3812,-19.171224952874034,10.310401788204592,-1.523903599981977,2.9660000000003492
0.1892,0.9325,-0.322,0.0482,0.1292,-0.0566,-3.2462,-0.7875,-5.0138,-19.082661404632006,10.384917654708842,-1.536503599984544,2.982000000003609
0.1977,0.9325,-0.322,0.0482,0.1292,-0.0566,-3.1675,-0.5863,-4.5588,-19.05910440097352,10.601780265823479,-1.536503599984544,2.982000000003609
0.2038,0.9236,-0.3221,0.0481,0.1282,-0.0466,-3.1675,-0.63,-4.9788,-19.180226792499816,10.729649289875123,-1.5465835999865976,2.9980000000068685
0.2056,0.9223,-0.3235,0.0481,0.1282,-0.0466,-2.8875,-0.63,-4.9788,-19.284517597789193,10.85556540991864,-1.5465835999865976,2.9980000000068685
0.2005,0.9231,-0.3256,0.0481,0.1282,-0.0466,-2.6163,-0.2713,-4.5937,-19.38238898836046,11.005182580835987,-1.5506530999864396,3.0130000000062864
0.2027,0.9254,-0.3244,0.0489,0.1303,-0.0581,-1.8463,-0.2537,-4.2525,-19.345733363513983,11.258727480816946,-1.5506530999864396,3.0130000000062864
0.2027,0.9254,-0.3244,0.0489,0.1303,-0.0581,-1.8463,-0.2537,-4.2525,-19.330001045343955,11.416866190359762,-1.5547122999872667,3.029000000009546
0.2004,0.9257,-0.3231,0.0474,0.1265,-0.0586,-1.435,-0.3938,-4.2875,-19.28723448427646,11.465733693491035,-1.5547122999872667,3.029000000009546
0.2018,0.9261,-0.3253,0.0474,0.1265,-0.0586,-1.3475,-0.525,-4.3225,-19.317644132380977,11.518520051207398,-1.5625872999831412,3.044000000001688
0.2056,0.9343,-0.3224,0.0474,0.1265,-0.0586,-0.455,-0.1225,-4.5763,-19.30148593665506,11.569335858258437,-1.5625872999831412,3.044000000001688
0.2101,0.9348,-0.3198,0.0472,0.1284,-0.0546,-0.455,-0.1225,-4.5763,-19.27747692703974,11.664582022473708,-1.5645472999835404,3.0600000000049477
0.2101,0.9313,-0.3239,0.0472,0.1284,-0.0546,-0.1575,-0.5425,-4.7162,-19.25103217154227,11.709182622730012,-1.5645472999835404,3.0600000000049477
0.2079,0.9313,-0.3239,0.047,0.1288,-0.0538,0.4725,-0.35,-4.4187,-19.214391626985915,11.769141516058848,-1.5701472999821346,3.0760000000009313
0.204,0.9299,-0.3252,0.047,0.1288,-0.0538,0.5163,-0.1663,-4.1213,-19.245435910232555,11.739641598147843,-1.5701472999821346,3.0760000000009313
0.2032,0.9321,-0.3224,0.047,0.1288,-0.0538,0.5163,-0.1663,-4.1213,-19.16127159266728,11.698100597435177,-1.5726417999832478,3.091000000007625
0.2023,0.9324,-0.3235,0.0454,0.1302,-0.057,0.945,0.1138,-4.305,-19.145333329855323,11.657584480646515,-1.5726417999832478,3.091000000007625
0.2012,0.9318,-0.3273,0.0454,0.1302,-0.057,0.6125,-0.3675,-4.0425,-19.256040818622555,11.593604579838958,-1.5785217999844456,3.107000000010885
0.2012,0.9318,-0.3273,0.0458,0.1278,-0.053,1.3913,0.1488,-4.4012,-19.320383547448817,11.569019054214648,-1.5785217999844456,3.107000000010885
0.1963,0.9331,-0.329,0.0458,0.1278,-0.053,1.3913,0.1488,-4.4012,-19.387082312820976,11.460535407643821,-1.576289799985615,3.122000000003027
0.1956,0.9352,-0.3262,0.0458,0.1278,-0.053,1.3212,-0.14,-4.6287,-19.284642374602768,11.407002253407784,-1.576289799985615,3.122000000003027
0.1962,0.9382,-0.3272,0.047,0.1282,-0.0533,0.805,-0.7437,-4.7425,-19.251471354644444,11.382873984280932,-1.5881889999880392,3.1380000000062864
0.1995,0.9392,-0.3293,0.047,0.1282,-0.0533,0.3413,-0.9538,-4.6638,-19.283830858910655,11.375125458792551,-1.5881889999880392,3.1380000000062864
0.1995,0.9403,-0.3299,0.047,0.1298,-0.0593,0.3413,-0.9538,-4.6638,-19.30661935012531,11.366417909489758,-1.6034497999842083,3.15400000000227
0.2008,0.9403,-0.3299,0.047,0.1298,-0.0593,-0.4812,-1.435,-4.6025,-19.307521435221886,11.371773433984806,-1.624974799983373,3.169000000001688
0.1995,0.9373,-0.3262,0.0466,0.1285,-0.0587,-0.385,-1.435,-4.69,-19.293757687802323,11.370965975867387,-1.624974799983373,3.169000000001688
0.1997,0.9335,-0.3268,0.0466,0.1285,-0.0587,-0.385,-1.435,-4.9175,-19.29380289125432,11.373534425778846,-1.6479347999880505,3.1850000000049477
0.1961,0.9324,-0.3278,0.0466,0.1285,-0.0587,-0.595,-1.7587,-4.9175,-19.299354388522044,11.364756071160453,-1.6479347999880505,3.1850000000049477
0.1953,0.9321,-0.3284,0.047,0.1279,-0.0534,-0.7525,-1.9162,-4.83,-19.320209233071054,11.36007686655549,-1.6766777999869351,3.2000000000043656
0.1953,0.9321,-0.3284,0.047,0.1279,-0.0534,-1.1638,-2.52,-4.7425,-19.354915106331156,11.341623469976204,-1.6766777999869351,3.2000000000043656
0.1961,0.9348,-0.3259,0.0458,0.1288,-0.0546,-1.1638,-2.52,-4.7425,-19.30194183051489,11.327654862603534,-1.7169977999951493,3.216000000007625
0.1947,0.9332,-0.3285,0.0458,0.1288,-0.0546,-1.19,-2.7562,-5.1188,-19.33851740002233,11.287229787325053,-1.7169977999951493,3.216000000007625
0.197,0.9334,-0.3309,0.0458,0.1288,-0.0546,-1.6625,-3.4213,-5.3113,-19.43540931667637,11.275812879045295,-1.7717385999814084,3.232000000003609
0.204,0.9349,-0.3298,0.0476,0.1271,-0.0557,-1.4,-3.43,-5.8625,-19.433368209600093,11.452407530714835,-1.7717385999814084,3.232000000003609
0.204,0.926,-0.3279,0.0476,0.1271,-0.0557,-1.4,-3.43,-5.8625,-19.464270482306258,11.592520250548665,-1.823188599979412,3.247000000003027
0.2159,0.926,-0.3279,0.0476,0.1285,-0.0542,-0.6388,-3.7713,-6.3263,-19.468085711228134,12.070443406754938,-1.823188599979412,3.247000000003027
0.2255,0.9212,-0.3254,0.0476,0.1285,-0.0542,-0.4988,-3.2725,-6.7375,-19.467860088763757,12.675457875852526,-1.8755485999900792,3.2630000000062864
0.2237,0.9211,-0.3284,0.0476,0.1285,-0.0542,0.0787,-2.0912,-5.8713,-19.525619844534322,12.781100917329717,-1.8755485999900792,3.2630000000062864
0.2064,0.9188,-0.3281,0.047,0.1278,-0.0604,0.0787,-2.0912,-5.8713,-19.57256316591749,12.359929507720002,-1.906916599988862,3.2780000000057044
0.1901,0.9226,-0.3308,0.047,0.1278,-0.0604,0.4988,-0.4288,-5.8362,-19.64955212172331,11.6751381560652,-1.906916599988862,3.2780000000057044
0.1901,0.9226,-0.3308,0.0468,0.1277,-0.0551,1.4088,0.07,-5.9062,-19.699465515221533,11.317311431084153,-1.9057965999886337,3.294000000008964
0.1775,0.925,-0.3311,0.0468,0.1277,-0.0551,1.5662,-0.8662,-5.775,-19.69619334957902,10.801798342859735,-1.9057965999886337,3.294000000008964
0.1735,0.9364,-0.3306,0.0468,0.1277,-0.0551,1.5662,-0.8662,-5.775,-19.527026531129458,10.374862386475865,-1.9196557999851547,3.3100000000049477
0.1737,0.9487,-0.3302,0.0478,0.1296,-0.049,1.5925,-1.8725,-5.7575,-19.298896951978822,10.107252574485047,-1.9196557999851547,3.3100000000049477
0.1793,0.9549,-0.3287,0.0478,0.1296,-0.049,0.9975,-3.4037,-5.635,-19.115720429697664,10.089895078047324,-1.9707112999831735,3.3250000000043656
0.1793,0.9592,-0.326,0.049,0.1281,-0.0582,0.0437,-5.2413,-5.2675,-18.99203294827698,10.074328388224751,-1.9707112999831735,3.3250000000043656
0.1873,0.9592,-0.326,0.049,0.1281,-0.0582,0.0437,-5.2413,-5.2675,-18.912748286622975,10.191065454148296,-2.054572099962123,3.3410000000003492
0.1917,0.9567,-0.3282,0.0481,0.1285,-0.0591,-1.3388,-5.985,-5.2063,-18.922677105381364,10.331500094836711,-2.054572099962123,3.3410000000003492
0.1953,0.9507,-0.3284,0.0481,0.1285,-0.0591,-2.9925,-6.72,-5.0225,-19.017954109875593,10.42535104384159,-2.1553721000071056,3.356000000007043
0.1981,0.9422,-0.3293,0.0481,0.1285,-0.0591,-2.9925,-6.72,-4.8038,-19.1936323895814,10.464938926496684,-2.1553721000071056,3.356000000007043
0.2013,0.9333,-0.331,0.048,0.1282,-0.0502,-3.36,-7.3325,-4.8038,-19.4405139957192,10.515640795170242,-2.2726921000310067,3.3720000000103028
0.2013,0.9333,-0.331,0.048,0.1282,-0.0502,-3.5788,-7.1575,-4.27,-19.505961448066437,10.875776673574444,-2.2726921000310067,3.3720000000103028
0.2023,0.9296,-0.3268,0.0472,0.1276,-0.0472,-3.4738,-6.93,-4.8387,-19.40366550198939,10.887988128816955,-2.3835721000031738,3.3880000000062864
0.2061,0.9268,-0.3284,0.0472,0.1276,-0.0472,-3.4738,-6.93,-4.8387,-19.48398659231099,10.903971442748048,-2.3835721000031738,3.3880000000062864
0.2004,0.9238,-0.3325,0.0472,0.1276,-0.0472,-3.7187,-6.51,-4.6725,-19.721099432312965,11.001920814203553,-2.4812220999993846,3.4030000000057044
0.2034,0.9254,-0.3277,0.0489,0.1274,-0.0513,-2.7475,-5.9938,-4.6463,-19.568376913430527,11.123788425620612,-2.5771228999753113,3.419000000001688
0.2034,0.9247,-0.3281,0.0489,0.1274,-0.0513,-1.9688,-5.2675,-4.76,-19.548958881613196,11.175179311252878,-2.5771228999753113,3.419000000001688
0.2039,0.9247,-0.3281,0.049,0.1261,-0.0523,-1.9688,-5.2675,-4.76,-19.54104109474992,11.224524371335768,-2.6561354000105712,3.434000000008382
0.2042,0.9238,-0.3313,0.049,0.1261,-0.0523,-1.82,-4.69,-4.76,-19.647535843484313,11.270791703909412,-2.6561354000105712,3.434000000008382
0.2071,0.9246,-0.3311,0.049,0.1261,-0.0523,-1.0412,-4.27,-4.6725,-19.666449920157266,11.36947367720599,-2.7244553999934213,3.4500000000043656
0.2083,0.9289,-0.329,0.0477,0.1292,-0.0503,-0.2013,-3.5263,-4.935,-19.627351810115066,11.410997389857323,-2.7244553999934213,3.4500000000043656
0.2061,0.9287,-0.3281,0.0477,0.1292,-0.0503,-0.2013,-3.5263,-4.935,-19.586728197588318,11.440902963823484,-2.7808761999792586,3.4660000000003492
0.2061,0.9287,-0.3281,0.048,0.1279,-0.045,-0.0787,-2.3363,-4.6988,-19.547474765114586,11.492147595473423,-2.7808761999792586,3.4660000000003492
0.203,0.9313,-0.3303,0.048,0.1279,-0.045,-0.0088,-2.2662,-4.8038,-19.540864745297416,11.49793125458356,-2.8148691999944284,3.481000000007043
0.2012,0.9315,-0.3314,0.048,0.1279,-0.045,0.3325,-1.6712,-4.9175,-19.560690297800356,11.498205663253838,-2.8148691999944284,3.481000000007043
0.1982,0.9343,-0.3276,0.0477,0.1283,-0.0479,0.3325,-1.6712,-4.9175,-19.451353210779285,11.487866967296393,-2.841608399987716,3.497000000003027
0.1937,0.9337,-0.3309,0.0477,0.1283,-0.0479,-0.21,-1.505,-5.0925,-19.466078810628783,11.406721861114425,-2.841608399987716,3.497000000003027
0.1937,0.9337,-0.3308,0.0443,0.1278,-0.0503,-0.0088,-2.0475,-5.2762,-19.480426668786667,11.305362768906676,-2.872320899986524,3.5120000000024447
0.1923,0.9338,-0.3308,0.0443,0.1278,-0.0503,2.2313,-2.1088,-5.11,-19.499736651837008,11.24047819211505,-2.872320899986524,3.5120000000024447
0.1925,0.9377,-0.3284,0.0474,0.1292,-0.0489,0.1312,-2.1088,-5.11,-19.42170644788621,11.184697222194563,-2.906061699993398,3.5280000000057044
0.1929,0.94,-0.3289,0.0474,0.1292,-0.0489,-0.2975,-2.7213,-5.075,-19.397091874996224,11.144720042063641,-2.906061699993398,3.5280000000057044
0.1944,0.9385,-0.3282,0.0474,0.1292,-0.0489,-0.3762,-2.135,-4.9088,-19.38209554348339,11.140624407946166,-2.940221699984823,3.544000000001688
0.1901,0.9406,-0.3292,0.0501,0.1279,-0.0503,-0.3762,-2.135,-4.9088,-19.370714410310075,11.123479227478121,-2.940221699984823,3.544000000001688
0.1901,0.9406,-0.3292,0.0501,0.1279,-0.0503,-0.9275,-2.5113,-5.0575,-19.34705268276938,11.069176599345445,-2.9778912000016335,3.559000000008382
0.1821,0.9409,-0.3287,0.0474,0.1279,-0.0526,-1.2687,-3.1063,-5.25,-19.308250443132373,10.8670494987476,-2.9778912000016335,3.559000000008382
0.1818,0.9419,-0.3285,0.0474,0.1279,-0.0526,-1.2687,-3.7625,-5.3375,-19.273318609308895,10.69203161188858,-3.038091199986522,3.5750000000043656
0.1822,0.945,-0.3319,0.0474,0.1279,-0.0526,-1.2687,-3.7625,-5.3375,-19.307159129262953,10.567828244269215,-3.038091199986522,3.5750000000043656
0.1788,0.9473,-0.3276,0.0487,0.1273,-0.0416,-1.4875,-4.5413,-5.0662,-19.193597751512957,10.488963536711646,-3.110752000001325,3.591000000007625
0.1788,0.9473,-0.3237,0.0487,0.1273,-0.0416,-1.82,-5.4862,-5.565,-19.008042916159035,10.338634846035834,-3.110752000001325,3.591000000007625
0.1813,0.949,-0.3237,0.0482,0.1273,-0.0505,-2.2838,-5.8975,-6.1163,-18.897079390010386,10.288732812064382,-3.2051120000205486,3.607000000010885
0.1826,0.9472,-0.3257,0.0482,0.1273,-0.0505,-2.2838,-5.8975,-6.1163,-18.947365980714135,10.312690002663123,-3.2051120000205486,3.607000000010885
0.19,0.9433,-0.3296,0.0482,0.1273,-0.0505,-2.8612,-6.8075,-5.5388,-19.166539260180475,10.496698603391753,-3.3140319999436763,3.6229999999995925
0.2004,0.9348,-0.3235,0.049,0.1273,-0.0583,-3.185,-7.3412,-5.5388,-19.110034165535662,10.884587604299004,-3.3140319999436763,3.6229999999995925
0.2035,0.9335,-0.324,0.049,0.1273,-0.0583,-3.3688,-7.2713,-5.7838,-19.13289546085264,11.246776246095898,-3.764852599982615,3.6850000000049477
0.2035,0.9335,-0.324,0.0503,0.1285,-0.0549,-3.3688,-7.2713,-5.7838,-19.138829672530274,11.434634107507687,-3.8884646999813453,3.702000000004773
0.2007,0.9277,-0.326,0.0503,0.1285,-0.0549,-3.1237,-5.9675,-5.4425,-19.300002507345322,11.47210134435798,-3.9063672000067022,3.705000000009022
0.1956,0.927,-0.3259,0.0503,0.1285,-0.0549,-3.15,-5.4775,-5.3025,-19.35062617223742,11.406033905916454,-3.922799699990123,3.7080000000059954
0.1924,0.9264,-0.3301,0.0489,0.1276,-0.053,-2.7387,-5.3025,-5.2413,-19.531082518715323,11.312359099742936,-3.9334046999922836,3.710000000006403
0.188,0.9267,-0.3317,0.0489,0.1276,-0.053,-2.7387,-5.3025,-5.2413,-19.643548980775012,11.173544669150525,-3.9334046999922836,3.710000000006403
0.188,0.9267,-0.3295,0.0486,0.1278,-0.0461,-1.82,-5.04,-5.2325,-19.603903064098933,11.077185965069889,-3.9334046999922836,3.710000000006403
0.186,0.9282,-0.3295,0.0486,0.1278,-0.0461,-0.9013,-5.11,-4.76,-19.58732473018173,11.043677358728205,-3.9334046999922836,3.710000000006403
0.1896,0.9313,-0.328,0.049,0.1285,-0.049,-0.9013,-5.11,-3.955,-19.535827203181935,10.961322711430075,-3.9334046999922836,3.710000000006403
0.1892,0.9334,-0.3293,0.049,0.1285,-0.049,-1.5575,-5.4862,-3.955,-19.48319815218897,10.895151921266123,-3.9334046999922836,3.710000000006403
0.1901,0.9385,-0.3299,0.049,0.1285,-0.049,-0.9275,-5.4862,-4.0338,-19.44949170588744,10.860566795039237,-4.01569769998909,3.7250000000058208
0.1925,0.9395,-0.3272,0.0519,0.1271,-0.0462,-0.9187,-6.2387,-3.5,-19.378400164060636,10.912746257765038,-4.01569769998909,3.7250000000058208
0.1925,0.9395,-0.3272,0.0519,0.1271,-0.0462,-0.9187,-6.2387,-3.5,-19.32770583884473,10.934895552136691,-4.01569769998909,3.7250000000058208
0.189,0.941,-0.3296,0.0504,0.1266,-0.0502,-1.295,-5.6875,-3.1762,-19.31715543117359,10.808686506013656,-4.106697699966247,3.7410000000018044
0.1837,0.947,-0.3305,0.0504,0.1266,-0.0502,-1.575,-5.5125,-2.8087,-19.276874545029656,10.519727434482652,-4.106697699966247,3.7410000000018044
0.185,0.9485,-0.3253,0.0504,0.1266,-0.0502,-2.2313,-6.5538,-2.0038,-19.057795565918966,10.470535511318008,-4.205004700010117,3.7560000000084983
0.19,0.9452,-0.3261,0.0481,0.1274,-0.0352,-2.2313,-6.5538,-2.0038,-19.0432442938859,10.684343393324323,-4.205004700010117,3.7560000000084983
0.19,0.9452,-0.3265,0.0481,0.1274,-0.0352,-2.73,-7.0875,-1.6363,-19.05232317306829,10.740497472336129,-4.318404699981651,3.772000000004482
0.199,0.9464,-0.3265,0.0481,0.1263,-0.0466,-3.605,-7.4637,-1.7062,-19.038482630494734,11.121428282396295,-4.318404699981651,3.772000000004482
0.2047,0.9501,-0.3201,0.0481,0.1263,-0.0466,-4.4012,-6.7112,-0.9625,-18.705099618423617,11.454245236342038,-4.425783900003528,3.7880000000077416
0.2082,0.9474,-0.3203,0.0481,0.1263,-0.0466,-4.4012,-6.7112,-0.9625,-18.684764554795592,11.69756273406776,-4.425783900003528,3.7880000000077416
0.2002,0.9379,-0.3265,0.0479,0.127,-0.0468,-4.8825,-5.9938,-1.0675,-19.09904863147951,11.460160755035202,-4.515690900000039,3.8030000000071595
0.191,0.9328,-0.3268,0.0479,0.127,-0.0468,-4.8825,-5.7312,-1.4612,-19.2686990390891,11.056224354966634,-4.515690900000039,3.8030000000071595
0.191,0.9328,-0.3268,0.0475,0.1258,-0.0492,-4.6375,-5.775,-1.8813,-19.299967508908235,10.967169988725578,-4.608090899976845,3.819000000003143
0.1863,0.9307,-0.3316,0.0475,0.1258,-0.0492,-4.6375,-5.775,-1.8813,-19.54988211492905,10.751037647396785,-4.608090899976845,3.819000000003143
0.1846,0.9299,-0.3301,0.0475,0.1258,-0.0492,-4.7425,-6.51,-1.8288,-19.545181228173856,10.634737070746118,-4.705740900020422,3.834000000009837
0.1953,0.9306,-0.3278,0.0475,0.1254,-0.0401,-4.1213,-7.525,-1.9775,-19.435129374331865,11.051717959782637,-4.705740900020422,3.834000000009837
0.2081,0.9301,-0.3228,0.0475,0.1254,-0.0401,-4.025,-7.7875,-2.38,-19.2053140985479,11.68088625201176,-4.830340899989145,3.8500000000058208
0.2081,0.9301,-0.3248,0.0457,0.1276,-0.0451,-4.025,-7.7875,-2.38,-19.23985554359548,11.856388210719864,-4.830340899989145,3.8500000000058208
0.2168,0.9314,-0.3248,0.0457,0.1276,-0.0451,-3.2462,-7.8575,-2.7912,-19.22884039473091,12.219783221091923,-4.956060899957587,3.8660000000018044
0.2234,0.9292,-0.3192,0.047,0.1265,-0.047,-3.1063,-6.6238,-2.6862,-19.033940715498684,12.623853739819983,-4.956060899957587,3.8660000000018044
0.2255,0.9265,-0.3166,0.047,0.1265,-0.047,-3.1063,-6.6238,-3.0712,-18.91287132715773,12.84557726037764,-5.055417900001926,3.8810000000084983
0.2212,0.9227,-0.3213,0.047,0.1265,-0.047,-3.2725,-5.18,-3.0712,-19.12282088092119,12.788549541423473,-5.055417900001926,3.8810000000084983
0.2141,0.9212,-0.3251,0.0462,0.1262,-0.0392,-2.6513,-3.6225,-3.4388,-19.33774095587549,12.538398433182252,-5.113377899987377,3.897000000004482
0.2141,0.9212,-0.3251,0.0462,0.1262,-0.0392,-1.75,-2.45,-3.6925,-19.393339804065572,12.443467746701714,-5.113377899987377,3.897000000004482
0.2086,0.9201,-0.3224,0.0484,0.1246,-0.0411,-1.75,-2.45,-3.6925,-19.347472346243208,12.246351548369192,-5.150127899985951,3.9120000000039
0.2071,0.9187,-0.3245,0.0484,0.1246,-0.0411,-1.2775,-1.6363,-4.1737,-19.393539138355187,12.146471213114603,-5.176308699979379,3.9279999999998836
0.2084,0.922,-0.3243,0.0484,0.1246,-0.0411,-0.2625,-0.5688,-4.4275,-19.39050984941651,12.11353591623102,-5.176308699979379,3.9279999999998836
0.207,0.9272,-0.3245,0.0457,0.1251,-0.0463,0.63,0.07,-5.2238,-19.336265058398585,12.055908205538504,-5.1751886999791505,3.944000000003143
0.207,0.9272,-0.3223,0.0457,0.1251,-0.0463,0.63,0.07,-5.2238,-19.246258657415424,12.01607766322083,-5.1751886999791505,3.944000000003143
0.2087,0.9304,-0.3223,0.0467,0.1253,-0.044,0.5863,0.2625,-5.3375,-19.17302292210921,12.000129476638849,-5.171251199979303,3.959000000002561
0.199,0.932,-0.3237,0.0467,0.1253,-0.044,0.9538,0.6037,-5.46,-19.16111426246351,11.775443029146958,-5.171251199979303,3.959000000002561
0.1981,0.9368,-0.326,0.0467,0.1253,-0.044,1.1025,0.5775,-5.53,-19.17745399332881,11.581709769038465,-5.162011199977421,3.9750000000058208
0.1987,0.9367,-0.3242,0.0464,0.1263,-0.0512,1.1025,0.5775,-5.53,-19.124124176829923,11.482481367561023,-5.162011199977421,3.9750000000058208
0.1996,0.9359,-0.3279,0.0464,0.1263,-0.0512,1.26,0.7613,-5.8975,-19.24197186379145,11.430269390225792,-5.1505916999778645,3.9900000000052387
0.1996,0.9359,-0.3279,0.0466,0.1278,-0.0442,1.05,0.3237,-5.8187,-19.282463600454406,11.405682035988722,-5.1505916999778645,3.9900000000052387
0.2009,0.9356,-0.3268,0.0466,0.1278,-0.0442,1.3825,0.315,-5.9412,-19.26383928954941,11.43373773635652,-5.14555169997913,4.006000000001222
0.2004,0.9365,-0.3257,0.0466,0.1278,-0.0442,1.3825,0.315,-5.9412,-19.206872916445782,11.42988788172061,-5.14555169997913,4.006000000001222
0.2017,0.9343,-0.3284,0.047,0.1256,-0.0516,0.6913,0.6562,-5.915,-19.294041824009174,11.472069674302915,-5.135052499976991,4.022000000004482
0.2001,0.9371,-0.3273,0.047,0.1256,-0.0516,0.7262,1.1287,-5.2238,-19.271149854883227,11.451996361361674,-5.135052499976991,4.022000000004482
0.2001,0.9371,-0.3253,0.047,0.1243,-0.0507,0.7262,1.6538,-5.9675,-19.200513997780345,11.427153646988172,-5.110245499977954,4.0370000000039
0.2007,0.9391,-0.3253,0.047,0.1243,-0.0507,0.805,1.6538,-5.9675,-19.14663242712685,11.421770566351174,-5.110245499977954,4.0370000000039
0.2015,0.9375,-0.3259,0.0441,0.1253,-0.0498,0.7437,0.84,-5.9325,-19.15899967049083,11.449894764704434,-5.096805499975216,4.0530000000071595
0.1974,0.9379,-0.327,0.0441,0.1253,-0.0498,0.1225,0.77,-6.37,-19.183235522970065,11.323701597014407,-5.096805499975216,4.0530000000071595
0.1998,0.9379,-0.3248,0.0441,0.1253,-0.0498,0.1225,0.77,-6.37,-19.15127838233067,11.35853499062227,-5.085255499975664,4.0680000000065775
0.2111,0.9342,-0.3229,0.0465,0.1242,-0.0506,-0.4375,0.0875,-6.0988,-19.145146074609052,11.744824871792567,-5.085255499975664,4.0680000000065775
0.2111,0.9342,-0.3229,0.0465,0.1242,-0.0506,-0.5775,-0.1488,-6.3437,-19.14066350204239,11.930684323450484,-5.087636299975066,4.084000000002561
0.2289,0.9256,-0.3249,0.0455,0.1264,-0.0405,0.35,0.7875,-6.335,-19.234060675756606,12.648905391495575,-5.087636299975066,4.084000000002561
0.2395,0.9173,-0.3143,0.0455,0.1264,-0.0405,0.35,0.7875,-6.335,-19.08516852536433,13.379931031095952,-5.075036299972499,4.100000000005821
0.2344,0.9104,-0.3264,0.0455,0.1264,-0.0405,1.05,3.4388,-6.44,-19.47504960971142,13.529370350625326,-5.075036299972499,4.100000000005821
0.2142,0.9127,-0.3287,0.0478,0.1278,-0.0361,1.1113,6.4575,-6.5538,-19.68004395746324,12.850961582135636,-4.978173799976258,4.115000000005239
0.2142,0.9127,-0.3287,0.0478,0.1278,-0.0361,2.5988,7.98,-6.4488,-19.77538409805424,12.60550873159212,-4.978173799976258,4.115000000005239
0.199,0.9149,-0.3309,0.0472,0.1258,-0.0458,2.5988,7.98,-6.4488,-19.857595815812896,11.963198011641444,-4.850493799950246,4.131000000008498
0.1906,0.9126,-0.3277,0.0472,0.1258,-0.0458,3.64,8.4875,-6.79,-19.77279965583323,11.407752539711211,-4.850493799950246,4.131000000008498
0.1889,0.9203,-0.3306,0.0472,0.1258,-0.0458,4.6638,7.9275,-6.5188,-19.7619415819127,11.111486179980982,-4.73158129995486,4.146000000007916
0.1947,0.9328,-0.3228,0.0449,0.1269,-0.041,5.8362,7.7525,-6.6588,-19.18003138836281,11.141615805097887,-4.73158129995486,4.146000000007916
0.1956,0.9414,-0.3239,0.0449,0.1269,-0.041,5.8362,7.7525,-6.6588,-19.012731195576983,11.124768945301636,-4.607541299985997,4.1620000000039
0.1956,0.9414,-0.3239,0.0474,0.1281,-0.049,6.51,7.56,-6.7025,-18.989676443329802,11.11870746091948,-4.607541299985997,4.1620000000039
0.1997,0.9424,-0.3279,0.0474,0.1281,-0.049,6.2562,7.035,-6.6062,-19.159785573711897,11.24521493578836,-4.494981299963066,4.1780000000071595
0.201,0.9438,-0.3246,0.0474,0.1281,-0.049,5.74,7.2187,-6.2213,-19.004404822030498,11.32678939015417,-4.494981299963066,4.1780000000071595
0.2006,0.9392,-0.3242,0.0458,0.1272,-0.0506,5.74,7.2187,-6.2213,-19.038568057717907,11.377335622755247,-4.386700800019791,4.1929999999993015
0.1989,0.9366,-0.3254,0.0458,0.1272,-0.0506,4.7425,7.6737,-6.335,-19.139422305651003,11.356900086632393,-4.386700800019791,4.1929999999993015
0.1989,0.9366,-0.3411,0.0452,0.129,-0.0492,4.7775,7.4025,-5.9938,-19.872602099267993,11.31848916603247,-4.268260799995661,4.209000000002561
0.1984,0.9384,-0.3296,0.0452,0.129,-0.0492,4.7775,7.4025,-6.5625,-19.43565690361172,11.294924621951097,-4.268260799995661,4.209000000002561
0.1982,0.9381,-0.3238,0.0452,0.1286,-0.0508,4.6463,6.9738,-6.5625,-19.106649581183056,11.294514601844632,-4.163653799999721,4.224000000001979
0.204,0.9344,-0.3249,0.0452,0.1286,-0.0508,4.7425,6.895,-6.3612,-19.162451120132822,11.509157930726865,-4.163653799999721,4.224000000001979
0.2082,0.9315,-0.3305,0.0452,0.1286,-0.0508,4.13,6.965,-6.4575,-19.46893109432614,11.746792096657675,-4.052213799977017,4.240000000005239
0.2126,0.9288,-0.3276,0.0444,0.1279,-0.0512,4.13,6.965,-6.4575,-19.435592839325317,12.014207083162923,-4.052213799977017,4.240000000005239
0.2126,0.9288,-0.3276,0.0444,0.1279,-0.0512,4.165,7.6475,-6.8162,-19.429680613007523,12.124767645591488,-3.929853799952089,4.256000000008498
0.2132,0.9256,-0.3313,0.0445,0.1258,-0.0491,3.395,8.8025,-7.14,-19.640031971287573,12.202074953519586,-3.7978163000212595,4.27100000000064
0.2076,0.9224,-0.3335,0.0445,0.1258,-0.0491,3.7975,9.0825,-7.77,-19.833056490513894,12.014850074416104,-3.7978163000212595,4.27100000000064
0.2015,0.9271,-0.3353,0.0445,0.1258,-0.0491,3.7975,9.0825,-7.77,-19.873848544912498,11.669852041203894,-3.652496299991654,4.2870000000039
0.1986,0.9262,-0.3356,0.0451,0.1281,-0.055,4.6112,9.4325,-7.105,-19.91038915109143,11.48164754002902,-3.652496299991654,4.2870000000039
0.1986,0.9262,-0.3356,0.0451,0.1281,-0.055,5.6087,9.1962,-7.0437,-19.916515307615004,11.424219284323598,-3.514553299997007,4.302000000003318
0.197,0.9306,-0.3326,0.0448,0.1286,-0.0576,5.635,8.505,-7.3412,-19.70196286045021,11.31687598514272,-3.514553299997007,4.302000000003318
0.2045,0.9356,-0.3336,0.0448,0.1286,-0.0576,5.635,8.505,-7.3412,-19.635189966112133,11.542671409182088,-3.3784732999692837,4.3180000000065775
0.2105,0.9371,-0.3348,0.0448,0.1286,-0.0576,5.6525,8.1375,-7.3938,-19.656890501881506,11.830518613383104,-3.3784732999692837,4.3180000000065775
0.2106,0.9328,-0.3332,0.0454,0.1268,-0.0565,5.88,8.435,-7.3587,-19.65693059184209,11.95389420273267,-3.243513299941789,4.334000000009837
0.2018,0.9331,-0.3342,0.0454,0.1268,-0.0565,5.46,9.2312,-6.9913,-19.698574011630836,11.650415542425737,-3.243513299941789,4.334000000009837
0.2018,0.9331,-0.3342,0.0445,0.1291,-0.0585,5.46,9.2312,-6.9913,-19.704543245051376,11.553627362606187,-3.105045300014328,4.349000000001979
0.196,0.9334,-0.3314,0.0445,0.1291,-0.0585,5.495,9.31,-6.4138,-19.569646718785204,11.334127812369157,-3.105045300014328,4.349000000001979
0.1918,0.934,-0.3335,0.0445,0.1291,-0.0585,5.3025,8.995,-6.2913,-19.638162989891036,11.105106347555393,-2.961125299985008,4.365000000005239
0.1885,0.9327,-0.3353,0.0458,0.1291,-0.0613,4.585,7.6912,-6.4313,-19.75107088928627,10.899022173001327,-2.961125299985008,4.365000000005239
0.1867,0.9387,-0.332,0.0458,0.1291,-0.0613,4.585,7.6912,-6.4313,-19.522505223292825,10.728456870384841,-2.8457572999894847,4.380000000004657
0.1867,0.9387,-0.3303,0.0446,0.1291,-0.0684,3.85,7.175,-6.195,-19.410966101300737,10.669853747067794,-2.8457572999894847,4.380000000004657
0.1861,0.9406,-0.3303,0.0446,0.1291,-0.0684,3.255,5.88,-6.125,-19.362125660304223,10.616298563205312,-2.751677299970318,4.396000000007916
0.1885,0.9391,-0.3378,0.0446,0.1286,-0.059,3.255,5.88,-6.2475,-19.695556176391726,10.662572854850211,-2.751677299970318,4.396000000007916
0.1919,0.9425,-0.3327,0.0448,0.1286,-0.059,2.9313,4.9437,-6.2475,-19.499704155873648,10.782299622507209,-2.6725780999542033,4.412000000011176
0.1976,0.9392,-0.3353,0.0448,0.1286,-0.059,1.995,4.1562,-5.9763,-19.604956689022497,11.007039267287844,-2.6725780999542033,4.412000000011176
0.1968,0.937,-0.3367,0.0436,0.1295,-0.0589,1.4,3.2462,-5.6175,-19.71032372007612,11.08219138469054,-2.623885099979712,4.427000000003318
0.1968,0.937,-0.3367,0.0436,0.1295,-0.0589,1.4,3.2462,-5.6175,-19.746453568675417,11.124850416316766,-2.623885099979712,4.427000000003318
0.195,0.9373,-0.3359,0.0438,0.1293,-0.061,0.8138,3.1237,-4.6112,-19.729152394775213,11.116232805084184,-2.57390589996953,4.4430000000065775
0.1926,0.9348,-0.3332,0.0438,0.1293,-0.061,0.1138,1.4438,-4.6025,-19.68622231130759,11.089316502010579,-2.57390589996953,4.4430000000065775
0.1956,0.9348,-0.339,0.0438,0.1293,-0.061,-0.385,0.3413,-4.235,-19.714859570167597,11.104295400612658,-2.5687863999697287,4.458000000005995
0.2004,0.9361,-0.3395,0.0448,0.1319,-0.0627,-0.385,0.3413,-4.235,-19.740351560191716,11.209487973836708,-2.5687863999697287,4.458000000005995
0.2004,0.9361,-0.3395,0.0448,0.1319,-0.0627,-0.9538,-0.2275,-3.7887,-19.799417526904094,11.296960865756741,-2.572426399968815,4.474000000001979
0.2017,0.9359,-0.3353,0.0448,0.1296,-0.0634,-1.5137,-1.1113,-3.4738,-19.755173967761365,11.396708669538537,-2.572426399968815,4.474000000001979
0.2054,0.929,-0.3361,0.0448,0.1296,-0.0634,-1.7675,-1.5662,-3.2987,-19.82980717259511,11.608807001758679,-2.59748559997392,4.490000000005239
0.2067,0.9316,-0.3365,0.0448,0.1296,-0.0634,-1.7675,-1.5662,-3.2987,-19.84661590933755,11.717521787466945,-2.59748559997392,4.490000000005239
0.2192,0.933,-0.3323,0.0437,0.1288,-0.0721,-1.7938,-1.7237,-3.3163,-19.710536874858924,12.179554025699948,-2.623341099972917,4.505000000004657
0.2207,0.9282,-0.3352,0.0437,0.1288,-0.0721,-2.0475,-1.7763,-3.5525,-19.79860627644404,12.42084538965443,-2.623341099972917,4.505000000004657
0.2207,0.9282,-0.3352,0.0417,0.1306,-0.0622,-2.8612,-1.7413,-3.5525,-19.838928467993586,12.525604053590447,-2.651201899978593,4.521000000007916
0.2118,0.9248,-0.3331,0.0417,0.1306,-0.0622,-2.8612,-1.7413,-3.5525,-19.817463487572343,12.318562997750828,-2.651201899978593,4.521000000007916
0.2101,0.9208,-0.3328,0.0417,0.1306,-0.0622,-2.0038,-1.2337,-4.1125,-19.849546128513417,12.230144830412733,-2.6697073999688983,4.536000000000058
0.2094,0.9177,-0.3364,0.0426,0.1308,-0.0665,-1.96,-1.5137,-4.3925,-20.016029522757737,12.186464858624763,-2.6697073999688983,4.536000000000058
0.2108,0.9198,-0.3358,0.0426,0.1308,-0.0665,-1.3212,-1.9688,-4.6287,-20.033896183550066,12.179592324481447,-2.7012081999753157,4.552000000003318
0.2108,0.9198,-0.335,0.0435,0.1302,-0.071,-1.3212,-1.9688,-4.6287,-20.024180842350503,12.17460253832841,-2.7012081999753157,4.552000000003318
0.2162,0.9223,-0.335,0.0435,0.1302,-0.071,-0.6737,-1.9688,-5.0925,-20.015747570129154,12.222612909768287,-2.732708999967408,4.5679999999993015
0.2156,0.923,-0.3374,0.0427,0.1292,-0.0645,-0.525,-2.73,-5.3288,-20.016296798543884,12.271210454092655,-2.7736589999856824,4.583000000005995
0.2194,0.9252,-0.3343,0.0427,0.1292,-0.0645,-0.525,-2.73,-5.53,-20.015008309015847,12.39260479300472,-2.7736589999856824,4.583000000005995
0.2167,0.9276,-0.3316,0.0427,0.1292,-0.0645,-0.14,-2.065,-5.53,-19.920954378235194,12.398132853708951,-2.8066989999924137,4.599000000009255
0.2147,0.9263,-0.3357,0.0418,0.1295,-0.0655,-0.4375,-1.8025,-5.775,-19.92095784957192,12.34793651105016,-2.8085014999862232,4.600000000005821
0.2147,0.9263,-0.3357,0.0418,0.1295,-0.0655,-0.6212,-1.4612,-5.5563,-19.92096202811572,12.325441080064222,-2.8304194999853727,4.615000000005239
0.2146,0.9262,-0.337,0.043,0.1287,-0.0645,-0.6212,-1.4612,-5.5563,-19.92789687040758,12.308183774454154,-2.8304194999853727,4.615000000005239
0.2148,0.9273,-0.3298,0.043,0.1287,-0.0645,-0.9538,-1.47,-5.8275,-19.821488451658446,12.309882325500283,-2.8539394999901644,4.631000000008498
0.2134,0.9245,-0.335,0.043,0.1287,-0.0645,-0.8138,-1.1988,-5.8975,-19.843704449645408,12.276477124357347,-2.8539394999901644,4.631000000008498
0.2128,0.9252,-0.3316,0.0431,0.1287,-0.0629,-0.8925,-1.3125,-6.0113,-19.809381757162246,12.24457844171066,-2.8749394999944426,4.647000000011758
0.2128,0.9252,-0.3329,0.0431,0.1287,-0.0629,-0.8925,-1.3125,-6.0113,-19.80393261109249,12.226941019373182,-2.8749394999944426,4.647000000011758
0.2147,0.9239,-0.3329,0.042,0.1298,-0.0612,-0.5075,-1.1113,-6.3263,-19.804030718871573,12.289633679728446,-2.89160899998571,4.6620000000039
0.2101,0.9244,-0.334,0.042,0.1298,-0.0612,-0.1312,-0.665,-6.3088,-19.821142102579397,12.157061375674562,-2.89160899998571,4.6620000000039
0.2058,0.9279,-0.3323,0.042,0.1298,-0.0612,-0.7262,-0.9712,-6.3263,-19.800733994363085,11.941079349614613,-2.9071481999888755,4.6780000000071595
0.2064,0.9286,-0.3314,0.0431,0.129,-0.0534,-0.7262,-0.9712,-6.3263,-19.772946244207372,11.87107437141013,-2.9071481999888755,4.6780000000071595
0.2038,0.9301,-0.3339,0.0431,0.129,-0.0534,-0.4025,-1.1638,-6.4575,-19.770377752976884,11.736652760573453,-2.924605199988198,4.6930000000065775
0.2038,0.9301,-0.3339,0.0438,0.1295,-0.0625,-0.0875,-1.1463,-6.2125,-19.7636062422708,11.688339272830241,-2.924605199988198,4.6930000000065775
0.204,0.932,-0.3335,0.0438,0.1295,-0.0625,-0.2975,-1.6363,-6.3437,-19.750186675263667,11.662358995046976,-2.950785999981626,4.709000000002561
0.2041,0.9326,-0.3324,0.0438,0.1295,-0.0625,-0.2975,-1.6363,-6.3437,-19.726314646531442,11.65390143051972,-2.950785999981626,4.709000000002561
0.2051,0.9311,-0.3342,0.043,0.1292,-0.0582,-0.8838,-1.7763,-5.8625,-19.731228264955973,11.68354515342326,-2.9792067999874163,4.725000000005821
0.2047,0.9317,-0.335,0.043,0.1292,-0.0582,-0.84,-1.925,-6.3088,-19.742284225035267,11.682148736701631,-2.9792067999874163,4.725000000005821
0.2047,0.9317,-0.3316,0.0444,0.1294,-0.055,-0.7,-1.9775,-6.125,-19.718823160825654,11.688968771324534,-3.0088692999862654,4.740000000005239
0.207,0.9291,-0.3316,0.0444,0.1294,-0.055,-0.7,-1.9775,-6.125,-19.70685866146147,11.779361394588042,-3.0088692999862654,4.740000000005239
0.2058,0.9292,-0.3328,0.0427,0.129,-0.0703,-0.49,-1.7938,-5.3375,-19.706820418592944,11.77892787676467,-3.0375700999921125,4.756000000008498
0.2033,0.9337,-0.3322,0.0427,0.129,-0.0703,-0.7525,-1.9688,-5.1887,-19.683545568368995,11.732432155739104,-3.0375700999921125,4.756000000008498
0.1994,0.9363,-0.3307,0.0427,0.129,-0.0703,-0.7525,-1.9688,-5.1887,-19.639531937729153,11.638035658982185,-3.0671020999766414,4.77100000000064
0.1957,0.9376,-0.3292,0.0437,0.129,-0.056,-1.0237,-2.24,-5.0575,-19.54094972178631,11.554637188961765,-3.0671020999766414,4.77100000000064
0.1957,0.9376,-0.3292,0.0437,0.129,-0.056,-1.2425,-2.1525,-5.145,-19.459209623836774,11.461882239008157,-3.1015420999836576,4.7870000000039
0.1968,0.9399,-0.3331,0.0453,0.1297,-0.0598,-1.8725,-2.8,-4.9875,-19.490916412092336,11.427244664899588,-3.1015420999836576,4.7870000000039
0.2061,0.9398,-0.3321,0.0453,0.1297,-0.0598,-1.8725,-2.8,-4.9875,-19.47429333941069,11.456948707982525,-3.146342099972412,4.802999999999884
0.2176,0.9295,-0.3299,0.0453,0.1297,-0.0598,-2.6513,-4.2787,-4.9788,-19.519649065037786,11.564760939945096,-3.146342099972412,4.802999999999884
0.2181,0.9195,-0.3296,0.0431,0.1301,-0.0591,-2.625,-4.025,-4.5413,-19.655894330709163,11.809267051824449,-3.206717099999355,4.8180000000065775
0.2181,0.9195,-0.3299,0.0431,0.1301,-0.0591,-2.1437,-2.7037,-4.7075,-19.706173716067333,11.909510680655625,-3.206717099999355,4.8180000000065775
0.203,0.9256,-0.3299,0.0436,0.1297,-0.0612,-2.1437,-2.7037,-4.7075,-19.6509125602536,11.878886459434229,-3.249976300008168,4.834000000009837
0.1831,0.9287,-0.3314,0.0436,0.1297,-0.0612,-1.1988,-2.0387,-4.6112,-19.645910257201418,11.611698008988899,-3.249976300008168,4.834000000009837
0.1703,0.9363,-0.3352,0.0436,0.1297,-0.0612,-1.4438,-3.1063,-4.305,-19.67079054809937,10.938838275061302,-3.2965707999837583,4.849000000001979
0.1732,0.9439,-0.3306,0.0449,0.1304,-0.0594,-2.1788,-5.005,-3.6837,-19.440985460109385,10.33777761935379,-3.2965707999837583,4.849000000001979
0.1898,0.9457,-0.3256,0.0449,0.1304,-0.0594,-2.1788,-5.005,-3.6837,-19.16459529802752,10.557520712106705,-3.376650800000073,4.865000000005239
0.1898,0.9457,-0.3256,0.0438,0.1284,-0.0572,-3.0363,-7.4725,-3.3863,-19.045573109502843,10.669080934324857,-3.376650800000073,4.865000000005239
0.2072,0.9414,-0.3276,0.0438,0.1284,-0.0572,-3.5175,-8.0937,-2.6688,-19.15203283636682,11.405957773972448,-3.5061499999675663,4.881000000001222
0.2185,0.9385,-0.3263,0.0438,0.1284,-0.0572,-3.535,-7.8488,-2.87,-19.16678142786195,12.068593372204754,-3.5061499999675663,4.881000000001222
0.2241,0.9315,-0.3238,0.0435,0.1286,-0.0593,-3.535,-7.8488,-2.87,-19.167721671104697,12.55675915398544,-3.6238820000201053,4.896000000007916
0.2244,0.9241,-0.327,0.0435,0.1286,-0.0593,-4.1912,-6.9738,-2.6337,-19.418485319960272,12.789367581281226,-3.6238820000201053,4.896000000007916
0.2244,0.9241,-0.3292,0.0433,0.1282,-0.0634,-4.2438,-6.3,-2.7562,-19.56779892530231,12.853940130162625,-3.724682000040641,4.912000000011176
0.2245,0.9165,-0.3292,0.0433,0.1282,-0.0634,-4.2438,-5.5738,-3.745,-19.717697133727757,12.92120924973691,-3.808288999996842,4.927000000003318
0.2262,0.9137,-0.3278,0.0446,0.1281,-0.0581,-3.78,-5.5738,-3.745,-19.731715578166266,13.024313122763427,-3.808288999996842,4.927000000003318
0.226,0.911,-0.3253,0.0446,0.1281,-0.0581,-2.1962,-4.5062,-4.4012,-19.68089159130657,13.063656187868451,-3.8803882000115304,4.9430000000065775
0.2233,0.9093,-0.329,0.0446,0.1281,-0.0581,-1.26,-2.6688,-5.0662,-19.770490253714097,13.053109834003529,-3.8803882000115304,4.9430000000065775
0.2198,0.9108,-0.3268,0.0434,0.1274,-0.0545,-1.26,-2.6688,-5.0662,-19.756745522786147,13.00866681233127,-3.923089000000812,4.959000000002561
0.2198,0.9108,-0.3268,0.0434,0.1274,-0.0545,-0.5163,-1.61,-6.2125,-19.75674472806759,12.887061971125858,-3.923089000000812,4.959000000002561
0.2207,0.9126,-0.3265,0.044,0.1262,-0.0571,0.4462,-0.9538,-7.3238,-19.721868649904998,12.844797343398731,-3.9373960000071966,4.974000000009255
0.2239,0.9164,-0.3317,0.044,0.1262,-0.0571,1.33,0.0175,-8.085,-19.836263945167758,12.916392894683648,-3.9373960000071966,4.974000000009255
0.2286,0.9199,-0.3295,0.044,0.1262,-0.0571,1.33,0.0175,-8.085,-19.75246109950108,13.108147140244775,-3.9371160000072667,4.990000000005239
0.2306,0.9265,-0.3296,0.0441,0.1278,-0.0521,1.7237,0.91,-8.8112,-19.635222844663232,13.179261851318476,-3.9371160000072667,4.990000000005239
0.2306,0.9265,-0.3315,0.0441,0.1278,-0.0521,1.995,1.7938,-8.8375,-19.672337421611402,13.187027449109598,-3.9102090000083107,5.005000000004657
0.2247,0.9328,-0.3315,0.0447,0.128,-0.0588,2.135,3.185,-9.0913,-19.593873449094907,12.864487098163721,-3.9102090000083107,5.005000000004657
0.2207,0.9365,-0.332,0.0447,0.128,-0.0588,2.135,3.185,-9.0913,-19.54023256296837,12.588402204843552,-3.859248999997929,5.021000000007916
0.2144,0.942,-0.3292,0.0447,0.128,-0.0588,2.485,3.7013,-9.205,-19.33224650660928,12.212549648451114,-3.859248999997929,5.021000000007916
0.2073,0.9439,-0.3332,0.0449,0.13,-0.0634,2.24,3.9813,-9.205,-19.41366962899578,11.796091638636684,-3.7955482000139193,5.0370000000039
0.1996,0.9453,-0.3323,0.0449,0.13,-0.0634,1.2862,4.6725,-8.645,-19.38431772998883,11.376588283463848,-3.7955482000139193,5.0370000000039
0.1996,0.9453,-0.3323,0.0446,0.1286,-0.0603,1.2862,4.6725,-8.645,-19.373844420923824,11.288994537466802,-3.7254607000166393,5.052000000003318
0.1881,0.9446,-0.3287,0.0446,0.1286,-0.0603,0.8575,4.4012,-8.0238,-19.265577283365708,10.804247618459513,-3.7254607000166393,5.052000000003318
0.1693,0.9459,-0.3355,0.0446,0.1286,-0.0603,0.2537,3.6575,-7.6825,-19.380185314419165,9.8961451002577,-3.666940700031329,5.0679999999993015
0.1615,0.9502,-0.334,0.0443,0.1296,-0.0677,-0.4025,1.2163,-7.0613,-19.378820009634413,9.355007094384357,-3.666940700031329,5.0679999999993015
0.1686,0.9494,-0.332,0.0443,0.1296,-0.0677,-0.4025,1.2163,-7.0613,-19.36815296306304,9.46585824468886,-3.6486962000231875,5.083000000005995
0.1686,0.9494,-0.3164,0.0456,0.1303,-0.0644,-0.98,-1.4875,-6.2213,-19.071385650496048,9.522033720807265,-3.6486962000231875,5.083000000005995
0.1803,0.9405,-0.3276,0.0456,0.1303,-0.0644,-1.7587,-2.4938,-5.1712,-19.14514910279294,9.699354954119913,-3.6885970000313164,5.099000000009255
0.185,0.943,-0.3269,0.0456,0.1293,-0.0547,-1.7587,-2.4938,-4.1125,-19.130863508860983,10.041241970134987,-3.6885970000313164,5.099000000009255
0.1859,0.9393,-0.323,0.0458,0.1293,-0.0547,-2.3187,-3.08,-4.1125,-19.031721847746883,10.279767007851104,-3.7378770000189463,5.115000000005239
0.1877,0.9342,-0.3273,0.0458,0.1293,-0.0547,-2.7037,-4.3663,-4.0075,-19.221371972568964,10.489590105652274,-3.7378770000189463,5.115000000005239
0.1878,0.9315,-0.3248,0.0453,0.1298,-0.063,-3.15,-5.2675,-3.675,-19.22247433922142,10.64596686175047,-3.81688950001588,5.130000000004657
0.1878,0.9315,-0.3248,0.0453,0.1298,-0.063,-3.15,-5.2675,-3.675,-19.222777715861668,10.717672774331547,-3.81688950001588,5.130000000004657
0.1873,0.934,-0.3267,0.0442,0.129,-0.0569,-3.8763,-6.405,-3.3163,-19.266193869086855,10.71828115399627,-3.9193694999901556,5.14600000000064
0.1959,0.933,-0.3248,0.0442,0.129,-0.0569,-3.5175,-7.315,-2.8963,-19.212231100267775,11.047825592844658,-3.9193694999901556,5.14600000000064
0.2018,0.9312,-0.3291,0.0442,0.129,-0.0569,-3.5438,-7.7175,-2.6075,-19.40161431528495,11.3940121926302,-4.035132000041815,5.161000000007334
0.2054,0.9318,-0.3248,0.0462,0.1289,-0.0612,-3.5438,-7.7175,-2.6075,-19.262957575834186,11.64611891388763,-4.035132000041815,5.161000000007334
0.2054,0.9318,-0.3256,0.0462,0.1289,-0.0612,-3.6312,-7.4025,-2.6688,-19.261481968644983,11.720971726727198,-4.153572000065945,5.177000000010594
0.2031,0.9309,-0.3256,0.0459,0.1286,-0.0578,-3.5525,-7.6737,-2.5988,-19.274100444642634,11.662722317675282,-4.153572000065945,5.177000000010594
0.2082,0.929,-0.3279,0.0459,0.1286,-0.0578,-3.6837,-7.2625,-2.1088,-19.400952748954122,11.860847441756608,-4.2697720000367765,5.1930000000065775
0.2069,0.9281,-0.3316,0.0459,0.1286,-0.0578,-3.6837,-7.2625,-2.1088,-19.598792200388065,11.857306259546071,-4.2697720000367765,5.1930000000065775
0.2088,0.9249,-0.327,0.0442,0.1298,-0.0517,-3.78,-6.7288,-1.715,-19.501076796037246,11.97745540425493,-4.37070400003286,5.208000000005995
0.2107,0.9287,-0.3277,0.0442,0.1298,-0.0517,-3.185,-6.8425,-2.0387,-19.453621827531308,12.050358636210865,-4.37070400003286,5.208000000005995
0.2107,0.9287,-0.3277,0.0446,0.1285,-0.0543,-2.3625,-7.1137,-2.4237,-19.44208732921665,12.068697199053284,-4.484523200004289,5.224000000001979
0.2151,0.9343,-0.3288,0.0446,0.1285,-0.0543,-2.3625,-7.1137,-2.4237,-19.40703768487724,12.199069906040028,-4.484523200004289,5.224000000001979
0.2158,0.9362,-0.3288,0.0446,0.1285,-0.0543,-2.3888,-6.685,-2.3625,-19.37092079366015,12.249558425394731,-4.584798200049038,5.239000000008673
0.2178,0.931,-0.3268,0.0457,0.1288,-0.065,-3.01,-5.775,-2.5025,-19.350359700611524,12.388634635559269,-4.584798200049038,5.239000000008673
0.2158,0.9285,-0.3295,0.0457,0.1288,-0.065,-2.6075,-5.2762,-3.4388,-19.47758379651635,12.368711382855206,-4.669217400027847,5.255000000004657
0.2158,0.9285,-0.3296,0.0461,0.1272,-0.0475,-2.6075,-5.2762,-3.4388,-19.522448706868023,12.360230096988127,-4.669217400027847,5.255000000004657
0.2131,0.9265,-0.3296,0.0461,0.1272,-0.0475,-2.2575,-4.69,-3.4125,-19.560837486347474,12.2815403884995,-4.74425740000901,5.27100000000064
0.2109,0.927,-0.3287,0.0427,0.1265,-0.059,-1.9425,-4.5325,-3.605,-19.539022895856846,12.182046039744034,-4.81224490003935,5.286000000007334
0.2133,0.9265,-0.3295,0.0427,0.1265,-0.059,-1.9425,-4.5325,-3.5788,-19.561579446171947,12.213737312966222,-4.81224490003935,5.286000000007334
0.2073,0.9263,-0.3309,0.0427,0.1265,-0.059,-1.9512,-4.6463,-3.5788,-19.618478972478677,12.038310617745086,-4.88658570002069,5.302000000003318
0.2043,0.9298,-0.3298,0.043,0.1281,-0.055,-2.0738,-4.235,-4.1388,-19.564348384013993,11.896889128547588,-4.88658570002069,5.302000000003318
0.2043,0.9298,-0.3298,0.043,0.1281,-0.055,-1.9863,-4.1737,-3.8675,-19.54366403193483,11.798849774660361,-4.9491912000182605,5.317000000002736
0.2066,0.9314,-0.3273,0.0434,0.1282,-0.0567,-1.9863,-4.1737,-3.8675,-19.435433975746275,11.809262274225587,-4.9491912000182605,5.317000000002736
0.2025,0.9329,-0.3298,0.0434,0.1282,-0.0567,-1.8988,-4.2613,-4.0512,-19.45525069999654,11.70082012361806,-5.017372000001146,5.332999999998719
0.1988,0.9356,-0.3274,0.0434,0.1282,-0.0567,-2.0912,-4.6638,-4.1038,-19.3522047241833,11.546252961053401,-5.017372000001146,5.332999999998719
0.1985,0.9341,-0.3269,0.0439,0.1247,-0.0538,-2.345,-5.2238,-4.2613,-19.310784357828336,11.469972536045898,-5.100952800018173,5.349000000001979
0.1985,0.9341,-0.3281,0.0439,0.1247,-0.0538,-2.345,-5.2238,-4.2613,-19.33851647651525,11.42048115496526,-5.100952800018173,5.349000000001979
0.197,0.9356,-0.3281,0.0445,0.1264,-0.0527,-2.5725,-5.4338,-4.8562,-19.32939235697856,11.420409507300116,-5.182459800054546,5.364000000008673
0.1995,0.9348,-0.3257,0.0445,0.1264,-0.0527,-3.1325,-5.81,-4.9963,-19.242433049961623,11.417197449604759,-5.182459800054546,5.364000000008673
0.2025,0.9338,-0.3237,0.0445,0.1264,-0.0527,-3.5963,-6.5275,-5.3987,-19.149085093582702,11.474243699069671,-5.286899800028329,5.380000000004657
0.2042,0.9321,-0.3261,0.0431,0.1282,-0.048,-3.5963,-6.5275,-5.3987,-19.249915505613128,11.547788388478793,-5.286899800028329,5.380000000004657
0.2062,0.9294,-0.3314,0.0431,0.1282,-0.048,-3.955,-6.8775,-5.2675,-19.540433621088503,11.622380967046697,-5.390062300024326,5.3950000000040745
0.2062,0.9294,-0.3314,0.0435,0.128,-0.0547,-3.4738,-7.1487,-4.795,-19.60357100669625,11.632766752293211,-5.390062300024326,5.3950000000040745
0.2087,0.9282,-0.326,0.0435,0.128,-0.0547,-3.01,-7.4288,-5.5125,-19.424124194585275,11.769281774218156,-5.508923099994489,5.411000000000058
0.2133,0.9223,-0.3271,0.0435,0.128,-0.0547,-3.01,-7.4288,-5.5125,-19.497838452221128,11.978181353577662,-5.508923099994489,5.411000000000058
0.2148,0.9218,-0.3261,0.0452,0.127,-0.0493,-2.6425,-7.3412,-5.5388,-19.48704277520781,12.1452993481814,-5.6263823000184185,5.427000000003318
0.214,0.9223,-0.326,0.0452,0.127,-0.0493,-2.45,-6.7375,-4.8212,-19.473618663170395,12.151808543777717,-5.6263823000184185,5.427000000003318
0.214,0.9227,-0.3255,0.0433,0.1238,-0.0492,-2.0912,-6.2562,-4.7425,-19.447713643919474,12.170689173884988,-5.720225300060297,5.442000000010012
0.2135,0.9227,-0.3255,0.0433,0.1238,-0.0492,-2.0912,-6.2562,-4.7425,-19.43765288355456,12.184804045337348,-5.720225300060297,5.442000000010012
0.2099,0.9237,-0.3272,0.0441,0.1278,-0.044,-0.8575,-6.2387,-4.445,-19.454923886069658,12.157166679349471,-5.82004450003524,5.458000000005995
0.2099,0.9264,-0.3288,0.0441,0.1278,-0.044,-0.7962,-5.9325,-4.1388,-19.47372531255082,12.113720417157156,-5.82004450003524,5.458000000005995
0.2105,0.9287,-0.3282,0.0441,0.1278,-0.044,-0.7962,-5.3463,-4.5237,-19.47143839067294,12.101107959486008,-5.900239000032128,5.473000000005413
0.2091,0.9304,-0.3298,0.0454,0.1278,-0.0469,-0.56,-5.3463,-4.5237,-19.47338403116185,12.065937521625244,-5.900239000032128,5.473000000005413
0.2091,0.9304,-0.3298,0.0454,0.1278,-0.0469,0.1838,-4.9525,-4.5588,-19.491737155466005,12.041686831027029,-5.979479000012237,5.489000000001397
0.21,0.9315,-0.3311,0.045,0.126,-0.0552,-0.1488,-5.0838,-4.375,-19.51214365702974,12.025769557994147,-5.979479000012237,5.489000000001397
0.2089,0.9339,-0.3248,0.045,0.126,-0.0552,-0.1488,-5.0838,-4.375,-19.422097970819333,11.994546182727914,-6.060819800028808,5.505000000004657
0.2145,0.9331,-0.3288,0.045,0.126,-0.0552,-0.2362,-4.7512,-4.3137,-19.41969617607111,12.078401198252903,-6.060819800028808,5.505000000004657
0.2161,0.9322,-0.3269,0.047,0.1258,-0.0617,-0.2975,-4.0163,-4.095,-19.402609983481398,12.191190949051512,-6.12106430002647,5.5200000000040745
0.2161,0.9321,-0.3265,0.047,0.1258,-0.0617,-0.2187,-3.08,-4.1825,-19.38011929842422,12.251948639492339,-6.12106430002647,5.5200000000040745
0.2157,0.9321,-0.3265,0.0418,0.125,-0.0507,-0.2187,-3.08,-4.1825,-19.362787347296543,12.279347051045827,-6.1703443000365095,5.536000000007334
0.2155,0.9306,-0.3239,0.0418,0.125,-0.0507,-0.6125,-2.1613,-4.0512,-19.347692246872413,12.304826310786176,-6.1703443000365095,5.536000000007334
0.2129,0.9304,-0.329,0.0418,0.125,-0.0507,-0.665,-1.12,-3.99,-19.364061070741496,12.2441910829396,-6.1871443000358575,5.551000000006752
0.2105,0.93,-0.3268,0.0438,0.1271,-0.0494,-0.0875,-0.1138,-4.1125,-19.363252053648427,12.16313756533128,-6.1871443000358575,5.551000000006752
0.2069,0.931,-0.3237,0.0438,0.1271,-0.0494,-0.0875,-0.1138,-4.1125,-19.305876664587203,12.031645977750374,-6.1889651000354,5.567000000002736
0.2069,0.931,-0.3237,0.043,0.1251,-0.047,0.0787,0.1225,-4.41,-19.25596485990676,11.97709955092408,-6.1889651000354,5.567000000002736
0.2023,0.9305,-0.327,0.043,0.1251,-0.047,0.42,0.0175,-4.7863,-19.307576728737576,11.952029111532003,-6.188685100035343,5.583000000005995
0.1999,0.9329,-0.3272,0.043,0.1251,-0.047,1.12,0.2187,-5.145,-19.3199533648173,11.835192335048763,-6.18540460003547,5.598000000005413
0.199,0.9353,-0.3279,0.045,0.127,-0.0546,1.12,0.2187,-5.145,-19.319848002478036,11.727058181459109,-6.18540460003547,5.598000000005413
0.2017,0.9347,-0.3289,0.045,0.127,-0.0546,1.0237,0.2013,-5.215,-19.35985255318864,11.668573573444487,-6.182183800036279,5.614000000001397
0.2017,0.9347,-0.3259,0.0438,0.1274,-0.0498,0.7613,0.035,-5.1887,-19.28254094558303,11.63071043200459,-6.182183800036279,5.614000000001397
0.2055,0.9307,-0.3259,0.0438,0.1274,-0.0498,1.0588,0.3588,-5.4075,-19.292331125079514,11.680820840781937,-6.176801800033878,5.629000000008091
0.2042,0.9324,-0.3262,0.044,0.1281,-0.0521,1.0588,0.3588,-5.4075,-19.28624536716755,11.680393719931406,-6.176801800033878,5.629000000008091
0.2068,0.9287,-0.3255,0.044,0.1281,-0.0521,1.12,0.56,-5.6087,-19.304124025844914,11.76081966668663,-6.167841800036126,5.6450000000040745
0.2071,0.9282,-0.3314,0.044,0.1281,-0.0521,1.5662,1.0063,-5.9325,-19.5366800916776,11.815786592237906,-6.167841800036126,5.6450000000040745
0.2043,0.9306,-0.3254,0.0436,0.1278,-0.0518,1.5662,1.0063,-5.845,-19.358567551177767,11.762091463426687,-6.151741000032846,5.661000000007334
0.2043,0.9306,-0.3254,0.0436,0.1278,-0.0518,1.4963,0.9187,-5.845,-19.301430266536624,11.735098040057904,-6.151741000032846,5.661000000007334
0.2022,0.9318,-0.3274,0.0426,0.127,-0.0497,1.12,1.1812,-5.8275,-19.337526680688583,11.653858331644463,-6.134023000042128,5.675999999999476
0.2061,0.9323,-0.3309,0.0426,0.127,-0.0497,1.435,0.9887,-5.915,-19.47221129865387,11.71270876226841,-6.134023000042128,5.675999999999476
0.2065,0.9362,-0.3276,0.0426,0.127,-0.0497,1.435,0.9887,-5.915,-19.34924557287254,11.737364205488245,-6.118203800038906,5.692000000002736
0.209,0.9334,-0.3245,0.0449,0.1288,-0.0559,1.7675,0.8313,-5.8625,-19.224722134259224,11.839947920319688,-6.118203800038906,5.692000000002736
0.209,0.9334,-0.3283,0.0449,0.1288,-0.0559,0.9187,1.5838,-5.5912,-19.315077914676614,11.876898558140665,-6.094446800028304,5.70700000000943
0.209,0.932,-0.3283,0.0454,0.127,-0.0526,0.6125,2.1,-5.5388,-19.362747597272875,11.903572585002888,-6.094446800028304,5.70700000000943
0.2044,0.9315,-0.3304,0.0454,0.127,-0.0526,0.6125,2.1,-5.5388,-19.451132437855566,11.814650752640278,-6.060846800036738,5.723000000005413
0.2056,0.9313,-0.3272,0.0454,0.127,-0.0526,0.805,2.4938,-5.3113,-19.398264729980518,11.799319901762441,-6.060846800036738,5.723000000005413
0.2027,0.9301,-0.3282,0.0444,0.1265,-0.0504,0.6475,2.2313,-5.2413,-19.41865137751809,11.747588445281108,-6.025146000029465,5.739000000008673
0.1972,0.9313,-0.3314,0.0444,0.1265,-0.0504,0.3675,1.96,-4.7425,-19.49807276056775,11.700201872303762,-6.025146000029465,5.739000000008673
0.1972,0.9313,-0.3314,0.0423,0.1258,-0.0498,0.3675,1.96,-4.7425,-19.54023199732456,11.657638075455859,-5.995746000044867,5.754000000000815
0.1972,0.9309,-0.3318,0.0423,0.1258,-0.0498,0.6475,1.75,-4.7425,-19.58182088373968,11.619680871652319,-5.995746000044867,5.754000000000815
0.1975,0.9323,-0.3321,0.0423,0.1258,-0.0498,0.49,0.91,-4.8038,-19.59430124718265,11.603166214011146,-5.981186000041901,5.7700000000040745
0.1999,0.9336,-0.3313,0.0431,0.1275,-0.0538,1.1113,0.3237,-4.8038,-19.559355749478748,11.59353964233386,-5.981186000041901,5.7700000000040745
0.2028,0.9369,-0.3287,0.0431,0.1275,-0.0538,1.1113,0.3237,-4.8038,-19.419021643907154,11.591092288936519,-5.976330500042089,5.7850000000034925
0.2028,0.9369,-0.3306,0.0442,0.1275,-0.0566,1.4963,0.0787,-5.04,-19.43049531161296,11.582663558603173,-5.976330500042089,5.7850000000034925
0.2074,0.937,-0.3306,0.0442,0.1275,-0.0566,0.665,-0.49,-5.0225,-19.43254350791991,11.61232306430584,-5.984170500043686,5.801000000006752
0.2109,0.9345,-0.327,0.0442,0.1282,-0.0502,0.665,-0.49,-5.2675,-19.3531530928825,11.732747358455434,-5.984170500043686,5.801000000006752
0.211,0.9296,-0.3278,0.0443,0.1282,-0.0502,0.4375,-0.1663,-5.2675,-19.387697405792846,11.83472361769298,-5.986831300044228,5.817000000010012
0.2059,0.9296,-0.33,0.0443,0.1282,-0.0502,0.595,0.5425,-5.2238,-19.470193467991482,11.822729358257968,-5.986831300044228,5.817000000010012
0.2028,0.9305,-0.3261,0.0445,0.1285,-0.0488,0.3063,0.1663,-5.1625,-19.39940568471318,11.775763468719889,-5.984336800045535,5.832000000002154
0.2028,0.9305,-0.3261,0.0445,0.1285,-0.0488,0.3063,0.1663,-5.1625,-19.360567698734407,11.739820910262718,-5.984336800045535,5.832000000002154
0.1997,0.9281,-0.3293,0.0446,0.1278,-0.0546,0.3938,-0.4462,-5.5825,-19.443795350815705,11.623429801842985,-5.991476000046989,5.848000000005413
0.1986,0.929,-0.3303,0.0446,0.1278,-0.0546,0.2887,-0.14,-5.67,-19.50120497237526,11.517977427219405,-5.991476000046989,5.848000000005413
0.2023,0.9299,-0.3284,0.0446,0.1278,-0.0546,0.5075,-0.525,-5.53,-19.47580274455355,11.547984066933141,-5.999351000046683,5.863000000004831
0.2041,0.9293,-0.3314,0.0435,0.1282,-0.0417,0.5075,-0.525,-5.53,-19.552226227912055,11.60427260012166,-5.999351000046683,5.863000000004831
0.2041,0.9293,-0.3314,0.0435,0.1282,-0.0417,0.2713,-0.9538,-5.5388,-19.585114578129932,11.638154646732648,-6.014611800049792,5.879000000008091
0.2022,0.9304,-0.3319,0.043,0.126,-0.0545,1.1812,-0.6737,-5.6788,-19.615094500748125,11.606562840769259,-6.014611800049792,5.879000000008091
0.206,0.9302,-0.3316,0.043,0.126,-0.0545,0.5775,-1.0063,-5.2325,-19.617793132709405,11.654815747783987,-6.03071260004575,5.8950000000040745
0.2048,0.9307,-0.3317,0.043,0.126,-0.0545,0.5775,-1.0063,-5.2325,-19.616849346089896,11.670013478746343,-6.03071260004575,5.8950000000040745
0.2041,0.9319,-0.329,0.0463,0.1288,-0.0542,0.2187,-1.2687,-5.0575,-19.544122542442516,11.669811552940761,-6.049743100045012,5.9100000000034925
0.2063,0.931,-0.3281,0.0463,0.1288,-0.0542,-0.28,-1.4787,-4.76,-19.519116344296577,11.681580024087127,-6.049743100045012,5.9100000000034925
0.2063,0.931,-0.3281,0.0448,0.1278,-0.0546,0.0088,-1.1025,-4.4713,-19.482685273255246,11.715693965580225,-6.067383100048605,5.926000000006752
0.2025,0.9323,-0.3328,0.0448,0.1278,-0.0546,0.0088,-1.1025,-4.4713,-19.538529083519062,11.672747186362779,-6.083920600039942,5.940999999998894
0.2036,0.934,-0.3307,0.0448,0.1278,-0.0546,-0.1663,-1.1287,-4.2613,-19.527878458087034,11.650060396605518,-6.083920600039942,5.940999999998894
0.2087,0.9337,-0.3313,0.0418,0.1262,-0.0531,-0.2713,-1.6712,-4.2438,-19.52946738937334,11.743257651509847,-6.11065980004539,5.957000000002154
0.2103,0.9338,-0.3326,0.0418,0.1262,-0.0531,-0.28,-1.085,-3.9375,-19.54387470291087,11.855578034152833,-6.11065980004539,5.957000000002154
0.2103,0.9338,-0.3326,0.0426,0.1274,-0.058,-0.28,-1.085,-3.9375,-19.55552787160073,11.914129862740744,-6.128019800048927,5.973000000005413
0.2114,0.9335,-0.3339,0.0426,0.1274,-0.058,0.5337,-0.7,-4.1912,-19.62001317712437,11.963146015666188,-6.128019800048927,5.973000000005413
0.2135,0.9304,-0.3314,0.0426,0.1277,-0.0561,-0.1225,-0.4462,-4.235,-19.615894167179526,12.053029951536509,-6.134712800048667,5.988000000004831
0.2117,0.9325,-0.3329,0.0426,0.1277,-0.0561,-0.1225,-0.4462,-4.235,-19.624521861451306,12.058987776876021,-6.134712800048667,5.988000000004831
0.2127,0.9322,-0.3306,0.0426,0.1277,-0.0561,-0.7175,-0.8225,-4.06,-19.608155270172794,12.093311756590564,-6.147872800051348,6.004000000008091
0.2153,0.9236,-0.3314,0.0415,0.1263,-0.0531,-0.6388,-0.175,-4.27,-19.622393370320633,12.197487083336389,-6.147872800051348,6.004000000008091
0.2153,0.9236,-0.3314,0.0415,0.1263,-0.0531,-0.7262,0.3063,-4.1388,-19.64256113875773,12.2717482288754,-6.143278300053756,6.019000000000233
0.212,0.919,-0.3348,0.0422,0.1277,-0.0533,-0.7262,0.3063,-4.1388,-19.707533939627403,12.25417941559889,-6.143278300053756,6.019000000000233
0.2115,0.924,-0.3306,0.0422,0.1277,-0.0533,0.0,0.5425,-4.5413,-19.7004782800942,12.232166201296886,-6.134598300051987,6.0350000000034925
0.214,0.9249,-0.3343,0.0422,0.1277,-0.0533,0.6212,0.2537,-4.9437,-19.791815971089733,12.235717569748205,-6.134598300051987,6.0350000000034925
0.2136,0.9263,-0.3335,0.0428,0.1271,-0.068,1.155,1.1463,-5.04,-19.797329640532432,12.236578270051703,-6.116257500048251,6.051000000006752
0.2136,0.9263,-0.3335,0.0428,0.1271,-0.068,1.155,1.1463,-5.04,-19.79939364707996,12.237305094398327,-6.116257500048251,6.051000000006752
0.2163,0.9257,-0.331,0.0443,0.1278,-0.0553,1.2337,1.2687,-5.5475,-19.72047912859114,12.307280036125231,-6.097227000048989,6.06600000000617
0.2173,0.9243,-0.3323,0.0443,0.1278,-0.0553,1.4612,1.5225,-5.6788,-19.75621640896532,12.382920337417406,-6.097227000048989,6.06600000000617
0.2172,0.9231,-0.3329,0.0443,0.1278,-0.0553,1.645,1.5838,-5.32,-19.807316545210977,12.413907750173736,-6.071886200043827,6.08200000000943
0.2141,0.9225,-0.3262,0.0431,0.1272,-0.0613,1.645,1.5838,-5.32,-19.57930878162614,12.391226732868946,-6.071886200043827,6.08200000000943
0.2061,0.9231,-0.3339,0.0431,0.1272,-0.0613,2.0738,2.2575,-5.8538,-19.800477280088376,12.124572668633554,-6.038023700061567,6.097000000001572
0.2061,0.9231,-0.3339,0.0413,0.1277,-0.0556,1.9338,2.7213,-6.125,-19.861116536061694,11.975129197885547,-6.038023700061567,6.097000000001572
0.1967,0.9265,-0.33,0.0413,0.1277,-0.0556,1.8813,1.9688,-5.9062,-19.68026768513094,11.63426895436047,-6.006522900055149,6.113000000004831
0.2017,0.9266,-0.3303,0.0413,0.1277,-0.0556,1.8813,1.9688,-5.9062,-19.6372766149814,11.610222468754175,-6.006522900055149,6.113000000004831
0.2112,0.9261,-0.3321,0.0424,0.1287,-0.0552,2.2575,1.1988,-6.0287,-19.703859424040818,11.883066420339999,-5.987342100059964,6.129000000000815
0.2283,0.9252,-0.3309,0.0424,0.1287,-0.0552,2.1525,1.1988,-6.3787,-19.686293713927892,12.60573398826216,-5.987342100059964,6.129000000000815
0.2283,0.9252,-0.3153,0.0437,0.1277,-0.0481,4.3925,1.05,-6.8513,-18.96549433842853,12.966113851271267,-5.971592100052935,6.144000000007509
0.2405,0.9174,-0.3259,0.0437,0.1277,-0.0481,2.3012,1.05,-6.8513,-19.402225666812456,13.57221699235301,-5.971592100052935,6.144000000007509
0.2345,0.9101,-0.3346,0.0437,0.1282,-0.0646,2.345,2.5375,-7.595,-19.983055610785744,13.58908260482586,-5.930992100044664,6.160000000010768
0.2161,0.9099,-0.332,0.0445,0.1282,-0.0646,3.1325,4.2613,-8.435,-20.032283679492455,12.798260882167664,-5.930992100044664,6.160000000010768
0.2052,0.9163,-0.3359,0.0445,0.1282,-0.0646,3.1325,4.2613,-10.675,-20.11061113801617,12.009648593893258,-5.867072600078149,6.17500000000291
0.1955,0.9165,-0.3389,0.045,0.1287,-0.0547,3.7362,4.6287,-9.0125,-20.258438290699104,11.448789051211925,-5.867072600078149,6.17500000000291
0.1955,0.9165,-0.3389,0.045,0.1287,-0.0547,3.8325,4.5062,-9.59,-20.286701363481445,11.337390429854533,-5.79497340006346,6.19100000000617
0.1942,0.9252,-0.3411,0.0448,0.1278,-0.0564,5.1537,3.8937,-9.4762,-20.2451082086876,11.176257838038651,-5.79497340006346,6.19100000000617
0.1948,0.9354,-0.3393,0.0448,0.1278,-0.0564,5.1537,3.8937,-9.4762,-19.98349454373425,11.094494998120703,-5.7326742000790984,6.207000000002154
0.1959,0.9439,-0.3386,0.0448,0.1278,-0.0564,5.0312,3.1063,-8.995,-19.772232949850174,11.061678334937657,-5.7326742000790984,6.207000000002154
0.1968,0.9525,-0.3418,0.045,0.1291,-0.0518,4.5937,2.3888,-8.225,-19.74550791173571,11.01802649919385,-5.696842200080489,6.222000000001572
0.1968,0.9525,-0.3418,0.045,0.1291,-0.0518,3.1762,1.6363,-7.4288,-19.741392520967093,11.008696468726209,-5.696842200080489,6.222000000001572
0.2014,0.9556,-0.3384,0.0478,0.13,-0.0606,3.1762,1.6363,-7.4288,-19.551621666973485,11.17278968303023,-5.670661400075155,6.238000000004831
0.1997,0.9547,-0.3417,0.0478,0.13,-0.0606,1.925,1.82,-7.35,-19.65189869864226,11.150331447658417,-5.6433614000762145,6.253000000004249
0.1945,0.9514,-0.3409,0.0478,0.13,-0.0606,0.8575,1.3563,-6.4837,-19.687443516392424,10.991302938220795,-5.6433614000762145,6.253000000004249
0.1941,0.9485,-0.3389,0.045,0.1298,-0.0616,0.0175,0.3675,-6.1512,-19.678539240759388,10.94407069505905,-5.637481400075017,6.269000000007509
0.1941,0.9438,-0.3413,0.045,0.1298,-0.0616,0.0175,0.3675,-6.1512,-19.74906246172996,10.945108186588905,-5.637481400075017,6.269000000007509
0.1941,0.9438,-0.3413,0.046,0.1283,-0.061,-1.4438,0.0,-6.0725,-19.812628869908412,10.945547787388286,-5.637481400075017,6.2850000000034925
0.194,0.9385,-0.3435,0.046,0.1283,-0.061,-2.3712,-0.2887,-5.9588,-20.001360413957737,10.966539732980054,-5.637481400075017,6.2850000000034925
0.1936,0.935,-0.3404,0.046,0.1283,-0.061,-2.7562,-1.0237,-6.055,-20.003705476216865,10.990368463157894,-5.652836900074421,6.30000000000291
0.1962,0.9327,-0.3381,0.0459,0.1296,-0.0624,-2.7562,-1.0237,-6.055,-19.949553557668356,11.097436766299989,-5.652836900074421,6.30000000000291
0.199,0.9298,-0.3385,0.0459,0.1296,-0.0624,-3.1237,-1.715,-5.8625,-19.989180660755522,11.23475662149635,-5.6802769000800115,6.31600000000617
0.199,0.9298,-0.3385,0.0446,0.13,-0.0643,-3.2462,-2.5812,-5.8275,-20.000304111647715,11.301980887271542,-5.6802769000800115,6.31600000000617
0.2022,0.9299,-0.3326,0.0446,0.13,-0.0643,-3.2462,-2.5812,-5.4687,-19.766425871479814,11.404153624300132,-5.718994900078509,6.331000000005588
0.2033,0.9279,-0.3344,0.0446,0.1295,-0.0585,-3.3075,-2.4413,-5.4687,-19.80464221486713,11.496324716736282,-5.718994900078509,6.331000000005588
0.2058,0.9289,-0.3374,0.047,0.1295,-0.0585,-3.4125,-2.5287,-5.5563,-19.921837442486073,11.60626637126352,-5.759454100086751,6.347000000008848
0.2056,0.9293,-0.335,0.047,0.1295,-0.0585,-2.8612,-2.8,-5.3637,-19.852929859806185,11.657103082739019,-5.759454100086751,6.347000000008848
0.2056,0.9299,-0.3348,0.0439,0.13,-0.0624,-2.8612,-2.8,-5.3637,-19.816413106675714,11.688881995635654,-5.8042541000755055,6.363000000004831
0.2056,0.9299,-0.3348,0.0439,0.13,-0.0624,-2.4237,-2.5988,-5.635,-19.806196435459608,11.716284407558437,-5.8042541000755055,6.363000000004831
0.2076,0.9285,-0.3308,0.0468,0.1297,-0.0585,-2.7475,-2.4237,-5.5563,-19.670470974468888,11.789377747840021,-5.840609600074095,6.378000000004249
0.207,0.9267,-0.3334,0.0468,0.1297,-0.0585,-2.52,-1.7413,-5.0925,-19.748385632420536,11.80478872532712,-5.840609600074095,6.378000000004249
0.2069,0.9261,-0.334,0.0468,0.1297,-0.0585,-2.52,-1.7413,-5.0925,-19.804129359559465,11.816993181605964,-5.8684704000671015,6.394000000000233
0.2037,0.9232,-0.3331,0.0458,0.1292,-0.0435,-2.2138,-2.03,-4.8387,-19.82667822566244,11.815449501178074,-5.8684704000671015,6.394000000000233
0.2037,0.9232,-0.3331,0.0458,0.1292,-0.0435,-2.2662,-1.6187,-4.8738,-19.835131371767726,11.813854568593776,-5.892750900077937,6.409000000006927
0.197,0.9273,-0.3385,0.0453,0.1285,-0.0582,-2.3012,-1.3038,-4.8387,-19.9754189436604,11.804975073771114,-5.892750900077937,6.409000000006927
0.1884,0.9305,-0.3353,0.0453,0.1285,-0.0582,-2.3012,-1.3038,-4.8387,-19.873448650416393,11.787813681042845,-5.913611700082187,6.425000000010186
0.1893,0.9335,-0.3346,0.0453,0.1285,-0.0582,-1.8288,-2.1437,-4.445,-19.786077612492853,11.502314447546333,-5.913611700082187,6.425000000010186
0.1962,0.9363,-0.3302,0.0466,0.128,-0.0589,-1.4438,-3.43,-4.5237,-19.612790615710097,11.421635046948538,-5.9684917000684115,6.44100000000617
0.2048,0.936,-0.3292,0.0466,0.128,-0.0589,-1.82,-3.9813,-4.585,-19.479497908596983,11.472981859859765,-5.9684917000684115,6.44100000000617
0.2048,0.936,-0.3292,0.0456,0.1315,-0.0591,-1.82,-3.9813,-4.585,-19.42163655722692,11.513386746605923,-6.028211200066094,6.456000000005588
0.2095,0.9321,-0.3281,0.0456,0.1315,-0.0591,-2.485,-3.6662,-4.1825,-19.402057601357537,11.697138042920278,-6.028211200066094,6.456000000005588
0.2092,0.9323,-0.3246,0.0456,0.1315,-0.0591,-2.1175,-3.3863,-4.6725,-19.27561473554069,11.738598537290878,-6.082392000052494,6.472000000001572
0.2136,0.9324,-0.3283,0.0441,0.1288,-0.0562,-2.6163,-3.3512,-4.865,-19.35802814724176,11.742739378682456,-6.082392000052494,6.472000000001572
0.2091,0.9284,-0.3276,0.0441,0.1288,-0.0562,-2.6163,-3.3512,-4.865,-19.410956478257923,11.745000250798427,-6.132660000074926,6.4870000000082655
0.2091,0.9284,-0.3276,0.0449,0.1288,-0.0561,-2.94,-2.5725,-4.445,-19.42879910158196,11.816612772496532,-6.132660000074926,6.4870000000082655
0.2079,0.9261,-0.3318,0.0449,0.1288,-0.0561,-2.6775,-2.0912,-4.515,-19.622013010307374,11.846207103342548,-6.166119200066527,6.503000000004249
0.2001,0.9273,-0.3265,0.0449,0.1288,-0.059,-2.6775,-2.0912,-4.83,-19.46820669555821,11.837618171765007,-6.166119200066527,6.503000000004249
0.1952,0.9239,-0.3326,0.045,0.129,-0.059,-2.2313,-2.4413,-4.83,-19.676942097519728,11.822664435609035,-6.210062600057717,6.52100000000064
0.1948,0.929,-0.3359,0.045,0.129,-0.059,-1.365,-2.7387,-5.2762,-19.769493810053625,11.625128287596679,-6.210062600057717,6.52100000000064
0.1958,0.9321,-0.3309,0.045,0.1275,-0.0592,-1.1638,-3.5875,-5.3725,-19.681309307560525,11.479431402209201,-6.263875100081731,6.536000000007334
0.1958,0.9321,-0.3309,0.045,0.1275,-0.0592,-1.1638,-3.5875,-5.3725,-19.62778165707065,11.383369189627302,-6.263875100081731,6.536000000007334
0.2019,0.935,-0.3288,0.0448,0.1292,-0.0543,-1.3212,-4.0163,-5.5388,-19.514886520669073,11.436394057130652,-6.328135900094822,6.552000000010594
0.2067,0.9356,-0.3289,0.0448,0.1292,-0.0543,-0.6475,-4.5325,-5.5213,-19.497921177840336,11.571007184009515,-6.328135900094822,6.552000000010594
0.2086,0.9368,-0.3287,0.0448,0.1292,-0.0543,-0.9625,-3.7275,-5.0575,-19.447569472484897,11.620527545091056,-6.384048400065532,6.567000000002736
0.2107,0.9371,-0.3222,0.0452,0.1274,-0.0552,-0.9625,-3.7275,-5.0575,-19.301571773509007,11.684853850128695,-6.384048400065532,6.567000000002736
0.2107,0.9371,-0.3222,0.0452,0.1274,-0.0552,-1.9512,-3.2725,-4.6463,-19.108733399655595,11.740098208260578,-6.436408400076199,6.583000000005995
0.2085,0.9348,-0.3243,0.0452,0.1271,-0.0562,-1.33,-2.9225,-4.6287,-19.119457836921747,11.769580123914503,-6.436408400076199,6.583000000005995
0.1985,0.9356,-0.3308,0.0452,0.1271,-0.0562,-1.4787,-2.5812,-4.7688,-19.292377766578916,11.732914157812562,-6.477707600065832,6.599000000001979
0.1917,0.9338,-0.33,0.0452,0.1271,-0.0562,-1.4787,-2.5812,-4.7688,-19.37612094607803,11.67062019503841,-6.477707600065832,6.599000000001979
0.1902,0.9326,-0.3275,0.0466,0.1276,-0.0542,-1.785,-3.22,-4.5588,-19.361336166028703,11.492333631402582,-6.526007600087387,6.614000000008673
0.187,0.9323,-0.3287,0.0466,0.1276,-0.0542,-1.9688,-3.3688,-4.4713,-19.396711036562802,11.275579415988247,-6.526007600087387,6.614000000008673
0.187,0.9323,-0.3287,0.0455,0.1288,-0.0563,-2.3275,-4.3313,-4.515,-19.41240246833164,11.132292828551659,-6.59963970008663,6.631000000008498
0.1918,0.9346,-0.3284,0.0455,0.1288,-0.0563,-2.3275,-4.3313,-4.515,-19.378943050441414,11.087946880035888,-6.59963970008663,6.631000000008498
0.1968,0.9365,-0.3251,0.0455,0.1288,-0.0563,-1.5575,-4.76,-4.13,-19.259163235802564,11.147062176759217,-6.671039700049226,6.64600000000064
0.2055,0.9362,-0.3254,0.0453,0.129,-0.0608,-2.3712,-4.8913,-3.395,-19.198756044221973,11.483366165534624,-6.671039700049226,6.64600000000064
0.2086,0.937,-0.3261,0.0453,0.129,-0.0608,-2.9488,-5.0312,-3.2725,-19.191988007529414,11.722677633041378,-6.751538900065626,6.6620000000039
0.2086,0.937,-0.3261,0.0443,0.1299,-0.0518,-2.9488,-5.0312,-3.2725,-19.190016231424842,11.81531527444705,-6.751538900065626,6.6620000000039
0.2067,0.932,-0.3266,0.0443,0.1299,-0.0518,-3.2113,-5.1625,-3.3425,-19.278950064802235,11.819019282618319,-6.834138900044891,6.677999999999884
0.2038,0.9288,-0.3249,0.0443,0.1277,-0.0564,-2.835,-4.3837,-3.0275,-19.279790918358334,11.743026724832605,-6.834138900044891,6.677999999999884
0.2004,0.9274,-0.3293,0.0436,0.1277,-0.0564,-2.835,-4.3837,-3.2987,-19.46778752739797,11.60105685004191,-6.899894400074236,6.6930000000065775
0.2003,0.9292,-0.329,0.0436,0.1277,-0.0564,-2.4762,-3.9987,-3.2987,-19.48741253567388,11.531090496358146,-6.899894400074236,6.6930000000065775
0.2054,0.9318,-0.3242,0.0434,0.1278,-0.0498,-2.0825,-4.8212,-3.3775,-19.30239158500787,11.667955036928056,-6.977033600089951,6.709000000009837
0.2054,0.9318,-0.3242,0.0434,0.1278,-0.0498,-2.5812,-4.9262,-3.71,-19.22280032565866,11.717391469532215,-7.05092660005124,6.724000000001979
0.2102,0.9314,-0.3255,0.0455,0.1274,-0.0522,-2.5812,-4.9262,-3.71,-19.25001074117562,11.882638765360685,-7.05092660005124,6.724000000001979
0.2144,0.9299,-0.3294,0.0455,0.1274,-0.0522,-2.2225,-4.4012,-3.5263,-19.411251113280755,12.0988176278903,-7.121345800065587,6.740000000005239
0.218,0.9323,-0.3227,0.0455,0.1274,-0.0522,-2.3888,-3.9375,-3.4738,-19.20342677800226,12.308543790047215,-7.121345800065587,6.740000000005239
0.2208,0.9282,-0.3245,0.0448,0.127,-0.0527,-1.7237,-3.0363,-3.605,-19.239674501454473,12.501623596851243,-7.169926600053392,6.756000000001222
0.2208,0.9282,-0.3267,0.0448,0.127,-0.0527,-1.7237,-3.0363,-3.605,-19.322236289126252,12.582368670635807,-7.169926600053392,6.756000000001222
0.2162,0.9255,-0.3267,0.0442,0.1255,-0.0529,-2.0038,-2.31,-3.6225,-19.39442056385624,12.494260971475741,-7.204576600068855,6.771000000007916
0.2106,0.9222,-0.322,0.0442,0.1255,-0.0529,-1.505,-1.7325,-3.8937,-19.32133765841954,12.33371750972215,-7.204576600068855,6.771000000007916
0.2046,0.9237,-0.3261,0.0442,0.1255,-0.0529,-0.7,-1.505,-4.0862,-19.340509911449065,12.100543881211275,-7.228656600073761,6.787000000011176
0.203,0.929,-0.3264,0.0435,0.1265,-0.0574,-0.7,-1.505,-4.0862,-19.34333189895211,11.90412322388488,-7.228656600073761,6.787000000011176
0.2039,0.9313,-0.327,0.0435,0.1265,-0.0574,-0.0088,-2.1437,-3.8238,-19.34466813446125,11.78614188871069,-7.260812100056916,6.802000000003318
0.2039,0.9313,-0.327,0.0434,0.127,-0.0518,-0.0787,-2.0912,-4.0862,-19.345469589379707,11.736422836028373,-7.260812100056916,6.802000000003318
0.208,0.9312,-0.3251,0.0434,0.127,-0.0518,-0.2013,-2.5463,-4.1388,-19.321420885810177,11.808219058824847,-7.301552900065216,6.8180000000065775
0.2142,0.9298,-0.3282,0.0434,0.127,-0.0518,-0.2013,-2.5463,-4.1388,-19.35030037411061,11.99532620787087,-7.301552900065216,6.8180000000065775
0.2158,0.9281,-0.3267,0.044,0.1281,-0.0503,-0.0263,-2.3363,-3.6575,-19.364195983341343,12.199887858169804,-7.338933700055833,6.834000000002561
0.2099,0.9294,-0.3247,0.044,0.1281,-0.0503,0.0875,-1.8025,-3.5612,-19.324076700687566,12.107242316290991,-7.338933700055833,6.834000000002561
0.2099,0.9294,-0.3291,0.0422,0.1264,-0.0571,0.21,-1.225,-3.8325,-19.397684535152973,12.062297492034205,-7.357308700064033,6.849000000009255
0.2087,0.9282,-0.3291,0.0422,0.1264,-0.0571,0.21,-1.225,-3.8325,-19.450127330042537,12.013078202013146,-7.357308700064033,6.849000000009255
0.2012,0.927,-0.3301,0.0422,0.127,-0.0458,0.3325,-1.1725,-4.095,-19.519192615490912,11.815515172562636,-7.376068700059324,6.865000000005239
0.2055,0.9287,-0.3259,0.0423,0.127,-0.0458,0.8838,-0.8662,-4.2175,-19.412923679991536,11.806974128272476,-7.376068700059324,6.865000000005239
0.2054,0.9298,-0.3259,0.0423,0.127,-0.0458,0.8838,-0.8662,-4.2525,-19.356291241002317,11.795297378954787,-7.389061700058821,6.880000000004657
0.2052,0.9312,-0.3289,0.0425,0.1258,-0.0494,0.5512,-0.4812,-4.2525,-19.406343696280633,11.773725109351693,-7.389061700058821,6.880000000004657
0.2052,0.9312,-0.3289,0.0425,0.1258,-0.0494,0.5425,-0.875,-4.6988,-19.430456535413867,11.768872889124463,-7.403061700061673,6.896000000007916
0.2034,0.9337,-0.3319,0.0426,0.1274,-0.0548,0.7962,-1.1812,-4.4887,-19.50888976990303,11.723378835223478,-7.403061700061673,6.896000000007916
0.2037,0.934,-0.3304,0.0426,0.1274,-0.0548,0.7962,-1.1812,-4.4887,-19.493115241065453,11.695240000432765,-7.421960900056929,6.9120000000039
0.2042,0.9333,-0.3327,0.0426,0.1274,-0.0548,0.49,-1.6013,-4.5763,-19.556749508720547,11.684280971239023,-7.421960900056929,6.9120000000039
0.2018,0.9326,-0.3342,0.0418,0.1266,-0.0484,0.4638,-1.6888,-4.3663,-19.635226153389503,11.6281973852254,-7.447292900055946,6.927000000003318
0.2018,0.9326,-0.3342,0.0418,0.1266,-0.0484,-0.0175,-2.4062,-4.2088,-19.661873791510633,11.583189313948992,-7.447292900055946,6.927000000003318
0.207,0.932,-0.33,0.0418,0.1273,-0.0534,-0.0175,-2.4062,-4.2088,-19.60729902869947,11.678180190739836,-7.485792100046282,6.9429999999993015
0.2061,0.9332,-0.3288,0.0418,0.1273,-0.0534,0.1663,-2.1,-4.095,-19.52693013494929,11.716364983427622,-7.485792100046282,6.9429999999993015
