AcclX,AcclY,AcclZ,MagX,MagY,MagZ,GyroX,GyroY,GyroZ,Roll,Pitch,Yaw,Time Elapsed(s)
0.2417,0.9688,-0.2892,0.0349,0.1182,-0.0282,4.8038,4.585,3.535,0,0,0,0.0
0.2327,0.9668,-0.2922,0.0333,0.121,-0.0319,3.0275,5.1712,3.6662,0,0,0,0.01600000000325963
0.2327,0.9668,-0.2887,0.0333,0.121,-0.0319,1.505,5.4862,3.0888,0,0,0,0.01600000000325963
0.2273,0.9637,-0.2887,0.0338,0.1178,-0.0308,1.505,5.4862,3.0888,0,0,0,0.01600000000325963
0.2213,0.9588,-0.2902,0.0338,0.1178,-0.0308,-0.7,3.64,1.5662,0,0,0,0.031000000002677552
0.223,0.9582,-0.2916,0.0338,0.1178,-0.0308,-2.135,2.0038,-0.1575,0,0,0,0.031000000002677552
0.2294,0.9577,-0.2893,0.031,0.1192,-0.0346,-3.4388,1.47,-1.75,0,0,0,0.04700000000593718
0.2356,0.9593,-0.2865,0.031,0.1192,-0.0346,-3.4388,1.47,-1.75,0,0,0,0.04700000000593718
0.2356,0.9593,-0.2865,0.0286,0.117,-0.0338,-3.9813,0.6475,-3.6137,0,0,0,0.062000000005355105
0.2373,0.9587,-0.2867,0.0286,0.117,-0.0338,-4.6988,0.1312,-5.075,0,0,0,0.062000000005355105
0.2375,0.9606,-0.2871,0.0286,0.117,-0.0338,-4.6988,0.1312,-5.075,0,0,0,0.07800000000133878
0.2379,0.9576,-0.2805,0.0303,0.1194,-0.0254,-5.2937,-0.035,-5.9938,0,0,0,0.07800000000133878
0.2382,0.9567,-0.2785,0.0303,0.1194,-0.0254,-6.1687,-0.525,-7.77,0,0,0,0.0940000000045984
0.2382,0.9567,-0.2805,0.0308,0.1179,-0.0278,-6.6762,-0.4812,-9.4062,0,0,0,0.0940000000045984
0.2386,0.9504,-0.2805,0.0308,0.1179,-0.0278,-6.6762,-0.4812,-9.4062,0,0,0,0.10900000000401633
0.2333,0.9489,-0.2757,0.0308,0.1209,-0.0225,-7.5687,-0.3588,-10.8675,0,0,0,0.10900000000401633
0.2319,0.9457,-0.2699,0.032,0.1209,-0.0225,-7.9975,0.035,-12.2063,0,0,0,0.12500000000727596
0.2273,0.9365,-0.275,0.032,0.1209,-0.0225,-8.19,0.3413,-13.6675,0,0,0,0.12500000000727596
0.2206,0.9312,-0.2741,0.0354,0.1191,-0.0294,-8.19,0.3413,-13.6675,0,0,0,0.14000000000669388
0.2206,0.9312,-0.2741,0.0354,0.1191,-0.0294,-7.945,0.2013,-15.0413,0,0,0,0.14000000000669388
0.2153,0.9301,-0.2725,0.0358,0.1195,-0.0276,-7.9887,-0.1838,-16.4412,0,0,0,0.15600000000267755
0.2155,0.9229,-0.2735,0.0358,0.1195,-0.0276,-6.9738,-0.0263,-16.8787,0,0,0,0.17200000000593718
0.2109,0.9227,-0.279,0.0358,0.1195,-0.0276,-6.9738,-0.0263,-16.8787,0,0,0,0.17200000000593718
0.2095,0.9234,-0.278,0.037,0.1185,-0.0244,-6.6238,-0.98,-17.6313,0,0,0,0.1870000000053551
0.2095,0.9234,-0.278,0.037,0.1185,-0.0244,-5.9237,-1.2075,-17.6138,0,0,0,0.1870000000053551
0.2091,0.9219,-0.2749,0.0397,0.1206,-0.0234,-4.2175,-1.5575,-17.6925,0,0,0,0.20300000000861473
0.2117,0.9231,-0.2728,0.0397,0.1206,-0.0234,-4.2175,-1.5575,-17.6925,0,0,0,0.20300000000861473
0.2088,0.9232,-0.2757,0.0397,0.1206,-0.0234,-3.1762,-1.89,-17.6313,0,0,0,0.20300000000861473
0.2101,0.927,-0.273,0.0402,0.1218,-0.021,-2.3625,-1.6975,-16.625,0,0,0,0.2180000000007567
0.2073,0.9335,-0.2733,0.0402,0.1218,-0.021,-2.3625,-1.6975,-16.3538,0,0,0,0.23400000000401633
0.2073,0.9335,-0.2733,0.0441,0.1214,-0.023,-1.2775,-1.75,-16.3538,0,0,0,0.23400000000401633
0.2075,0.9388,-0.281,0.0441,0.1214,-0.023,-0.2537,-0.77,-14.9975,0,0,0,0.25000000000727596
0.203,0.9424,-0.2838,0.0441,0.1214,-0.023,-0.4725,-0.8575,-14.105,0,0,0,0.25000000000727596
0.202,0.9438,-0.2821,0.0444,0.1222,-0.027,-0.4725,-0.8575,-14.105,0,0,0,0.2650000000066939
0.2021,0.9496,-0.2768,0.0444,0.1222,-0.027,0.0437,-0.5688,-13.1775,0,0,0,0.2650000000066939
0.2021,0.9496,-0.2924,0.0456,0.1218,-0.0247,-0.315,-0.6825,-11.9963,0,0,0,0.28100000000267755
0.205,0.9493,-0.2817,0.0456,0.1218,-0.0247,-0.1488,-0.6212,-11.3225,0,0,0,0.28100000000267755
0.2002,0.9487,-0.2815,0.0456,0.1222,-0.0267,-0.1488,-0.6212,-11.3225,0,0,0,0.2960000000020955
0.1992,0.9415,-0.2797,0.046,0.1222,-0.0267,-0.525,-0.0962,-9.94,0,0,0,0.2960000000020955
0.199,0.9313,-0.2868,0.046,0.1222,-0.0267,-0.6475,0.3762,-8.7587,0,0,0,0.3120000000053551
0.1981,0.9257,-0.294,0.046,0.123,-0.0205,0.6388,0.6037,-7.0525,0,0,0,0.3120000000053551
0.1981,0.9257,-0.294,0.046,0.123,-0.0205,0.6388,0.6037,-7.0525,0,0,0,0.32800000000861473
0.1967,0.9206,-0.2935,0.0474,0.122,-0.0302,1.8288,1.0412,-5.0225,0,0,0,0.32800000000861473
0.1992,0.9201,-0.2973,0.0474,0.122,-0.0302,3.1937,0.77,-3.4562,0,0,0,0.3430000000007567
0.2033,0.9236,-0.2959,0.0474,0.122,-0.0302,4.48,0.3413,-1.925,0,0,0,0.3430000000007567
0.2107,0.9285,-0.2926,0.0466,0.1225,-0.0373,4.48,0.3413,-1.925,0,0,0,0.35900000000401633
0.2107,0.9285,-0.2926,0.0466,0.1225,-0.0373,5.5563,0.2713,-0.2887,0,0,0,0.35900000000401633
0.2199,0.9271,-0.2859,0.0458,0.1214,-0.0274,7.0,1.7237,0.7175,0,0,0,0.37400000000343425
0.2241,0.9176,-0.2923,0.0458,0.1214,-0.0274,7.4288,2.7475,1.715,0,0,0,0.37400000000343425
0.2296,0.9106,-0.2946,0.0458,0.1214,-0.0274,7.4288,2.7475,1.715,0,0,0,0.3900000000066939
0.235,0.8973,-0.2946,0.0448,0.122,-0.0396,8.7937,3.8937,2.7912,0,0,0,0.3900000000066939
0.2397,0.8926,-0.2999,0.0448,0.122,-0.0396,9.7475,4.6463,4.27,0,0,0,0.4060000000099535
0.2397,0.8926,-0.2999,0.0411,0.1209,-0.0311,9.7475,4.6463,5.88,0,0,0,0.4060000000099535
0.2406,0.8949,-0.3015,0.0411,0.1209,-0.0311,11.1038,6.0462,5.88,0,0,0,0.4210000000020955
0.245,0.8952,-0.302,0.0411,0.1209,-0.0311,12.2063,6.7725,7.5512,0,0,0,0.4210000000020955
0.2493,0.8996,-0.3037,0.0388,0.1216,-0.033,13.5538,7.1838,8.4963,0,0,0,0.4370000000053551
0.2486,0.9107,-0.3009,0.0388,0.1216,-0.033,13.5538,7.1838,8.4963,0,0,0,0.4370000000053551
0.2486,0.9107,-0.3009,0.0372,0.1218,-0.0314,13.8512,7.8138,9.3013,0,0,0,0.45200000000477303
0.2503,0.9175,-0.299,0.0372,0.1218,-0.0314,13.5887,7.945,9.4762,0,0,0,0.45200000000477303
0.2505,0.9263,-0.2962,0.0372,0.1218,-0.0339,12.7487,9.0562,8.785,0,0,0,0.46800000000803266
0.253,0.9381,-0.2963,0.0346,0.122,-0.0339,12.7487,9.0562,8.785,0,0,0,0.4840000000112923
0.2512,0.9512,-0.296,0.0346,0.122,-0.0339,12.0312,9.7913,7.4375,0,0,0,0.4840000000112923
0.2463,0.9627,-0.2985,0.0309,0.1231,-0.0409,9.8525,9.9488,5.88,0,0,0,0.49900000000343425
0.2463,0.9627,-0.2985,0.0309,0.1231,-0.0409,7.2275,10.3863,4.1213,0,0,0,0.49900000000343425
0.2414,0.9721,-0.3018,0.0315,0.1201,-0.0434,7.2275,10.3863,4.1213,0,0,0,0.5150000000066939
0.2394,0.9783,-0.2955,0.0315,0.1201,-0.0434,5.5388,9.4937,0.9187,0,0,0,0.5150000000066939
0.2385,0.9901,-0.2927,0.0315,0.1201,-0.0434,2.7562,8.89,-2.6688,0,0,0,0.5300000000061118
0.2337,1.006,-0.2938,0.0303,0.1207,-0.057,-0.0263,8.435,-6.37,0,0,0,0.5300000000061118
0.2337,1.006,-0.2938,0.0303,0.1207,-0.057,-0.0263,8.435,-6.37,0,0,0,0.5460000000093714
0.2277,1.0245,-0.288,0.0312,0.1214,-0.041,-3.8937,7.28,-10.6225,0,0,0,0.5460000000093714
0.224,1.034,-0.2838,0.0312,0.1214,-0.041,-8.54,5.9062,-14.49,0,0,0,0.5620000000053551
0.2112,1.0339,-0.2854,0.0312,0.1214,-0.041,-15.26,4.4187,-19.04,0,0,0,0.5620000000053551
0.1995,1.0276,-0.283,0.034,0.1221,-0.0391,-13.4663,4.4187,-19.04,0,0,0,0.577000000004773
0.1846,1.0152,-0.2822,0.034,0.1221,-0.0391,-18.445,2.695,-23.73,0,0,0,0.577000000004773
0.1846,1.0152,-0.2822,0.037,0.1218,-0.0363,-22.4525,0.8225,-28.6563,0,0,0,0.5930000000080327
0.1735,0.9938,-0.2894,0.037,0.1218,-0.0363,-22.4525,0.8225,-28.6563,0,0,0,0.5930000000080327
0.1695,0.9753,-0.2884,0.037,0.1218,-0.0363,-24.7362,-1.5225,-32.9875,0,0,0,0.6080000000001746
0.1684,0.9518,-0.2899,0.0428,0.1225,-0.037,-26.46,-3.8937,-36.1025,0,0,0,0.6080000000001746
0.1739,0.9299,-0.2905,0.0428,0.1225,-0.037,-25.8475,-6.0025,-37.9575,0,0,0,0.6240000000034343
0.1739,0.9299,-0.2905,0.047,0.1228,-0.0317,-25.8475,-6.0025,-37.9575,0,0,0,0.6240000000034343
0.1804,0.9154,-0.2841,0.047,0.1228,-0.0317,-23.6425,-7.28,-38.885,0,0,0,0.6400000000066939
0.1883,0.9,-0.2809,0.047,0.1433,-0.0283,-20.6063,-8.0413,-38.2025,0,0,0,0.6400000000066939
0.1992,0.8848,-0.2783,0.051,0.1239,-0.0283,-17.7013,-7.8575,-35.7,0,0,0,0.6550000000061118
0.2058,0.8758,-0.2715,0.051,0.1239,-0.0283,-17.7013,-7.8575,-35.7,0,0,0,0.6550000000061118
0.2095,0.8779,-0.2632,0.0574,0.1253,-0.0284,-13.93,-7.3325,-31.955,0,0,0,0.6710000000093714
0.2095,0.8779,-0.2632,0.0574,0.1253,-0.0284,-10.6575,-5.8362,-27.2825,0,0,0,0.6710000000093714
0.2144,0.8809,-0.2627,0.0595,0.1263,-0.0178,-7.0875,-3.9025,-22.9513,0,0,0,0.6860000000015134
0.2141,0.8885,-0.2521,0.0595,0.1263,-0.0178,-7.0875,-3.9025,-22.9513,0,0,0,0.6860000000015134
0.2103,0.9,-0.2513,0.0595,0.1263,-0.0178,-4.6725,-1.5838,-18.41,0,0,0,0.702000000004773
0.2041,0.9059,-0.2499,0.0599,0.1276,-0.0259,-1.9512,1.7413,-14.6213,0,0,0,0.702000000004773
0.2041,0.9059,-0.2499,0.0599,0.1276,-0.0259,0.2187,4.48,-11.3837,0,0,0,0.7180000000007567
0.2003,0.9129,-0.2492,0.0618,0.1262,-0.0254,0.2187,4.48,-11.3837,0,0,0,0.7180000000007567
0.1883,0.916,-0.2508,0.0618,0.1262,-0.0254,1.9162,7.1487,-8.2775,0,0,0,0.7330000000074506
0.1807,0.9196,-0.2537,0.0618,0.1262,-0.0254,4.305,8.3737,-5.6613,0,0,0,0.7330000000074506
0.1707,0.9262,-0.251,0.0617,0.1276,-0.0299,4.305,10.6138,-3.0538,0,0,0,0.7490000000107102
0.1629,0.9338,-0.2516,0.0617,0.1276,-0.0299,6.0725,9.5638,-3.0538,0,0,0,0.7490000000107102
0.1629,0.9338,-0.2516,0.0615,0.1278,-0.0258,7.4113,9.1,-0.9538,0,0,0,0.7640000000028522
0.1621,0.9384,-0.2561,0.0615,0.1278,-0.0258,8.8813,9.0037,0.28,0,0,0,0.7640000000028522
0.159,0.9417,-0.2604,0.0615,0.1278,-0.0258,8.8813,9.0037,0.28,0,0,0,0.7800000000061118
0.1618,0.9457,-0.2588,0.061,0.126,-0.0303,10.675,9.135,1.2687,0,0,0,0.7800000000061118
0.1644,0.9465,-0.2654,0.061,0.126,-0.0303,12.8538,8.5138,2.1962,-14.683894382633344,8.756966760519099,0.0,0.7960000000020955
0.1644,0.9465,-0.2654,0.0577,0.1258,-0.0331,14.2625,7.9187,2.7387,-15.607262261486753,9.439443804978037,0.24547970007881886,0.827000000012049
0.17,0.9525,-0.2682,0.0577,0.1258,-0.0331,14.2625,7.9187,2.7387,-15.719063711355833,9.725089467979638,0.3642602000165934,0.842000000004191
0.1726,0.9605,-0.2681,0.0577,0.1258,-0.0342,14.9713,7.0788,3.1237,-15.602580560618888,9.812738124511473,0.3642602000165934,0.842000000004191
0.1775,0.9683,-0.2724,0.0573,0.1263,-0.0342,15.8287,6.755,3.4125,-15.706453744498086,9.993647170983978,0.3642602000165934,0.842000000004191
0.1772,0.9737,-0.2757,0.0573,0.1263,-0.0342,16.1175,5.635,3.8588,-15.803956013708698,9.936182436704984,0.3642602000165934,0.842000000004191
0.1826,0.9735,-0.2755,0.0552,0.1269,-0.0426,16.1175,5.635,3.8588,-15.80161412857852,10.210486597745069,0.4544202000349614,0.8580000000074506
0.1826,0.9735,-0.2755,0.0552,0.1269,-0.0426,15.715,4.865,3.43,-15.80149262811033,10.229313042134994,0.4544202000349614,0.8580000000074506
0.1853,0.971,-0.2762,0.0528,0.125,-0.0422,15.1112,4.2438,3.0712,-15.874138150909056,10.388538248367068,0.4544202000349614,0.8580000000074506
0.1854,0.9684,-0.2811,0.0528,0.125,-0.0422,14.3325,4.1038,2.59,-16.168679332657735,10.415854475872022,0.5200810000184792,0.8740000000034343
0.1834,0.9689,-0.2785,0.0528,0.125,-0.0422,14.3325,4.1038,2.59,-16.044288213455502,10.318468988020147,0.5200810000184792,0.8740000000034343
0.1888,0.9681,-0.2789,0.0501,0.1268,-0.0265,12.565,3.1762,2.4237,-16.069453972531512,10.591528488256063,0.5677240000166305,0.8890000000028522
0.1888,0.9681,-0.2789,0.0501,0.1268,-0.0265,11.41,2.8,1.7237,-16.071048263277227,10.612271808027902,0.5677240000166305,0.8890000000028522
0.1842,0.9665,-0.2836,0.0513,0.1277,-0.0422,9.7037,2.3888,0.2275,-16.331283614192245,10.386228000012645,0.6059448000244171,0.9050000000061118
0.1792,0.9631,-0.2836,0.0513,0.1277,-0.0422,9.7037,2.3888,0.2275,-16.401929873393325,10.144461934799118,0.6059448000244171,0.9050000000061118
0.1809,0.959,-0.2846,0.0513,0.1277,-0.0422,8.7238,1.3212,-0.9625,-16.518445115802,10.239597456990937,0.625762800023648,0.9200000000055297
0.1825,0.9565,-0.2853,0.0503,0.1285,-0.0411,7.0613,-0.1312,-2.7125,-16.599689828230073,10.346187280642841,0.625762800023648,0.9200000000055297
0.1804,0.9622,-0.2894,0.0503,0.1285,-0.0411,7.0613,-0.1312,-4.3488,-16.725933637962786,10.205033867084971,0.6236636000232204,0.9360000000087894
0.1804,0.9622,-0.2894,0.0485,0.1262,-0.0453,5.9938,-0.7875,-4.3488,-16.738157942111606,10.182734189485188,0.6236636000232204,0.9360000000087894
0.1817,0.9597,-0.2887,0.0485,0.1262,-0.0453,4.9262,-1.3212,-5.4425,-16.741965288699383,10.258457392055584,0.6025244000285268,0.952000000004773
0.182,0.9604,-0.2915,0.0485,0.1262,-0.0453,2.8525,-1.9775,-7.1312,-16.86032661414589,10.272550963387507,0.6025244000285268,0.952000000004773
0.1854,0.9604,-0.2898,0.0497,0.1262,-0.0504,2.8525,-1.9775,-7.1312,-16.802704371478416,10.414994066404939,0.5728619000296779,0.967000000004191
0.1881,0.9608,-0.2921,0.0497,0.1262,-0.0504,1.3125,-1.9162,-8.4175,-16.886019594757464,10.523259857165197,0.5728619000296779,0.967000000004191
0.1881,0.9608,-0.2921,0.0501,0.1278,-0.0457,0.035,-3.6575,-9.4937,-16.902563669730892,10.536658600941978,0.5143419000443675,0.9830000000001746
0.1952,0.9621,-0.288,0.0501,0.1278,-0.0457,-1.6975,-4.3663,-10.4738,-16.830246330273827,10.741590556832476,0.5143419000443675,0.9830000000001746
0.1988,0.9643,-0.2893,0.0501,0.1278,-0.0446,-1.6975,-4.3663,-10.4738,-16.790564068083487,10.931439752843685,0.44884740001514,0.9980000000068685
0.1981,0.9664,-0.2902,0.0507,0.1277,-0.0446,-2.3363,-4.4538,-11.1825,-16.777795195718042,11.037141051146447,0.44884740001514,0.9980000000068685
0.2029,0.9661,-0.2835,0.0507,0.1277,-0.0446,-3.4913,-4.2438,-11.1737,-16.533953116450604,11.250832777965481,0.38094660000130676,1.0140000000101281
0.2053,0.9642,-0.2868,0.0541,0.1286,-0.0448,-4.4625,-4.3313,-11.3313,-16.555698095828838,11.42777563142543,0.38094660000130676,1.0140000000101281
0.2053,0.9642,-0.2868,0.0541,0.1286,-0.0448,-4.4625,-4.3313,-11.3313,-16.56223234043496,11.494479589024184,0.3116458000187027,1.0300000000061118
0.2009,0.9577,-0.2857,0.0534,0.1282,-0.0386,-5.2937,-3.5175,-10.5875,-16.59914968628928,11.433342587750879,0.2588833000207501,1.0450000000055297
0.2012,0.9477,-0.2852,0.0534,0.1282,-0.0386,-4.7075,-2.8525,-9.8787,-16.706767685835448,11.443032488574293,0.2588833000207501,1.0450000000055297
0.1961,0.946,-0.2857,0.0534,0.1282,-0.0386,-4.2088,-2.3363,-8.8462,-16.772883881406226,11.34355083521368,0.2588833000207501,1.0450000000055297
0.1911,0.9492,-0.2862,0.0537,0.1287,-0.0598,-4.2088,-2.3363,-8.8462,-16.776980395238198,11.146732424961753,0.22150250003013344,1.0610000000015134
0.1911,0.9492,-0.2862,0.0537,0.1287,-0.0598,-3.29,-2.0475,-7.315,-16.778039088294328,10.98058862680738,0.22150250003013344,1.0610000000015134
0.1882,0.946,-0.2819,0.0558,0.1282,-0.0431,-1.75,-1.8463,-6.44,-16.726805795186785,10.83828069346817,0.19380800001777454,1.0760000000082073
0.1859,0.9454,-0.2856,0.0558,0.1282,-0.0431,-0.8487,-2.3012,-5.95,-16.77319572118522,10.697947034151158,0.19380800001777454,1.0760000000082073
0.1785,0.9433,-0.2904,0.0558,0.1282,-0.0431,-0.8487,-2.3012,-5.95,-16.963374990063542,10.345764986731291,0.1569888000102735,1.092000000011467
0.172,0.9403,-0.2938,0.0559,0.1286,-0.0421,-0.0263,-3.0538,-5.3375,-17.226699827813437,9.98653991785924,0.1569888000102735,1.092000000011467
0.1718,0.9367,-0.2892,0.0559,0.1286,-0.0421,1.1287,-3.0363,-5.4513,-17.173907805867646,9.948902959717346,0.10840800002246825,1.1080000000074506
0.1718,0.9367,-0.2892,0.0562,0.1282,-0.0426,1.1287,-3.0363,-5.6613,-17.161525052970735,9.941774227310017,0.10840800002246825,1.1080000000074506
0.1721,0.933,-0.2944,0.0562,0.1282,-0.0426,2.4237,-3.5438,-5.6613,-17.449467583467833,9.969804857064469,0.05525100002453102,1.1230000000068685
0.1726,0.9295,-0.2965,0.0562,0.1282,-0.0426,3.3425,-4.4975,-5.32,-17.654636379504527,10.02065393976845,0.05525100002453102,1.1230000000068685
0.1715,0.9282,-0.2986,0.055,0.1283,-0.0474,4.7512,-5.0138,-5.4862,-17.81027240867503,9.984321421413778,-0.024969799955331905,1.1390000000028522
0.174,0.9299,-0.3037,0.055,0.1283,-0.0474,4.7512,-5.0138,-5.4862,-18.051681814117458,10.06623670477214,-0.024969799955331905,1.1390000000028522
0.174,0.9299,-0.3037,0.0547,0.1286,-0.0406,5.8713,-5.4338,-5.6525,-18.082847731386313,10.081888072339858,-0.10647679999170512,1.154000000009546
0.1743,0.9297,-0.3048,0.0547,0.1286,-0.0406,6.5975,-5.6962,-6.0725,-18.144545599159812,10.097061789269764,-0.10647679999170512,1.154000000009546
0.1781,0.9317,-0.3048,0.0547,0.1279,-0.0441,7.2625,-5.81,-6.2475,-18.118017415846694,10.252062319181471,-0.19943679996837024,1.1700000000055297
0.1802,0.9314,-0.3083,0.0555,0.1279,-0.0441,7.2625,-5.81,-6.2475,-18.295972374578405,10.372505535839059,-0.19943679996837024,1.1700000000055297
0.1792,0.936,-0.3156,0.0555,0.1279,-0.0441,7.8225,-5.9325,-6.0113,-18.602287652031094,10.30189498338651,-0.2943567999445434,1.1860000000015134
0.1804,0.941,-0.3125,0.0548,0.1281,-0.0514,8.1462,-5.8275,-5.5475,-18.391495815062978,10.309734435127087,-0.38176929998355197,1.2010000000082073
0.1804,0.941,-0.3125,0.0548,0.1281,-0.0514,7.7962,-5.075,-5.1887,-18.37286820170064,10.31128642409521,-0.38176929998355197,1.2010000000082073
0.1862,0.9466,-0.3169,0.0558,0.1296,-0.045,7.7962,-5.075,-5.1887,-18.496878570109708,10.51951566189068,-0.4629692999631691,1.217000000004191
0.1915,0.9555,-0.3177,0.0558,0.1296,-0.045,6.7638,-4.83,-4.97,-18.402383088328563,10.724476187257121,-0.4629692999631691,1.217000000004191
0.1938,0.9635,-0.3156,0.0558,0.1296,-0.045,5.4163,-3.6925,-5.1275,-18.167601114188866,10.803991695060544,-0.5183567999610198,1.2320000000036089
0.1949,0.9678,-0.3169,0.0554,0.1305,-0.0503,3.3512,-2.5638,-4.7775,-18.136395746916982,10.829391227361231,-0.5183567999610198,1.2320000000036089
0.1949,0.9678,-0.3186,0.0554,0.1305,-0.0503,3.3512,-2.5638,-4.7775,-18.208427285178868,10.829122744861682,-0.5593775999507228,1.2479999999995925
0.1962,0.9762,-0.3186,0.0559,0.1297,-0.0478,1.4787,-1.1725,-4.8562,-18.103923747598174,10.818962577763157,-0.5593775999507228,1.2479999999995925
0.199,0.9838,-0.3124,0.0559,0.1297,-0.0478,-0.7437,-0.4112,-4.8738,-17.820620568757693,10.896131601477997,-0.5659567999520632,1.2640000000028522
0.1986,0.9852,-0.315,0.0559,0.1297,-0.0478,-3.2113,0.2887,-4.9175,-17.774023287916002,10.873676109421496,-0.5659567999520632,1.2640000000028522
0.1948,0.9794,-0.3101,0.0542,0.1298,-0.0431,-3.2113,0.2887,-4.9175,-17.667704484733854,10.760665415926997,-0.5616262999501307,1.279000000009546
0.1913,0.9679,-0.3145,0.0542,0.1298,-0.0431,-5.7488,1.2775,-5.1975,-17.928412227011048,10.666666090681707,-0.5616262999501307,1.279000000009546
0.1913,0.9679,-0.3145,0.0541,0.1296,-0.0474,-6.9212,2.135,-5.7925,-17.98808150043434,10.649982532298313,-0.5274662999587055,1.2950000000055297
0.1862,0.9634,-0.3143,0.0541,0.1296,-0.0474,-6.9212,2.135,-6.195,-18.054534827794832,10.464734772377978,-0.5274662999587055,1.2950000000055297
0.1891,0.9582,-0.3122,0.0541,0.1296,-0.0474,-7.5512,1.7675,-6.195,-18.047841954850604,10.591147972706016,-0.5009537999597343,1.3100000000049477
0.1944,0.9525,-0.3139,0.0558,0.1282,-0.0486,-7.9538,1.785,-5.9412,-18.21167784819724,10.890148477294863,-0.5009537999597343,1.3100000000049477
0.1958,0.9459,-0.3107,0.0558,0.1282,-0.0486,-8.1637,2.0038,-6.5887,-18.187777059343397,11.068236764979567,-0.4688929999677822,1.3260000000009313
0.1958,0.9459,-0.3055,0.0566,0.1271,-0.0453,-8.1637,2.0038,-6.5887,-17.940123638236305,11.125057667504219,-0.4688929999677822,1.3260000000009313
0.1989,0.9426,-0.3055,0.0566,0.1271,-0.0453,-7.3238,2.7475,-7.0087,-17.954854373627974,11.288912619073693,-0.4249329999588264,1.342000000004191
0.2008,0.938,-0.3038,0.0549,0.1287,-0.0482,-6.475,3.1237,-6.965,-17.947765904560555,11.45139401523591,-0.4249329999588264,1.342000000004191
0.1956,0.934,-0.3038,0.0549,0.1287,-0.0482,-5.6087,3.6575,-6.615,-18.002326368083594,11.309501435956541,-0.3700704999343435,1.3570000000108848
0.1966,0.934,-0.2968,0.0549,0.1287,-0.0482,-5.6087,3.6575,-6.615,-17.712328118254185,11.335052324200804,-0.3700704999343435,1.3570000000108848
0.1942,0.933,-0.2951,0.056,0.128,-0.0435,-4.7863,4.1737,-6.3175,-17.595703785932184,11.250096787942228,-0.30329129995110643,1.3730000000068685
0.1942,0.933,-0.2951,0.056,0.128,-0.0435,-3.99,4.3575,-6.3088,-17.567125277991185,11.2306051323555,-0.30329129995110643,1.3730000000068685
0.1926,0.9336,-0.2971,0.0545,0.1292,-0.0425,-3.255,4.3663,-6.0637,-17.612318654139013,11.145236344087653,-0.23779679995364794,1.3880000000062864
0.1936,0.9326,-0.295,0.0545,0.1292,-0.0425,-3.255,4.3663,-6.0637,-17.581083098599745,11.184692232416417,-0.23779679995364794,1.3880000000062864
0.1925,0.9302,-0.2911,0.0545,0.1292,-0.0425,-2.625,4.48,-5.9938,-17.5139921185379,11.174801780817406,-0.16611679997164108,1.40400000000227
0.1911,0.9296,-0.2907,0.0565,0.1285,-0.0469,-1.8637,5.0662,-5.775,-17.482283041566156,11.115711664693706,-0.16611679997164108,1.40400000000227
0.1911,0.9296,-0.2895,0.0565,0.1285,-0.0469,-0.7962,5.0487,-5.3725,-17.37672324380386,11.106652644235805,-0.0853375999551842,1.4200000000055297
0.1902,0.9274,-0.2895,0.0555,0.1278,-0.0455,-0.7962,5.0487,-5.3725,-17.353663046560627,11.082464554976427,-0.0853375999551842,1.4200000000055297
0.1882,0.9268,-0.288,0.0555,0.1278,-0.0455,-0.7788,4.9437,-5.6962,-17.301171924423958,10.996120114613438,-0.011182099958061811,1.4350000000049477
0.1862,0.9289,-0.2887,0.0555,0.1278,-0.0455,-0.0613,4.7863,-5.8713,-17.276854136543644,10.869685496194887,-0.011182099958061811,1.4350000000049477
0.1876,0.9288,-0.288,0.0558,0.1277,-0.0321,0.2537,5.8713,-5.95,-17.24205752877314,10.90882684608489,0.08275870001835711,1.4510000000009313
0.1865,0.9325,-0.2935,0.0558,0.1277,-0.0321,0.2537,5.8713,-5.95,-17.40353881545862,10.823600530016469,0.08275870001835711,1.4510000000009313
0.1865,0.9325,-0.2935,0.0554,0.1275,-0.0437,0.245,5.74,-6.51,-17.45114522864309,10.806226455200816,0.16885870005678,1.4660000000076252
0.1922,0.936,-0.2887,0.0554,0.1275,-0.0437,0.56,5.705,-7.175,-17.225574721413686,11.017254468436875,0.16885870005678,1.4660000000076252
0.1932,0.9393,-0.2918,0.0554,0.1275,-0.0437,0.56,5.705,-6.9825,-17.24905312663064,11.086985238759485,0.26013870003386685,1.4820000000036089
0.1938,0.9408,-0.2959,0.0574,0.1293,-0.042,0.5688,5.74,-6.9825,-17.402588896045216,11.109054311982216,0.26013870003386685,1.4820000000036089
0.1931,0.9451,-0.2947,0.0574,0.1293,-0.042,0.7875,6.2913,-6.7375,-17.339912028514288,11.055435484621587,0.36079950005437417,1.4980000000068685
0.1931,0.9451,-0.2937,0.0551,0.1283,-0.043,1.0675,6.7725,-6.72,-17.281451379959023,11.044226639961584,0.36079950005437417,1.4980000000068685
0.1943,0.9434,-0.2937,0.0551,0.1283,-0.043,1.0675,6.7725,-6.72,-17.289832164105192,11.104700469851013,0.4623870000011556,1.5129999999990105
0.2005,0.9445,-0.2922,0.0551,0.1289,-0.0536,1.645,7.3763,-6.3437,-17.211282819403408,11.381132258773421,0.5804078000251996,1.52900000000227
0.2092,0.9441,-0.2895,0.0556,0.1289,-0.0536,1.7938,7.6213,-5.8625,-17.0808912469197,11.840823734582132,0.5804078000251996,1.52900000000227
0.2114,0.9449,-0.2881,0.0556,0.1289,-0.0536,2.1437,8.3125,-5.1625,-16.980036512217396,12.035961338970694,0.7050953000808425,1.544000000008964
0.2138,0.9461,-0.2868,0.0534,0.1295,-0.0462,2.1437,8.3125,-5.1625,-16.88607534240279,12.172704852563859,0.7050953000808425,1.544000000008964
0.2138,0.9461,-0.2868,0.0534,0.1295,-0.0462,2.345,9.0913,-5.4075,-16.8681212570791,12.197239426319195,0.8505561000443289,1.5600000000049477
0.2146,0.9467,-0.2894,0.0535,0.1275,-0.0496,2.9838,10.5787,-5.81,-16.97681420897351,12.224301366897045,0.8505561000443289,1.5600000000049477
0.2145,0.9432,-0.2862,0.0535,0.1275,-0.0496,3.43,12.1538,-6.055,-16.894442354401676,12.265801955815691,1.0450169000839458,1.5760000000082073
0.2079,0.942,-0.2882,0.0535,0.1275,-0.0496,3.43,12.1538,-6.055,-16.9934299863337,11.992502261481867,1.0450169000839458,1.5760000000082073
0.2006,0.9424,-0.2919,0.0542,0.1299,-0.051,4.06,13.615,-6.5625,-17.179813378851257,11.61457473399581,1.2492418999769586,1.5910000000003492
0.2006,0.9424,-0.2939,0.0542,0.1299,-0.051,4.62,14.315,-7.0525,-17.302606378714508,11.52186821746412,1.2492418999769586,1.5910000000003492
0.1997,0.9395,-0.2939,0.0549,0.1303,-0.051,4.8125,14.84,-7.2275,-17.36242733734266,11.483396376251177,1.4866819000253315,1.6070000000036089
0.2015,0.938,-0.2913,0.0549,0.1303,-0.051,4.8125,14.84,-7.2275,-17.266253575837723,11.56164438545805,1.4866819000253315,1.6070000000036089
0.2108,0.9353,-0.2892,0.0549,0.1303,-0.051,5.4687,15.645,-7.4988,-17.191706326146438,11.966078434831593,1.7213569001300573,1.6220000000103028
0.2188,0.9299,-0.2883,0.0542,0.1315,-0.0552,6.2387,16.5462,-7.7525,-17.221607752754526,12.426965961466927,1.7213569001300573,1.6220000000103028
0.2331,0.9234,-0.2878,0.0542,0.1315,-0.0552,7.2975,18.5413,-7.5338,-17.302351184950773,13.192911121412157,2.0180177000555894,1.6380000000062864
0.2331,0.9234,-0.2878,0.054,0.1308,-0.0565,7.2975,18.5413,-7.5338,-17.310091049164416,13.4364672057882,2.0180177000555894,1.6380000000062864
0.2334,0.9154,-0.2902,0.054,0.1308,-0.0565,8.9687,20.65,-7.5075,-17.566552550136574,13.590073224537027,2.3484177001229005,1.654000000009546
0.223,0.9187,-0.2907,0.054,0.1308,-0.0565,10.9025,24.0187,-7.8663,-17.559253240524747,13.22932913558261,2.3484177001229005,1.654000000009546
0.2092,0.9197,-0.2905,0.0508,0.1301,-0.0685,10.9025,24.0187,-7.8663,-17.531567859131297,12.59051090964896,2.708698199934161,1.669000000001688
0.199,0.9207,-0.2937,0.0508,0.1301,-0.0685,12.0925,26.1537,-8.12,-17.68192794808118,12.008764474890718,2.708698199934161,1.669000000001688
0.199,0.9207,-0.2937,0.0521,0.1314,-0.0616,13.37,27.44,-8.6363,-17.69185614271751,11.818275783109863,3.147738200023605,1.6850000000049477
0.1916,0.9307,-0.2959,0.0521,0.1314,-0.0616,13.6325,28.7262,-8.5138,-17.64042593434101,11.431716034667414,3.147738200023605,1.6850000000049477
0.1865,0.9406,-0.2979,0.0521,0.1312,-0.0623,13.6325,28.7262,-8.5138,-17.57763986678787,11.04014398155522,3.5786312000068845,1.7000000000043656
0.1896,0.9548,-0.2952,0.0518,0.1312,-0.0623,13.965,28.2013,-9.3713,-17.203523089930755,10.970104529806283,3.5786312000068845,1.7000000000043656
0.1939,0.9563,-0.2981,0.0518,0.1312,-0.0623,13.2913,28.0613,-9.065,-17.306728714918368,10.964537438625872,4.027612000098354,1.7160000000076252
0.191,0.9674,-0.3016,0.051,0.1333,-0.0641,12.6788,28.0525,-9.2837,-17.315012778479453,10.882382491790919,4.027612000098354,1.7160000000076252
0.191,0.9674,-0.3016,0.051,0.1333,-0.0641,12.6788,28.0525,-9.2837,-17.31553664032094,10.823487565887277,4.476451999985685,1.7320000000036089
0.1877,0.9631,-0.301,0.0498,0.1341,-0.0734,11.69,27.8775,-9.5113,-17.353007851074416,10.782508096183054,4.476451999985685,1.7320000000036089
0.1945,0.9662,-0.3034,0.0498,0.1341,-0.0734,11.2963,27.6413,-9.7475,-17.427457935726462,10.788255212707686,4.891071499969596,1.7470000000030268
0.2012,0.9603,-0.3037,0.0498,0.1341,-0.0734,10.395,27.5012,-9.4762,-17.54079146156663,10.87391211793585,4.891071499969596,1.7470000000030268
0.2033,0.9569,-0.3052,0.05,0.1349,-0.0797,10.395,27.5012,-9.4762,-17.6788844470663,10.969670767711895,5.33109070005924,1.7630000000062864
0.2033,0.9569,-0.308,0.05,0.1349,-0.0797,9.31,27.5187,-9.2225,-17.828847175237794,11.114879684161181,5.33109070005924,1.7630000000062864
0.2024,0.9465,-0.308,0.0488,0.1354,-0.0766,9.2837,27.545,-8.7063,-18.00954955648542,11.301831319880604,5.744265700043206,1.7780000000057044
0.1976,0.945,-0.3015,0.0488,0.1354,-0.0766,9.24,27.86,-8.0588,-17.720565208178606,11.279837226737003,5.744265700043206,1.7780000000057044
0.1899,0.9452,-0.3045,0.0488,0.1354,-0.0766,9.24,27.86,-8.0588,-17.84556559550579,10.99926245682963,6.1900256999313115,1.794000000001688
0.1781,0.944,-0.307,0.0482,0.1364,-0.0792,9.0387,27.2388,-7.42,-18.001210191260483,10.425558641287925,6.1900256999313115,1.794000000001688
0.1781,0.9465,-0.3048,0.0482,0.1364,-0.0792,8.6975,25.83,-6.4575,-17.862815692607704,10.21872632949558,6.6033057000155075,1.8100000000049477
0.1781,0.9465,-0.3048,0.0466,0.1368,-0.0802,8.6975,24.8325,-5.3025,-17.851119214202996,10.166459120904682,6.6033057000155075,1.8100000000049477
0.1795,0.949,-0.3013,0.0466,0.1368,-0.0802,8.4613,24.8325,-5.3025,-17.63466039968574,10.209573495611968,6.975793200001053,1.8250000000043656
0.1794,0.9464,-0.3007,0.0466,0.1368,-0.0802,7.9363,23.1525,-4.6375,-17.62735699013855,10.235489308299172,6.975793200001053,1.8250000000043656
0.186,0.9487,-0.299,0.0462,0.1364,-0.085,7.5075,21.4988,-3.9987,-17.505797315537436,10.538169174119146,7.319774000071131,1.8410000000076252
0.1921,0.9466,-0.2989,0.0462,0.1364,-0.085,7.5075,21.4988,-3.9987,-17.522398254809787,10.890403082892709,7.319774000071131,1.8410000000076252
0.1921,0.9466,-0.2833,0.0454,0.1362,-0.0878,6.965,19.7575,-3.4913,-16.74671895446242,10.986477333390033,7.616136499915876,1.8559999999997672
0.2027,0.9456,-0.2955,0.0454,0.1362,-0.0878,5.8975,18.9788,-2.7213,-17.286786424477786,11.490831816235321,7.9197972999777395,1.8720000000030268
0.2071,0.9476,-0.2956,0.0454,0.136,-0.0886,5.6175,18.7162,-2.94,-17.320722907215142,11.74693172655883,7.9197972999777395,1.8720000000030268
0.2025,0.9455,-0.3018,0.0428,0.136,-0.0886,5.6175,18.7162,-2.94,-17.65922011256611,11.559607314764117,8.219256500038748,1.8880000000062864
0.1953,0.9419,-0.2999,0.0428,0.136,-0.0886,5.0487,19.1887,-2.8963,-17.661153055293283,11.22546953315477,8.219256500038748,1.8880000000062864
0.1945,0.9424,-0.2976,0.0411,0.1366,-0.0929,4.2,18.69,-2.5287,-17.544053872428996,11.145196350786252,9.67707650006377,1.9660000000076252
0.1945,0.9424,-0.2976,0.0411,0.1366,-0.0929,3.6837,17.4562,-2.3363,-17.52827951292737,11.135315038267978,9.67707650006377,1.9660000000076252
0.1957,0.943,-0.2982,0.0421,0.1371,-0.0865,3.6837,17.4562,-2.3363,-17.54531840014512,11.185749864477229,9.67707650006377,1.9660000000076252
0.1975,0.9403,-0.3026,0.0421,0.1371,-0.0865,3.745,16.2313,-3.36,-17.796147524566592,11.290163009931934,9.92054600005432,1.9810000000070431
0.2071,0.9352,-0.2952,0.0421,0.1371,-0.0865,3.9288,15.0325,-3.5525,-17.55783426019673,11.835453459559629,9.92054600005432,1.9810000000070431
0.218,0.9376,-0.2943,0.0405,0.1383,-0.0883,4.2787,14.98,-4.0512,-17.444103402440774,12.406327967094898,9.92054600005432,1.9810000000070431
0.218,0.9376,-0.3099,0.0405,0.1383,-0.0883,4.2787,14.98,-4.0512,-18.175894406026185,12.442620871261369,9.92054600005432,1.9810000000070431
0.2233,0.9347,-0.2976,0.0392,0.1374,-0.0927,4.7337,15.26,-4.0775,-17.726441458600057,12.76647561733515,10.164706000104063,1.9970000000103028
0.2281,0.9321,-0.2965,0.0392,0.1374,-0.0927,4.8125,15.8988,-4.2175,-17.655956716347927,13.071104205123532,10.164706000104063,1.9970000000103028
0.2208,0.9309,-0.2968,0.0392,0.1374,-0.0927,4.8738,16.835,-4.3488,-17.680416206799578,12.787186704355488,10.164706000104063,1.9970000000103028
0.2181,0.929,-0.3013,0.0382,0.1382,-0.0894,4.8738,16.835,-4.3488,-17.933219373853035,12.619947606080375,10.164706000104063,1.9970000000103028
0.2154,0.9321,-0.3085,0.0382,0.1382,-0.0894,4.935,17.2638,-4.5937,-18.26607123550047,12.414351234191262,10.164706000104063,1.9970000000103028
0.2154,0.9321,-0.3085,0.037,0.1378,-0.0975,5.6438,17.1675,-4.865,-18.307789693369454,12.380873580241236,10.42221849996916,2.0120000000024447
0.2154,0.931,-0.3075,0.037,0.1378,-0.0975,5.6438,16.5025,-4.5325,-18.281281164762266,12.388960692534871,10.42221849996916,2.0120000000024447
0.2155,0.9348,-0.3032,0.037,0.1378,-0.0975,6.2913,16.5025,-4.5325,-18.003326735646038,12.371668823701041,10.42221849996916,2.0120000000024447
0.215,0.9367,-0.306,0.0341,0.139,-0.0927,6.4925,15.8025,-4.3663,-18.081996858014467,12.318115833570129,10.42221849996916,2.0120000000024447
0.2175,0.9364,-0.3047,0.0341,0.139,-0.0927,5.5738,15.7413,-4.935,-18.031222536065858,12.431285790253375,10.674079300020471,2.0280000000057044
0.2175,0.9364,-0.3047,0.034,0.1381,-0.0989,5.5738,15.7413,-4.935,-18.02539207069967,12.450989312232421,10.674079300020471,2.0280000000057044
0.2197,0.9413,-0.3001,0.034,0.1381,-0.0989,5.9588,15.6275,-4.8825,-17.720679956971303,12.522183887233055,10.924119299957706,2.044000000001688
0.2222,0.9426,-0.3006,0.034,0.1388,-0.1007,5.0225,14.5513,-4.9875,-17.691787368882856,12.63402434045516,10.924119299957706,2.044000000001688
0.2275,0.9376,-0.2993,0.0343,0.1388,-0.1007,4.2613,14.3062,-4.69,-17.70242286799597,12.951624085238656,11.13871230005347,2.059000000008382
0.2315,0.9373,-0.2984,0.0343,0.1388,-0.1007,4.2613,14.3062,-4.69,-17.665268378062986,13.19467739167444,11.13871230005347,2.059000000008382
0.2308,0.9371,-0.2962,0.0314,0.139,-0.1026,4.2,14.4725,-4.7075,-17.557755392996913,13.212308105777293,11.370272299995344,2.0750000000043656
0.2308,0.9371,-0.2962,0.0314,0.139,-0.1026,3.2025,14.245,-4.8825,-17.54346139681441,13.215242826792432,11.370272299995344,2.0750000000043656
0.2278,0.9336,-0.3026,0.0343,0.1395,-0.0978,2.6163,14.105,-5.915,-17.886441573421326,13.09870274079481,11.581847299987134,2.0900000000037835
0.2231,0.9325,-0.2984,0.0343,0.1395,-0.0978,2.6163,14.105,-5.915,-17.76932319109608,12.891645282256832,11.581847299987134,2.0900000000037835
0.2226,0.9333,-0.3,0.0343,0.1395,-0.0978,2.2575,13.195,-6.5012,-17.810182315408223,12.81662258808653,11.792967300030144,2.106000000007043
0.2246,0.9312,-0.2974,0.0287,0.139,-0.1157,2.415,12.7575,-6.5275,-17.729749432172625,12.910092195354121,11.792967300030144,2.106000000007043
0.2246,0.9312,-0.2974,0.0287,0.139,-0.1157,1.9863,11.7863,-6.8075,-17.71552279080772,12.932091963932312,11.981548099982806,2.122000000003027
0.2239,0.9352,-0.3018,0.0318,0.1413,-0.1056,1.9863,11.7863,-6.8075,-17.852306295819638,12.860353891491847,11.981548099982806,2.122000000003027
0.228,0.9338,-0.3018,0.0318,0.1413,-0.1056,1.6275,10.9375,-6.7638,-17.89836011502715,13.023550188397937,12.14561059997644,2.1370000000024447
0.2342,0.9318,-0.3004,0.0318,0.1413,-0.1056,0.7525,10.0975,-7.0175,-17.876282156164503,13.33593941342647,12.14561059997644,2.1370000000024447
0.2422,0.927,-0.2946,0.0311,0.1402,-0.1013,0.3588,9.2662,-7.1225,-17.700657367974497,13.800591606744279,12.293869800006645,2.1530000000057044
0.248,0.9209,-0.2976,0.0311,0.1402,-0.1013,0.3588,9.2662,-7.1225,-17.84926749018552,14.212002917340557,12.293869800006645,2.1530000000057044
0.248,0.9209,-0.2976,0.0314,0.1398,-0.1059,1.1463,9.6425,-7.0875,-17.894945486032633,14.328134410451302,12.438507300001032,2.1680000000051223
0.2501,0.9188,-0.298,0.0314,0.1398,-0.1059,1.4787,10.2725,-6.895,-17.95353499968963,14.466709581504698,12.602867300034516,2.184000000008382
0.2436,0.9157,-0.2994,0.0314,0.1398,-0.1059,1.4787,10.2725,-7.5075,-18.072817016802787,14.277268990601195,12.602867300034516,2.184000000008382
0.2372,0.921,-0.296,0.0302,0.1415,-0.1094,2.5463,10.6313,-7.5075,-17.861927790290828,13.934612462865053,12.772968099991818,2.2000000000043656
0.2358,0.9218,-0.2988,0.0302,0.1415,-0.1094,2.5025,10.7975,-7.8837,-17.942618284509944,13.768842564027223,12.772968099991818,2.2000000000043656
0.2358,0.9218,-0.298,0.0296,0.1397,-0.1044,2.1962,10.395,-7.4988,-17.920189399384874,13.707827036398111,12.928893099985768,2.2150000000037835
0.2277,0.9257,-0.298,0.0296,0.1397,-0.1044,2.1962,10.395,-7.4988,-17.858560277769975,13.344617843775204,12.928893099985768,2.2150000000037835
0.2252,0.9301,-0.2946,0.0296,0.1407,-0.105,3.185,9.3013,-7.8837,-17.619940744505953,13.121708968528944,13.077713900016086,2.231000000007043
0.2283,0.9312,-0.2939,0.0287,0.1407,-0.105,2.9225,8.54,-8.3387,-17.53352678691916,13.143256293120821,13.077713900016086,2.231000000007043
0.2342,0.9306,-0.298,0.0287,0.1407,-0.105,2.7475,7.9012,-8.1287,-17.71841695870246,13.34686123748724,13.196231900011487,2.246000000006461
0.2444,0.9274,-0.2935,0.0311,0.1409,-0.1103,2.7475,7.9012,-8.1287,-17.588042607533275,13.80686408838946,13.196231900011487,2.246000000006461
0.2444,0.9274,-0.2935,0.0311,0.1409,-0.1103,2.73,7.4113,-7.6388,-17.565891753853553,14.006018900704735,13.314812700035645,2.2620000000097207
0.247,0.9275,-0.2926,0.0277,0.1409,-0.1098,2.835,8.2338,-6.7725,-17.5185390674741,14.187600014110735,13.314812700035645,2.2620000000097207
0.2435,0.9266,-0.2942,0.0277,0.1409,-0.1098,3.0625,9.1613,-6.7463,-17.599347475998712,14.09351306504451,13.46139349999885,2.2780000000057044
0.2356,0.9276,-0.2976,0.0277,0.1409,-0.1098,3.0625,9.1613,-6.7463,-17.757300323342665,13.72232859334094,13.46139349999885,2.2780000000057044
0.2287,0.9283,-0.2975,0.029,0.1419,-0.1037,3.0712,9.6337,-6.545,-17.76755669028946,13.328947996348539,14.05868290005044,2.3400000000110595
0.2287,0.9283,-0.2819,0.029,0.1419,-0.1037,3.15,9.87,-6.2213,-17.031434014344416,13.278903652551193,14.05868290005044,2.3400000000110595
0.2261,0.9293,-0.2963,0.029,0.1422,-0.1126,2.9313,9.625,-6.4138,-17.57681662461338,13.104353425927147,14.05868290005044,2.3400000000110595
0.2142,0.934,-0.2992,0.029,0.1422,-0.1126,2.9313,9.625,-6.4138,-17.73186976384921,12.5040222158528,14.05868290005044,2.3400000000110595
0.2183,0.9328,-0.2951,0.029,0.1422,-0.1126,3.0538,8.645,-6.7375,-17.583793646773415,12.559383844064405,14.05868290005044,2.3400000000110595
0.225,0.9363,-0.2971,0.0275,0.1404,-0.1206,2.7125,7.1838,-5.8012,-17.60129083699665,12.831124284486203,14.05868290005044,2.3400000000110595
0.2267,0.9372,-0.2942,0.0275,0.1404,-0.1206,2.03,6.1775,-5.1887,-17.461385608622393,12.96561732542727,14.05868290005044,2.3400000000110595
0.2267,0.9372,-0.2942,0.027,0.1417,-0.1138,2.03,6.1775,-5.1887,-17.434296609118988,12.990115410368636,14.05868290005044,2.3400000000110595
0.2363,0.933,-0.2943,0.027,0.1417,-0.1138,1.9338,5.7838,-5.2238,-17.492696309145057,13.47104648672338,14.151223699985128,2.355999999999767
0.2411,0.9323,-0.294,0.027,0.1417,-0.1138,1.6187,5.0662,-5.0312,-17.5005352942683,13.786718793065326,14.151223699985128,2.355999999999767
0.2412,0.9294,-0.291,0.0273,0.1431,-0.1109,1.6187,5.0662,-5.2762,-17.409788625526648,13.887439572651507,14.22721670001904,2.371000000006461
0.2346,0.9273,-0.2868,0.0273,0.1431,-0.1109,1.6538,5.1363,-5.2762,-17.23277856679523,13.643106627215401,14.22721670001904,2.371000000006461
0.2346,0.9273,-0.2883,0.0268,0.143,-0.1088,1.645,5.2675,-5.4775,-17.262691955289544,13.593442709561714,14.311496699997884,2.3870000000024447
0.2334,0.9271,-0.2883,0.0268,0.143,-0.1088,1.5313,5.7137,-6.335,-17.271663158886664,13.534802993547492,14.311496699997884,2.3870000000024447
0.2288,0.9351,-0.2925,0.0261,0.1426,-0.1141,1.5313,5.7137,-6.335,-17.348706930286948,13.234176943695283,14.397202199994558,2.4020000000018626
0.2285,0.9374,-0.2923,0.0261,0.1426,-0.1141,1.2862,5.53,-6.3612,-17.325347644048332,13.13112489920732,14.397202199994558,2.4020000000018626
0.2304,0.9362,-0.2896,0.0261,0.1426,-0.1141,1.0762,4.1038,-6.65,-17.221151705432238,13.205832588594644,14.462863000007935,2.4180000000051223
0.2273,0.9353,-0.2904,0.0274,0.145,-0.1156,0.5512,3.3163,-7.2975,-17.24142534039715,13.107811267742731,14.462863000007935,2.4180000000051223
0.2273,0.9353,-0.2904,0.0274,0.145,-0.1156,0.5512,3.3163,-7.2975,-17.246925735004776,13.078820663431372,14.515923799994615,2.434000000001106
0.2259,0.9358,-0.296,0.0275,0.1435,-0.1147,0.6125,2.5113,-7.5775,-17.470968101518096,12.999255442927623,14.515923799994615,2.434000000001106
0.2294,0.9352,-0.2941,0.0275,0.1435,-0.1147,0.7962,1.715,-7.7875,-17.46072073540035,13.110998093546362,14.541648800006095,2.4490000000078
0.2335,0.9369,-0.2958,0.0275,0.1435,-0.1147,0.525,0.9625,-7.8925,-17.505296242043215,13.276413367860892,14.541648800006095,2.4490000000078
0.2329,0.9396,-0.2952,0.0272,0.144,-0.1083,0.525,0.9625,-7.8925,-17.458917770245236,13.294498522690308,14.55704880000223,2.4650000000037835
0.2329,0.9396,-0.2934,0.0272,0.144,-0.1083,0.8925,1.2513,-7.6562,-17.37067472132194,13.305966574487352,14.55704880000223,2.4650000000037835
0.2308,0.94,-0.2934,0.0275,0.1441,-0.1162,0.1838,0.5163,-7.7962,-17.345461899425956,13.23081282057114,14.564793300001929,2.4800000000032014
0.2359,0.9409,-0.2904,0.0275,0.1441,-0.1162,-0.2187,0.5163,-8.1112,-17.21857808110412,13.378208708517672,14.564793300001929,2.4800000000032014
0.2331,0.9412,-0.2941,0.0275,0.1441,-0.1162,-0.2187,0.5163,-8.1112,-17.306663412554755,13.330486842638638,14.573054100003612,2.496000000006461
0.2275,0.9368,-0.2942,0.0266,0.1445,-0.1126,-1.3737,0.665,-7.5687,-17.362026953421243,13.136636504800126,14.573054100003612,2.496000000006461
0.2203,0.9362,-0.289,0.0266,0.1445,-0.1126,-1.6888,0.5163,-7.84,-17.298242760530872,12.835593365630183,14.581314900001537,2.5120000000024447
0.2203,0.9362,-0.289,0.0287,0.1422,-0.114,-2.8175,-0.1312,-7.9713,-17.240192677118117,12.73233883827748,14.579346900000658,2.5270000000091386
0.2187,0.935,-0.2918,0.0287,0.1422,-0.114,-2.8175,-0.1312,-7.9713,-17.277603185966527,12.640494059625734,14.579346900000658,2.5270000000091386
0.2227,0.9365,-0.2937,0.0287,0.1422,-0.114,-3.2462,-0.9887,-7.7613,-17.34844752580126,12.73490793692569,14.563527700004629,2.5430000000051223
0.2333,0.934,-0.2876,0.0282,0.1433,-0.1084,-3.6137,-1.6275,-8.1462,-17.209047740663355,13.153478749208455,14.563527700004629,2.5430000000051223
0.24,0.9317,-0.2879,0.0282,0.1433,-0.1084,-3.6137,-1.6275,-8.0588,-17.186594033607243,13.5695252646367,14.539115200005577,2.55800000000454
0.24,0.9317,-0.293,0.0283,0.1438,-0.1155,-3.7713,-1.61,-8.0588,-17.35460598608342,13.715554514962548,14.539115200005577,2.55800000000454
0.2395,0.9291,-0.293,0.0283,0.1438,-0.1155,-3.5875,-0.8487,-7.77,-17.44258145221001,13.778692135827567,14.525536000008985,2.574000000000524
0.2388,0.9298,-0.288,0.0295,0.142,-0.1166,-4.0862,-0.105,-7.2888,-17.288836230097083,13.782540203524787,14.525536000008985,2.574000000000524
0.2378,0.9269,-0.2884,0.0295,0.142,-0.1166,-4.0862,-0.105,-7.2888,-17.28514380597328,13.769951688430417,14.523856000008644,2.5900000000037835
0.226,0.9274,-0.291,0.0295,0.142,-0.1166,-3.6137,0.3237,-6.9913,-17.366101699495353,13.274042816589006,14.523856000008644,2.5900000000037835
0.2212,0.929,-0.2847,0.0306,0.143,-0.1095,-2.8175,0.6125,-6.335,-17.233021370819003,12.92845087239613,14.533043500012743,2.6050000000104774
0.2212,0.929,-0.2847,0.0306,0.143,-0.1095,-2.3975,0.4988,-5.6525,-17.192457060962116,12.845656983741883,14.533043500012743,2.6050000000104774
0.2216,0.9284,-0.2883,0.029,0.1443,-0.1107,-2.3975,0.4988,-5.6525,-17.204716815314132,12.842152205467544,14.54102430001074,2.621000000006461
0.2214,0.9306,-0.2883,0.029,0.1443,-0.1107,-1.645,-0.2275,-4.8475,-17.207435523034867,12.80997668059496,14.54102430001074,2.621000000006461
0.2239,0.929,-0.2827,0.029,0.1443,-0.1107,-0.9275,-0.6212,-4.0425,-17.05313025810335,12.957700869653335,14.531085100013234,2.6370000000024447
0.2324,0.9276,-0.281,0.0291,0.1433,-0.1206,-1.1113,-1.3825,-3.36,-16.9520395985578,13.411856409519586,14.531085100013234,2.6370000000024447
0.2324,0.9276,-0.2828,0.0291,0.1433,-0.1206,-1.1113,-1.3825,-3.36,-16.95355578265737,13.467857278698608,14.508965100008728,2.6530000000057044
0.2347,0.9304,-0.2828,0.0289,0.1411,-0.1134,-0.9887,-2.0213,-2.4413,-16.928655565589157,13.556784688854238,14.508965100008728,2.6530000000057044
0.2416,0.9308,-0.276,0.0289,0.1411,-0.1134,-0.4638,-1.9162,-1.5838,-16.670564295642993,13.928417424231041,14.478305900016425,2.669000000001688
0.2465,0.9264,-0.2776,0.0289,0.1411,-0.1134,0.1838,-1.0762,-1.1025,-16.677914887595147,14.260688236505226,14.478305900016425,2.669000000001688
0.2408,0.9242,-0.2817,0.0276,0.1441,-0.1168,0.1838,-1.0762,-1.1025,-16.869013925580735,14.022457074399378,14.46216290000922,2.684000000008382
0.2405,0.9247,-0.2797,0.0276,0.1441,-0.1168,0.7613,0.1838,-1.0063,-16.839516902516802,13.983810764771391,14.46216290000922,2.684000000008382
0.2405,0.9247,-0.2797,0.0278,0.1418,-0.1136,1.3563,0.4638,-0.6913,-16.831599323342672,13.979800684883168,14.469583700007357,2.7000000000043656
0.237,0.9272,-0.2787,0.0278,0.1418,-0.1136,1.995,0.0787,-1.26,-16.749687997417723,13.778776908269926,14.469583700007357,2.7000000000043656
0.2308,0.9302,-0.285,0.0278,0.1418,-0.1136,1.995,0.0787,-1.26,-16.97882970500474,13.391741821439439,14.470764200007311,2.7150000000037835
0.2296,0.9321,-0.2797,0.0274,0.1419,-0.1118,1.6013,-0.4375,-1.5575,-16.76139292520263,13.287936622197838,14.470764200007311,2.7150000000037835
0.2315,0.9323,-0.2831,0.0274,0.1419,-0.1118,1.61,-0.77,-1.9425,-16.863930387821707,13.356647639471669,14.4584442000048,2.731000000007043
0.2315,0.9323,-0.2865,0.0281,0.143,-0.1167,1.61,-0.77,-2.8875,-17.03637786203225,13.352949659503805,14.4584442000048,2.731000000007043
0.2292,0.9335,-0.2865,0.0281,0.143,-0.1167,1.5662,-0.7788,-2.8875,-17.056349826426683,13.227858965120738,14.445983400007929,2.747000000003027
0.2333,0.9312,-0.2824,0.027,0.1425,-0.1146,2.065,-1.9425,-3.2462,-16.90639896574571,13.448174774957174,14.445983400007929,2.747000000003027
0.2351,0.9299,-0.2887,0.027,0.1425,-0.1146,2.3888,-2.0912,-3.395,-17.18587661890431,13.557135439506013,14.41461539999393,2.7620000000097207
0.2352,0.9289,-0.2883,0.027,0.1425,-0.1146,2.3888,-2.0912,-3.395,-17.232349643876436,13.589344560099986,14.41461539999393,2.7620000000097207
0.239,0.9263,-0.2841,0.0266,0.1441,-0.111,1.9775,-1.82,-3.8937,-17.08646692715391,13.817357817828313,14.38549540000124,2.7780000000057044
0.239,0.9263,-0.2841,0.0266,0.1441,-0.111,2.7037,-1.96,-4.1825,-17.057067290788755,13.850705341427762,14.38549540000124,2.7780000000057044
0.2381,0.9277,-0.2893,0.0248,0.1433,-0.115,2.9488,-2.1613,-4.6025,-17.276701157544462,13.78104035329745,14.353075900002498,2.7930000000051223
0.2389,0.9294,-0.2925,0.0248,0.1433,-0.115,2.9488,-2.1613,-4.6025,-17.438048654220193,13.77736604123042,14.353075900002498,2.7930000000051223
0.2409,0.9302,-0.2924,0.0248,0.1433,-0.115,3.0888,-2.1,-4.5937,-17.4481395198681,13.861036577338654,14.319475900010932,2.809000000001106
0.2381,0.9313,-0.2985,0.0255,0.1434,-0.1186,3.0888,-1.7675,-4.69,-17.719691394379414,13.712932859579093,14.319475900010932,2.809000000001106
0.2381,0.9345,-0.2932,0.0255,0.1434,-0.1186,3.1412,-1.6712,-4.62,-17.467151318565737,13.671886186258146,14.292736700005484,2.8250000000043656
0.2399,0.9345,-0.2932,0.0251,0.1437,-0.115,3.1412,-1.6712,-4.62,-17.426911345402946,13.748089873226204,14.292736700005484,2.8250000000043656
0.2391,0.9376,-0.294,0.0251,0.1437,-0.115,2.7125,-1.3475,-5.1188,-17.412626928820465,13.688993342521986,14.272524199996464,2.8400000000110595
0.235,0.9359,-0.2988,0.0251,0.1437,-0.115,2.1525,-1.2075,-5.3025,-17.650882245027027,13.496401410609671,14.272524199996464,2.8400000000110595
0.2375,0.9331,-0.2956,0.026,0.1455,-0.1134,1.4088,-1.4262,-5.215,-17.593933863662993,13.612779180331174,14.249705000002193,2.856000000007043
0.2356,0.9337,-0.2957,0.026,0.1455,-0.1134,1.4088,-1.4262,-5.215,-17.577481884713322,13.54168207935179,14.249705000002193,2.856000000007043
0.2356,0.9337,-0.2957,0.0255,0.1444,-0.116,1.1375,-1.0063,-5.3113,-17.573925747941512,13.528721615375462,14.234610500002779,2.871000000006461
0.2356,0.9347,-0.2993,0.0255,0.1444,-0.116,0.56,-1.3388,-5.2413,-17.706405500513675,13.50414008185914,14.213189700008156,2.8870000000024447
0.2371,0.9341,-0.2975,0.0255,0.1444,-0.116,0.6737,-1.2513,-5.1625,-17.67666352379512,13.579590812635598,14.213189700008156,2.8870000000024447
0.2387,0.9317,-0.2993,0.0263,0.1426,-0.1125,0.6737,-1.2513,-5.1625,-17.77435004244723,13.684713926191991,14.193168900004077,2.9030000000057044
0.2378,0.9307,-0.2979,0.0263,0.1426,-0.1125,0.35,-1.8725,-4.8212,-17.756214622033166,13.678155925617721,14.193168900004077,2.9030000000057044
0.2378,0.9293,-0.2948,0.0266,0.1459,-0.109,0.1138,-2.4237,-4.445,-17.648425334213346,13.702808851675847,14.156813400005488,2.9180000000051223
0.2415,0.9293,-0.2948,0.0266,0.1459,-0.109,0.1138,-2.4237,-4.4713,-17.61524358456719,13.878780114311988,14.156813400005488,2.9180000000051223
0.2427,0.9298,-0.2984,0.0245,0.1427,-0.121,0.2275,-2.24,-4.4713,-17.74009797130804,13.944729675508558,14.120973400014485,2.934000000001106
0.24,0.9281,-0.3002,0.0245,0.1427,-0.121,-0.42,-2.0563,-4.6375,-17.856343679232968,13.842822459649724,14.120973400014485,2.934000000001106
0.2427,0.928,-0.2955,0.0245,0.1427,-0.121,-0.07,-1.7325,-4.76,-17.725997633844052,13.967759261742275,14.094985900002888,2.9490000000078
0.2442,0.9284,-0.2976,0.0251,0.1439,-0.1113,-0.07,-1.7325,-4.76,-17.757885254276946,14.046137020426583,14.094985900002888,2.9490000000078
0.2442,0.9284,-0.2976,0.0251,0.1439,-0.1113,-0.1312,-1.6888,-4.9088,-17.768187541057483,14.059310113836268,14.06796510000967,2.9650000000037835
0.2431,0.9289,-0.3018,0.0266,0.1434,-0.1214,-0.4288,-1.6363,-4.83,-17.913699388720087,13.990995943008569,14.06796510000967,2.9650000000037835
0.243,0.9298,-0.2976,0.0266,0.1434,-0.1214,-0.3063,-1.2687,-4.585,-17.8067461241495,13.97957206036139,14.047665900005535,2.981000000007043
0.2405,0.93,-0.2998,0.0266,0.1434,-0.1214,-0.3063,-1.2687,-4.585,-17.84604266266725,13.852312034183079,14.047665900005535,2.981000000007043
0.2387,0.9267,-0.3001,0.025,0.1434,-0.1209,-0.595,-1.4262,-4.9875,-17.905359739962304,13.78371306448027,14.026272900006365,2.996000000006461
0.2387,0.9263,-0.2983,0.025,0.1434,-0.1209,-0.3588,-1.435,-5.5037,-17.870146973764935,13.782168712158521,14.026272900006365,2.996000000006461
0.2382,0.9263,-0.2983,0.0248,0.1427,-0.119,-0.4025,-1.6275,-5.0487,-17.857575833571474,13.759026204347293,14.000232900012902,3.0120000000024447
0.2406,0.9249,-0.2956,0.0248,0.1427,-0.119,-0.4025,-1.6275,-5.0487,-17.77288395672262,13.888884881623591,14.000232900012902,3.0120000000024447
0.2388,0.9259,-0.2984,0.0248,0.1427,-0.119,-0.5688,-1.5575,-5.005,-17.82796791566112,13.809178673375023,13.976870400002475,3.0270000000091386
0.2366,0.9235,-0.2953,0.0256,0.1446,-0.1101,-0.63,-1.8112,-4.6638,-17.770489729079664,13.729580899061538,13.976870400002475,3.0270000000091386
0.2392,0.9243,-0.2965,0.0256,0.1446,-0.1101,-0.35,-1.8025,-4.8562,-17.7800283165293,13.823640874860045,13.948030400009715,3.0430000000051223
0.2392,0.9243,-0.2965,0.026,0.1422,-0.1234,-0.35,-1.8025,-4.8562,-17.783453732299407,13.8397956071791,13.948030400009715,3.0430000000051223
0.2423,0.9282,-0.2955,0.026,0.1422,-0.1234,-0.315,-1.8988,-4.5237,-17.70332905887771,13.947484778902018,13.917649600003525,3.059000000008382
0.2447,0.9282,-0.296,0.026,0.1422,-0.1234,-0.1225,-2.0213,-4.34,-17.692631734424577,14.075205462698174,13.917649600003525,3.059000000008382
0.2449,0.9225,-0.2916,0.0279,0.1446,-0.1196,-0.6037,-1.7938,-4.6813,-17.60128501308158,14.183245210252247,13.89074260001762,3.074000000000524
0.2426,0.9221,-0.296,0.0279,0.1446,-0.1196,-0.6037,-1.7938,-4.6813,-17.71964871762133,14.083436781547968,13.89074260001762,3.074000000000524
0.2426,0.9225,-0.2957,0.0251,0.1434,-0.1145,-0.2013,-1.2425,-4.76,-17.75470487540145,14.063487695558257,13.87086260001357,3.0900000000037835
0.2436,0.9225,-0.2957,0.0251,0.1434,-0.1145,-0.3938,-1.225,-4.7775,-17.766221621226254,14.106331394600554,13.87086260001357,3.0900000000037835
0.246,0.9227,-0.2947,0.0246,0.1423,-0.1198,-0.3938,-1.225,-4.4538,-17.732352563259706,14.227014886336061,13.85248760000537,3.1050000000104774
0.243,0.9241,-0.2991,0.0246,0.1423,-0.1198,-0.49,-1.0325,-4.4538,-17.858385715752334,14.075057322901724,13.85248760000537,3.1050000000104774
0.2413,0.9245,-0.2981,0.0246,0.1423,-0.1198,-0.5425,-1.1287,-4.2875,-17.86652328127953,13.970031391416788,13.834428400009903,3.121000000006461
0.24,0.9253,-0.2993,0.0242,0.1445,-0.1142,0.2537,-1.5488,-4.4538,-17.907359465734004,13.880026459461831,13.834428400009903,3.121000000006461
0.24,0.9253,-0.2993,0.0242,0.1445,-0.1142,0.2537,-1.5488,-4.4538,-17.919411400275163,13.865567466540574,13.809647600004855,3.1370000000097207
0.2359,0.929,-0.2998,0.0247,0.1425,-0.1236,0.7525,-1.5137,-4.795,-17.89425658474775,13.633076988514292,13.78694210001675,3.1520000000018626
0.242,0.9295,-0.2962,0.0247,0.1425,-0.1236,0.7962,-1.3475,-5.3463,-17.731009007274462,13.875789045936315,13.78694210001675,3.1520000000018626
0.2448,0.9317,-0.2991,0.0247,0.1425,-0.1236,0.6737,-1.575,-5.6,-17.78039835049289,14.012035534312698,13.761742100011617,3.1680000000051223
0.2438,0.9334,-0.2985,0.0251,0.1434,-0.1193,0.6737,-1.575,-5.6,-17.746332849948136,13.97878121973109,13.761742100011617,3.1680000000051223
0.2438,0.9307,-0.2963,0.0251,0.1434,-0.1193,0.735,-1.7325,-5.9237,-17.681958369943416,14.007510149366034,13.73575460000002,3.183000000011816
0.2428,0.9307,-0.2963,0.0238,0.144,-0.1158,0.2362,-2.17,-6.0375,-17.666180464220204,13.970179751418499,13.73575460000002,3.183000000011816
0.2424,0.9271,-0.3009,0.0238,0.144,-0.1158,-0.175,-2.03,-6.0637,-17.87488154518132,13.96657306340751,13.703274600022942,3.199000000000524
0.2394,0.9266,-0.2986,0.0238,0.144,-0.1158,-0.175,-2.03,-6.0637,-17.866161933622717,13.84824570152438,13.703274600022942,3.199000000000524
0.2419,0.9255,-0.2978,0.0258,0.1411,-0.1126,-0.1225,-1.12,-6.0637,-17.846495948836374,13.945180947727769,13.685354600019291,3.2150000000037835
0.2388,0.9251,-0.2998,0.0258,0.1411,-0.1126,-0.2275,-1.5662,-6.0113,-17.918407162630466,13.828462009498832,13.685354600019291,3.2150000000037835
0.2388,0.9251,-0.2998,0.0251,0.1428,-0.1229,-0.4462,-1.6625,-6.09,-17.94208804472971,13.8035713749888,13.66041710002026,3.2300000000032014
0.2377,0.9262,-0.3012,0.0251,0.1428,-0.1229,-0.4462,-1.6625,-6.09,-17.98757307434125,13.734639994130141,13.66041710002026,3.2300000000032014
0.2378,0.9278,-0.2978,0.0251,0.1428,-0.1229,-0.5512,-1.6975,-6.3263,-17.869723509014662,13.719141095289876,13.633257100014726,3.246000000006461
0.2372,0.9267,-0.2971,0.0239,0.1429,-0.1153,-0.4375,-1.295,-6.5625,-17.81065423582372,13.703348076447204,13.633257100014726,3.246000000006461
0.2356,0.9272,-0.2991,0.0239,0.1429,-0.1153,-0.0962,-1.75,-6.1775,-17.856423957666156,13.618829772564862,13.607007100015744,3.261000000005879
0.2356,0.927,-0.2976,0.0255,0.1438,-0.1155,-0.0962,-1.75,-6.1775,-17.817549763080258,13.606849059590527,13.607007100015744,3.261000000005879
0.2373,0.927,-0.2976,0.0255,0.1438,-0.1155,-0.5775,-1.8375,-6.4925,-17.805937002216787,13.676148722144136,13.577607100023124,3.2770000000018626
0.237,0.9261,-0.2995,0.0266,0.1443,-0.1194,-0.5425,-1.785,-6.2913,-17.876712886810623,13.682935100671529,13.577607100023124,3.2770000000018626
0.2331,0.9287,-0.3001,0.0266,0.1443,-0.1194,-0.5425,-1.785,-5.6438,-17.89575397300972,13.482366643737826,13.549047100017306,3.2930000000051223
0.2389,0.9309,-0.2966,0.0266,0.1443,-0.1194,-0.5863,-1.785,-5.6438,-17.760247957356036,13.689192126694088,13.549047100017306,3.2930000000051223
0.2369,0.9298,-0.2957,0.0271,0.1448,-0.1179,-0.6388,-2.065,-5.8538,-17.689368648328482,13.656137125291991,13.51807210001851,3.30800000000454
0.2369,0.9298,-0.2957,0.0271,0.1448,-0.1179,-0.9887,-2.2662,-5.8538,-17.66406533544185,13.6492861220357,13.51807210001851,3.30800000000454
0.2308,0.9258,-0.296,0.0263,0.1432,-0.119,-0.9887,-2.2662,-5.8538,-17.69943443080799,13.418256045496094,13.481812900011121,3.3240000000078
0.2344,0.9284,-0.2935,0.0263,0.1432,-0.119,-0.8575,-2.555,-5.9237,-17.612024692436584,13.510841672761812,13.481812900011121,3.3240000000078
0.2395,0.9353,-0.2928,0.0263,0.1432,-0.119,-0.9013,-2.59,-5.9325,-17.485531574074848,13.685712038526365,13.442962900031473,3.338999999999942
0.2412,0.9348,-0.2957,0.0266,0.1433,-0.113,-0.8662,-3.01,-5.53,-17.52349899982281,13.794563478856471,13.442962900031473,3.338999999999942
0.241,0.9302,-0.2918,0.0266,0.1433,-0.113,-0.8662,-3.01,-5.53,-17.463629973329773,13.867829556961318,13.394802900021661,3.3550000000032014
0.241,0.9302,-0.2918,0.0257,0.143,-0.1184,-1.2337,-2.9575,-5.5912,-17.44126034592566,13.882018472410504,13.394802900021661,3.3550000000032014
0.2405,0.9211,-0.296,0.0257,0.143,-0.1184,-0.8225,-2.8963,-5.3987,-17.653394282998427,13.944977226549005,13.34846210001222,3.371000000006461
0.2384,0.9193,-0.2968,0.0257,0.143,-0.1184,-0.1225,-2.7562,-4.8475,-17.81338635935591,13.87683222669385,13.34846210001222,3.371000000006461
0.2443,0.9209,-0.2961,0.0272,0.1432,-0.1196,-0.1225,-2.7562,-4.8475,-17.82069446800891,14.122773952879516,13.307119100013825,3.386000000005879
0.2492,0.9219,-0.3,0.0272,0.1432,-0.1196,0.2275,-2.0912,-4.9875,-17.964697498874813,14.36402740995745,13.307119100013825,3.386000000005879
0.2492,0.9219,-0.3,0.0274,0.143,-0.1242,0.63,-1.7062,-4.8825,-18.00946672326352,14.406582161502536,13.279819900008263,3.4020000000091386
0.2528,0.9238,-0.2941,0.0274,0.143,-0.1242,0.5512,-1.435,-4.7863,-17.754331918364297,14.5794917084332,13.279819900008263,3.4020000000091386
0.2511,0.9273,-0.2965,0.0274,0.143,-0.118,0.5512,-1.435,-4.7863,-17.737653106860165,14.482483759834695,13.256859900014026,3.4180000000051223
0.2508,0.9259,-0.2972,0.028,0.1437,-0.118,0.8575,-0.4288,-4.445,-17.78127247344008,14.465316292372707,13.256859900014026,3.4180000000051223
0.2445,0.9243,-0.2981,0.028,0.1437,-0.118,0.9013,0.0088,-4.375,-17.851968909705075,14.183909533817431,13.257000700013991,3.434000000001106
0.2445,0.9234,-0.3002,0.0281,0.1437,-0.1106,1.1725,0.8225,-4.5413,-17.972920260926205,14.141943238635356,13.257000700013991,3.434000000001106
0.2433,0.9234,-0.3002,0.0281,0.1437,-0.1106,1.1725,0.8225,-4.5413,-18.001001781917953,14.079350597526393,13.270160700016673,3.4500000000043656
0.2407,0.9244,-0.2953,0.0254,0.1448,-0.1164,0.9625,0.9187,-5.0487,-17.78564046203115,13.956789272839137,13.270160700016673,3.4500000000043656
0.2379,0.9252,-0.2969,0.0254,0.1448,-0.1164,0.9275,1.1725,-5.3463,-17.790149578294244,13.79481911495692,13.28774820001599,3.4650000000037835
0.2399,0.927,-0.2973,0.0254,0.1448,-0.1164,0.9275,1.1725,-5.3463,-17.783755865851475,13.834364009939556,13.28774820001599,3.4650000000037835
0.2424,0.9283,-0.2943,0.0254,0.1451,-0.115,1.3038,0.875,-5.565,-17.633836716715425,13.949597176494747,13.301748200018842,3.481000000007043
0.2424,0.9283,-0.2943,0.0254,0.1451,-0.115,0.84,0.5688,-5.8275,-17.601205648756512,13.971835222800244,13.301748200018842,3.481000000007043
0.2389,0.9301,-0.2988,0.0267,0.1438,-0.118,1.12,0.91,-5.8975,-17.760860800031338,13.789826934374668,13.31539820001169,3.495999999999185
0.2369,0.9302,-0.2981,0.0267,0.1438,-0.118,1.12,0.91,-5.8975,-17.767109342728958,13.665447341114334,13.31539820001169,3.495999999999185
0.2374,0.929,-0.2992,0.0267,0.1438,-0.118,1.2425,0.42,-6.3525,-17.83262377004874,13.66979853392566,13.32211820001306,3.5120000000024447
0.2334,0.9285,-0.3021,0.026,0.1458,-0.1218,0.3325,0.6125,-6.5012,-17.968088869680244,13.4977890381963,13.32211820001306,3.5120000000024447
0.2334,0.9287,-0.3009,0.026,0.1458,-0.1218,0.1488,0.8313,-6.8863,-17.95717212093278,13.459691463667532,13.33541900001577,3.5280000000057044
0.2313,0.9287,-0.3009,0.0238,0.1444,-0.119,0.1488,0.8313,-6.8863,-17.95384734198908,13.363759873291876,13.33541900001577,3.5280000000057044
0.2282,0.9295,-0.2973,0.0238,0.1444,-0.119,0.7262,0.4725,-7.1838,-17.79304940912793,13.21934336998547,13.342506500015496,3.5430000000051223
0.2303,0.9312,-0.3006,0.0238,0.1444,-0.119,0.3325,0.14,-7.035,-17.86243648783775,13.23715999728927,13.342506500015496,3.5430000000051223
0.2284,0.9339,-0.3024,0.0263,0.145,-0.1202,0.7088,-0.3675,-7.3938,-17.921394953907797,13.140425480071118,13.336626500014297,3.559000000008382
0.2262,0.9358,-0.301,0.0263,0.145,-0.1202,0.7088,-0.3675,-7.3938,-17.854062887258326,13.013977813072186,13.336626500014297,3.559000000008382
0.2262,0.9358,-0.301,0.0267,0.1434,-0.1186,0.6125,-0.665,-7.7525,-17.836702574973252,12.977548778323781,13.326651500019523,3.574000000000524
0.2266,0.9341,-0.3033,0.0267,0.1434,-0.1186,0.2537,-1.3737,-7.7787,-17.943691505411206,12.987278722650366,13.304672300015046,3.5900000000037835
0.2275,0.9334,-0.3034,0.0267,0.1434,-0.1186,-0.0263,-2.0125,-7.5075,-17.986402124762318,13.030487695367498,13.304672300015046,3.5900000000037835
0.2301,0.9321,-0.3051,0.0271,0.1449,-0.1229,-0.0263,-2.0125,-7.5075,-18.080130221937193,13.14897438299182,13.272472300008486,3.606000000007043
0.2303,0.9333,-0.2996,0.0271,0.1449,-0.1229,0.1925,-1.4875,-6.9388,-17.882254772398422,13.202352515733198,13.272472300008486,3.606000000007043
0.2303,0.9323,-0.3013,0.0262,0.1438,-0.1199,0.2275,-1.26,-6.8162,-17.9015758573724,13.22094622022084,13.25357230000922,3.621000000006461
0.233,0.9323,-0.3013,0.0262,0.1438,-0.1199,0.2275,-1.26,-6.3612,-17.907322501402952,13.340835479245325,13.25357230000922,3.621000000006461
0.2334,0.9316,-0.3035,0.0294,0.1449,-0.1209,-0.1925,-1.9512,-6.3612,-17.998046679767043,13.385480405345286,13.22235310000286,3.6370000000097207
0.2323,0.932,-0.3034,0.0294,0.1449,-0.1209,-0.455,-1.8988,-5.8187,-18.019303351607892,13.344169467108916,13.22235310000286,3.6370000000097207
0.2359,0.9336,-0.2982,0.0294,0.1449,-0.1209,-0.2625,-1.2075,-5.46,-17.82025636106221,13.497241741941538,13.203033100007708,3.6530000000057044
0.2336,0.9316,-0.302,0.0274,0.1443,-0.1149,-0.2625,-1.2075,-5.46,-17.912204704608925,13.431667584269197,13.203033100007708,3.6530000000057044
0.2336,0.9316,-0.302,0.0274,0.1443,-0.1149,0.0787,-1.0063,-4.8913,-17.946034171960914,13.418809524442569,13.18693230001175,3.669000000001688
0.2306,0.9293,-0.3018,0.0275,0.145,-0.1223,-0.5512,-0.7788,-4.76,-17.97405625775525,13.302926895623642,13.18693230001175,3.669000000001688
0.2302,0.9279,-0.2981,0.0275,0.145,-0.1223,-0.8138,-0.8662,-4.8562,-17.880855171162132,13.291845566561019,13.173073100008926,3.6850000000049477
0.2336,0.9295,-0.2969,0.0275,0.145,-0.1223,-0.8138,-0.8662,-4.8562,-17.786162609157376,13.43386088354426,13.173073100008926,3.6850000000049477
0.2299,0.929,-0.2994,0.0262,0.1454,-0.1186,-0.9712,-0.6825,-4.6463,-17.8275904105552,13.283717575281853,13.162835600009323,3.7000000000043656
0.2299,0.9293,-0.2989,0.0262,0.1454,-0.1186,-0.945,-1.2075,-4.7162,-17.82882616904821,13.25744325960236,13.162835600009323,3.7000000000043656
0.2325,0.9293,-0.2989,0.0265,0.1441,-0.1194,-0.7437,-1.0675,-4.4363,-17.8294304726534,13.374346477988128,13.145755600005844,3.716000000007625
0.2352,0.9257,-0.2984,0.0265,0.1441,-0.1194,-0.7437,-1.0675,-4.4363,-17.85114730242853,13.559259968919715,13.145755600005844,3.716000000007625
0.2366,0.9283,-0.3012,0.0265,0.1441,-0.1194,-0.4988,-1.12,-4.06,-17.928871460442494,13.61714014901837,13.128955600014644,3.730999999999767
0.2355,0.9305,-0.2982,0.028,0.1433,-0.1174,-0.4375,-0.9275,-3.9113,-17.828428192825026,13.560556050099033,13.128955600014644,3.730999999999767
0.2356,0.9279,-0.297,0.028,0.1433,-0.1174,-1.0588,-0.8925,-4.2787,-17.787109758874436,13.58908409679502,13.114675600011735,3.747000000003027
0.2356,0.9279,-0.297,0.0282,0.145,-0.1161,-1.0588,-0.8925,-4.2787,-17.767205423760505,13.59354164518429,13.114675600011735,3.747000000003027
0.2352,0.9264,-0.2945,0.0282,0.145,-0.1161,-0.7437,-0.5512,-4.2962,-17.6904782987956,13.600309577262179,13.105856400009937,3.7630000000062864
0.2369,0.9273,-0.2991,0.0282,0.145,-0.1161,-0.7962,-0.84,-4.3663,-17.797278174644365,13.6552667119073,13.105856400009937,3.7630000000062864
0.2363,0.9292,-0.2998,0.0278,0.1441,-0.1184,-0.6562,-1.1725,-4.5062,-17.847780489589884,13.613225058357772,13.08826890001062,3.7780000000057044
0.2355,0.9304,-0.3004,0.0278,0.1441,-0.1184,-0.6562,-1.1725,-4.5062,-17.87523768320812,13.55439609719775,13.08826890001062,3.7780000000057044
0.2199,0.9297,-0.301,0.0265,0.1452,-0.1191,-0.63,-0.9187,-4.2,-17.914081377395316,12.816579729604939,13.073569700007626,3.794000000008964
0.2338,0.9297,-0.301,0.0265,0.1452,-0.1191,-0.77,-1.47,-4.4713,-17.928979765857186,13.352325935916893,13.073569700007626,3.794000000008964
0.2284,0.9305,-0.3043,0.026,0.1439,-0.1174,-0.77,-1.47,-4.4275,-18.032996571739357,13.167458473005306,13.051519700019178,3.809000000001106
0.2276,0.9312,-0.3017,0.026,0.1439,-0.1174,-0.8313,-1.3737,-4.4275,-17.98707090199703,13.102087208189566,13.051519700019178,3.809000000001106
0.2326,0.9323,-0.2998,0.026,0.1439,-0.1174,0.0525,-2.0213,-4.9525,-17.876708568861115,13.315688682018571,13.019178900012589,3.8250000000043656
0.2369,0.9343,-0.301,0.0269,0.1439,-0.1229,0.0175,-2.6337,-5.1975,-17.863384011593375,13.522363974357349,13.019178900012589,3.8250000000043656
0.2369,0.9343,-0.301,0.0269,0.1439,-0.1229,0.0175,-2.6337,-5.1975,-17.859156879940183,13.560070592803905,12.977039700004005,3.841000000007625
0.2366,0.9343,-0.2988,0.027,0.1434,-0.1153,-0.105,-2.7125,-5.2413,-17.775900518168427,13.560733669424357,12.977039700004005,3.841000000007625
0.2405,0.9329,-0.3004,0.027,0.1434,-0.1153,-0.84,-2.6688,-5.18,-17.817089118457524,13.74615820942638,12.937007700005559,3.856000000007043
0.238,0.9322,-0.2964,0.027,0.1434,-0.1153,-0.9887,-2.7125,-5.39,-17.721696640534297,13.688268559924643,12.937007700005559,3.856000000007043
0.2391,0.9288,-0.3029,0.0275,0.1454,-0.1125,-0.9887,-2.7125,-5.39,-17.90351093289516,13.740281267692284,12.893607699996718,3.8720000000103028
0.2391,0.9265,-0.3018,0.0275,0.1454,-0.1125,-0.91,-2.7125,-5.6875,-17.980082250593536,13.777418827085583,12.893607699996718,3.8720000000103028
0.2363,0.9265,-0.3018,0.027,0.1461,-0.1182,-0.77,-2.205,-5.8713,-18.0161657230764,13.66171909893141,12.860532700014044,3.8870000000024447
0.2354,0.9272,-0.299,0.027,0.1461,-0.1182,-1.0412,-1.82,-5.7575,-17.94153365111738,13.599784116955073,12.831412700008112,3.9030000000057044
0.2377,0.9243,-0.2988,0.027,0.1461,-0.1182,-1.0412,-1.82,-5.7575,-17.927439686224975,13.71950606849013,12.831412700008112,3.9030000000057044
0.238,0.9226,-0.2995,0.027,0.1437,-0.125,-1.0588,-1.6625,-6.055,-17.957157942176142,13.771513273459405,12.80481270001479,3.919000000001688
0.2382,0.9239,-0.3026,0.027,0.1437,-0.125,-0.875,-1.6275,-6.405,-18.056238473143196,13.768068654338753,12.80481270001479,3.919000000001688
0.2382,0.9239,-0.3026,0.0268,0.1441,-0.1144,-0.3237,-1.2163,-6.3,-18.10691321136593,13.767256735038316,12.786568200006647,3.934000000008382
0.2386,0.9262,-0.2956,0.0268,0.1441,-0.1144,-0.3237,-1.2163,-6.3,-17.84518949645519,13.783862356176103,12.786568200006647,3.934000000008382
0.241,0.9263,-0.2983,0.0268,0.1441,-0.1144,-0.5775,-0.525,-6.545,-17.8483126303728,13.879076042305055,12.778168200008755,3.9500000000043656
0.2322,0.9253,-0.299,0.0278,0.145,-0.1213,-0.315,-0.2713,-5.6875,-17.88659871714103,13.52002626714587,12.778168200008755,3.9500000000043656
0.2345,0.9293,-0.2991,0.0278,0.145,-0.1213,-0.4638,-0.1575,-5.4163,-17.85809719778748,13.509365158247302,12.775805700008847,3.9650000000037835
0.2345,0.931,-0.2979,0.0273,0.1432,-0.119,-0.4638,-0.1575,-5.4163,-17.786441096440285,13.493839221139746,12.775805700008847,3.9650000000037835
0.2359,0.931,-0.2979,0.0273,0.1432,-0.119,-0.6125,-0.245,-5.4513,-17.760558841789393,13.55362384720904,12.771885700008049,3.981000000007043
0.2341,0.9324,-0.2995,0.0293,0.1422,-0.1184,-0.1312,-0.1838,-5.5825,-17.792037096654685,13.46541717095337,12.771885700008049,3.981000000007043
0.2339,0.9317,-0.2996,0.0293,0.1422,-0.1184,-0.1312,-0.1838,-4.83,-17.814595860749698,13.445360831399244,12.768944900008787,3.997000000003027
0.2309,0.9282,-0.2984,0.0293,0.1422,-0.1184,-0.2975,-0.2887,-4.83,-17.81918712560093,13.344371919424626,12.768944900008787,3.997000000003027
0.2369,0.9323,-0.2969,0.0277,0.1445,-0.1214,-0.1575,-0.1663,-5.005,-17.71651257962914,13.56369041633886,12.766450400008884,4.012000000002445
0.2369,0.9323,-0.2969,0.0277,0.1445,-0.1214,-0.4812,0.035,-4.55,-17.68415297480774,13.602960156617705,12.766450400008884,4.012000000002445
0.2377,0.936,-0.3014,0.0254,0.1431,-0.1168,-0.4812,0.035,-4.55,-17.786875882112877,13.591612009095966,12.767010400008997,4.028000000005704
0.2414,0.9356,-0.2951,0.0254,0.1431,-0.1168,-1.1287,0.0263,-4.5763,-17.64598593658286,13.785858702671396,12.767010400008997,4.028000000005704
0.237,0.9311,-0.2935,0.0254,0.1431,-0.1168,-0.8838,-0.1312,-4.7863,-17.562534470858814,13.669150920172019,12.765042400009074,4.043000000005122
0.2345,0.9276,-0.2953,0.025,0.1449,-0.1263,-1.365,-0.07,-4.5675,-17.604398555133503,13.564466283887525,12.765042400009074,4.043000000005122
0.2345,0.9248,-0.3004,0.025,0.1449,-0.1263,-1.365,-0.07,-4.5675,-17.774362676521438,13.559725372917656,12.763922400008846,4.059000000008382
0.2329,0.9248,-0.3004,0.0263,0.145,-0.1186,-1.7325,-0.7262,-4.8212,-17.83769971934384,13.485042683338628,12.763922400008846,4.059000000008382
0.2338,0.9256,-0.2985,0.0263,0.145,-0.1186,-1.505,-0.8138,-4.6287,-17.85179271513983,13.51209671647531,12.750901600012115,4.075000000004366
0.2386,0.9284,-0.2983,0.0263,0.145,-0.1186,-1.2075,-0.4988,-4.3663,-17.83288712070586,13.711533478971306,12.750901600012115,4.075000000004366
0.2391,0.9289,-0.2993,0.0274,0.1448,-0.1192,-1.2075,-0.4988,-4.3663,-17.845647786818223,13.757513075647067,12.743419600012405,4.0900000000037835
0.2391,0.9317,-0.2951,0.0274,0.1448,-0.1192,-0.91,-0.6037,-4.6988,-17.696496331095112,13.749045500425112,12.743419600012405,4.0900000000037835
0.2391,0.9317,-0.2951,0.0282,0.1448,-0.1102,-0.9013,-0.63,-4.8038,-17.629238189709312,13.747634562442432,12.733339600010352,4.106000000007043
0.2386,0.9305,-0.2925,0.0282,0.1448,-0.1102,-0.91,-0.385,-4.2438,-17.53078417485367,13.746050402333639,12.733339600010352,4.106000000007043
0.2395,0.9264,-0.2958,0.0282,0.1448,-0.1102,-0.91,-0.385,-4.2438,-17.628510377250624,13.82147532934939,12.727564600010576,4.121000000006461
0.2363,0.9251,-0.2966,0.0262,0.1442,-0.116,-1.2862,-0.4288,-4.4713,-17.69647397795071,13.695173580254155,12.727564600010576,4.121000000006461
0.2346,0.9268,-0.2962,0.0262,0.1442,-0.116,-0.6737,-0.5863,-5.1363,-17.71256767358237,13.581194117325758,12.718183800008664,4.137000000009721
0.2346,0.9245,-0.2938,0.0253,0.1443,-0.1155,-0.84,-0.6737,-5.5563,-17.66593373100631,13.592624004159156,12.718183800008664,4.137000000009721
0.2332,0.9245,-0.2938,0.0253,0.1443,-0.1155,-0.84,-0.6737,-5.5563,-17.64561083982327,13.531964964679048,12.707404600011369,4.153000000005704
0.232,0.9256,-0.2946,0.0252,0.1426,-0.1193,-0.7088,-1.295,-5.8362,-17.651267149310286,13.453438914414644,12.707404600011369,4.153000000005704
0.2307,0.9257,-0.2934,0.0252,0.1426,-0.1193,-0.6037,-1.435,-5.8187,-17.611773845295456,13.38239672859334,12.685879600012203,4.168000000005122
0.2337,0.9287,-0.294,0.0252,0.1426,-0.1193,-0.6037,-1.435,-5.8187,-17.584270503663312,13.468436307325762,12.685879600012203,4.168000000005122
0.2392,0.9302,-0.2948,0.0268,0.1438,-0.123,-0.1838,-1.2163,-6.0113,-17.584426686581068,13.708132094013772,12.66641880001709,4.184000000001106
0.2392,0.9302,-0.2948,0.0268,0.1438,-0.123,0.6475,-1.3038,-5.985,-17.58448557789784,13.759566522650866,12.66641880001709,4.184000000001106
0.2388,0.9309,-0.297,0.0281,0.1427,-0.1229,0.3588,-1.2862,-5.81,-17.66342193494102,13.73867522789072,12.64712580000848,4.1990000000078
0.2378,0.9298,-0.2971,0.0281,0.1427,-0.1229,0.3588,-1.2862,-5.81,-17.704016457277124,13.7013096459675,12.64712580000848,4.1990000000078
0.2411,0.9268,-0.2955,0.0281,0.1427,-0.1229,-0.07,-1.575,-5.7312,-17.69074071574392,13.875963537371259,12.621925800003346,4.2150000000110595
0.2409,0.9254,-0.2952,0.0262,0.1415,-0.1158,-0.3325,-1.6538,-5.25,-17.691895810093996,13.919002183816708,12.621925800003346,4.2150000000110595
0.2409,0.9262,-0.2997,0.0262,0.1415,-0.1158,-0.0088,-1.3737,-5.04,-17.8542048490549,13.902806377727462,12.599946600018859,4.230999999999767
0.2422,0.9262,-0.2997,0.0262,0.145,-0.119,-0.0088,-1.3737,-5.04,-17.906129601373834,13.959227503625637,12.599946600018859,4.230999999999767
0.2414,0.9252,-0.2961,0.0262,0.145,-0.119,0.21,-0.8662,-4.9612,-17.79436277729939,13.956027922893304,12.58695360001306,4.246000000006461
0.2414,0.924,-0.2974,0.0262,0.145,-0.119,0.6388,-0.3675,-4.6463,-17.828910305772055,13.96405138863021,12.58695360001306,4.246000000006461
0.24,0.9253,-0.3002,0.0255,0.1445,-0.1147,0.7875,0.0,-4.7075,-17.937673516048072,13.876593090398172,12.58695360001306,4.262000000002445
0.2395,0.9281,-0.298,0.0255,0.1445,-0.1147,0.7875,0.0,-4.7075,-17.835922489518417,13.816237445161098,12.58695360001306,4.262000000002445
0.2395,0.9281,-0.298,0.0256,0.1432,-0.1193,0.8138,0.4288,-4.4713,-17.80992069588126,13.806052182580297,12.59338560001281,4.277000000001863
0.2414,0.9281,-0.2945,0.0256,0.1432,-0.1193,0.6475,0.7962,-4.1737,-17.65918897185159,13.905853176806623,12.606124800015406,4.293000000005122
0.2432,0.9301,-0.2992,0.0256,0.1432,-0.1193,1.2687,1.1113,-4.8738,-17.79294634468248,13.965346062220702,12.606124800015406,4.293000000005122
0.2399,0.932,-0.2962,0.0261,0.1449,-0.1197,1.2687,1.1113,-4.8738,-17.667652247264655,13.814576060601432,12.623905600010943,4.309000000001106
0.2392,0.9315,-0.2982,0.0261,0.1449,-0.1197,1.295,1.7938,-4.8738,-17.732468164394287,13.755107050654876,12.623905600010943,4.309000000001106
0.2392,0.9293,-0.2949,0.0263,0.1452,-0.115,1.0412,1.1375,-4.8913,-17.636352194006225,13.779618317780406,12.640968100018558,4.3240000000078
0.2394,0.9293,-0.2949,0.0263,0.1452,-0.115,1.0412,1.19,-5.0662,-17.61333509632049,13.792936434209821,12.640968100018558,4.3240000000078
0.2358,0.9299,-0.2992,0.0267,0.1446,-0.1266,0.595,1.19,-5.0662,-17.77618186895205,13.610478644744221,12.660008100013778,4.3400000000037835
0.2363,0.929,-0.2951,0.0267,0.1446,-0.1266,0.6125,0.91,-5.355,-17.66360592938485,13.623826178888761,12.660008100013778,4.3400000000037835
0.2338,0.9301,-0.3,0.0267,0.1446,-0.1266,0.4462,0.9363,-5.6438,-17.81733244242289,13.487921448177405,12.674052600013233,4.355000000003201
0.2317,0.9296,-0.2998,0.0244,0.145,-0.125,0.4462,0.9363,-5.6438,-17.85870434632588,13.373228842680161,12.674052600013233,4.355000000003201
0.2317,0.9296,-0.2998,0.0244,0.145,-0.125,0.4812,0.9363,-5.8187,-17.87030133016121,13.350652236202349,12.689033400016285,4.371000000006461
0.2314,0.9285,-0.2973,0.0251,0.145,-0.12,0.7788,0.8575,-6.1775,-17.78427427497148,13.351722540539848,12.689033400016285,4.371000000006461
0.2322,0.9269,-0.299,0.0251,0.145,-0.12,0.9538,1.0588,-5.81,-17.85560170712435,13.39789293671737,12.705974200012033,4.387000000002445
0.2327,0.9271,-0.3018,0.0251,0.145,-0.12,0.9538,1.0588,-5.81,-17.98861771673062,13.418370613021558,12.705974200012033,4.387000000002445
0.2352,0.9308,-0.2976,0.0271,0.145,-0.1307,0.5688,0.6125,-5.565,-17.800106056426326,13.510379917578607,12.715161700016132,4.402000000009139
0.2352,0.9308,-0.3005,0.0271,0.145,-0.1307,0.5775,0.735,-4.9875,-17.867379811498658,13.519071690262312,12.715161700016132,4.402000000009139
0.2356,0.9315,-0.3005,0.0281,0.1436,-0.1199,0.3675,0.1838,-5.285,-17.87610721111967,13.531390671954822,12.718102500015394,4.418000000005122
0.2385,0.9284,-0.2995,0.0281,0.1436,-0.1199,0.3675,0.1838,-5.285,-17.878601366014525,13.700139542994108,12.718102500015394,4.418000000005122
0.2354,0.9302,-0.3022,0.0281,0.1436,-0.1199,0.1488,-0.2625,-5.5912,-17.96146560679508,13.565552942521217,12.714165000015548,4.43300000000454
0.2403,0.934,-0.299,0.0274,0.1462,-0.1215,-0.1225,-0.1138,-5.0138,-17.821105289766205,13.732244506785625,12.714165000015548,4.43300000000454
0.2384,0.929,-0.2986,0.0274,0.1462,-0.1215,-0.1575,0.315,-4.97,-17.819368209760114,13.729573898615412,12.719205000014282,4.449000000000524
0.2384,0.929,-0.2986,0.0256,0.1451,-0.1228,-0.1575,0.315,-4.97,-17.818784739185023,13.729106080062762,12.719205000014282,4.449000000000524
0.2393,0.9272,-0.2963,0.0256,0.1451,-0.1228,-0.4462,0.2275,-5.355,-17.75801448670237,13.796231676610752,12.722845000015024,4.4650000000037835
0.2385,0.9293,-0.3,0.0256,0.1451,-0.1228,-0.8487,0.2275,-5.3987,-17.83299676704513,13.738389130828576,12.722845000015024,4.4650000000037835
0.2409,0.9304,-0.2959,0.0234,0.1443,-0.1248,-0.9275,0.6737,-5.0487,-17.728808006931366,13.838782174252978,12.732950500019534,4.480000000010477
0.2412,0.9276,-0.2984,0.0234,0.1443,-0.1248,-0.9275,0.6737,-5.0487,-17.785511191295683,13.891709965287673,12.732950500019534,4.480000000010477
0.2412,0.9276,-0.2976,0.0244,0.1447,-0.1206,-1.155,1.0325,-4.9963,-17.786590645768324,13.903895742871606,12.749470500015388,4.496000000006461
0.2386,0.9246,-0.2976,0.0244,0.1447,-0.1206,-0.5688,0.91,-5.5037,-17.82025453274535,13.821081801710324,12.749470500015388,4.496000000006461
0.2343,0.9254,-0.2977,0.0257,0.145,-0.124,-0.5688,0.91,-5.3725,-17.82798201294386,13.60201708111647,12.763120500014859,4.511000000005879
0.2366,0.9265,-0.2973,0.0257,0.145,-0.124,-0.3063,0.5688,-5.3725,-17.803855141338584,13.654492921851173,12.763120500014859,4.511000000005879
0.238,0.9281,-0.2987,0.0257,0.145,-0.124,-0.0613,0.1575,-5.67,-17.828420475693896,13.705334090307419,12.765640500014227,4.527000000001863
0.2363,0.9299,-0.2998,0.0255,0.1445,-0.1232,0.42,0.14,-5.7575,-17.857824721792976,13.618348404803767,12.767880500014684,4.543000000005122
0.2363,0.9299,-0.2998,0.0255,0.1445,-0.1232,0.42,0.14,-5.7575,-17.866096770469227,13.60067248665721,12.767880500014684,4.543000000005122
0.2371,0.9321,-0.2968,0.0261,0.1446,-0.1201,0.63,0.7175,-5.5563,-17.716622060824015,13.619962072243487,12.778643000014267,4.55800000000454
0.2392,0.9321,-0.2952,0.0261,0.1446,-0.1201,0.6125,0.4462,-5.8012,-17.611485308425145,13.721198490880532,12.778643000014267,4.55800000000454
0.2367,0.9324,-0.2974,0.0261,0.1446,-0.1201,-0.0875,-0.42,-6.055,-17.664701867108594,13.6232715706998,12.771923000015953,4.574000000000524
0.2336,0.9318,-0.2979,0.0232,0.1452,-0.1242,-0.0875,-0.42,-6.055,-17.70808412444029,13.471968843042683,12.771923000015953,4.574000000000524
0.2336,0.9318,-0.2963,0.0232,0.1452,-0.1242,-0.35,-0.56,-6.4138,-17.664431559892414,13.444930259622563,12.763523000012205,4.589000000007218
0.2316,0.9287,-0.2963,0.0238,0.1438,-0.1216,-0.2537,-0.5425,-6.195,-17.684510818651418,13.382563362997193,12.763523000012205,4.589000000007218
0.2327,0.9315,-0.2978,0.0238,0.1438,-0.1216,0.1225,-0.8925,-6.4662,-17.715373972258405,13.384045059992456,12.74924300001579,4.605000000003201
0.2326,0.9292,-0.2954,0.0238,0.1438,-0.1216,0.1225,-0.8925,-6.4662,-17.66027932980593,13.409623561732118,12.74924300001579,4.605000000003201
0.2322,0.9282,-0.2965,0.0249,0.1438,-0.1286,-0.455,-1.4612,-6.44,-17.694783483505645,13.40497832882711,12.725863800011027,4.621000000006461
0.2344,0.9283,-0.2945,0.0249,0.1438,-0.1286,-0.49,-1.4875,-6.5275,-17.636742715115723,13.501957345411366,12.725863800011027,4.621000000006461
0.2344,0.9283,-0.2945,0.0251,0.1446,-0.1226,-0.4988,-1.5225,-6.2213,-17.614840790138132,13.52582865777275,12.703026300011913,4.636000000005879
0.2381,0.9258,-0.2957,0.0251,0.1446,-0.1226,-0.4988,-1.5225,-6.2213,-17.676040962621556,13.711929671015016,12.703026300011913,4.636000000005879
0.2374,0.9285,-0.2962,0.0251,0.1446,-0.1226,-0.5688,-1.505,-6.2562,-17.686487480092968,13.69487879044909,12.678946300017959,4.652000000001863
0.2361,0.9281,-0.2962,0.0262,0.1448,-0.1231,-0.6825,-1.1988,-6.1163,-17.69467226357809,13.638643800192568,12.678946300017959,4.652000000001863
0.2388,0.9271,-0.2936,0.0262,0.1448,-0.1231,-0.6913,-1.4438,-5.7225,-17.62237700854496,13.764615678890307,12.655845500013253,4.668000000005122
0.2388,0.9271,-0.2977,0.0264,0.146,-0.1192,-0.6913,-1.4438,-5.7225,-17.728652299989612,13.776481881626932,12.655845500013253,4.668000000005122
0.2384,0.926,-0.2977,0.0264,0.146,-0.1192,-0.8838,-1.6275,-6.0813,-17.780579754106075,13.772604312368202,12.62980550001979,4.684000000001106
0.2386,0.9263,-0.298,0.0265,0.1446,-0.1192,-0.7175,-1.225,-5.6438,-17.8116086759726,13.77652513702768,12.62980550001979,4.684000000001106
0.2399,0.9272,-0.2977,0.0265,0.1446,-0.1192,-0.7175,-1.225,-5.7137,-17.805086640793142,13.826591007262875,12.610205500015796,4.700000000004366
0.2352,0.9278,-0.2983,0.0265,0.1446,-0.1192,0.1575,-1.2163,-5.7137,-17.817758297713063,13.620157280684781,12.610205500015796,4.700000000004366
0.2363,0.9252,-0.294,0.0253,0.1458,-0.1198,-0.2625,-1.1725,-5.3637,-17.694492170326555,13.669019215557913,12.592618000007947,4.7150000000110595
0.2363,0.9252,-0.294,0.0253,0.1458,-0.1198,-0.4288,-0.6825,-5.2413,-17.652983378368283,13.678260493511477,12.592618000007947,4.7150000000110595
0.2433,0.9296,-0.2951,0.0237,0.146,-0.123,-0.4288,-0.6825,-5.2413,-17.627118283626864,13.946539739046163,12.581698000010688,4.731000000007043
0.2453,0.931,-0.2928,0.0237,0.146,-0.123,0.0088,-0.5163,-5.2587,-17.51206592091519,14.078731148965403,12.581698000010688,4.731000000007043
0.2453,0.9331,-0.2959,0.0237,0.146,-0.123,-0.315,-0.1488,-4.7512,-17.565330185134254,14.069814346447371,12.579466000010774,4.746000000006461
0.2407,0.927,-0.2943,0.0258,0.1445,-0.1138,-0.5775,0.5337,-4.8475,-17.594589609829598,13.929444518281457,12.579466000010774,4.746000000006461
0.2407,0.927,-0.2949,0.0258,0.1445,-0.1138,-0.5775,0.5337,-4.8475,-17.62654260580385,13.903304080343919,12.58800520000863,4.762000000002445
0.2361,0.9257,-0.2949,0.0268,0.144,-0.1209,-0.245,0.4988,-4.9,-17.65516011838763,13.70131927692473,12.58800520000863,4.762000000002445
0.2331,0.9263,-0.2973,0.0268,0.144,-0.1209,-0.1925,-0.1663,-5.005,-17.746980480842215,13.5144546006614,12.585344400008088,4.778000000005704
0.2349,0.9294,-0.2922,0.0268,0.144,-0.1209,0.0962,-0.525,-5.4687,-17.543963460068383,13.54783116063523,12.585344400008088,4.778000000005704
0.2337,0.9325,-0.294,0.0262,0.1446,-0.1158,0.0962,-0.525,-5.4687,-17.512985307020056,13.462756701829802,12.577469400008393,4.793000000005122
0.2351,0.9309,-0.2934,0.0262,0.1446,-0.1158,-0.0263,-0.6212,-5.4775,-17.49993803952752,13.52748813223589,12.577469400008393,4.793000000005122
0.2351,0.9309,-0.2934,0.0256,0.1442,-0.123,0.0962,-0.5425,-5.6262,-17.495665065168513,13.53984656491459,12.568789400010573,4.809000000001106
0.2349,0.932,-0.295,0.0256,0.1442,-0.123,0.2887,-0.7437,-5.9763,-17.543903162612786,13.517438873317642,12.568789400010573,4.809000000001106
0.2337,0.9333,-0.2939,0.0256,0.1442,-0.123,0.2887,-0.7437,-5.9763,-17.49826243370963,13.450834088510385,12.557633900005595,4.8240000000078
0.2333,0.9314,-0.2925,0.0246,0.1452,-0.1138,-0.175,-1.225,-5.9062,-17.456077516207102,13.442459638350412,12.557633900005595,4.8240000000078
0.2338,0.9296,-0.2914,0.0246,0.1452,-0.1138,-0.2975,-1.645,-5.9412,-17.422709708725193,13.484112861989628,12.5313139000122,4.8400000000037835
0.2338,0.9296,-0.2948,0.0238,0.1465,-0.1269,-0.6388,-2.0825,-5.7137,-17.526063083178734,13.482127243097633,12.5313139000122,4.8400000000037835
0.2304,0.9279,-0.2948,0.0238,0.1465,-0.1269,-0.6388,-2.0825,-5.7137,-17.585598304035507,13.347795119109403,12.497993900005412,4.856000000007043
0.2311,0.9282,-0.2929,0.0267,0.1451,-0.1238,-0.6037,-2.0125,-6.3787,-17.54195956225329,13.354645893553325,12.497993900005412,4.856000000007043
0.2333,0.9288,-0.2901,0.0267,0.1451,-0.1238,-0.3325,-2.3537,-6.37,-17.415670911979316,13.453062585304847,12.462688400006781,4.871000000006461
0.2341,0.9286,-0.2948,0.0267,0.1451,-0.1238,-0.3325,-2.3537,-5.8538,-17.542536803159603,13.499003531153118,12.462688400006781,4.871000000006461
0.2314,0.9308,-0.2949,0.0264,0.1455,-0.121,-0.6825,-2.1263,-5.8538,-17.564404731810736,13.367195867575086,12.428667600015322,4.887000000002445
0.2314,0.9308,-0.2949,0.0264,0.1455,-0.121,-0.49,-2.3012,-6.125,-17.573769591065755,13.340302694992648,12.428667600015322,4.887000000002445
0.2338,0.9306,-0.2937,0.0262,0.1446,-0.1206,-0.3063,-2.6337,-6.0375,-17.536324365679974,13.444684318788772,12.389162099997693,4.902000000009139
0.2355,0.9311,-0.2934,0.0262,0.1446,-0.1206,-0.3063,-2.6337,-6.0375,-17.5065215431093,13.537142166197752,12.389162099997693,4.902000000009139
0.2348,0.9291,-0.2975,0.0262,0.1446,-0.1206,-0.7788,-2.345,-6.2125,-17.6496351124277,13.533603170676697,12.35164210000711,4.918000000005122
0.235,0.9294,-0.2948,0.0255,0.1453,-0.1186,-0.595,-2.45,-6.3437,-17.618761479350656,13.546855231103054,12.307542100015953,4.936000000001513
0.235,0.9294,-0.2939,0.0255,0.1453,-0.1186,-0.945,-2.6075,-6.195,-17.580470475243143,13.552769451576625,12.307542100015953,4.936000000001513
0.2364,0.9285,-0.2939,0.026,0.1446,-0.1211,-0.945,-2.6075,-6.195,-17.57165671249228,13.62347747251243,12.268429599998498,4.951000000008207
0.2392,0.9259,-0.294,0.026,0.1446,-0.1211,-0.4988,-2.3012,-5.9938,-17.59926810587894,13.788020854264282,12.268429599998498,4.951000000008207
0.2391,0.9277,-0.2986,0.026,0.1446,-0.1211,-0.6825,-2.0825,-5.81,-17.742939699078885,13.785305118163576,12.268429599998498,4.951000000008207
0.2406,0.9266,-0.297,0.0272,0.1449,-0.118,-0.4288,-1.9425,-5.5037,-17.761285238447172,13.86880511608358,12.2373496000063,4.967000000004191
0.2395,0.9282,-0.2944,0.0272,0.1449,-0.118,-0.4288,-1.9425,-5.5037,-17.65810750700483,13.827590389779695,12.208212100007431,4.982000000003609
0.2395,0.9282,-0.2944,0.0278,0.1446,-0.1197,-0.2537,-1.7587,-5.4687,-17.61861756547177,13.819613285266945,12.208212100007431,4.982000000003609
0.2397,0.9282,-0.2969,0.0278,0.1446,-0.1197,-0.0613,-1.8637,-5.6,-17.69897217945294,13.818687585919243,12.178392900014916,4.9979999999995925
0.2399,0.9279,-0.2989,0.0278,0.1446,-0.1197,0.56,-1.5137,-5.3375,-17.81281255471023,13.823904137743634,12.178392900014916,4.9979999999995925
0.2393,0.9271,-0.2971,0.0282,0.1454,-0.1249,0.56,-1.5137,-5.3375,-17.780612073928115,13.812383439596294,12.154173700009983,5.014000000002852
0.2388,0.9303,-0.2926,0.0282,0.1454,-0.1249,0.735,-0.735,-5.0925,-17.54249628107315,13.768577244661747,12.154173700009983,5.014000000002852
0.2388,0.9303,-0.2954,0.0269,0.1461,-0.1203,0.3675,-0.6037,-4.7863,-17.595231714175718,13.751146103538604,12.14511820000594,5.029000000009546
0.24,0.9291,-0.2954,0.0269,0.1461,-0.1203,1.1812,-0.3325,-5.1712,-17.627822210175367,13.815362698831349,12.14511820000594,5.029000000009546
0.239,0.9293,-0.2944,0.0267,0.146,-0.1246,1.1812,-0.3325,-5.1712,-17.58960254347821,13.782906276452353,12.139798200007275,5.04500000000553
0.2367,0.929,-0.2915,0.0267,0.146,-0.1246,1.3388,0.3325,-4.76,-17.458474606944616,13.683876305038119,12.139798200007275,5.04500000000553
0.2349,0.9292,-0.2955,0.0267,0.146,-0.1246,1.1113,0.4375,-5.25,-17.598371493075476,13.570574363178395,12.14636070000702,5.060000000004948
0.2314,0.9288,-0.2962,0.0252,0.1446,-0.119,1.1113,0.4375,-5.25,-17.66673822563117,13.392814750154086,12.14636070000702,5.060000000004948
0.2314,0.9288,-0.2962,0.0252,0.1446,-0.119,0.7262,0.42,-5.1975,-17.682345068666947,13.359999157294654,12.153080700005335,5.076000000000931
0.231,0.9293,-0.2993,0.0264,0.1444,-0.1227,0.8662,0.84,-5.145,-17.80975422171163,13.32042144543545,12.153080700005335,5.076000000000931
0.2298,0.9307,-0.2953,0.0264,0.1444,-0.1227,1.155,0.7788,-5.5125,-17.651667341373354,13.258366554130347,12.165541500007873,5.092000000004191
0.232,0.9311,-0.2943,0.0264,0.1444,-0.1227,1.155,0.7788,-5.5125,-17.56648178518765,13.344101748226837,12.165541500007873,5.092000000004191
0.2314,0.9307,-0.2958,0.027,0.1462,-0.1271,0.8487,0.0962,-5.2762,-17.615232069735413,13.332941114429742,12.166984500008516,5.107000000010885
0.2314,0.9307,-0.2973,0.027,0.1462,-0.1271,0.2537,0.0613,-5.7488,-17.685840925402413,13.326144046098017,12.166984500008516,5.107000000010885
0.2323,0.9295,-0.2973,0.0278,0.1455,-0.1209,1.0412,-0.07,-6.3437,-17.724629484600317,13.374869803822689,12.165864500008796,5.1230000000068685
0.232,0.9312,-0.298,0.0278,0.1455,-0.1209,1.0412,-0.07,-6.3437,-17.740551252709132,13.354694538877009,12.165864500008796,5.1230000000068685
0.2327,0.9311,-0.2946,0.0278,0.1455,-0.1209,0.735,0.07,-5.8625,-17.60470725564871,13.392459365615053,12.166914500008755,5.138000000006286
0.2328,0.9303,-0.2989,0.0269,0.1446,-0.1173,0.5337,-0.0875,-5.6262,-17.755426823772044,13.399077892106494,12.166914500008755,5.138000000006286
0.229,0.9298,-0.301,0.0269,0.1446,-0.1173,0.5512,0.2625,-5.6,-17.88853302996612,13.229144172308164,12.1711145000077,5.15400000000227
0.229,0.9298,-0.301,0.0262,0.1448,-0.1242,0.5512,0.2625,-5.6,-17.92464577738702,13.195683701328164,12.1711145000077,5.15400000000227
0.2323,0.9316,-0.3027,0.0262,0.1448,-0.1242,0.21,-0.4375,-5.8625,-17.977657843285037,13.311066002340105,12.164114500006274,5.17000000000553
0.2284,0.9331,-0.2976,0.0262,0.1448,-0.1242,0.455,-0.6475,-5.5213,-17.769702600281217,13.162595171666183,12.164114500006274,5.17000000000553
0.2289,0.9302,-0.2949,0.0256,0.1434,-0.1316,0.4638,-0.14,-5.7663,-17.640013899165584,13.193355239812915,12.162014500006356,5.185000000004948
0.2286,0.9307,-0.3012,0.0256,0.1434,-0.1316,0.4638,-0.14,-5.7663,-17.851580497237475,13.161473765825097,12.162014500006356,5.185000000004948
0.2286,0.9307,-0.3012,0.0272,0.1459,-0.1297,0.0613,-0.6913,-5.7925,-17.9075247019226,13.154992583337918,12.150953700009133,5.201000000000931
0.2302,0.9331,-0.2973,0.0272,0.1459,-0.1297,-0.455,-0.4988,-5.7488,-17.760318979799102,13.213109704175105,12.150953700009133,5.201000000000931
0.2336,0.9372,-0.2987,0.0272,0.1454,-0.1231,-0.455,-0.4988,-5.5738,-17.70864314118063,13.330662353624367,12.143471700005794,5.216000000007625
0.235,0.9319,-0.2998,0.0278,0.1454,-0.1231,-0.3325,-0.4988,-5.5738,-17.788888561918036,13.465849937941819,12.143471700005794,5.216000000007625
0.2344,0.9277,-0.3004,0.0278,0.1454,-0.1231,-0.42,-0.6825,-4.97,-17.885947760774723,13.50745979358786,12.132551700008534,5.232000000003609
0.2317,0.925,-0.3051,0.0276,0.1484,-0.1223,-0.8138,-0.1925,-4.8387,-18.095705659534918,13.402538452429333,12.132551700008534,5.232000000003609
0.2317,0.925,-0.3051,0.0276,0.1484,-0.1223,-0.8138,-0.1925,-4.8387,-18.186085394709725,13.38457228784676,12.129471700007906,5.2480000000068685
0.2307,0.9286,-0.2979,0.027,0.1465,-0.1284,-0.4812,-0.4375,-4.5937,-17.937107866945347,13.321764729784553,12.129471700007906,5.2480000000068685
0.2357,0.931,-0.2963,0.027,0.1465,-0.1284,0.595,0.0962,-4.7075,-17.730045259410904,13.522756402704328,12.13091470000715,5.2629999999990105
0.2383,0.9308,-0.2987,0.027,0.1465,-0.1284,0.245,-0.3588,-4.655,-17.773517750281556,13.670492662585604,12.13091470000715,5.2629999999990105
0.2388,0.9327,-0.2949,0.0258,0.147,-0.1283,0.245,-0.3588,-4.655,-17.61321564264794,13.710686847586157,12.125173900005981,5.27900000000227
0.2388,0.9327,-0.2949,0.0258,0.147,-0.1283,0.665,-0.1312,-4.9262,-17.563580856801877,13.71729696527353,12.125173900005981,5.27900000000227
0.2344,0.9332,-0.296,0.0262,0.1449,-0.1227,0.5163,0.105,-4.8738,-17.588871279326302,13.508039635906643,12.126748900006683,5.294000000008964
0.2364,0.9306,-0.2957,0.0262,0.1449,-0.1227,0.14,-0.2187,-5.1625,-17.615882960540116,13.591127914012135,12.126748900006683,5.294000000008964
0.2323,0.9306,-0.2982,0.0262,0.1449,-0.1227,0.14,-0.2187,-5.1625,-17.721168790936595,13.41173909519712,12.123249700007563,5.310000000004948
0.23,0.9313,-0.2924,0.0262,0.1449,-0.1293,0.28,0.2537,-5.0575,-17.515772060274077,13.28578575352794,12.123249700007563,5.310000000004948
0.2306,0.9313,-0.2945,0.0262,0.1449,-0.1293,0.1575,-0.4025,-5.1363,-17.538375951915082,13.284000422775277,12.11680970000625,5.326000000008207
0.2306,0.9313,-0.2945,0.0271,0.1469,-0.1217,0.1838,-0.63,-5.3375,-17.545265686706234,13.283680968429474,12.11680970000625,5.326000000008207
0.2333,0.9296,-0.2965,0.0271,0.1469,-0.1217,0.1838,-0.63,-5.3375,-17.646602186071185,13.416420780986059,12.107359700011202,5.341000000000349
0.2316,0.9307,-0.2977,0.0271,0.1469,-0.1217,-0.4288,-0.7262,-5.495,-17.704062496592865,13.349833016951388,12.107359700011202,5.341000000000349
0.2332,0.9296,-0.2954,0.0264,0.1463,-0.125,-0.0175,-0.9187,-5.4687,-17.652911935488476,13.427440493385708,12.092660500008208,5.357000000003609
0.2349,0.9287,-0.2948,0.0264,0.1463,-0.125,0.2187,-0.7875,-5.5213,-17.62360690497608,13.529628316272936,12.080848000002936,5.372000000010303
0.2349,0.9287,-0.3104,0.028,0.146,-0.1197,0.2187,-0.7875,-5.5213,-18.225463012554698,13.497493037657481,12.080848000002936,5.372000000010303
0.2343,0.9288,-0.2971,0.028,0.146,-0.1197,0.2362,-0.9975,-5.565,-17.882738055888225,13.50776336350771,12.064888000006942,5.388000000006286
0.2291,0.9299,-0.2983,0.028,0.1452,-0.1217,-0.4638,-0.6125,-5.2675,-17.821954052021212,13.258989377481031,12.064888000006942,5.388000000006286
0.232,0.9306,-0.2994,0.0254,0.1452,-0.1217,-0.4638,-0.6125,-5.0312,-17.829760570317802,13.33432497432978,12.055088000004945,5.404000000009546
0.2327,0.9279,-0.2998,0.0254,0.1452,-0.1217,-0.35,-0.455,-5.0312,-17.878232979236166,13.406272330193287,12.055088000004945,5.404000000009546
0.2329,0.9304,-0.3013,0.027,0.146,-0.1235,-0.2187,-1.0412,-4.9875,-17.921436900301163,13.397200204367628,12.039470000013127,5.419000000001688
0.2329,0.9304,-0.3013,0.027,0.146,-0.1235,-0.2887,-1.2425,-5.1188,-17.936063100591625,13.395614150600268,12.039470000013127,5.419000000001688
0.2317,0.9323,-0.2983,0.0259,0.1456,-0.1182,-0.2887,-1.2425,-5.1188,-17.810620320753088,13.331171625780467,12.019590000009076,5.435000000004948
0.231,0.9298,-0.2962,0.0259,0.1456,-0.1182,0.1225,-1.05,-5.1712,-17.713145901765074,13.320283455437528,12.019590000009076,5.435000000004948
0.2316,0.9276,-0.2977,0.0259,0.1456,-0.1182,0.3237,-1.1113,-5.075,-17.770117824933262,13.363488751474694,12.002920500009724,5.450000000004366
0.2341,0.9303,-0.3,0.0267,0.1473,-0.1176,0.3588,-1.155,-5.285,-17.843762689100306,13.44890508297154,12.002920500009724,5.450000000004366
0.2341,0.9303,-0.2844,0.0267,0.1473,-0.1176,0.3588,-1.155,-5.285,-17.240672586694664,13.515527131172185,11.98444050000596,5.466000000007625
0.2388,0.9328,-0.2967,0.0248,0.1466,-0.1241,0.2013,-0.8225,-5.2063,-17.5234793191074,13.67451511209221,11.98444050000596,5.466000000007625
0.2408,0.928,-0.2945,0.0248,0.1466,-0.1241,-0.4812,-1.3475,-4.2962,-17.575393362005016,13.857944301802362,11.962880500011371,5.482000000003609
0.2337,0.9243,-0.2981,0.0248,0.1466,-0.1241,-0.7088,-0.4375,-4.4275,-17.751644289786384,13.582554760300342,11.962880500011371,5.482000000003609
0.2322,0.9257,-0.3012,0.0252,0.1474,-0.1244,-0.7088,-0.4375,-4.4275,-17.91150031532768,13.442628725581894,11.956318000011626,5.497000000003027
0.2344,0.9274,-0.2979,0.0252,0.1474,-0.1244,-0.2975,-0.5075,-4.4275,-17.844538044359776,13.516333765595054,11.956318000011626,5.497000000003027
0.2344,0.9274,-0.2979,0.0259,0.1463,-0.124,-0.4288,-1.1113,-4.4275,-17.821559498777106,13.52812441949538,11.938537200008003,5.513000000006286
0.236,0.9282,-0.2995,0.0259,0.1463,-0.124,-0.21,-1.3825,-4.6112,-17.86212732902996,13.590214946495767,11.938537200008003,5.513000000006286
0.2364,0.9312,-0.3012,0.0259,0.1463,-0.124,-0.21,-1.3825,-4.6112,-17.902836520926837,13.581175368552143,11.917799700008809,5.528000000005704
0.2359,0.9312,-0.2986,0.0248,0.1454,-0.121,-0.035,-0.8662,-4.3663,-17.81898307906441,13.565347476758069,11.917799700008809,5.528000000005704
0.2394,0.9299,-0.2985,0.0248,0.1454,-0.121,-0.21,-1.1025,-4.2962,-17.804350319721365,13.740620521475575,11.900159700013237,5.544000000001688
0.2394,0.9299,-0.2985,0.0262,0.1474,-0.1168,-0.1575,-0.7962,-4.4538,-17.79930122850537,13.76795310405687,11.900159700013237,5.544000000001688
0.2394,0.9309,-0.3002,0.0262,0.1474,-0.1168,-0.1575,-0.7962,-4.4538,-17.848684290211146,13.755600038072314,11.887420500010641,5.560000000004948
0.2364,0.9299,-0.2985,0.0262,0.147,-0.126,-0.6475,-0.8575,-4.3663,-17.817629546158106,13.630577573453602,11.887420500010641,5.560000000004948
0.2358,0.9273,-0.2969,0.0256,0.147,-0.126,-0.2713,-1.4175,-4.5325,-17.77613296032297,13.616342668325794,11.866158000011467,5.575000000004366
0.2346,0.9265,-0.2989,0.0256,0.147,-0.126,-0.2713,-1.4175,-4.7512,-17.84393538871571,13.560246122619754,11.866158000011467,5.575000000004366
0.2353,0.926,-0.2983,0.0259,0.1467,-0.123,0.175,-0.9975,-4.7512,-17.852169206561292,13.590523164138355,11.850198000008215,5.591000000007625
0.2353,0.926,-0.2983,0.0259,0.1467,-0.123,-0.28,-1.5925,-5.285,-17.854485342640796,13.595528515110095,11.850198000008215,5.591000000007625
0.2366,0.9272,-0.2946,0.0246,0.1466,-0.125,-0.665,-1.4,-5.4338,-17.718907347764052,13.654803452724645,11.829198000019217,5.605999999999767
0.2362,0.9271,-0.2965,0.0246,0.1466,-0.125,-0.665,-1.4,-5.4338,-17.728500915893967,13.64283976376048,11.829198000019217,5.605999999999767
0.2369,0.9271,-0.2998,0.0246,0.1466,-0.125,-0.385,-1.505,-5.355,-17.850263947483683,13.661062327251988,11.80511800001431,5.622000000003027
0.2357,0.9274,-0.2945,0.0256,0.1459,-0.1214,-0.105,-1.2775,-5.3637,-17.694313554882005,13.624926743032479,11.80511800001431,5.622000000003027
0.2357,0.9274,-0.2945,0.0256,0.1459,-0.1214,-0.0525,-1.3737,-5.8012,-17.642406855332876,13.618269209044106,11.783138800009834,5.638000000006286
0.2406,0.9273,-0.2966,0.0261,0.1464,-0.1243,-0.0525,-1.3737,-5.8012,-17.70634228589296,13.827400334670749,11.783138800009834,5.638000000006286
0.2413,0.9276,-0.2993,0.0261,0.1464,-0.1243,-0.0875,-1.3737,-5.6875,-17.824922722673065,13.889369789044041,11.762533300010633,5.653000000005704
0.238,0.929,-0.3012,0.0261,0.1464,-0.1243,-0.4025,-1.3212,-5.775,-17.912912142039364,13.735476043190358,11.762533300010633,5.653000000005704
0.2391,0.9273,-0.2982,0.0249,0.1468,-0.1215,-0.2975,-0.9712,-6.1863,-17.85707963826108,13.77899288192743,11.746994100007466,5.669000000008964
0.2368,0.9269,-0.2969,0.0249,0.1468,-0.1215,-0.2975,-0.9712,-6.1863,-17.794892882566977,13.697603036170268,11.732426100015099,5.684000000001106
0.2368,0.9269,-0.2969,0.027,0.1474,-0.1231,0.0437,-0.8662,-6.1863,-17.771693359900727,13.679485567848705,11.73155990001177,5.685000000004948
0.235,0.9281,-0.3007,0.027,0.1474,-0.1231,-0.35,-1.015,-6.3787,-17.887300123722188,13.574966677776004,11.73155990001177,5.685000000004948
0.235,0.9296,-0.2994,0.027,0.1474,-0.1231,-0.3325,-1.4088,-5.9412,-17.864855135301816,13.539148966254944,11.709019100007179,5.701000000008207
0.2363,0.9326,-0.2978,0.0273,0.1458,-0.1253,-0.3325,-1.4088,-5.9412,-17.7649049995221,13.563451254002176,11.686478300012837,5.717000000004191
0.2378,0.9311,-0.2987,0.0273,0.1458,-0.1253,-0.5163,-0.9275,-6.2387,-17.77819989382097,13.644755975321974,11.686478300012837,5.717000000004191
0.2378,0.9311,-0.2987,0.0258,0.1461,-0.125,-0.5863,-0.9625,-5.9325,-17.78319129343871,13.663411533816173,11.672040800013397,5.732000000003609
0.2365,0.9322,-0.2996,0.0258,0.1461,-0.125,-0.8925,-1.4088,-6.3263,-17.801865541163345,13.598215016155429,11.672040800013397,5.732000000003609
0.2308,0.9334,-0.2974,0.0258,0.1446,-0.1276,-0.8925,-1.4088,-6.3263,-17.730432172749452,13.335421219577341,11.649500000008805,5.7480000000068685
0.2348,0.93,-0.299,0.0261,0.1446,-0.1276,-0.7962,-1.3125,-6.3875,-17.783344691126334,13.473175181313268,11.649500000008805,5.7480000000068685
0.2356,0.9327,-0.2987,0.0261,0.1446,-0.1276,-0.6212,-1.1988,-6.8075,-17.76797613908909,13.512590866167725,11.631518000009503,5.763000000006286
0.2342,0.9303,-0.299,0.0266,0.145,-0.1178,-0.6212,-1.1988,-6.5712,-17.797792477719497,13.48639192564642,11.631518000009503,5.763000000006286
0.2342,0.9303,-0.299,0.0266,0.145,-0.1178,-0.8838,-1.1812,-6.5712,-17.80874072960687,13.480013516188729,11.612618800014248,5.77900000000227
0.2361,0.9282,-0.2907,0.0277,0.1469,-0.1247,-1.1025,-0.9363,-6.405,-17.59599088641762,13.605572328097944,11.612618800014248,5.77900000000227
0.2376,0.9252,-0.2955,0.0277,0.1469,-0.1247,-0.8313,-0.9363,-6.5363,-17.66219085223943,13.712518365810771,11.597638000011196,5.79500000000553
0.2361,0.9251,-0.2967,0.0277,0.1469,-0.1247,-0.8313,-0.9363,-6.5363,-17.73009412663944,13.672199464989717,11.597638000011196,5.79500000000553
0.2349,0.9256,-0.2941,0.0281,0.1474,-0.119,-0.7088,-0.5775,-6.1075,-17.669572234774844,13.613264946966128,11.588975500011532,5.810000000004948
0.2349,0.9256,-0.2924,0.0281,0.1474,-0.119,-0.4375,-0.6388,-5.3288,-17.582687624901713,13.605477124989653,11.588975500011532,5.810000000004948
0.2333,0.927,-0.2924,0.0262,0.1464,-0.1242,-0.0875,-0.805,-4.9088,-17.531593505133465,13.515431804918448,11.576095500008908,5.826000000008207
0.2328,0.926,-0.2951,0.0262,0.1464,-0.1242,-0.0875,-0.805,-4.9088,-17.62872383567051,13.478300387870341,11.576095500008908,5.826000000008207
0.2329,0.9267,-0.2947,0.0262,0.1464,-0.1242,0.3063,-0.3325,-5.1013,-17.63756840233084,13.470507140490453,11.57110800001152,5.841000000000349
0.2322,0.9301,-0.2951,0.0259,0.1458,-0.1234,0.84,0.035,-5.0925,-17.61175163451598,13.400466672575833,11.57110800001152,5.841000000000349
0.2342,0.9287,-0.2935,0.0259,0.1458,-0.1234,1.1725,0.0525,-5.6525,-17.555325643487638,13.496656516145144,11.571948000011691,5.857000000003609
0.2342,0.9287,-0.2935,0.0273,0.1464,-0.123,1.1725,0.0525,-5.6525,-17.54222510649036,13.5157944280281,11.571948000011691,5.857000000003609
0.232,0.9277,-0.2953,0.0273,0.1464,-0.123,0.7613,-0.21,-5.495,-17.627545084985773,13.425216421892085,11.568588000011006,5.8730000000068685
0.2363,0.9283,-0.2943,0.0273,0.1464,-0.123,0.98,-0.1575,-5.2238,-17.59930332664955,13.599939661800727,11.566225500011099,5.888000000006286
0.2353,0.9321,-0.2949,0.0254,0.1481,-0.1272,1.2513,0.6125,-4.9525,-17.566222696447465,13.54442598135452,11.566225500011099,5.888000000006286
0.2319,0.9334,-0.2933,0.0254,0.1481,-0.1272,1.2513,0.6125,-4.9525,-17.471987031878623,13.370915645295145,11.576025500013095,5.904000000009546
0.2319,0.9334,-0.2933,0.0264,0.1462,-0.1257,0.9712,0.6212,-4.8738,-17.450934125417294,13.340527277863242,11.576025500013095,5.904000000009546
0.2313,0.9311,-0.296,0.0264,0.1462,-0.1257,0.6037,0.4725,-5.075,-17.58623561310455,13.322874743590125,11.576025500013095,5.904000000009546
0.233,0.9324,-0.2988,0.0264,0.1463,-0.1246,0.595,-0.1312,-5.3113,-17.71981311059186,13.37408272849126,11.574057500014126,5.919000000001688
0.2331,0.9383,-0.2928,0.0268,0.1463,-0.1246,0.595,-0.1312,-5.3113,-17.43504889331725,13.347339756213696,11.574057500014126,5.919000000001688
0.2298,0.9331,-0.2943,0.0268,0.1463,-0.1246,0.7175,0.07,-5.32,-17.487054982716394,13.24175113982069,11.575177500014354,5.935000000004948
0.2305,0.9288,-0.2955,0.0254,0.1469,-0.1273,0.35,-0.035,-5.6438,-17.60223846321666,13.292749353265096,11.575177500014354,5.935000000004948
0.2305,0.9288,-0.2955,0.0254,0.1469,-0.1273,0.35,-0.035,-5.6438,-17.635292987328338,13.302878414628582,11.57461750001424,5.951000000008207
0.2296,0.9321,-0.2941,0.0266,0.1465,-0.1238,0.5775,-0.3325,-5.285,-17.5450237889426,13.235075860629395,11.57461750001424,5.951000000008207
0.2305,0.9349,-0.2938,0.0266,0.1465,-0.1238,0.175,-1.1638,-5.565,-17.475748152717266,13.235755961199086,11.557160500014918,5.966000000007625
0.2353,0.9343,-0.2951,0.0266,0.1465,-0.1238,0.5775,-0.91,-5.6262,-17.514506223158936,13.450881829511582,11.557160500014918,5.966000000007625
0.2322,0.9299,-0.2979,0.026,0.1461,-0.1285,0.5775,-0.91,-5.6262,-17.696224285345338,13.391200329752529,11.542600500011952,5.982000000010885
0.2322,0.9299,-0.2979,0.026,0.1461,-0.1285,0.4112,-0.21,-5.4862,-17.744330006730927,13.37930932872713,11.542600500011952,5.982000000010885
0.2245,0.9286,-0.3006,0.0269,0.1478,-0.1245,0.1838,-0.3762,-4.8387,-17.879252379301096,13.026279696547029,11.536957500014909,5.997000000003027
0.2237,0.9279,-0.3027,0.0269,0.1478,-0.1245,0.4812,-1.12,-4.9612,-18.0153569308006,12.929465069417866,11.536957500014909,5.997000000003027
0.2289,0.9318,-0.2964,0.0269,0.1478,-0.1245,0.4812,-1.12,-4.9612,-17.747827927847595,13.132412222672489,11.519037500011258,6.013000000006286
0.232,0.9328,-0.2994,0.0266,0.1487,-0.1211,0.7088,-1.26,-5.075,-17.782746201233905,13.2889975006416,11.519037500011258,6.013000000006286
0.2331,0.9335,-0.3,0.0266,0.1487,-0.1211,1.0237,-1.0063,-5.3288,-17.807933777884013,13.357076797348359,11.502936700015299,6.02900000000227
0.2331,0.9335,-0.3,0.0255,0.1476,-0.1252,0.8313,-0.84,-5.4775,-17.813897846339422,13.369718637902466,11.502936700015299,6.02900000000227
0.2359,0.9324,-0.299,0.0255,0.1476,-0.1252,0.8313,-0.84,-5.4775,-17.788467587880266,13.511699198657348,11.490336700009676,6.044000000008964
0.2359,0.9333,-0.297,0.0255,0.1476,-0.1252,0.8662,-0.9975,-5.3113,-17.68641321646506,13.536502558031463,11.474376700013682,6.060000000004948
0.2348,0.9323,-0.3001,0.026,0.1456,-0.1225,0.8838,-0.1925,-5.0312,-17.804000501016294,13.491192983236315,11.474376700013682,6.060000000004948
0.2323,0.9318,-0.2969,0.026,0.1456,-0.1225,0.4812,-0.6737,-4.9175,-17.709570243779698,13.384561121720163,11.464271200014075,6.075000000004366
0.2323,0.9318,-0.2813,0.0252,0.1472,-0.1226,0.4812,-0.6737,-4.9175,-17.050449811907995,13.416602657574181,11.464271200014075,6.075000000004366
0.2343,0.93,-0.2951,0.0252,0.1472,-0.1226,0.5425,-0.2362,-4.865,-17.45408004459936,13.488227095030197,11.460492000013305,6.091000000007625
0.232,0.9263,-0.3008,0.0252,0.1472,-0.1245,0.3588,-0.245,-5.0662,-17.836817135485507,13.414827146957496,11.460492000013305,6.091000000007625
0.2302,0.9277,-0.2984,0.0246,0.1472,-0.1245,0.3588,-0.1575,-5.0575,-17.83243920575446,13.31290100569875,11.457972000013937,6.107000000003609
0.2338,0.9291,-0.2996,0.0246,0.1472,-0.1245,0.0263,-0.1575,-5.0575,-17.859874384193745,13.440825811794136,11.457972000013937,6.107000000003609
0.2328,0.9288,-0.3001,0.0263,0.1467,-0.1218,0.2362,-0.1838,-5.0487,-17.89225189319482,13.41936882852031,11.455215000014045,6.122000000003027
0.2328,0.9288,-0.3001,0.0263,0.1467,-0.1218,0.6125,0.0,-4.7075,-17.902263885544432,13.415510564341561,11.455215000014045,6.122000000003027
0.232,0.9299,-0.3012,0.0292,0.1478,-0.123,0.6125,0.0,-4.7075,-17.93538349346958,13.362657549852628,11.455215000014045,6.138000000006286
0.2353,0.9282,-0.2977,0.0292,0.1478,-0.123,0.5425,0.14,-4.9262,-17.82408796983173,13.534782536988319,11.455215000014045,6.138000000006286
0.2374,0.9294,-0.2998,0.0292,0.1478,-0.123,0.1312,0.105,-4.4887,-17.861725556446494,13.642702576550278,11.456790000013983,6.153000000005704
0.235,0.9289,-0.2984,0.0256,0.1475,-0.1336,-0.175,-0.105,-4.0075,-17.826884268686737,13.55756788055722,11.456790000013983,6.153000000005704
0.235,0.9289,-0.2984,0.0256,0.1475,-0.1336,-0.175,-0.105,-4.0075,-17.81511217536906,13.544806241132562,11.455110000013642,6.169000000008964
0.2353,0.931,-0.2973,0.0234,0.1476,-0.127,0.3413,0.525,-3.7975,-17.740277611389374,13.538104677946567,11.455110000013642,6.169000000008964
0.2367,0.9325,-0.2969,0.0234,0.1476,-0.127,0.28,0.7613,-3.92,-17.684237309747566,13.588288850732335,11.467290800010584,6.185000000004948
0.2331,0.932,-0.3003,0.0234,0.1476,-0.127,0.42,0.3237,-3.9987,-17.810177037706804,13.41995354958072,11.467290800010584,6.185000000004948
0.2325,0.9285,-0.298,0.024,0.1465,-0.1379,0.42,0.3237,-3.9987,-17.798491231926683,13.411811223175816,11.472146300010396,6.200000000004366
0.2362,0.9313,-0.2962,0.024,0.1465,-0.1379,-0.0437,0.1925,-3.9288,-17.693486343062066,13.561447385803216,11.472146300010396,6.200000000004366
0.2362,0.9313,-0.2962,0.0241,0.1492,-0.1261,0.4812,0.175,-4.0425,-17.6571561136045,13.583550169384425,11.474946300010966,6.216000000007625
0.2391,0.933,-0.2975,0.0241,0.1492,-0.1261,0.315,0.315,-4.1825,-17.677357282343717,13.699665698078753,11.474946300010966,6.216000000007625
0.2386,0.9312,-0.2991,0.0241,0.1492,-0.1261,0.315,0.315,-4.1825,-17.76937455599036,13.708161424687757,11.479671300010782,6.231000000007043
0.235,0.9243,-0.2954,0.0247,0.1474,-0.1234,0.07,0.1663,-4.2438,-17.73783324608949,13.628400941251632,11.479671300010782,6.231000000007043
0.2313,0.9201,-0.2982,0.0247,0.1474,-0.1234,-0.0263,-0.0437,-4.2175,-17.886667951210576,13.476874626689948,11.47897210001064,6.247000000010303
0.2313,0.9201,-0.2982,0.0256,0.1482,-0.124,0.105,-0.5775,-4.27,-17.935470602710204,13.453457862484175,11.47897210001064,6.247000000010303
0.2292,0.9227,-0.3017,0.0256,0.1482,-0.124,0.105,-0.5775,-4.27,-18.053679880973213,13.310699487676478,11.46973210001296,6.263000000006286
0.235,0.9243,-0.2991,0.0256,0.1482,-0.1303,0.665,-0.7613,-4.2787,-17.96357126290458,13.553481164754055,11.46973210001296,6.263000000006286
0.24,0.9255,-0.3015,0.0244,0.1471,-0.1303,1.54,-0.91,-4.2263,-18.02683244759815,13.804800069238778,11.45608210001349,6.278000000005704
0.239,0.9268,-0.3035,0.0244,0.1471,-0.1303,1.54,-0.91,-4.2787,-18.109592149829076,13.775544568806746,11.45608210001349,6.278000000005704
0.2425,0.9277,-0.3019,0.0213,0.1472,-0.1257,1.085,-1.3825,-4.2787,-18.046087544999736,13.930339845143378,11.433962100019041,6.294000000001688
0.2425,0.9277,-0.3019,0.0213,0.1472,-0.1257,0.7088,-0.7262,-4.06,-18.031495343442714,13.95467483378016,11.433962100019041,6.294000000001688
0.24,0.9279,-0.3026,0.0245,0.1458,-0.1284,1.54,-0.6212,-4.34,-18.05532241353856,13.837120407349357,11.424644100014882,6.309000000008382
0.2387,0.9291,-0.3026,0.0245,0.1458,-0.1284,1.54,-0.6212,-4.34,-18.043270539891196,13.74494072914802,11.424644100014882,6.309000000008382
0.2414,0.9278,-0.3024,0.0245,0.1458,-0.1284,0.8838,-0.8487,-4.13,-18.05017524885974,13.871852610949452,11.411064900012116,6.3250000000116415
0.2399,0.9247,-0.3065,0.0233,0.1468,-0.1354,0.2887,-0.8838,-4.1125,-18.254089182163803,13.84010313202159,11.411064900012116,6.3250000000116415
0.2399,0.9247,-0.3065,0.0233,0.1468,-0.1354,0.5075,-0.84,-4.2088,-18.315131394668814,13.83528072910888,11.3976249000216,6.341000000000349
0.2369,0.9248,-0.3021,0.0247,0.1471,-0.126,0.5075,-0.84,-4.2088,-18.152113615536855,13.708427195286252,11.3976249000216,6.341000000000349
0.2399,0.9239,-0.3021,0.0247,0.1471,-0.126,0.4638,-0.8138,-4.3488,-18.119455763486496,13.839106742021277,11.385417900016153,6.356000000007043
0.2387,0.9236,-0.3071,0.0247,0.1471,-0.126,0.2362,-0.6825,-4.3575,-18.311240884042377,13.788904652983732,11.374497900018893,6.372000000003027
0.2372,0.9281,-0.3045,0.0238,0.1486,-0.1274,0.105,-0.6212,-4.8212,-18.209537924980033,13.673288128777015,11.374497900018893,6.372000000003027
0.2372,0.9301,-0.3023,0.0238,0.1486,-0.1274,0.105,-0.6212,-4.8212,-18.06823025407662,13.639976080432778,11.374497900018893,6.372000000003027
0.2403,0.9301,-0.3023,0.0238,0.1467,-0.1286,0.0875,-0.9712,-5.0312,-18.02471785112102,13.775381509100898,11.35992990001946,6.387000000002445
0.2413,0.9286,-0.3054,0.0238,0.1467,-0.1286,-0.21,-1.1375,-5.1887,-18.143433073216567,13.84953962293919,11.35992990001946,6.387000000002445
0.2411,0.9311,-0.3037,0.0238,0.1467,-0.1286,-0.175,-1.4525,-5.2937,-18.09146483351847,13.833535492029005,11.336689900014724,6.403000000005704
0.2426,0.9329,-0.3029,0.0243,0.1487,-0.1334,-0.175,-1.4525,-5.2937,-18.022900122705106,13.881658681743781,11.313449900020558,6.419000000001688
0.2426,0.931,-0.3063,0.0243,0.1487,-0.1334,-0.5425,-1.225,-5.5037,-18.138595193167802,13.898753574146552,11.313449900020558,6.419000000001688
0.2426,0.931,-0.3063,0.0222,0.1474,-0.1212,-0.4812,-0.98,-5.6962,-18.18387565606668,13.90202640239481,11.298749900013998,6.434000000008382
0.2409,0.929,-0.3029,0.0222,0.1474,-0.1212,-0.4812,-0.98,-6.265,-18.105770531244847,13.861304654426448,11.298749900013998,6.434000000008382
0.2426,0.9271,-0.3029,0.0222,0.1474,-0.1417,-0.3588,-0.8575,-6.265,-18.09768536325209,13.943918696192558,11.285029900017442,6.450000000004366
0.2405,0.9262,-0.3094,0.0234,0.1474,-0.1331,-0.735,-0.7788,-5.985,-18.3160464132909,13.858778424566465,11.285029900017442,6.450000000004366
0.2393,0.9263,-0.3046,0.0234,0.1474,-0.1331,-0.945,-0.9013,-6.3612,-18.254455074401335,13.804815343471542,11.271510400017966,6.4650000000037835
0.2393,0.9249,-0.303,0.0249,0.149,-0.1262,-0.945,-0.9013,-6.3612,-18.191700588504855,13.811466342717825,11.271510400017966,6.4650000000037835
0.2408,0.9249,-0.303,0.0249,0.149,-0.1262,-0.6037,-0.9187,-6.1863,-18.15979235543205,13.877735998306203,11.256811200014972,6.481000000007043
0.2395,0.9259,-0.3041,0.0222,0.1482,-0.1302,-0.42,-0.8838,-6.0725,-18.17388495114045,13.822304760574413,11.256811200014972,6.481000000007043
0.2384,0.9254,-0.3029,0.0222,0.1482,-0.1302,-0.8575,-1.1463,-6.6325,-18.146018283584706,13.77348642109212,11.238470400019576,6.497000000003027
0.2398,0.9248,-0.3001,0.0222,0.1482,-0.1302,-0.8575,-1.1463,-6.6325,-18.051998275045182,13.834726689776195,11.238470400019576,6.497000000003027
0.2397,0.9274,-0.3012,0.0241,0.1477,-0.1274,-0.4812,-0.9538,-6.4138,-18.015051151542636,13.816455760640956,11.224163400013191,6.512000000009721
0.2397,0.9274,-0.3012,0.0241,0.1477,-0.1274,-0.8575,-0.9363,-6.7288,-18.002518593608755,13.812276325484744,11.224163400013191,6.512000000009721
0.2345,0.9268,-0.3009,0.0236,0.1463,-0.1266,-1.1025,-1.19,-6.5625,-17.994548278550713,13.599511757848708,11.205123400017971,6.528000000005704
0.2368,0.9265,-0.2993,0.0236,0.1463,-0.1266,-1.1025,-1.19,-6.5625,-17.947910023331044,13.652504581153142,11.205123400017971,6.528000000005704
0.2347,0.927,-0.3026,0.0236,0.1463,-0.1266,-1.05,-1.295,-6.58,-18.015701339838767,13.561980077772661,11.185698400018724,6.543000000005122
0.2359,0.9262,-0.3012,0.0238,0.1479,-0.1242,-0.9712,-1.1638,-6.44,-18.01506173358669,13.60283565316673,11.185698400018724,6.543000000005122
0.2359,0.9255,-0.2988,0.0238,0.1479,-0.1242,-0.5512,-1.33,-6.0988,-17.940127528461893,13.627505178315023,11.164418400024067,6.559000000001106
0.2362,0.9255,-0.2988,0.0234,0.1478,-0.1271,-0.5512,-1.33,-6.0988,-17.911122060533604,13.64593813252525,11.164418400024067,6.559000000001106
0.2386,0.9254,-0.2996,0.0234,0.1478,-0.1271,-0.42,-1.2337,-6.3,-17.929020039440612,13.751289410419627,11.144679200020045,6.575000000004366
0.2311,0.9257,-0.2999,0.0234,0.1478,-0.1271,-0.8487,-1.1812,-6.1775,-17.941285255107296,13.446947234934031,11.144679200020045,6.575000000004366
0.2355,0.9276,-0.2972,0.0246,0.1465,-0.1271,-0.7437,-1.4,-6.7112,-17.83889795471093,13.555311805218965,11.123679200010674,6.5900000000110595
0.2364,0.9298,-0.301,0.0246,0.1465,-0.1271,-0.7437,-1.4,-6.7112,-17.89660433294027,13.587267542938744,11.123679200010674,6.5900000000110595
0.2364,0.9298,-0.301,0.0245,0.1477,-0.1248,-0.2537,-1.4963,-6.5012,-17.923690876983613,13.59545848634737,11.099738400016683,6.606000000007043
0.2352,0.9292,-0.2987,0.0245,0.1477,-0.1248,-0.8313,-1.68,-6.545,-17.865292224249664,13.55994272361824,11.099738400016683,6.606000000007043
0.2365,0.9287,-0.2981,0.0245,0.1477,-0.1348,-0.8313,-1.68,-6.02,-17.826037883830963,13.614631561265053,11.07453840001766,6.621000000006461
0.2371,0.9279,-0.3016,0.0262,0.1478,-0.1348,-0.8575,-1.6275,-6.02,-17.92695741158303,13.64918054191068,11.07453840001766,6.621000000006461
0.233,0.9317,-0.2994,0.0262,0.1478,-0.1348,-0.245,-1.295,-5.9412,-17.853553653686497,13.446428031393335,11.05381840002286,6.637000000002445
0.2341,0.9314,-0.2989,0.025,0.1464,-0.134,-0.735,-1.7675,-5.9588,-17.817768916217045,13.456275031276856,11.05381840002286,6.637000000002445
0.2341,0.9314,-0.2989,0.025,0.1464,-0.134,-0.735,-1.7675,-5.9588,-17.802856440415585,13.458361330345728,11.0255384000171,6.653000000005704
0.2285,0.9315,-0.3018,0.0271,0.1464,-0.1286,-0.9712,-1.6712,-5.5213,-17.883056988354923,13.198110369898673,11.0255384000171,6.653000000005704
0.2327,0.9299,-0.2983,0.0271,0.1464,-0.1286,-0.42,-1.8637,-6.0813,-17.82148457334539,13.358137838804694,10.997582900018184,6.668000000005122
0.23,0.9278,-0.2999,0.0271,0.1464,-0.1286,-0.28,-1.5925,-6.1337,-17.880806357086893,13.291271340827606,10.997582900018184,6.668000000005122
0.2316,0.9318,-0.2972,0.025,0.1486,-0.1376,-0.28,-1.5925,-6.1337,-17.756980876234774,13.315348868516425,10.97210290002458,6.684000000001106
0.2316,0.9318,-0.2972,0.025,0.1486,-0.1376,-0.4288,-1.7413,-5.7663,-17.714890283525573,13.320758293143198,10.97210290002458,6.684000000001106
0.2295,0.9287,-0.2971,0.0266,0.1495,-0.127,0.0962,-1.96,-6.0025,-17.732207795750128,13.260869882944544,10.942702900011462,6.6990000000078
0.2288,0.9271,-0.3012,0.0266,0.1495,-0.127,0.1575,-1.4088,-5.9938,-17.917371042755864,13.220118995252719,10.942702900011462,6.6990000000078
0.2302,0.9277,-0.3011,0.0266,0.1495,-0.127,0.1575,-1.4088,-5.9938,-17.962142329796333,13.267165639899606,10.92016210001712,6.7150000000037835
0.2327,0.9295,-0.3004,0.0277,0.1479,-0.1259,0.2625,-1.4525,-5.8362,-17.925369223542575,13.371891118264283,10.896922100012384,6.731000000007043
0.2323,0.9296,-0.2977,0.0277,0.1479,-0.1259,-0.3762,-1.4438,-5.3375,-17.818304148819596,13.383853254894508,10.896922100012384,6.731000000007043
0.2323,0.9296,-0.2977,0.0244,0.147,-0.1275,-0.1225,-1.47,-5.4163,-17.777631600584744,13.386085151498076,10.87487210001324,6.746000000006461
0.2336,0.9296,-0.3036,0.0244,0.147,-0.1275,-0.1225,-1.47,-5.4163,-17.984044681225235,13.425481415676822,10.87487210001324,6.746000000006461
0.2306,0.9292,-0.3038,0.0244,0.147,-0.1275,0.385,-1.0325,-5.46,-18.070669065158544,13.301809423385304,10.858352100017386,6.762000000002445
0.2322,0.9299,-0.3027,0.0242,0.1485,-0.1281,0.3237,-0.98,-5.0838,-18.042503623986498,13.347151749303972,10.858352100017386,6.762000000002445
0.2336,0.9303,-0.3006,0.0242,0.1485,-0.1281,0.5688,-0.7262,-4.9525,-17.94341618053385,13.422285170086441,10.847459100012525,6.777000000009139
0.2336,0.9303,-0.3006,0.0264,0.1495,-0.1241,0.5688,-0.7262,-4.9525,-17.916660745278282,13.435406296650124,10.847459100012525,6.777000000009139
0.2344,0.9318,-0.3034,0.0264,0.1495,-0.1241,0.5075,-1.0412,-5.0838,-18.002928072558742,13.44916253787159,10.830799900016707,6.793000000005122
0.2339,0.9352,-0.2998,0.0264,0.1495,-0.1225,0.8487,-0.5425,-5.1975,-17.831811875175116,13.406071208538165,10.830799900016707,6.793000000005122
0.2358,0.9323,-0.3042,0.0257,0.1486,-0.1225,0.8487,-0.5425,-4.9088,-18.010936137598446,13.50020838259978,10.82211990001494,6.809000000008382
0.2328,0.9294,-0.3021,0.0257,0.1486,-0.1225,0.385,-0.35,-4.9088,-18.007882598403206,13.41656069783059,10.82211990001494,6.809000000008382
0.2321,0.9309,-0.3026,0.0278,0.1485,-0.1208,0.0875,-0.0525,-4.9,-18.007523915483773,13.35273058995391,10.821332400015352,6.824000000000524
0.2321,0.9309,-0.3026,0.0278,0.1485,-0.1208,0.3588,0.2887,-4.5325,-18.007408707305046,13.341546508136034,10.821332400015352,6.824000000000524
0.2322,0.9274,-0.2991,0.0274,0.1482,-0.1273,0.3588,0.2887,-4.5325,-17.91309243275707,13.393091759170542,10.825951600016293,6.8400000000037835
0.2331,0.9251,-0.3022,0.0274,0.1482,-0.1273,-0.0875,0.0,-4.48,-18.0322971229824,13.457227399476432,10.825951600016293,6.8400000000037835
0.2302,0.9274,-0.3018,0.0274,0.1482,-0.1273,-0.3588,0.2975,-4.3575,-18.028416319595955,13.308743429976257,10.830414100018285,6.855000000010477
0.2317,0.9273,-0.2996,0.0247,0.1479,-0.1336,0.2887,0.4988,-4.9525,-17.941086728359263,13.363026301673735,10.830414100018285,6.855000000010477
0.2317,0.9273,-0.2996,0.0247,0.1479,-0.1336,0.2887,0.4988,-4.9525,-17.915576755459405,13.372506136644173,10.838394900016281,6.871000000006461
0.2313,0.9267,-0.3002,0.026,0.1481,-0.1269,0.1138,0.5775,-4.9,-17.939044506684755,13.359976070283416,10.838394900016281,6.871000000006461
0.2311,0.9281,-0.2988,0.026,0.1481,-0.1269,-0.3063,0.1488,-4.9612,-17.878808165700022,13.33880069913775,10.840775700016767,6.887000000009721
0.2321,0.9289,-0.3013,0.026,0.1481,-0.1269,0.0875,0.6913,-4.8825,-17.94245751357301,13.364379619718008,10.840775700016767,6.887000000009721
0.2342,0.929,-0.2969,0.0234,0.1491,-0.13,0.0875,0.6913,-4.8825,-17.79139154923427,13.479064432731041,10.851145200011334,6.902000000001863
0.2498,0.9298,-0.2982,0.0234,0.1491,-0.13,0.2713,0.3675,-4.5062,-17.784601983964848,14.208842649798703,10.851145200011334,6.902000000001863
0.2351,0.9298,-0.2982,0.0257,0.1485,-0.1269,0.21,0.7525,-4.6463,-17.782623727520647,13.648766438468302,10.863185200013787,6.918000000005122
0.2321,0.9291,-0.3053,0.0257,0.1485,-0.1269,0.0263,0.8575,-4.3137,-18.06139392954402,13.397650423519172,10.863185200013787,6.918000000005122
0.2316,0.9302,-0.3009,0.0257,0.1485,-0.1269,0.0263,0.8575,-4.3137,-17.968351857456607,13.33834376808496,10.876047700019527,6.933000000011816
0.234,0.9293,-0.3018,0.0244,0.1477,-0.131,-0.4112,0.0088,-3.9462,-17.98316060503261,13.448806129920179,10.876047700019527,6.933000000011816
0.2314,0.9301,-0.302,0.0244,0.1477,-0.131,-0.0437,0.0175,-4.3925,-17.986718617909137,13.334592500981305,10.87632770001933,6.949000000000524
0.2314,0.9301,-0.302,0.0252,0.1491,-0.1324,0.945,-0.2625,-4.445,-17.988003141695255,13.316452331959615,10.87632770001933,6.949000000000524
0.2303,0.9266,-0.3015,0.0252,0.1491,-0.1324,0.945,-0.2625,-4.445,-18.0151866755555,13.300648532805434,10.872127700018474,6.9650000000037835
0.2343,0.9289,-0.2985,0.0252,0.1491,-0.1324,0.4288,-0.0962,-4.0862,-17.870959001928103,13.472549821021,10.872127700018474,6.9650000000037835
