AcclX,AcclY,AcclZ,MagX,MagY,MagZ,GyroX,GyroY,GyroZ,Roll,Pitch,Yaw,Time Elapsed(s)
0.2787,0.9036,-0.3339,0.0097,0.1312,-0.0943,-1.1812,2.0563,-4.5675,0,0,0,0.0
0.2786,0.8991,-0.3331,0.0097,0.1312,-0.0943,-1.8725,2.275,-4.7775,0,0,0,0.0
0.2783,0.898,-0.3316,0.0097,0.1312,-0.0943,-1.8725,2.275,-4.7775,0,0,0,0.01599999999598367
0.2778,0.8991,-0.331,0.0092,0.131,-0.0966,-2.4675,2.4762,-4.8387,0,0,0,0.01599999999598367
0.2778,0.9001,-0.3254,0.0092,0.131,-0.0966,-2.3625,2.45,-5.1887,0,0,0,0.030999999995401595
0.2772,0.9001,-0.3254,0.0095,0.1297,-0.0913,-2.3275,2.2487,-5.5738,0,0,0,0.030999999995401595
0.2801,0.9048,-0.3243,0.0095,0.1297,-0.0913,-2.3275,2.2487,-5.5738,0,0,0,0.046999999998661224
0.2756,0.9093,-0.3254,0.0095,0.1297,-0.0913,-2.59,2.0912,-5.635,0,0,0,0.046999999998661224
0.2737,0.9143,-0.3212,0.0064,0.1294,-0.0969,-3.325,1.645,-6.0637,0,0,0,0.06199999999807915
0.2736,0.92,-0.3204,0.0064,0.1294,-0.0969,-3.8675,1.2513,-6.6325,0,0,0,0.06199999999807915
0.2736,0.92,-0.3204,0.0089,0.129,-0.0931,-3.8675,1.2513,-6.6325,0,0,0,0.07799999999406282
0.272,0.9169,-0.3216,0.0089,0.129,-0.0931,-4.06,0.525,-7.1925,0,0,0,0.07799999999406282
0.2715,0.919,-0.3247,0.0089,0.129,-0.0931,-3.9638,-0.3325,-7.7175,0,0,0,0.09399999999732245
0.2737,0.9141,-0.3195,0.0088,0.1295,-0.1006,-3.9638,-0.3325,-8.155,0,0,0,0.09399999999732245
0.2776,0.9076,-0.3206,0.0088,0.1295,-0.1006,-3.8675,-0.7175,-8.155,0,0,0,0.10899999999674037
0.2776,0.892,-0.3196,0.0094,0.1302,-0.0871,-3.045,-1.0938,-8.82,0,0,0,0.10899999999674037
0.2807,0.9021,-0.3196,0.0094,0.1302,-0.0871,-2.8,-1.3825,-8.8375,0,0,0,0.125
0.2822,0.8946,-0.3164,0.011,0.1296,-0.0898,-2.8,-1.3825,-8.8375,0,0,0,0.125
0.2857,0.8913,-0.3192,0.011,0.1296,-0.0898,-1.8463,-1.4875,-8.5837,0,0,0,0.13999999999214197
0.2867,0.8955,-0.3212,0.011,0.1296,-0.0898,-0.455,-0.4462,-7.315,0,0,0,0.13999999999214197
0.2872,0.9004,-0.3184,0.0123,0.1288,-0.0934,-0.28,-0.0875,-6.6413,0,0,0,0.1559999999954016
0.2872,0.9004,-0.3184,0.0123,0.1288,-0.0934,-0.28,-0.0875,-6.6413,0,0,0,0.1559999999954016
0.2878,0.9064,-0.3219,0.0089,0.1303,-0.0901,0.0787,0.1925,-6.1863,0,0,0,0.17199999999866122
0.2854,0.909,-0.3249,0.0089,0.1303,-0.0901,0.7875,0.3675,-5.9412,0,0,0,0.17199999999866122
0.2805,0.91,-0.3247,0.0089,0.1303,-0.0901,0.7788,0.455,-6.0375,0,0,0,0.18699999999807915
0.2767,0.9098,-0.3213,0.0106,0.1303,-0.0819,0.7788,0.455,-6.0375,0,0,0,0.18699999999807915
0.2767,0.9098,-0.3233,0.0106,0.1303,-0.0819,0.1925,0.4025,-6.0113,0,0,0,0.20300000000133878
0.2745,0.9054,-0.3233,0.0114,0.13,-0.09,0.0,0.4462,-6.7638,0,0,0,0.21799999999348074
0.2753,0.904,-0.3231,0.0114,0.13,-0.09,-0.2537,0.3413,-6.6762,0,0,0,0.21799999999348074
0.2768,0.8983,-0.3248,0.0114,0.13,-0.09,-0.2537,0.3413,-6.6762,0,0,0,0.23399999999674037
0.2813,0.8879,-0.3259,0.0105,0.1305,-0.0901,-0.4025,-0.105,-6.5625,0,0,0,0.23399999999674037
0.2821,0.8877,-0.3287,0.0105,0.1305,-0.0901,-0.0263,0.0175,-6.1775,0,0,0,0.25
0.2821,0.8877,-0.3287,0.0109,0.1302,-0.0917,-0.0263,0.1312,-5.8888,0,0,0,0.25
0.285,0.8868,-0.3299,0.0109,0.1302,-0.0917,0.3675,0.1312,-5.8888,0,0,0,0.2649999999994179
0.2885,0.8829,-0.3289,0.0109,0.1302,-0.0917,1.4262,0.9887,-4.8125,0,0,0,0.2649999999994179
0.2886,0.8817,-0.3313,0.0112,0.1298,-0.0833,2.45,1.3913,-4.06,0,0,0,0.28100000000267755
0.2887,0.8854,-0.3311,0.0112,0.1298,-0.0833,2.45,1.3913,-4.06,0,0,0,0.28100000000267755
0.2887,0.8854,-0.3311,0.0107,0.131,-0.0938,2.4762,1.9162,-3.185,0,0,0,0.2959999999948195
0.2893,0.8913,-0.3303,0.0107,0.131,-0.0938,2.0912,1.925,-2.415,0,0,0,0.2959999999948195
0.295,0.8922,-0.328,0.0107,0.1294,-0.0914,2.2313,2.1263,-2.0475,0,0,0,0.31199999999807915
0.2955,0.8938,-0.3339,0.0094,0.1294,-0.0914,2.2313,2.1263,-2.0475,0,0,0,0.31199999999807915
0.2958,0.8915,-0.3325,0.0094,0.1294,-0.0914,2.205,3.3163,-2.31,0,0,0,0.3280000000013388
0.3002,0.8899,-0.332,0.0095,0.131,-0.0963,1.9512,3.2462,-2.3712,0,0,0,0.3280000000013388
0.3002,0.8899,-0.332,0.0095,0.131,-0.0963,2.17,3.4913,-2.6337,0,0,0,0.3430000000007567
0.3007,0.8903,-0.3367,0.0074,0.131,-0.0958,2.17,3.4913,-2.6337,0,0,0,0.3430000000007567
0.2965,0.8872,-0.337,0.0074,0.131,-0.0958,2.3537,3.8763,-2.4325,0,0,0,0.35899999999674037
0.2975,0.8838,-0.3361,0.0074,0.131,-0.0958,2.695,4.27,-2.4675,0,0,0,0.35899999999674037
0.2969,0.8807,-0.335,0.0055,0.1296,-0.0882,3.4125,4.0862,-2.7037,0,0,0,0.3739999999961583
0.2969,0.8807,-0.335,0.0055,0.1296,-0.0882,3.4125,4.0862,-2.7037,0,0,0,0.3739999999961583
0.2933,0.8871,-0.3337,0.0056,0.1292,-0.0943,3.78,3.8412,-3.1937,0,0,0,0.3899999999994179
0.2919,0.8911,-0.3301,0.0056,0.1292,-0.0943,3.9638,3.4125,-3.6312,0,0,0,0.3899999999994179
0.2937,0.8944,-0.3327,0.0056,0.1292,-0.0943,3.9813,3.5438,-3.9025,0,0,0,0.4059999999954016
0.2976,0.9032,-0.3246,0.0058,0.1318,-0.092,3.9813,3.5438,-3.9025,0,0,0,0.4059999999954016
0.2986,0.914,-0.3215,0.0058,0.1318,-0.092,3.5087,4.1475,-4.3575,0,0,0,0.4209999999948195
0.2986,0.914,-0.3215,0.0054,0.1311,-0.0958,1.925,4.6463,-5.53,0,0,0,0.4209999999948195
0.2959,0.9218,-0.3234,0.0054,0.1311,-0.0958,1.925,4.6463,-6.405,0,0,0,0.43699999999807915
0.2887,0.9272,-0.3184,0.0054,0.1311,-0.0958,0.1575,4.5588,-6.405,0,0,0,0.43699999999807915
0.2767,0.929,-0.3186,0.0062,0.1312,-0.0969,-1.0412,4.6287,-7.8138,0,0,0,0.45199999999749707
0.2635,0.9285,-0.3192,0.0062,0.1312,-0.0969,-3.3688,3.8588,-9.625,0,0,0,0.45199999999749707
0.2635,0.9285,-0.3192,0.0058,0.1311,-0.0941,-3.3688,3.8588,-9.625,0,0,0,0.4680000000007567
0.255,0.9232,-0.3177,0.0058,0.1311,-0.0941,-3.92,3.1588,-11.2175,0,0,0,0.4680000000007567
0.2474,0.9206,-0.3203,0.0058,0.1314,-0.0981,-4.69,1.3038,-12.5125,0,0,0,0.48399999999674037
0.2411,0.9194,-0.3215,0.0068,0.1314,-0.0981,-5.495,0.105,-14.0963,0,0,0,0.48399999999674037
0.2393,0.9193,-0.3186,0.0068,0.1314,-0.0981,-5.495,0.105,-14.0963,0,0,0,0.4989999999961583
0.2385,0.9189,-0.3167,0.0083,0.1302,-0.0975,-5.1975,-1.715,-15.05,0,0,0,0.4989999999961583
0.2385,0.9189,-0.3167,0.0083,0.1302,-0.0975,-4.6463,-3.43,-15.8112,0,0,0,0.5149999999994179
0.242,0.9192,-0.3181,0.0103,0.1322,-0.0923,-4.4363,-4.7425,-15.8638,0,0,0,0.5149999999994179
0.2463,0.9177,-0.3159,0.0103,0.1322,-0.0923,-4.4363,-4.7425,-15.8638,0,0,0,0.5299999999988358
0.2502,0.9183,-0.3166,0.0103,0.1322,-0.0923,-3.9725,-5.2325,-15.0675,0,0,0,0.5299999999988358
0.2525,0.9151,-0.3143,0.011,0.1317,-0.0992,-3.1325,-5.5213,-14.0612,0,0,0,0.5460000000020955
0.2525,0.9151,-0.3143,0.011,0.1317,-0.0992,-2.31,-5.0925,-12.7487,0,0,0,0.5460000000020955
0.2478,0.9169,-0.3198,0.0142,0.1322,-0.0939,-2.31,-5.0925,-12.7487,0,0,0,0.5619999999980791
0.251,0.9174,-0.3165,0.0142,0.1322,-0.0939,-2.345,-5.3725,-11.41,0,0,0,0.5619999999980791
0.2525,0.9115,-0.3187,0.0142,0.1322,-0.0939,-1.5488,-5.3463,-10.15,0,0,0,0.5769999999974971
0.2527,0.9084,-0.32,0.0134,0.1317,-0.0962,-0.8925,-5.0225,-8.6538,0,0,0,0.5769999999974971
0.2555,0.9117,-0.3197,0.0134,0.1317,-0.0962,-0.8925,-5.0225,-8.6538,0,0,0,0.5930000000007567
0.2555,0.9117,-0.3197,0.0136,0.1325,-0.0938,-0.1138,-4.48,-6.5625,0,0,0,0.6080000000001746
0.2615,0.9113,-0.3178,0.0136,0.1325,-0.0938,0.0437,-3.9375,-5.18,0,0,0,0.6080000000001746
0.2631,0.909,-0.3227,0.0136,0.1325,-0.0938,0.0437,-3.9375,-2.94,0,0,0,0.6240000000034343
0.264,0.908,-0.3242,0.0135,0.1318,-0.0932,0.6125,-3.6575,-4.2787,0,0,0,0.6240000000034343
0.2639,0.9074,-0.325,0.0135,0.1318,-0.0932,0.9538,-3.1237,-3.6488,0,0,0,0.639999999992142
0.2639,0.9074,-0.325,0.0161,0.1322,-0.0926,1.4787,-2.7125,-2.8087,0,0,0,0.639999999992142
0.2637,0.9026,-0.3257,0.0161,0.1322,-0.0926,1.4787,-2.7125,-2.8087,0,0,0,0.6549999999988358
0.2657,0.9063,-0.3282,0.0161,0.1332,-0.0828,1.715,-2.345,-2.3975,0,0,0,0.6549999999988358
0.2719,0.9015,-0.3241,0.0148,0.1332,-0.0828,2.135,-2.1613,-2.0387,0,0,0,0.6709999999948195
0.2724,0.8988,-0.3296,0.0148,0.1332,-0.0828,2.3363,-1.2337,-1.6975,0,0,0,0.6709999999948195
0.2768,0.8999,-0.3322,0.013,0.1352,-0.0894,2.3363,-1.2337,-1.6975,0,0,0,0.6859999999942374
0.2768,0.8999,-0.3322,0.013,0.1352,-0.0894,2.3537,-0.8575,-1.7062,0,0,0,0.6859999999942374
0.2776,0.9054,-0.3365,0.014,0.1314,-0.0933,2.6775,-0.4462,-1.05,0,0,0,0.7019999999974971
0.2791,0.9064,-0.3406,0.014,0.1314,-0.0933,3.2025,-0.5425,-0.9975,0,0,0,0.7019999999974971
0.2732,0.9069,-0.3442,0.014,0.1314,-0.0933,3.2025,-0.5425,-0.9975,0,0,0,0.7179999999934807
0.2691,0.9062,-0.344,0.011,0.1328,-0.0982,3.0275,-0.63,-1.2337,0,0,0,0.7179999999934807
0.2691,0.9062,-0.344,0.011,0.1328,-0.0982,3.4562,-1.0325,-2.0125,0,0,0,0.7330000000001746
0.2695,0.9099,-0.3459,0.0121,0.131,-0.0956,2.9313,-1.715,-2.3975,0,0,0,0.7330000000001746
0.2695,0.9105,-0.3414,0.0121,0.131,-0.0956,2.9313,-1.715,-2.3975,0,0,0,0.7489999999961583
0.273,0.9105,-0.3443,0.0121,0.131,-0.0956,2.87,-1.6625,-2.6163,0,0,0,0.7489999999961583
0.2775,0.917,-0.3379,0.0089,0.133,-0.1009,2.6862,-0.4725,-3.4738,0,0,0,0.7639999999955762
0.2825,0.9198,-0.3313,0.0089,0.133,-0.1009,0.4462,-0.2713,-3.4562,0,0,0,0.7639999999955762
0.2825,0.9198,-0.3313,0.0106,0.1334,-0.0958,1.925,-0.2713,-3.4562,0,0,0,0.7799999999988358
0.279,0.9153,-0.3299,0.0106,0.1334,-0.0958,0.3762,0.0088,-3.6925,0,0,0,0.7799999999988358
0.2734,0.9141,-0.3307,0.0106,0.1334,-0.0958,-1.1988,0.3588,-4.4187,-10.698728390231148,8.97023023419162,0.0,0.7959999999948195
0.2691,0.9124,-0.3271,0.0106,0.133,-0.0982,-1.1988,0.3588,-4.4187,-15.553103346327903,12.70834941703221,0.016504800000751857,0.841999999996915
0.2659,0.9114,-0.3229,0.0106,0.133,-0.0982,-2.0475,0.9187,-5.0662,-18.19581044265304,13.79168635007651,0.016504800000751857,0.841999999996915
0.2659,0.9114,-0.3229,0.01,0.1324,-0.1006,-2.8087,0.8313,-5.6087,-19.160850409012706,13.987724231894674,0.016504800000751857,0.841999999996915
0.2658,0.9123,-0.3245,0.01,0.1324,-0.1006,-3.8937,0.525,-6.44,-19.493887438194864,14.543896540957217,0.024904800002463163,0.8580000000001746
0.2677,0.911,-0.3257,0.01,0.1324,-0.0966,-3.8937,0.525,-6.44,-19.6360953374555,14.920739785671483,0.024904800002463163,0.8580000000001746
0.2701,0.9058,-0.316,0.0108,0.1313,-0.0966,-3.9462,0.4462,-7.035,-19.314261710282462,15.372748094494186,0.024904800002463163,0.8580000000001746
0.2724,0.9022,-0.3165,0.0108,0.1313,-0.0966,-4.6375,0.3762,-7.2713,-19.328288888578673,15.69243826498273,0.024904800002463163,0.8580000000001746
0.2757,0.9008,-0.3182,0.0132,0.1323,-0.0903,-4.1562,0.35,-7.0788,-19.430531066273055,15.92350364692473,0.024904800002463163,0.8580000000001746
0.2757,0.9008,-0.3182,0.0132,0.1323,-0.0903,-4.1562,0.35,-7.0788,-19.450494221465,16.02271954013767,0.030504800001057448,0.8739999999961583
0.2779,0.9042,-0.3191,0.0119,0.1322,-0.0965,-3.7275,0.4988,-6.58,-19.4409594881985,16.08630583139031,0.030504800001057448,0.8739999999961583
0.2821,0.9087,-0.3154,0.0119,0.1322,-0.0965,-3.36,-0.1488,-6.5188,-19.210609182217386,16.198908065272335,0.030504800001057448,0.8739999999961583
0.2832,0.9089,-0.3177,0.0119,0.1322,-0.0965,-3.1412,0.3063,-6.055,-19.253069007801045,16.243680951637124,0.035099300003107785,0.8890000000028522
0.279,0.9063,-0.3206,0.0115,0.1319,-0.0862,-3.1412,0.3063,-6.055,-19.425518033508368,16.22969760450431,0.040000100001877585,0.9049999999988358
0.279,0.9063,-0.3206,0.0115,0.1319,-0.0862,-3.15,0.3675,-5.2762,-19.46754065111082,16.214966593652925,0.040000100001877585,0.9049999999988358
0.2785,0.9042,-0.316,0.0118,0.1318,-0.0946,-2.1525,0.4025,-5.0662,-19.328949620306826,16.213937024895976,0.0460376000016433,0.9199999999982538
0.2774,0.9031,-0.3193,0.0118,0.1318,-0.0946,-1.0762,0.2013,-4.865,-19.401703381465435,16.184313641935816,0.0460376000016433,0.9199999999982538
0.2786,0.9052,-0.3229,0.0118,0.1318,-0.0946,-1.0762,0.2013,-4.865,-19.519280923839418,16.175775765051405,0.04925840000083481,0.9359999999942374
0.2849,0.9049,-0.3173,0.0107,0.1312,-0.0905,-0.3588,-0.2625,-4.8825,-19.47124157907686,16.348200834858208,0.04925840000083481,0.9359999999942374
0.2849,0.9033,-0.3203,0.0107,0.1312,-0.0905,-0.2362,-0.455,-4.27,-19.48007988709844,16.471807835871985,0.041978399999351684,0.9519999999974971
0.2819,0.9033,-0.3203,0.0113,0.1297,-0.095,-0.2362,-0.455,-4.375,-19.487435679330417,16.42468238218499,0.041978399999351684,0.9519999999974971
0.2807,0.8951,-0.3195,0.0113,0.1297,-0.095,0.0,-0.4462,-4.375,-19.49266931399583,16.44180706833742,0.03483919999789724,0.9680000000007567
0.2782,0.8918,-0.3246,0.0113,0.1297,-0.095,1.19,0.2187,-4.655,-19.772305261006345,16.387511928763885,0.035495299997235275,0.9709999999977299
0.2774,0.8917,-0.3217,0.0115,0.1313,-0.0975,1.05,0.0,-4.0775,-19.8064875384864,16.33965921142818,0.035495299997235275,0.9709999999977299
0.2791,0.8936,-0.3203,0.0115,0.1313,-0.0975,1.05,0.0,-4.0775,-19.76127836625065,16.367503225751054,0.035495299997235275,0.9870000000009895
0.2791,0.8936,-0.3203,0.0084,0.1329,-0.0945,1.5137,-0.1138,-4.2787,-19.73595361106197,16.377415141775774,0.035495299997235275,0.9870000000009895
0.2781,0.8908,-0.322,0.0084,0.1329,-0.0945,1.1375,-0.0613,-3.7975,-19.810202622938338,16.36733711945149,0.03457579999771697,1.0019999999931315
0.2799,0.8926,-0.3223,0.0084,0.1329,-0.0945,1.9688,0.7788,-4.0687,-19.83917553015769,16.408452709920162,0.04703660000025557,1.0179999999963911
0.2821,0.8971,-0.3196,0.011,0.1317,-0.089,1.9688,0.7788,-4.0687,-19.685571356245944,16.46609775097792,0.04703660000025557,1.0179999999963911
0.2819,0.8994,-0.324,0.011,0.1317,-0.089,2.975,0.6388,-4.3313,-19.779761037660645,16.44479607204136,0.04703660000025557,1.0179999999963911
0.2819,0.9023,-0.3265,0.0099,0.1298,-0.0952,1.5225,0.56,-4.13,-19.84860183351366,16.39967763204659,0.05599659999800643,1.0339999999923748
0.278,0.9023,-0.3265,0.0099,0.1298,-0.0952,1.0412,0.7437,-4.6287,-19.87151423873769,16.271522830711326,0.05599659999800643,1.0339999999923748
0.2736,0.9051,-0.3267,0.0111,0.131,-0.0988,1.0412,0.7437,-4.6287,-19.858954615246297,16.060411879460318,0.06715210000298467,1.0489999999990687
0.272,0.9069,-0.3231,0.0111,0.131,-0.0988,0.98,0.0525,-4.6988,-19.733263205615906,15.914906753091817,0.06715210000298467,1.0489999999990687
0.2708,0.9118,-0.3216,0.0111,0.131,-0.0988,0.5425,-0.4462,-4.8562,-19.621626536200655,15.788331097134167,0.06001290000153023,1.0650000000023283
0.2671,0.9128,-0.3235,0.008,0.1326,-0.0977,-0.4638,-1.2337,-5.2238,-19.589468091710316,15.661097002395273,0.06001290000153023,1.0650000000023283
0.2671,0.9128,-0.3235,0.008,0.1326,-0.0977,-0.4638,-1.2337,-5.2238,-19.56696619932555,15.577724126874648,0.04150740001122469,1.0799999999944703
0.2658,0.9152,-0.3285,0.0103,0.1315,-0.0906,-1.12,-2.695,-5.53,-19.659619914831893,15.525585863689196,0.04150740001122469,1.0799999999944703
0.267,0.9189,-0.3274,0.0103,0.1315,-0.0906,-1.3825,-3.64,-5.6,-19.63156951108526,15.497163641143386,-0.016732600000640363,1.09599999999773
0.2673,0.9199,-0.3293,0.0103,0.1315,-0.0906,-1.3825,-3.64,-5.9675,-19.668575574989987,15.461979478090127,-0.016732600000640363,1.09599999999773
0.2676,0.9194,-0.3284,0.0106,0.1311,-0.0838,-2.2662,-4.4012,-5.9675,-19.660024573146877,15.438076227607784,-0.0871517999829637,1.1119999999937136
0.2676,0.9194,-0.3304,0.0106,0.1311,-0.0838,-2.4588,-5.0575,-6.1163,-19.73551159924018,15.405916503832167,-0.163014300016818,1.1270000000004075
0.2663,0.9165,-0.3304,0.0114,0.1318,-0.0944,-2.8612,-5.7225,-6.5625,-19.80111903823539,15.353014086408828,-0.163014300016818,1.1270000000004075
0.2666,0.9129,-0.3268,0.0114,0.1318,-0.0944,-2.8612,-5.7225,-6.5625,-19.723733147933828,15.362235149624121,-0.2545743000354712,1.143000000003667
0.2689,0.9124,-0.3268,0.0114,0.1318,-0.0944,-2.4938,-6.3437,-6.3437,-19.711352148305014,15.416181101093015,-0.2545743000354712,1.143000000003667
0.2701,0.9089,-0.3262,0.0114,0.1305,-0.0949,-2.6513,-6.5275,-6.44,-19.734124434269557,15.50206942618843,-0.35248679998417787,1.157999999995809
0.2759,0.9076,-0.327,0.0114,0.1305,-0.0949,-3.0888,-6.3175,-6.4837,-19.794018237612065,15.695937992932132,-0.35248679998417787,1.157999999995809
0.2759,0.9076,-0.327,0.0111,0.1318,-0.0956,-3.0888,-6.3175,-6.4837,-19.80879171466234,15.807754170980944,-0.45356680000477057,1.1739999999990687
0.2794,0.9048,-0.326,0.0111,0.1318,-0.0956,-3.1675,-6.1863,-6.9388,-19.812832976075406,16.02048794685703,-0.45356680000477057,1.1739999999990687
0.2806,0.9018,-0.3264,0.0111,0.1318,-0.0956,-2.7475,-5.9763,-6.8162,-19.874591975857292,16.16909289626681,-0.5491875999807678,1.1899999999950523
0.2789,0.9013,-0.3284,0.011,0.131,-0.0929,-1.7325,-5.2937,-6.5188,-19.966006474267235,16.187505416205642,-0.5491875999807678,1.1899999999950523
0.2789,0.8994,-0.3256,0.011,0.131,-0.0929,-1.7325,-5.2937,-6.5188,-19.92523716082893,16.217047689065375,-0.6285931000162033,1.2050000000017462
0.2789,0.8971,-0.322,0.0123,0.1312,-0.0948,-1.6275,-4.34,-6.4225,-19.81439388665096,16.254478165546345,-0.6285931000162033,1.2050000000017462
0.2828,0.8971,-0.322,0.0123,0.1312,-0.0948,-1.0325,-3.6837,-6.4488,-19.77963729523956,16.366112706457564,-0.6875323000014083,1.22099999999773
0.2839,0.8979,-0.3259,0.0122,0.1322,-0.0934,-0.6212,-2.6075,-6.1775,-19.84216610460396,16.421944502048795,-0.6875323000014083,1.22099999999773
0.2816,0.8985,-0.3206,0.0122,0.1322,-0.0934,-0.6212,-2.6075,-6.1775,-19.76641245604497,16.429060764746254,-0.7266447999998905,1.2359999999971478
0.2773,0.8995,-0.3244,0.0122,0.1322,-0.0934,-0.245,-1.19,-5.845,-19.777737038858213,16.40674494998681,-0.7266447999998905,1.2359999999971478
0.2768,0.8959,-0.324,0.0128,0.1322,-0.0902,-0.07,-0.2275,-6.2913,-19.7813098800476,16.334492877957953,-0.7302848000006321,1.2520000000004075
0.2768,0.8959,-0.324,0.0128,0.1322,-0.0902,0.2887,0.6125,-6.3875,-19.8060101811287,16.282533165374584,-0.7302848000006321,1.2520000000004075
0.2718,0.8945,-0.3257,0.0142,0.131,-0.0929,0.2887,0.6125,-6.3875,-19.85518827110289,16.147236637025085,-0.7204848000030921,1.2679999999963911
0.2716,0.8953,-0.3249,0.0142,0.131,-0.0929,0.56,1.575,-6.23,-19.888898613506296,16.072332144077503,-0.7204848000030921,1.2679999999963911
0.2738,0.8975,-0.3238,0.0142,0.131,-0.0929,1.0938,1.4175,-5.9675,-19.862139779739447,16.061480608272532,-0.6992223000039172,1.282999999995809
0.2758,0.9046,-0.3236,0.0169,0.1319,-0.1035,1.0938,1.4175,-6.0287,-19.767434664726427,16.05183311087256,-0.6992223000039172,1.282999999995809
0.2758,0.9062,-0.3258,0.0169,0.1319,-0.1035,1.9425,1.5488,-6.0287,-19.77225472935207,16.03655109182574,-0.6744415000101377,1.2989999999917927
0.2763,0.9062,-0.3258,0.0133,0.1314,-0.0941,1.7587,2.1263,-6.0462,-19.773819865587743,16.030306082623103,-0.6744415000101377,1.2989999999917927
0.2784,0.9102,-0.3214,0.0133,0.1314,-0.0941,1.2425,2.765,-5.8713,-19.591415848462038,16.036586752894365,-0.6329664999916291,1.3139999999984866
0.2782,0.9106,-0.3156,0.0133,0.1314,-0.0941,1.2425,2.765,-5.8713,-19.324513754142814,16.043634304499633,-0.6329664999916291,1.3139999999984866
0.2711,0.9059,-0.3209,0.0133,0.1325,-0.0978,1.295,3.5875,-5.7838,-19.428008221698253,16.03409970933257,-0.5755664999799353,1.3300000000017462
0.2605,0.9102,-0.3258,0.0133,0.1325,-0.0978,0.9538,4.3575,-6.2125,-19.560474682684042,15.732538670939721,-0.5755664999799353,1.3300000000017462
0.2605,0.9102,-0.3258,0.0134,0.133,-0.0893,0.7613,3.6137,-6.0637,-19.61986859864702,15.576836380133996,-0.517747299994449,1.34599999999773
0.258,0.9134,-0.3223,0.0134,0.133,-0.0893,0.7613,3.6137,-6.0637,-19.538276948987043,15.418819776361765,-0.517747299994449,1.34599999999773
0.2624,0.9181,-0.3264,0.0134,0.133,-0.0893,0.6737,1.8725,-6.23,-19.55190995089112,15.306301255162282,-0.48965979999553894,1.3609999999971478
0.2666,0.9193,-0.3255,0.0126,0.1335,-0.0978,0.2537,1.1812,-5.3288,-19.53978088705272,15.301336825957279,-0.48965979999553894,1.3609999999971478
0.2623,0.9163,-0.3248,0.0126,0.1335,-0.0978,0.2625,0.35,-5.6262,-19.53475504142882,15.279116936664156,-0.48405979999694465,1.3769999999931315
0.2623,0.9188,-0.3232,0.0122,0.1328,-0.092,0.2625,0.35,-5.6262,-19.499302002373522,15.256371100557626,-0.47880979999460177,1.3919999999998254
0.2619,0.9188,-0.3232,0.0122,0.1328,-0.092,0.1488,-0.2187,-5.6,-19.480807239407056,15.229539936030964,-0.47880979999460177,1.3919999999998254
0.2642,0.919,-0.3237,0.0125,0.132,-0.0974,-0.07,-0.6825,-5.7312,-19.47817935915464,15.228472789355965,-0.4897297999968265,1.408000000003085
0.2626,0.9162,-0.3228,0.0125,0.132,-0.0974,-0.5425,-1.4875,-5.4338,-19.45475365543374,15.204160257873026,-0.4897297999968265,1.408000000003085
0.2639,0.9176,-0.3226,0.0125,0.132,-0.0974,-0.5425,-1.4875,-5.4338,-19.42624533706569,15.19835302848825,-0.5135297999908521,1.4239999999990687
0.2648,0.9171,-0.3195,0.0126,0.1327,-0.0922,-0.315,-1.89,-6.2387,-19.378316893377573,15.21587374372432,-0.5135297999908521,1.4239999999990687
0.2648,0.9171,-0.3195,0.0126,0.1327,-0.0922,-0.6562,-2.1263,-6.1163,-19.312786133769478,15.225485393325977,-0.5454242999896145,1.4389999999984866
0.2622,0.9085,-0.3227,0.0121,0.13,-0.0953,-0.7613,-2.7387,-6.335,-19.41475484211171,15.221331677843239,-0.5454242999896145,1.4389999999984866
0.26,0.9044,-0.3215,0.0121,0.13,-0.0953,-0.7613,-2.7387,-6.335,-19.479878604075605,15.197366715292814,-0.589243499978615,1.4549999999944703
0.2634,0.904,-0.3201,0.0121,0.13,-0.0953,-0.91,-3.3425,-6.23,-19.488660962498283,15.249539093147316,-0.589243499978615,1.4549999999944703
0.2673,0.9009,-0.3196,0.0144,0.133,-0.091,-0.6737,-3.2375,-5.9062,-19.50573922085294,15.299959507312336,-0.6378060000002864,1.4700000000011642
0.2673,0.9009,-0.3226,0.0144,0.133,-0.091,-0.6737,-3.2375,-5.705,-19.582162736072423,15.313143610887156,-0.6378060000002864,1.4700000000011642
0.2677,0.9008,-0.3226,0.0142,0.133,-0.095,-0.6825,-3.3688,-5.705,-19.629972928985083,15.326778450369273,-0.6917067999867562,1.4859999999971478
0.2693,0.9029,-0.3194,0.0142,0.133,-0.095,-0.9187,-3.0888,-5.145,-19.560157124470106,15.469421866121715,-0.6917067999867562,1.4859999999971478
0.2727,0.903,-0.3219,0.0142,0.133,-0.095,-0.1138,-2.73,-5.0575,-19.56454988387187,15.636951679241067,-0.735386799995655,1.5020000000004075
0.2718,0.901,-0.3245,0.0146,0.1315,-0.087,-0.1138,-2.73,-5.0575,-19.58231328310151,15.722037995832606,-0.735386799995655,1.5020000000004075
0.268,0.9049,-0.3216,0.0146,0.1315,-0.087,-0.2362,-2.1088,-4.6375,-19.579431164962056,15.65385784451307,-0.7670187999944276,1.5169999999998254
0.268,0.9049,-0.3216,0.0141,0.1326,-0.0955,-0.1838,-1.9775,-4.8038,-19.577575185193226,15.6240609373074,-0.7670187999944276,1.5169999999998254
0.2683,0.9085,-0.3213,0.0141,0.1326,-0.0955,0.1488,-1.54,-4.4975,-19.56192909663606,15.587562861248028,-0.7916587999882424,1.532999999995809
0.2704,0.9089,-0.3262,0.0141,0.1326,-0.0955,0.1488,-1.54,-4.4975,-19.58997142327464,15.618404923681108,-0.7916587999882424,1.532999999995809
0.2686,0.9104,-0.3241,0.0123,0.1325,-0.0954,-0.4462,-1.365,-4.41,-19.591611139762215,15.569584003488771,-0.8121337999973796,1.548000000002503
0.2697,0.9109,-0.3229,0.0123,0.1325,-0.0954,-0.4988,-1.6275,-4.7863,-19.568476115034162,15.580881011992707,-0.8121337999973796,1.548000000002503
0.2697,0.9109,-0.3259,0.013,0.1315,-0.097,0.56,-1.295,-4.3837,-19.61233611479288,15.578739112775352,-0.832853799982756,1.5639999999912106
0.2679,0.91,-0.3259,0.013,0.1315,-0.097,0.56,-1.295,-4.3837,-19.646542046474075,15.528152879106877,-0.832853799982756,1.5639999999912106
0.2671,0.9088,-0.3227,0.0149,0.1327,-0.0887,0.385,-1.155,-4.0163,-19.617742934710822,15.498063372777136,-0.8513337999865208,1.5799999999944703
0.2708,0.9085,-0.3252,0.0149,0.1327,-0.0887,-0.28,-1.2687,-3.85,-19.632956098098145,15.614677812685317,-0.8513337999865208,1.5799999999944703
0.2791,0.9121,-0.321,0.0149,0.1327,-0.0887,-0.2187,-1.96,-3.78,-19.594998982230972,15.936873551472097,-0.8807337999996409,1.5950000000011642
0.2859,0.9122,-0.3153,0.0148,0.1326,-0.0965,-0.2187,-1.96,-3.78,-19.51302183631699,16.310686624568923,-0.8807337999996409,1.5950000000011642
0.2859,0.9122,-0.3153,0.0148,0.1326,-0.0965,-0.3938,-1.9162,-3.3338,-19.39532242966732,16.444900418490647,-0.9113929999919448,1.6109999999971478
0.285,0.9055,-0.3215,0.0119,0.1327,-0.0962,-0.525,-0.6825,-3.0538,-19.445401332048895,16.50004796202556,-0.9113929999919448,1.6109999999971478
0.2822,0.9017,-0.3211,0.0119,0.1327,-0.0962,-0.525,-0.1488,-3.5525,-19.496620321371346,16.449858486754557,-0.9136249999918582,1.6259999999965657
0.2774,0.8999,-0.3255,0.0119,0.1327,-0.0962,-0.84,-0.1488,-3.5525,-19.670052734952378,16.254529578188695,-0.9136249999918582,1.6259999999965657
0.2755,0.9026,-0.3251,0.012,0.1315,-0.1004,-0.7437,0.1925,-4.1475,-19.727322088929395,16.11164038253334,-0.9105449999926314,1.6419999999925494
0.2755,0.9026,-0.327,0.012,0.1315,-0.1004,0.28,0.0962,-4.48,-19.77218904154363,16.05603447400523,-0.9105449999926314,1.6419999999925494
0.2737,0.9059,-0.327,0.0131,0.131,-0.0943,0.28,0.0962,-4.48,-19.790312284151888,15.948742391386903,-0.9090057999923178,1.657999999995809
0.2704,0.9013,-0.3261,0.0131,0.131,-0.0943,0.7175,0.3938,-5.3288,-19.833391955580236,15.89117880869259,-0.9090057999923178,1.657999999995809
0.2722,0.9052,-0.3217,0.0131,0.131,-0.0943,1.4787,0.5863,-5.9588,-19.67164115520775,15.878848509285142,-0.9002112999883931,1.673000000002503
0.273,0.9109,-0.3231,0.0164,0.1326,-0.0947,1.0938,0.5512,-6.3263,-19.59644387067009,15.840113709792437,-0.9002112999883931,1.673000000002503
0.2748,0.9094,-0.3243,0.0164,0.1326,-0.0947,1.0938,0.5512,-6.3263,-19.612473971291326,15.857430191988094,-0.8913920999906069,1.6889999999984866
0.2748,0.9094,-0.3243,0.013,0.1321,-0.0947,0.7788,0.525,-6.51,-19.61884601377277,15.870403856272599,-0.8913920999906069,1.6889999999984866
0.275,0.9076,-0.3238,0.013,0.1321,-0.0947,0.5425,0.8138,-6.5975,-19.624620660635244,15.896659317729705,-0.8791850999910805,1.7039999999979045
0.2796,0.9055,-0.3221,0.013,0.1321,-0.0947,0.4375,0.8925,-7.0262,-19.61070724771142,16.07844821306236,-0.8791850999910805,1.7039999999979045
0.278,0.904,-0.3195,0.013,0.133,-0.1018,0.4375,0.8925,-7.0262,-19.563941926877018,16.129389646404288,-0.8649050999946651,1.7199999999938882
0.2735,0.9011,-0.3269,0.013,0.133,-0.1018,1.05,1.8463,-7.5425,-19.759450289033932,15.99796342348446,-0.8649050999946651,1.7199999999938882
0.2735,0.9011,-0.3269,0.0129,0.133,-0.0949,0.98,1.8637,-7.2625,-19.85023051110066,15.953826967745343,-0.8350858999885902,1.7359999999971478
0.2638,0.9031,-0.3254,0.0129,0.133,-0.0949,0.9975,1.505,-7.4637,-19.832247878923674,15.582698840037356,-0.8350858999885902,1.7359999999971478
0.2635,0.904,-0.3259,0.0129,0.133,-0.0961,0.9975,1.505,-7.4637,-19.82840514529766,15.425660705524583,-0.8125108999894662,1.7509999999965657
0.2631,0.904,-0.3232,0.0132,0.1346,-0.0961,1.5575,0.735,-7.5163,-19.73300977941592,15.361841852257829,-0.8125108999894662,1.7509999999965657
0.2668,0.9082,-0.3285,0.0132,0.1346,-0.0961,1.6538,0.5337,-7.245,-19.82864385526599,15.410429973086288,-0.8039716999877266,1.7669999999998254
0.2669,0.914,-0.3237,0.0128,0.1325,-0.0958,2.0038,0.1488,-6.86,-19.609492729105806,15.399743295926086,-0.8017396999878131,1.7819999999992433
0.2669,0.914,-0.3237,0.0128,0.1325,-0.0958,2.0038,0.1488,-6.86,-19.53736691054526,15.394678796048025,-0.8017396999878131,1.7819999999992433
0.2695,0.916,-0.3245,0.013,0.1333,-0.0903,1.33,-0.3938,-6.3088,-19.519888120857768,15.432470264866314,-0.8080404999862315,1.797999999995227
0.2708,0.9154,-0.3237,0.013,0.1333,-0.0903,0.8313,-0.3063,-6.16,-19.49877997579201,15.476522859129323,-0.8080404999862315,1.797999999995227
0.2708,0.913,-0.3267,0.013,0.1333,-0.0903,0.8313,-0.3063,-6.16,-19.586965017103758,15.513347000594147,-0.81294129998723,1.8139999999984866
0.2709,0.9096,-0.3247,0.013,0.1329,-0.0934,0.3588,0.0263,-5.95,-19.603364434331727,15.539162909294339,-0.81294129998723,1.8139999999984866
0.2709,0.9096,-0.3247,0.013,0.1329,-0.0934,-0.0088,0.49,-5.8625,-19.60441496123512,15.552220381309644,-0.8055912999875152,1.8289999999979045
0.269,0.9061,-0.3227,0.0138,0.1342,-0.0978,0.1138,0.35,-5.635,-19.604223665117427,15.55968944536148,-0.8055912999875152,1.8289999999979045
0.2687,0.9043,-0.3249,0.0138,0.1342,-0.0978,0.1138,0.35,-5.635,-19.62468618074343,15.566199432901294,-0.7999912999889209,1.8449999999938882
0.2704,0.9027,-0.3217,0.0138,0.1342,-0.0978,0.4725,0.3762,-5.39,-19.621363732928952,15.616726033101456,-0.7999912999889209,1.8449999999938882
0.2689,0.9054,-0.3223,0.0153,0.1352,-0.1032,0.6475,0.6475,-5.3463,-19.610458228220285,15.620958487775317,-0.7902787999845866,1.860000000000582
0.2689,0.9063,-0.3196,0.0153,0.1352,-0.1032,0.7525,0.7262,-5.075,-19.528694351754773,15.625516981292394,-0.7902787999845866,1.860000000000582
0.269,0.9063,-0.3196,0.0142,0.134,-0.0982,0.7525,0.7262,-5.075,-19.482943518326962,15.630466548526234,-0.7786595999875032,1.8759999999965657
0.2694,0.9054,-0.3243,0.0142,0.134,-0.0982,0.7525,0.7962,-5.2762,-19.581507664642235,15.636318402426204,-0.7786595999875032,1.8759999999965657
0.2679,0.9081,-0.3243,0.0142,0.134,-0.0982,0.8925,0.8838,-5.2675,-19.61572224878545,15.600653861219662,-0.7645187999846224,1.8919999999998254
0.2648,0.9094,-0.327,0.0118,0.1337,-0.1025,0.945,0.9363,-5.3812,-19.695757946931437,15.525931128739964,-0.7645187999846224,1.8919999999998254
0.2642,0.9115,-0.3219,0.0118,0.1337,-0.1025,0.945,0.9363,-5.3812,-19.574579446329988,15.461341154351455,-0.7504742999919798,1.9069999999919673
0.2642,0.9115,-0.3219,0.013,0.1323,-0.0942,1.0325,0.56,-5.18,-19.5107227229933,15.39774526722653,-0.7504742999919798,1.9069999999919673
0.265,0.9117,-0.3266,0.013,0.1323,-0.0942,1.0325,-0.1838,-5.565,-19.613155748866248,15.383064026898293,-0.7534150999925789,1.922999999995227
0.2702,0.9113,-0.3259,0.013,0.1323,-0.0942,1.1725,0.14,-5.9412,-19.648684310566832,15.417720187866994,-0.7534150999925789,1.922999999995227
0.2661,0.9118,-0.3267,0.0141,0.133,-0.1018,1.1725,0.14,-5.9412,-19.683705424852164,15.408812579276558,-0.7513150999916418,1.9380000000019209
0.2672,0.911,-0.3217,0.0141,0.133,-0.1018,0.77,-0.2187,-6.3963,-19.57931173597529,15.428779627560928,-0.7513150999916418,1.9380000000019209
0.2672,0.9113,-0.3259,0.0131,0.1358,-0.0978,0.1225,-0.4462,-6.2213,-19.592730559936612,15.430444155322903,-0.7584542999898497,1.9539999999979045
0.2661,0.9113,-0.3259,0.0131,0.1358,-0.0978,0.1225,-0.4462,-6.2387,-19.604326942759087,15.411731135817698,-0.7584542999898497,1.9539999999979045
0.2633,0.9098,-0.3258,0.0127,0.1324,-0.0986,0.0962,-0.805,-6.2387,-19.61568469599725,15.355655243617685,-0.7713342999924737,1.9700000000011642
0.2696,0.9101,-0.3238,0.0127,0.1324,-0.0986,0.2187,-1.0588,-6.5625,-19.60944155085234,15.462531856225006,-0.7713342999924737,1.9700000000011642
0.2685,0.9107,-0.3237,0.0127,0.1324,-0.0986,0.14,-0.9187,-6.6937,-19.60317447471481,15.493043445971141,-0.7869521999923133,1.9870000000009895
0.2654,0.9086,-0.3253,0.0134,0.133,-0.102,0.14,-0.9187,-6.6937,-19.617355921414067,15.436436109139125,-0.7869521999923133,1.9870000000009895
0.2654,0.9086,-0.3253,0.0134,0.133,-0.102,-0.1838,-0.77,-6.615,-19.62789416808793,15.408616304528442,-0.7992721999892207,2.002999999996973
0.2652,0.9046,-0.3264,0.0146,0.1338,-0.1005,-0.4988,-0.6475,-6.615,-19.695317883726077,15.412525425338417,-0.7992721999892207,2.002999999996973
0.2708,0.9038,-0.325,0.0146,0.1338,-0.1005,-0.1488,-0.7175,-6.4662,-19.70381131810539,15.551593211941832,-0.8100346999888031,2.017999999996391
0.2772,0.9028,-0.3235,0.0146,0.1338,-0.1005,-0.1488,-0.7175,-6.4662,-19.704866114231056,15.789588120890192,-0.8100346999888031,2.017999999996391
0.2755,0.9,-0.3273,0.0158,0.1351,-0.1041,0.0525,-0.4288,-6.0462,-19.727295250648453,15.848973050791061,-0.8168954999870809,2.033999999992375
0.2755,0.9,-0.331,0.0158,0.1351,-0.1041,0.2187,0.0962,-5.6438,-19.821312613552784,15.866259455128969,-0.8168954999870809,2.033999999992375
0.2724,0.9026,-0.331,0.0138,0.1343,-0.0982,0.4288,0.5775,-5.495,-19.92189272594093,15.856806813363097,-0.8076554999851985,2.0499999999956344
0.274,0.9032,-0.3282,0.0138,0.1343,-0.0982,0.4288,0.5775,-5.495,-19.937084073447462,15.868460858360828,-0.8076554999851985,2.0499999999956344
0.2743,0.9001,-0.3318,0.0138,0.1343,-0.0982,1.12,0.735,-5.7312,-20.09683208664287,15.8700868190342,-0.7966304999856263,2.0649999999950523
0.2752,0.9057,-0.3323,0.0142,0.1342,-0.095,1.645,1.1988,-5.9412,-20.128913205548656,15.878310324802706,-0.7966304999856263,2.0649999999950523
0.272,0.9124,-0.3325,0.0142,0.1342,-0.095,1.9512,1.1113,-5.6875,-20.058424322212584,15.864746240023905,-0.7788496999820038,2.080999999998312
0.272,0.9124,-0.3325,0.0157,0.1341,-0.0995,1.9512,1.1113,-5.6875,-20.034816725819425,15.851978660682327,-0.7788496999820038,2.080999999998312
0.2731,0.9112,-0.3303,0.0157,0.1341,-0.0995,2.0038,1.6888,-5.4775,-19.961158979330857,15.827243201092987,-0.7535176999829868,2.09599999999773
0.2674,0.9113,-0.3307,0.0157,0.1341,-0.0995,1.365,1.9512,-5.6,-19.95187164482529,15.774197979894593,-0.7535176999829868,2.09599999999773
0.2667,0.9142,-0.3284,0.0138,0.134,-0.1057,1.365,2.275,-5.5388,-19.83958640408557,15.70069337992012,-0.7171176999921239,2.1119999999937136
0.263,0.9116,-0.3245,0.0138,0.134,-0.1057,1.5925,2.275,-5.5388,-19.687528459172594,15.614384279817706,-0.7171176999921239,2.1119999999937136
0.263,0.9116,-0.3285,0.0126,0.1336,-0.1044,1.085,2.0125,-5.9412,-19.755866810659356,15.545479299398043,-0.684917699985564,2.127999999996973
0.2603,0.9112,-0.3285,0.0126,0.1336,-0.1044,0.42,1.8112,-5.7663,-19.777450612333695,15.537349618109374,-0.684917699985564,2.127999999996973
0.2578,0.9107,-0.3307,0.0151,0.1336,-0.1032,0.42,1.8112,-5.7663,-19.8336753558997,15.527056302515298,-0.6577496999866183,2.142999999996391
0.2581,0.9111,-0.329,0.0151,0.1336,-0.1032,0.4375,1.0325,-6.1075,-19.84043475002506,15.367027254550395,-0.6577496999866183,2.142999999996391
0.2578,0.911,-0.3304,0.0151,0.1336,-0.1032,0.28,0.175,-6.2213,-19.86297588787709,15.216550767916733,-0.6549496999860478,2.1589999999996508
0.2569,0.9105,-0.3302,0.0156,0.1355,-0.0982,0.4812,0.4112,-6.405,-19.88700141181404,15.073653737588211,-0.6549496999860478,2.1589999999996508
0.2569,0.9105,-0.3302,0.0156,0.1355,-0.0982,0.4812,0.4112,-6.405,-19.902850888239865,14.98731712029665,-0.6487816999862871,2.1739999999990687
0.2589,0.9148,-0.3306,0.0148,0.1346,-0.1019,-0.105,-0.5075,-6.6937,-19.900650667166307,14.947141573499236,-0.6487816999862871,2.1739999999990687
0.2615,0.9138,-0.3262,0.0148,0.1346,-0.1019,-0.0962,-0.9275,-6.4138,-19.885834022980312,15.001527507956233,-0.6636216999825619,2.1899999999950523
0.2612,0.9116,-0.335,0.0148,0.1346,-0.1019,-0.1225,-1.33,-6.2125,-19.90939914833273,15.017863919273458,-0.6636216999825619,2.1899999999950523
0.2619,0.9131,-0.3292,0.0139,0.1346,-0.1022,-0.1225,-1.33,-6.2125,-19.902645058349385,15.043907327032148,-0.6849016999868972,2.205999999998312
0.2619,0.9131,-0.3295,0.0139,0.1346,-0.1022,-0.63,-0.8662,-6.1512,-19.8801687187399,15.05959690271163,-0.697894699986393,2.22099999999773
0.2649,0.9119,-0.3295,0.0138,0.1347,-0.1006,-1.2337,-0.5775,-6.02,-19.872707350861123,15.106588319036735,-0.697894699986393,2.22099999999773
0.2627,0.9111,-0.3289,0.0138,0.1347,-0.1006,-1.3388,-0.5688,-5.9412,-19.859395045881165,15.117380298727422,-0.7069954999882471,2.2370000000009895
0.2584,0.9087,-0.3325,0.0138,0.1347,-0.1006,-1.3388,-0.5688,-5.9412,-19.994413479644145,15.090778678455123,-0.7069954999882471,2.2370000000009895
0.2611,0.9062,-0.3302,0.0158,0.1339,-0.0989,-1.0063,-0.2887,-6.4488,-20.007350075591717,15.114206537458866,-0.711325999988079,2.2520000000004075
0.2647,0.9049,-0.3323,0.0158,0.1339,-0.0989,-1.1025,-0.8925,-6.1337,-20.088446793271522,15.180818883685728,-0.711325999988079,2.2520000000004075
0.2647,0.9049,-0.3323,0.0162,0.1355,-0.0974,-0.3762,-0.7962,-5.705,-20.107781482867992,15.188274190517177,-0.7240651999848812,2.267999999996391
0.2689,0.9072,-0.3299,0.0162,0.1355,-0.0974,-0.3762,-0.7962,-5.705,-20.076169557189623,15.204487678466824,-0.7240651999848812,2.267999999996391
0.2727,0.9097,-0.3237,0.0162,0.1355,-0.0974,-0.5775,-0.6825,-5.075,-19.90411522143775,15.432704947151061,-0.7349851999871059,2.2839999999996508
0.2721,0.9044,-0.3299,0.0148,0.134,-0.0985,-1.085,-0.035,-5.0138,-19.97401529796472,15.581097895900022,-0.7349851999871059,2.2839999999996508
0.2685,0.8996,-0.3274,0.0148,0.134,-0.0985,-1.085,-0.035,-4.4887,-19.986530831373567,15.629101768943029,-0.7355101999870856,2.2989999999990687
0.2685,0.8996,-0.3299,0.0151,0.1334,-0.099,-0.525,0.7525,-4.4887,-20.036670101569065,15.64289143722287,-0.7355101999870856,2.2989999999990687
0.2674,0.9019,-0.3299,0.0151,0.1334,-0.099,0.0263,1.05,-4.4625,-20.039830521579212,15.59593125093011,-0.7187101999913027,2.3149999999950523
0.2688,0.9056,-0.3296,0.0133,0.1324,-0.1026,0.105,0.5775,-4.2263,-20.03487125201073,15.58925678978978,-0.7187101999913027,2.3149999999950523
0.2719,0.9078,-0.3255,0.0133,0.1324,-0.1026,0.105,0.5775,-4.2263,-19.996992062001237,15.683427813237671,-0.7100476999916389,2.3299999999944703
0.2726,0.9089,-0.3258,0.0133,0.1324,-0.1026,-0.28,0.665,-4.7162,-19.94251787716687,15.725447142819906,-0.7100476999916389,2.3299999999944703
0.275,0.9055,-0.3296,0.0134,0.1349,-0.1002,-0.0875,0.3938,-4.7688,-19.945472977795983,15.825647577834589,-0.7037468999903552,2.34599999999773
0.275,0.9055,-0.3296,0.0134,0.1349,-0.1002,0.5775,0.91,-4.7075,-19.966706969194348,15.877773471322886,-0.7037468999903552,2.34599999999773
0.2718,0.9084,-0.3243,0.015,0.1346,-0.101,0.5775,0.91,-4.7075,-19.845170333670843,15.806048827999591,-0.6891868999873889,2.3620000000009895
0.2709,0.9085,-0.326,0.015,0.1346,-0.101,0.4025,0.63,-4.865,-19.813080267750628,15.745649225886602,-0.6891868999873889,2.3620000000009895
0.2694,0.9075,-0.3232,0.015,0.1346,-0.101,-0.0175,0.875,-4.935,-19.80953715015627,15.690953875263977,-0.6760618999942647,2.3769999999931315
0.2642,0.9071,-0.3301,0.0155,0.1347,-0.093,-0.1925,1.0237,-5.2937,-19.83506569936629,15.570638665581292,-0.6760618999942647,2.3769999999931315
0.2642,0.9071,-0.3145,0.0155,0.1347,-0.093,-0.1925,1.0237,-5.2937,-19.737843721354036,15.512868074718126,-0.6596826999909278,2.392999999996391
0.2632,0.9051,-0.3236,0.0147,0.1339,-0.1015,-0.5337,0.3413,-5.53,-19.716413662956153,15.476926824504314,-0.6596826999909278,2.392999999996391
0.264,0.9038,-0.3251,0.0147,0.1339,-0.1015,-0.35,0.175,-5.5125,-19.732577309754333,15.456173907752891,-0.6570576999910296,2.407999999995809
0.2647,0.906,-0.3261,0.0147,0.1339,-0.1015,-0.1225,-0.1225,-5.5825,-19.737659740317163,15.443939935043115,-0.6570576999910296,2.407999999995809
0.2643,0.908,-0.3259,0.0149,0.1344,-0.1043,-0.1225,-0.1225,-5.5825,-19.738180870952736,15.426342226526822,-0.6590176999914289,2.4239999999990687
0.2643,0.9099,-0.3245,0.0149,0.1344,-0.1043,0.105,-0.3063,-5.775,-19.724665743119683,15.423278635361909,-0.6590176999914289,2.4239999999990687
0.2643,0.9099,-0.3245,0.0127,0.1345,-0.1022,0.4638,-0.3588,-5.8275,-19.692474081653693,15.414492868802453,-0.6647584999925984,2.4400000000023283
0.2665,0.9101,-0.3282,0.0127,0.1345,-0.1022,0.4638,-0.9275,-5.845,-19.73832247449326,15.413303427167708,-0.6647584999925984,2.4400000000023283
0.2649,0.9103,-0.3271,0.0127,0.1345,-0.1022,0.0875,-0.9275,-5.845,-19.74122558743819,15.404806212342429,-0.6786709999853101,2.4549999999944703
0.2684,0.9089,-0.3256,0.0145,0.1352,-0.1001,-0.3413,-1.5662,-5.8187,-19.733736330363275,15.413255302634646,-0.7037301999904153,2.47099999999773
0.2667,0.9063,-0.3274,0.0145,0.1352,-0.1001,-0.4988,-1.4963,-5.8012,-19.77446176892476,15.416043362506725,-0.7037301999904153,2.47099999999773
0.2667,0.9063,-0.3274,0.0159,0.1358,-0.0995,-0.4988,-1.4963,-5.8012,-19.80227695551944,15.41869533634148,-0.7261746999895443,2.485999999997148
0.2638,0.9081,-0.3247,0.0159,0.1358,-0.0995,-0.6125,-1.6888,-5.8625,-19.75566690188871,15.406507034489374,-0.7261746999895443,2.485999999997148
0.2653,0.9094,-0.3271,0.0159,0.1358,-0.1007,-0.3938,-1.89,-6.16,-19.762898606456112,15.390164333656838,-0.756414699995705,2.5020000000004075
0.2647,0.907,-0.3263,0.015,0.1342,-0.1007,-0.105,-1.68,-6.02,-19.76445446603491,15.382797881542391,-0.756414699995705,2.5020000000004075
0.2641,0.9087,-0.3252,0.015,0.1342,-0.1007,-0.105,-1.68,-6.02,-19.759624486367716,15.365990469760105,-0.7832947000011812,2.518000000003667
0.2644,0.9094,-0.3206,0.015,0.1349,-0.1014,-0.2013,-2.2662,-5.9325,-19.71105516457092,15.360998099428775,-0.7832947000011812,2.518000000003667
0.2644,0.9094,-0.3206,0.015,0.1349,-0.1014,-0.42,-2.4325,-6.2825,-19.629984575114566,15.351497507436562,-0.8197821999820665,2.532999999995809
0.265,0.9107,-0.3221,0.0145,0.1359,-0.1011,-0.595,-2.3012,-5.6175,-19.57535827399117,15.350230733698545,-0.8197821999820665,2.532999999995809
0.2671,0.9088,-0.3272,0.0145,0.1359,-0.1011,-0.595,-2.3012,-5.6175,-19.656268492647072,15.362781475288958,-0.8197821999820665,2.532999999995809
0.2675,0.908,-0.3268,0.0145,0.1359,-0.1011,-0.4988,-2.485,-5.5738,-19.700059475743277,15.38230625100084,-0.8595421999901667,2.5489999999990687
0.2665,0.9091,-0.3227,0.0156,0.1348,-0.1058,-0.56,-2.485,-5.8362,-19.646020043839165,15.387151268265862,-0.8968171999887202,2.5639999999984866
0.2665,0.9091,-0.3227,0.0156,0.1348,-0.1058,-0.2975,-2.3012,-5.3725,-19.624610108244347,15.402530630962518,-0.8968171999887202,2.5639999999984866
0.2671,0.9077,-0.322,0.0144,0.1342,-0.1002,-0.2975,-2.3012,-5.3725,-19.605287079846793,15.429277261286575,-0.9336363999962213,2.5800000000017462
0.2675,0.9081,-0.3258,0.0144,0.1342,-0.1002,-0.5775,-2.0213,-5.4862,-19.65146000668443,15.443391822421363,-0.9336363999962213,2.5800000000017462
0.2688,0.9072,-0.3232,0.0144,0.1342,-0.1002,-0.2362,-1.6187,-5.8888,-19.64433815759199,15.461893825693355,-0.95953559998972,2.59599999999773
0.2706,0.9087,-0.3228,0.0171,0.1348,-0.1055,0.0962,-1.3388,-5.705,-19.634197710200354,15.471030590984586,-0.95953559998972,2.59599999999773
0.2704,0.9091,-0.3228,0.0171,0.1348,-0.1055,0.0962,-1.3388,-5.705,-19.624310460580737,15.479051643648626,-0.9796175999889407,2.610999999997148
0.2704,0.9091,-0.3228,0.0143,0.1328,-0.101,-0.28,-1.1287,-5.88,-19.60942480497386,15.499626407772062,-0.9796175999889407,2.610999999997148
0.2676,0.909,-0.3262,0.0143,0.1328,-0.101,0.5512,-0.77,-5.6,-19.657966761180123,15.49803601486632,-0.9919375999914506,2.6270000000004075
0.266,0.9111,-0.3209,0.0143,0.1328,-0.101,0.5512,-0.77,-5.5738,-19.563722148214154,15.482780955904165,-0.9919375999914506,2.6270000000004075
0.2661,0.9111,-0.3249,0.0135,0.1332,-0.097,0.14,-0.42,-5.5738,-19.573031334480746,15.467600936107122,-0.9982375999881502,2.6419999999925494
0.2651,0.9107,-0.3263,0.0135,0.1332,-0.097,-0.2362,-0.8662,-5.5475,-19.596406931855153,15.443578958166107,-0.9982375999881502,2.6419999999925494
0.2651,0.9107,-0.3263,0.0161,0.135,-0.0902,-0.2537,-0.8925,-5.5213,-19.617247273053046,15.421495201040466,-1.0125175999910594,2.657999999995809
0.266,0.912,-0.3255,0.0161,0.135,-0.0902,-0.2537,-0.8925,-5.5213,-19.62167407212497,15.410055919339534,-1.0125175999910594,2.657999999995809
0.2664,0.9138,-0.3242,0.0161,0.135,-0.0902,-0.5163,-0.595,-5.7663,-19.593102195209358,15.409295528696711,-1.022037599992999,2.6739999999990687
0.2663,0.9085,-0.3223,0.0162,0.1334,-0.0959,0.35,-0.035,-5.5912,-19.576316882745967,15.413898536644274,-1.022037599992999,2.6739999999990687
0.2658,0.9097,-0.3238,0.0162,0.1334,-0.0959,-0.2537,-0.9363,-5.6613,-19.579270679814645,15.411991049228067,-1.0360820999924538,2.6889999999984866
0.2658,0.9101,-0.3242,0.0128,0.1342,-0.0969,-0.2537,-0.9363,-5.6613,-19.58428006491082,15.409607737159511,-1.0360820999924538,2.6889999999984866
0.2652,0.9101,-0.3242,0.0128,0.1342,-0.0969,0.035,-0.8225,-5.355,-19.58576931439247,15.392625235885014,-1.0492420999951348,2.7050000000017462
0.2627,0.908,-0.3217,0.016,0.1347,-0.1046,-0.7525,-0.49,-5.3288,-19.55368496644365,15.351563521451999,-1.0492420999951348,2.7050000000017462
0.2664,0.9053,-0.3217,0.016,0.1347,-0.1046,-0.665,-0.525,-5.5912,-19.557194414508963,15.371572138769654,-1.0571170999910093,2.719999999993888
0.2654,0.9076,-0.3217,0.016,0.1347,-0.1046,-0.665,-0.525,-5.5912,-19.541629929867696,15.376720256501082,-1.0571170999910093,2.719999999993888
0.2649,0.9087,-0.3256,0.0131,0.1356,-0.0998,0.0263,-0.84,-5.7488,-19.551493991867858,15.37668685144021,-1.0705570999937475,2.735999999997148
0.2649,0.9087,-0.3256,0.0131,0.1356,-0.0998,0.42,-0.5688,-5.88,-19.60207202738728,15.373142088015111,-1.0705570999937475,2.735999999997148
0.2653,0.9085,-0.3224,0.0174,0.135,-0.1034,0.035,-0.7,-5.915,-19.59791796370327,15.375128639531516,-1.0817570999960293,2.7520000000004075
0.2602,0.9071,-0.3268,0.0174,0.135,-0.1034,0.035,-0.7,-5.915,-19.61189277685206,15.336501965191664,-1.0817570999960293,2.7520000000004075
0.2614,0.9075,-0.3293,0.0174,0.135,-0.1034,0.0175,-1.0675,-5.46,-19.628358664412627,15.29472984732213,-1.097769599995408,2.7669999999998254
0.2647,0.9131,-0.3235,0.016,0.1346,-0.1066,0.1225,-1.61,-5.5125,-19.612094585858994,15.29247071346026,-1.097769599995408,2.7669999999998254
0.2647,0.9131,-0.3243,0.016,0.1346,-0.1066,0.1225,-1.61,-5.6613,-19.604095013689125,15.29136905103887,-1.123529600000656,2.783000000003085
0.2672,0.9174,-0.3243,0.016,0.1363,-0.1014,0.6388,-1.6538,-5.6613,-19.549507403920266,15.296565264352486,-1.123529600000656,2.783000000003085
0.268,0.9171,-0.3261,0.016,0.1363,-0.1014,0.455,-1.7938,-5.915,-19.557635494716997,15.31040369144762,-1.1504365999865602,2.797999999995227
0.2621,0.9139,-0.324,0.016,0.1363,-0.1014,0.4812,-1.4787,-5.985,-19.54505488061031,15.275308095616845,-1.1504365999865602,2.797999999995227
0.2626,0.9148,-0.3247,0.016,0.1356,-0.1053,0.4812,-1.4787,-5.985,-19.543967188621764,15.249065416423887,-1.1740957999913801,2.8139999999984866
0.2605,0.9123,-0.3226,0.016,0.1356,-0.1053,0.0875,-1.1725,-6.545,-19.536371669853906,15.168511738642218,-1.1740957999913801,2.8139999999984866
0.2605,0.9123,-0.3226,0.0184,0.1358,-0.1003,-0.49,-1.5313,-7.0175,-19.516917325609306,15.11187822909837,-1.19859659998523,2.8299999999944703
0.2594,0.909,-0.3261,0.0184,0.1358,-0.1003,-0.7613,-1.54,-7.245,-19.608796201351172,15.06590223980144,-1.19859659998523,2.8299999999944703
0.2592,0.9092,-0.3253,0.0184,0.1358,-0.1003,-0.7613,-1.54,-7.245,-19.641519266445346,15.041569547466043,-1.2216965999955385,2.845000000001164
0.2591,0.9076,-0.3204,0.016,0.1348,-0.1114,-0.8487,-1.3125,-7.2975,-19.55288217423842,15.05681293150809,-1.2216965999955385,2.845000000001164
0.2609,0.9084,-0.3251,0.016,0.1348,-0.1114,-0.1225,-1.3825,-6.8863,-19.564065452099065,15.096600793574313,-1.243816600000045,2.861000000004424
0.2609,0.9084,-0.3274,0.0157,0.1344,-0.0994,-0.4288,-1.5838,-7.035,-19.636384475394262,15.109753288867665,-1.2675735999875994,2.8759999999965657
0.2608,0.9054,-0.3274,0.0157,0.1344,-0.0994,-0.4288,-1.5838,-7.035,-19.705371735249535,15.136167060662775,-1.2675735999875994,2.8759999999965657
0.2591,0.9098,-0.3224,0.0166,0.1354,-0.1011,-0.7437,-1.8725,-6.9738,-19.625342614007042,15.07543562377682,-1.2675735999875994,2.8759999999965657
0.26,0.9094,-0.3238,0.0166,0.1354,-0.1011,-0.455,-2.1525,-6.965,-19.61746573361717,15.074795904584596,-1.3020135999946159,2.8919999999998254
0.2576,0.9094,-0.3243,0.0166,0.1354,-0.1011,-0.1925,-2.0912,-6.5975,-19.618721781823776,15.01244807532267,-1.3354727999862168,2.907999999995809
0.2625,0.9098,-0.3269,0.0166,0.1353,-0.1011,-0.1925,-2.0912,-6.5975,-19.63850746615113,15.094455264477583,-1.3354727999862168,2.907999999995809
0.2625,0.9098,-0.3269,0.0166,0.1353,-0.1011,0.315,-2.6688,-6.02,-19.670981848002413,15.115031169651534,-1.3755047999846635,2.922999999995227
0.2625,0.91,-0.3247,0.017,0.1364,-0.0984,0.035,-2.1525,-5.075,-19.66877352948243,15.149068729981954,-1.3755047999846635,2.922999999995227
0.262,0.9074,-0.322,0.017,0.1364,-0.0984,0.035,-1.8112,-4.8125,-19.660240650639583,15.184501200377431,-1.4044839999905674,2.9389999999984866
0.2621,0.909,-0.3276,0.017,0.1364,-0.0984,0.105,-1.8112,-4.8125,-19.679690697468065,15.18079820554912,-1.4044839999905674,2.9389999999984866
0.263,0.9093,-0.327,0.0188,0.1367,-0.0974,0.385,-1.575,-4.1125,-19.70918349409272,15.208463310241612,-1.4281089999896506,2.9539999999979045
0.263,0.9093,-0.327,0.0188,0.1367,-0.0974,0.5075,-1.0325,-4.1562,-19.733890406742024,15.218844969369973,-1.4281089999896506,2.9539999999979045
0.2639,0.9076,-0.3273,0.0154,0.1354,-0.1022,0.5075,-1.0325,-4.1562,-19.767815476521804,15.267256946206304,-1.4446289999930162,2.970000000001164
0.269,0.9043,-0.3262,0.0154,0.1354,-0.1022,0.9363,-1.3737,-4.1213,-19.801128804225346,15.493636899288088,-1.4446289999930162,2.970000000001164
0.2706,0.9094,-0.3283,0.0154,0.1354,-0.1022,0.9363,-0.6737,-4.0512,-19.825179809849832,15.583145797434357,-1.4554081999903103,2.985999999997148
0.2744,0.9101,-0.3238,0.0153,0.1359,-0.0974,0.8662,-0.4988,-4.0425,-19.711258603456354,15.756380368528461,-1.4554081999903103,2.985999999997148
0.2716,0.9084,-0.3248,0.0153,0.1359,-0.0974,0.8662,-0.4988,-4.0425,-19.693884579389724,15.735724822062696,-1.4638877999902233,3.002999999996973
0.2716,0.9084,-0.3248,0.0147,0.1352,-0.1037,0.9363,0.1925,-4.2787,-19.684383615575797,15.72852258757868,-1.4638877999902233,3.002999999996973
0.266,0.9049,-0.3278,0.0147,0.1352,-0.1037,0.8838,0.49,-4.76,-19.793793851775483,15.589835860786765,-1.456047799988626,3.019000000000233
0.2603,0.9044,-0.3332,0.0147,0.1352,-0.1037,1.2425,0.6913,-4.7688,-20.03555945374335,15.353832035417694,-1.456047799988626,3.019000000000233
0.2617,0.9089,-0.3292,0.0162,0.1367,-0.0997,1.2425,0.6913,-4.7688,-19.965243779300142,15.25191205166492,-1.4456782999890285,3.0339999999996508
0.2655,0.9118,-0.3263,0.0162,0.1367,-0.0997,1.505,0.2975,-5.005,-19.79864395527224,15.285793620998946,-1.4456782999890285,3.0339999999996508
0.2655,0.9118,-0.3419,0.0172,0.1358,-0.1045,1.4262,-0.14,-5.04,-20.24744801576848,15.271235082657736,-1.4479182999884663,3.0499999999956344
0.2644,0.9107,-0.334,0.0172,0.1358,-0.1045,1.4262,0.1225,-5.46,-20.18399238478497,15.265762937836145,-1.4479182999884663,3.0499999999956344
0.2661,0.9117,-0.3312,0.0172,0.1372,-0.1034,1.4262,0.1225,-5.46,-20.05395412540509,15.28258735116691,-1.4459582999880671,3.065999999998894
0.2675,0.9146,-0.3307,0.0168,0.1372,-0.1034,1.4612,-0.0175,-6.16,-19.94904860885863,15.310600083901539,-1.4459582999880671,3.065999999998894
0.2639,0.9135,-0.33,0.0168,0.1372,-0.1034,1.3737,0.5075,-6.1075,-19.898232001916288,15.281602865324594,-1.4383457999883624,3.080999999998312
0.2615,0.9133,-0.3354,0.0158,0.136,-0.0988,1.1113,0.1225,-6.265,-20.04081537551439,15.200837401527242,-1.4383457999883624,3.080999999998312
0.2615,0.9133,-0.3354,0.0158,0.136,-0.0988,1.1113,0.1225,-6.265,-20.107258198013124,15.14753091073456,-1.4363857999879632,3.0970000000015716
0.261,0.9138,-0.3292,0.0164,0.1366,-0.1089,0.6562,-0.665,-6.4837,-19.98651958829755,15.102412970113267,-1.4363857999879632,3.0970000000015716
0.2597,0.9127,-0.3331,0.0164,0.1366,-0.1089,0.9625,-0.5075,-6.9913,-20.018272294687595,15.026326764745933,-1.4439982999839753,3.1119999999937136
0.2563,0.9106,-0.3345,0.0164,0.1366,-0.1089,0.9625,-0.5075,-6.9125,-20.09418488404191,14.904359680317082,-1.4439982999839753,3.1119999999937136
0.2554,0.9112,-0.3338,0.0174,0.1365,-0.0962,0.5337,0.0787,-6.9125,-20.103287718520917,14.81872555359661,-1.4427390999837189,3.127999999996973
0.2554,0.9112,-0.3338,0.0174,0.1365,-0.0962,0.035,-0.2625,-7.56,-20.104330685591147,14.771280272342256,-1.4427390999837189,3.127999999996973
0.2597,0.9121,-0.3323,0.018,0.1366,-0.1035,0.1138,0.0,-7.35,-20.093158238594754,14.898109207781612,-1.4427390999837189,3.143999999992957
0.2582,0.9113,-0.3304,0.018,0.1366,-0.1035,0.1138,0.0,-7.35,-20.071882297725818,14.9086800098602,-1.4427390999837189,3.143999999992957
0.2539,0.9109,-0.3373,0.018,0.1366,-0.1035,-0.3675,0.2275,-7.2275,-20.13365470087099,14.75369352541096,-1.439326599982196,3.1589999999996508
0.2537,0.9098,-0.3331,0.0174,0.137,-0.1098,-0.2713,-0.2537,-7.07,-20.128919997816492,14.708157867190305,-1.439326599982196,3.1589999999996508
0.2553,0.9084,-0.3323,0.0174,0.137,-0.1098,-0.3762,-0.49,-6.4837,-20.119755933227758,14.740839159754886,-1.4471665999837933,3.1750000000029104
0.2553,0.9084,-0.3323,0.0183,0.1371,-0.1048,-0.3762,-0.49,-6.4837,-20.11292494998104,14.759688513673598,-1.4471665999837933,3.1750000000029104
0.2548,0.9085,-0.336,0.0183,0.1371,-0.1048,-0.5688,-0.5425,-6.195,-20.176815971006842,14.752916828620405,-1.4553040999795304,3.1899999999950523
0.2557,0.9089,-0.3318,0.0183,0.1371,-0.1048,-0.5075,-0.4288,-5.81,-20.13769095054737,14.755766112955097,-1.4553040999795304,3.1899999999950523
0.2572,0.9071,-0.3299,0.0185,0.139,-0.109,-0.6475,-0.1225,-5.3288,-20.079915905879076,14.804627127672134,-1.4572640999799296,3.205999999998312
0.257,0.909,-0.3348,0.0185,0.139,-0.109,-0.6475,-0.1225,-5.3288,-20.13299324778411,14.820607973318483,-1.4572640999799296,3.205999999998312
0.257,0.909,-0.3348,0.0175,0.1362,-0.1043,0.2713,0.3675,-5.355,-20.153283603287218,14.831351879780486,-1.4513840999814056,3.2219999999942956
0.2599,0.9102,-0.3323,0.0175,0.1362,-0.1043,-0.3588,0.1312,-4.8825,-20.129556990789823,14.916539948394695,-1.4513840999814056,3.2219999999942956
0.2636,0.9127,-0.328,0.0175,0.1362,-0.1017,-0.7875,-0.2275,-4.8212,-19.97387441641182,15.055628311775445,-1.4547965999829284,3.2370000000009895
0.2673,0.9087,-0.3332,0.0177,0.1358,-0.1017,-0.7875,-0.2275,-4.8212,-20.043876160155722,15.240155295846105,-1.4547965999829284,3.2370000000009895
0.2665,0.9093,-0.3321,0.0177,0.1358,-0.1017,-0.3588,0.1488,-4.795,-20.048681879888203,15.314340957830394,-1.4524157999824434,3.253000000004249
0.2664,0.9102,-0.33,0.0174,0.1365,-0.1063,-0.2887,0.6037,-4.865,-20.024335775171156,15.347323793291448,-1.4524157999824434,3.253000000004249
0.2664,0.9102,-0.33,0.0174,0.1365,-0.1063,-0.2887,0.315,-4.83,-20.004921699814112,15.36518288948958,-1.4476907999849187,3.267999999996391
0.2667,0.9111,-0.3279,0.0164,0.136,-0.1036,-0.525,0.315,-4.83,-19.93537144397934,15.381426624252947,-1.4476907999849187,3.267999999996391
0.2665,0.9081,-0.3275,0.0164,0.136,-0.1036,-0.4462,0.4025,-5.1625,-19.905083947873134,15.400507451374244,-1.4412507999836066,3.2839999999996508
0.2622,0.9084,-0.3277,0.0164,0.136,-0.1036,-0.525,0.35,-5.2762,-19.882556082983097,15.332949153111914,-1.4412507999836066,3.2839999999996508
0.263,0.9063,-0.3272,0.018,0.1363,-0.1032,-0.525,0.35,-5.2762,-19.87218019444266,15.311705035365463,-1.4356507999850123,3.2999999999956344
0.263,0.9063,-0.3272,0.018,0.1363,-0.1032,-0.5775,0.7875,-5.18,-19.864734975761333,15.295424508559822,-1.4356507999850123,3.2999999999956344
0.2603,0.9078,-0.3304,0.0167,0.1369,-0.1092,-0.385,0.2975,-4.9963,-19.899653112121086,15.202841109068496,-1.431188299983021,3.3150000000023283
0.2607,0.9107,-0.3309,0.0167,0.1369,-0.1092,-0.1138,0.5163,-4.9963,-19.904699077484782,15.141031749737367,-1.431188299983021,3.3150000000023283
0.2618,0.9101,-0.3274,0.0167,0.1369,-0.1092,-0.1138,0.5163,-4.9963,-19.895973373511854,15.143086380229866,-1.4229274999850947,3.330999999998312
0.2598,0.9118,-0.3285,0.0163,0.1342,-0.1053,0.14,0.4638,-5.2063,-19.88362048687454,15.094864027273806,-1.4229274999850947,3.330999999998312
0.2598,0.9114,-0.3274,0.0163,0.1342,-0.1053,0.1575,0.2187,-5.5825,-19.86364443606098,15.08373259491509,-1.419646999985222,3.34599999999773
0.2577,0.9114,-0.3274,0.0162,0.1372,-0.1039,-0.2013,-0.21,-5.5037,-19.84879510075043,15.04768591087925,-1.4230069999859065,3.3620000000009895
0.2588,0.9116,-0.3259,0.0162,0.1372,-0.1039,-0.2013,-0.21,-5.5037,-19.823561196454893,15.031690046937356,-1.4230069999859065,3.3620000000009895
0.2571,0.9131,-0.326,0.0162,0.1372,-0.1039,-0.3237,-1.015,-5.9062,-19.784163781072344,15.00734062853118,-1.43924699998183,3.377999999996973
0.2571,0.9144,-0.327,0.0171,0.1374,-0.1054,-0.3325,-1.0675,-6.055,-19.75971675211659,14.965589820545151,-1.43924699998183,3.377999999996973
0.258,0.9118,-0.3251,0.0171,0.1374,-0.1054,-0.84,-1.4262,-5.565,-19.698980996107743,14.95905421368233,-1.4606399999809998,3.392999999996391
0.258,0.9118,-0.3251,0.017,0.1355,-0.11,-0.84,-1.4262,-5.565,-19.66533878940983,14.953538398339216,-1.4606399999809998,3.392999999996391
0.2597,0.9101,-0.3274,0.017,0.1355,-0.11,-1.2862,-1.19,-5.3987,-19.732255256909585,14.973369895907418,-1.4796799999762205,3.408999999992375
0.2603,0.9127,-0.327,0.017,0.1355,-0.11,-1.1287,-0.875,-5.5475,-19.721394047673197,14.982682246512539,-1.4796799999762205,3.408999999992375
0.2603,0.914,-0.3239,0.0172,0.1358,-0.1014,-0.7262,-1.3038,-5.67,-19.63624809013807,14.985884608451045,-1.499236999984948,3.4239999999990687
0.2621,0.9107,-0.3272,0.0172,0.1358,-0.1014,-0.7262,-1.3038,-5.67,-19.68788515564548,14.998390683323835,-1.499236999984948,3.4239999999990687
0.2621,0.9119,-0.3298,0.0174,0.1362,-0.1019,-0.6913,-1.2862,-6.0113,-19.76528442257207,15.024620914538687,-1.5198161999891404,3.4400000000023283
0.2601,0.9119,-0.3298,0.0174,0.1362,-0.1019,-0.9625,-1.1638,-5.6175,-19.8220140514702,15.023470095346347,-1.5198161999891404,3.4400000000023283
0.2606,0.9132,-0.322,0.0159,0.1358,-0.1123,-0.9625,-1.1638,-5.915,-19.629958492116675,15.02908352720578,-1.5384369999844663,3.455999999998312
0.2619,0.9066,-0.3278,0.0159,0.1358,-0.1123,-0.98,-1.155,-5.915,-19.75074065899836,15.053114203483238,-1.5384369999844663,3.455999999998312
0.2596,0.9068,-0.3257,0.0159,0.1358,-0.1123,-1.225,-0.91,-5.5388,-19.754156274832297,15.057642766385266,-1.5520869999839366,3.47099999999773
0.2626,0.9074,-0.3224,0.0171,0.1364,-0.109,-1.1725,-1.4525,-5.8362,-19.650908986051668,15.073206240687064,-1.5520869999839366,3.47099999999773
0.2626,0.9074,-0.3224,0.0171,0.1364,-0.109,-1.1725,-1.4525,-5.8362,-19.60261393328794,15.087533092752805,-1.575326999978103,3.4869999999937136
0.2648,0.9064,-0.3243,0.0178,0.1378,-0.1019,-1.4963,-1.2687,-5.8713,-19.652513886188725,15.119188124962148,-1.575326999978103,3.4869999999937136
0.2636,0.9057,-0.3252,0.0178,0.1378,-0.1019,-1.54,-1.0063,-6.1512,-19.711778059374325,15.176375492410838,-1.590421499984839,3.5020000000004075
0.2631,0.9067,-0.3265,0.0178,0.1378,-0.1019,-0.875,-0.7437,-5.74,-19.753796993370383,15.177294774547256,-1.590421499984839,3.5020000000004075
0.2632,0.9085,-0.3268,0.0176,0.137,-0.107,-0.875,-0.7437,-5.74,-19.767752341635635,15.17799414527177,-1.6023206999872632,3.518000000003667
0.2632,0.9129,-0.327,0.0176,0.137,-0.107,0.0263,-0.9187,-5.7838,-19.764289504605784,15.178244359730511,-1.6023206999872632,3.518000000003667
0.2636,0.9129,-0.327,0.0183,0.1382,-0.1037,0.6125,-0.805,-6.1337,-19.74196972807552,15.186395460560572,-1.61520069998403,3.5339999999996508
0.2669,0.9146,-0.3256,0.0183,0.1382,-0.1037,0.7088,-0.4725,-6.5363,-19.67966590676516,15.268091727806178,-1.61520069998403,3.5339999999996508
0.268,0.9152,-0.3268,0.0183,0.1382,-0.1037,0.7088,-0.4725,-6.5363,-19.66729329441892,15.333940474224294,-1.622288199983755,3.5489999999990687
0.2669,0.9168,-0.3251,0.0177,0.1379,-0.1124,0.0787,-0.2887,-6.86,-19.652770871885693,15.338855038125704,-1.622288199983755,3.5489999999990687
0.2674,0.9169,-0.3218,0.0177,0.1379,-0.1124,0.3325,0.1838,-6.86,-19.56858644543476,15.36354706589498,-1.6193473999844932,3.5649999999950523
0.2674,0.9169,-0.3218,0.0182,0.1368,-0.1105,-0.245,0.2713,-6.5538,-19.528738821099488,15.373459557854321,-1.6193473999844932,3.5649999999950523
0.2613,0.9145,-0.3221,0.0182,0.1368,-0.1105,-0.245,0.2713,-6.5538,-19.506885784891953,15.24400517901388,-1.6152778999826771,3.5800000000017462
0.2594,0.9124,-0.3226,0.0182,0.1368,-0.1105,-0.0175,0.4288,-7.035,-19.50630107347357,15.109624311764618,-1.6152778999826771,3.5800000000017462
0.2578,0.9116,-0.3204,0.0163,0.137,-0.1005,-0.1575,0.56,-7.3412,-19.490846731449242,15.004572244568434,-1.6063178999849264,3.59599999999773
0.256,0.9107,-0.3231,0.0163,0.137,-0.1005,-0.1575,0.7613,-7.3412,-19.49554281536765,14.902360992370605,-1.6063178999849264,3.59599999999773
0.256,0.9113,-0.3229,0.0186,0.1386,-0.107,-0.2713,0.7613,-7.3412,-19.498445487880314,14.858424519468437,-1.594137099987984,3.6119999999937136
0.2549,0.9113,-0.3229,0.0186,0.1386,-0.107,-0.5163,0.5688,-7.1312,-19.502432842212915,14.807062840270806,-1.594137099987984,3.6119999999937136
0.2541,0.9098,-0.3199,0.0187,0.137,-0.1107,-0.49,0.2625,-7.0525,-19.461772572607007,14.780879915468857,-1.5901995999862268,3.6270000000004075
0.2563,0.9087,-0.3243,0.0187,0.137,-0.1107,-0.49,0.2625,-7.0525,-19.51773670317202,14.835004993475453,-1.5901995999862268,3.6270000000004075
0.2538,0.9132,-0.3248,0.0187,0.137,-0.1107,0.0613,0.0088,-6.6238,-19.52310645006836,14.7597711997183,-1.590058799986262,3.642999999996391
0.2552,0.9147,-0.3203,0.0183,0.1378,-0.1033,-0.385,-0.385,-6.7463,-19.464883415720056,14.756049529211243,-1.5958337999888392,3.658000000003085
0.2552,0.9147,-0.3203,0.0183,0.1378,-0.1033,0.21,-0.14,-6.58,-19.432216608833826,14.754355357034793,-1.5958337999888392,3.658000000003085
0.2572,0.9143,-0.3244,0.0182,0.1367,-0.1039,0.21,-0.14,-6.58,-19.452427915095036,14.797010489603887,-1.5980737999872583,3.6739999999917927
0.2548,0.916,-0.319,0.0182,0.1367,-0.1039,0.0787,-0.175,-6.405,-19.42681252877997,14.765972667708466,-1.5980737999872583,3.6739999999917927
0.2563,0.9185,-0.3192,0.0182,0.1367,-0.1039,-0.77,0.105,-6.1687,-19.315244422924213,14.766017166596148,-1.596393799986916,3.6899999999950523
0.2571,0.9149,-0.3258,0.0183,0.1371,-0.1052,-1.0325,0.035,-5.8975,-19.457989435850966,14.773959886882176,-1.596393799986916,3.6899999999950523
0.2571,0.9149,-0.324,0.0183,0.1371,-0.1052,-1.0325,0.035,-5.8975,-19.479442257200226,14.782012451135323,-1.5958687999866816,3.7050000000017462
0.2503,0.9137,-0.324,0.0192,0.1365,-0.1042,-0.7788,-0.3063,-4.8562,-19.49871608913933,14.638058019459239,-1.5958687999866816,3.7050000000017462
0.2486,0.9091,-0.3227,0.0192,0.1365,-0.1042,-0.3588,-0.8487,-4.8212,-19.509594565395624,14.54793462077566,-1.609447999983273,3.72099999999773
0.2524,0.907,-0.3243,0.0192,0.1365,-0.1042,-0.5075,-1.4175,-4.8125,-19.56257794849552,14.613440036273582,-1.609447999983273,3.72099999999773
0.2565,0.9135,-0.3234,0.0185,0.1363,-0.105,-0.5075,-1.4175,-4.8125,-19.540925493149953,14.71612003661582,-1.6307104999824478,3.735999999997148
0.2621,0.9165,-0.3196,0.0185,0.1363,-0.105,-0.4638,-1.5313,-4.7512,-19.44593322309547,14.913563785567582,-1.6307104999824478,3.735999999997148
0.2621,0.9165,-0.3196,0.0194,0.1366,-0.1042,0.0,-1.8637,-4.34,-19.43851896541542,15.02922885774443,-1.6605296999749626,3.7519999999931315
0.2605,0.9099,-0.3195,0.0194,0.1366,-0.1042,-0.7175,-1.6888,-4.585,-19.401824340421133,15.076087071894825,-1.6605296999749626,3.7519999999931315
0.2564,0.9062,-0.3253,0.0194,0.1366,-0.1042,-0.7175,-1.6888,-4.585,-19.541760953629165,14.987734835171732,-1.6875504999804674,3.767999999996391
0.2559,0.9081,-0.3254,0.0178,0.137,-0.1079,-0.2187,-1.9775,-4.6375,-19.56855728886596,14.919010529145005,-1.6875504999804674,3.767999999996391
0.2578,0.9092,-0.3226,0.0178,0.137,-0.1079,0.14,-2.1263,-4.8038,-19.563652752433136,14.939517465799158,-1.7194449999947006,3.783000000003085
0.2578,0.9092,-0.3252,0.0186,0.1364,-0.1107,0.14,-2.1263,-4.4887,-19.581095638745925,14.944404503732446,-1.7194449999947006,3.783000000003085
0.2591,0.9119,-0.3252,0.0186,0.1364,-0.1107,0.2887,-2.0912,-4.4887,-19.592349276142908,14.96570141881919,-1.7529041999863015,3.7989999999990687
0.2594,0.9152,-0.3262,0.0197,0.1368,-0.1028,0.3938,-1.9688,-4.62,-19.59984190948366,14.95650630422633,-1.7529041999863015,3.7989999999990687
0.2599,0.9164,-0.3242,0.0197,0.1368,-0.1028,0.6475,-2.1962,-4.7863,-19.552272712601784,14.962684626319673,-1.7858471999850232,3.8139999999984866
0.2632,0.9133,-0.3245,0.0197,0.1368,-0.1028,0.6475,-2.1962,-4.7863,-19.555559230409816,15.075483490809054,-1.7858471999850232,3.8139999999984866
0.2583,0.9137,-0.3256,0.0189,0.1389,-0.1062,0.315,-2.1525,-5.04,-19.57061987493429,15.007392732387272,-1.8202871999763781,3.8299999999944703
0.2583,0.9137,-0.3256,0.0189,0.1389,-0.1062,0.1838,-2.3537,-5.3113,-19.578342353284565,14.978149968431472,-1.8202871999763781,3.8299999999944703
0.2551,0.9129,-0.3232,0.019,0.1378,-0.1054,-0.4988,-2.2925,-5.3375,-19.552184045393386,14.913720792788457,-1.8569671999838508,3.84599999999773
0.2541,0.91,-0.3242,0.019,0.1378,-0.1054,-0.4988,-2.2925,-5.3375,-19.570239378802363,14.862138824790687,-1.8569671999838508,3.84599999999773
0.2521,0.9097,-0.3274,0.019,0.1378,-0.1054,-0.3237,-2.4413,-5.3637,-19.620356678282697,14.793154362435338,-1.8960279999918086,3.8620000000009895
0.2561,0.9111,-0.3239,0.0188,0.1364,-0.109,-0.0263,-2.8437,-5.6875,-19.619943697675897,14.795565271204826,-1.8960279999918086,3.8620000000009895
0.2561,0.9111,-0.3259,0.0188,0.1364,-0.109,0.14,-3.1937,-5.95,-19.62918607974542,14.800367704954265,-1.9471271999789816,3.877999999996973
0.2567,0.9094,-0.3259,0.0199,0.1364,-0.1058,0.14,-3.1937,-5.95,-19.64210348204189,14.813827385505133,-1.9471271999789816,3.877999999996973
0.2584,0.9069,-0.3282,0.0199,0.1364,-0.1058,0.2362,-2.9488,-5.81,-19.695958875585955,14.824302021212258,-1.9913591999772653,3.892999999996391
0.2599,0.9099,-0.3254,0.0199,0.1364,-0.1058,0.6037,-2.8612,-5.9412,-19.68902125480306,14.861144752684828,-1.9913591999772653,3.892999999996391
0.2632,0.9107,-0.3257,0.0185,0.1374,-0.1132,0.805,-2.7475,-5.8625,-19.684414851524135,14.897790270117007,-2.0353191999662306,3.908999999992375
0.2602,0.9126,-0.33,0.0185,0.1374,-0.1132,0.805,-2.7475,-5.8625,-19.77377679371389,14.90910269894476,-2.0353191999662306,3.908999999992375
0.2602,0.9126,-0.33,0.0195,0.1375,-0.1065,0.8487,-2.3187,-5.8275,-19.823694491421634,14.916337750873,-2.0724183999737886,3.9249999999956344
0.26,0.9137,-0.3267,0.0195,0.1375,-0.1065,0.4725,-2.24,-5.5388,-19.773616963621155,14.930874458584327,-2.0724183999737886,3.9249999999956344
0.261,0.9134,-0.3263,0.0195,0.1375,-0.1065,0.4725,-2.2662,-5.8625,-19.734911343979164,14.944045140823366,-2.1064113999724694,3.9399999999950523
0.2592,0.9124,-0.3272,0.0188,0.1366,-0.1104,1.19,-2.2662,-5.8625,-19.73142433835103,14.94679482306983,-2.1064113999724694,3.9399999999950523
0.2583,0.9107,-0.3286,0.0188,0.1366,-0.1104,0.8487,-1.8813,-5.285,-19.782596573508084,14.944043756432245,-2.136512199978602,3.955999999998312
0.2583,0.9107,-0.3243,0.019,0.139,-0.1035,0.595,-1.4525,-4.865,-19.712354941037454,14.951319891067874,-2.136512199978602,3.955999999998312
0.2581,0.9105,-0.3243,0.019,0.139,-0.1035,0.595,-1.4525,-4.865,-19.670789526837737,14.951292562238915,-2.1582996999777566,3.97099999999773
0.255,0.9076,-0.331,0.0195,0.1365,-0.0989,0.6388,-1.1725,-4.865,-19.81809146223568,14.87381831193676,-2.1582996999777566,3.97099999999773
0.2538,0.9114,-0.3306,0.0195,0.1365,-0.0989,0.8925,-1.6625,-4.7863,-19.87561834305164,14.773711108315668,-2.1848996999710795,3.9869999999937136
0.2536,0.9141,-0.3289,0.0195,0.1365,-0.0989,1.0412,-0.9975,-4.9525,-19.830783447135712,14.710145842425543,-2.1848996999710795,3.9869999999937136
0.2539,0.9136,-0.3243,0.0188,0.1398,-0.1074,1.0412,-0.9975,-4.9525,-19.6817905822551,14.695077173940355,-2.200859699974331,4.002999999996973
0.2539,0.9136,-0.3243,0.0188,0.1398,-0.1074,0.6562,-1.645,-5.0575,-19.62520676590224,14.687345824552713,-2.225534699973373,4.017999999996391
0.2553,0.9146,-0.329,0.0192,0.1374,-0.0985,0.5075,-1.4438,-4.4538,-19.681269936303895,14.704054908040831,-2.22697849997892,4.019000000000233
0.2519,0.9164,-0.3322,0.0192,0.1374,-0.0985,0.3675,-2.2225,-4.5062,-19.751420575925287,14.58518685805646,-2.22697849997892,4.019000000000233
0.2552,0.9195,-0.3294,0.0192,0.1374,-0.0985,0.3675,-2.2225,-4.5062,-19.739386472504304,14.61724004288237,-2.2625384999699936,4.0349999999962165
0.2541,0.9157,-0.3318,0.0194,0.1366,-0.1031,0.2537,-2.5725,-4.515,-19.77931144756336,14.619963946507912,-2.2625384999699936,4.0349999999962165
0.2541,0.9157,-0.3336,0.0194,0.1366,-0.1031,0.0,-2.975,-4.8387,-19.787281635824158,14.61680695062173,-2.3071634999899078,4.05000000000291
0.2522,0.9126,-0.3336,0.0189,0.1366,-0.1054,0.1925,-2.7125,-4.9088,-19.841435265189816,14.586442656133496,-2.3505634999790135,4.065999999998894
0.2511,0.9135,-0.331,0.0189,0.1366,-0.1054,0.1925,-2.7125,-4.9088,-19.85553602777416,14.5424640386567,-2.3505634999790135,4.065999999998894
0.2505,0.9115,-0.3307,0.0189,0.1366,-0.1054,-0.1838,-2.87,-5.2587,-19.86665472801053,14.523641425457209,-2.3964834999674864,4.081999999994878
0.2544,0.9105,-0.3342,0.02,0.1386,-0.107,-0.245,-2.835,-5.1363,-19.916890210144704,14.589701900007357,-2.3964834999674864,4.081999999994878
0.2521,0.9124,-0.3365,0.02,0.1386,-0.107,-0.2625,-2.5725,-5.25,-19.977655910789533,14.57086716457186,-2.437643499975872,4.097999999998137
0.2521,0.9124,-0.3365,0.0202,0.1379,-0.1069,-0.2625,-2.5725,-5.25,-20.027145667342342,14.558309711543464,-2.4556509999701817,4.1049999999959255
0.2559,0.9142,-0.3323,0.0202,0.1379,-0.1069,0.3063,-2.4588,-5.5738,-20.014028796622032,14.585394082719224,-2.4556509999701817,4.1049999999959255
0.2574,0.9123,-0.3327,0.0202,0.1379,-0.1069,0.3675,-2.3888,-5.4513,-20.020340834917455,14.645283996958575,-2.4938717999779683,4.120999999999185
0.2569,0.9126,-0.335,0.0184,0.137,-0.1062,0.3675,-2.4413,-5.4513,-20.059631269349424,14.681472398180777,-2.4938717999779683,4.120999999999185
0.2558,0.9123,-0.3334,0.0184,0.137,-0.1062,0.1838,-2.4413,-5.4513,-20.062356036460656,14.698179187566582,-2.5304912999587845,4.135999999991327
0.2558,0.9123,-0.3318,0.0209,0.1382,-0.1062,0.1312,-2.38,-5.1013,-20.051512324295192,14.723326076662353,-2.5304912999587845,4.135999999991327
0.2567,0.9104,-0.3318,0.0209,0.1382,-0.1062,-0.07,-1.8813,-4.8038,-20.050591267193322,14.778999198945586,-2.560592099964917,4.151999999994587
0.2567,0.9077,-0.331,0.0004,0.1372,-0.1083,-0.07,-1.8813,-4.8038,-20.050051682767915,14.827662002810793,-2.560592099964917,4.151999999994587
0.2557,0.9069,-0.3331,0.02,0.1372,-0.1083,0.5863,-1.7587,-4.9262,-20.095250844373947,14.826064488848134,-2.5887312999706498,4.167999999997846
0.2557,0.908,-0.3326,0.02,0.1372,-0.1083,0.91,-0.8138,-5.04,-20.10618525103525,14.820023250830124,-2.5887312999706498,4.167999999997846
0.2565,0.9095,-0.332,0.0198,0.1387,-0.1127,0.6212,-1.0063,-4.6112,-20.085471540665978,14.829683776264472,-2.603825799970064,4.182999999997264
0.2565,0.9095,-0.332,0.0198,0.1387,-0.1127,0.6212,-1.0063,-4.6112,-20.07296217368644,14.834200816143811,-2.603825799970064,4.182999999997264
0.2605,0.9118,-0.3321,0.0217,0.1378,-0.1041,0.2887,-1.2862,-4.7863,-20.058278614001882,14.92861861131071,-2.6244049999742565,4.199000000000524
0.2614,0.9112,-0.3336,0.0217,0.1378,-0.1041,0.6825,-1.1812,-5.215,-20.079134170175504,14.980288383681936,-2.6244049999742565,4.199000000000524
0.2565,0.9079,-0.3343,0.0217,0.1378,-0.1041,0.56,-0.56,-5.1975,-20.129549607912022,14.933423865975405,-2.632804999969856,4.213999999992666
0.2607,0.9074,-0.3301,0.0198,0.1378,-0.1039,0.56,-0.56,-5.1975,-20.077775906283243,14.995984777201388,-2.632804999969856,4.213999999992666
0.2607,0.9074,-0.3301,0.0198,0.1378,-0.1039,0.385,-0.245,-5.2937,-20.052039154985252,15.031464942689135,-2.6367249999706543,4.2299999999959255
0.2603,0.9115,-0.3317,0.0197,0.1372,-0.1082,0.105,-0.0962,-4.6988,-20.045261740432895,15.026501005224596,-2.6367249999706543,4.2299999999959255
0.2575,0.9118,-0.3356,0.0197,0.1372,-0.1082,-0.035,-0.5863,-4.6988,-20.04531729147417,14.932803233447904,-2.6461057999725655,4.245999999999185
0.2555,0.9108,-0.3396,0.0197,0.1372,-0.1082,-0.035,-0.5863,-4.6988,-20.045455912605735,14.827262857524268,-2.6461057999725655,4.245999999999185
0.2553,0.9129,-0.3353,0.0192,0.1366,-0.1103,0.0613,-0.5775,-4.4887,-20.05617049729072,14.761256049391504,-2.6547682999722295,4.260999999998603
0.2549,0.9159,-0.3345,0.0192,0.1366,-0.1103,0.6037,-0.84,-4.5588,-20.058803701732565,14.700903186125,-2.6547682999722295,4.260999999998603
0.2549,0.9159,-0.3345,0.0182,0.1381,-0.1055,0.875,-0.6388,-4.5763,-20.060768616338734,14.673544638080157,-2.6649890999743118,4.277000000001863
0.2598,0.9146,-0.3367,0.0182,0.1381,-0.1055,0.875,-0.6388,-4.5763,-20.13215582203042,14.80995159308413,-2.6649890999743118,4.277000000001863
0.2564,0.9175,-0.3366,0.0182,0.1381,-0.1055,0.7088,-0.7613,-5.11,-20.138227666240027,14.767292716183817,-2.6764085999683296,4.291999999994005
0.2572,0.9155,-0.3334,0.0202,0.1376,-0.099,-0.1663,-1.2425,-5.1188,-20.12333851331656,14.775141680027966,-2.6764085999683296,4.291999999994005
0.2558,0.908,-0.3328,0.0202,0.1376,-0.099,-0.1663,-1.2425,-4.9262,-20.123983932099033,14.793615139154651,-2.69628859997238,4.307999999997264
0.2558,0.908,-0.3328,0.0198,0.1386,-0.1118,-0.5075,-1.1638,-4.9262,-20.125557920989106,14.803744881476755,-2.69628859997238,4.307999999997264
0.2516,0.9079,-0.3348,0.0198,0.1386,-0.1118,-0.5163,-0.805,-4.9612,-20.16344668318179,14.702719316589508,-2.709168599975004,4.324000000000524
0.2524,0.9096,-0.3336,0.0198,0.1386,-0.1121,-0.6913,-1.0063,-5.2937,-20.15444853801248,14.671142294589055,-2.709168599975004,4.324000000000524
0.2519,0.9066,-0.3317,0.0185,0.1384,-0.1121,-0.6913,-1.0063,-5.2937,-20.131353751287186,14.65649304152922,-2.724263099974418,4.338999999999942
0.2547,0.9062,-0.3325,0.0185,0.1384,-0.1121,-0.91,-1.8288,-5.845,-20.139560196430306,14.66733544907742,-2.724263099974418,4.338999999999942
0.2549,0.909,-0.3346,0.0197,0.1368,-0.1026,-0.7262,-2.0125,-5.4775,-20.167744544002144,14.683632131593587,-2.7564630999663353,4.3549999999959255
0.2549,0.909,-0.3346,0.0197,0.1368,-0.1026,-0.2975,-1.9075,-5.7838,-20.176227291327052,14.68559469186259,-2.7564630999663353,4.3549999999959255
0.2546,0.909,-0.3344,0.0193,0.138,-0.1046,-0.2975,-1.9075,-5.7838,-20.180633560328275,14.686981389649937,-2.788890599966002,4.371999999995751
0.2539,0.9077,-0.3315,0.0193,0.138,-0.1046,-0.2013,-1.8463,-5.8975,-20.163778845884075,14.691407415073712,-2.788890599966002,4.371999999995751
0.2552,0.9082,-0.331,0.0193,0.138,-0.1046,-0.6562,-1.8988,-5.495,-20.110443252750102,14.711250756476284,-2.8192713999721914,4.3879999999990105
0.2558,0.9093,-0.3343,0.0213,0.138,-0.0948,-0.4988,-1.8813,-5.3113,-20.134306951267362,14.735454447019492,-2.8192713999721914,4.3879999999990105
0.2558,0.9093,-0.3343,0.0213,0.138,-0.0948,-0.4988,-1.8813,-5.3113,-20.150605688630122,14.752279098008634,-2.849372199978324,4.40400000000227
0.2571,0.9098,-0.332,0.0202,0.1378,-0.1063,-0.4375,-1.8725,-5.4163,-20.1210846085088,14.781026800342403,-2.849372199978324,4.40400000000227
0.2592,0.9104,-0.3289,0.0202,0.1378,-0.1063,-0.4288,-1.8988,-5.1537,-20.048192816797272,14.859267399586571,-2.8778541999634033,4.418999999994412
0.262,0.9089,-0.3325,0.0202,0.1378,-0.1063,-0.0437,-1.3125,-4.7775,-20.04860226482335,15.001473987295638,-2.8778541999634033,4.418999999994412
0.2569,0.9063,-0.3355,0.0208,0.1381,-0.1175,-0.0437,-1.3125,-4.7775,-20.050979849666913,14.9448775852979,-2.8988541999676816,4.434999999997672
0.2568,0.9068,-0.3332,0.0208,0.1381,-0.1175,0.2713,-1.505,-5.2238,-20.080187805717856,14.924562250605566,-2.8988541999676816,4.434999999997672
0.2568,0.9068,-0.3332,0.019,0.1389,-0.1084,-0.0263,-1.505,-4.8125,-20.08097889725127,14.90587823896234,-2.9214291999668056,4.44999999999709
0.2585,0.9059,-0.3325,0.019,0.1389,-0.1084,-0.0263,-1.1638,-4.5675,-20.08159288005869,14.954800048581308,-2.9214291999668056,4.44999999999709
0.2614,0.9116,-0.3331,0.019,0.1389,-0.1084,-0.175,-1.1638,-4.5675,-20.080458903305466,15.019307581283789,-2.9400499999705993,4.466000000000349
0.2647,0.9154,-0.3315,0.0186,0.1374,-0.1067,-0.455,-0.735,-3.8763,-20.029179071303183,15.14374303163018,-2.9400499999705993,4.466000000000349
0.2654,0.9137,-0.3339,0.0186,0.1374,-0.1067,-0.2887,-0.665,-4.0775,-20.038296468224832,15.216575051429482,-2.950689999972767,4.482000000003609
0.2654,0.9137,-0.3339,0.0189,0.1374,-0.1083,-0.2887,-0.665,-4.0775,-20.04556686457588,15.243828616989571,-2.950689999972767,4.482000000003609
0.2588,0.9098,-0.331,0.0189,0.1374,-0.1083,-0.5075,-0.245,-4.3837,-20.028436350760234,15.08351357377086,-2.9543649999708417,4.496999999995751
0.2551,0.9057,-0.3378,0.0189,0.1374,-0.1067,-0.6562,-0.805,-4.4012,-20.19158178647532,14.911215365303578,-2.9543649999708417,4.496999999995751
0.2557,0.9054,-0.3369,0.0184,0.1373,-0.1067,0.105,-1.575,-4.8738,-20.218380409056234,14.871157729116968,-2.9795649999759757,4.5129999999990105
0.2588,0.9103,-0.3353,0.0184,0.1373,-0.1067,0.105,-1.575,-4.8738,-20.218673944751266,14.902121194735345,-3.003189999975059,4.527999999998428
0.2646,0.9118,-0.3313,0.0188,0.1382,-0.1079,0.4725,-0.945,-4.9088,-20.134481832238468,15.063911626905607,-3.003189999975059,4.527999999998428
0.2646,0.9118,-0.3313,0.0188,0.1382,-0.1079,0.4288,-0.9275,-4.8913,-20.08190932634183,15.15277316299599,-3.018029999971334,4.543999999994412
0.2633,0.9145,-0.3343,0.0186,0.1382,-0.105,0.105,-1.2075,-5.0312,-20.081691929008134,15.143984513840582,-3.018029999971334,4.543999999994412
0.2583,0.9127,-0.3341,0.0186,0.1382,-0.105,0.105,-1.2075,-5.0312,-20.084608614174563,15.034821701610253,-3.03734999997527,4.559999999997672
0.2585,0.9108,-0.3312,0.0186,0.1382,-0.105,-0.1488,-1.1463,-5.1537,-20.07420972963128,14.997441043990005,-3.03734999997527,4.559999999997672
0.258,0.9077,-0.3365,0.0188,0.1379,-0.108,-0.455,-1.0675,-4.7863,-20.153049466238233,14.960949373125965,-3.0533624999746487,4.57499999999709
0.258,0.9077,-0.3365,0.0188,0.1379,-0.108,-0.77,-1.2775,-4.9963,-20.232527165514213,14.944674817400456,-3.0533624999746487,4.57499999999709
0.2531,0.9091,-0.335,0.0185,0.1364,-0.107,-0.77,-1.2775,-4.9963,-20.23088685921847,14.813951210967637,-3.0738024999788127,4.591000000000349
0.2542,0.9099,-0.3304,0.0185,0.1364,-0.107,0.1488,-1.6625,-5.0575,-20.188400441363502,14.772815671233003,-3.0738024999788127,4.591000000000349
0.2566,0.9082,-0.3325,0.0185,0.1364,-0.107,-0.07,-1.8813,-5.705,-20.185659950328287,14.776521728899146,-3.1020219999640295,4.605999999992491
0.256,0.9079,-0.3342,0.02,0.1384,-0.1013,-0.3588,-1.8375,-5.9325,-20.191317891841873,14.783454762708828,-3.1020219999640295,4.605999999992491
0.256,0.9097,-0.332,0.02,0.1384,-0.1013,-0.3588,-1.8375,-5.9325,-20.156682633358063,14.787209242890048,-3.1314219999700192,4.621999999995751
0.2562,0.9097,-0.332,0.02,0.137,-0.107,-0.4638,-1.89,-6.02,-20.12459723020347,14.793933698840863,-3.1314219999700192,4.621999999995751
0.258,0.908,-0.3309,0.02,0.137,-0.107,-0.2713,-1.8025,-5.8625,-20.105178903970966,14.80946947865686,-3.1602619999758947,4.6379999999990105
0.2565,0.9069,-0.3348,0.02,0.137,-0.107,-0.2713,-1.8025,-6.0375,-20.135306451742817,14.820715929808287,-3.1602619999758947,4.6379999999990105
0.2574,0.9085,-0.3362,0.0208,0.1389,-0.0975,-0.1312,-2.2138,-6.0375,-20.15046920941419,14.83405388536354,-3.193468999974606,4.652999999998428
0.2574,0.9097,-0.3295,0.0208,0.1389,-0.0975,-0.3675,-1.9425,-6.09,-20.090607325670916,14.850212316668264,-3.193468999974606,4.652999999998428
0.2574,0.9097,-0.3295,0.0194,0.1386,-0.115,-0.63,-2.415,-6.125,-20.02349175544804,14.863172132257247,-3.232108999982478,4.669000000001688
0.2585,0.908,-0.3312,0.0194,0.1386,-0.115,-0.63,-2.415,-6.125,-20.02958916331336,14.893287726332822,-3.232108999982478,4.669000000001688
0.2592,0.9057,-0.3315,0.0194,0.1386,-0.115,-0.9975,-2.3888,-5.915,-20.06579384453724,14.91448505024448,-3.267940999963707,4.68399999999383
0.2575,0.9071,-0.332,0.0201,0.1378,-0.1053,-1.015,-1.75,-6.16,-20.084065631027705,14.918024777510011,-3.267940999963707,4.68399999999383
0.2582,0.9102,-0.335,0.0201,0.1378,-0.1053,-0.7262,-1.785,-6.1775,-20.133992025582444,14.914805197076628,-3.2965009999695254,4.69999999999709
0.2582,0.9093,-0.3323,0.0185,0.1371,-0.1082,-0.7262,-1.785,-6.1775,-20.10972175334924,14.920369674381966,-3.2965009999695254,4.69999999999709
0.2583,0.9093,-0.3323,0.0185,0.1371,-0.1082,-0.2975,-1.6363,-5.8975,-20.1024170397547,14.922754165142875,-3.322681799974859,4.716000000000349
0.2566,0.911,-0.3367,0.0195,0.1386,-0.1038,-0.2537,-1.7587,-6.23,-20.135045255334415,14.882755630838956,-3.322681799974859,4.716000000000349
0.2561,0.9112,-0.3381,0.0195,0.1386,-0.1038,0.3063,-1.5137,-6.1163,-20.19156410902971,14.850394745894507,-3.3453872999739778,4.730999999999767
0.2542,0.9116,-0.3324,0.0195,0.1386,-0.1038,0.3063,-1.5137,-6.1163,-20.1513882733258,14.804784070794378,-3.3453872999739778,4.730999999999767
0.2552,0.9109,-0.3324,0.0203,0.1387,-0.1067,-0.3675,-1.3212,-6.2213,-20.12550096027228,14.785664499063737,-3.3665264999782845,4.747000000003027
0.2552,0.9109,-0.3324,0.0203,0.1387,-0.1067,-0.4375,-1.8725,-6.1687,-20.103166587335387,14.773692374709345,-3.3665264999782845,4.747000000003027
0.256,0.9124,-0.3337,0.0209,0.1377,-0.1078,-0.4288,-1.8813,-5.9588,-20.099280924539027,14.771723985303721,-3.3947459999635012,4.761999999995169
0.2558,0.9129,-0.3326,0.0209,0.1377,-0.1078,-0.4288,-1.8813,-5.9588,-20.076407357720857,14.767957563961897,-3.3947459999635012,4.761999999995169
0.2571,0.9155,-0.3301,0.0209,0.1377,-0.1078,-0.6825,-1.5838,-5.9325,-19.97862152200449,14.772659803378918,-3.4200867999686637,4.777999999998428
0.2567,0.9128,-0.3314,0.0217,0.1391,-0.1201,-0.3588,-1.4175,-5.9062,-19.972562437921034,14.777288027757331,-3.4200867999686637,4.777999999998428
0.2567,0.9134,-0.3352,0.0217,0.1391,-0.1201,-0.735,-1.3913,-6.2913,-20.046532775153217,14.77814725217617,-3.442347599973199,4.794000000001688
0.2551,0.9134,-0.3352,0.021,0.1374,-0.1078,-0.735,-1.3913,-6.2913,-20.09003593523858,14.747751311383105,-3.442347599973199,4.794000000001688
0.257,0.9118,-0.3329,0.021,0.1374,-0.1078,-0.8225,-1.5313,-6.3175,-20.075583357062964,14.777411488107857,-3.4653170999723075,4.809000000001106
0.2541,0.9093,-0.3296,0.021,0.1374,-0.1078,-0.595,-2.1175,-6.3525,-20.021290031127435,14.755838954791097,-3.4653170999723075,4.809000000001106
0.2548,0.9065,-0.3345,0.0221,0.1388,-0.107,-0.595,-2.1175,-6.3875,-20.104911637647266,14.762384566031605,-3.499197099963803,4.82499999999709
0.2529,0.9052,-0.3346,0.0221,0.1388,-0.107,-0.2625,-2.3012,-6.3875,-20.13859553743307,14.732055640206209,-3.5337150999624636,4.8399999999965075
0.2529,0.9052,-0.3346,0.0207,0.1398,-0.0999,-0.3762,-1.9338,-6.16,-20.17623353495054,14.718221581154843,-3.5337150999624636,4.8399999999965075
0.2571,0.9086,-0.3314,0.0207,0.1398,-0.0999,-0.2275,-1.7062,-6.2562,-20.15401204173005,14.774880870825811,-3.561014299968025,4.855999999999767
0.2548,0.9103,-0.334,0.0207,0.1398,-0.0999,-0.2275,-1.7062,-6.2562,-20.153152207508917,14.757508898322316,-3.561014299968025,4.855999999999767
0.2562,0.9085,-0.3337,0.0223,0.1384,-0.1022,-0.1138,-1.5662,-5.7663,-20.154294348531504,14.758627410202681,-3.586073499961735,4.871999999995751
0.2557,0.906,-0.3375,0.0223,0.1384,-0.1022,0.525,-1.3038,-5.7312,-20.253655556007693,14.759645312784345,-3.586073499961735,4.871999999995751
0.2557,0.9116,-0.3365,0.0215,0.1366,-0.1077,0.6037,-0.7788,-5.8362,-20.25639123843636,14.758294085569005,-3.5977554999612815,4.886999999995169
0.2566,0.9116,-0.3365,0.0215,0.1366,-0.1077,0.6037,-0.7788,-5.8362,-20.258061011323733,14.760992773854,-3.5977554999612815,4.886999999995169
0.2561,0.9137,-0.3328,0.0224,0.1389,-0.1033,0.4112,-0.385,-5.0838,-20.182587630033016,14.758421722542835,-3.6039154999625365,4.902999999998428
0.2528,0.9121,-0.3328,0.0224,0.1389,-0.1033,0.5863,-0.28,-5.0838,-20.130119588066655,14.692760583767278,-3.6039154999625365,4.902999999998428
0.2496,0.9112,-0.3347,0.0224,0.1389,-0.1033,0.3413,-0.2537,-5.8975,-20.140793126235188,14.657666300822235,-3.607720999962389,4.917999999997846
0.2496,0.9133,-0.3372,0.0205,0.1394,-0.1063,0.3413,-0.2537,-5.8975,-20.17464257329728,14.621910021021904,-3.607720999962389,4.917999999997846
0.2496,0.9133,-0.3372,0.0205,0.1394,-0.1063,-0.5075,-0.2537,-5.915,-20.20354775416476,14.587582726867296,-3.6117801999632158,4.934000000001106
0.2532,0.9154,-0.3351,0.0209,0.139,-0.1132,-0.105,-0.455,-5.7137,-20.19714577893034,14.586635494265705,-3.6117801999632158,4.934000000001106
0.2481,0.9152,-0.335,0.0209,0.139,-0.1132,-0.0962,-0.7437,-6.09,-20.191783682290293,14.509424453346481,-3.623679399960229,4.94999999999709
0.2439,0.9173,-0.339,0.0209,0.139,-0.1132,-0.0962,-0.7437,-6.09,-20.197039544544307,14.381156563775098,-3.623679399960229,4.94999999999709
0.2445,0.9178,-0.3363,0.0215,0.139,-0.0992,-0.3325,-0.7262,-5.985,-20.18023840227837,14.316881455646,-3.6345723999598065,4.9649999999965075
0.2445,0.9178,-0.3379,0.0215,0.139,-0.0992,0.0175,-1.3737,-5.985,-20.181804910564065,14.263393479493296,-3.6345723999598065,4.9649999999965075
0.2441,0.9149,-0.3379,0.0211,0.1406,-0.1079,0.0175,-3.6137,-6.1337,-20.18621148116436,14.204591748399222,-3.692391599971586,4.980999999999767
0.2473,0.9171,-0.3417,0.0211,0.1406,-0.1079,-0.4288,-2.5375,-6.1337,-20.25648101174698,14.198033362820544,-3.692391599971586,4.980999999999767
0.2494,0.9195,-0.3345,0.0211,0.1406,-0.1079,-0.0175,-2.485,-6.1687,-20.251996677024668,14.228058329894257,-3.7296665999701393,4.995999999999185
0.2506,0.9205,-0.3366,0.0228,0.1388,-0.1012,-0.1575,-2.6862,-6.2562,-20.233835044684884,14.266491334633642,-3.7296665999701393,4.995999999999185
0.2536,0.9197,-0.3358,0.0228,0.1388,-0.1012,-0.1575,-2.6862,-6.2562,-20.214609045223998,14.352190188846132,-3.7726457999788954,5.012000000002445
0.2536,0.9197,-0.3358,0.0218,0.138,-0.113,-0.4638,-2.1,-6.3612,-20.167612922307068,14.416405534391558,-3.7726457999788954,5.012000000002445
0.2545,0.916,-0.3364,0.0218,0.138,-0.113,-1.3212,-1.9075,-6.4925,-20.166539045425036,14.502104940046156,-3.8069807999720116,5.029999999998836
0.2523,0.9128,-0.3333,0.0218,0.138,-0.113,-1.3125,-1.47,-6.3875,-20.106307234022005,14.522562832174732,-3.8069807999720116,5.029999999998836
0.2508,0.9103,-0.3341,0.0223,0.1388,-0.1106,-1.3125,-1.47,-6.3875,-20.133197329784853,14.51431885163556,-3.829030799971156,5.044999999998254
0.2525,0.9099,-0.3335,0.0223,0.1388,-0.1106,-0.8313,-1.19,-6.6937,-20.131374878931727,14.55781134332583,-3.829030799971156,5.044999999998254
0.2525,0.9099,-0.3352,0.0208,0.1386,-0.1018,-0.6825,-1.0237,-6.5538,-20.167554373943574,14.574580314215007,-3.8454099999744926,5.061000000001513
0.2504,0.9076,-0.3352,0.0208,0.1386,-0.1018,-0.1838,-0.2537,-6.44,-20.180913253707125,14.548253686003193,-3.8454099999744926,5.061000000001513
0.2533,0.9068,-0.3344,0.023,0.1394,-0.1041,-0.1838,-0.2537,-6.44,-20.18889679059768,14.604444145481102,-3.849215499972499,5.075999999993655
0.2547,0.9064,-0.3295,0.023,0.1394,-0.1041,0.0437,0.0263,-6.3088,-20.173537874569785,14.67228232041988,-3.849215499972499,5.075999999993655
0.2571,0.9072,-0.3314,0.023,0.1394,-0.1041,0.0875,0.2187,-5.8625,-20.161966440329905,14.69595407885868,-3.845716299971786,5.091999999996915
0.2566,0.9052,-0.3304,0.0239,0.1398,-0.1043,0.63,1.0237,-5.6,-20.11813696035474,14.724014758573642,-3.845716299971786,5.091999999996915
0.2566,0.9052,-0.3304,0.0239,0.1398,-0.1043,0.63,1.0237,-5.6,-20.091807508518947,14.748417789933262,-3.8293370999684493,5.108000000000175
0.2516,0.9059,-0.3315,0.0233,0.1383,-0.1074,1.2513,1.4438,-5.1188,-20.09602948683476,14.698048061156976,-3.8293370999684493,5.108000000000175
0.2492,0.9077,-0.3322,0.0233,0.1383,-0.1074,1.3388,1.7675,-4.9875,-20.09926032790182,14.593756837313657,-3.8028245999694783,5.1229999999995925
0.2496,0.9129,-0.3351,0.0233,0.1383,-0.1074,1.6975,2.1962,-4.7688,-20.13572128479568,14.495468778951164,-3.8028245999694783,5.1229999999995925
0.251,0.9163,-0.3339,0.0222,0.1384,-0.1066,1.6975,2.1962,-4.7688,-20.063468444901368,14.464583586896781,-3.7676853999623194,5.139000000002852
0.251,0.9163,-0.3304,0.0222,0.1384,-0.1066,2.2662,1.75,-5.3375,-19.899558622080303,14.460336428573815,-3.7676853999623194,5.139000000002852
0.2486,0.9158,-0.3304,0.0238,0.139,-0.1087,1.68,1.575,-5.2587,-19.860866624932203,14.41549680927396,-3.7440603999746958,5.153999999994994
0.2488,0.9122,-0.3334,0.0238,0.139,-0.1087,1.68,1.575,-4.655,-19.997290445057086,14.391011524764146,-3.7440603999746958,5.153999999994994
0.2474,0.9152,-0.3381,0.0238,0.139,-0.1087,1.6363,2.1875,-4.655,-20.17141008840961,14.306216323034656,-3.7090603999675653,5.169999999998254
0.2492,0.9214,-0.3335,0.0226,0.1395,-0.1034,1.7325,2.1263,-4.515,-19.99660297483125,14.285399406817866,-3.7090603999675653,5.169999999998254
0.2514,0.9221,-0.3344,0.0226,0.1395,-0.1034,1.54,2.0038,-4.1125,-19.95782602569815,14.341482421067335,-3.676999599975613,5.185999999994237
0.2514,0.9221,-0.3344,0.0234,0.1402,-0.1079,1.54,2.0038,-4.1125,-19.942765004290592,14.362747050330587,-3.676999599975613,5.185999999994237
0.2449,0.9176,-0.3365,0.0234,0.1402,-0.1079,0.91,2.3712,-4.0425,-20.038027928042816,14.176370690869025,-3.6414315999597404,5.201000000000931
0.2404,0.9148,-0.337,0.0234,0.1402,-0.1079,0.4462,1.6625,-4.2787,-20.09812941039479,13.983375350111572,-3.6414315999597404,5.201000000000931
0.2436,0.9137,-0.3363,0.0222,0.1407,-0.1077,0.0787,0.735,-3.8325,-20.109197789418822,14.0251753704391,-3.629671599957345,5.217000000004191
0.2442,0.9133,-0.335,0.0222,0.1407,-0.1077,0.0787,0.735,-3.8325,-20.112651922864853,14.068863399601305,-3.629671599957345,5.217000000004191
0.2442,0.9133,-0.3352,0.0209,0.1387,-0.1084,0.0263,0.0962,-4.13,-20.115037970975898,14.082359180548703,-3.6282285999581005,5.231999999996333
0.2494,0.9152,-0.3352,0.0209,0.1387,-0.1084,-0.0787,-0.2887,-3.6925,-20.115065823428306,14.264608544853516,-3.6282285999581005,5.231999999996333
0.2492,0.9167,-0.3356,0.0198,0.1379,-0.1051,0.0437,-0.0962,-3.3863,-20.114513533311353,14.303796661231669,-3.629767799958414,5.2479999999995925
0.2511,0.9177,-0.3369,0.0198,0.1379,-0.1051,0.0437,-0.0962,-3.3863,-20.11773618392046,14.375204644590946,-3.6313069999580274,5.263999999995576
0.2532,0.9157,-0.3329,0.0198,0.1379,-0.1051,-0.7,-0.5337,-3.4388,-20.06214197183444,14.509223854309875,-3.6313069999580274,5.263999999995576
0.2512,0.9148,-0.3309,0.0206,0.1395,-0.1049,-0.2537,-0.3325,-3.465,-20.03049009463258,14.48802096765506,-3.636294499960253,5.27900000000227
0.2512,0.9148,-0.3309,0.0206,0.1395,-0.1049,-0.56,-0.5337,-3.6225,-19.980722793582608,14.481708554894666,-3.636294499960253,5.27900000000227
0.2529,0.9137,-0.3326,0.0205,0.139,-0.1083,-0.56,-0.5337,-3.6225,-19.9881324468525,14.547948026291662,-3.6448336999581095,5.294999999998254
0.2517,0.909,-0.3319,0.0205,0.139,-0.1083,-1.3475,-0.7437,-3.22,-20.02806302819092,14.57069473791355,-3.6448336999581095,5.294999999998254
0.2525,0.9073,-0.3379,0.0205,0.139,-0.1083,-1.1113,-1.5137,-3.5263,-20.23464558721066,14.602696599643577,-3.667539199957228,5.309999999997672
0.2522,0.906,-0.3355,0.021,0.1394,-0.1091,-1.1113,-1.4525,-3.6312,-20.27892238941726,14.621365914711625,-3.667539199957228,5.309999999997672
0.2522,0.906,-0.3355,0.021,0.1394,-0.1091,-0.0613,-1.4525,-3.6312,-20.279989682450424,14.627352192603766,-3.690779199961963,5.326000000000931
0.2519,0.9052,-0.3361,0.0205,0.1392,-0.1103,-0.5163,-0.9887,-3.8063,-20.309223416618526,14.623398336205192,-3.690779199961963,5.326000000000931
0.2556,0.9069,-0.335,0.0205,0.1392,-0.1103,-0.4112,-0.9187,-3.8063,-20.299516454480965,14.745920210535644,-3.7054783999582734,5.341999999996915
0.2596,0.9076,-0.3339,0.0205,0.1392,-0.1103,-0.4112,-0.9187,-3.8063,-20.27181106194122,14.930982464832375,-3.7054783999582734,5.341999999996915
0.2585,0.9068,-0.3374,0.0207,0.1398,-0.1032,0.315,-0.9538,-4.2088,-20.30738074795781,14.94769116202943,-3.7197853999577184,5.356999999996333
0.2594,0.9087,-0.3373,0.0207,0.1398,-0.1032,0.175,-0.6737,-4.5325,-20.317263725671623,14.96677264809794,-3.7197853999577184,5.356999999996333
0.2594,0.9087,-0.3373,0.0179,0.139,-0.1118,0.0263,-0.5863,-4.7512,-20.319972043368367,14.97460457133379,-3.7291661999596295,5.3729999999995925
0.2588,0.9089,-0.3361,0.0179,0.139,-0.1118,0.0263,-0.5863,-4.7512,-20.318466724120906,14.963671904104704,-3.7291661999596295,5.3729999999995925
0.264,0.9093,-0.3343,0.0179,0.139,-0.1118,0.4988,-0.5163,-4.4538,-20.272287505154342,15.121365109139688,-3.736910699959329,5.3879999999990105
0.258,0.9094,-0.3383,0.0194,0.1397,-0.1127,0.1838,-0.3588,-4.5588,-20.29614921935314,14.995837904234763,-3.736910699959329,5.3879999999990105
0.2582,0.9109,-0.3388,0.0194,0.1397,-0.1127,-0.595,-1.12,-4.5588,-20.334224045502207,14.931957267591839,-3.7548306999629797,5.40400000000227
0.2582,0.9109,-0.3388,0.0194,0.1387,-0.1092,-0.595,-1.12,-4.5588,-20.358625604484757,14.9028024713868,-3.7548306999629797,5.40400000000227
0.2584,0.9098,-0.3349,0.0194,0.1387,-0.1092,0.2975,-0.9712,-4.8038,-20.321270137387582,14.913270398827152,-3.770369899959079,5.419999999998254
0.2571,0.9084,-0.3349,0.0194,0.1394,-0.1028,0.07,-0.5863,-4.795,-20.31332676363816,14.893032518353591,-3.770369899959079,5.419999999998254
0.2563,0.9113,-0.3355,0.0204,0.1394,-0.1028,0.0525,-0.9538,-4.7863,-20.30515988059287,14.839943902412532,-3.784676899958524,5.434999999997672
0.2577,0.9116,-0.3359,0.0204,0.1394,-0.1028,0.0525,-0.9538,-4.7863,-20.298932438977648,14.847777200360635,-3.784676899958524,5.434999999997672
0.2575,0.91,-0.3343,0.0194,0.1385,-0.1146,0.4725,-0.5775,-4.865,-20.256033395795907,14.860531941693317,-3.7939168999562045,5.450999999993655
0.2575,0.91,-0.3343,0.0194,0.1385,-0.1146,0.105,-1.1113,-5.0487,-20.245667857617562,14.866473028451194,-3.7939168999562045,5.450999999993655
0.2594,0.9096,-0.3387,0.0178,0.1373,-0.1109,0.2362,-0.8138,-4.7337,-20.283546062930654,14.91503163950042,-3.806123899961652,5.466000000000349
0.2583,0.9108,-0.3369,0.0178,0.1373,-0.1109,0.2362,-0.8138,-4.7337,-20.286874192772558,14.904875860870629,-3.806123899961652,5.466000000000349
0.2583,0.9129,-0.3383,0.0178,0.1373,-0.1109,-0.0962,-0.7788,-4.83,-20.28958091503536,14.882885113654238,-3.8185846999641906,5.482000000003609
0.2605,0.9105,-0.335,0.0183,0.1388,-0.1021,-0.3413,-0.84,-5.355,-20.26857398431009,14.92450849984976,-3.8185846999641906,5.482000000003609
0.2605,0.9105,-0.335,0.0183,0.1388,-0.1021,-0.3413,-0.84,-5.1712,-20.252496972725247,14.963146399858061,-3.832024699960817,5.4979999999995925
0.2607,0.9094,-0.3389,0.0182,0.1393,-0.1102,-0.9013,-1.0325,-5.1712,-20.338890499760037,14.989908966947992,-3.832024699960817,5.4979999999995925
0.2595,0.908,-0.3381,0.0182,0.1393,-0.1102,-0.63,-0.9538,-5.25,-20.37033725120808,14.991118168354282,-3.846331699960262,5.5129999999990105
0.2596,0.9089,-0.3333,0.0182,0.1393,-0.1102,-0.595,-0.8225,-4.9262,-20.28702371901356,15.000179224877261,-3.846331699960262,5.5129999999990105
0.2599,0.9052,-0.3357,0.0193,0.14,-0.1018,-0.595,-0.8225,-4.9262,-20.308800958814846,15.030353083927443,-3.8594916999569584,5.528999999994994
0.2567,0.9066,-0.3386,0.0193,0.14,-0.1018,-0.455,-0.9013,-4.4187,-20.35941403506673,14.930560457121654,-3.8594916999569584,5.528999999994994
0.2567,0.9066,-0.3386,0.0192,0.1387,-0.11,-0.6125,-0.77,-4.83,-20.403510566234285,14.894641943126624,-3.8710416999621127,5.544000000001688
0.2577,0.9069,-0.3348,0.0192,0.1387,-0.11,-0.2275,-0.875,-4.9175,-20.380732853018802,14.908996576933083,-3.8710416999621127,5.544000000001688
0.259,0.9078,-0.331,0.0192,0.1387,-0.11,-0.2275,-0.875,-4.9175,-20.324475948093426,14.952621373138921,-3.885041699964965,5.560000000004948
0.2572,0.9059,-0.336,0.0192,0.1386,-0.115,-0.28,-0.63,-5.1625,-20.329486928064213,14.935463325931186,-3.885041699964965,5.560000000004948
0.2591,0.9062,-0.3365,0.0192,0.1386,-0.115,-0.2013,-0.2713,-4.5763,-20.335490084006814,14.972827305040495,-3.889382499961901,5.575999999993655
0.2591,0.9062,-0.3365,0.0172,0.139,-0.1126,0.0525,-0.6825,-4.97,-20.33837807188923,14.986777400996045,-3.889382499961901,5.575999999993655
0.2564,0.9063,-0.337,0.0172,0.139,-0.1126,0.0525,-0.6825,-4.97,-20.343095831471132,14.927424337287617,-3.8996199999664696,5.591000000000349
0.26,0.9081,-0.334,0.0172,0.139,-0.1126,-0.245,-0.6913,-4.725,-20.317109542750323,14.984820418088434,-3.8996199999664696,5.591000000000349
0.2576,0.9088,-0.3334,0.0168,0.1385,-0.1079,-0.2713,-0.945,-4.6375,-20.28435373341208,14.940979955725277,-3.914739999962674,5.606999999996333
0.2568,0.9101,-0.337,0.0168,0.1385,-0.1079,-0.07,-0.5425,-4.8562,-20.28553769337983,14.884485191728576,-3.9228774999623583,5.621999999995751
0.2568,0.909,-0.3353,0.0198,0.1379,-0.1038,-0.07,-0.5425,-4.8562,-20.284233985187832,14.865838931613274,-3.9228774999623583,5.621999999995751
0.2567,0.909,-0.3353,0.0198,0.1379,-0.1038,-0.1225,-0.7525,-5.0662,-20.28125539895061,14.855122842090271,-3.9349174999648113,5.6379999999990105
0.259,0.911,-0.3345,0.0166,0.1392,-0.1061,0.1838,-0.7088,-4.8212,-20.259904854743468,14.897382475035908,-3.9349174999648113,5.6379999999990105
0.2569,0.9112,-0.3335,0.0166,0.1392,-0.1061,0.1838,-0.9887,-4.9175,-20.231714369976604,14.86648734466452,-3.9507366999608404,5.653999999994994
0.2558,0.9101,-0.3315,0.0166,0.1392,-0.1061,0.1138,-0.9887,-4.9175,-20.203562946321714,14.83343204674478,-3.9507366999608404,5.653999999994994
0.2558,0.9098,-0.334,0.0184,0.14,-0.111,-0.3675,-1.015,-4.795,-20.19240336170353,14.809922037415639,-3.9659616999676346,5.669000000001688
0.2558,0.9098,-0.334,0.0184,0.14,-0.111,-0.175,-1.3388,-5.005,-20.18827701927413,14.799411518700268,-3.9659616999676346,5.669000000001688
0.2605,0.9099,-0.3335,0.0179,0.1381,-0.1112,-0.175,-1.3388,-5.005,-20.180992433761727,14.904640906091139,-3.9873824999622576,5.684999999997672
0.2598,0.9096,-0.3357,0.0179,0.1381,-0.1112,-0.6388,-1.4963,-5.0225,-20.209713711823127,14.944898069165781,-3.9873824999622576,5.684999999997672
0.2576,0.9101,-0.3341,0.0179,0.1381,-0.1112,-0.9363,-1.1287,-5.1712,-20.185342695446057,14.92114588583101,-4.0043129999616,5.69999999999709
0.2543,0.9091,-0.3371,0.0175,0.1401,-0.1172,-0.8487,-1.0762,-5.1363,-20.257031863386768,14.835656002683965,-4.0043129999616,5.69999999999709
0.2543,0.9085,-0.3374,0.0175,0.1401,-0.1172,-0.8487,-1.0762,-5.1363,-20.309547712199095,14.785202103540144,-4.021532199957278,5.715999999993073
0.2558,0.9085,-0.3374,0.0188,0.1401,-0.1102,-1.0325,-1.75,-5.355,-20.34176905136112,14.78540281827746,-4.021532199957278,5.715999999993073
0.2541,0.9104,-0.34,0.0188,0.1401,-0.1102,-0.4462,-1.8463,-5.6875,-20.381709653044254,14.777629424034785,-4.051072999963297,5.731999999996333
0.2583,0.9114,-0.3338,0.0188,0.1401,-0.1102,-0.2887,-2.0213,-5.8975,-20.32772883617824,14.793668943660293,-4.051072999963297,5.731999999996333
0.2605,0.9123,-0.334,0.0189,0.1395,-0.1158,-0.2887,-2.0213,-5.8975,-20.28322924775997,14.821500636732367,-4.081392499976827,5.747000000003027
0.2605,0.9145,-0.3346,0.0189,0.1395,-0.1158,-0.3413,-1.9688,-6.0988,-20.2394576599008,14.861617815924577,-4.081392499976827,5.747000000003027
0.2605,0.9145,-0.3346,0.0196,0.1394,-0.1163,-0.3413,-1.8288,-6.1775,-20.205958414613505,14.896056978029929,-4.110653299969482,5.7629999999990105
0.2574,0.9137,-0.3339,0.0196,0.1394,-0.1163,-0.3413,-1.6013,-6.125,-20.175033871185924,14.875493382603537,-4.110653299969482,5.7629999999990105
0.2558,0.9103,-0.3328,0.0196,0.1394,-0.1163,-0.3413,-1.6013,-6.125,-20.15322336308562,14.850664470076012,-4.13467279996855,5.777999999998428
0.2576,0.9077,-0.3339,0.019,0.1394,-0.1025,-1.0762,-1.505,-6.1425,-20.175142603753404,14.86858547311674,-4.13467279996855,5.777999999998428
0.2567,0.9082,-0.3365,0.019,0.1394,-0.1025,-1.0762,-1.5488,-6.5712,-20.254314247859863,14.857653940579016,-4.15945359996233,5.793999999994412
0.2567,0.9084,-0.3354,0.019,0.1386,-0.1085,-0.7175,-1.5225,-6.3088,-20.2587252924418,14.853901204743226,-4.15945359996233,5.793999999994412
0.2573,0.9084,-0.3354,0.019,0.1386,-0.1085,-0.7175,-1.5225,-6.3088,-20.261346476925887,14.863384627458887,-4.1838135999672925,5.809999999997672
0.2567,0.9111,-0.332,0.0196,0.1393,-0.1133,-0.7437,-1.3737,-6.1687,-20.1618277880541,14.852710277071251,-4.1838135999672925,5.809999999997672
0.2577,0.9079,-0.3348,0.0196,0.1393,-0.1133,-0.805,-1.0938,-6.65,-20.196762578049515,14.880993546647495,-4.200220599974615,5.825000000004366
0.2561,0.9099,-0.3373,0.0196,0.1393,-0.1133,-0.805,-1.0938,-6.4313,-20.258980579098242,14.84162652501219,-4.200220599974615,5.825000000004366
0.2567,0.9079,-0.3353,0.0201,0.1385,-0.1127,-0.91,-1.2337,-6.4313,-20.26406989321888,14.846872900968513,-4.21995979996966,5.841000000000349
0.2567,0.9079,-0.3353,0.0201,0.1385,-0.1127,-0.5163,-1.4875,-6.3175,-20.265959897490188,14.849660704557365,-4.21995979996966,5.841000000000349
0.2586,0.9091,-0.3318,0.0195,0.1391,-0.1091,-0.1138,-1.1812,-6.055,-20.25018649156155,14.875640057546539,-4.2376777999689725,5.855999999999767
0.2583,0.9074,-0.3342,0.0195,0.1391,-0.1091,-0.1138,-1.1812,-6.055,-20.24789979623097,14.894327165454525,-4.2376777999689725,5.855999999999767
0.2541,0.9082,-0.333,0.0195,0.1391,-0.1091,-0.21,-0.84,-5.7312,-20.231195954362644,14.891095355892526,-4.2511177999655985,5.871999999995751
0.2556,0.9103,-0.3361,0.0198,0.1402,-0.105,-0.2187,-0.6212,-5.3288,-20.23646603942436,14.851317028024946,-4.2511177999655985,5.871999999995751
0.2556,0.9135,-0.3362,0.0198,0.1402,-0.105,-0.2013,-0.875,-5.39,-20.232026099687605,14.81466168046307,-4.265117799968451,5.8879999999990105
0.2539,0.9135,-0.3362,0.0192,0.1407,-0.1108,-0.2013,-0.875,-5.39,-20.228220363116073,14.7629230754729,-4.265117799968451,5.8879999999990105
0.2546,0.9107,-0.3373,0.0192,0.1407,-0.1108,0.0787,-0.6562,-5.0838,-20.23790511657751,14.733833245640618,-4.274960799968069,5.902999999998428
0.2528,0.9144,-0.3346,0.0192,0.1407,-0.1108,-0.1838,-0.7875,-4.6375,-20.219842712912353,14.639298457568481,-4.274960799968069,5.902999999998428
0.251,0.9113,-0.3326,0.0198,0.1406,-0.1114,-0.0088,-0.8225,-4.9963,-20.2155801621767,14.582185391074468,-4.288120799964766,5.918999999994412
0.255,0.9128,-0.3366,0.0198,0.1406,-0.1114,-0.0088,-0.8225,-4.9963,-20.216239219544637,14.627336439046326,-4.300458299970272,5.934000000001106
0.255,0.9128,-0.3366,0.0201,0.1394,-0.1105,-0.0787,-1.3038,-4.7688,-20.2173145200071,14.657007912650943,-4.300458299970272,5.934000000001106
0.2574,0.9159,-0.3356,0.0201,0.1394,-0.1105,-0.0437,-1.2337,-4.8038,-20.216474737072918,14.71785656733576,-4.3201974999653165,5.94999999999709
0.2609,0.9154,-0.3302,0.0201,0.1394,-0.1105,-0.0437,-0.9275,-4.5937,-20.213057546421204,14.87355374331913,-4.3201974999653165,5.94999999999709
0.2554,0.9072,-0.3318,0.0194,0.139,-0.1081,-0.0437,-0.9275,-4.5937,-20.21195033180466,14.839435147371878,-4.335037499968339,5.966000000000349
0.2532,0.9055,-0.3382,0.0194,0.139,-0.1081,-0.0088,-0.5512,-4.9088,-20.21871703269284,14.766057592373492,-4.335037499968339,5.966000000000349
0.2532,0.9212,-0.3358,0.0193,0.1394,-0.1101,-0.0263,-0.245,-4.83,-20.21713692953322,14.628781588713466,-4.338712499966414,5.980999999992491
0.2489,0.9085,-0.3358,0.0193,0.1394,-0.1101,0.455,-0.8487,-4.6638,-20.239553398640947,14.515815305796691,-4.338712499966414,5.980999999992491
0.2556,0.9099,-0.3338,0.0202,0.1398,-0.1098,0.455,-0.8487,-4.6638,-20.208716224828628,14.650173901317627,-4.3522916999691805,5.996999999995751
0.2561,0.9145,-0.3354,0.0202,0.1398,-0.1098,-0.2625,-1.3825,-4.9963,-20.196132992081527,14.684798207570374,-4.3522916999691805,5.996999999995751
0.2586,0.9136,-0.3358,0.0202,0.1398,-0.1098,-0.49,-1.68,-4.5413,-20.19147742304425,14.790808616011976,-4.3774916999804265,6.012000000002445
0.2589,0.913,-0.3346,0.0195,0.1398,-0.112,-0.49,-1.68,-4.5413,-20.17132992811063,14.855656318191492,-4.3774916999804265,6.012000000002445
0.2589,0.913,-0.3346,0.0195,0.1398,-0.112,-0.1925,-1.5838,-4.83,-20.16529795404661,14.881364757565386,-4.402832499974066,6.027999999998428
0.2579,0.9119,-0.3351,0.0199,0.1383,-0.1127,-0.5425,-1.2163,-4.5237,-20.169270561348515,14.873369235385391,-4.402832499974066,6.027999999998428
0.2548,0.9123,-0.335,0.0199,0.1383,-0.1127,-0.3413,-1.05,-4.5413,-20.167898831880354,14.773568773207934,-4.419632499977489,6.044000000001688
0.2575,0.9123,-0.3318,0.0199,0.1383,-0.1127,-0.3413,-1.05,-4.5413,-20.125241692187792,14.81861083983852,-4.419632499977489,6.044000000001688
0.2561,0.9095,-0.335,0.02,0.1398,-0.1161,-0.0088,-0.91,-4.8038,-20.127642114943146,14.810026209910234,-4.434192499973834,6.059999999997672
0.2561,0.9095,-0.339,0.02,0.1398,-0.1161,-0.245,-1.26,-4.6112,-20.182282272709255,14.79440586777178,-4.434192499973834,6.059999999997672
0.2546,0.91,-0.339,0.018,0.1389,-0.1105,-0.2625,-1.155,-4.9088,-20.228573568476865,14.747206938953425,-4.452672499969196,6.075999999993655
0.255,0.9103,-0.3336,0.018,0.1389,-0.1105,-0.2625,-1.155,-4.9088,-20.209632532059228,14.742203243546394,-4.452672499969196,6.075999999993655
0.2573,0.9082,-0.3364,0.018,0.1389,-0.1105,-0.1575,-0.9712,-4.865,-20.222230227507705,14.80596129322149,-4.467240499975697,6.091000000000349
0.2562,0.9076,-0.3384,0.0198,0.1397,-0.1057,-0.595,-0.9275,-4.9612,-20.30332371105463,14.810055973202969,-4.467240499975697,6.091000000000349
0.2567,0.9099,-0.3339,0.0198,0.1397,-0.1057,-0.1225,-1.0675,-5.425,-20.291046809434967,14.815967160701982,-4.4843204999714095,6.106999999996333
0.2567,0.9099,-0.3339,0.0197,0.1394,-0.1082,-0.1225,-1.0675,-5.425,-20.279761274358552,14.820428821524628,-4.4843204999714095,6.106999999996333
0.2594,0.9068,-0.3338,0.0197,0.1394,-0.1082,-0.4638,-1.0762,-5.3288,-20.258526940388673,14.88157833048558,-4.501539699974917,6.1229999999995925
0.2581,0.9074,-0.3346,0.0197,0.1394,-0.1082,-0.1138,-0.98,-5.285,-20.25725941861189,14.900902408898263,-4.501539699974917,6.1229999999995925
0.2566,0.9084,-0.3403,0.019,0.1382,-0.1212,-0.1575,-0.49,-4.8038,-20.287830200874122,14.859955624131677,-4.508889699971067,6.1379999999917345
0.2574,0.9099,-0.3334,0.019,0.1382,-0.1212,-0.1575,-0.49,-4.8038,-20.269855685169283,14.867438435414615,-4.508889699971067,6.1379999999917345
0.2574,0.9099,-0.3317,0.0185,0.1385,-0.1098,-0.07,-0.6913,-4.83,-20.261636970844886,14.875332083133564,-4.51995049997332,6.153999999994994
0.2589,0.9098,-0.3317,0.0185,0.1385,-0.1098,-0.105,-0.7962,-4.9525,-20.2464877396526,14.916511469642751,-4.51995049997332,6.153999999994994
0.2596,0.909,-0.3368,0.019,0.1401,-0.1072,-0.105,-0.7962,-5.1537,-20.25201087248325,14.94466645650823,-4.53189349997865,6.169000000001688
0.2548,0.9097,-0.3351,0.019,0.1401,-0.1072,-0.1225,-1.19,-5.1537,-20.24958268508295,14.862942852295546,-4.53189349997865,6.169000000001688
0.257,0.9105,-0.3334,0.019,0.1401,-0.1072,-0.1488,-0.91,-4.725,-20.23541951012219,14.853863563042271,-4.546453499974995,6.184999999997672
0.2585,0.9113,-0.3354,0.0187,0.1393,-0.1137,-0.3762,-0.9712,-4.9612,-20.22790888646476,14.877133039367676,-4.546453499974995,6.184999999997672
0.2585,0.9113,-0.3354,0.0187,0.1393,-0.1137,-0.3762,-0.9712,-4.9612,-20.222310394236832,14.890142303897427,-4.561992699978161,6.201000000000931
0.2574,0.912,-0.3342,0.0199,0.1387,-0.1046,-0.2275,-1.1287,-4.83,-20.206615150259758,14.867293813331301,-4.561992699978161,6.201000000000931
0.261,0.911,-0.3339,0.0199,0.1387,-0.1046,-0.0613,-1.155,-4.7863,-20.204598534677057,14.95995523681669,-4.579317699969085,6.215999999993073
0.2599,0.9092,-0.3358,0.0199,0.1387,-0.1046,-0.1225,-0.5863,-4.97,-20.20995944434046,14.982230123139267,-4.579317699969085,6.215999999993073
0.2572,0.9102,-0.3332,0.0206,0.1406,-0.1087,-0.1225,-0.5863,-4.97,-20.201591626616796,14.929190356653077,-4.588698499970996,6.231999999996333
0.2572,0.9102,-0.3321,0.0206,0.1406,-0.1087,-0.6388,-1.2862,-5.1887,-20.142710876011343,14.906733188013824,-4.588698499970996,6.231999999996333
0.2578,0.9109,-0.3321,0.0191,0.1392,-0.1106,-0.455,-1.295,-4.865,-20.109671446069044,14.898970988557544,-4.608123499970242,6.246999999995751
0.2586,0.9078,-0.3327,0.0191,0.1392,-0.1106,-0.4288,-1.2513,-4.6725,-20.114683923103264,14.938018482881755,-4.608123499970242,6.246999999995751
0.2562,0.9116,-0.3342,0.0191,0.1392,-0.1106,-0.4288,-1.2513,-4.6725,-20.11996066939434,14.856978523124027,-4.628144299974321,6.2629999999990105
0.2577,0.9092,-0.3335,0.0179,0.1388,-0.1126,-0.2275,-1.2513,-4.6725,-20.123740244736414,14.87984348646808,-4.628144299974321,6.2629999999990105
0.2596,0.9105,-0.3337,0.0179,0.1388,-0.1126,0.1312,-1.0762,-4.5763,-20.12434374719384,14.937666729444736,-4.645363499977829,6.27900000000227
0.2596,0.9105,-0.3337,0.0176,0.139,-0.1099,-0.2275,-1.1375,-4.7688,-20.124932008572472,14.962066819048607,-4.645363499977829,6.27900000000227
0.2566,0.9093,-0.3374,0.0176,0.139,-0.1099,-0.2275,-1.1375,-4.7688,-20.162547890905667,14.89129328190741,-4.66242599996889,6.293999999994412
0.2564,0.909,-0.3299,0.0176,0.139,-0.1099,0.035,-0.7262,-4.6112,-20.148522201257535,14.869338148079214,-4.674045199971257,6.309999999997672
0.2583,0.9063,-0.3329,0.0159,0.1391,-0.0994,0.0613,-0.9712,-4.6725,-20.15033049897986,14.925426270230297,-4.674045199971257,6.309999999997672
0.2542,0.9077,-0.3345,0.0159,0.1391,-0.0994,0.0437,-1.1812,-4.7775,-20.15608602355911,14.825615964421797,-4.69176319997057,6.32499999999709
0.2542,0.9077,-0.3329,0.0172,0.1406,-0.1064,0.0437,-1.1812,-4.7775,-20.15495852882649,14.778976682065748,-4.69176319997057,6.32499999999709
0.2567,0.9085,-0.3329,0.0172,0.1406,-0.1064,-0.0437,-1.0412,-5.0575,-20.15468335742973,14.811497938659715,-4.708422399973964,6.341000000000349
0.2594,0.9113,-0.3328,0.0172,0.1403,-0.1059,-0.14,-1.05,-5.215,-20.145832937978003,14.866521824938086,-4.708422399973964,6.341000000000349
0.26,0.9096,-0.3338,0.0178,0.1403,-0.1059,-0.14,-1.05,-5.2413,-20.146406284337147,14.918592810438968,-4.725222399977387,6.357000000003609
0.2594,0.9104,-0.3317,0.0178,0.1403,-0.1059,-0.5512,-0.6825,-5.2413,-20.10300267530068,14.941799355986149,-4.725222399977387,6.357000000003609
0.2597,0.9087,-0.335,0.0184,0.1391,-0.1058,0.0875,-1.19,-4.9,-20.117571813865478,14.973497533591159,-4.743072399968035,6.371999999995751
0.2597,0.9087,-0.335,0.0184,0.1391,-0.1058,0.1838,-1.1638,-4.9437,-20.138955038433508,14.990144941161942,-4.743072399968035,6.371999999995751
0.256,0.91,-0.3332,0.017,0.1398,-0.1093,0.1838,-1.1638,-4.9437,-20.133835219902384,14.904217946471196,-4.761693199971829,6.3879999999990105
0.2592,0.9087,-0.332,0.017,0.1398,-0.1093,0.0525,-1.015,-4.62,-20.128728465327445,14.954224174996677,-4.761693199971829,6.3879999999990105
0.2594,0.9106,-0.3361,0.017,0.1398,-0.1093,-0.1838,-1.5575,-4.8125,-20.14563178547348,14.95814047672596,-4.785055699970922,6.402999999998428
0.2574,0.9145,-0.3357,0.0168,0.1398,-0.1136,-0.6562,-1.4963,-4.865,-20.15016984602598,14.884248106948682,-4.785055699970922,6.402999999998428
0.2574,0.9145,-0.3357,0.0168,0.1398,-0.1136,-0.6562,-1.4963,-4.865,-20.1529684506599,14.845045519110553,-4.808996499964913,6.418999999994412
0.2587,0.9118,-0.3328,0.0199,0.1386,-0.1103,-0.0525,-1.05,-4.7337,-20.151192990501368,14.884789724387277,-4.808996499964913,6.418999999994412
0.2591,0.9104,-0.3368,0.0199,0.1386,-0.1103,0.4462,-1.015,-4.6463,-20.200102705527918,14.916366623020812,-4.825236499968221,6.434999999997672
0.2578,0.9108,-0.3343,0.0199,0.1386,-0.1103,-0.0263,-1.5662,-5.0925,-20.199730233180997,14.9021371409125,-4.825236499968221,6.434999999997672
0.2584,0.9084,-0.3291,0.0181,0.1401,-0.1053,-0.0263,-1.5662,-5.0925,-20.197368332712827,14.930280777709376,-4.848729499967309,6.44999999999709
0.2597,0.9065,-0.3354,0.0181,0.1401,-0.1053,-0.14,-1.2163,-5.495,-20.207549440154516,14.952432142288389,-4.848729499967309,6.44999999999709
0.2597,0.9065,-0.3354,0.0186,0.1404,-0.1124,-0.175,-1.1375,-5.1013,-20.219443857815854,14.986623139174565,-4.866929499971016,6.466000000000349
0.26,0.9099,-0.3299,0.0186,0.1404,-0.1124,-0.3237,-1.6888,-5.215,-20.154314902725652,15.004040603828084,-4.866929499971016,6.466000000000349
0.2627,0.9091,-0.3306,0.0186,0.1404,-0.1124,-0.3237,-1.6888,-5.215,-20.11615156413003,15.069980305800518,-4.892261499957746,6.480999999992491
0.2601,0.9083,-0.3359,0.0177,0.1407,-0.1084,-0.2713,-1.3563,-5.0138,-20.150373158136667,15.054644422339923,-4.892261499957746,6.480999999992491
0.2551,0.9093,-0.3365,0.0177,0.1407,-0.1084,-0.42,-0.9712,-5.285,-20.194146952852815,14.955062164950142,-4.907800699960911,6.496999999995751
0.2551,0.9093,-0.3365,0.0176,0.1386,-0.1116,-0.42,-0.9712,-5.1013,-20.225744732693887,14.870788478920545,-4.907800699960911,6.496999999995751
0.2546,0.9071,-0.334,0.0176,0.1386,-0.1116,0.0437,-1.1375,-5.1013,-20.224893396279526,14.825575356440037,-4.926000699964619,6.5129999999990105
0.2552,0.9102,-0.3375,0.0176,0.1396,-0.104,0.49,-1.505,-5.3725,-20.26610710346092,14.799134423653678,-4.926000699964619,6.5129999999990105
0.2587,0.9111,-0.336,0.0176,0.1396,-0.104,0.4638,-2.0738,-5.6087,-20.258492798919868,14.813761842738902,-4.957107699963411,6.527999999998428
0.2627,0.9141,-0.3362,0.0176,0.1396,-0.104,0.4638,-2.0738,-5.6087,-20.236770705726748,14.848522496499097,-4.957107699963411,6.527999999998428
0.2596,0.9139,-0.3346,0.0182,0.1398,-0.1066,0.3063,-2.2838,-5.6087,-20.20424538969631,14.859273474226462,-4.993648499970856,6.544000000001688
0.2596,0.9139,-0.3346,0.0182,0.1398,-0.1066,0.3588,-1.7938,-6.0287,-20.17730982404552,14.875875757396456,-4.993648499970856,6.544000000001688
0.2589,0.9119,-0.3303,0.0188,0.1406,-0.1194,0.0787,-1.4262,-5.81,-20.150188675998752,14.879858307699056,-5.015041499959649,6.55899999999383
0.2591,0.9123,-0.3317,0.0188,0.1406,-0.1194,0.0787,-1.4262,-5.81,-20.1329205466688,14.883527983586468,-5.015041499959649,6.55899999999383
0.2555,0.9115,-0.3327,0.0188,0.1406,-0.1194,0.0525,-1.68,-5.6525,-20.12645094568702,14.871854639713792,-5.041921499965125,6.57499999999709
0.255,0.9078,-0.3298,0.0185,0.1388,-0.12,-0.245,-2.0825,-5.2762,-20.098544624903067,14.845390736631325,-5.041921499965125,6.57499999999709
0.255,0.9078,-0.3298,0.0185,0.1388,-0.12,-0.2625,-1.8288,-5.81,-20.073925826169926,14.842222671241716,-5.071182299971086,6.591000000000349
0.2542,0.9073,-0.336,0.0192,0.1402,-0.1114,-0.2625,-1.8288,-5.81,-20.119788825131515,14.835341036809188,-5.071182299971086,6.591000000000349
0.2551,0.9082,-0.336,0.0192,0.1402,-0.1114,-0.2362,-1.9512,-6.1075,-20.150450937517164,14.815073393486509,-5.10045029996995,6.605999999999767
0.2582,0.9081,-0.3331,0.0192,0.1402,-0.1114,-0.1925,-2.1875,-5.5563,-20.149507881443398,14.836299179040992,-5.10045029996995,6.605999999999767
0.2553,0.9091,-0.3341,0.0188,0.1394,-0.1034,0.0088,-1.785,-5.9412,-20.150723595662978,14.825127876168617,-5.129010299975768,6.622000000003027
0.2569,0.9108,-0.3324,0.0188,0.1394,-0.1034,0.0088,-1.785,-5.9412,-20.146518452964916,14.827577920113532,-5.129010299975768,6.622000000003027
0.2569,0.9108,-0.3324,0.0167,0.1402,-0.111,-0.42,-2.135,-6.0375,-20.119601743759137,14.830438475471688,-5.161035299958991,6.636999999995169
0.2588,0.9117,-0.3308,0.0167,0.1402,-0.111,-0.6737,-2.4413,-5.8538,-20.050640981942603,14.840832018788653,-5.161035299958991,6.636999999995169
0.2576,0.9107,-0.3337,0.0167,0.1402,-0.111,-1.0063,-2.2925,-5.9412,-20.08675198308796,14.84613622395612,-5.3054627999633945,6.69999999999709
0.2557,0.9112,-0.3315,0.0198,0.14,-0.107,-1.0063,-2.2925,-5.9412,-20.03990402266449,14.834409793660242,-5.3054627999633945,6.69999999999709
0.2561,0.9098,-0.3322,0.0198,0.14,-0.107,-1.1113,-1.8725,-5.8625,-20.04976151618064,14.832032484945321,-5.3054627999633945,6.69999999999709
0.2561,0.9098,-0.3322,0.0201,0.1402,-0.1095,-0.7,-1.3913,-5.9325,-20.05341945690611,14.828772749118533,-5.326332299962584,6.7149999999965075
0.2578,0.9094,-0.3342,0.0201,0.1402,-0.1095,-0.7,-1.3913,-5.88,-20.103244361128077,14.837006175389027,-5.326332299962584,6.7149999999965075
0.2566,0.9119,-0.332,0.0201,0.1402,-0.1102,-0.49,-1.6275,-5.88,-20.072600018807364,14.833980399447158,-5.326332299962584,6.7149999999965075
0.253,0.9114,-0.3358,0.0175,0.1402,-0.1102,-0.4988,-1.6712,-5.915,-20.12123673938396,14.800797623722834,-5.353071499968032,6.730999999999767
0.2525,0.9105,-0.3323,0.0175,0.1402,-0.1102,-0.1488,-1.645,-5.495,-20.113966958947284,14.760360218809522,-5.353071499968032,6.730999999999767
0.2557,0.9089,-0.3322,0.0198,0.139,-0.1082,-0.1488,-1.645,-5.495,-20.11019957016684,14.768646443764139,-5.353071499968032,6.730999999999767
0.2557,0.9089,-0.3322,0.0198,0.139,-0.1082,-0.1838,-1.645,-5.3987,-20.10591587374883,14.777095993835323,-5.353071499968032,6.730999999999767
0.2586,0.9126,-0.3347,0.0207,0.1393,-0.1107,-0.6037,-1.645,-5.3987,-20.118542142049705,14.808467621386551,-5.353071499968032,6.730999999999767
0.2602,0.9132,-0.3302,0.0207,0.1393,-0.1107,-0.7788,-1.3563,-5.0138,-20.016452778977317,14.889770200578795,-5.374772299962585,6.746999999995751
0.2611,0.9068,-0.3297,0.0207,0.1393,-0.1107,-0.7788,-1.3563,-5.0138,-20.001143235361607,14.996647082023111,-5.374772299962585,6.746999999995751
0.2565,0.9041,-0.3334,0.0191,0.1404,-0.1189,-0.4025,-0.7875,-4.9788,-20.06596469873724,14.957037188111192,-5.386584799962126,6.761999999995169
0.2565,0.9041,-0.3334,0.0191,0.1404,-0.1189,-0.385,-0.9625,-4.6025,-20.11168461431102,14.929589821875886,-5.386584799962126,6.761999999995169
0.2548,0.9065,-0.3337,0.0194,0.1402,-0.1106,-0.2013,-1.2513,-4.4975,-20.12567474654501,14.844576945875765,-5.406605599966205,6.777999999998428
0.2596,0.9064,-0.3335,0.0194,0.1402,-0.1106,-0.2013,-1.2513,-4.4975,-20.136368815642665,14.956005479856382,-5.406605599966205,6.777999999998428
0.256,0.9063,-0.3337,0.0194,0.1402,-0.1106,0.56,-0.9538,-4.935,-20.165215677659663,14.90660385927303,-5.420912599965649,6.792999999997846
0.2577,0.9058,-0.3345,0.02,0.1406,-0.1194,0.77,-1.0762,-4.865,-20.211278343503427,14.923697305469421,-5.420912599965649,6.792999999997846
0.2592,0.9066,-0.3331,0.02,0.1406,-0.1194,1.2862,-1.0237,-4.6375,-20.190162613335673,14.97552036897265,-5.437291799968986,6.809000000001106
0.2592,0.9066,-0.3331,0.019,0.1405,-0.1103,1.2862,-1.0237,-4.6375,-20.18106436244559,15.000053332188745,-5.437291799968986,6.809000000001106
0.256,0.9092,-0.3342,0.019,0.1405,-0.1103,1.0325,-1.2075,-4.7425,-20.18165621807442,14.901451403494745,-5.456611799964136,6.82499999999709
0.2562,0.9105,-0.3331,0.019,0.1405,-0.1103,1.19,-0.8487,-5.0838,-20.133781837861008,14.861824030800728,-5.456611799964136,6.82499999999709
0.2535,0.912,-0.3409,0.0211,0.1417,-0.1178,1.19,-1.1812,-4.7775,-20.332868825505013,14.729707088611885,-5.474329799963449,6.8399999999965075
0.2522,0.9128,-0.3349,0.0211,0.1417,-0.1178,1.2687,-1.1812,-4.7775,-20.228112126035295,14.636794687335458,-5.474329799963449,6.8399999999965075
0.2522,0.9128,-0.3349,0.0192,0.1391,-0.1124,0.98,-1.0762,-5.1013,-20.187632482677987,14.599203071832763,-5.491548999966957,6.855999999999767
0.2544,0.9116,-0.3367,0.0192,0.1391,-0.1124,0.315,-0.8838,-5.495,-20.209421977072914,14.613568131358377,-5.491548999966957,6.855999999999767
0.2524,0.9113,-0.3355,0.0192,0.1391,-0.1108,0.315,-0.8838,-5.495,-20.209948850202146,14.604620735155853,-5.504805999966442,6.870999999999185
0.2539,0.9132,-0.3343,0.0185,0.1402,-0.1108,0.2975,-1.5575,-5.3463,-20.184138351028654,14.6126747028856,-5.504805999966442,6.870999999999185
0.252,0.9102,-0.3365,0.0185,0.1402,-0.1108,0.1838,-1.7237,-5.2587,-20.202992918935962,14.594419299826928,-5.532385199972061,6.887000000002445
0.2544,0.9114,-0.3373,0.0209,0.1395,-0.116,-0.5075,-1.925,-5.3463,-20.23702809982168,14.616045669780487,-5.532385199972061,6.887000000002445
0.2544,0.9114,-0.3373,0.0209,0.1395,-0.116,-0.5075,-1.925,-5.3463,-20.26013657626977,14.631453621528017,-5.563185199964329,6.902999999998428
0.2525,0.9131,-0.3374,0.0201,0.1403,-0.1144,-0.1488,-2.7213,-5.5037,-20.262150951882415,14.613664336364174,-5.563185199964329,6.902999999998428
0.2556,0.9143,-0.3378,0.0201,0.1403,-0.1144,0.1225,-2.135,-5.6613,-20.264222626677437,14.620199754022694,-5.595210199963087,6.917999999997846
0.2541,0.9134,-0.34,0.0201,0.1403,-0.1144,0.0175,-2.0213,-5.74,-20.271798778526115,14.620125127671683,-5.595210199963087,6.917999999997846
0.2555,0.9133,-0.3386,0.018,0.1401,-0.107,0.0175,-2.0213,-5.74,-20.275275339528267,14.620887379922515,-5.627550999969675,6.934000000001106
