AcclX,AcclY,AcclZ,MagX,MagY,MagZ,GyroX,GyroY,GyroZ,Roll,Pitch,Yaw,Time Elapsed(s)
0.1221,0.9536,-0.2353,0.0823,0.1395,-0.0385,-1.225,-1.1375,-5.9412,0,0,0,0.0
0.1221,0.9536,-0.2353,0.0823,0.1395,-0.0385,-1.225,-1.1375,-5.9412,0,0,0,0.0
0.1206,0.9536,-0.2361,0.0821,0.1383,-0.0389,-0.49,-1.6888,-5.11,0,0,0,0.01599999999598367
0.1233,0.9564,-0.2377,0.0821,0.1383,-0.0389,0.6737,-1.26,-4.7075,0,0,0,0.01599999999598367
0.1249,0.9636,-0.2338,0.0821,0.1383,-0.0389,0.8138,-1.1638,-4.2088,0,0,0,0.031000000002677552
0.1335,0.9684,-0.2324,0.0821,0.1383,-0.0403,0.8138,-1.1638,-4.2088,0,0,0,0.031000000002677552
0.1335,0.9712,-0.2358,0.0821,0.1383,-0.0403,0.2625,-1.0412,-3.6225,0,0,0,0.046999999998661224
0.1339,0.9712,-0.2358,0.0815,0.1374,-0.0388,-0.035,-0.7525,-3.395,0,0,0,0.06199999999807915
0.1357,0.9737,-0.2338,0.0815,0.1374,-0.0388,0.0525,-0.0613,-3.325,0,0,0,0.06199999999807915
0.1331,0.9696,-0.2365,0.0815,0.1374,-0.0388,0.0525,-0.0613,-3.325,0,0,0,0.07799999999406282
0.132,0.9654,-0.239,0.0798,0.1379,-0.0386,-0.315,0.21,-3.1675,0,0,0,0.07799999999406282
0.1366,0.9633,-0.2402,0.0798,0.1379,-0.0386,-0.2187,0.245,-3.7275,0,0,0,0.09399999999732245
0.1366,0.9633,-0.2402,0.0802,0.1369,-0.0386,2.0213,1.2337,-3.5525,0,0,0,0.09399999999732245
0.1371,0.9686,-0.2394,0.0802,0.1369,-0.0386,0.2975,1.2337,-3.5525,0,0,0,0.10899999999674037
0.139,0.973,-0.2405,0.0802,0.1369,-0.0386,1.0762,1.61,-3.8588,0,0,0,0.10899999999674037
0.141,0.9774,-0.2446,0.0802,0.137,-0.039,1.2687,1.715,-4.5675,0,0,0,0.125
0.143,0.9809,-0.2405,0.0802,0.137,-0.039,1.2687,1.715,-2.3275,0,0,0,0.125
0.143,0.9844,-0.2397,0.0807,0.1392,-0.0418,0.8925,1.6187,-4.4625,0,0,0,0.13999999999941792
0.1468,0.9844,-0.2397,0.0807,0.1392,-0.0418,0.4638,1.8288,-4.8387,0,0,0,0.13999999999941792
0.1457,0.9868,-0.2423,0.0781,0.1388,-0.0437,0.4025,1.7325,-4.8738,0,0,0,0.1559999999954016
0.1418,0.9873,-0.2397,0.0781,0.1388,-0.0437,0.4025,1.7325,-4.8738,0,0,0,0.1559999999954016
0.1426,0.9917,-0.2419,0.0781,0.1388,-0.0437,0.525,2.415,-5.0925,0,0,0,0.17199999999866122
0.1398,0.9905,-0.2442,0.0795,0.1377,-0.0414,0.3413,2.0912,-5.1537,0,0,0,0.17199999999866122
0.1398,0.9905,-0.2442,0.0795,0.1377,-0.0414,0.56,1.7062,-4.7512,0,0,0,0.18699999999807915
0.1365,0.9876,-0.2399,0.0796,0.1379,-0.0438,0.56,1.7062,-4.7512,0,0,0,0.18699999999807915
0.1304,0.9804,-0.2384,0.0796,0.1379,-0.0438,0.42,2.0475,-4.865,0,0,0,0.20300000000133878
0.1298,0.9781,-0.2386,0.0796,0.1379,-0.0438,0.1663,0.9538,-4.865,0,0,0,0.20300000000133878
0.1293,0.9752,-0.2349,0.0804,0.1386,-0.0349,0.245,0.7,-5.04,0,0,0,0.2180000000007567
0.1293,0.9713,-0.2388,0.0804,0.1386,-0.0349,0.245,0.7,-5.04,0,0,0,0.2180000000007567
0.1285,0.9713,-0.2388,0.0813,0.1398,-0.0411,-0.245,0.2362,-5.005,0,0,0,0.23399999999674037
0.1232,0.963,-0.2319,0.0813,0.1398,-0.0411,-0.7437,-0.735,-4.8212,0,0,0,0.23399999999674037
0.12,0.9514,-0.2332,0.0813,0.1398,-0.0411,-0.5425,-1.4787,-4.7337,0,0,0,0.25
0.1193,0.9507,-0.2355,0.0794,0.1381,-0.0422,-0.5425,-1.4787,-4.7337,0,0,0,0.25
0.1211,0.9549,-0.2385,0.0794,0.1381,-0.0422,0.2275,-1.645,-4.4975,0,0,0,0.2649999999994179
0.1211,0.9549,-0.2385,0.0809,0.1391,-0.0497,0.5425,-2.555,-4.06,0,0,0,0.2649999999994179
0.1286,0.9596,-0.2358,0.0809,0.1391,-0.0497,0.5425,-2.555,-3.71,0,0,0,0.28100000000267755
0.1372,0.9611,-0.2355,0.0809,0.1391,-0.0497,0.1575,-2.9925,-3.71,0,0,0,0.28100000000267755
0.1402,0.9636,-0.2395,0.0775,0.1383,-0.0392,0.1312,-2.8963,-3.4475,0,0,0,0.2960000000020955
0.1412,0.968,-0.2365,0.0775,0.1383,-0.0392,0.035,-3.1762,-3.465,0,0,0,0.2960000000020955
0.1412,0.9836,-0.2392,0.0793,0.1374,-0.0414,0.035,-3.1762,-3.465,0,0,0,0.31199999999807915
0.1436,0.9706,-0.2392,0.0793,0.1374,-0.0414,0.6475,-2.2662,-3.7187,0,0,0,0.31199999999807915
0.1459,0.9711,-0.2452,0.0805,0.1404,-0.0402,0.14,-2.45,-3.6925,0,0,0,0.3280000000013388
0.1472,0.9726,-0.2458,0.0805,0.1404,-0.0402,0.1312,-2.31,-4.0775,0,0,0,0.3280000000013388
0.1495,0.9745,-0.2431,0.0805,0.1404,-0.0402,0.1312,-2.31,-4.0775,0,0,0,0.3430000000007567
0.1488,0.9751,-0.2444,0.0792,0.1381,-0.0386,-0.1838,-2.2838,-4.1912,0,0,0,0.35899999999674037
0.1488,0.9751,-0.2444,0.0792,0.1381,-0.0386,-0.3413,-2.0213,-4.41,0,0,0,0.35899999999674037
0.1502,0.9772,-0.2488,0.079,0.136,-0.0426,0.2275,-2.0738,-4.4275,0,0,0,0.3739999999961583
0.1501,0.9797,-0.2461,0.079,0.136,-0.0426,0.2275,-2.0738,-4.4275,0,0,0,0.3739999999961583
0.1544,0.9814,-0.2475,0.079,0.136,-0.0426,0.4725,-1.75,-4.935,0,0,0,0.3899999999994179
0.1541,0.9839,-0.2503,0.0775,0.1371,-0.044,0.1575,-1.7413,-5.0575,0,0,0,0.3899999999994179
0.1541,0.9839,-0.253,0.0775,0.1371,-0.044,-0.21,-1.8375,-5.4075,0,0,0,0.40600000000267755
0.1498,0.9877,-0.253,0.0766,0.1394,-0.0418,-0.21,-1.8375,-5.4075,0,0,0,0.40600000000267755
0.1493,0.9888,-0.246,0.0766,0.1394,-0.0418,0.0787,-1.715,-5.6613,0,0,0,0.4209999999948195
0.1462,0.9852,-0.2445,0.0766,0.1394,-0.0418,-0.21,-1.6888,-5.5388,0,0,0,0.4209999999948195
0.1427,0.98,-0.2464,0.0795,0.1391,-0.0399,-0.3063,-1.5838,-5.3725,0,0,0,0.43699999999807915
0.1388,0.9758,-0.2432,0.0795,0.1391,-0.0399,-0.3063,-1.5838,-5.3725,0,0,0,0.43699999999807915
0.1388,0.9758,-0.2432,0.0795,0.1392,-0.0413,-0.1838,-2.1088,-5.4687,0,0,0,0.45199999999749707
0.1388,0.9685,-0.2411,0.0795,0.1392,-0.0413,-0.4112,-1.855,-5.1537,0,0,0,0.45199999999749707
0.1377,0.9634,-0.2426,0.0795,0.1392,-0.0413,-0.4112,-1.855,-5.005,0,0,0,0.4680000000007567
0.1366,0.9603,-0.2408,0.0797,0.1373,-0.0513,-0.2013,-1.82,-5.005,0,0,0,0.4680000000007567
0.1366,0.9582,-0.2378,0.0797,0.1373,-0.0513,0.035,-1.61,-4.8125,0,0,0,0.48400000000401633
0.1366,0.9582,-0.2388,0.0808,0.1378,-0.044,0.28,-1.3038,-4.4363,0,0,0,0.48400000000401633
0.1356,0.9563,-0.2388,0.0808,0.1378,-0.044,0.28,-1.3038,-4.4363,0,0,0,0.4989999999961583
0.1341,0.9572,-0.2386,0.0783,0.138,-0.0396,0.105,-1.3563,-4.2088,0,0,0,0.4989999999961583
0.1346,0.9553,-0.2381,0.0783,0.138,-0.0396,-0.0787,-1.2862,-4.27,0,0,0,0.5149999999994179
0.1366,0.9557,-0.2388,0.0783,0.138,-0.0396,-0.2887,-1.3388,-4.235,0,0,0,0.5149999999994179
0.14,0.9592,-0.2393,0.079,0.1376,-0.0429,-0.2887,-1.3388,-4.235,0,0,0,0.5299999999988358
0.14,0.9592,-0.2393,0.079,0.1376,-0.0429,-0.525,-0.9887,-4.9262,0,0,0,0.5299999999988358
0.1426,0.9636,-0.2401,0.0786,0.1358,-0.0406,0.2625,-0.6562,-5.2325,0,0,0,0.5460000000020955
0.1442,0.9618,-0.2428,0.0786,0.1358,-0.0406,0.2013,-0.6037,-5.6175,0,0,0,0.5460000000020955
0.1423,0.9654,-0.2404,0.0786,0.1358,-0.0406,0.2013,-0.6037,-5.6175,0,0,0,0.5620000000053551
0.1502,0.9719,-0.2395,0.079,0.1392,-0.0394,0.1838,-0.2275,-5.8888,0,0,0,0.5620000000053551
0.1502,0.9719,-0.2404,0.079,0.1392,-0.0394,0.4988,0.0962,-6.4313,0,0,0,0.5769999999974971
0.1488,0.9722,-0.2404,0.0798,0.1377,-0.0419,0.35,0.4725,-6.86,0,0,0,0.5769999999974971
0.1463,0.9764,-0.2449,0.0798,0.1377,-0.0419,0.35,0.4725,-6.86,0,0,0,0.5930000000007567
0.143,0.9796,-0.2424,0.0798,0.1377,-0.0419,0.2975,0.56,-6.5887,0,0,0,0.5930000000007567
0.1441,0.982,-0.2475,0.0787,0.1373,-0.0324,0.4288,1.33,-6.6675,0,0,0,0.6080000000001746
0.1402,0.9859,-0.2514,0.0787,0.1373,-0.0324,0.4288,1.33,-6.6238,0,0,0,0.6080000000001746
0.1402,0.9859,-0.2514,0.0798,0.1381,-0.0423,0.5863,1.0938,-6.6238,0,0,0,0.6240000000034343
0.1388,0.9891,-0.2494,0.0798,0.1381,-0.0423,0.4462,0.49,-6.7025,0,0,0,0.6240000000034343
0.1354,0.9917,-0.2485,0.0798,0.1381,-0.0423,0.6913,-0.175,-6.9825,0,0,0,0.6399999999994179
0.1354,0.9958,-0.251,0.0796,0.1362,-0.0471,0.6913,-0.175,-6.9825,0,0,0,0.6399999999994179
0.1372,0.9969,-0.2447,0.0796,0.1362,-0.0471,0.3413,-0.4462,-7.2975,0,0,0,0.6549999999988358
0.1372,0.9969,-0.2447,0.0807,0.1381,-0.0471,-0.0613,-1.2687,-7.07,0,0,0,0.6549999999988358
0.1363,0.9898,-0.2409,0.0807,0.1381,-0.0471,0.21,-1.2513,-6.755,0,0,0,0.6710000000020955
0.1335,0.9828,-0.2441,0.0807,0.1378,-0.0439,0.21,-1.2513,-6.755,0,0,0,0.6710000000020955
0.1297,0.9758,-0.2396,0.0802,0.1378,-0.0439,-0.56,-1.8025,-6.4488,0,0,0,0.6879999999946449
0.1296,0.9651,-0.238,0.0802,0.1378,-0.0439,-0.7,-1.5925,-5.8012,0,0,0,0.6879999999946449
0.1267,0.959,-0.2371,0.0784,0.1392,-0.0382,-0.7788,-1.7413,-5.1013,0,0,0,0.7039999999979045
0.1267,0.959,-0.2371,0.0784,0.1392,-0.0382,-0.7788,-1.7413,-5.1013,0,0,0,0.7039999999979045
0.1236,0.9554,-0.2388,0.0798,0.1383,-0.045,-0.2537,-1.5838,-4.5237,0,0,0,0.7200000000011642
0.1269,0.9527,-0.2352,0.0798,0.1383,-0.045,-0.2362,-1.8288,-4.235,0,0,0,0.7200000000011642
0.1301,0.9551,-0.2398,0.0798,0.1383,-0.045,-0.28,-1.5925,-4.0338,0,0,0,0.7350000000005821
0.1293,0.9551,-0.24,0.078,0.1384,-0.0446,-0.28,-1.5925,-4.0338,0,0,0,0.7350000000005821
0.1293,0.9551,-0.24,0.078,0.1384,-0.0446,0.4375,-1.8375,-4.1125,0,0,0,0.7510000000038417
0.1318,0.9584,-0.2386,0.0807,0.1382,-0.0422,-0.0175,-2.0738,-4.0512,0,0,0,0.7510000000038417
0.1344,0.9606,-0.238,0.0807,0.1382,-0.0422,-0.2537,-1.7587,-4.445,0,0,0,0.7659999999959837
0.1363,0.9637,-0.2413,0.0807,0.1382,-0.0422,-0.2537,-1.7587,-4.445,0,0,0,0.7819999999992433
0.1392,0.9669,-0.2413,0.0791,0.1383,-0.0347,0.385,-1.75,-5.0138,0,0,0,0.7819999999992433
0.1405,0.9717,-0.2422,0.0791,0.1383,-0.0347,0.8575,-1.365,-5.1625,0,0,0,0.7980000000025029
0.1405,0.9717,-0.2422,0.0794,0.1403,-0.0406,0.8575,-1.365,-5.4163,-5.900132173824338,3.642996966313646,0.0,0.7980000000025029
0.1413,0.9762,-0.2444,0.0794,0.1403,-0.0406,0.9187,-0.6125,-5.4163,-9.49941881159236,5.627117253005577,-0.028174999996826957,0.8439999999973224
0.1441,0.9733,-0.2441,0.0794,0.1403,-0.0406,1.1463,-0.7088,-5.3637,-11.809252469251723,6.747256023376522,-0.028174999996826957,0.8439999999973224
0.1427,0.9776,-0.2483,0.0803,0.1379,-0.0369,1.0412,-0.56,-5.7137,-12.974338452730809,7.441537791097521,-0.03713499999865235,0.8600000000005821
0.1479,0.9875,-0.2459,0.0803,0.1379,-0.0369,1.0412,-0.56,-5.7137,-13.4555849857552,7.881705544076933,-0.03713499999865235,0.8600000000005821
0.1479,0.9875,-0.2615,0.0798,0.1386,-0.0454,1.3475,-0.2187,-5.7663,-14.211686934289219,8.07529146108548,-0.03713499999865235,0.8600000000005821
0.153,0.9872,-0.25,0.0798,0.1386,-0.0454,0.7,0.1663,-5.4862,-14.211403927824007,8.298557842306634,-0.03713499999865235,0.8600000000005821
0.1483,0.9869,-0.2469,0.0798,0.1387,-0.0433,0.875,0.4725,-5.635,-14.140634498512085,8.296172475480423,-0.03713499999865235,0.8600000000005821
0.1441,0.9864,-0.2483,0.0806,0.1387,-0.0433,0.875,0.4725,-5.635,-14.135723508094507,8.176478105726744,-0.03713499999865235,0.8600000000005821
0.1398,0.9858,-0.2536,0.0806,0.1387,-0.0433,0.875,1.05,-5.6613,-14.260070338043365,7.99117519931964,-0.02033499999522974,0.8760000000038417
0.1367,0.9894,-0.2514,0.0792,0.1385,-0.0417,1.05,0.3938,-5.6262,-14.258486738192548,7.8047987889452735,-0.02033499999522974,0.8760000000038417
0.1367,0.9894,-0.2514,0.0792,0.1385,-0.0417,0.7613,0.0875,-5.1363,-14.25782070688923,7.741089865217271,-0.019022499995917316,0.8909999999959837
0.1401,0.988,-0.2513,0.08,0.1393,-0.0426,0.7613,0.0875,-5.1363,-14.262810243204989,7.77113532807398,-0.019022499995917316,0.8909999999959837
0.1406,0.9822,-0.2491,0.08,0.1393,-0.0426,0.7,-0.1225,-5.3987,-14.251238110622332,7.829080273407727,-0.02098249999631662,0.9069999999992433
0.1347,0.9775,-0.2476,0.08,0.1393,-0.0426,0.28,-0.9013,-5.3725,-14.246347175522454,7.731447828651791,-0.02098249999631662,0.9069999999992433
0.1326,0.9698,-0.2428,0.0792,0.1395,-0.0426,0.0525,-1.1113,-4.9612,-14.23284590946811,7.682624171736359,-0.03765199999566976,0.9219999999986612
0.1326,0.9698,-0.2428,0.0792,0.1395,-0.0426,0.0525,-1.1113,-4.9612,-14.22030079444545,7.647337682431779,-0.03765199999566976,0.9219999999986612
0.1327,0.9622,-0.2455,0.0803,0.1396,-0.0441,-0.4812,-1.1463,-5.04,-14.255542333627664,7.635992564440796,-0.055992799999406276,0.9380000000019209
0.1275,0.9552,-0.243,0.0803,0.1396,-0.0441,0.0,-1.4,-4.7425,-14.257545311209821,7.5984492641870265,-0.055992799999406276,0.9380000000019209
0.1312,0.9554,-0.2417,0.0803,0.1396,-0.0441,0.0,-1.4,-4.9788,-14.25063993140338,7.59409042645485,-0.07839279999378342,0.9539999999979045
0.1273,0.9518,-0.2431,0.0798,0.1386,-0.0421,-0.0787,-1.9075,-4.9788,-14.263869119327554,7.5338227787647725,-0.07839279999378342,0.9539999999979045
0.1298,0.955,-0.2433,0.0798,0.1386,-0.0421,0.4725,-1.9075,-4.6638,-14.271290092714914,7.531390847226571,-0.10700529999267311,0.9689999999973224
0.1298,0.955,-0.2433,0.079,0.1406,-0.0447,0.2537,-2.4762,-4.3575,-14.273688270978067,7.526304229142601,-0.10700529999267311,0.9689999999973224
0.1354,0.9568,-0.2414,0.079,0.1406,-0.0447,0.2537,-2.4762,-4.3575,-14.261076506709369,7.578010395663371,-0.14662450000074462,0.9850000000005821
0.1357,0.9601,-0.2456,0.079,0.1406,-0.0447,-0.2713,-3.1237,-4.83,-14.286181485354966,7.622156498547456,-0.14662450000074462,0.9850000000005821
0.1406,0.9631,-0.2456,0.0782,0.1394,-0.0415,-0.2713,-2.975,-4.69,-14.291867663228027,7.665563780480189,-0.19124949999901295,1.0
0.1408,0.9651,-0.2451,0.0782,0.1394,-0.0415,-0.5863,-2.9488,-4.8825,-14.274315299865552,7.755030424157401,-0.19124949999901295,1.0
0.1408,0.9651,-0.2451,0.0795,0.1382,-0.0432,-0.5863,-2.9488,-4.8825,-14.264080787110004,7.823590601573928,-0.23843030000862495,1.0160000000032596
0.1419,0.9664,-0.2475,0.0795,0.1382,-0.0432,0.0175,-2.8263,-5.2063,-14.274180318682554,7.928596191862593,-0.23843030000862495,1.0160000000032596
0.1429,0.9669,-0.2489,0.0795,0.1382,-0.0438,-0.2975,-2.87,-4.9963,-14.322449532586921,7.992522803215593,-0.2843502999970981,1.0319999999992433
0.1452,0.9701,-0.2477,0.0811,0.1387,-0.0438,-0.07,-2.4588,-5.1188,-14.322631263561574,8.083520602416435,-0.2843502999970981,1.0319999999992433
0.1469,0.9728,-0.2559,0.0811,0.1387,-0.0438,-0.07,-2.4588,-5.1188,-14.39149792295524,8.162593032848298,-0.3212322999956669,1.0469999999986612
0.1462,0.9751,-0.2544,0.0794,0.1392,-0.0486,0.665,-2.0038,-5.5125,-14.472069105629382,8.2071056838901,-0.3212322999956669,1.0469999999986612
0.1462,0.9751,-0.2544,0.0794,0.1392,-0.0486,0.2887,-2.24,-5.7225,-14.49278997249089,8.232519416153417,-0.35707230000296847,1.0630000000019209
0.1471,0.9791,-0.2485,0.0794,0.1386,-0.0449,0.455,-1.5225,-5.4862,-14.430900268148848,8.25766578556836,-0.35707230000296847,1.0630000000019209
0.149,0.9842,-0.2524,0.0794,0.1386,-0.0449,0.455,-1.5225,-5.4862,-14.419272531339674,8.298175972766963,-0.37990980000208224,1.0780000000013388
0.1473,0.9869,-0.2575,0.0794,0.1386,-0.0449,0.35,-1.1638,-5.1275,-14.456271519827782,8.26967566729664,-0.37990980000208224,1.0780000000013388
0.146,0.9922,-0.2539,0.0794,0.1394,-0.048,0.0962,-1.2862,-5.39,-14.453042611629902,8.199489114639583,-0.40048899999691645,1.0939999999973224
0.146,0.9922,-0.2539,0.0794,0.1394,-0.048,0.1312,-1.26,-5.2675,-14.452796662704412,8.164219289922489,-0.40048899999691645,1.0939999999973224
0.1451,0.99,-0.2555,0.0805,0.139,-0.0424,0.1312,-1.26,-5.2675,-14.452842168902286,8.128705012043914,-0.4206489999918559,1.1099999999933061
0.1421,0.9883,-0.254,0.0805,0.139,-0.0424,-0.0525,-0.735,-5.6262,-14.446801966075505,8.025885353191336,-0.4206489999918559,1.1099999999933061
0.139,0.9865,-0.2546,0.0805,0.139,-0.0424,-0.4725,-0.7788,-5.4862,-14.456018400894365,7.903589476205178,-0.4323309999970691,1.125
0.1355,0.9803,-0.2484,0.0795,0.1401,-0.0406,-0.4725,-0.7788,-5.3987,-14.367024778587153,7.780913814941184,-0.4323309999970691,1.125
0.1344,0.9736,-0.245,0.0795,0.1401,-0.0406,-0.7525,-1.925,-5.3987,-14.253573397972383,7.710567120204563,-0.4631310000033439,1.1410000000032596
0.1344,0.9736,-0.245,0.0795,0.1402,-0.0444,-0.42,-1.8637,-5.8625,-14.207958861245826,7.662390529772895,-0.4631310000033439,1.1410000000032596
0.1302,0.9683,-0.2502,0.0795,0.1402,-0.0444,-0.9275,-1.8813,-5.4687,-14.351720566052553,7.54696043377105,-0.49135049998856056,1.1559999999954016
0.1304,0.9648,-0.2486,0.0795,0.1402,-0.0444,-0.9275,-1.8813,-5.4687,-14.401740667567191,7.504394272802912,-0.5214512999946929,1.1719999999986612
0.1302,0.9608,-0.2444,0.0802,0.1396,-0.0439,-0.56,-1.7587,-4.7162,-14.348716731324254,7.50164654261376,-0.5214512999946929,1.1719999999986612
0.128,0.9545,-0.2518,0.0802,0.1396,-0.0439,-0.3325,-1.6363,-4.55,-14.484255433287933,7.498599979208567,-0.5476320999881209,1.187999999994645
0.128,0.9545,-0.2518,0.0806,0.1385,-0.0402,-0.4375,-2.3012,-4.5763,-14.590495659415541,7.498460449575468,-0.5476320999881209,1.187999999994645
0.1332,0.9575,-0.2456,0.0806,0.1385,-0.0402,-0.4375,-2.3012,-4.5763,-14.516671239610343,7.498682536423411,-0.5821501000035249,1.2030000000013388
0.1311,0.9582,-0.242,0.0806,0.1385,-0.0441,-0.5425,-2.4762,-4.6375,-14.379059419569636,7.5019453698664025,-0.5821501000035249,1.2030000000013388
0.1375,0.955,-0.2432,0.0797,0.1383,-0.0441,-0.91,-2.0912,-4.8738,-14.332279003562892,7.60273429940262,-0.6156092999951259,1.2189999999973224
0.1366,0.9565,-0.2496,0.0797,0.1383,-0.0441,-0.9887,-2.0912,-4.76,-14.486894489468003,7.6435981012968055,-0.6156092999951259,1.2189999999973224
0.1393,0.9587,-0.2427,0.0798,0.139,-0.0439,-0.9887,-2.0912,-4.76,-14.338800704358295,7.701330944049179,-0.6469772999939087,1.2339999999967404
0.1393,0.9587,-0.2427,0.0798,0.139,-0.0439,-0.7,-2.0738,-4.7688,-14.278741260720468,7.752133345561582,-0.6469772999939087,1.2339999999967404
0.1393,0.9587,-0.2463,0.0813,0.1386,-0.0399,-0.63,-1.8112,-5.1275,-14.334624594889053,7.843866560232211,-0.6759564999998126,1.25
0.1369,0.9588,-0.2488,0.0813,0.1386,-0.0399,-0.105,-1.715,-5.7925,-14.374837862142133,7.857508863079742,-0.6759564999998126,1.25
0.1387,0.9661,-0.2468,0.0813,0.1386,-0.0399,-0.105,-1.715,-5.7925,-14.36640078577143,7.891248732226476,-0.7033964999929245,1.2659999999959837
0.1433,0.9751,-0.2485,0.0803,0.1392,-0.0518,0.4112,-1.6187,-6.0025,-14.35116907070399,8.01677007686974,-0.7033964999929245,1.2659999999959837
0.1433,0.9751,-0.2485,0.0803,0.1392,-0.0518,0.9013,-1.8112,-5.9938,-14.327667599081346,8.068402023990227,-0.7305645000050485,1.2810000000026776
0.1466,0.9808,-0.2489,0.0794,0.1379,-0.045,0.9013,-1.2862,-5.9938,-14.289236211342768,8.171040819317371,-0.7305645000050485,1.2810000000026776
0.1499,0.9848,-0.2505,0.0794,0.1379,-0.045,0.735,-1.2862,-5.9938,-14.282526239236772,8.300277685871645,-0.7511436999998826,1.2969999999986612
0.1531,0.9872,-0.2476,0.0794,0.1379,-0.045,0.6125,-0.4812,-6.475,-14.216471919561474,8.466844670198284,-0.7511436999998826,1.2969999999986612
0.1512,0.9898,-0.2523,0.0795,0.1385,-0.051,0.3588,-0.105,-5.9675,-14.232127534659389,8.439635792031908,-0.7527186999998215,1.3119999999980791
0.1512,0.9917,-0.2511,0.0795,0.1385,-0.051,0.3588,-0.105,-5.9675,-14.227756568321134,8.420956268620287,-0.7527186999998215,1.3119999999980791
0.1423,0.9917,-0.2511,0.0806,0.1394,-0.045,-0.3413,0.0962,-6.23,-14.221682437524661,8.108306377531003,-0.751179499999508,1.3280000000013388
0.1427,0.9905,-0.2499,0.0806,0.1394,-0.045,-0.7175,0.105,-6.2475,-14.193425482823214,8.010707383307762,-0.751179499999508,1.3280000000013388
0.1364,0.9859,-0.2511,0.0806,0.1394,-0.045,-0.595,0.14,-6.8338,-14.233525940359733,7.751175179507737,-0.7489395000000703,1.3439999999973224
0.134,0.9833,-0.2503,0.0805,0.1392,-0.0404,-0.595,0.14,-6.8338,-14.25362384029597,7.5932067677959365,-0.7489395000000703,1.3439999999973224
0.131,0.9811,-0.2454,0.0805,0.1392,-0.0404,-0.6562,-0.2625,-6.6937,-14.161052077427742,7.448827599216366,-0.7528770000018274,1.3590000000040163
0.131,0.9811,-0.2454,0.0806,0.1393,-0.0418,-0.4462,-0.3938,-6.7025,-14.117999190483395,7.402433185808432,-0.7528770000018274,1.3590000000040163
0.1304,0.9755,-0.2457,0.0806,0.1393,-0.0418,-0.3413,-0.3938,-6.6325,-14.124101477985109,7.391292429551955,-0.7591777999973806,1.374999999992724
0.126,0.9733,-0.2466,0.0806,0.1393,-0.0418,-0.3413,-0.3938,-6.6325,-14.153980267600877,7.230819884047611,-0.7591777999973806,1.374999999992724
0.1235,0.9696,-0.2406,0.0804,0.1386,-0.0378,-0.595,-1.0588,-6.4138,-14.06249751615614,7.112015572258865,-0.7750598000044681,1.389999999999418
0.1251,0.9632,-0.2422,0.0804,0.1386,-0.0378,-0.4025,-1.4612,-5.7225,-14.08057198282031,7.147815045286802,-0.7750598000044681,1.389999999999418
0.1251,0.9615,-0.242,0.0818,0.14,-0.0424,-0.1225,-1.7763,-5.0662,-14.089962941600858,7.162070583723012,-0.8034806000102581,1.4060000000026776
0.1223,0.9615,-0.242,0.0818,0.14,-0.0424,-0.1225,-1.7763,-5.0662,-14.097468401309724,7.119349149754163,-0.8034806000102581,1.4060000000026776
0.1253,0.9581,-0.238,0.0806,0.1383,-0.0455,-0.2537,-1.9338,-4.585,-14.056779082346585,7.120191238786285,-0.8344214000024913,1.4219999999986612
0.1269,0.9579,-0.2436,0.0806,0.1383,-0.0455,-0.14,-2.3363,-4.4275,-14.101563995087533,7.145769734311492,-0.8344214000024913,1.4219999999986612
0.124,0.9553,-0.2424,0.0806,0.1383,-0.0455,-0.385,-2.625,-4.725,-14.147822505350302,7.149010424960784,-0.8737964000009634,1.4369999999980791
0.1296,0.9557,-0.2427,0.0826,0.1398,-0.0439,-0.385,-2.625,-4.725,-14.182176316708428,7.1925389067014915,-0.8737964000009634,1.4369999999980791
0.1296,0.9557,-0.2427,0.0826,0.1398,-0.0439,-0.3938,-3.1762,-4.4887,-14.205126664064217,7.216633644146449,-0.9246155999882067,1.4529999999940628
0.1359,0.9622,-0.2434,0.0802,0.14,-0.0477,0.0875,-3.045,-4.6725,-14.204759717734149,7.266935606935901,-0.9246155999882067,1.4529999999940628
0.1414,0.9658,-0.2422,0.0802,0.14,-0.0477,0.0875,-3.045,-4.6813,-14.199746318405506,7.343589113899319,-0.9702906000085896,1.4680000000007567
0.1474,0.9644,-0.24,0.0802,0.14,-0.0477,-0.245,-2.8175,-4.6813,-14.138528168421125,7.44630380113264,-1.0153705999972735,1.4839999999967404
0.1453,0.9595,-0.2424,0.0807,0.1406,-0.0474,-0.6388,-1.995,-4.5413,-14.155696173673988,7.478016318391904,-1.0153705999972735,1.4839999999967404
0.1453,0.9609,-0.2513,0.0807,0.1406,-0.0474,-0.3588,-1.7413,-5.25,-14.319686186120116,7.81771471210514,-1.0432314000029494,1.5
0.1405,0.9609,-0.2513,0.0805,0.1387,-0.0446,-0.3588,-1.7413,-5.25,-14.429930312705647,7.9117564321185645,-1.0432314000029494,1.5
0.1435,0.9665,-0.2458,0.0805,0.1387,-0.0446,0.0525,-1.5225,-5.285,-14.418529644118962,8.026326715490777,-1.0660689000020633,1.514999999999418
0.1447,0.975,-0.2472,0.0805,0.1387,-0.0446,0.525,-1.1638,-5.9763,-14.364141880104867,8.119622174703826,-1.0660689000020633,1.514999999999418
0.148,0.9789,-0.2521,0.0796,0.14,-0.0454,1.1988,-0.6212,-5.9675,-14.404280457414146,8.241768796794137,-1.0760080999995685,1.5309999999954016
0.1524,0.9839,-0.2475,0.0796,0.14,-0.0454,1.1988,-0.6212,-5.9675,-14.257222027525184,8.416820452135626,-1.0760080999995685,1.5309999999954016
0.1524,0.9839,-0.2475,0.0805,0.1394,-0.0401,1.0588,-0.4988,-6.5363,-14.190997604829457,8.500196462124451,-1.0834901000029074,1.5460000000020955
0.1508,0.9867,-0.251,0.0805,0.1394,-0.0401,0.735,-0.5075,-6.5275,-14.22171113148816,8.45058074098266,-1.0834901000029074,1.5460000000020955
0.1468,0.9901,-0.2532,0.0805,0.1394,-0.0401,0.245,0.7437,-6.79,-14.234544842162187,8.260333027529729,-1.0715909000058943,1.5619999999980791
0.1424,0.9924,-0.255,0.0822,0.1407,-0.0494,0.245,0.7437,-6.79,-14.252880393315442,8.020470774303961,-1.0715909000058943,1.5619999999980791
0.1371,0.99,-0.2503,0.0822,0.1407,-0.0494,0.1312,-0.175,-7.07,-14.252721324265583,7.753805568107226,-1.0745659000058638,1.5789999999979045
0.1371,0.99,-0.2535,0.0815,0.1394,-0.0405,-0.2537,-0.8925,-7.3325,-14.283115707316426,7.671028124710815,-1.0745659000058638,1.5789999999979045
0.1329,0.9847,-0.2535,0.0815,0.1394,-0.0405,-0.4025,-1.2862,-7.2275,-14.336390037854466,7.508040168620675,-1.0938589000144734,1.5940000000045984
0.1261,0.9855,-0.2555,0.0835,0.14,-0.0458,-0.4025,-1.2862,-7.2275,-14.405103693580822,7.183273249967976,-1.0938589000144734,1.5940000000045984
0.1232,0.9802,-0.2519,0.0835,0.14,-0.0458,-0.5425,-2.1525,-7.4025,-14.408062379620091,7.00407633027302,-1.1282988999901666,1.6099999999933061
0.1252,0.9741,-0.2517,0.0835,0.14,-0.0458,-0.385,-2.3537,-6.9913,-14.435158602740895,7.067319165007977,-1.1282988999901666,1.6099999999933061
0.1236,0.9697,-0.2471,0.0827,0.1408,-0.0423,-0.385,-2.8788,-6.5887,-14.387906568773095,7.049892209540365,-1.171480900009437,1.625
0.1236,0.9697,-0.2471,0.0827,0.1408,-0.0423,-0.9275,-2.8788,-6.5887,-14.340658857287979,7.044104707591727,-1.171480900009437,1.625
0.1231,0.9661,-0.2471,0.0818,0.1395,-0.0458,-0.7788,-3.08,-6.8162,-14.343676619404944,7.039409888389691,-1.2207609000194768,1.6410000000032596
0.1261,0.9616,-0.2501,0.0818,0.1395,-0.0458,-0.6125,-2.8525,-5.8625,-14.443810431904748,7.148234898528109,-1.2207609000194768,1.6410000000032596
0.126,0.961,-0.2462,0.0818,0.1395,-0.0458,-0.6125,-2.8525,-5.8625,-14.412233318448061,7.198976756380803,-1.2664009000080203,1.6569999999992433
0.1294,0.9577,-0.2449,0.0826,0.1391,-0.0464,-0.4462,-2.695,-5.6,-14.387364631092908,7.329821822951965,-1.2664009000080203,1.6569999999992433
0.1294,0.9577,-0.247,0.0826,0.1391,-0.0464,-0.7875,-2.9488,-5.285,-14.423036620689466,7.381231184814875,-1.310632900006304,1.6719999999986612
0.1286,0.9573,-0.247,0.0822,0.1413,-0.0423,-0.0263,-3.0625,-4.76,-14.42903901244769,7.385855308784795,-1.310632900006304,1.6719999999986612
0.1269,0.96,-0.2473,0.0822,0.1413,-0.0423,-0.0263,-3.0625,-4.76,-14.431256615422683,7.371786500500633,-1.359632899994004,1.687999999994645
0.1292,0.9609,-0.2431,0.0822,0.1413,-0.0423,-0.21,-3.15,-4.6287,-14.372105774350068,7.374455819648911,-1.359632899994004,1.687999999994645
0.1314,0.9608,-0.2463,0.0822,0.1398,-0.0426,0.105,-2.87,-4.725,-14.372244521964241,7.3965562509847045,-1.4026829000132155,1.7030000000013388
0.1323,0.9646,-0.2507,0.0822,0.1398,-0.0426,-0.3413,-2.8,-5.1887,-14.435114278056986,7.45913480598072,-1.4026829000132155,1.7030000000013388
0.1323,0.9646,-0.2507,0.082,0.14,-0.0376,-0.3413,-2.8,-5.1887,-14.477882325020214,7.49797606767186,-1.4474829000019698,1.7189999999973224
0.1374,0.9664,-0.2455,0.082,0.14,-0.0376,-0.0525,-2.5113,-5.2238,-14.443482725037427,7.634578455363015,-1.4474829000019698,1.7189999999973224
0.1368,0.9687,-0.2519,0.082,0.14,-0.0376,0.28,-2.1088,-5.3725,-14.460938242861507,7.700163364333458,-1.4812237000088437,1.735000000000582
0.1374,0.9736,-0.2502,0.0803,0.1393,-0.0352,0.7962,-0.7788,-5.5825,-14.441451170472044,7.741790351614076,-1.4812237000088437,1.735000000000582
0.1404,0.9784,-0.2492,0.0803,0.1393,-0.0352,0.7962,-0.7788,-5.5825,-14.38062406723939,7.829497010584769,-1.4929057000083905,1.75
0.1404,0.9784,-0.2508,0.0825,0.1394,-0.0415,0.8838,-0.7262,-5.495,-14.379258298578458,7.869789222090246,-1.4929057000083905,1.75
0.1373,0.9807,-0.2508,0.0825,0.1394,-0.0415,0.0525,-0.2625,-5.5125,-14.376840908358982,7.799482696305906,-1.4971057000073362,1.7659999999959837
0.1354,0.9843,-0.2522,0.082,0.1394,-0.0483,-0.07,-0.4112,-5.4513,-14.37592413687213,7.701911251458017,-1.4971057000073362,1.7659999999959837
0.136,0.9855,-0.2474,0.082,0.1394,-0.0483,-0.07,-0.4112,-5.4513,-14.32890916467858,7.665396488805406,-1.5032737000100886,1.7810000000026776
0.1333,0.9845,-0.2532,0.082,0.1394,-0.0483,0.1488,-0.385,-5.8538,-14.330763805574978,7.556202810588295,-1.5032737000100886,1.7810000000026776
0.1321,0.9859,-0.2544,0.0824,0.1387,-0.0439,-0.7175,-0.6212,-6.1163,-14.394073281217521,7.456823350283499,-1.5132129000075938,1.7969999999986612
0.1321,0.9859,-0.2544,0.0824,0.1387,-0.0439,-0.7175,-0.6212,-6.09,-14.428364740803552,7.4179444011444415,-1.5132129000075938,1.7969999999986612
0.1296,0.985,-0.251,0.0835,0.1395,-0.0474,-0.945,-0.8313,-6.09,-14.359826333840529,7.326453648675816,-1.5265137000103035,1.8130000000019209
0.1265,0.9789,-0.2505,0.0835,0.1395,-0.0474,-0.3762,-1.6538,-6.16,-14.357848455148096,7.209676601251271,-1.551320700009341,1.8280000000013388
0.1256,0.9821,-0.2503,0.0835,0.1395,-0.0474,-0.2975,-1.435,-6.0113,-14.34000167857235,7.124160592032623,-1.551320700009341,1.8280000000013388
0.124,0.979,-0.2459,0.0828,0.1403,-0.0492,-0.2975,-1.435,-6.0113,-14.26815013986087,7.052995652401019,-1.5742807000035774,1.8439999999973224
0.124,0.979,-0.2437,0.0828,0.1403,-0.0492,0.2887,-1.5575,-5.7575,-14.22818724551553,7.028114424878667,-1.5742807000035774,1.8439999999973224
0.1263,0.9713,-0.2437,0.0825,0.139,-0.0454,-0.2187,-1.6013,-5.0138,-14.191219514024358,7.076781979640057,-1.5983002000142963,1.8590000000040163
0.1223,0.9696,-0.2469,0.0825,0.139,-0.0454,-0.4112,-1.7587,-4.6725,-14.2245356373836,7.067428919014232,-1.5983002000142963,1.8590000000040163
0.1175,0.9673,-0.247,0.0825,0.139,-0.0454,-0.4112,-1.7587,-4.6725,-14.259541229925047,7.036662070089234,-1.6264394000072329,1.875
0.1165,0.9642,-0.2439,0.0838,0.1402,-0.0438,-0.0962,-1.7587,-3.955,-14.247786886022377,6.900181526141994,-1.6264394000072329,1.875
0.1161,0.9593,-0.2467,0.0838,0.1402,-0.0438,0.0175,-2.1263,-3.4388,-14.26522850588972,6.785739942519745,-1.660460199998693,1.8909999999959837
0.1161,0.9593,-0.2467,0.0831,0.1402,-0.0453,0.5163,-2.7475,-2.905,-14.309033274479802,6.7228465878174655,-1.660460199998693,1.8909999999959837
0.1165,0.9563,-0.247,0.0831,0.1402,-0.0453,0.5163,-2.7475,-2.905,-14.35741738845017,6.7255164884376475,-1.660460199998693,1.8909999999959837
0.119,0.9563,-0.2442,0.0831,0.1402,-0.0453,1.6625,-2.4588,-2.6425,-14.33771786261897,6.8240089355850095,-1.697342200015152,1.9060000000026776
0.1285,0.9516,-0.2467,0.0816,0.1409,-0.0507,2.625,-2.66,-1.26,-14.477737116532037,7.302836876906474,-1.7399022000044684,1.9219999999986612
0.1266,0.9513,-0.2444,0.0816,0.1409,-0.0507,4.9175,-2.5463,0.3588,-14.420331411994422,7.337612463660353,-1.7399022000044684,1.9219999999986612
0.1266,0.9513,-0.2413,0.081,0.1419,-0.0398,4.9175,-2.5463,0.3588,-14.265408716951463,7.348190062731429,-1.7780967000029861,1.9369999999980791
0.123,0.962,-0.2413,0.081,0.1419,-0.0398,7.5425,-1.0063,3.15,-14.10298717756028,7.101469562548494,-1.7780967000029861,1.9369999999980791
0.1182,0.9679,-0.2406,0.081,0.1379,-0.0482,8.505,0.5163,6.58,-13.974902678051015,6.786976346033908,-1.7698359000050599,1.9529999999940628
0.1097,0.9733,-0.2466,0.0792,0.1379,-0.0482,10.745,1.2513,9.135,-14.19666132185574,6.272738520887526,-1.7698359000050599,1.9529999999940628
0.1068,0.9781,-0.2477,0.0792,0.1379,-0.0482,9.3013,1.2513,9.135,-14.209731234687066,6.057912371602352,-1.7498151000009812,1.9689999999973224
0.1108,0.9755,-0.2479,0.0762,0.1389,-0.0449,10.3337,0.91,11.2262,-14.25417282946032,6.268703108438955,-1.7498151000009812,1.9689999999973224
0.1108,0.9755,-0.2479,0.0762,0.1389,-0.0449,11.3925,0.4638,12.8888,-14.258172619248043,6.2813188301688525,-1.742858100001251,1.9839999999967404
0.1198,0.9569,-0.2561,0.0729,0.1347,-0.0514,11.3925,0.4638,12.8888,-14.924086585422723,6.8625546893715335,-1.742858100001251,1.9839999999967404
0.141,0.9138,-0.2585,0.0729,0.1347,-0.0514,14.56,0.4112,13.2475,-15.738930552105556,8.361180333443746,-1.7362788999999108,2.0
0.1489,0.8889,-0.2474,0.0729,0.1347,-0.0514,20.545,2.2575,15.7675,-15.561709816872378,9.129406671529425,-1.7362788999999108,2.0
0.1318,0.8974,-0.2496,0.0694,0.1391,-0.0538,27.4312,5.0838,22.3563,-15.54386197963989,8.092253947513814,-1.66002190000287,2.014999999999418
0.1318,0.8974,-0.2599,0.0694,0.1391,-0.0538,27.4312,5.0838,22.3563,-16.13030046097716,8.032051808402686,-1.66002190000287,2.014999999999418
0.119,0.9216,-0.2599,0.0627,0.1358,-0.0598,32.0687,5.7225,31.1763,-15.760535560556535,7.109958697801371,-1.5684619000258535,2.0309999999954016
0.1185,0.9593,-0.256,0.0627,0.1358,-0.0598,33.74,5.2238,38.8325,-14.96547989605538,6.812948265763829,-1.5684619000258535,2.0309999999954016
0.126,0.9859,-0.2596,0.0627,0.1358,-0.0598,33.2325,3.6312,43.8812,-14.758122109654,7.040721819713443,-1.5103627000140172,2.0469999999986612
0.1537,0.9894,-0.2697,0.0537,0.1352,-0.057,33.2325,3.6312,43.8812,-15.233410843274372,8.493945610912697,-1.5103627000140172,2.0469999999986612
0.1782,0.9721,-0.2813,0.0537,0.1352,-0.057,30.6425,2.52,46.2262,-16.110305768294815,9.958015148772647,-1.472562700015484,2.061999999998079
0.1782,0.9721,-0.2813,0.0462,0.1338,-0.0686,30.7125,2.94,47.2412,-16.13813354819338,9.986287675957437,-1.472562700015484,2.061999999998079
0.1794,0.9554,-0.2894,0.0462,0.1338,-0.0686,32.4012,2.9838,48.0112,-16.830616290568912,10.184173021868968,-1.4248219000057578,2.0780000000013388
0.1936,0.9459,-0.2975,0.0462,0.1338,-0.0686,32.4012,2.9838,48.0112,-17.440267441766906,11.031548795997914,-1.4248219000057578,2.0780000000013388
0.2081,0.9428,-0.2985,0.0366,0.131,-0.0646,33.6787,3.4213,47.67,-17.56460686136597,11.867395790861803,-1.3735024000077494,2.0930000000007567
0.2156,0.9421,-0.3076,0.0366,0.131,-0.0646,34.3613,4.83,47.46,-18.06741157818201,12.265700125406811,-1.3735024000077494,2.0930000000007567
0.2156,0.9421,-0.3076,0.0294,0.1306,-0.0756,33.705,4.2787,46.865,-18.081674680112155,12.273208341513488,-1.3050432000249341,2.1089999999967404
0.2333,0.9343,-0.3076,0.0294,0.1306,-0.0756,33.705,4.2787,46.865,-18.219027648449604,13.322566570524247,-1.3050432000249341,2.1089999999967404
0.2522,0.9242,-0.32,0.0202,0.132,-0.0862,33.845,4.8738,45.605,-19.07285248584143,14.437355966475184,-1.2270624000090473,2.125
0.263,0.9048,-0.3203,0.0202,0.132,-0.0862,34.965,6.5188,44.3975,-19.48225587725149,15.30575081351743,-1.2270624000090473,2.125
0.2614,0.8934,-0.328,0.0202,0.132,-0.0862,35.6825,7.9887,45.3338,-20.14150101664306,15.357327134785184,-1.1072319000136974,2.139999999999418
0.2583,0.8979,-0.3358,0.0126,0.1312,-0.0847,35.6825,7.9887,45.3338,-20.49503581406305,15.085375133662751,-1.1072319000136974,2.139999999999418
0.2583,0.8979,-0.3358,0.0126,0.1312,-0.0847,35.6037,8.4613,45.8237,-20.504706860019738,15.080032437833673,-0.9718510999861167,2.1560000000026776
0.2614,0.9115,-0.34,0.0045,0.1306,-0.0958,33.8013,7.8925,45.71,-20.4574968232015,15.0406849257536,-0.9718510999861167,2.1560000000026776
0.2679,0.9157,-0.3439,0.0045,0.1306,-0.0958,33.8013,7.8925,43.47,-20.58050095417011,15.311205884709379,-0.8534635999907108,2.1710000000020955
0.2821,0.9087,-0.3536,0.0045,0.1306,-0.0958,31.7975,6.8513,44.1875,-21.2414990341119,16.119194082512383,-0.8534635999907108,2.1710000000020955
0.3052,0.8955,-0.3608,-0.0049,0.1298,-0.0922,29.9775,5.8187,41.72,-21.921879197655617,17.512763781581718,-0.7603644000140806,2.186999999998079
0.3052,0.8955,-0.3655,-0.0049,0.1298,-0.0922,29.7763,5.7225,39.375,-22.193748843996378,17.51278790264001,-0.6688043999954273,2.2030000000013388
0.3176,0.8883,-0.3655,-0.0131,0.1274,-0.1035,29.7763,5.7225,39.375,-22.359615934405888,18.27862879331493,-0.6688043999954273,2.2030000000013388
0.3258,0.8741,-0.365,-0.0131,0.1274,-0.1035,30.3188,6.16,37.5375,-22.654305605895857,18.964086825606497,-0.5764043999990129,2.2180000000007567
0.3209,0.8689,-0.373,-0.0131,0.1274,-0.1035,29.9513,7.4988,36.365,-23.21403403516417,18.750850474924444,-0.5764043999990129,2.2180000000007567
0.3187,0.8672,-0.3717,-0.0186,0.1296,-0.1038,28.7787,7.28,35.91,-23.201422836998702,18.666235135032125,-0.4599244000282518,2.2339999999967404
0.3197,0.8605,-0.3719,-0.0186,0.1296,-0.1038,28.7787,7.28,35.91,-23.367741088551465,18.827437343518774,-0.4599244000282518,2.2339999999967404
0.3197,0.8605,-0.3719,-0.0262,0.1314,-0.1146,26.915,6.405,35.3937,-23.373337344131205,18.831321689084394,-0.36384940003197996,2.2489999999961583
0.3296,0.8568,-0.3788,-0.0262,0.1314,-0.1146,25.41,5.8538,34.9212,-23.832545480338112,19.37005542809097,-0.36384940003197996,2.2489999999961583
0.3354,0.8557,-0.3869,-0.0262,0.1314,-0.1146,23.4237,5.075,33.7313,-24.30937100691321,19.646928729582072,-0.28264940001543737,2.264999999999418
0.3554,0.8492,-0.3928,-0.0309,0.1311,-0.1152,23.4237,5.075,33.7313,-24.801899329388565,20.769707808651273,-0.28264940001543737,2.264999999999418
0.3651,0.8396,-0.3921,-0.0309,0.1311,-0.1152,23.3713,4.3837,33.2238,-25.02342457726885,21.485606290880327,-0.21251020000114812,2.2810000000026776
0.3651,0.8396,-0.3976,-0.039,0.1306,-0.1171,23.5812,4.62,33.0138,-25.327349538430493,21.45607850760296,-0.21251020000114812,2.2810000000026776
0.3694,0.8334,-0.3976,-0.039,0.1306,-0.1171,23.415,4.7863,33.495,-25.497648287323354,21.794952362553513,-0.14071570003875905,2.2959999999948195
0.3686,0.8321,-0.4024,-0.0458,0.1298,-0.1163,23.415,4.7863,33.495,-25.79542440020813,21.74306187986546,-0.14071570003875905,2.2959999999948195
0.37,0.8308,-0.3988,-0.0458,0.1298,-0.1163,23.1437,4.6287,33.2762,-25.648295375892204,21.8717534704259,-0.0666565000236712,2.311999999998079
0.3751,0.83,-0.4003,-0.0458,0.1298,-0.1163,21.6825,4.795,32.9263,-25.743110276594358,22.14201821968474,-0.0666565000236712,2.311999999998079
0.3819,0.8215,-0.4034,-0.0538,0.1326,-0.1255,20.6675,4.515,33.1712,-26.134430099675708,22.63694169190637,0.0010684999737007178,2.326999999997497
0.3819,0.8215,-0.4034,-0.0538,0.1326,-0.1255,20.6675,4.515,33.1712,-26.152598248873428,22.649714317949922,0.0010684999737007178,2.326999999997497
0.3869,0.8175,-0.403,-0.0576,0.1328,-0.1222,19.6875,3.7538,33.11,-26.237410453962596,22.991903061034126,0.06112929998593671,2.3430000000007567
0.3963,0.8119,-0.4088,-0.0576,0.1328,-0.1222,19.4338,3.885,32.2,-26.70167587222473,23.540777138460967,0.06112929998593671,2.3430000000007567
0.4078,0.8022,-0.4169,-0.0576,0.1328,-0.1222,19.4338,3.885,31.5175,-27.423330384849244,24.25902801300816,0.12328929999860036,2.3590000000040163
0.4211,0.7955,-0.4149,-0.065,0.1346,-0.1365,19.3288,3.885,31.5175,-27.5386803287055,25.119215263649608,0.12328929999860036,2.3590000000040163
0.4211,0.7918,-0.4163,-0.065,0.1346,-0.1365,19.39,3.815,30.8,-27.724152143792946,25.205325297870544,0.18051429996862195,2.3739999999961583
0.4259,0.7918,-0.4163,-0.0713,0.135,-0.133,19.2588,4.025,31.115,-27.73330304777914,25.451994355718497,0.18051429996862195,2.3739999999961583
0.4281,0.7837,-0.4196,-0.0713,0.135,-0.133,19.2588,4.025,31.115,-28.14355027373118,25.70710862934077,0.24491429998174197,2.389999999999418
0.4284,0.78,-0.4192,-0.0713,0.135,-0.133,19.4338,4.2875,31.045,-28.249682361739616,25.814171341105705,0.24491429998174197,2.389999999999418
0.4271,0.7749,-0.4168,-0.0775,0.1345,-0.1269,19.1275,4.2438,31.395,-28.273482182283306,25.890104730753542,0.30857129997927174,2.404999999998836
0.431,0.7705,-0.4187,-0.0775,0.1345,-0.1269,18.8913,4.2525,31.1675,-28.50776170437107,26.16619659634234,0.30857129997927174,2.404999999998836
0.431,0.7705,-0.4187,-0.0846,0.1387,-0.1439,18.8913,4.2525,31.1675,-28.519616405858603,26.173710309356657,0.3766112999931333,2.4210000000020955
0.4336,0.764,-0.4265,-0.0846,0.1387,-0.1439,18.7687,3.9725,30.8612,-29.139036730471087,26.355651054381003,0.3766112999931333,2.4210000000020955
0.4486,0.76,-0.4344,-0.0846,0.1387,-0.1439,19.1887,3.6925,30.555,-29.720850533923056,27.11174611965113,0.4356913000051695,2.437000000005355
0.4566,0.7591,-0.4376,-0.0889,0.1386,-0.1438,19.9937,3.0013,29.8025,-29.950681112074744,27.512973947981738,0.4356913000051695,2.437000000005355
0.4671,0.7541,-0.4444,-0.0889,0.1386,-0.1438,19.9937,3.0013,29.8025,-30.484474106462795,28.070084900775324,0.48071079998158517,2.451999999997497
0.4671,0.7506,-0.4441,-0.0954,0.1368,-0.1474,19.74,2.9575,29.2425,-30.604961904748887,28.16967608136373,0.48071079998158517,2.451999999997497
0.4701,0.7506,-0.4441,-0.0954,0.1368,-0.1474,19.7575,3.4037,28.6563,-30.61080787805638,28.321003356452465,0.53516999999268,2.4680000000007567
0.4724,0.7456,-0.4392,-0.1003,0.1403,-0.1382,19.39,4.0163,28.21,-30.50590476010169,28.621474644517946,0.53516999999268,2.4680000000007567
0.4748,0.7424,-0.4405,-0.1003,0.1403,-0.1382,19.39,4.0163,28.21,-30.673880492073433,28.80584884729479,0.5954144999903422,2.4830000000001746
0.477,0.738,-0.4429,-0.1003,0.1403,-0.1382,18.9175,4.025,27.825,-30.954527800772222,28.989555039166145,0.5954144999903422,2.4830000000001746
0.4813,0.7306,-0.4387,-0.1052,0.1402,-0.1493,17.9638,3.99,27.265,-30.98182755756555,29.442566936109404,0.6592545000033482,2.4990000000034343
0.4813,0.7306,-0.4387,-0.1052,0.1402,-0.1493,17.0012,4.1912,26.6262,-30.983272590514733,29.45635178235643,0.726313699986515,2.514999999999418
0.4824,0.7194,-0.4482,-0.1104,0.142,-0.1443,17.0012,4.1912,26.6262,-31.871079357380307,29.639999137273076,0.726313699986515,2.514999999999418
0.4911,0.7135,-0.457,-0.1104,0.142,-0.1443,16.8962,3.6662,26.1362,-32.596484333852416,30.082191048396986,0.781306699984381,2.529999999998836
0.4997,0.7061,-0.4579,-0.1104,0.142,-0.1443,17.3425,3.0888,26.53,-32.9429475532239,30.681193640324814,0.781306699984381,2.529999999998836
0.5053,0.7002,-0.4588,-0.1165,0.1428,-0.149,17.3425,3.0888,26.5737,-33.21846901556123,31.102248123483086,0.8307274999944493,2.5460000000020955
0.5053,0.6992,-0.4652,-0.1165,0.1428,-0.149,18.4888,3.5263,26.5737,-33.61546329069972,31.036551825208516,0.8307274999944493,2.5460000000020955
0.5099,0.6992,-0.4652,-0.1214,0.1449,-0.155,19.0138,3.5963,26.6,-33.6359985926797,31.25722391554401,0.8846719999661894,2.5609999999942374
0.5124,0.698,-0.4611,-0.1214,0.1449,-0.155,19.1537,3.1675,26.4075,-33.458166840323685,31.480880996418282,0.8846719999661894,2.5609999999942374
0.5158,0.6996,-0.4598,-0.1214,0.1449,-0.155,19.1537,3.1675,26.4075,-33.32141403136041,31.633228997964167,0.9353519999765143,2.576999999997497
0.5194,0.6954,-0.4559,-0.1258,0.1466,-0.1573,18.865,3.4037,26.3988,-33.252293568996706,31.97933416807096,0.9353519999765143,2.576999999997497
0.5192,0.69,-0.4664,-0.1258,0.1466,-0.1573,18.1563,3.0888,26.005,-34.01415283961667,31.94092278025961,0.9847727999641087,2.5929999999934807
0.5192,0.69,-0.4664,-0.1314,0.149,-0.1512,17.6663,2.8263,25.2437,-34.05413386090784,31.939707541235276,0.9847727999641087,2.5929999999934807
0.5361,0.6858,-0.4718,-0.1314,0.149,-0.1512,17.6663,2.8263,25.2437,-34.50077985650629,32.75534751513419,1.0271672999830277,2.6080000000001746
0.5463,0.6808,-0.4781,-0.1314,0.149,-0.1575,17.4913,2.8875,24.815,-35.0474272060303,33.274617151793635,1.0271672999830277,2.6080000000001746
0.5493,0.6712,-0.4846,-0.1366,0.1491,-0.1575,18.27,3.9288,24.64,-35.788097328901756,33.55548392633421,1.090028099995834,2.6240000000034343
0.5516,0.6651,-0.4809,-0.1366,0.1491,-0.1575,18.8125,4.4275,24.43,-35.864680248425515,33.89233375450115,1.090028099995834,2.6240000000034343
0.5517,0.6584,-0.4801,-0.1425,0.1526,-0.1682,18.8125,4.4275,24.43,-36.08731494142385,34.09319894169624,1.1564405999610425,2.638999999995576
0.5517,0.6584,-0.4801,-0.1425,0.1526,-0.1682,18.4975,3.6488,23.8612,-36.09861566043803,34.09988830155841,1.1564405999610425,2.638999999995576
0.551,0.655,-0.4844,-0.1464,0.1555,-0.1617,18.27,3.535,23.415,-36.464321826012934,34.07366998486234,1.2130005999725653,2.654999999998836
0.5496,0.6545,-0.4809,-0.1464,0.1555,-0.1617,17.5088,3.2287,22.995,-36.31549659251532,34.08569520836672,1.2130005999725653,2.654999999998836
0.5571,0.6497,-0.4844,-0.1464,0.1555,-0.1617,17.5088,3.2287,22.995,-36.68597065264,34.491304151717046,1.2646597999595977,2.6709999999948195
0.5638,0.6428,-0.489,-0.1506,0.1546,-0.1569,16.6775,2.66,22.5138,-37.228697086938695,34.902445863518146,1.2646597999595977,2.6709999999948195
0.5638,0.6428,-0.489,-0.1506,0.1546,-0.1569,15.855,2.6425,21.63,-37.25953191705143,34.91706419022795,1.3042972999772862,2.6860000000015134
0.5685,0.6408,-0.4916,-0.1544,0.1562,-0.1706,15.68,2.9488,20.4925,-37.48001748282776,35.132942717904996,1.3042972999772862,2.6860000000015134
0.5711,0.6383,-0.4917,-0.1544,0.1562,-0.1706,15.68,2.9488,20.4925,-37.600311535871136,35.32152966625006,1.351478099986898,2.702000000004773
0.5742,0.6334,-0.4885,-0.1544,0.1562,-0.1706,15.4263,2.2925,20.0287,-37.63817752268247,35.65883796073379,1.351478099986898,2.702000000004773
0.5727,0.6265,-0.4898,-0.158,0.1579,-0.165,14.945,1.995,19.3725,-37.994384970549795,35.75587857204402,1.3814030999712212,2.716999999996915
0.5721,0.6203,-0.4849,-0.158,0.1579,-0.165,14.945,4.235,19.2413,-38.01406995401056,35.99317756897557,1.3814030999712212,2.716999999996915
0.5721,0.6203,-0.4849,-0.1639,0.1618,-0.1762,13.6938,2.2838,19.2413,-38.01530734024726,36.00273880420903,1.4179438999786655,2.7330000000001746
0.5755,0.6129,-0.4855,-0.1639,0.1618,-0.1762,13.5538,2.0563,18.9263,-38.35844391315368,36.33999109462115,1.4179438999786655,2.7330000000001746
0.5788,0.6074,-0.4882,-0.1639,0.1618,-0.1762,13.0638,1.9338,19.1362,-38.75968949599896,36.592078983845795,1.4488846999708989,2.7489999999961583
0.582,0.6026,-0.4845,-0.1664,0.1598,-0.1731,13.0638,1.9338,19.1362,-38.79695506782496,36.95345949787755,1.4488846999708989,2.7489999999961583
0.5809,0.596,-0.4888,-0.1664,0.1598,-0.1731,13.37,2.065,19.0138,-39.317071051404184,37.00066514486059,1.4798596999847218,2.764000000002852
0.5809,0.596,-0.4888,-0.1716,0.1606,-0.1803,13.755,2.2838,19.18,-39.353665361571025,37.00258529372685,1.4798596999847218,2.764000000002852
0.582,0.5876,-0.4923,-0.1716,0.1606,-0.1803,14.56,1.8463,19.2325,-39.917691163673844,37.19841266417612,1.5094004999773065,2.779999999998836
0.579,0.5847,-0.491,-0.1716,0.1642,-0.1805,14.56,1.8463,19.2325,-40.01501147045825,37.175281464289505,1.5094004999773065,2.779999999998836
0.5852,0.5775,-0.4909,-0.1736,0.1642,-0.1805,14.8313,1.8025,19.3025,-40.34362572199481,37.65115706351974,1.5364379999762574,2.7949999999982538
0.5959,0.5744,-0.5011,-0.1736,0.1642,-0.1805,15.5487,1.5137,19.9587,-41.0549433705791,38.00244181009231,1.5364379999762574,2.7949999999982538
0.603,0.5753,-0.5003,-0.1792,0.1653,-0.1812,16.3888,1.3125,21.035,-41.01383418487298,38.32818521594583,1.5574379999805357,2.8110000000015134
0.603,0.5753,-0.5003,-0.1792,0.1653,-0.1812,16.3888,1.3125,21.035,-41.0114524358567,38.34042542721797,1.5574379999805357,2.8110000000015134
0.612,0.5733,-0.5013,-0.1818,0.1681,-0.1819,16.9925,0.7262,21.3587,-41.158118833842444,38.76927588009933,1.569057199977619,2.826999999997497
0.6159,0.5756,-0.5048,-0.1818,0.1681,-0.1819,17.465,0.9975,21.42,-41.24564598571929,38.81393326446306,1.5840196999770384,2.841999999996915
0.615,0.573,-0.5089,-0.1818,0.1681,-0.1819,16.8088,1.1375,21.8312,-41.58875514068031,38.7492996584486,1.5840196999770384,2.841999999996915
0.6184,0.5701,-0.5084,-0.1866,0.1698,-0.1986,16.8088,1.1375,21.8312,-41.71798237045916,38.983740363534025,1.6022196999724698,2.8579999999928987
0.6184,0.5701,-0.5084,-0.1866,0.1698,-0.1986,16.5025,1.0762,21.3412,-41.725283843143025,38.99228796206249,1.6022196999724698,2.8579999999928987
0.6199,0.5653,-0.5131,-0.1898,0.1712,-0.1894,15.8638,0.7788,20.405,-42.198673308378225,39.072890209976535,1.6146804999750084,2.8739999999961583
0.6218,0.5574,-0.5175,-0.1898,0.1712,-0.1894,15.61,0.7875,19.5387,-42.8331862226709,39.258986289974324,1.6209804999762918,2.881999999997788
0.6292,0.5532,-0.519,-0.1898,0.1712,-0.1894,15.61,0.7875,19.5387,-43.15243254939891,39.65853602682696,1.6225554999766127,2.8839999999981956
0.6334,0.5473,-0.525,-0.1969,0.173,-0.1929,15.2688,-0.0525,18.4625,-43.76796864252756,39.85941845788599,1.6225554999766127,2.8839999999981956
0.6414,0.5395,-0.5284,-0.1969,0.173,-0.1929,14.8313,-0.07,17.99,-44.36394064946631,40.322594011965,1.6214354999763845,2.900000000001455
0.6414,0.5395,-0.5284,-0.198,0.1754,-0.1915,14.8313,-0.1138,16.66,-44.40189440566926,40.342195021349056,1.6214354999763845,2.900000000001455
0.6414,0.5421,-0.5265,-0.198,0.1754,-0.1915,14.3413,-0.1138,16.66,-44.17928734876589,40.323967501179375,1.6196146999768415,2.915999999997439
0.6408,0.5377,-0.5248,-0.198,0.1754,-0.1915,12.705,0.0875,16.4237,-44.29518077127493,40.453299183300466,1.6196146999768415,2.915999999997439
0.6436,0.5372,-0.5262,-0.2018,0.1775,-0.1875,12.25,-0.1575,15.26,-44.39879519584827,40.554350298283794,1.6172521999769331,2.930999999996857
0.6433,0.5373,-0.5296,-0.2018,0.1775,-0.1875,12.25,-0.1575,15.26,-44.57218883549587,40.45886256729692,1.6172521999769331,2.930999999996857
0.6433,0.5373,-0.5279,-0.2021,0.1786,-0.1979,11.445,0.0,13.6412,-44.50071487553201,40.496721944525405,1.6172521999769331,2.9470000000001164
0.6431,0.531,-0.5279,-0.2021,0.1786,-0.1979,11.0513,-0.4025,12.8538,-44.80445484571736,40.650097660191875,1.6112146999771675,2.9619999999995343
0.6478,0.5241,-0.5253,-0.2226,0.1802,-0.1958,10.7187,-0.4812,11.27,-45.042993379999814,41.09303279580496,1.6112146999771675,2.9619999999995343
0.654,0.5159,-0.5295,-0.205,0.1802,-0.1958,10.7187,-0.4812,11.27,-45.6847407316833,41.473693157006245,1.603515499975599,2.978000000002794
0.6533,0.5084,-0.53,-0.205,0.1802,-0.1958,10.6925,0.35,10.22,-46.14781496502223,41.64315360338639,1.603515499975599,2.978000000002794
0.6553,0.5017,-0.5223,-0.2083,0.181,-0.2023,10.5962,0.77,9.6687,-46.152068162189636,42.107190873069705,1.6158354999725064,2.9939999999987776
0.6553,0.5017,-0.5223,-0.2083,0.181,-0.2023,11.0337,1.4525,9.835,-46.152440356273004,42.13765005469495,1.6158354999725064,2.9939999999987776
0.6446,0.5024,-0.5272,-0.2108,0.1814,-0.1991,11.0337,1.4525,9.835,-46.36071864428251,41.55376348086557,1.637622999971661,3.0089999999981956
0.6401,0.5005,-0.52,-0.2108,0.1814,-0.1991,11.2875,1.5575,9.5638,-46.11657008854522,41.568507048771586,1.637622999971661,3.0089999999981956
0.633,0.5017,-0.522,-0.2108,0.1814,-0.1991,10.9725,1.3913,9.9312,-46.134385156570175,41.18934516615951,1.659883799966073,3.0249999999941792
0.6381,0.4978,-0.5253,-0.2118,0.1853,-0.1867,11.2875,1.2075,9.625,-46.5063537038737,41.38908356840913,1.659883799966073,3.0249999999941792
0.6381,0.4978,-0.5409,-0.2118,0.1853,-0.1867,11.2875,1.2075,9.625,-47.30454752299929,40.98757833114953,1.6779962999741558,3.040000000000873
0.6376,0.4898,-0.5369,-0.2142,0.1844,-0.1998,10.9025,0.595,9.1962,-47.59925579476494,41.24292584464619,1.6779962999741558,3.040000000000873
0.6523,0.4893,-0.5257,-0.2142,0.1844,-0.1998,11.1912,-0.0088,9.2487,-47.09907882155826,42.180280532227464,1.677855499974127,3.0560000000041327
0.6497,0.4937,-0.5292,-0.2142,0.1844,-0.1998,11.515,0.9887,8.9862,-46.996661386129915,41.93271071099433,1.677855499974127,3.0560000000041327
0.6505,0.4909,-0.5342,-0.216,0.1876,-0.2111,11.515,0.9887,8.9862,-47.384648442796596,41.88368871675085,1.6936746999701562,3.0720000000001164
0.6518,0.4892,-0.5353,-0.216,0.1876,-0.2111,11.3225,1.435,9.0738,-47.56070429576652,41.945654683011455,1.6936746999701562,3.0720000000001164
0.6518,0.4892,-0.5353,-0.2189,0.1892,-0.2047,11.69,1.4175,9.4412,-47.57518019716006,41.949891626885574,1.714937199969331,3.0869999999995343
0.6493,0.4908,-0.5312,-0.2189,0.1892,-0.2047,11.69,0.9187,9.8875,-47.28853602922727,41.91902817601679,1.714937199969331,3.0869999999995343
0.6505,0.4871,-0.5316,-0.2189,0.1892,-0.2047,11.6637,0.9187,9.8875,-47.48429744657838,42.04782146172819,1.7296363999656412,3.102999999995518
0.6539,0.4919,-0.5363,-0.2208,0.1899,-0.2142,11.0688,0.8925,9.9838,-47.473602693751424,41.94824558820552,1.7296363999656412,3.102999999995518
0.66,0.4884,-0.5316,-0.2208,0.1899,-0.2142,10.5787,0.6562,10.465,-47.429423108514825,42.40505174000915,1.7394793999700338,3.118000000002212
0.66,0.4884,-0.5366,-0.2246,0.193,-0.2066,10.5787,0.6562,10.465,-47.66935567275229,42.29715437888346,1.7394793999700338,3.118000000002212
0.6633,0.4814,-0.5366,-0.2246,0.193,-0.2066,10.2288,0.91,10.2638,-48.06462930989216,42.59724525438224,1.754039399973,3.1340000000054715
0.6598,0.4752,-0.5405,-0.2263,0.1925,-0.2042,10.4038,0.8838,9.9663,-48.624072979163074,42.51939673468676,1.754039399973,3.1340000000054715
0.6601,0.4668,-0.539,-0.2263,0.1925,-0.2042,9.765,0.5775,9.7037,-49.06056142429931,42.77434072948687,1.7632793999664786,3.1499999999941792
0.6595,0.4659,-0.5434,-0.2263,0.1925,-0.2042,9.765,0.5775,9.7037,-49.35983445219659,42.66418085672714,1.7632793999664786,3.1499999999941792
0.658,0.4582,-0.5452,-0.2272,0.1946,-0.2075,10.0712,0.8662,9.66,-49.90101755662166,42.73115519769897,1.776272399972277,3.165000000000873
0.658,0.4582,-0.5452,-0.2272,0.1946,-0.2075,9.4675,-0.7437,9.0913,-49.95018416339231,42.73553857344112,1.776272399972277,3.165000000000873
0.6673,0.4558,-0.5453,-0.2297,0.1954,-0.2098,9.765,-1.4175,9.3275,-50.09384718879016,43.16487585312618,1.7535923999779701,3.180999999996857
0.6775,0.4598,-0.5456,-0.2297,0.1954,-0.2098,9.765,-1.4175,9.3275,-49.898072323045476,43.49347701343906,1.7535923999779701,3.180999999996857
0.6823,0.4615,-0.5466,-0.2297,0.1954,-0.2098,9.5375,-1.4,9.2225,-49.832249466897125,43.63438945743603,1.7325923999787851,3.1959999999962747
0.6858,0.468,-0.5489,-0.2321,0.1974,-0.2155,9.1875,-1.3563,8.435,-49.57681271608935,43.559401337120626,1.7325923999787851,3.1959999999962747
0.6858,0.4836,-0.5486,-0.2321,0.1974,-0.2155,7.9012,-0.945,7.805,-48.714263383319334,43.18998754517841,1.7174723999757047,3.2119999999995343
0.6881,0.4694,-0.5486,-0.2334,0.1986,-0.2137,7.9012,-0.945,7.805,-49.36491576045875,43.59011900951164,1.7174723999757047,3.2119999999995343
0.692,0.4668,-0.5534,-0.2334,0.1986,-0.2137,6.7375,-0.875,7.1312,-49.78793106643044,43.69688781735158,1.703472399979219,3.227999999995518
0.692,0.4625,-0.5488,-0.2334,0.1986,-0.2137,5.3637,-0.3063,5.705,-49.86318396714507,43.932780695421094,1.703472399979219,3.227999999995518
0.6891,0.459,-0.5517,-0.2363,0.1991,-0.2212,4.7512,0.4638,4.4975,-50.17333190767488,43.84600405996298,1.7104293999823237,3.243000000002212
0.6904,0.4562,-0.5493,-0.2363,0.1991,-0.2212,4.7512,0.4638,4.4975,-50.26923046570378,44.01695027624087,1.7104293999823237,3.243000000002212
0.6904,0.4562,-0.5493,-0.2348,0.1986,-0.2065,3.675,0.5512,2.8875,-50.285413266121964,44.033561938228296,1.71924859998011,3.2589999999981956
0.6886,0.4548,-0.5536,-0.2348,0.1986,-0.2065,1.8988,0.5863,1.4612,-50.48375560735504,43.888123335400955,1.71924859998011,3.2589999999981956
0.6891,0.4494,-0.5529,-0.2348,0.1986,-0.2065,0.35,0.1663,0.0875,-50.55837893835736,44.01603411431793,1.721909399980652,3.275000000001455
0.6921,0.4451,-0.5492,-0.2353,0.1998,-0.2057,0.35,0.1663,0.0875,-50.63421181339432,44.326553741550086,1.721909399980652,3.275000000001455
0.6932,0.4412,-0.5509,-0.2353,0.1998,-0.2057,-1.0762,-0.3063,-1.0938,-51.00337986599226,44.4489927064925,1.7170085999796536,3.291000000004715
0.6932,0.4348,-0.5479,-0.2378,0.2002,-0.2144,-1.1988,-0.4288,-2.5812,-51.323901795490755,44.644494590512586,1.7170085999796536,3.291000000004715
0.6922,0.4348,-0.5479,-0.2378,0.2002,-0.2144,-1.1988,-0.4288,-3.4562,-51.461611607921114,44.67439993933848,1.710147799981376,3.3070000000006985
0.6915,0.4361,-0.5444,-0.2387,0.2006,-0.208,-1.5137,-0.595,-3.4562,-51.3630190036198,44.714933964106464,1.710147799981376,3.3070000000006985
0.6936,0.4338,-0.5438,-0.2387,0.2006,-0.208,-1.3913,-0.4375,-3.9638,-51.397355018881825,44.79151338686977,1.7035852999816306,3.3220000000001164
0.6945,0.4324,-0.5456,-0.2387,0.2006,-0.208,-1.3913,-0.2975,-4.2875,-51.521034335740545,44.82294381994013,1.6988252999828255,3.3379999999961
0.6867,0.4323,-0.5419,-0.2386,0.2026,-0.2088,-1.3913,-0.2975,-4.2875,-51.459448481614835,44.80198601220495,1.6988252999828255,3.3379999999961
0.6867,0.4323,-0.5419,-0.2386,0.2026,-0.2088,-1.5925,-0.1663,-4.97,-51.4338210563773,44.78162283138719,1.6963307999817123,3.353000000002794
0.6881,0.434,-0.5381,-0.2395,0.2002,-0.2085,-1.4612,0.1663,-5.7137,-51.236493642709206,44.82688591026696,1.6963307999817123,3.353000000002794
0.6851,0.4347,-0.5379,-0.2395,0.2002,-0.2085,-1.155,0.1312,-5.7225,-51.13550710683406,44.77505481330744,1.69842999998214,3.3690000000060536
0.6859,0.436,-0.5369,-0.2395,0.2002,-0.2085,-1.155,0.1312,-5.7225,-51.01493407777477,44.76782290912854,1.69842999998214,3.3690000000060536
0.6817,0.4322,-0.5308,-0.237,0.2006,-0.207,-1.6187,0.0088,-6.2387,-50.907519791863365,44.839352849016834,1.6985707999820405,3.3849999999947613
0.6817,0.4285,-0.533,-0.237,0.2006,-0.207,-1.4612,0.0,-6.2475,-51.08879329966923,44.88244260407168,1.6985707999820405,3.3849999999947613
0.6736,0.4285,-0.533,-0.2382,0.2,-0.2108,-1.0938,0.3675,-6.3175,-51.151508050519055,44.68138341593904,1.7040832999845006,3.400000000001455
0.6705,0.4307,-0.5351,-0.2382,0.2,-0.2108,-1.0938,0.3675,-6.3175,-51.16142733450912,44.44408581729474,1.7040832999845006,3.400000000001455
0.6729,0.4371,-0.5317,-0.2382,0.2,-0.2108,-0.595,0.1225,-6.1337,-50.91607409871768,44.38782807088286,1.7060432999840085,3.415999999997439
0.6763,0.4437,-0.5355,-0.2382,0.1992,-0.213,-0.84,-0.3413,-6.1075,-50.64040076189581,44.274727279573554,1.7060432999840085,3.415999999997439
0.678,0.446,-0.5341,-0.2382,0.1992,-0.213,-0.9538,-0.735,-6.3875,-50.37843788691814,44.26295846576799,1.6950182999844363,3.430999999996857
0.678,0.446,-0.5341,-0.2374,0.1988,-0.211,-0.9538,-0.735,-6.3875,-50.25264641679921,44.258770180410046,1.6950182999844363,3.430999999996857
0.6802,0.4438,-0.5351,-0.2374,0.1988,-0.211,-1.2775,-1.1025,-6.2387,-50.29694399781748,44.33165702548591,1.6773782999808426,3.4470000000001164
0.6825,0.4424,-0.535,-0.2374,0.1988,-0.211,-1.47,-1.155,-6.0025,-50.36779584089448,44.437755179352045,1.6773782999808426,3.4470000000001164
0.6778,0.4432,-0.5349,-0.239,0.1983,-0.2097,-1.47,-1.1812,-5.6175,-50.36054310433192,44.36570924728747,1.6584790999855867,3.4629999999961
0.6783,0.4435,-0.53,-0.239,0.1983,-0.2097,-1.4438,-1.1812,-5.6175,-50.18762439783043,44.416464808327014,1.6584790999855867,3.4629999999961
0.6783,0.4435,-0.536,-0.2395,0.199,-0.2109,-1.4875,-1.2163,-5.6875,-50.3155995238921,44.341921767198684,1.640234599977445,3.478000000002794
0.6797,0.4458,-0.536,-0.2395,0.199,-0.2109,-2.0738,-1.4438,-6.0813,-50.26989683360494,44.300781731763514,1.640234599977445,3.478000000002794
0.6787,0.4463,-0.536,-0.2386,0.196,-0.2085,-2.0738,-1.4438,-6.0813,-50.23390797164129,44.251137713337314,1.6171337999832438,3.4939999999987776
0.6793,0.4437,-0.5339,-0.2386,0.196,-0.2085,-1.8375,-0.945,-6.6325,-50.25887394495878,44.33668295900922,1.6171337999832438,3.4939999999987776
0.6822,0.4415,-0.5357,-0.2386,0.196,-0.2085,-2.4237,-1.225,-6.9475,-50.43656211940815,44.452231604351375,1.5987587999839568,3.5089999999981956
0.6839,0.4421,-0.5388,-0.2357,0.1984,-0.2131,-2.8525,-1.1725,-7.91,-50.58155756433797,44.45665626529929,1.5987587999839568,3.5089999999981956
0.6839,0.4421,-0.5388,-0.2357,0.1984,-0.2131,-2.8525,-1.1725,-7.91,-50.61797744422138,44.45767755238764,1.579998799988666,3.5249999999941792
0.686,0.4435,-0.5345,-0.2366,0.1974,-0.2137,-3.1588,-1.785,-8.0325,-50.38635235012319,44.60347286797999,1.579998799988666,3.5249999999941792
0.6864,0.4415,-0.5406,-0.2366,0.1974,-0.2137,-3.3512,-1.7587,-8.505,-50.67814626043386,44.53766321075984,1.5518595999829332,3.540999999997439
0.688,0.4443,-0.5358,-0.2366,0.1974,-0.2137,-3.29,-1.3038,-8.6975,-50.41153542239295,44.64157758942323,1.5518595999829332,3.540999999997439
0.6858,0.4463,-0.5369,-0.2362,0.1994,-0.2074,-3.29,-1.3038,-8.6975,-50.29802969101414,44.5178227647313,1.5323025999742057,3.5560000000041327
0.6858,0.4473,-0.5352,-0.2362,0.1994,-0.2074,-3.3338,-1.4175,-8.8287,-50.15399213416623,44.51562264242864,1.5323025999742057,3.5560000000041327
0.6828,0.4473,-0.5352,-0.236,0.1978,-0.2095,-3.045,-1.33,-9.1088,-50.12235996082745,44.41233007260533,1.5110225999795475,3.5720000000001164
0.6755,0.4511,-0.5373,-0.236,0.1978,-0.2095,-3.6837,-1.645,-9.625,-50.012947698022394,43.998036908282295,1.5110225999795475,3.5720000000001164
0.6758,0.4557,-0.5349,-0.236,0.1978,-0.2095,-3.6837,-1.645,-9.625,-49.66296369206701,43.9014138893365,1.486347599980505,3.5869999999995343
0.6776,0.4566,-0.5288,-0.2381,0.1957,-0.2039,-4.375,-2.1175,-10.0275,-49.27639236788345,44.08922332355583,1.4524675999890095,3.602999999995518
0.6749,0.4566,-0.5351,-0.2381,0.1957,-0.2039,-4.8125,-2.1613,-10.36,-49.48392478363463,43.854710099993206,1.4524675999890095,3.602999999995518
0.6749,0.4566,-0.5351,-0.236,0.1962,-0.205,-4.9963,-2.415,-11.2087,-49.51906788024528,43.819468530361064,1.4138275999811376,3.6189999999987776
0.6742,0.4552,-0.5325,-0.236,0.1962,-0.205,-4.9963,-2.415,-11.2087,-49.482192039878925,43.89130987893221,1.4138275999811376,3.6189999999987776
0.6748,0.4551,-0.5311,-0.236,0.1962,-0.205,-5.0225,-2.4938,-12.005,-49.41897456109197,43.963985494337884,1.3764205999644443,3.6340000000054715
0.6753,0.4532,-0.5296,-0.2327,0.1962,-0.2017,-5.1188,-2.5113,-12.2325,-49.440890486901836,44.07753931278423,1.3764205999644443,3.6340000000054715
0.6742,0.4559,-0.533,-0.2327,0.1962,-0.2017,-5.1188,-2.6163,-11.9788,-49.45532097064578,43.89298226164632,1.3345597999749523,3.650000000001455
0.6742,0.4573,-0.5298,-0.2329,0.1956,-0.1994,-4.69,-2.6163,-11.9788,-49.244448552571164,43.92553723852907,1.3345597999749523,3.650000000001455
0.6731,0.4573,-0.5298,-0.2329,0.1956,-0.1994,-3.78,-2.1263,-12.145,-49.2096024195698,43.88813359233315,1.30266529997619,3.665000000000873
0.6728,0.4591,-0.5307,-0.2326,0.1949,-0.2066,-3.8675,-1.8375,-11.55,-49.15188865794071,43.80628342701622,1.30266529997619,3.665000000000873
0.6706,0.4633,-0.5269,-0.2326,0.1949,-0.2066,-3.8675,-1.8375,-11.6112,-48.77047249823287,43.71761854481825,1.27326529998357,3.680999999996857
0.6673,0.4678,-0.5315,-0.2326,0.1949,-0.2066,-4.3575,-1.7675,-11.6112,-48.66980269900738,43.354656714410325,1.27326529998357,3.680999999996857
0.6679,0.4717,-0.5286,-0.2312,0.1934,-0.2021,-4.6025,-1.8637,-12.0138,-48.32790744137795,43.31700684881702,1.243446099977495,3.6970000000001164
0.6679,0.4717,-0.5286,-0.2312,0.1934,-0.2021,-5.2762,-2.2487,-12.5125,-48.26692627425488,43.31251047667863,1.243446099977495,3.6970000000001164
0.6695,0.4746,-0.5348,-0.2294,0.1932,-0.2074,-5.2762,-2.2487,-12.5125,-48.390229440662665,43.13874417368151,1.2097155999788038,3.7119999999995343
0.6728,0.4731,-0.5384,-0.2294,0.1932,-0.2074,-5.915,-2.8963,-13.4225,-48.65066035935717,43.184165060846524,1.2097155999788038,3.7119999999995343
0.6778,0.4762,-0.5418,-0.2294,0.1932,-0.2074,-6.125,-3.6662,-14.525,-48.68203042931851,43.21497107439015,1.1510563999935286,3.727999999995518
0.6795,0.479,-0.5373,-0.2272,0.1922,-0.2087,-6.6325,-3.745,-15.575,-48.33456270330204,43.33853628142366,1.1510563999935286,3.727999999995518
0.6808,0.4822,-0.5312,-0.2272,0.1922,-0.2087,-6.6325,-3.745,-15.575,-47.84118588612939,43.48633452615192,1.0948813999684601,3.743000000002212
0.6808,0.4822,-0.5312,-0.2262,0.191,-0.2051,-7.6388,-3.4913,-16.0825,-47.776537236178775,43.49869914025949,1.0948813999684601,3.743000000002212
0.6705,0.4838,-0.5301,-0.2262,0.191,-0.2051,-8.4438,-3.5612,-16.5112,-47.63152571052248,43.0877680344145,1.0379021999827631,3.7589999999981956
0.6656,0.486,-0.5336,-0.2262,0.191,-0.2051,-10.465,-4.1825,-17.3075,-47.669341620016205,42.7118222034375,1.0379021999827631,3.7589999999981956
0.6638,0.4906,-0.5348,-0.2248,0.1908,-0.2031,-10.465,-4.1825,-17.3075,-47.48556205186283,42.46689561870018,0.9709821999691297,3.775000000001455
0.6604,0.4963,-0.5337,-0.2248,0.1908,-0.2031,-12.1012,-4.9437,-18.0775,-47.110225144120356,42.20091008371716,0.9709821999691297,3.775000000001455
0.6604,0.4963,-0.5337,-0.2208,0.1894,-0.2116,-13.5975,-6.16,-19.7138,-47.08161912486121,42.182428381731306,0.8785822000175352,3.789999999993597
0.6622,0.5042,-0.5406,-0.2208,0.1894,-0.2116,-15.6888,-7.4025,-21.0263,-47.00046307243303,41.87259287888572,0.8785822000175352,3.789999999993597
0.664,0.5145,-0.5495,-0.2208,0.1894,-0.1977,-15.6888,-7.4025,-21.0263,-46.89097234934155,41.441019713783696,0.7601421999934058,3.805999999996857
0.6612,0.5199,-0.5422,-0.2195,0.1867,-0.1977,-17.15,-8.7063,-23.3363,-46.24046155999195,41.35896007343901,0.7601421999934058,3.805999999996857
0.6651,0.5223,-0.5415,-0.2195,0.1867,-0.1977,-18.9788,-10.22,-25.025,-46.04425925062463,41.47237736452542,0.6068421999249943,3.8210000000035507
0.6667,0.5228,-0.5411,-0.2148,0.1817,-0.1941,-21.0525,-11.7775,-26.3288,-45.988091543719214,41.54085206918121,0.6068421999249943,3.8210000000035507
0.6667,0.5228,-0.5411,-0.2148,0.1817,-0.1941,-21.0525,-11.7775,-26.3288,-45.985559324368694,41.543861782792185,0.41840219997229666,3.8369999999995343
0.6662,0.5236,-0.5371,-0.2101,0.1814,-0.1924,-22.4263,-12.4425,-27.335,-45.740073336761895,41.60745160039754,0.41840219997229666,3.8369999999995343
0.666,0.5247,-0.5338,-0.2101,0.1814,-0.1924,-23.52,-12.6788,-28.0438,-45.50260524716565,41.65979631502221,0.21554139993096846,3.853000000002794
0.6625,0.5348,-0.5288,-0.2101,0.1814,-0.1924,-23.52,-12.6788,-28.8137,-44.71028897950005,41.387349075844924,0.21554139993096846,3.853000000002794
0.6575,0.5421,-0.5305,-0.206,0.1776,-0.1973,-25.585,-12.2238,-28.8137,-44.39272915055055,40.939111759646565,0.032184400027023496,3.867999999994936
0.6575,0.5421,-0.5305,-0.206,0.1776,-0.1973,-28.4638,-12.7662,-29.96,-44.38079665773016,40.92131819195546,0.032184400027023496,3.867999999994936
0.6508,0.5488,-0.5314,-0.2028,0.1746,-0.1913,-30.9137,-12.6525,-31.5613,-44.08662838743022,40.44616003479172,-0.17025560001421897,3.8839999999981956
0.6454,0.5458,-0.5268,-0.2028,0.1746,-0.1913,-30.9137,-12.6525,-31.5613,-43.98833700056928,40.39376576560194,-0.17025560001421897,3.8839999999981956
0.6362,0.5362,-0.53,-0.2028,0.1746,-0.1913,-33.2762,-12.8013,-33.32,-44.64710556526497,40.16706379760496,-0.3622751000999094,3.8990000000048894
0.6375,0.5333,-0.526,-0.2005,0.1716,-0.1818,-34.0638,-13.0638,-35.2975,-44.60635321180362,40.39280150995839,-0.3622751000999094,3.8990000000048894
0.6372,0.539,-0.526,-0.2005,0.1716,-0.1818,-33.985,-13.4137,-36.8812,-44.309355732481336,40.23849843556893,-0.5903079999999695,3.915999999997439
0.6372,0.539,-0.526,-0.1901,0.1682,-0.1818,-33.985,-13.4137,-36.8812,-44.300897571264095,40.233865215508835,-0.5903079999999695,3.915999999997439
0.6323,0.5372,-0.515,-0.1901,0.1682,-0.1818,-33.1625,-13.615,-37.5638,-43.80617612394281,40.349591046839244,-0.8081480000443494,3.9320000000006985
0.6278,0.5472,-0.5139,-0.1901,0.1682,-0.1818,-32.305,-13.2825,-38.36,-43.220559362726036,39.91876145471636,-0.8081480000443494,3.9320000000006985
0.6253,0.569,-0.5143,-0.1839,0.1628,-0.1695,-32.4275,-13.09,-38.465,-42.14248413049292,39.210254229163944,-1.0044979999414878,3.9469999999928405
0.6177,0.5887,-0.5078,-0.1839,0.1628,-0.1695,-32.4275,-13.09,-38.465,-40.82094344231937,38.48914230221296,-1.0044979999414878,3.9469999999928405
0.6177,0.5887,-0.5078,-0.1786,0.1575,-0.1766,-34.0812,-12.3112,-38.5262,-40.78150374043504,38.468471560156104,-1.2014771999816178,3.9629999999961
0.609,0.6034,-0.5048,-0.1786,0.1575,-0.1766,-35.7088,-12.18,-39.8737,-39.93911042207064,37.763730924386415,-1.2014771999816178,3.9629999999961
0.5995,0.6102,-0.4977,-0.1786,0.156,-0.1681,-38.535,-11.585,-41.4925,-39.22044958673715,37.29597612094528,-1.3752522000591665,3.978000000002794
0.5845,0.6119,-0.4998,-0.1726,0.156,-0.1681,-38.535,-11.585,-41.4925,-39.241412032204735,36.5152345672474,-1.5606122000126375,3.9939999999987776
0.5688,0.6143,-0.4965,-0.1726,0.156,-0.1681,-39.9437,-11.4712,-43.3475,-38.95360845846261,35.77776938095861,-1.5606122000126375,3.9939999999987776
0.5678,0.6176,-0.4898,-0.1672,0.1521,-0.1621,-41.0725,-12.0312,-45.4562,-38.42959544454602,35.766695859577254,-1.7531114000518546,4.010000000002037
0.5678,0.6176,-0.4898,-0.1672,0.1521,-0.1621,-42.0088,-12.9412,-47.25,-38.41717189129733,35.76643117455231,-1.7531114000518546,4.010000000002037
0.5651,0.616,-0.4892,-0.1598,0.1484,-0.1602,-42.0088,-12.9412,-47.25,-38.454173227754104,35.694736098027484,-1.9472293999501622,4.024999999994179
0.5552,0.612,-0.4832,-0.1598,0.1484,-0.1602,-41.5713,-13.23,-48.5625,-38.29637560801833,35.45679325639923,-1.9472293999501622,4.024999999994179
0.5442,0.6195,-0.4767,-0.1598,0.1484,-0.1602,-40.565,-13.3175,-49.8312,-37.59520746522229,34.8585880115128,-2.1603093999935723,4.040999999997439
0.525,0.6325,-0.4792,-0.1516,0.1469,-0.155,-40.565,-15.5575,-50.61,-37.15931663415819,33.5177964673063,-2.1603093999935723,4.040999999997439
0.525,0.6325,-0.4792,-0.1516,0.1469,-0.155,-39.6813,-13.6237,-50.61,-37.14886760453034,33.48928866166751,-2.3646648999856423,4.055999999996857
0.5378,0.6482,-0.478,-0.1435,0.1425,-0.1491,-38.2113,-14.4375,-51.5812,-36.42493684793834,33.728096514825005,-2.3646648999856423,4.055999999996857
0.5463,0.6628,-0.4784,-0.1435,0.1425,-0.1491,-37.4938,-15.2688,-51.8875,-35.836868040472446,33.755216429056915,-2.608965700035413,4.072000000000116
0.5512,0.6698,-0.4692,-0.1435,0.1425,-0.1491,-37.4938,-15.2688,-51.8875,-35.03290432568182,33.975764049829955,-2.608965700035413,4.072000000000116
0.5534,0.6748,-0.469,-0.1334,0.1399,-0.1534,-35.7875,-15.715,-51.4063,-34.806408279043985,33.95747975506705,-2.860405700086638,4.088000000003376
0.5478,0.686,-0.4695,-0.1334,0.1399,-0.1534,-35.5337,-14.7963,-50.1987,-34.3992465849634,33.39653181425224,-2.860405700086638,4.088000000003376
0.5478,0.686,-0.4695,-0.1252,0.1371,-0.1426,-34.9388,-13.2913,-48.5537,-34.38814602442106,33.38450940830178,-3.0597751999821945,4.102999999995518
0.5485,0.6885,-0.466,-0.1252,0.1371,-0.1426,-34.9388,-13.2913,-48.5537,-34.099691606650104,33.414102407855395,-3.0597751999821945,4.102999999995518
0.5373,0.6913,-0.463,-0.1252,0.1371,-0.1426,-34.9038,-12.1538,-46.4538,-33.820278240365504,32.86641340656783,-3.2542360000218116,4.118999999998778
0.5187,0.6908,-0.4606,-0.1194,0.135,-0.1266,-34.5537,-10.9987,-44.4762,-33.69743729049569,32.01568588522195,-3.2542360000218116,4.118999999998778
0.5026,0.6906,-0.4552,-0.1194,0.135,-0.1266,-33.4775,-9.8875,-43.1725,-33.399227537501545,31.30329598059575,-3.4124360000540412,4.135000000002037
0.5026,0.6906,-0.4525,-0.1128,0.1329,-0.1326,-33.4775,-9.8875,-43.1725,-33.23868985811587,31.3297957543015,-3.4124360000540412,4.135000000002037
0.4912,0.7008,-0.4525,-0.1128,0.1329,-0.1326,-32.725,-9.8787,-41.8512,-32.86143507723025,30.512897517561743,-3.5704952000143653,4.150999999998021
0.4896,0.7202,-0.4527,-0.1066,0.1326,-0.1302,-32.7075,-10.605,-41.1425,-32.173411268499585,29.938375088808886,-3.5704952000143653,4.150999999998021
0.4946,0.7327,-0.4449,-0.1066,0.1326,-0.1302,-32.8737,-10.675,-40.8363,-31.293059745778105,29.983588768710607,-3.7412952000491617,4.167000000001281
0.5063,0.7433,-0.4416,-0.1066,0.1326,-0.1302,-32.8737,-10.675,-40.8363,-30.73186320453396,30.343300483580922,-3.7412952000491617,4.167000000001281
0.5139,0.7437,-0.4378,-0.1008,0.1289,-0.1184,-32.06,-10.0275,-41.2125,-30.49185202344182,30.76174483124017,-3.8917076999703655,4.1819999999934225
0.5139,0.7437,-0.4378,-0.1008,0.1289,-0.1184,-31.045,-8.68,-41.7113,-30.48462740095508,30.7728673093194,-3.8917076999703655,4.1819999999934225
0.5091,0.7415,-0.435,-0.0948,0.1278,-0.1186,-30.03,-5.9588,-41.2212,-30.400742682941587,30.63762654324573,-3.987048499989789,4.197999999996682
0.4988,0.7337,-0.4261,-0.0948,0.1278,-0.1186,-30.03,-5.9588,-41.2212,-30.154267724002842,30.455876788478516,-3.987048499989789,4.197999999996682
0.4862,0.7355,-0.4239,-0.0948,0.1278,-0.1186,-29.4963,-4.1213,-40.6087,-29.963132563466292,29.818876314194302,-4.048868000017376,4.213000000003376
0.4733,0.7356,-0.4215,-0.0886,0.1252,-0.1061,-27.5975,-2.1788,-40.495,-29.818013190758784,29.19065512958847,-4.048868000017376,4.213000000003376
0.4733,0.7457,-0.4164,-0.0886,0.1252,-0.1061,-26.425,-1.4175,-39.865,-29.202246032283206,28.99897419049176,-4.071548000011683,4.22899999999936
0.461,0.7457,-0.4164,-0.0834,0.1243,-0.1119,-26.425,-1.4175,-39.865,-29.179898152377362,28.37606476750368,-4.071548000011683,4.22899999999936
0.4515,0.7518,-0.4092,-0.0834,0.1243,-0.1119,-24.7013,-0.525,-39.5238,-28.583205065685046,27.826694511165616,-4.0799480000133945,4.245000000002619
0.4482,0.7603,-0.4047,-0.0834,0.1243,-0.1119,-23.59,-0.21,-39.375,-28.048466250864937,27.50075380389695,-4.0799480000133945,4.245000000002619
0.4399,0.7679,-0.4016,-0.0793,0.1223,-0.1104,-23.59,-0.21,-39.1125,-27.62666516580246,26.93025234094304,-4.083098000011744,4.259999999994761
0.4375,0.7761,-0.395,-0.0793,0.1223,-0.1104,-22.8988,0.14,-39.1125,-27.001208843876597,26.681716277960714,-4.083098000011744,4.259999999994761
0.4375,0.7761,-0.395,-0.0715,0.1219,-0.1007,-22.1812,0.5688,-38.1325,-26.9752128095086,26.674727888809652,-4.07399720000989,4.275999999998021
0.4333,0.781,-0.3931,-0.0715,0.1219,-0.1007,-21.315,1.5137,-37.7038,-26.728926258823414,26.370716711364164,-4.07399720000989,4.275999999998021
0.4258,0.7864,-0.3894,-0.0715,0.1219,-0.1007,-21.315,1.5137,-37.7038,-26.36032338833875,25.898136764790873,-4.051291700010771,4.290999999997439
0.4183,0.786,-0.3852,-0.0669,0.1225,-0.1004,-20.1863,2.3888,-36.9775,-26.12020077125482,25.553108767920346,-4.051291700010771,4.290999999997439
0.4096,0.7836,-0.3811,-0.0669,0.1225,-0.1004,-19.1625,2.8788,-35.6213,-25.9448338867545,25.188571860078255,-4.005230900001387,4.3070000000006985
0.4096,0.7839,-0.3739,-0.0613,0.1225,-0.093,-17.1325,3.71,-34.125,-25.524296445433773,25.24728904807029,-4.005230900001387,4.3070000000006985
0.4,0.7839,-0.3739,-0.0613,0.1225,-0.093,-17.1325,3.71,-34.125,-25.50126745227736,24.745953970988243,-3.945870899989294,4.323000000003958
0.3908,0.7823,-0.3728,-0.0582,0.1218,-0.1035,-16.1087,4.2088,-32.6987,-25.48107553458504,24.289901905821168,-3.8827389000223667,4.3379999999961
0.3855,0.7811,-0.3712,-0.0582,0.1218,-0.1035,-13.2738,4.2,-30.9662,-25.422696251859385,24.035038854258676,-3.8827389000223667,4.3379999999961
0.3689,0.7923,-0.3677,-0.0582,0.1218,-0.1035,-11.0425,4.27,-28.6038,-24.938936072431982,22.941804528724465,-3.814418900008448,4.35399999999936
0.3604,0.7989,-0.3596,-0.0562,0.1218,-0.0997,-11.0425,4.27,-28.6038,-24.2913776491224,22.383917139354445,-3.814418900008448,4.35399999999936
0.3604,0.7989,-0.3596,-0.0562,0.1218,-0.0997,-9.4675,3.29,-26.425,-24.23888147114381,22.361713518013378,-3.765068900010363,4.368999999998778
0.3614,0.8109,-0.3618,-0.0536,0.1222,-0.097,-8.4438,2.205,-24.5963,-24.06528905804013,22.156765630792385,-3.765068900010363,4.368999999998778
0.3608,0.8278,-0.3531,-0.0536,0.1222,-0.097,-6.615,1.8375,-23.2925,-23.225336745866564,21.86188259387847,-3.7356689000043732,4.385000000002037
0.3606,0.835,-0.3479,-0.0536,0.1222,-0.097,-6.615,1.8375,-23.2925,-22.697205108982235,21.740651634319594,-3.7356689000043732,4.385000000002037
0.3568,0.8419,-0.3481,-0.0519,0.1219,-0.0963,-6.16,1.0762,-22.12,-22.495653411317928,21.406643255769605,-3.7184497000008654,4.401000000005297
0.3568,0.8481,-0.354,-0.0519,0.1219,-0.0963,-6.37,0.9975,-21.4288,-22.634472123912094,21.2288314189056,-3.7184497000008654,4.401000000005297
0.3572,0.8481,-0.354,-0.0466,0.123,-0.0926,-6.37,0.6125,-20.4925,-22.65298445243365,21.23929053018986,-3.7092622000056785,4.415999999997439
0.3595,0.852,-0.3464,-0.0466,0.123,-0.0926,-6.0988,0.6125,-20.4925,-22.198327837577015,21.342878495909567,-3.7092622000056785,4.415999999997439
0.3546,0.8567,-0.35,-0.0466,0.123,-0.0926,-6.1337,0.525,-19.7838,-22.218909163531546,20.988632242708103,-3.700862200003967,4.4320000000006985
0.3445,0.8597,-0.359,-0.0462,0.1212,-0.0953,-6.5538,0.0875,-19.9412,-22.60676630906795,20.335658581412762,-3.700862200003967,4.4320000000006985
0.3457,0.8596,-0.3594,-0.0462,0.1212,-0.0953,-6.5538,0.0875,-19.9412,-22.67905719917928,20.35551734746203,-3.699549700004018,4.447000000000116
0.3457,0.8596,-0.3594,-0.0419,0.1227,-0.0915,-7.1312,-0.4112,-19.04,-22.688565424661554,20.35672633489181,-3.699549700004018,4.447000000000116
0.3417,0.8622,-0.3574,-0.0419,0.1227,-0.0915,-7.0525,-1.1463,-18.515,-22.536244299389107,20.12456410537824,-3.717890499999414,4.4629999999961
0.3447,0.8613,-0.3569,-0.0419,0.1227,-0.0915,-6.895,-2.0038,-18.935,-22.511368871474705,20.27975236994747,-3.717890499999414,4.4629999999961
0.3451,0.8648,-0.3601,-0.0412,0.1211,-0.0938,-6.895,-2.0038,-18.935,-22.59481134749362,20.227006494044403,-3.7499513000059457,4.47899999999936
0.3515,0.8657,-0.3559,-0.0412,0.1211,-0.0938,-7.4288,-3.0013,-18.9788,-22.376992709368082,20.559714047654044,-3.7499513000059457,4.47899999999936
0.3515,0.8666,-0.3518,-0.0395,0.122,-0.0905,-7.1225,-3.7538,-18.445,-22.12909217578977,20.59475321583102,-3.8062583000037606,4.493999999998778
0.357,0.8666,-0.3518,-0.0395,0.122,-0.0905,-8.0413,-4.3225,-17.815,-22.09863291362462,20.87106530645139,-3.8062583000037606,4.493999999998778
0.3583,0.8695,-0.3547,-0.0367,0.1234,-0.0893,-8.0413,-4.3225,-17.815,-22.182081891669572,20.883415311585587,-3.8754183000178504,4.510000000002037
0.359,0.8711,-0.3558,-0.0367,0.1234,-0.0893,-8.68,-4.0512,-17.6313,-22.213902478028395,20.883105846495024,-3.8754183000178504,4.510000000002037
0.3583,0.8714,-0.3461,-0.0367,0.1234,-0.0893,-9.2137,-3.8675,-17.4212,-21.715214462791785,20.91161260592662,-3.9334307999874594,4.524999999994179
0.3578,0.8672,-0.3509,-0.0338,0.1216,-0.0889,-9.8612,-3.3512,-17.815,-22.001365135854257,20.928937737553166,-3.9334307999874594,4.524999999994179
0.3578,0.8672,-0.3509,-0.0338,0.1216,-0.0889,-9.8612,-3.3512,-17.815,-22.027402700383856,20.930154609160283,-3.987049999998383,4.540999999997439
0.3521,0.8689,-0.3539,-0.032,0.121,-0.0867,-9.5375,-3.15,-17.9813,-22.148383823371418,20.59558715395651,-3.987049999998383,4.540999999997439
0.3511,0.8671,-0.3481,-0.032,0.121,-0.0867,-9.9838,-2.7387,-18.7162,-21.897915465012712,20.59447321753457,-4.03086920000731,4.5570000000006985
0.3507,0.8643,-0.3484,-0.032,0.121,-0.0867,-10.6313,-2.8,-18.8475,-21.94959860061557,20.621282972820197,-4.03086920000731,4.5570000000006985
0.3515,0.8636,-0.3481,-0.0294,0.1217,-0.0948,-10.6313,-2.8,-18.8475,-21.953062381745255,20.677747524962008,-4.07286920000568,4.572000000000116
0.3515,0.866,-0.347,-0.0294,0.1217,-0.0948,-10.3425,-2.73,-18.8738,-21.845860494159847,20.646982143647037,-4.07286920000568,4.572000000000116
0.3488,0.866,-0.347,-0.0271,0.1213,-0.0834,-9.7913,-2.9838,-18.83,-21.836560249480012,20.509155310427456,-4.126577599994913,4.5899999999965075
0.3548,0.865,-0.3479,-0.0271,0.1213,-0.0834,-9.7913,-3.395,-18.55,-21.90311155851039,20.812489462722077,-4.126577599994913,4.5899999999965075
0.357,0.8651,-0.3444,-0.0271,0.1213,-0.0834,-10.1062,-3.395,-18.55,-21.72510459130529,20.966021247963116,-4.177502599992937,4.6049999999959255
0.3559,0.8664,-0.3472,-0.0262,0.1226,-0.0789,-10.57,-2.6075,-18.165,-21.82824567385643,20.87842934081028,-4.177502599992937,4.6049999999959255
0.3524,0.866,-0.3434,-0.0262,0.1226,-0.0789,-10.4563,-1.8637,-17.6663,-21.64720203071165,20.73153604541496,-4.207321799999011,4.620999999999185
0.3524,0.866,-0.3434,-0.0233,0.121,-0.0747,-10.4563,-1.8637,-17.6663,-21.631574635158863,20.72110975199905,-4.207321799999011,4.620999999999185
0.3538,0.8632,-0.3406,-0.0233,0.121,-0.0747,-10.01,-1.6975,-17.7712,-21.541956184198703,20.859535831543244,-4.234481800004545,4.637000000002445
0.3511,0.8651,-0.342,-0.0233,0.121,-0.0747,-10.2638,-1.0588,-18.1563,-21.567880262949668,20.69027979297676,-4.234481800004545,4.637000000002445
0.3529,0.8676,-0.3365,-0.0225,0.1202,-0.0846,-11.0075,-0.3675,-19.0487,-21.22926638693973,20.763173419867247,-4.239994300001658,4.651999999994587
0.3511,0.8752,-0.3362,-0.0225,0.1202,-0.0846,-11.0075,-0.3675,-19.0487,-21.031570554688646,20.545256617977536,-4.239994300001658,4.651999999994587
0.3511,0.8696,-0.3371,-0.0203,0.1223,-0.0826,-10.605,0.6825,-20.5538,-21.17539678623797,20.624074198441654,-4.229074299999433,4.667999999997846
0.3456,0.8696,-0.3371,-0.0203,0.1223,-0.0826,-10.4475,0.91,-21.98,-21.18763876592545,20.348336217668123,-4.229074299999433,4.667999999997846
0.3395,0.8674,-0.3367,-0.0167,0.1205,-0.0794,-10.6838,0.7613,-23.555,-21.21249650788362,20.060887860716985,-4.217654799999877,4.682999999997264
0.3345,0.8743,-0.3339,-0.0167,0.1205,-0.0794,-10.6838,0.7613,-23.555,-20.928407120713082,19.68728152898471,-4.217654799999877,4.682999999997264
0.334,0.8825,-0.3312,-0.0167,0.1205,-0.0794,-10.465,0.9712,-24.1675,-20.601814190296626,19.51972769018282,-4.202115599996711,4.699000000000524
0.3315,0.8879,-0.3321,-0.0124,0.1214,-0.0802,-10.465,0.7437,-25.5763,-20.515392525219653,19.28551409743841,-4.202115599996711,4.699000000000524
0.3315,0.8879,-0.3321,-0.0124,0.1214,-0.0802,-11.2,0.42,-27.0637,-20.5078963952683,19.274835303553857,-4.195395599995342,4.7150000000037835
0.3316,0.8891,-0.3336,-0.0098,0.1207,-0.0718,-11.2,0.42,-27.0637,-20.561873166933335,19.249825877498395,-4.195395599995342,4.7150000000037835
0.3292,0.8949,-0.3296,-0.0098,0.1207,-0.0718,-11.9438,0.1925,-28.3762,-20.245433496464862,19.05263216836489,-4.1925080999968545,4.7299999999959255
0.3203,0.8946,-0.3289,-0.0098,0.1207,-0.0718,-12.9675,0.1575,-29.2337,-20.190187426638403,18.59332447573253,-4.1925080999968545,4.7299999999959255
0.3167,0.8987,-0.3291,-0.003,0.1231,-0.0688,-13.4225,-0.4812,-29.3388,-20.11784738147787,18.320818813045477,-4.200207299998423,4.745999999999185
0.3167,0.9055,-0.326,-0.003,0.1231,-0.0688,-13.4225,-0.4812,-29.3388,-19.821840243294474,18.21916179149834,-4.200207299998423,4.745999999999185
0.3129,0.9055,-0.326,0.0013,0.1238,-0.0711,-14.5425,-1.1988,-30.7475,-19.801390526367715,18.018364114202814,-4.220586899998214,4.7629999999990105
0.3103,0.9089,-0.3231,0.0013,0.1238,-0.0711,-16.17,-1.995,-31.745,-19.582923162199005,17.838607628299112,-4.220586899998214,4.7629999999990105
0.3063,0.9201,-0.3257,0.0013,0.1238,-0.0711,-18.41,-2.5025,-33.3812,-19.49770751359189,17.43671708800088,-4.2606268999881625,4.778999999994994
0.3063,0.9224,-0.3224,0.0046,0.1228,-0.061,-18.3925,-2.5025,-33.3812,-19.277579426248813,17.405832143765807,-4.2606268999881625,4.778999999994994
0.3118,0.918,-0.3215,0.0046,0.1228,-0.061,-21.1138,-2.24,-34.7813,-19.300105520399,17.76203318004987,-4.296466899995464,4.794999999998254
0.3118,0.918,-0.3215,0.0089,0.1219,-0.0623,-23.2138,-2.3888,-35.9888,-19.30112238264289,17.77346259356281,-4.296466899995464,4.794999999998254
0.3137,0.917,-0.3163,0.0089,0.1219,-0.0623,-23.2138,-2.3888,-35.9888,-19.04190968699341,17.916452848877885,-4.332298899994073,4.809999999997672
0.3084,0.9206,-0.3144,0.0089,0.1219,-0.0418,-24.325,-2.0563,-37.8263,-18.86318630900604,17.599250599782316,-4.332298899994073,4.809999999997672
0.2914,0.9118,-0.3106,0.013,0.1234,-0.0586,-25.6725,-2.1525,-39.585,-18.813088511371465,16.852799353583023,-4.366738900001089,4.826000000000931
0.2879,0.9193,-0.3063,0.013,0.1234,-0.0586,-26.4425,-2.2225,-40.88,-18.44145573549854,16.555658488550193,-4.366738900001089,4.826000000000931
0.2722,0.9252,-0.3003,0.0204,0.1254,-0.0594,-26.4425,-2.2225,-40.88,-17.998967241930536,15.658212056330695,-4.400076399999795,4.841000000000349
0.2736,0.9252,-0.3003,0.0204,0.1254,-0.0594,-27.9212,-2.3537,-42.7262,-17.9828875686459,15.70861628934228,-4.437735599990342,4.856999999996333
0.2613,0.9306,-0.2979,0.0282,0.1262,-0.0546,-28.8575,-2.4237,-45.4038,-17.75844621991868,14.98926871641754,-4.437735599990342,4.856999999996333
0.2556,0.927,-0.2914,0.0282,0.1262,-0.0546,-29.9513,-2.555,-48.265,-17.46031404025818,14.742795356385022,-4.47861559999867,4.8729999999995925
0.2496,0.9231,-0.2884,0.0282,0.1262,-0.0546,-29.9513,-2.555,-48.265,-17.3536819148413,14.477751655678164,-4.47861559999867,4.8729999999995925
0.2496,0.919,-0.2821,0.0361,0.1251,-0.0502,-30.3625,-2.9575,-49.945,-17.073785562400015,14.553348581090924,-4.522978099996949,4.8879999999990105
0.2496,0.919,-0.2821,0.0361,0.1251,-0.0502,-29.7413,-2.7475,-51.73,-17.0649033514932,14.55498030158833,-4.522978099996949,4.8879999999990105
0.2433,0.9173,-0.2799,0.0426,0.1276,-0.0482,-29.0063,-2.5812,-52.6488,-16.97195339370881,14.241451333923,-4.5642773000053625,4.90400000000227
0.2337,0.9148,-0.2697,0.0426,0.1276,-0.0482,-29.0063,-2.5812,-52.6488,-16.444594703698293,13.778017523977168,-4.5642773000053625,4.90400000000227
0.2215,0.9122,-0.2635,0.0426,0.1276,-0.0482,-28.07,-1.7587,-52.4475,-16.123391812549833,13.14446027232296,-4.592416499998299,4.919999999998254
0.2057,0.9099,-0.257,0.0497,0.1282,-0.0303,-26.95,-1.7325,-51.7475,-15.784764951769446,12.291925615059823,-4.592416499998299,4.919999999998254
0.1958,0.9137,-0.2505,0.0497,0.1282,-0.0303,-25.095,-2.45,-50.8112,-15.348782110788045,11.689796206699425,-4.6316165000062846,4.936000000001513
0.1958,0.9137,-0.2505,0.0564,0.1303,-0.0385,-25.095,-2.45,-50.8112,-15.332156594238223,11.677048312204063,-4.6316165000062846,4.936000000001513
0.1831,0.92,-0.2413,0.0564,0.1303,-0.0385,-23.6075,-2.7125,-50.0763,-14.722341931258036,10.913500848307056,-4.67501649999539,4.951999999997497
0.1737,0.9235,-0.2374,0.0564,0.1303,-0.0385,-23.0737,-2.6163,-48.3613,-14.429248359134174,10.337299813318618,-4.67501649999539,4.951999999997497
0.1632,0.9318,-0.2339,0.0654,0.1318,-0.0386,-23.0737,-2.3012,-46.305,-14.105176155726982,9.657360392873178,-4.709534499994051,4.966999999996915
0.153,0.9423,-0.2258,0.0654,0.1318,-0.0386,-22.6275,-2.3012,-46.305,-13.502000155789958,8.988863716710686,-4.709534499994051,4.966999999996915
0.153,0.9423,-0.2258,0.07,0.1346,-0.0286,-21.6825,-2.555,-44.9837,-13.476656140085263,8.973230074463274,-4.750414500002379,4.983000000000175
0.143,0.9496,-0.2208,0.07,0.1346,-0.0286,-20.37,-3.08,-43.1813,-13.107759246042018,8.360340094407007,-4.750414500002379,4.983000000000175
0.1327,0.9537,-0.2243,0.07,0.1346,-0.0352,-20.37,-3.08,-40.9412,-13.228916715545123,7.7308897049763825,-4.796614499978176,4.997999999992317
0.1259,0.9618,-0.2193,0.0785,0.136,-0.0352,-19.0925,-3.0013,-41.195,-12.863440670384069,7.285221624885256,-4.796614499978176,4.997999999992317
0.1191,0.967,-0.2155,0.0785,0.136,-0.0352,-18.7862,-3.8675,-39.5675,-12.578378860351608,6.866895538326297,-4.858494499990782,5.013999999995576
0.1096,0.9727,-0.2111,0.0811,0.1357,-0.0256,-18.41,-4.165,-38.4212,-12.261796211390156,6.3004193281858,-4.858494499990782,5.013999999995576
0.1096,0.9727,-0.2111,0.0811,0.1357,-0.0256,-18.41,-4.165,-38.4212,-12.245593374276465,6.284161661788973,-4.925134500004359,5.029999999998836
0.0995,0.9769,-0.2125,0.0866,0.1374,-0.0209,-17.1325,-4.6463,-37.45,-12.27062804256908,5.7013960113356035,-4.925134500004359,5.029999999998836
0.0929,0.9787,-0.208,0.0866,0.1374,-0.0209,-16.135,-5.0838,-36.3825,-12.014140205858222,5.316693135902997,-5.001391500001399,5.044999999998254
0.0825,0.9804,-0.2073,0.0866,0.1374,-0.0209,-16.065,-5.9325,-35.4813,-11.943382998329763,4.725618245467472,-5.001391500001399,5.044999999998254
0.0808,0.9808,-0.1997,0.0919,0.1408,-0.0283,-16.065,-5.9325,-35.4813,-11.533922709549104,4.618678184713843,-5.096311500020737,5.061000000001513
0.0808,0.9808,-0.1997,0.0919,0.1408,-0.0283,-15.575,-6.8162,-33.7313,-11.510151319409394,4.615332519122102,-5.096311500020737,5.061000000001513
0.0794,0.9867,-0.2015,0.0954,0.1427,-0.019,-14.84,-8.0675,-32.6987,-11.540019970036937,4.511729986012792,-5.217323999957342,5.075999999993655
0.0835,0.9912,-0.1963,0.0954,0.1427,-0.019,-14.2013,-8.6713,-31.2725,-11.224109798230897,4.716317893280527,-5.217323999957342,5.075999999993655
0.0895,0.9941,-0.1936,0.0954,0.1427,-0.019,-14.2013,-8.6713,-31.2725,-11.033646216802042,5.038108999106719,-5.3560647999856075,5.091999999996915
0.0866,0.9932,-0.1937,0.1002,0.1454,-0.0189,-14.6213,-8.5225,-29.4613,-11.035526467155583,4.897151151256354,-5.3560647999856075,5.091999999996915
0.0812,0.9909,-0.1951,0.1002,0.1454,-0.0189,-14.2187,-7.9187,-27.2563,-11.13187333170614,4.609495259199465,-5.48276400001142,5.108000000000175
0.0812,0.9909,-0.1951,0.1031,0.1434,-0.0162,-13.72,-8.0063,-25.8913,-11.138136361463287,4.597379748645595,-5.48276400001142,5.108000000000175
0.077,0.9925,-0.1908,0.1031,0.1434,-0.0162,-13.72,-8.0063,-25.8913,-10.899144388955262,4.367549976861532,-5.602858500006759,5.1229999999995925
0.0703,0.9949,-0.1922,0.1031,0.1434,-0.0162,-12.5125,-8.0238,-25.4538,-10.931450437972275,3.986918385818971,-5.602858500006759,5.1229999999995925
0.0615,1.0017,-0.1845,0.1065,0.1449,-0.0249,-11.585,-8.3912,-24.5175,-10.475121873169329,3.4807096938050948,-5.737117700034111,5.139000000002852
0.0578,1.0021,-0.1821,0.1065,0.1449,-0.0249,-11.585,-8.3912,-24.7537,-10.313140142836096,3.2590115150800765,-5.737117700034111,5.139000000002852
0.0578,1.0021,-0.1821,0.1098,0.1457,-0.0169,-12.3112,-8.7587,-24.7537,-10.300340666476473,3.2485422690039734,-5.868498199965285,5.153999999994994
0.0551,1.0066,-0.1805,0.1098,0.1457,-0.0169,-13.9563,-9.03,-25.8475,-10.174940276304447,3.091462310454544,-5.868498199965285,5.153999999994994
0.047,1.0164,-0.1779,0.1098,0.1457,-0.0081,-14.4987,-9.3275,-26.7838,-9.94369538856831,2.628808328107399,-6.017738199995689,5.169999999998254
0.0492,1.0164,-0.1768,0.1114,0.1443,-0.0081,-14.4987,-9.3275,-26.7838,-9.872572415312247,2.725991899708844,-6.017738199995689,5.169999999998254
0.0466,1.0198,-0.174,0.1114,0.1443,-0.0081,-15.4875,-10.0013,-28.2537,-9.694090740938407,2.585056331248339,-6.177759000028289,5.186000000001513
0.0478,1.0241,-0.1699,0.1158,0.1496,-0.0115,-16.1788,-10.1587,-30.3713,-9.435531140003077,2.6344507234235133,-6.330139500022376,5.201000000000931
0.0478,1.0241,-0.1699,0.1158,0.1496,-0.0115,-17.4825,-11.0688,-32.235,-9.420527818203608,2.6362988766719964,-6.330139500022376,5.201000000000931
0.0452,1.0289,-0.1635,0.1214,0.1504,-0.0074,-17.4825,-11.0688,-32.235,-9.05026177292479,2.4895838630474283,-6.507240300058457,5.217000000004191
0.0488,1.0273,-0.1656,0.1214,0.1504,-0.0074,-19.215,-10.57,-34.4575,-9.152002162870598,2.678744940067076,-6.507240300058457,5.217000000004191
0.0495,1.0255,-0.163,0.1214,0.1504,-0.0074,-21.455,-9.1962,-36.5662,-9.036771465430448,2.727733139635815,-6.645183299986193,5.231999999996333
0.048,1.0244,-0.1616,0.1268,0.1513,-0.0046,-22.7325,-8.0937,-38.6838,-8.967609743160946,2.6522198704695983,-6.645183299986193,5.231999999996333
0.048,1.0244,-0.1616,0.1268,0.1513,-0.0046,-22.7325,-8.0937,-38.6838,-8.964711243798174,2.650068877433312,-6.774682500012575,5.2479999999995925
0.0427,1.0188,-0.1612,0.1311,0.153,0.0025,-23.73,-6.7638,-41.055,-8.990046492093366,2.3779825348707484,-6.774682500012575,5.2479999999995925
0.0417,1.0136,-0.162,0.1311,0.153,0.0025,-24.5088,-5.845,-43.12,-9.077045091676666,2.3276611604353707,-6.868202500031627,5.264000000002852
0.0351,1.01,-0.161,0.1311,0.153,0.0025,-25.76,-5.005,-44.1175,-9.057828623645058,1.9745044261914029,-6.868202500031627,5.264000000002852
0.0218,1.0077,-0.1537,0.1371,0.1583,0.0042,-25.76,-5.005,-44.1175,-8.686572717602264,1.2436303586940467,-6.9432774999922975,5.278999999994994
0.0083,1.0067,-0.1498,0.1371,0.1583,0.0042,-26.7925,-4.6463,-46.0863,-8.471663959616345,0.48549934278760604,-6.9432774999922975,5.278999999994994
0.0083,1.0067,-0.1498,0.1439,0.1602,0.0108,-26.8188,-4.2525,-47.6175,-8.463966720979897,0.46764969325442735,-7.011317500006159,5.294999999998254
-0.0011,1.0123,-0.1407,0.1439,0.1602,0.0108,-26.7925,-3.6575,-49.1662,-7.932607286163205,-0.05005603059995594,-7.011317500006159,5.294999999998254
-0.0102,1.0152,-0.1403,0.1439,0.1602,0.0108,-26.7925,-3.6575,-49.1662,-7.870699765500146,-0.5588180246667145,-7.06618000000403,5.309999999997672
-0.0078,1.0182,-0.1315,0.1501,0.1636,0.0191,-27.6938,-3.4475,-50.3387,-7.376739536611092,-0.43793662915846865,-7.06618000000403,5.309999999997672
-0.0112,1.0149,-0.1259,0.1501,0.1636,0.0191,-27.965,-2.8087,-50.505,-7.081999826610625,-0.6234182553585588,-7.111119200013185,5.326000000000931
-0.0112,1.0149,-0.1259,0.1583,0.1674,0.0156,-27.965,-2.8087,-50.9075,-7.071869126913489,-0.6273715071581208,-7.111119200013185,5.326000000000931
-0.0192,1.0131,-0.1228,0.1583,0.1674,0.0156,-28.5163,-1.1988,-50.9075,-6.916645972651543,-1.0683194996763439,-7.130300000017093,5.342000000004191
-0.0289,1.0108,-0.1172,0.1583,0.1674,0.0182,-28.5688,-0.3237,-50.12,-6.6239829250586055,-1.6148170992516346,-7.130300000017093,5.342000000004191
-0.0385,1.0083,-0.114,0.1646,0.1701,0.0182,-28.28,0.0088,-48.7813,-6.456456282645868,-2.1604924279636832,-7.1301680000171626,5.356999999996333
-0.0496,1.0103,-0.1121,0.1646,0.1701,0.0182,-28.28,0.0088,-48.7813,-6.335727093045934,-2.779520947702684,-7.1301680000171626,5.356999999996333
-0.0584,1.0132,-0.1114,0.1706,0.1737,0.0204,-28.4725,0.2625,-48.195,-6.2764650741674055,-3.2679164695656904,-7.125968000016307,5.3729999999995925
-0.0584,1.0132,-0.1114,0.1706,0.1737,0.0204,-28.7525,-0.455,-47.285,-6.274462405340744,-3.2788575373617888,-7.125968000016307,5.3729999999995925
-0.0667,1.0155,-0.1031,0.1757,0.1762,0.0222,-28.5425,-0.945,-46.7775,-5.813253195317431,-3.728089889012638,-7.140143000015757,5.3879999999990105
-0.0731,1.0106,-0.0972,0.1757,0.1762,0.0222,-28.5425,-0.945,-46.7775,-5.504602156909113,-4.10921554298548,-7.140143000015757,5.3879999999990105
-0.0815,1.0109,-0.0977,0.1757,0.1762,0.0222,-28.21,-1.33,-46.1125,-5.519759756842609,-4.576745100838779,-7.1614230000200925,5.40400000000227
-0.0816,1.0113,-0.09,0.1818,0.1826,0.0326,-27.8775,-1.505,-45.85,-5.100571380366624,-4.594586198858547,-7.1614230000200925,5.40400000000227
-0.0816,1.0113,-0.09,0.1818,0.1826,0.0326,-27.37,-1.4875,-45.6662,-5.086128896034489,-4.59500820459013,-7.185223000014118,5.419999999998254
-0.0808,1.0105,-0.0856,0.1883,0.1861,0.0362,-27.37,-1.4875,-45.6662,-4.850563039908068,-4.556361904520048,-7.185223000014118,5.419999999998254
-0.0825,1.0083,-0.0851,0.1883,0.1861,0.0362,-26.5475,-1.4875,-44.66,-4.825249886497305,-4.658524797516075,-7.207535500013252,5.434999999997672
-0.0931,1.0046,-0.0819,0.1883,0.1861,0.0362,-25.7337,-0.8225,-43.8288,-4.666854762326715,-5.261907639466347,-7.207535500013252,5.434999999997672
-0.1166,0.9992,-0.0719,0.193,0.1894,0.0438,-24.6925,-0.8225,-42.91,-4.137113235921262,-6.603912189943687,-7.220695500015934,5.451000000000931
-0.1322,0.993,-0.06,0.193,0.1894,0.0438,-24.6925,-0.8225,-42.91,-3.4840859241728013,-7.54510618667595,-7.220695500015934,5.451000000000931
-0.1368,0.993,-0.06,0.1981,0.1921,0.0387,-23.6163,-1.2075,-42.7962,-3.458839899506823,-7.822578481390298,-7.238808000015231,5.466000000000349
-0.1499,1.002,-0.0575,0.1981,0.1921,0.0387,-23.5287,-2.2487,-42.8312,-3.291406851756266,-8.477503652563957,-7.238808000015231,5.466000000000349
-0.1502,1.0142,-0.0466,0.1981,0.1921,0.0387,-23.2313,-2.8875,-42.1138,-2.6578706512636714,-8.416964309634553,-7.285008000024643,5.482000000003609
-0.1421,1.0063,-0.0436,0.2014,0.1958,0.0382,-23.2313,-2.8875,-42.1138,-2.4881694753248906,-8.040216882410043,-7.285008000024643,5.482000000003609
-0.1446,0.9948,-0.0391,0.2014,0.1958,0.0382,-23.45,-2.5725,-40.9063,-2.2604735232433013,-8.258065886548492,-7.326168000014311,5.4979999999995925
-0.1446,0.9948,-0.0391,0.2057,0.1977,0.0401,-21.49,-2.6513,-39.2875,-2.2512436212491993,-8.263894564128373,-7.326168000014311,5.4979999999995925
-0.1529,0.9906,-0.0385,0.2057,0.1977,0.0401,-21.49,-2.6513,-37.1613,-2.2268287557402195,-8.752887379893926,-7.365937500012768,5.5129999999990105
-0.1604,0.9928,-0.033,0.2057,0.1977,0.0606,-19.6963,-1.7938,-37.1613,-1.9192849228016422,-9.160110445677939,-7.365937500012768,5.5129999999990105
-0.1676,0.9942,-0.0257,0.2124,0.2026,0.0493,-17.535,-1.2687,-35.3413,-1.5042581075058292,-9.552921739219592,-7.386236700016903,5.52900000000227
-0.1789,0.9992,-0.026,0.2124,0.2026,0.0493,-16.4937,-1.12,-33.67,-1.4913246969550815,-10.12774477842008,-7.403036700016251,5.544000000001688
-0.1945,1.0041,-0.019,0.2158,0.2071,0.0482,-16.4937,-1.12,-33.67,-1.1071567598167236,-10.933156972276059,-7.403036700016251,5.544000000001688
-0.1915,1.0041,-0.019,0.2158,0.2071,0.0482,-15.6012,-0.8838,-32.3575,-1.0854267667781574,-10.800556074137468,-7.417177500012702,5.559999999997672
-0.1962,1.0078,-0.0139,0.219,0.2094,0.0485,-15.5312,-1.435,-32.0863,-0.8079182459343079,-11.008061543897108,-7.417177500012702,5.559999999997672
-0.1951,1.0114,-0.0135,0.219,0.2094,0.0485,-15.75,-1.155,-31.6138,-0.7672879677910234,-10.920587538562058,-7.435657500008063,5.575999999993655
-0.1991,1.014,-0.0134,0.219,0.2094,0.0485,-15.75,-1.155,-31.6138,-0.757721557333085,-11.10114177509092,-7.435657500008063,5.575999999993655
-0.2014,1.0153,-0.0146,0.2218,0.2105,0.0546,-15.6187,-1.0325,-30.9225,-0.8199068176293719,-11.214399991382232,-7.451145000014975,5.591000000000349
-0.2014,1.0153,-0.0146,0.2218,0.2105,0.0546,-16.5637,-0.9538,-30.4937,-0.8236325374062342,-11.218539321906464,-7.451145000014975,5.591000000000349
-0.2065,1.0192,-0.0099,0.2257,0.2123,0.0562,-16.905,-0.9975,-30.4937,-0.5713366543606127,-11.444403156266764,-7.467105000018226,5.607000000003609
-0.211,1.0231,-0.0073,0.2257,0.2123,0.0562,-16.905,-0.9975,-30.4937,-0.4178210674844984,-11.645038188081672,-7.467105000018226,5.607000000003609
-0.2174,1.0257,-0.0099,0.2257,0.2123,0.0562,-17.1763,-1.3038,-31.1413,-0.5456138186571592,-11.954700362389188,-7.486662000007981,5.621999999995751
-0.2223,1.028,-0.0053,0.2294,0.2188,0.0509,-17.8762,-2.0387,-31.6138,-0.3085599729488077,-12.193077451227138,-7.486662000007981,5.621999999995751
-0.2223,1.0264,-0.0024,0.2294,0.2188,0.0509,-18.8213,-2.4413,-32.865,-0.1427239721824936,-12.219533934231224,-7.525722800015939,5.6379999999990105
-0.2327,1.0264,-0.0024,0.231,0.2197,0.0582,-18.8213,-2.4413,-32.865,-0.13441139777384453,-12.754902073145045,-7.525722800015939,5.6379999999990105
-0.249,1.0167,0.0085,0.231,0.2197,0.0582,-20.1863,-2.8437,-34.8338,0.45022489409534716,-13.728785632701774,-7.571222000004518,5.653999999994994
-0.2568,1.0194,0.0081,0.231,0.2197,0.0582,-21.9538,-3.5087,-36.645,0.45503623721789155,-14.126518919240825,-7.571222000004518,5.653999999994994
-0.2574,1.02,0.0113,0.2371,0.2248,0.0661,-23.0125,-4.4363,-37.415,0.6272783091639537,-14.161167214506227,-7.637766500034214,5.669000000001688
-0.2531,1.0103,0.0154,0.2371,0.2248,0.0661,-23.0125,-4.4363,-37.415,0.8631011717107647,-14.065603669107647,-7.637766500034214,5.669000000001688
-0.2531,1.0103,0.0154,0.2408,0.2258,0.0526,-23.2838,-4.9612,-37.8263,0.8728743373393774,-14.062778440429161,-7.717145700014289,5.684999999997672
-0.2563,0.9973,0.0174,0.2408,0.2258,0.0526,-21.9713,-4.9612,-37.6512,0.994060654422008,-14.400455024462614,-7.717145700014289,5.684999999997672
-0.2604,0.9891,0.0203,0.2408,0.2258,0.0649,-21.9713,-4.9612,-36.68,1.1678911774728502,-14.736124200148783,-7.791563700011401,5.69999999999709
-0.2654,0.9882,0.0286,0.2445,0.2287,0.0649,-20.8687,-4.6988,-36.68,1.6354940712294335,-15.018336180214835,-7.791563700011401,5.69999999999709
-0.273,0.9963,0.0318,0.2445,0.2287,0.0649,-19.46,-5.0575,-35.0,1.818794163251888,-15.306793397286688,-7.872483700027886,5.716000000000349
-0.2729,0.9942,0.0356,0.2478,0.2329,0.065,-17.8675,-5.2762,-33.5475,2.038542222504863,-15.338721047794985,-7.872483700027886,5.716000000000349
-0.2729,0.9942,0.0356,0.2478,0.2329,0.065,-17.8675,-5.2762,-33.5475,2.0501102130817745,-15.33978637040723,-7.956902900006695,5.731999999996333
-0.2835,0.9923,0.0421,0.2505,0.2358,0.0735,-17.745,-5.845,-32.5412,2.4093161681610846,-15.910616566945176,-7.956902900006695,5.731999999996333
-0.2886,0.9964,0.0425,0.2505,0.2358,0.0735,-18.2875,-5.67,-30.975,2.440684792342066,-16.13101532606354,-8.041952900044649,5.747000000003027
-0.2877,1.0011,0.049,0.2505,0.2358,0.0735,-18.97,-4.76,-29.8988,2.784186441181488,-16.0199941110817,-8.041952900044649,5.747000000003027
-0.2863,0.9966,0.0485,0.2526,0.239,0.0826,-18.97,-4.76,-29.8988,2.786030936677267,-16.01052649552683,-8.118112900025531,5.7629999999990105
-0.2863,0.9966,0.0485,0.2526,0.239,0.0826,-18.83,-4.5325,-28.805,2.7861226747747256,-16.010167416486812,-8.118112900025531,5.7629999999990105
-0.2902,0.9891,0.0454,0.2554,0.2416,0.0738,-17.9375,-4.4625,-27.6588,2.6363403861524954,-16.321802878319026,-8.185050400022934,5.777999999998428
-0.2923,0.9822,0.05,0.2554,0.2416,0.0738,-16.5375,-3.4475,-26.3725,2.8984629940780673,-16.542475842977733,-8.185050400022934,5.777999999998428
-0.293,0.9814,0.0501,0.2554,0.2416,0.0738,-16.5375,-3.4475,-26.3725,2.9210311120916828,-16.600086342827566,-8.240210400034172,5.794000000001688
-0.2963,0.9864,0.0526,0.2582,0.244,0.0803,-15.3125,-3.325,-25.0775,3.0444277653226983,-16.69258045270448,-8.240210400034172,5.794000000001688
-0.3034,0.9916,0.059,0.2582,0.244,0.0803,-14.455,-2.9575,-23.7213,3.3819304372308308,-16.969763522342266,-8.287530400022295,5.809999999997672
-0.3034,0.9916,0.059,0.259,0.2458,0.0772,-13.7375,-1.9162,-23.24,3.403516155863623,-16.983506189014186,-8.287530400022295,5.809999999997672
-0.3212,0.985,0.0676,0.259,0.2458,0.0772,-13.7375,-1.9162,-23.24,3.8908740805806805,-17.968292233767784,-8.316273400035122,5.825000000004366
-0.3289,0.9837,0.0684,0.259,0.2458,0.0772,-13.5188,-1.3563,-23.5812,3.971649232428141,-18.421966717905338,-8.316273400035122,5.825000000004366
-0.3265,0.9979,0.0728,0.2606,0.25,0.0838,-13.1425,-1.2775,-23.6163,4.158443602945151,-18.089971845164403,-8.336713400020697,5.840999999993073
-0.3255,0.9941,0.0824,0.2606,0.25,0.0838,-12.95,-0.735,-22.4175,4.6971694622317095,-18.0731116754028,-8.336713400020697,5.840999999993073
-0.3255,0.9941,0.0824,0.2627,0.2515,0.073,-12.95,-0.735,-22.4175,4.735434728824294,-18.072216758893447,-8.347738400025618,5.855999999999767
-0.3293,0.9842,0.0813,0.2627,0.2515,0.073,-12.0925,0.3762,-21.6213,4.723206349387957,-18.420563933335924,-8.341719200024391,5.872000000003027
-0.3346,0.9822,0.0815,0.2627,0.2515,0.0867,-10.8325,0.8313,-19.8975,4.741679624969746,-18.731878613113143,-8.341719200024391,5.872000000003027
-0.3433,0.9847,0.0859,0.2663,0.2547,0.0867,-10.8325,0.8313,-17.8062,4.965169502128737,-19.123297107050057,-8.32841840002773,5.8879999999990105
-0.3456,0.9842,0.0873,0.2663,0.2547,0.0867,-9.905,1.61,-17.8062,5.059548165788248,-19.267640644123972,-8.32841840002773,5.8879999999990105
-0.3506,0.9831,0.0878,0.267,0.2561,0.0754,-8.6363,2.2575,-16.3188,5.099005779081144,-19.53310031243603,-8.294555900029044,5.902999999998428
-0.3506,0.9831,0.0878,0.267,0.2561,0.0754,-7.385,2.8263,-14.9888,5.102978734328512,-19.55372817996564,-8.294555900029044,5.902999999998428
-0.3539,0.9849,0.0872,0.2682,0.2561,0.0848,-7.385,2.8263,-14.9888,5.064693636365864,-19.68133734124463,-8.249335100040396,5.918999999994412
-0.3525,0.9851,0.091,0.2682,0.2561,0.0848,-6.4313,2.5463,-14.0262,5.249611231255176,-19.618389502565844,-8.249335100040396,5.918999999994412
-0.3541,0.9843,0.0874,0.2682,0.2561,0.0848,-6.1687,1.995,-13.1163,5.098252545068513,-19.70446051866934,-8.215420100026229,5.936000000001513
-0.3579,0.9839,0.0922,0.2685,0.257,0.0878,-5.81,1.4612,-12.565,5.316696837635383,-19.886114233207323,-8.215420100026229,5.936000000001513
-0.3579,0.9839,0.0922,0.2685,0.257,0.0878,-5.81,1.4612,-12.565,5.348178780560402,-19.906326195165992,-8.192040900021466,5.952000000004773
-0.3582,0.9889,0.0928,0.2696,0.257,0.081,-5.6525,0.9887,-12.3813,5.359134849958271,-19.839679735243305,-8.192040900021466,5.952000000004773
-0.3598,0.9927,0.0914,0.2696,0.257,0.081,-6.3088,0.5688,-12.355,5.273772856105868,-19.844828420647765,-8.18294010002375,5.968000000000757
-0.3642,0.9925,0.0888,0.2696,0.257,0.081,-6.8425,-0.035,-13.0375,5.132905994048866,-20.052423321111196,-8.18294010002375,5.968000000000757
-0.3608,0.9903,0.0931,0.2705,0.2581,0.0694,-6.8425,-0.035,-13.0375,5.340868937132919,-19.94961276686059,-8.18346510002373,5.983000000000175
-0.3576,0.9862,0.0939,0.2705,0.2581,0.0694,-7.245,-1.0675,-13.405,5.427246885340779,-19.858458710439212,-8.18346510002373,5.983000000000175
-0.3576,0.9862,0.0939,0.2708,0.2613,0.0844,-8.0763,-2.0563,-13.3437,5.437688587676187,-19.849189838997717,-8.216365900015472,5.998999999996158
-0.3562,0.9869,0.0895,0.2708,0.2613,0.0844,-8.5662,-2.765,-14.3062,5.208252977263549,-19.77840531514069,-8.216365900015472,5.998999999996158
-0.3548,0.987,0.0958,0.2708,0.2613,0.0844,-8.5662,-2.765,-14.3062,5.509248254275526,-19.695328495916534,-8.25784090003398,6.014000000002852
-0.3581,0.9821,0.0996,0.2734,0.2611,0.0826,-8.96,-3.2462,-14.2625,5.762956943279684,-19.916242775297253,-8.25784090003398,6.014000000002852
-0.3648,0.9804,0.0969,0.2734,0.2611,0.0826,-9.3713,-3.7713,-14.875,5.655892162538886,-20.283373301094365,-8.318181700018833,6.029999999998836
-0.3648,0.9804,0.0969,0.2733,0.2617,0.0724,-9.7125,-4.0425,-15.1725,5.645661752983865,-20.31595107288134,-8.318181700018833,6.029999999998836
-0.3634,0.9815,0.1005,0.2733,0.2617,0.0724,-9.7125,-4.0425,-15.1725,5.827870547914789,-20.228231915969587,-8.382861700002596,6.0459999999948195
-0.3609,0.9778,0.1011,0.2733,0.2617,0.083,-9.5988,-5.5912,-15.2075,5.896125627922979,-20.165900151362532,-8.382861700002596,6.0459999999948195
-0.3608,0.9747,0.1028,0.2754,0.2634,0.083,-9.8175,-6.1775,-14.6475,6.00925895874149,-20.20587326243288,-8.475524200043948,6.061000000001513
-0.3567,0.9672,0.1064,0.2754,0.2634,0.083,-9.8175,-6.1775,-13.3525,6.25323700139045,-20.139718910821426,-8.475524200043948,6.061000000001513
-0.3545,0.9606,0.1036,0.2759,0.2646,0.0883,-9.2925,-5.495,-13.3525,6.164892367045987,-20.14779717765298,-8.563444200021879,6.076999999997497
-0.3545,0.9606,0.1036,0.2759,0.2646,0.0883,-8.0588,-4.655,-12.1625,6.156535812938047,-20.148610549423367,-8.563444200021879,6.076999999997497
-0.3556,0.9655,0.1024,0.2774,0.2674,0.0907,-7.035,-4.2787,-11.2875,6.06665030816605,-20.119689910893815,-8.627624700019387,6.091999999996915
-0.3479,0.9706,0.1044,0.2774,0.2674,0.0907,-7.035,-4.2787,-11.2875,6.130369235949226,-19.680609792951905,-8.627624700019387,6.091999999996915
-0.345,0.974,0.1069,0.2774,0.2674,0.0907,-5.3288,-3.5612,-10.6488,6.242755851736114,-19.437038050361927,-8.684603900030995,6.108000000000175
-0.3454,0.9772,0.1036,0.2769,0.2662,0.0966,-5.2762,-2.73,-10.0538,6.081556654989085,-19.37698407465703,-8.684603900030995,6.108000000000175
-0.3454,0.9772,0.1036,0.2769,0.2662,0.0966,-5.2413,-1.225,-9.5725,6.05641412866854,-19.36784704604363,-8.704203900026075,6.123999999996158
-0.3465,0.9812,0.1064,0.2778,0.2673,0.0894,-5.2413,-1.225,-9.5725,6.168096678138475,-19.34897670714948,-8.704203900026075,6.123999999996158
-0.3462,0.9806,0.1088,0.2778,0.2673,0.0894,-5.0225,-0.1312,-9.485,6.304695626486777,-19.33800038113473,-8.706171900026954,6.139000000002852
-0.3528,0.9809,0.1039,0.2778,0.2673,0.0894,-5.565,0.9712,-9.4587,6.084990073989773,-19.62230114960219,-8.706171900026954,6.139000000002852
-0.3551,0.981,0.1064,0.2763,0.2683,0.0838,-6.3437,1.8288,-9.2662,6.176073511245065,-19.762278975703264,-8.6769111000343,6.154999999998836
-0.3599,0.9778,0.1075,0.2763,0.2683,0.0838,-6.3437,1.8288,-9.2662,6.260843396367078,-20.037245599222565,-8.6769111000343,6.154999999998836
-0.3599,0.9778,0.1075,0.2779,0.2696,0.0898,-5.9588,2.345,-9.4412,6.272092584451157,-20.085889402648117,-8.641736100035665,6.169999999998254
-0.364,0.9765,0.1048,0.2779,0.2696,0.0898,-6.02,2.7125,-10.01,6.1461393698690205,-20.29736418774068,-8.641736100035665,6.169999999998254
-0.3696,0.9737,0.1077,0.2779,0.2696,0.0898,-6.5012,2.8788,-9.9575,6.29006468139367,-20.612094952003165,-8.595675300026281,6.186000000001513
-0.3691,0.967,0.108,0.279,0.2725,0.0851,-6.5012,2.8788,-9.9575,6.361874362057086,-20.748295138863572,-8.595675300026281,6.186000000001513
-0.3742,0.9649,0.1093,0.279,0.2725,0.0851,-5.5125,2.2138,-10.5787,6.4475080491910095,-21.027528650834103,-8.560254500035173,6.201999999997497
-0.3742,0.9649,0.1085,0.2797,0.269,0.093,-4.7075,2.0387,-10.5,6.421217667111682,-21.068856828205398,-8.560254500035173,6.201999999997497
-0.3797,0.9632,0.1085,0.2797,0.269,0.093,-4.1125,1.2163,-9.6163,6.425905165180011,-21.338267375304916,-8.54201000002703,6.217000000004191
-0.3764,0.9645,0.1127,0.2797,0.2721,0.0966,-4.1125,1.2163,-9.6163,6.619123710597259,-21.212190694810765,-8.54201000002703,6.217000000004191
-0.3752,0.9625,0.115,0.2796,0.2721,0.0966,-3.3688,0.8313,-8.9163,6.7702270550140184,-21.16952022712382,-8.528709200030368,6.233000000000175
-0.3821,0.9633,0.1164,0.2796,0.2721,0.0966,-2.4938,0.0175,-7.5075,6.856871916654354,-21.41155748098405,-8.528709200030368,6.233000000000175
-0.3805,0.96,0.1197,0.2771,0.272,0.0857,-2.4938,0.0175,-7.105,7.038231443414291,-21.45353236024978,-8.52844670003038,6.2479999999995925
-0.3805,0.96,0.1197,0.2771,0.272,0.0857,-1.2775,-1.2687,-7.105,7.078646167192328,-21.465431904073036,-8.548745900025283,6.263999999995576
-0.3821,0.9555,0.1208,0.2802,0.2704,0.0909,-0.4638,-1.5662,-6.2737,7.125823885481197,-21.575298582266175,-8.548745900025283,6.263999999995576
-0.3794,0.9535,0.1207,0.2802,0.2704,0.0909,1.0063,-2.0738,-5.2063,7.167264885686211,-21.562344201577815,-8.581926700032042,6.279999999998836
-0.3751,0.9545,0.1238,0.2802,0.2704,0.0909,1.0063,-2.0738,-5.2063,7.271412541946851,-21.45785791254303,-8.581926700032042,6.279999999998836
-0.3734,0.9572,0.1251,0.2801,0.2708,0.0825,2.1962,-1.9162,-3.3512,7.389080161676106,-21.28651552785324,-8.61066970004487,6.29500000000553
-0.3734,0.9572,0.1095,0.2801,0.2708,0.0825,3.6488,-2.1,-1.8025,6.716980737503029,-21.211712428582903,-8.61066970004487,6.29500000000553
-0.3773,0.9672,0.1203,0.2794,0.2706,0.0896,4.55,-2.1525,-1.3737,7.021207583607097,-21.173848677760674,-8.645109700020564,6.310999999994237
-0.377,0.9726,0.1191,0.2794,0.2706,0.0896,4.55,-2.1525,-1.3737,6.988753233862043,-21.074943094391486,-8.645109700020564,6.310999999994237
-0.3772,0.9763,0.1205,0.2794,0.2706,0.0896,5.635,-2.625,-0.7875,7.028870844690327,-20.999166018455867,-8.684484700038135,6.326000000000931
-0.3744,0.9733,0.1159,0.2791,0.2712,0.0934,5.0575,-3.0888,-0.8138,6.830931149287744,-20.925131139763856,-8.684484700038135,6.326000000000931
-0.375,0.9742,0.1123,0.2791,0.2712,0.0934,5.2587,-3.4125,-1.5838,6.617331554433471,-20.926382593223455,-8.73908470002443,6.341999999996915
-0.375,0.9742,0.1123,0.2783,0.2694,0.0894,5.2587,-3.4125,-1.5838,6.582486499422018,-20.926695945103933,-8.73908470002443,6.341999999996915
-0.37,0.975,0.1137,0.2783,0.2694,0.0894,5.25,-3.4125,-1.6712,6.640247600712066,-20.723119400719057,-8.793684700035554,6.358000000000175
-0.3669,0.9761,0.1146,0.2783,0.2694,0.0894,4.7425,-3.7362,-1.7325,6.686244147556719,-20.537000719000744,-8.793684700035554,6.358000000000175
-0.3646,0.9763,0.1077,0.2782,0.2689,0.0858,4.9963,-3.7713,-2.485,6.361761293585182,-20.420533335619403,-8.850254200033358,6.3729999999995925
-0.3637,0.9764,0.1085,0.2782,0.2689,0.0858,4.9963,-3.7713,-2.485,6.344402089247131,-20.349233425543133,-8.850254200033358,6.3729999999995925
-0.3637,0.9764,0.1241,0.2783,0.2682,0.0888,4.4713,-4.1038,-2.6163,7.075154273666897,-20.303501025459735,-8.915915000016875,6.388999999995576
-0.3631,0.9824,0.1105,0.2783,0.2682,0.0888,3.9813,-4.3837,-3.0275,6.553133710246825,-20.22096946700042,-8.915915000016875,6.388999999995576
-0.3611,0.9845,0.1069,0.2783,0.2679,0.0885,3.3863,-3.64,-3.395,6.280701090352039,-20.119650035487997,-8.97051500004124,6.40400000000227
-0.3562,0.985,0.1044,0.2769,0.2679,0.0885,3.3863,-3.64,-3.395,6.10432579934836,-19.935130754555242,-8.97051500004124,6.40400000000227
-0.3565,0.9862,0.1038,0.2769,0.2679,0.0885,3.0888,-3.465,-3.3512,6.032624005614408,-19.846180886663802,-9.025955000027324,6.419999999998254
-0.353,0.982,0.102,0.2769,0.266,0.0904,2.1437,-2.4938,-3.5875,5.964056466579174,-19.76069502397972,-9.025955000027324,6.419999999998254
-0.353,0.982,0.102,0.2769,0.266,0.0904,2.1437,-2.4938,-3.5875,5.94131420268076,-19.717738685548355,-9.065855800035452,6.436000000001513
-0.3509,0.977,0.0976,0.2769,0.2676,0.0889,1.8637,-1.7675,-3.605,5.791268945638038,-19.692213577622702,-9.065855800035452,6.436000000001513
-0.3512,0.9726,0.0971,0.2769,0.2676,0.0889,1.7237,-0.8925,-3.4213,5.735946199451561,-19.730578081853857,-9.079243300034932,6.451000000000931
-0.3543,0.9666,0.0962,0.2769,0.2676,0.0889,1.9863,-1.0237,-3.1237,5.701915140989341,-19.913291016323463,-9.079243300034932,6.451000000000931
-0.3576,0.9673,0.0947,0.2747,0.2671,0.0942,1.9863,-1.0237,-3.1237,5.630150220758898,-20.083202795502775,-9.09562250003082,6.466999999996915
-0.3576,0.9673,0.0992,0.2747,0.2671,0.0942,2.8175,-0.385,-2.7125,5.79434559426431,-20.15370217720995,-9.09562250003082,6.466999999996915
-0.3577,0.9721,0.0992,0.2764,0.2656,0.0863,3.2287,-0.6125,-1.6275,5.818808020573991,-20.118015293235032,-9.10481000003492,6.482000000003609
-0.3552,0.9737,0.0986,0.2764,0.2656,0.0863,3.6312,-0.6913,-1.4525,5.790365529060457,-19.989032295729395,-9.10481000003492,6.482000000003609
-0.3595,0.9756,0.0977,0.2764,0.2656,0.0863,3.6312,-0.6913,-1.4525,5.734643060785875,-20.100240442383516,-9.115870800032143,6.4979999999995925
-0.3572,0.975,0.105,0.277,0.2655,0.0791,4.025,-0.0263,-1.1375,6.062483750598359,-20.03365264882599,-9.115870800032143,6.4979999999995925
-0.3567,0.9713,0.1008,0.277,0.2655,0.0791,4.2438,0.1838,-0.945,5.951763278143091,-20.059125809807664,-9.112930000031543,6.514000000002852
-0.3567,0.9713,0.1008,0.2752,0.2638,0.0842,4.6287,0.175,-1.1812,5.92974928347029,-20.064543200428773,-9.112930000031543,6.514000000002852
-0.3579,0.9629,0.0986,0.2752,0.2638,0.0842,4.6287,0.175,-1.1812,5.861760965667855,-20.240405992732594,-9.110305000032918,6.528999999994994
-0.3528,0.9611,0.0949,0.2752,0.2638,0.0842,5.8625,0.7875,-0.6913,5.672221229568808,-20.102802605492315,-9.110305000032918,6.528999999994994
-0.3566,0.9626,0.0977,0.2758,0.2658,0.0931,6.825,0.8138,0.4375,5.779432803094028,-20.210475816844994,-9.097284200030265,6.544999999998254
-0.3581,0.9675,0.0946,0.2758,0.2658,0.0931,8.225,1.2075,1.785,5.605931967125989,-20.220788040443214,-9.097284200030265,6.544999999998254
-0.3581,0.9675,0.0903,0.2752,0.2636,0.085,8.225,1.2075,1.785,5.362256129674646,-20.228948616937338,-9.079171700022181,6.560000000004948
-0.3587,0.9722,0.0903,0.2752,0.2636,0.085,9.52,0.8575,2.485,5.311891534317232,-20.179156358342826,-9.079171700022181,6.560000000004948
-0.3583,0.9714,0.0901,0.2752,0.2638,0.0733,10.115,1.015,3.2287,5.300335366956889,-20.168293577269424,-9.062931700026258,6.576000000000931
-0.3581,0.9758,0.0878,0.2734,0.2638,0.0733,10.115,0.9625,4.1038,5.155942306289016,-20.086948949159076,-9.062931700026258,6.576000000000931
-0.355,0.9775,0.0866,0.2734,0.2638,0.0733,11.1213,0.9625,4.1038,5.07057312802766,-19.908385420671674,-9.046569200026426,6.593000000000757
-0.3531,0.9758,0.0849,0.2727,0.2606,0.0819,11.69,0.6562,5.6525,4.980333189630907,-19.831497910846608,-9.046569200026426,6.593000000000757
-0.3531,0.9758,0.0849,0.2727,0.2606,0.0819,13.1075,0.8487,7.245,4.973086204567801,-19.824568213885442,-9.033838700033094,6.607999999992899
-0.3526,0.9778,0.0835,0.2726,0.2572,0.0775,13.1075,0.8487,7.245,4.887565652506213,-19.768030505127445,-9.033838700033094,6.607999999992899
-0.3486,0.9824,0.0782,0.2726,0.2572,0.0775,14.455,1.0412,8.9775,4.573150352835066,-19.49981762638696,-9.0171795000297,6.623999999996158
-0.3529,0.9872,0.084,0.2726,0.2572,0.0775,15.645,1.2513,11.0337,4.845952010773552,-19.598967403842437,-9.0171795000297,6.623999999996158
-0.3527,0.9919,0.0788,0.269,0.2574,0.0729,16.0212,0.4462,11.8387,4.560216382325261,-19.522228447946237,-9.010486500026714,6.639000000002852
-0.3527,0.9919,0.0739,0.269,0.2574,0.0729,16.0212,0.4462,11.8387,4.278583918243715,-19.524251780172346,-9.003347300028505,6.654999999998836
-0.3517,0.9886,0.0739,0.2677,0.2531,0.0759,16.3625,0.42,12.6875,4.2752391892903985,-19.532468627487166,-9.003347300028505,6.654999999998836
-0.3492,0.993,0.0697,0.2677,0.2531,0.0759,16.4587,-0.0962,12.2587,4.030094231635686,-19.34210245011487,-9.00488650002882,6.6710000000020955
-0.3445,0.9994,0.0708,0.2677,0.2531,0.0759,16.17,-0.7,11.4012,4.050909155778261,-18.996884601803178,-9.015386500023318,6.685999999994237
-0.3354,0.9972,0.0681,0.2655,0.2525,0.069,16.17,-0.7,11.4012,3.9151931146089054,-18.576040406507776,-9.015386500023318,6.685999999994237
-0.332,0.9983,0.0598,0.2655,0.2525,0.069,15.3562,-1.2687,10.0712,3.458047073679153,-18.378143217223258,-9.035685700027454,6.701999999997497
-0.332,0.9983,0.0598,0.2662,0.2512,0.0718,13.79,-1.5488,9.2487,3.4300736031247983,-18.365544922622295,-9.035685700027454,6.701999999997497
-0.3265,0.9984,0.0553,0.2662,0.2512,0.0718,13.0463,-1.7325,8.3212,3.188960368302162,-18.103364396278973,-9.035685700027454,6.701999999997497
-0.3227,0.9983,0.0497,0.2662,0.2512,0.0718,13.0463,-1.7325,8.3212,2.874444207206368,-17.90781730290382,-9.061673200039051,6.717000000004191
-0.3178,1.0012,0.0466,0.2628,0.2482,0.0646,12.4075,-2.485,7.0,2.680643342900959,-17.61762796857985,-9.061673200039051,6.717000000004191
-0.3132,1.0052,0.0447,0.2628,0.2482,0.0646,11.62,-3.22,5.7225,2.556958327150407,-17.31891296878617,-9.113193200026119,6.733000000000175
-0.3132,1.0052,0.0419,0.2612,0.2466,0.0688,10.0887,-3.255,4.3925,2.4024093637037325,-17.29457260741258,-9.113193200026119,6.733000000000175
-0.3073,1.0064,0.0419,0.2612,0.2466,0.0688,10.0887,-3.255,4.3925,2.385724766032111,-16.998935848141365,-9.16527320003673,6.749000000003434
-0.3074,1.0067,0.0361,0.2612,0.2463,0.067,8.645,-4.165,2.765,2.08861857041223,-16.973457066349546,-9.16527320003673,6.749000000003434
-0.3076,1.006,0.042,0.2622,0.2463,0.067,7.4025,-4.5062,1.2775,2.3541734618152894,-16.98577098097204,-9.23286620000132,6.763999999995576
-0.3032,1.0022,0.0356,0.2622,0.2463,0.067,7.4025,-2.2662,-0.2887,2.073046202625119,-16.85325955296747,-9.23286620000132,6.763999999995576
-0.3027,1.0009,0.0355,0.2596,0.2469,0.0775,5.6175,-4.4012,-0.2887,2.0377502713974645,-16.823693543800953,-9.303285400015666,6.779999999998836
-0.3027,1.0009,0.0355,0.2596,0.2469,0.0775,3.9025,-5.0487,-2.2662,2.032666771331396,-16.818881696311237,-9.303285400015666,6.779999999998836
-0.3025,0.9991,0.0327,0.259,0.2453,0.0695,2.6513,-5.4513,-3.85,1.9194656379984245,-16.8262443739613,-9.385054900012493,6.794999999998254
-0.3004,0.998,0.0308,0.259,0.2453,0.0695,2.6513,-5.4513,-3.85,1.810773193608069,-16.7917647891646,-9.385054900012493,6.794999999998254
-0.3026,0.9999,0.0306,0.259,0.2453,0.0695,1.3388,-5.9938,-5.6788,1.7790745464393793,-16.811787809537837,-9.48095570003203,6.811000000001513
-0.3047,1.0007,0.0275,0.261,0.245,0.0746,0.42,-6.3525,-7.105,1.7328451487896257,-16.89561231428033,-9.48095570003203,6.811000000001513
-0.3047,1.0007,0.0431,0.261,0.245,0.0746,-1.0938,-6.2038,-8.7587,2.1362321643147286,-16.915304836765593,-9.580216500007113,6.826999999997497
-0.3037,1.001,0.0329,0.2605,0.246,0.0694,-1.0938,-6.2038,-8.7587,1.9966480196339682,-16.87795976427299,-9.580216500007113,6.826999999997497
-0.3003,0.997,0.0315,0.2605,0.246,0.0694,-1.575,-6.6238,-9.9225,1.8788106709623449,-16.774041767267875,-9.679573500003258,6.841999999996915
-0.2988,0.9932,0.0276,0.2605,0.246,0.0694,-2.0563,-6.3175,-10.2812,1.681899557017149,-16.743028413167135,-9.679573500003258,6.841999999996915
-0.2943,0.9878,0.0321,0.2621,0.2463,0.0806,-2.0563,-6.1163,-10.3162,1.804942644809226,-16.6061972972778,-9.777434300023195,6.858000000000175
-0.2933,0.985,0.0314,0.2621,0.2463,0.0806,-2.0563,-6.1163,-10.3162,1.8192969827872856,-16.578617306385265,-9.777434300023195,6.858000000000175
-0.2933,0.985,0.0314,0.2614,0.2462,0.0713,-1.68,-5.5563,-9.4762,1.823527475828663,-16.57462605563913,-9.860778799979533,6.872999999992317
-0.2937,0.9841,0.0283,0.2614,0.2462,0.0713,-1.365,-5.5475,-9.2925,1.7179173920500515,-16.604632880792767,-9.860778799979533,6.872999999992317
-0.2987,0.9912,0.0301,0.2614,0.2462,0.0713,-0.9625,-5.0225,-8.785,1.7291166149869859,-16.73257737342967,-9.941138799995905,6.888999999995576
-0.2963,0.9896,0.0373,0.2606,0.2494,0.0691,-0.9625,-5.0225,-8.785,1.9532097560922859,-16.671722607352553,-9.941138799995905,6.888999999995576
-0.2962,0.9869,0.0308,0.2606,0.2494,0.0691,-0.7525,-4.8387,-7.6562,1.875611933073248,-16.69192788404521,-10.018558000011677,6.904999999998836
-0.2962,0.9869,0.0464,0.2616,0.2483,0.073,0.6037,-3.8763,-6.0375,2.1384557188422826,-16.690047687049383,-10.018558000011677,6.904999999998836
-0.2963,0.9858,0.0317,0.2616,0.2483,0.073,2.0912,-2.9313,-4.5675,1.9419402943747863,-16.690355487935683,-10.06252750000997,6.919999999998254
-0.2935,0.9846,0.0329,0.2616,0.2476,0.0712,2.0912,-2.9313,-4.5675,1.9233006159455668,-16.6893563109882,-10.06252750000997,6.919999999998254
-0.2972,0.9891,0.032,0.2638,0.2476,0.0712,3.6662,-1.8725,-1.9512,1.868511714376061,-16.708624573581943,-10.092487500016075,6.936000000001513
-0.3021,0.9913,0.0326,0.2638,0.2476,0.0712,5.0662,-1.295,1.225,1.881022579980652,-16.90601875208862,-10.092487500016075,6.936000000001513
-0.3011,0.9975,0.039,0.2604,0.2441,0.0688,5.0662,-1.295,4.06,2.1787050159972465,-16.797181793098048,-10.113207500020296,6.952000000004773
