AcclX,AcclY,AcclZ,MagX,MagY,MagZ,GyroX,GyroY,GyroZ,Roll,Pitch,Yaw,Time Elapsed(s)
-0.0131,0.998,-0.2431,0.1438,0.1744,-0.0274,-0.595,-2.31,-3.57,0,0,0,0.0
-0.0131,0.998,-0.2431,0.1438,0.1744,-0.0274,-1.12,-2.8263,-3.36,0,0,0,0.015000000006693881
-0.0172,0.9904,-0.2482,0.1452,0.1734,-0.031,-0.6737,-3.4037,-3.955,0,0,0,0.015000000006693881
-0.0099,0.985,-0.2462,0.1452,0.1734,-0.031,0.3325,-3.8937,-4.655,0,0,0,0.031000000002677552
-0.0006,0.985,-0.2433,0.1452,0.1734,-0.031,0.3325,-3.8937,-4.655,0,0,0,0.031000000002677552
0.0127,0.9832,-0.2436,0.144,0.1738,-0.0292,1.0063,-4.3313,-4.655,0,0,0,0.046000000002095476
0.0127,0.9832,-0.2436,0.144,0.1738,-0.0292,1.1725,-3.6575,-4.06,0,0,0,0.046000000002095476
0.0237,0.9864,-0.2412,0.1432,0.1757,-0.0298,1.5313,-2.835,-3.8763,0,0,0,0.06400000000576256
0.0298,0.9916,-0.2416,0.1432,0.1757,-0.0298,1.5313,-2.835,-3.8763,0,0,0,0.06400000000576256
0.03,0.9958,-0.2396,0.1432,0.1757,-0.0298,1.9512,-1.7763,-3.6662,0,0,0,0.08000000000174623
0.0316,0.9986,-0.2404,0.1426,0.1748,-0.0311,2.3363,-0.6475,-3.5438,0,0,0,0.08000000000174623
0.0231,1.0038,-0.2444,0.1426,0.1748,-0.0311,1.7587,0.21,-3.5875,0,0,0,0.09500000000844011
0.0231,1.0038,-0.2444,0.1421,0.1744,-0.032,1.7587,0.21,-3.5875,0,0,0,0.09500000000844011
0.0154,1.0074,-0.2456,0.1421,0.1744,-0.032,1.4963,0.665,-3.3512,0,0,0,0.11300000000483124
0.005,1.0082,-0.2427,0.1421,0.1744,-0.032,1.5225,0.42,-4.7775,0,0,0,0.12000000000261934
-0.0032,1.0026,-0.2441,0.1442,0.1737,-0.0297,0.8925,0.1225,-6.3437,0,0,0,0.12800000000424916
-0.0087,1.0024,-0.246,0.1442,0.1737,-0.0297,0.8925,0.1225,-6.3437,0,0,0,0.13600000000587897
-0.0087,1.0024,-0.246,0.1454,0.1726,-0.0325,0.7613,-0.56,-7.6125,0,0,0,0.1440000000075088
-0.0129,0.9999,-0.2489,0.1454,0.1726,-0.0325,0.4725,-1.47,-8.1988,0,0,0,0.1440000000075088
-0.0139,0.9959,-0.2439,0.1454,0.1726,-0.0274,0.4725,-1.47,-9.2837,0,0,0,0.1590000000069267
-0.0118,0.9943,-0.2456,0.1465,0.175,-0.0274,0.315,-2.0738,-9.2837,0,0,0,0.1590000000069267
-0.0104,0.9996,-0.2485,0.1465,0.175,-0.0274,0.6125,-2.555,-9.1525,0,0,0,0.17500000000291038
-0.0132,1.0038,-0.2462,0.1441,0.1762,-0.0365,0.4812,-2.555,-8.995,0,0,0,0.17500000000291038
-0.0132,1.0038,-0.2462,0.1441,0.1762,-0.0365,0.4812,-2.555,-8.995,0,0,0,0.19100000000617
-0.0146,1.0062,-0.2486,0.1458,0.1758,-0.0288,0.1663,-2.3625,-8.5837,0,0,0,0.19100000000617
-0.0173,1.0069,-0.2457,0.1458,0.1758,-0.0288,-0.7,-2.7825,-8.2863,0,0,0,0.20600000000558794
-0.0208,1.0063,-0.2448,0.1458,0.1758,-0.0288,-1.33,-3.185,-8.2863,0,0,0,0.20600000000558794
-0.0246,1.0025,-0.2428,0.1462,0.1762,-0.0466,-1.33,-3.185,-8.2863,0,0,0,0.22200000000884756
-0.0246,1.0025,-0.2428,0.1462,0.1762,-0.0466,-1.2163,-3.1237,-8.225,0,0,0,0.22200000000884756
-0.0253,0.9985,-0.2444,0.1483,0.1761,-0.0311,-1.6013,-3.6837,-8.1025,0,0,0,0.23700000000098953
-0.0199,0.9969,-0.2415,0.1483,0.1761,-0.0311,-2.0738,-4.13,-8.3475,0,0,0,0.23700000000098953
-0.0195,0.9901,-0.2395,0.1483,0.1761,-0.0311,-2.0738,-4.13,-8.3475,0,0,0,0.25300000000424916
-0.0231,0.984,-0.2404,0.1469,0.1745,-0.0386,-1.855,-3.64,-7.7787,0,0,0,0.25300000000424916
-0.0221,0.9869,-0.2417,0.1469,0.1745,-0.0386,-1.1375,-3.6312,-7.49,0,0,0,0.2690000000075088
-0.0221,0.9869,-0.2417,0.1485,0.1757,-0.029,-0.21,-3.57,-7.3325,0,0,0,0.2690000000075088
-0.0196,0.9884,-0.2432,0.1485,0.1757,-0.029,-0.21,-3.57,-7.3325,0,0,0,0.28399999999965075
-0.0134,0.9883,-0.243,0.1485,0.1757,-0.029,0.3237,-3.1063,-7.8663,0,0,0,0.28399999999965075
-0.0092,0.9886,-0.2441,0.1495,0.1774,-0.0204,0.2713,-2.4413,-7.9012,0,0,0,0.3000000000029104
-0.0035,0.9911,-0.2447,0.1495,0.1774,-0.0204,0.42,-1.3038,-7.9012,0,0,0,0.3000000000029104
-0.0035,0.9911,-0.2447,0.1455,0.1757,-0.0345,0.42,-1.3038,-7.9012,0,0,0,0.3170000000100117
-0.0002,0.9964,-0.2456,0.1455,0.1757,-0.0345,1.0675,-0.07,-7.5687,0,0,0,0.3170000000100117
-0.0052,1.0018,-0.2449,0.1455,0.1757,-0.0289,0.735,1.1113,-7.4988,0,0,0,0.3330000000059954
-0.0115,1.0061,-0.2467,0.1482,0.1768,-0.0289,0.735,1.1113,-8.4,0,0,0,0.3330000000059954
-0.015,1.0089,-0.2458,0.1482,0.1768,-0.0289,0.6037,1.4525,-8.4,0,0,0,0.349000000009255
-0.0178,1.0147,-0.2415,0.1487,0.1757,-0.0281,0.49,2.1263,-8.54,0,0,0,0.349000000009255
-0.0178,1.0147,-0.2415,0.1487,0.1757,-0.0281,-0.1488,2.3275,-8.4175,0,0,0,0.364000000001397
-0.0259,1.0062,-0.2434,0.1483,0.1776,-0.0287,-0.1488,2.3275,-8.4175,0,0,0,0.364000000001397
-0.0329,0.9983,-0.248,0.1483,0.1776,-0.0287,-0.8925,2.4675,-8.7762,0,0,0,0.38100000000122236
-0.0337,0.9948,-0.2454,0.1483,0.1776,-0.0287,-0.3588,2.3363,-8.8287,0,0,0,0.38100000000122236
-0.03,0.9905,-0.245,0.1507,0.1794,-0.0387,-0.2975,1.4525,-8.0238,0,0,0,0.39600000000791624
-0.03,0.9905,-0.245,0.1507,0.1794,-0.0387,-0.2975,1.4525,-8.0238,0,0,0,0.39600000000791624
-0.0246,0.995,-0.2469,0.1483,0.1782,-0.0346,0.2975,1.2163,-7.0437,0,0,0,0.4120000000038999
-0.0236,1.0036,-0.2511,0.1483,0.1782,-0.0346,0.7525,1.4525,-6.5275,0,0,0,0.4120000000038999
-0.0249,1.0122,-0.2503,0.1483,0.1782,-0.0346,0.805,0.9187,-6.2737,0,0,0,0.42800000000715954
-0.0243,1.0172,-0.2479,0.1494,0.1778,-0.0303,0.805,0.9187,-6.2737,0,0,0,0.42800000000715954
-0.0243,1.0209,-0.248,0.1494,0.1778,-0.0303,0.8575,0.8662,-6.2913,0,0,0,0.4429999999993015
-0.0268,1.0209,-0.248,0.1494,0.1778,-0.0317,-0.1838,0.4112,-6.1775,0,0,0,0.4429999999993015
-0.0248,1.022,-0.2472,0.1494,0.1778,-0.0317,-0.8838,-0.1488,-6.58,0,0,0,0.45900000000256114
-0.0259,1.0199,-0.2419,0.1494,0.1778,-0.0317,-0.8838,-0.1488,-6.58,0,0,0,0.45900000000256114
-0.0246,1.006,-0.2409,0.1506,0.1778,-0.0301,-2.1962,-0.4375,-6.2737,0,0,0,0.474000000009255
-0.0252,0.9933,-0.2433,0.1506,0.1778,-0.0301,-2.6862,-0.1838,-6.0375,0,0,0,0.474000000009255
-0.0252,0.9933,-0.2433,0.1501,0.1772,-0.0262,-2.3363,-0.0525,-5.81,0,0,0,0.4900000000052387
-0.0239,0.979,-0.2484,0.1501,0.1772,-0.0262,-2.3363,-0.0525,-5.81,0,0,0,0.4900000000052387
-0.0201,0.9706,-0.2465,0.1501,0.1772,-0.0262,-1.2337,-0.1138,-5.0838,0,0,0,0.5060000000084983
-0.0153,0.9682,-0.2488,0.1504,0.1774,-0.0381,-0.49,-0.1925,-4.5675,0,0,0,0.5060000000084983
-0.0086,0.9698,-0.2547,0.1504,0.1774,-0.0381,-0.49,-0.1925,-2.3275,0,0,0,0.5210000000006403
-0.0086,0.9785,-0.2536,0.1491,0.1773,-0.0373,1.2513,0.315,-4.3225,0,0,0,0.5210000000006403
-0.0012,0.9785,-0.2536,0.1491,0.1773,-0.0373,2.38,0.735,-4.0775,0,0,0,0.5370000000038999
0.0018,0.9885,-0.2514,0.1477,0.177,-0.0284,3.3163,0.7262,-4.1125,0,0,0,0.5370000000038999
0.0075,0.9966,-0.2475,0.1477,0.177,-0.0284,3.3163,0.7262,-4.1125,0,0,0,0.5520000000033178
0.004,0.9964,-0.2504,0.1477,0.177,-0.0284,3.3688,1.505,-4.7863,0,0,0,0.5680000000065775
-0.0016,0.9925,-0.2494,0.148,0.1778,-0.0316,2.45,2.6075,-5.0662,0,0,0,0.5680000000065775
-0.0016,0.9925,-0.2494,0.148,0.1778,-0.0316,2.0387,3.3863,-5.4513,0,0,0,0.5840000000098371
-0.0034,0.9893,-0.2503,0.1483,0.1793,-0.0321,2.0387,3.3863,-5.4513,0,0,0,0.5840000000098371
-0.0056,0.9905,-0.2506,0.1483,0.1793,-0.0321,1.6975,3.395,-5.9412,0,0,0,0.5990000000019791
-0.0118,0.9942,-0.2509,0.1483,0.1793,-0.0321,1.6625,3.605,-5.8975,0,0,0,0.5990000000019791
-0.0212,1.0062,-0.2517,0.1494,0.1794,-0.0242,2.0125,2.9313,-5.88,0,0,0,0.6150000000052387
-0.0212,1.0142,-0.245,0.1494,0.1794,-0.0242,2.0125,2.9313,-5.88,0,0,0,0.6150000000052387
-0.0273,1.0142,-0.245,0.1492,0.1794,-0.0354,1.9863,1.9425,-6.7025,0,0,0,0.6300000000046566
-0.0249,1.0214,-0.2427,0.1492,0.1794,-0.0354,0.8575,0.6825,-7.5775,0,0,0,0.6300000000046566
-0.0263,1.0346,-0.2397,0.1492,0.1794,-0.0354,-0.8313,0.3762,-7.9538,0,0,0,0.6460000000006403
-0.0302,1.0377,-0.2375,0.1492,0.1803,-0.0281,-0.8313,0.3762,-7.9538,0,0,0,0.6460000000006403
-0.041,1.0369,-0.2345,0.1492,0.1803,-0.0281,-3.15,-0.5337,-8.3125,0,0,0,0.6620000000038999
-0.041,1.0369,-0.2345,0.1482,0.1791,-0.0354,-5.285,-1.2425,-8.3912,0,0,0,0.6620000000038999
-0.049,1.0243,-0.2302,0.1482,0.1791,-0.0354,-5.285,-3.4825,-9.3888,0,0,0,0.6770000000033178
-0.0587,1.0044,-0.2338,0.1482,0.1791,-0.0354,-6.4575,-2.31,-9.3888,0,0,0,0.6770000000033178
-0.0662,0.9911,-0.2353,0.1487,0.178,-0.0281,-6.6588,-3.4562,-9.94,0,0,0,0.6930000000065775
-0.066,0.9886,-0.2344,0.1487,0.178,-0.0281,-6.1163,-4.9875,-10.115,0,0,0,0.6930000000065775
-0.066,0.9843,-0.2366,0.1503,0.179,-0.0325,-6.1163,-4.9875,-10.115,0,0,0,0.7079999999987194
-0.0592,0.9843,-0.2366,0.1503,0.179,-0.0325,-5.18,-6.5712,-9.5725,0,0,0,0.7079999999987194
-0.0511,0.9844,-0.2353,0.1523,0.1822,-0.0273,-4.34,-8.295,-9.905,0,0,0,0.7240000000019791
-0.0376,0.9831,-0.2399,0.1523,0.1822,-0.0273,-3.4388,-8.4175,-8.8988,0,0,0,0.7240000000019791
-0.0265,0.9849,-0.2388,0.1523,0.1822,-0.0273,-3.4388,-8.4175,-8.8988,0,0,0,0.7410000000090804
-0.0184,0.9891,-0.2425,0.1524,0.181,-0.033,-1.925,-8.1287,-8.3825,0,0,0,0.7410000000090804
-0.0184,0.9891,-0.2425,0.1524,0.181,-0.033,-1.225,-7.1575,-7.2013,0,0,0,0.7560000000012224
-0.011,0.9933,-0.2418,0.152,0.1788,-0.0341,-0.0613,-5.1712,-6.09,0,0,0,0.7560000000012224
-0.007,0.9897,-0.2447,0.152,0.1788,-0.0341,-0.0613,-5.1712,-6.09,0,0,0,0.772000000004482
-0.0082,0.9879,-0.2439,0.152,0.1788,-0.0341,0.175,-3.7187,-5.6087,0,0,0,0.772000000004482
-0.0078,0.9877,-0.2492,0.1522,0.181,-0.031,0.9187,-1.9863,-5.1975,0,0,0,0.7870000000038999
-0.0078,0.991,-0.2445,0.1522,0.181,-0.031,0.8838,-0.77,-4.7162,0,0,0,0.7870000000038999
-0.0124,0.991,-0.2445,0.1534,0.1801,-0.0323,0.8838,-0.77,-4.7162,-7.463794204853709,-0.44810501520256396,0.0,0.8030000000071595
-0.0166,0.9945,-0.2452,0.1534,0.1801,-0.0323,1.0938,0.525,-5.4862,-11.16360321376322,-0.6927182688938641,0.008399999997891427,0.8190000000031432
-0.0269,0.997,-0.2482,0.1534,0.1801,-0.0323,1.12,0.9363,-6.0725,-12.80775731927532,-0.9436561549989722,0.008399999997891427,0.8190000000031432
-0.0343,1.0004,-0.2484,0.153,0.1811,-0.0398,1.5925,1.085,-7.2275,-13.549259525670006,-1.34110843286473,0.024674999997259875,0.8340000000025611
-0.0385,1.0029,-0.248,0.153,0.1811,-0.0398,1.5925,1.085,-7.2275,-13.771269729668829,-1.6687087920422228,0.024674999997259875,0.8340000000025611
-0.0385,1.0029,-0.248,0.1546,0.182,-0.0354,1.4787,1.12,-7.4113,-13.846774859728011,-1.8875938070556901,0.024674999997259875,0.8340000000025611
-0.0357,1.0072,-0.2468,0.1546,0.182,-0.0354,0.8225,0.84,-8.0763,-13.805531640783101,-1.9387535141355245,0.03811499999999796,0.8500000000058208
-0.0336,1.0094,-0.2455,0.1546,0.182,-0.0354,0.8225,0.84,-8.2513,-13.734212546241773,-1.8841490767046225,0.03811499999999796,0.8500000000058208
-0.0309,1.0129,-0.2441,0.153,0.1813,-0.0278,0.0613,0.7262,-8.2513,-13.68685883785801,-1.7667204724229502,0.04900799999957526,0.8650000000052387
-0.0334,1.0153,-0.2445,0.153,0.1813,-0.0278,-0.455,0.91,-7.7438,-13.665318635309767,-1.8025029441097589,0.04900799999957526,0.8650000000052387
-0.0334,1.0153,-0.2448,0.1544,0.1809,-0.0353,-0.875,1.33,-7.0525,-13.624643449305593,-1.812604328584173,0.07028799999423355,0.8810000000012224
-0.0316,1.0173,-0.2448,0.1544,0.1809,-0.0353,-0.875,1.33,-7.0525,-13.589546614126213,-1.783977007626775,0.07028799999423355,0.8810000000012224
-0.0376,1.0179,-0.2417,0.1534,0.1798,-0.0348,-1.3388,1.2075,-6.6675,-13.470381242639053,-1.818456826035047,0.08960799999816954,0.897000000004482
-0.039,1.0196,-0.2399,0.1534,0.1798,-0.0348,-2.3975,0.6825,-5.9062,-13.314116685918544,-1.9382899466800467,0.08960799999816954,0.897000000004482
-0.04,1.022,-0.2358,0.1534,0.1798,-0.0348,-3.1063,0.5863,-5.7838,-13.076374579499442,-2.042795818048312,0.09840249999782827,0.9120000000038999
-0.0412,1.0187,-0.2351,0.1554,0.182,-0.036,-3.1063,0.5863,-5.7838,-13.016608899702183,-2.1337775658569136,0.09840249999782827,0.9120000000038999
-0.0412,1.0187,-0.2351,0.1554,0.182,-0.036,-3.8412,0.4988,-5.88,-13.000083082591527,-2.181931912563681,0.10638329999945417,0.9280000000071595
-0.0442,1.0155,-0.2316,0.1529,0.1807,-0.038,-4.935,-0.0875,-5.915,-12.874433753612573,-2.2757731644004204,0.10507080000014175,0.9429999999993015
-0.0467,1.0121,-0.233,0.1529,0.1807,-0.038,-5.1188,-0.6388,-5.6175,-12.949009027652965,-2.4178373039297427,0.10507080000014175,0.9429999999993015
-0.0508,1.008,-0.2319,0.1529,0.1807,-0.038,-5.1188,-0.6388,-5.6175,-12.954804974686736,-2.605109252477655,0.0948499999980595,0.9590000000025611
-0.0483,1.0054,-0.2286,0.1537,0.1798,-0.0338,-5.1275,-1.9162,-6.0637,-12.834516095485071,-2.629354346083976,0.0948499999980595,0.9590000000025611
-0.0483,1.0054,-0.228,0.1537,0.1798,-0.0338,-5.04,-3.2113,-6.475,-12.787130410009555,-2.6318196234101907,0.043469199987591856,0.9750000000058208
-0.0506,1.0044,-0.228,0.1529,0.1826,-0.0304,-4.6638,-3.8763,-6.1687,-12.789036527165276,-2.679184272147217,0.043469199987591856,0.9750000000058208
-0.052,1.0044,-0.2331,0.1529,0.1826,-0.0304,-4.6638,-3.8763,-6.1687,-13.0143933834419,-2.7336576113116666,-0.01467530001015184,0.9900000000052387
-0.0553,1.0003,-0.2381,0.1529,0.1826,-0.0304,-4.6287,-4.97,-6.37,-13.318826225762637,-2.7796019715772124,-0.01467530001015184,0.9900000000052387
-0.047,1.0018,-0.2277,0.1561,0.1801,-0.0312,-4.0512,-5.8538,-6.1163,-12.912967989471696,-2.733220031659554,-0.10833610002923305,1.0060000000084983
-0.0428,1.0055,-0.2294,0.1561,0.1801,-0.0312,-4.0512,-6.3,-5.9938,-12.864621801344631,-2.6096202572212177,-0.10833610002923305,1.0060000000084983
-0.0428,1.0055,-0.2294,0.1537,0.1813,-0.0278,-3.5525,-6.3,-5.9938,-12.854796333671624,-2.528832817182252,-0.20283609997972743,1.0210000000006403
-0.0405,1.0004,-0.228,0.1537,0.1813,-0.0278,-3.5963,-5.9763,-6.0462,-12.842599130448347,-2.4420711912808764,-0.20283609997972743,1.0210000000006403
-0.0407,0.9916,-0.2318,0.1537,0.1813,-0.0278,-3.2812,-5.3113,-5.4775,-13.078659853119325,-2.363672518480575,-0.2878168999970403,1.0370000000039
-0.0389,0.9953,-0.2283,0.1542,0.1806,-0.0235,-3.2812,-5.3113,-5.4775,-12.958872887335044,-2.270575357449552,-0.2878168999970403,1.0370000000039
-0.0326,0.997,-0.2258,0.1542,0.1806,-0.0235,-2.1613,-5.04,-5.3288,-12.829777728450036,-2.0288554167727235,-0.3684569000134688,1.0530000000071595
-0.0326,0.997,-0.2315,0.1521,0.1824,-0.0327,-2.0738,-4.6287,-4.8212,-12.985352659150998,-1.899987934419876,-0.3684569000134688,1.0530000000071595
-0.0326,0.9922,-0.2315,0.1521,0.1824,-0.0327,-1.7763,-4.0425,-4.6375,-13.073951481344317,-1.855988343158191,-0.42909440001111576,1.0680000000065775
-0.0333,0.9884,-0.2321,0.1521,0.1822,-0.0254,-1.7763,-4.0425,-4.6375,-13.158418764850202,-1.8707335788174468,-0.42909440001111576,1.0680000000065775
-0.0323,0.9898,-0.2357,0.155,0.1822,-0.0254,-0.6037,-3.3775,-4.69,-13.21566943725479,-1.8367745618822977,-0.48313440002212515,1.084000000009837
-0.0273,0.9949,-0.2347,0.155,0.1822,-0.0254,0.3938,-2.7213,-5.1975,-13.239047660405543,-1.6617777424058138,-0.48313440002212515,1.084000000009837
-0.0237,0.9923,-0.2339,0.1546,0.1802,-0.0318,1.1025,-1.4612,-5.11,-13.25317386982813,-1.4684524682819888,-0.505052400010643,1.099000000001979
-0.0237,0.9923,-0.2339,0.1546,0.1802,-0.0318,1.1025,-1.4612,-5.11,-13.259094959224768,-1.3883587405767344,-0.505052400010643,1.099000000001979
-0.0214,0.9935,-0.2383,0.1542,0.181,-0.0263,1.1812,0.0175,-4.9088,-13.395175756098496,-1.2719924876586628,-0.504772400010586,1.1150000000052387
-0.0203,0.9942,-0.2373,0.1542,0.181,-0.0263,1.3825,1.12,-5.2238,-13.413460469886978,-1.1961320852830142,-0.504772400010586,1.1150000000052387
-0.023,0.996,-0.2365,0.1542,0.181,-0.0263,1.7763,1.9512,-5.3288,-13.37578755906294,-1.245647842022391,-0.47355320001842266,1.1310000000012224
-0.0235,0.9967,-0.2373,0.1546,0.1826,-0.0264,1.7763,1.9512,-5.3288,-13.386687325469483,-1.2828292082126254,-0.47355320001842266,1.1310000000012224
-0.0235,0.9967,-0.2397,0.1546,0.1826,-0.0264,1.68,2.9488,-5.5213,-13.476649546311164,-1.2980477581715266,-0.42932119999868373,1.1460000000079162
-0.024,0.9957,-0.2397,0.1532,0.1814,-0.0298,1.1725,4.2088,-6.0725,-13.51156772820902,-1.3118485956972867,-0.42932119999868373,1.1460000000079162
-0.0323,0.9942,-0.2471,0.1532,0.1814,-0.0298,1.6712,5.495,-5.6613,-13.80660924195425,-1.5406248826222313,-0.34140120002075347,1.1620000000039
-0.0368,0.9991,-0.2425,0.1532,0.1814,-0.0298,1.6712,5.495,-5.6613,-13.698320940587543,-1.776484016162739,-0.34140120002075347,1.1620000000039
-0.041,1.003,-0.2393,0.1538,0.1805,-0.0284,1.4525,5.7488,-5.9237,-13.521106766214432,-1.9641697090083448,-0.2551692000240997,1.1770000000033178
-0.0428,1.0049,-0.2391,0.1538,0.1805,-0.0284,1.2862,5.5825,-6.3,-13.43721474923972,-2.0388564413626904,-0.2551692000240997,1.1770000000033178
-0.0428,1.0049,-0.2391,0.1529,0.1825,-0.0302,1.2862,4.6725,-6.685,-13.404564890233313,-2.085212396526964,-0.1804092000088691,1.1930000000065775
-0.0425,1.0032,-0.242,0.1529,0.1825,-0.0302,0.5863,4.6725,-6.685,-13.477903919660344,-2.123133694035739,-0.1804092000088691,1.1930000000065775
-0.044,1.0064,-0.2381,0.1529,0.1825,-0.0302,0.6037,4.1388,-6.7288,-13.39927706894201,-2.176410667784287,-0.11418840002549188,1.2090000000025611
-0.0445,1.0028,-0.2381,0.1537,0.183,-0.0379,0.2625,3.395,-7.0875,-13.384245702670547,-2.283059755775854,-0.11418840002549188,1.2090000000025611
-0.0479,1.0018,-0.2386,0.1537,0.183,-0.0379,0.2625,3.395,-7.0875,-13.388615121078649,-2.4200608923607803,-0.06326340002746803,1.224000000001979
-0.0479,1.0018,-0.2386,0.1543,0.1808,-0.0275,0.2887,2.17,-6.8338,-13.391528190199113,-2.4775764143238037,-0.06326340002746803,1.224000000001979
-0.0441,1.0062,-0.2353,0.1543,0.1808,-0.0275,0.2362,2.03,-6.6937,-13.313094882760888,-2.4726584094546267,-0.030783400020850983,1.2400000000052387
-0.042,1.0097,-0.2401,0.1543,0.1814,-0.0324,-0.07,0.5425,-6.825,-13.324174303315525,-2.4367106453071012,-0.030783400020850983,1.2400000000052387
-0.0436,1.0102,-0.2368,0.1556,0.1814,-0.0324,-0.07,0.5425,-6.825,-13.301023443061196,-2.4296459013820595,-0.02264590002116676,1.2550000000046566
-0.0481,1.0116,-0.2347,0.1556,0.1814,-0.0324,-0.3675,0.385,-6.685,-13.282451341355374,-2.460515441708825,-0.02264590002116676,1.2550000000046566
-0.0466,1.0041,-0.2341,0.1545,0.1815,-0.0255,-0.35,-0.2887,-7.1137,-13.27251955696763,-2.5077708473112295,-0.027842500022225446,1.2730000000083237
-0.0466,1.0041,-0.2341,0.1545,0.1815,-0.0255,-0.6562,-1.3563,-7.2013,-13.232104461096368,-2.540122607691707,-0.027842500022225446,1.2730000000083237
-0.0484,1.0055,-0.2404,0.1559,0.1816,-0.0342,-0.6562,-1.3563,-7.2013,-13.290249835306106,-2.59677677921468,-0.049543300016778105,1.2890000000043074
-0.0472,1.008,-0.2367,0.1559,0.1816,-0.0342,-0.4638,-1.2075,-6.86,-13.278718871478633,-2.6001160640646392,-0.049543300016778105,1.2890000000043074
-0.047,1.0065,-0.2368,0.1559,0.1816,-0.0342,-0.4112,-1.7587,-6.44,-13.274241614632174,-2.600308782333471,-0.07592380001575441,1.3040000000037253
-0.0526,1.0017,-0.2323,0.1538,0.1822,-0.0462,-0.1225,-1.9775,-6.09,-13.244077732375455,-2.6995370353882953,-0.07592380001575441,1.3040000000037253
-0.0526,1.0017,-0.2323,0.1538,0.1822,-0.0462,-0.1225,-1.9775,-6.09,-13.218091075308894,-2.7687465095424457,-0.10756380002220033,1.320000000006985
-0.0537,0.9978,-0.2413,0.1563,0.1827,-0.0321,-0.0175,-2.24,-5.7663,-13.297211622094384,-2.866018865649733,-0.10756380002220033,1.320000000006985
-0.0525,1.0005,-0.2392,0.1563,0.1827,-0.0321,0.3762,-2.8,-5.705,-13.356301331322905,-2.891031255374116,-0.1495638000001978,1.3349999999991269
-0.0489,1.0067,-0.2395,0.1563,0.1827,-0.0321,0.7962,-3.6312,-5.2587,-13.36976515022439,-2.7874309499095857,-0.1495638000001978,1.3349999999991269
-0.044,1.0098,-0.2391,0.1554,0.1819,-0.0402,0.7962,-3.6312,-5.2587,-13.344522673326168,-2.586642687090499,-0.2076630000120342,1.3510000000023865
-0.0411,1.0048,-0.2413,0.1554,0.1819,-0.0402,0.8575,-3.5612,-4.795,-13.429350700080919,-2.3908657296944527,-0.2076630000120342,1.3510000000023865
-0.0411,1.0048,-0.2413,0.1559,0.1818,-0.0318,0.63,-3.7362,-5.0138,-13.464845726756373,-2.322737278258792,-0.2674422000242128,1.3670000000056461
-0.0384,1.0051,-0.241,0.1559,0.1818,-0.0318,0.63,-3.7362,-4.8825,-13.47382581656279,-2.2015301234460707,-0.2674422000242128,1.3670000000056461
-0.0372,1.0027,-0.2431,0.1559,0.1818,-0.0318,-0.0175,-3.1588,-4.8825,-13.50622423337868,-2.116643254255969,-0.31482420002237416,1.382000000005064
-0.037,0.9988,-0.238,0.1555,0.1826,-0.0311,0.0525,-3.15,-4.2088,-13.480237606077491,-2.0797343201156804,-0.31482420002237416,1.382000000005064
-0.0395,0.9986,-0.2365,0.1555,0.1826,-0.0311,0.315,-2.9838,-3.7275,-13.421740525239672,-2.1714602721885305,-0.3804678000140375,1.40400000000227
-0.0395,0.9986,-0.2365,0.1545,0.183,-0.026,0.315,-2.9838,-3.7275,-13.38513970318935,-2.1956226013346094,-0.3804678000140375,1.40400000000227
-0.0401,0.9977,-0.2394,0.1545,0.183,-0.026,-0.4288,-3.64,-4.2175,-13.39886062298974,-2.2252904003037144,-0.43506780003840323,1.419000000008964
-0.0399,0.9987,-0.2386,0.1545,0.183,-0.0322,-0.3675,-3.0888,-4.4275,-13.401800978840512,-2.225296519693527,-0.43506780003840323,1.419000000008964
-0.037,0.9981,-0.24,0.155,0.1806,-0.0322,-0.14,-3.3512,-4.4713,-13.416671295804045,-2.116991630721728,-0.4886870000249437,1.4350000000049477
-0.0361,0.9989,-0.2406,0.155,0.1806,-0.0322,-0.14,-3.3512,-4.4713,-13.43244764405359,-2.0465677392411457,-0.4886870000249437,1.4350000000049477
-0.0326,0.9998,-0.2406,0.155,0.1822,-0.0297,0.1488,-3.1937,-4.6025,-13.462132630212427,-1.8947662847066873,-0.5397862000121167,1.4510000000009313
-0.0326,0.9998,-0.2406,0.155,0.1822,-0.0297,-0.0875,-2.7125,-4.4887,-13.473380233013952,-1.8417873580716562,-0.5397862000121167,1.4510000000009313
-0.0296,0.9992,-0.2413,0.1562,0.1814,-0.0258,0.0525,-2.065,-4.8913,-13.49932496194504,-1.7225013377097547,-0.5707612000259397,1.4660000000076252
-0.0309,0.9995,-0.2405,0.1562,0.1814,-0.0258,0.0525,-2.065,-4.8913,-13.506867863482798,-1.7219753285278452,-0.5707612000259397,1.4660000000076252
-0.0291,0.9975,-0.2406,0.1562,0.1814,-0.0258,0.4988,-1.4612,-5.2325,-13.530574759312977,-1.667015380516292,-0.594140400020071,1.4820000000036089
-0.0292,0.9952,-0.2422,0.1553,0.1833,-0.0359,0.735,-1.0675,-5.775,-13.604986393989702,-1.6524458758318843,-0.594140400020071,1.4820000000036089
-0.0292,0.9952,-0.2422,0.1553,0.1833,-0.0359,0.455,-0.8313,-6.0462,-13.636023275946185,-1.6461568382567764,-0.606609900019587,1.4970000000030268
-0.0311,0.998,-0.2429,0.1542,0.1826,-0.029,0.455,-0.8313,-6.0462,-13.654306020262757,-1.6746432744125221,-0.606609900019587,1.4970000000030268
-0.031,0.9991,-0.2423,0.1542,0.1826,-0.029,-0.3413,-0.7175,-5.5563,-13.653086647769626,-1.7004693070639194,-0.6180899000167053,1.5129999999990105
-0.0333,1.0025,-0.242,0.1542,0.1826,-0.029,-0.1312,-0.5512,-5.7312,-13.642301228597159,-1.7663201708538325,-0.6180899000167053,1.5129999999990105
-0.0294,0.9991,-0.2452,0.1546,0.1839,-0.0262,-0.1312,-0.0962,-6.1687,-13.661668564511272,-1.7324304413049918,-0.6196291000170189,1.52900000000227
-0.045,1.0015,-0.244,0.1546,0.1839,-0.0262,-0.0613,-0.0962,-6.1687,-13.667263637778376,-1.93346423054133,-0.6196291000170189,1.52900000000227
-0.0333,1.0015,-0.244,0.1573,0.1834,-0.0315,-0.1663,0.4638,-6.6238,-13.669903068590154,-1.9259001347357925,-0.6126721000139143,1.544000000008964
-0.0317,1.0034,-0.2445,0.1573,0.1834,-0.0315,-0.35,0.49,-7.0788,-13.67144055685748,-1.8660098902262008,-0.6126721000139143,1.544000000008964
-0.0383,1.0041,-0.2468,0.1573,0.1834,-0.0315,-0.35,0.49,-7.0788,-13.680055904347228,-1.9571435633910017,-0.6048321000158823,1.5600000000049477
-0.0367,1.0033,-0.242,0.1548,0.1794,-0.0409,-0.945,0.0787,-7.5338,-13.632622348256124,-1.9970460186204926,-0.6048321000158823,1.5600000000049477
-0.0386,1.0025,-0.2399,0.1548,0.1794,-0.0409,-1.5313,-0.2625,-7.98,-13.535621098521382,-2.0844817193265244,-0.6087696000157294,1.5750000000043656
-0.0386,1.0025,-0.2399,0.1537,0.1812,-0.0287,-1.6187,0.2275,-8.0937,-13.491178303920702,-2.1211602320034495,-0.6087696000157294,1.5750000000043656
-0.0367,1.0033,-0.2412,0.1537,0.1812,-0.0287,-1.6187,0.2275,-8.0937,-13.506379372196626,-2.069698970828266,-0.6051296000166432,1.5910000000003492
-0.0412,1.0045,-0.2431,0.1537,0.1812,-0.0287,-1.435,0.2713,-8.2513,-13.558967850325978,-2.2047128448430655,-0.6007888000157589,1.6070000000036089
-0.0434,1.006,-0.2406,0.1562,0.1818,-0.0232,-1.6538,-0.1225,-7.8225,-13.496249889456486,-2.3165148103692115,-0.6007888000157589,1.6070000000036089
-0.0397,1.0063,-0.2388,0.1562,0.1818,-0.0232,-1.54,-0.0525,-7.5163,-13.414605304075838,-2.257600546356941,-0.6015763000161103,1.6220000000103028
-0.0397,1.0077,-0.2358,0.1557,0.1832,-0.0408,-1.54,-0.0525,-7.5163,-13.278468737594093,-2.227320409920597,-0.6015763000161103,1.6220000000103028
-0.0433,1.0077,-0.2358,0.1557,0.1832,-0.0408,-2.0213,-0.1312,-6.8338,-13.209707209579648,-2.267195269804853,-0.6036755000155833,1.6380000000062864
-0.0443,1.0049,-0.2395,0.1566,0.183,-0.0346,-1.9863,0.0,-7.21,-13.332967891363515,-2.3438317265207513,-0.6036755000155833,1.6380000000062864
-0.0464,1.0061,-0.2372,0.1566,0.183,-0.0346,-2.0912,0.07,-7.98,-13.289791815455839,-2.4780220226817886,-0.6026255000156241,1.6530000000057044
-0.0477,1.0043,-0.2372,0.1566,0.183,-0.0346,-2.0912,0.07,-7.98,-13.289181682932162,-2.577942304727368,-0.6026255000156241,1.6530000000057044
-0.0475,1.0021,-0.2333,0.1576,0.1837,-0.0271,-2.0825,-0.28,-7.3938,-13.171209360031536,-2.6083186910143894,-0.6071055000144995,1.669000000001688
-0.0475,1.0021,-0.2333,0.1576,0.1837,-0.0271,-1.3737,-0.2275,-6.7638,-13.137007136769126,-2.6150774339140073,-0.6071055000144995,1.669000000001688
-0.0442,1.0023,-0.2338,0.1574,0.1836,-0.0297,-1.0237,-0.0787,-6.51,-13.134122763672883,-2.612963582883982,-0.6083647000147561,1.6850000000049477
-0.044,1.0032,-0.23,0.1574,0.1836,-0.0297,-1.0237,-0.0787,-6.51,-13.03997857685564,-2.61072710455476,-0.6083647000147561,1.6850000000049477
-0.0463,1.0003,-0.2326,0.1574,0.1836,-0.0297,-1.4875,0.0875,-6.055,-13.06751262733498,-2.6013472209550716,-0.6069647000144709,1.7010000000082073
-0.049,1.0006,-0.2295,0.157,0.183,-0.0302,-1.1375,0.2713,-5.3725,-12.998660922542845,-2.6716530362343844,-0.6050656000150709,1.7080000000059954
-0.049,1.0006,-0.2278,0.157,0.183,-0.0302,-1.1375,0.2713,-4.9525,-12.918908224541392,-2.709587009635118,-0.6050656000150709,1.7080000000059954
-0.0453,1.003,-0.2278,0.1571,0.1822,-0.0306,-0.8575,0.315,-4.9525,-12.874026870619053,-2.594858293465862,-0.6000256000163361,1.724000000001979
-0.0477,1.0062,-0.2287,0.1571,0.1822,-0.0306,-0.945,0.3588,-3.7625,-12.846638305368757,-2.6329392519168535,-0.6000256000163361,1.724000000001979
-0.0514,1.0032,-0.2277,0.1571,0.1822,-0.0306,-0.875,0.5337,-3.395,-12.824828609749167,-2.8053193065727284,-0.5920201000166467,1.739000000001397
-0.0541,0.9987,-0.2301,0.1562,0.1835,-0.0394,-0.875,0.5337,-3.395,-12.880472066326734,-2.9692868490429736,-0.5920201000166467,1.739000000001397
-0.0542,1.0025,-0.2361,0.1562,0.1835,-0.0394,-0.0962,0.1312,-3.29,-12.939062659226332,-3.0022296856624076,-0.5899209000162191,1.7550000000046566
-0.0542,1.0025,-0.2361,0.156,0.1826,-0.0294,0.6388,-0.98,-3.2725,-13.089331991013296,-3.010020619306981,-0.5899209000162191,1.7550000000046566
-0.0489,1.0063,-0.2315,0.156,0.1826,-0.0294,1.3212,-1.155,-3.3075,-13.00689977997098,-2.782167792454236,-0.6084009000199839,1.7710000000079162
-0.0413,1.0083,-0.2322,0.156,0.1826,-0.0294,1.3212,-1.155,-3.3075,-12.98322456606348,-2.4035005330522656,-0.6084009000199839,1.7710000000079162
-0.0371,1.0072,-0.2313,0.1561,0.1823,-0.0365,0.9975,-1.1812,-3.3775,-12.955318193060696,-2.1398512318967104,-0.626118900010702,1.7860000000000582
-0.0332,1.0066,-0.2353,0.1561,0.1823,-0.0365,1.4525,-0.7175,-3.1325,-13.08331207134966,-1.9079047964595555,-0.626118900010702,1.7860000000000582
-0.0332,1.0066,-0.2322,0.1566,0.1821,-0.0314,1.3125,-0.0875,-3.1237,-13.02571951564486,-1.856017561433537,-0.6275189000109872,1.8020000000033178
-0.0322,1.0059,-0.2322,0.1566,0.1821,-0.0314,1.3125,-0.0875,-3.1237,-13.00890058067262,-1.8023206015353868,-0.6275189000109872,1.8020000000033178
-0.0331,1.0053,-0.2317,0.1547,0.1814,-0.0338,0.8838,-0.2625,-2.9137,-12.992689303842294,-1.8300003114374883,-0.6314564000108344,1.8170000000027358
-0.0322,1.0006,-0.2353,0.1547,0.1814,-0.0338,0.525,0.0525,-2.52,-13.10018279506158,-1.801411710955347,-0.6314564000108344,1.8170000000027358
-0.037,1.0002,-0.2384,0.1547,0.1814,-0.0338,0.5512,0.315,-2.7037,-13.239490459722987,-2.007043634997059,-0.6264164000098076,1.8330000000059954
-0.038,0.9993,-0.2381,0.1557,0.1824,-0.0286,0.5512,0.315,-2.7037,-13.313320764650692,-2.0953511207763333,-0.6264164000098076,1.8330000000059954
-0.038,0.9993,-0.2381,0.1557,0.1824,-0.0286,1.26,0.315,-3.4825,-13.367009555684254,-2.11274777843441,-0.6213764000087808,1.849000000009255
-0.0385,0.9978,-0.2371,0.155,0.1831,-0.0357,1.4787,0.5075,-3.6137,-13.366924917937283,-2.1403623261349463,-0.6213764000087808,1.849000000009255
-0.0342,0.997,-0.2384,0.155,0.1831,-0.0357,1.4787,-0.21,-3.8937,-13.418585696845444,-1.9740505493538683,-0.6245264000071307,1.864000000001397
-0.0361,1.0005,-0.242,0.155,0.1831,-0.0357,2.0387,-0.21,-3.8937,-13.543633606093877,-1.999064816587054,-0.6245264000071307,1.864000000001397
-0.0348,1.0014,-0.2411,0.1551,0.1834,-0.0328,1.1287,-0.2975,-3.8763,-13.539784366818873,-1.9526035838691291,-0.6292864000081004,1.8800000000046566
-0.0348,1.0014,-0.2413,0.1551,0.1834,-0.0328,0.9538,-0.4112,-4.13,-13.544257695633274,-1.9401632117826602,-0.6292864000081004,1.8800000000046566
-0.0335,1.0014,-0.2413,0.1546,0.1829,-0.0337,0.9538,-0.4112,-4.13,-13.546257355369397,-1.8855499205821127,-0.6354544000078611,1.8950000000040745
-0.0297,0.9964,-0.2421,0.1546,0.1829,-0.0337,0.8313,-0.385,-4.1737,-13.604512102911176,-1.7266852010160856,-0.6354544000078611,1.8950000000040745
-0.0307,0.9974,-0.2445,0.1546,0.1829,-0.0337,0.315,-1.1725,-4.13,-13.667850729062625,-1.7165682695919477,-0.6542144000116831,1.9110000000073342
-0.0313,0.9981,-0.2412,0.1548,0.1808,-0.0246,0.5863,-1.0063,-4.5237,-13.629587809008644,-1.7361613488646586,-0.6542144000116831,1.9110000000073342
-0.0283,1.0001,-0.2452,0.1548,0.1808,-0.0246,0.5863,-1.0063,-4.5237,-13.69758582598809,-1.6282365753526138,-0.6703152000149633,1.9270000000105938
-0.0283,1.0001,-0.2452,0.1526,0.182,-0.0318,-0.1925,-1.3825,-4.8825,-13.7040916702005,-1.5947055429316892,-0.6703152000149633,1.9270000000105938
-0.0319,1.0005,-0.2473,0.1526,0.182,-0.0318,-0.3938,-1.61,-5.46,-13.72198941376519,-1.6865460390956073,-0.6944652000023118,1.9420000000027358
-0.0305,1.0,-0.243,0.1526,0.182,-0.0318,-0.4288,-1.575,-5.5475,-13.71387769607822,-1.692010362976407,-0.6944652000023118,1.9420000000027358
-0.0275,0.9987,-0.239,0.1545,0.1818,-0.0218,-0.4288,-1.575,-5.5475,-13.681417331050957,-1.613952016435629,-0.7196652000074457,1.9580000000059954
-0.0281,1.0019,-0.2399,0.1545,0.1818,-0.0218,-0.77,-1.7237,-5.8975,-13.610781316937137,-1.5940982207615666,-0.7196652000074457,1.9580000000059954
-0.0281,1.0019,-0.2399,0.155,0.183,-0.0326,-1.1287,-0.9187,-6.0025,-13.544299512191817,-1.5832353894525832,-0.733445700006911,1.9730000000054133
-0.0276,1.0024,-0.2394,0.155,0.183,-0.0326,-1.3125,-0.6037,-6.3088,-13.487420804264179,-1.5745351152648017,-0.733445700006911,1.9730000000054133
-0.0326,0.9982,-0.2396,0.155,0.1826,-0.0318,-1.3125,-0.6037,-6.3088,-13.49251784155209,-1.617769362669529,-0.7431049000088789,1.989000000008673
-0.034,0.9963,-0.2378,0.1531,0.1826,-0.0318,-1.4175,-0.6037,-6.545,-13.456300534998269,-1.6236695566820343,-0.7527641000064542,2.0050000000046566
-0.0351,1.0006,-0.2394,0.1531,0.1826,-0.0318,-1.4963,-0.9625,-6.8075,-13.455831173287995,-1.6966744072299373,-0.7527641000064542,2.0050000000046566
-0.0327,1.001,-0.2399,0.1549,0.182,-0.04,-1.2337,-1.0762,-7.21,-13.466307858029397,-1.746679695410934,-0.7689071000058277,2.0200000000040745
-0.0327,1.001,-0.2399,0.1549,0.182,-0.04,-1.2337,-1.0762,-7.21,-13.471679263543189,-1.7763342142110947,-0.7689071000058277,2.0200000000040745
-0.0317,1.0042,-0.2387,0.1541,0.1827,-0.0282,-1.4612,-0.7175,-6.7463,-13.417310293339247,-1.7731964213069578,-0.7803871000081665,2.036000000007334
-0.032,1.0041,-0.2389,0.1541,0.1827,-0.0282,-1.4,-0.525,-6.4925,-13.399335612839701,-1.7732759736988173,-0.7803871000081665,2.036000000007334
-0.0337,1.0045,-0.2382,0.1541,0.1827,-0.0282,-1.4,-0.525,-7.0,-13.368193205101766,-1.804379230374021,-0.7882621000078609,2.051000000006752
-0.0366,1.0053,-0.2372,0.1554,0.1814,-0.0397,-1.2163,-0.5163,-7.0,-13.323738252986095,-1.876965191169627,-0.7882621000078609,2.051000000006752
-0.0366,1.0053,-0.2372,0.1554,0.1814,-0.0397,-0.8225,-0.2187,-6.9475,-13.307046709052186,-1.9223270988678418,-0.7917613000069825,2.0670000000027358
-0.0404,1.0036,-0.2365,0.155,0.1823,-0.0317,-1.155,-0.0088,-6.6062,-13.285102035997184,-1.9468174934249092,-0.7917613000069825,2.0670000000027358
-0.0399,1.0017,-0.235,0.155,0.1823,-0.0317,-1.155,-0.0088,-6.6062,-13.246814458123842,-1.967688265727333,-0.7919021000070112,2.0830000000059954
-0.0441,1.0014,-0.2364,0.155,0.1823,-0.0317,-1.2163,-0.455,-6.2125,-13.264091608480934,-2.083170016767826,-0.7919021000070112,2.0830000000059954
-0.0487,1.0005,-0.2375,0.155,0.1846,-0.0259,-0.6562,-0.3237,-6.2213,-13.288455169098553,-2.2290690699030185,-0.7967576000068228,2.0980000000054133
-0.0467,1.0039,-0.2353,0.155,0.1846,-0.0259,-0.5425,-1.1988,-6.545,-13.268432810437407,-2.236650426196694,-0.7967576000068228,2.0980000000054133
-0.0467,1.0039,-0.2353,0.1556,0.1842,-0.0329,-0.5425,-1.1988,-6.545,-13.252532648308888,-2.244073943662021,-0.8159384000107305,2.114000000008673
-0.0467,1.0019,-0.235,0.1556,0.1842,-0.0329,-0.3938,-1.645,-6.0637,-13.247338006513905,-2.355682938673837,-0.8159384000107305,2.114000000008673
-0.0465,1.0031,-0.239,0.1556,0.1842,-0.0329,-0.4375,-2.205,-6.4313,-13.267941130111632,-2.37482854775306,-0.8490133999934035,2.129000000000815
-0.045,1.0031,-0.2362,0.1547,0.1821,-0.0326,-0.245,-2.2138,-5.9675,-13.267282845420445,-2.41968533768814,-0.8490133999934035,2.129000000000815
-0.0444,1.0036,-0.2375,0.1547,0.1821,-0.0326,-0.245,-2.2138,-5.9675,-13.269003865443622,-2.435937699396727,-0.8844342000006197,2.1450000000040745
-0.0444,1.0036,-0.2375,0.1563,0.183,-0.032,-0.1925,-2.03,-5.845,-13.272747648996475,-2.447751103701538,-0.8844342000006197,2.1450000000040745
-0.0402,1.0009,-0.2318,0.1563,0.183,-0.032,-0.4988,-2.3275,-5.7925,-13.23135785680694,-2.3603140630209527,-0.9216741999912716,2.161000000000058
-0.0395,0.9997,-0.2355,0.1563,0.183,-0.0348,-0.07,-1.9425,-5.32,-13.235606999948775,-2.274090780056222,-0.9216741999912716,2.161000000000058
-0.0405,1.0021,-0.2384,0.1567,0.183,-0.0348,-0.07,-1.9425,-5.32,-13.261325917070451,-2.261797549621317,-0.9508117000042745,2.176000000006752
-0.0396,1.0035,-0.2368,0.1567,0.183,-0.0348,-0.0613,-1.8988,-4.9875,-13.264250964345766,-2.2240511522625037,-0.9508117000042745,2.176000000006752
-0.0388,1.0017,-0.2397,0.1558,0.1833,-0.0347,0.1488,-2.0213,-4.76,-13.322534529735439,-2.18148317516537,-0.9831525000108632,2.1920000000100117
-0.0388,1.0017,-0.2397,0.1558,0.1833,-0.0347,-2.0912,-1.9512,-4.585,-13.40939348487064,-2.1655608241361675,-0.9831525000108632,2.1920000000100117
-0.0373,1.0013,-0.2379,0.1567,0.182,-0.0362,-0.6562,-1.9512,-4.585,-13.397377995046373,-2.1062409435075478,-1.0124204999955306,2.2070000000021537
-0.0356,1.0029,-0.241,0.1567,0.182,-0.0362,-0.3325,-2.17,-4.4713,-13.402765896907592,-2.0191729866536368,-1.0124204999955306,2.2070000000021537
-0.0358,1.0031,-0.2353,0.1567,0.182,-0.0362,-0.8925,-1.9775,-4.83,-13.326512673659275,-2.0008368854836407,-1.0440605000019765,2.2230000000054133
-0.0328,1.0005,-0.2394,0.1557,0.1832,-0.0413,-0.8925,-1.9775,-4.83,-13.375816094614583,-1.891014967999659,-1.0440605000019765,2.2230000000054133
-0.0328,1.0005,-0.2394,0.1557,0.1832,-0.0413,-0.6913,-2.4237,-4.8387,-13.399267940783984,-1.8503236221924126,-1.082839699992242,2.239000000001397
-0.0356,1.0014,-0.2415,0.1565,0.1806,-0.0321,-0.9887,-2.5638,-5.1625,-13.465211658786357,-1.9246910004773137,-1.082839699992242,2.239000000001397
-0.0337,1.0,-0.239,0.1565,0.1806,-0.0321,-0.91,-2.3712,-5.3987,-13.456093661712638,-1.8996036538626908,-1.1184077000081145,2.254000000008091
-0.032,0.9975,-0.2386,0.1565,0.1806,-0.0321,-0.91,-2.3712,-5.3987,-13.454623000482227,-1.840016226749253,-1.1184077000081145,2.254000000008091
-0.0307,0.9969,-0.2402,0.1555,0.1818,-0.0416,-1.4525,-2.0387,-6.265,-13.504427593643918,-1.8142873506060602,-1.15102690001476,2.2700000000113505
-0.0463,1.0008,-0.2423,0.1555,0.1818,-0.0416,-0.9712,-2.1525,-6.79,-13.547369368743864,-1.9741426751673068,-1.15102690001476,2.2700000000113505
-0.0334,1.0008,-0.2423,0.155,0.183,-0.0304,-1.2687,-2.0387,-7.0,-13.578350459980925,-1.9366110144781032,-1.1816073999987398,2.2850000000034925
-0.0328,1.0009,-0.236,0.155,0.183,-0.0304,-1.2687,-2.0387,-7.0,-13.42397377436516,-1.9012099191340472,-1.1816073999987398,2.2850000000034925
-0.0347,1.0012,-0.2352,0.155,0.183,-0.0304,-0.7875,-1.7675,-7.0613,-13.35563275849959,-1.9121222173722707,-1.2098874000045012,2.301000000006752
-0.0326,1.0008,-0.2421,0.1558,0.1854,-0.0287,-1.365,-1.1812,-7.2537,-13.482080772183552,-1.8704749260800497,-1.2098874000045012,2.301000000006752
-0.0396,1.0019,-0.2371,0.1558,0.1854,-0.0287,-1.6187,-0.945,-7.3587,-13.386042587849687,-2.021627338312895,-1.2250074000007058,2.3170000000027358
-0.0396,1.0019,-0.2371,0.1565,0.1834,-0.0393,-1.6187,-0.945,-7.3587,-13.34492075748521,-2.1040009309174534,-1.2250074000007058,2.3170000000027358
-0.0398,1.0017,-0.2369,0.1565,0.1834,-0.0393,-1.4438,-1.4963,-6.93,-13.323938349543447,-2.135862023153223,-1.2474519000107218,2.3320000000094296
-0.0422,1.0014,-0.2374,0.1565,0.1834,-0.0393,-1.2687,-1.015,-7.1312,-13.330317933772662,-2.2160554602399887,-1.2636919000066453,2.3480000000054133
-0.0462,1.0026,-0.2405,0.1577,0.1831,-0.0286,-1.26,-0.9975,-6.8425,-13.408742178624104,-2.300557809948455,-1.2636919000066453,2.3480000000054133
-0.0486,1.0049,-0.239,0.1577,0.1831,-0.0286,-1.26,-0.9975,-6.8425,-13.393732282038707,-2.395613132651725,-1.2786544000060647,2.3630000000048312
-0.0486,1.0045,-0.2366,0.1568,0.1842,-0.0344,-1.61,-1.2687,-6.5887,-13.313981554709503,-2.4139530109856713,-1.2786544000060647,2.3630000000048312
-0.0479,1.0045,-0.2366,0.1568,0.1842,-0.0344,-1.8025,-1.9688,-6.72,-13.277732017642853,-2.4539085075418945,-1.3101552000124823,2.379000000008091
-0.0468,1.0031,-0.2364,0.157,0.1841,-0.031,-1.8025,-1.9688,-6.8338,-13.267577530710883,-2.4885067015699276,-1.3101552000124823,2.379000000008091
-0.043,1.0074,-0.2383,0.157,0.1841,-0.031,-1.19,-2.0563,-6.8338,-13.287113040826492,-2.462488172107498,-1.3451122999971616,2.3960000000006403
-0.0451,1.0106,-0.2317,0.157,0.1841,-0.031,-2.2925,-1.6363,-6.6062,-13.037333889632755,-2.4646375210007023,-1.3451122999971616,2.3960000000006403
-0.0464,1.0045,-0.2292,0.157,0.1849,-0.0286,-2.0387,-1.61,-6.9037,-12.920099670983014,-2.496003914089785,-1.3692623000079387,2.411000000007334
-0.0464,1.0045,-0.2292,0.157,0.1849,-0.0286,-2.0387,-1.61,-6.9037,-12.877553442265885,-2.518733810339887,-1.3692623000079387,2.411000000007334
-0.0495,1.0028,-0.2339,0.1585,0.1858,-0.0292,-2.275,-1.33,-6.65,-13.045170609018605,-2.544904030156273,-1.390542300002597,2.427000000003318
-0.0503,1.002,-0.23,0.1585,0.1858,-0.0292,-2.5463,-1.33,-5.9588,-12.963755745724123,-2.6373854651459565,-1.390542300002597,2.427000000003318
-0.0489,1.0039,-0.2322,0.1585,0.1858,-0.0292,-2.1875,-1.8637,-6.055,-13.002846428749846,-2.662811228974242,-1.418497800001512,2.4420000000027358
-0.0497,1.0018,-0.2292,0.1584,0.1849,-0.0351,-2.1875,-1.8637,-6.055,-12.926759614475229,-2.69661507845475,-1.418497800001512,2.4420000000027358
-0.0497,1.0,-0.2339,0.1584,0.1849,-0.0351,-2.0912,-2.59,-6.2475,-13.080032632266652,-2.7126290812880405,-1.4599378000099545,2.4580000000059954
-0.0486,1.0,-0.2339,0.157,0.1842,-0.031,-1.435,-2.9137,-6.2213,-13.125410635017737,-2.7118727803650735,-1.4599378000099545,2.4580000000059954
-0.0455,0.9999,-0.2308,0.157,0.1842,-0.031,-0.6475,-2.8087,-6.3088,-13.091270936978649,-2.6812466007520745,-1.504876999998674,2.474000000001979
-0.0425,1.0061,-0.2305,0.157,0.1842,-0.031,-0.6475,-2.8087,-6.3088,-13.041246843081819,-2.6240340261575974,-1.504876999998674,2.474000000001979
-0.0381,1.0078,-0.2272,0.1576,0.1827,-0.0316,-0.8138,-3.0275,-5.8538,-12.924502799395137,-2.4186529051708527,-1.5502895000189396,2.489000000008673
-0.04,1.0098,-0.2282,0.1576,0.1827,-0.0316,-0.9187,-2.0912,-5.4687,-12.850524944546345,-2.3129003779051875,-1.5502895000189396,2.489000000008673
-0.04,1.0098,-0.2282,0.1584,0.1841,-0.0226,-0.945,-1.6538,-5.3113,-12.80416454504197,-2.2579701902015903,-1.5767503000122973,2.5050000000046566
-0.0406,1.0065,-0.2273,0.1584,0.1841,-0.0226,-0.945,-1.6538,-5.3113,-12.772939166830842,-2.2553839041039345,-1.5767503000122973,2.5050000000046566
-0.0415,1.0048,-0.2311,0.1584,0.1841,-0.0226,-1.1025,-1.7325,-5.4163,-12.853821363132788,-2.2814360766375508,-1.6027378000112888,2.5200000000040745
-0.0461,1.0013,-0.2265,0.1578,0.1839,-0.0295,-0.8662,-0.945,-5.2413,-12.814162567173916,-2.4442314055108043,-1.6027378000112888,2.5200000000040745
-0.0463,1.0002,-0.2253,0.1578,0.1839,-0.0295,-1.12,-0.84,-5.2937,-12.75955157503,-2.5222493813098255,-1.616177800014027,2.536000000007334
-0.0463,1.0001,-0.2275,0.1581,0.1852,-0.0268,-1.12,-0.84,-5.2937,-12.784997812381102,-2.5566953739561122,-1.616177800014027,2.536000000007334
-0.0479,1.0001,-0.2275,0.1581,0.1852,-0.0268,-1.1812,-0.595,-5.1188,-12.799385596718936,-2.6251603229142786,-1.6256978000116373,2.552000000003318
-0.0513,1.0027,-0.2275,0.158,0.185,-0.023,-1.155,-0.5075,-5.355,-12.79188047851079,-2.7497401197234606,-1.6256978000116373,2.552000000003318
-0.0518,1.0006,-0.2261,0.158,0.185,-0.023,-1.155,-0.5075,-5.355,-12.764442126992734,-2.825726741310238,-1.633310300011342,2.5670000000027358
-0.0495,1.0025,-0.2283,0.158,0.185,-0.023,-0.9538,-0.84,-5.9938,-12.790441031197798,-2.8016843555788182,-1.633310300011342,2.5670000000027358
-0.0463,1.0072,-0.2261,0.1566,0.1839,-0.0346,-0.8487,-1.12,-5.495,-12.7405162571665,-2.6832650450850752,-1.6512303000068438,2.5829999999987194
-0.0463,1.0072,-0.2261,0.1566,0.1839,-0.0346,-1.0412,-1.2075,-5.4687,-12.702448812285827,-2.624167969410666,-1.6512303000068438,2.5829999999987194
-0.0462,1.0081,-0.2295,0.159,0.1829,-0.0296,-1.0412,-1.2075,-5.4687,-12.755350129393628,-2.590498626686706,-1.6693428000149266,2.5980000000054133
-0.0434,1.0088,-0.228,0.159,0.1829,-0.0296,-1.5925,-1.5838,-5.2937,-12.744102676275421,-2.487019767258619,-1.6693428000149266,2.5980000000054133
-0.0394,1.0053,-0.2281,0.159,0.1829,-0.0296,-1.3737,-1.33,-5.5825,-12.764819762593243,-2.342435065702898,-1.690622800019262,2.614000000008673
-0.0451,1.0047,-0.2311,0.1582,0.1835,-0.0307,-1.6888,-1.3212,-6.1075,-12.875236327016717,-2.390184506259428,-1.690622800019262,2.614000000008673
-0.0451,1.0047,-0.2362,0.1582,0.1835,-0.0307,-1.6888,-1.3212,-6.1075,-13.082354995834374,-2.423077221340467,-1.7117620000139557,2.6300000000046566
-0.0476,1.0032,-0.2362,0.159,0.1836,-0.0292,-2.0475,-1.7587,-5.9938,-13.188584332010397,-2.4997189842006335,-1.7117620000139557,2.6300000000046566
-0.0467,1.0019,-0.2303,0.159,0.1836,-0.0292,-2.17,-1.6625,-6.6762,-13.02959127653803,-2.513114306224929,-1.7366995000129881,2.6450000000040745
-0.0445,0.9975,-0.2271,0.159,0.1836,-0.0292,-1.6888,-1.5137,-6.7288,-12.910553889879278,-2.50930128136477,-1.7366995000129881,2.6450000000040745
-0.0475,0.9918,-0.229,0.1587,0.1858,-0.0251,-1.6888,-1.5137,-6.7288,-12.963615699985343,-2.536947772452277,-1.7609187000069086,2.661000000000058
-0.0506,0.9999,-0.229,0.1587,0.1858,-0.0251,-1.3737,-1.4088,-6.4313,-12.930213642609766,-2.5612364855728935,-1.7609187000069086,2.661000000000058
-0.0506,0.9999,-0.229,0.1575,0.1842,-0.0306,-0.945,-1.4088,-6.2038,-12.918015443817856,-2.6249257537237587,-1.782050700016339,2.676000000006752
-0.0464,1.0083,-0.2243,0.1575,0.1842,-0.0306,-1.1812,-1.4,-5.6875,-12.739852150634333,-2.6008223413198377,-1.782050700016339,2.676000000006752
-0.0461,1.0106,-0.2198,0.1575,0.1842,-0.0306,-1.1812,-1.4,-5.6875,-12.51775700430149,-2.578694901582233,-1.8044507000107162,2.6920000000027358
-0.0524,1.003,-0.2266,0.1582,0.1838,-0.0319,-1.6187,-1.1287,-5.6613,-12.639503034946147,-2.7354508408430425,-1.8225099000143954,2.7080000000059954
-0.0592,1.0025,-0.2279,0.1582,0.1838,-0.0319,-1.3913,-0.8575,-5.6,-12.727795227200673,-3.004438544943072,-1.8225099000143954,2.7080000000059954
-0.0592,1.0025,-0.227,0.1587,0.1838,-0.0305,-1.3913,-0.8575,-5.5213,-12.743964997341825,-3.1505321326623994,-1.8353724000138962,2.7230000000054133
-0.0587,1.0049,-0.227,0.1587,0.1838,-0.0305,-1.435,-1.68,-5.5213,-12.735997939641173,-3.2058734857647133,-1.8353724000138962,2.7230000000054133
-0.0546,1.0092,-0.223,0.1594,0.1848,-0.0266,-0.8575,-2.2925,-5.9938,-12.635414782012774,-3.1428785670005355,-1.8720524000046888,2.739000000001397
-0.0472,1.0084,-0.2241,0.1594,0.1848,-0.0266,-0.9275,-2.8263,-6.0988,-12.59387952630843,-2.9857987705685005,-1.8720524000046888,2.739000000001397
-0.0465,1.0081,-0.2273,0.1594,0.1848,-0.0266,-0.9275,-2.8263,-6.0988,-12.637893870837123,-2.8637061125341043,-1.9144469000236077,2.754000000008091
-0.0465,1.0057,-0.2293,0.1594,0.1834,-0.0323,-0.5337,-2.4237,-5.5213,-12.679155966979819,-2.722242239590051,-1.9144469000236077,2.754000000008091
-0.0465,1.0057,-0.2293,0.1594,0.1834,-0.0323,-0.9625,-1.8463,-5.2587,-12.74579639446005,-2.643425929040055,-1.9439877000161925,2.7700000000040745
-0.0422,1.0041,-0.224,0.1598,0.1847,-0.0305,-0.805,-1.5313,-4.5763,-12.687553760746441,-2.44883934897504,-1.9439877000161925,2.7700000000040745
-0.0462,1.0028,-0.2223,0.1598,0.1847,-0.0305,-0.805,-1.5313,-4.5763,-12.6229606338488,-2.532444707294808,-1.968488500021184,2.786000000007334
-0.0483,1.0008,-0.224,0.1598,0.1847,-0.0305,-1.435,-1.2513,-4.2088,-12.619270983216882,-2.646953026649095,-1.968488500021184,2.786000000007334
-0.0467,0.9986,-0.2237,0.1585,0.1838,-0.0242,-0.8487,-1.2163,-4.3837,-12.621911026429096,-2.623710562267052,-1.9867330000204761,2.801000000006752
-0.0467,0.9986,-0.2281,0.1585,0.1838,-0.0242,-0.525,-1.2775,-4.0075,-12.669577165137397,-2.614168877881176,-1.9867330000204761,2.801000000006752
-0.0492,1.0001,-0.2281,0.1578,0.1822,-0.0301,-0.525,-1.2775,-4.0075,-12.704330919963159,-2.7085044809657335,-2.0071730000153454,2.8170000000027358
-0.0462,1.0002,-0.2267,0.1578,0.1822,-0.0301,-0.0962,-1.4787,-4.3137,-12.714771294624452,-2.6195669376684383,-2.0071730000153454,2.8170000000027358
-0.0428,1.0002,-0.2258,0.1578,0.1822,-0.0301,0.3413,-1.4438,-4.655,-12.717374430998246,-2.470150708520181,-2.02883000002501,2.8320000000094296
-0.0418,1.0002,-0.2278,0.1587,0.1831,-0.0322,0.6825,-1.0762,-4.6287,-12.772955646732981,-2.3806404887181163,-2.02883000002501,2.8320000000094296
-0.0393,1.0023,-0.2283,0.1587,0.1831,-0.0322,0.6825,-1.0762,-4.6287,-12.801810319335006,-2.255449391102362,-2.046049200012857,2.8479999999981374
-0.0393,1.0023,-0.2283,0.1584,0.1822,-0.0274,0.525,-0.84,-4.7512,-12.815165182310105,-2.2132142867733546,-2.046049200012857,2.8479999999981374
-0.0373,1.0041,-0.2241,0.1584,0.1822,-0.0274,0.3325,-0.9975,-4.6287,-12.726064636593682,-2.123650779631558,-2.0620092000161083,2.864000000001397
-0.0353,1.0027,-0.2303,0.1584,0.1822,-0.0274,0.3237,-0.8662,-4.8212,-12.805109106260264,-2.023790493119327,-2.0620092000161083,2.864000000001397
-0.0352,1.0025,-0.2302,0.1593,0.1855,-0.023,0.3237,-0.8662,-4.8212,-12.85318979068593,-1.9835962189828389,-2.0750022000219066,2.879000000008091
-0.0372,0.9995,-0.2299,0.1593,0.1855,-0.023,0.4462,-1.1113,-5.11,-12.895532850958553,-2.0384739868564243,-2.0750022000219066,2.879000000008091
-0.0372,0.9995,-0.2299,0.1586,0.1842,-0.0303,0.105,-0.4638,-5.0925,-12.911766996844948,-2.0613253383233148,-2.082423000020044,2.8950000000040745
-0.0386,0.9975,-0.2269,0.1586,0.1842,-0.0303,0.105,-0.4638,-5.4513,-12.884688048745941,-2.1128574465755245,-2.082423000020044,2.8950000000040745
-0.0426,0.9976,-0.2263,0.1586,0.1825,-0.026,0.1488,-0.6737,-5.4513,-12.853384274845848,-2.2535157233865304,-2.0925285000196516,2.9100000000034925
-0.0459,0.9978,-0.2345,0.1584,0.1825,-0.026,0.5775,-0.6388,-5.4775,-13.025506908532689,-2.412294667816572,-2.0925285000196516,2.9100000000034925
-0.0469,1.0012,-0.2313,0.1584,0.1825,-0.026,0.49,-1.015,-5.775,-13.018050896965834,-2.498339614532381,-2.108768500015575,2.925999999999476
-0.0495,1.0024,-0.2336,0.1582,0.1829,-0.0293,0.49,-1.015,-5.775,-13.061687446676611,-2.6075439263428852,-2.108768500015575,2.925999999999476
-0.0495,1.0024,-0.2336,0.1582,0.1829,-0.0293,0.4288,-1.19,-5.9412,-13.085158120025266,-2.661232272336688,-2.127808500019454,2.9420000000027358
-0.0486,1.0052,-0.2327,0.1588,0.1834,-0.0252,1.0588,-1.1375,-5.8713,-13.055933784668392,-2.6752777630092965,-2.127808500019454,2.9420000000027358
-0.0453,1.0066,-0.2313,0.1588,0.1834,-0.0252,0.665,-1.4175,-5.32,-12.999983181569961,-2.5857532480799494,-2.1490710000186293,2.9570000000021537
-0.0489,1.0113,-0.2333,0.1588,0.1834,-0.0252,0.665,-1.4175,-5.32,-12.99535730859234,-2.646824614030375,-2.1490710000186293,2.9570000000021537
-0.0475,1.0117,-0.2317,0.1596,0.1839,-0.032,0.4638,-1.855,-5.2937,-12.954346623010066,-2.632226610960696,-2.178751000024676,2.9730000000054133
-0.0475,1.0117,-0.2317,0.1596,0.1839,-0.032,-0.0437,-2.0475,-5.1275,-12.943737607639815,-2.625311416063156,-2.209463500023484,2.9880000000048312
-0.0497,1.0114,-0.234,0.158,0.1851,-0.0287,-1.015,-2.2487,-5.0662,-12.978871200442537,-2.69389654657963,-2.209463500023484,2.9880000000048312
-0.0447,1.0049,-0.231,0.158,0.1851,-0.0287,-1.015,-2.2487,-5.0662,-12.964933710458647,-2.56839975380801,-2.2454427000144523,3.004000000000815
-0.0461,0.9999,-0.2314,0.158,0.1851,-0.0287,-0.7788,-2.4938,-5.18,-12.986554417601548,-2.570379869805483,-2.2454427000144523,3.004000000000815
-0.0448,0.9992,-0.2343,0.1583,0.1845,-0.0274,-0.5512,-2.4413,-5.3987,-13.030969570828557,-2.5328437753557673,-2.28450350002241,3.0200000000040745
-0.0417,1.0009,-0.2327,0.1583,0.1845,-0.0274,-0.8662,-2.4062,-5.075,-13.052057035010973,-2.409168026714428,-2.28450350002241,3.0200000000040745
-0.0417,1.0009,-0.2327,0.1605,0.1834,-0.0301,-0.8662,-2.4062,-5.075,-13.065378616598835,-2.358662113610887,-2.3205965000210096,3.0350000000034925
-0.0429,1.0019,-0.2342,0.1605,0.1834,-0.0301,-0.7,-2.6425,-4.4538,-13.092324046943501,-2.378136759133878,-2.3205965000210096,3.0350000000034925
-0.041,1.0011,-0.2317,0.1605,0.1834,-0.0301,-0.3675,-2.4762,-4.7162,-13.08758936392088,-2.31811094297679,-2.360215700029081,3.051000000006752
-0.0401,1.0041,-0.2317,0.1595,0.1838,-0.0302,-0.3675,-1.9425,-4.9788,-13.080299907320407,-2.263690071422126,-2.360215700029081,3.051000000006752
-0.0388,1.0084,-0.2317,0.1595,0.1838,-0.0302,-0.2187,-1.9425,-4.9788,-13.071808119223906,-2.193194851846177,-2.3893532000279505,3.06600000000617
-0.0388,1.0084,-0.2317,0.1597,0.1839,-0.0289,-0.1312,-1.6712,-5.3288,-13.05444454040907,-2.1683537001376263,-2.3893532000279505,3.06600000000617
-0.0346,1.0094,-0.2258,0.1597,0.1839,-0.0289,-0.9187,-0.9625,-5.7137,-12.881490934968392,-2.055369649486644,-2.4047532000240848,3.0820000000021537
-0.0373,1.002,-0.2277,0.1597,0.1829,-0.0302,-0.9187,-0.9625,-5.7137,-12.850909078801086,-2.0659125910389413,-2.4047532000240848,3.0820000000021537
-0.0414,0.9992,-0.2256,0.1597,0.1829,-0.0302,-1.1725,-1.1988,-5.8625,-12.790678824206125,-2.1648187466631774,-2.4239340000279923,3.0980000000054133
-0.0429,0.9992,-0.2281,0.1597,0.1829,-0.0302,-1.4175,-0.9887,-5.6525,-12.827134424142411,-2.272856385932963,-2.4239340000279923,3.0980000000054133
-0.045,0.9988,-0.2293,0.1593,0.1846,-0.0251,-1.4787,-0.8838,-6.0375,-12.882961967104679,-2.351860938468333,-2.437191000027478,3.1130000000048312
-0.045,0.9988,-0.2293,0.1593,0.1846,-0.0251,-1.4787,-0.8838,-6.0375,-12.908390656356916,-2.4050183416133004,-2.437191000027478,3.1130000000048312
-0.0493,1.001,-0.2267,0.1592,0.1838,-0.023,-0.77,-0.5512,-6.2825,-12.860043081448769,-2.4720760435214517,-2.4460102000292747,3.129000000008091
-0.0508,1.0019,-0.2267,0.1592,0.1838,-0.023,-0.6037,-1.3212,-6.0725,-12.833247146001241,-2.583730372772729,-2.4460102000292747,3.129000000008091
-0.0494,1.0029,-0.2263,0.1592,0.1838,-0.023,-0.455,-1.5662,-6.4225,-12.816000737631262,-2.5990980311150285,-2.469503200028363,3.144000000007509
-0.05,1.0075,-0.2282,0.1595,0.183,-0.0243,-0.455,-1.5662,-6.4225,-12.808118652280367,-2.614906058212232,-2.469503200028363,3.144000000007509
-0.05,1.0075,-0.2282,0.1595,0.183,-0.0243,-0.2625,-1.68,-6.3263,-12.80718598246324,-2.6406521801466334,-2.496383200021616,3.1600000000034925
-0.0507,1.0131,-0.2275,0.16,0.1812,-0.0302,-0.5163,-1.6013,-6.5975,-12.778666162605514,-2.651285533391183,-2.496383200021616,3.1600000000034925
-0.049,1.0123,-0.2221,0.16,0.1812,-0.0302,-0.7875,-1.6625,-6.2387,-12.643248491778701,-2.663628384952546,-2.522983200027035,3.176000000006752
-0.0497,1.0102,-0.2237,0.16,0.1812,-0.0302,-0.7875,-1.6625,-6.2387,-12.590590310613536,-2.6828008113619792,-2.522983200027035,3.176000000006752
-0.0528,1.0092,-0.2267,0.1605,0.1847,-0.0443,-0.8662,-1.4262,-5.95,-12.61629468950319,-2.7700854658548266,-2.5443762000158276,3.190999999998894
-0.0538,1.0042,-0.2254,0.1605,0.1847,-0.0443,-1.435,-1.8813,-5.8275,-12.634754910112848,-2.861326765377809,-2.5443762000158276,3.190999999998894
-0.0538,1.0042,-0.2254,0.1594,0.1847,-0.0279,-1.435,-2.2838,-5.8713,-12.643334056256185,-2.9130693136333385,-2.580917000023272,3.2070000000021537
-0.0541,1.002,-0.2244,0.1594,0.1847,-0.0279,-1.435,-2.2838,-5.8713,-12.632569501725651,-2.9536902252335366,-2.580917000023272,3.2070000000021537
-0.0542,0.9999,-0.2245,0.1594,0.1847,-0.0279,-1.0412,-2.1263,-5.7488,-12.641955055647795,-2.985907228762997,-2.612811500022034,3.2220000000015716
-0.0523,1.0003,-0.2266,0.1593,0.1853,-0.0241,-0.6913,-1.96,-5.6175,-12.677296430382066,-2.9541539477138756,-2.612811500022034,3.2220000000015716
-0.0521,1.0023,-0.2248,0.1593,0.1853,-0.0241,-0.6913,-1.4875,-5.4338,-12.666875798547517,-2.927776848689278,-2.636611500026883,3.2380000000048312
-0.0521,1.0023,-0.2248,0.1578,0.1853,-0.0245,-0.2713,-1.4875,-5.4338,-12.666574355970564,-2.915155852743658,-2.636611500026883,3.2380000000048312
-0.0512,1.0038,-0.222,0.1578,0.1853,-0.0245,-0.0962,-1.7587,-5.4862,-12.635721974092371,-2.8825540420091524,-2.6647507000326156,3.254000000008091
-0.0478,1.0043,-0.2239,0.1578,0.1853,-0.0311,-0.0088,-0.9187,-5.0138,-12.621152588610098,-2.748522216241514,-2.6647507000326156,3.254000000008091
-0.0493,1.0053,-0.2249,0.16,0.1848,-0.0311,-0.0088,-0.9187,-5.0138,-12.618804645516022,-2.7433478852378297,-2.6785312000253962,3.269000000000233
-0.0503,1.007,-0.2238,0.16,0.1848,-0.0311,0.3762,-0.56,-4.725,-12.583519670157877,-2.774339234200478,-2.6785312000253962,3.269000000000233
-0.0506,1.0076,-0.2222,0.161,0.1854,-0.0297,0.42,-0.7175,-5.0312,-12.522632954413238,-2.7942196947240596,-2.690011200027735,3.2850000000034925
-0.0506,1.0076,-0.2222,0.161,0.1854,-0.0297,-0.2275,-0.8225,-4.6988,-12.51806141169741,-2.802824483958089,-2.690011200027735,3.2850000000034925
-0.051,1.0064,-0.2296,0.16,0.1833,-0.0271,-0.2275,-0.8225,-4.6988,-12.535667624071444,-2.8193911937987584,-2.7023487000272564,3.3000000000029104
-0.0535,1.0044,-0.2273,0.16,0.1833,-0.0271,-0.14,-0.8313,-4.8125,-12.562709665461508,-2.916944543779193,-2.7023487000272564,3.3000000000029104
-0.0526,1.005,-0.2292,0.16,0.1833,-0.0271,-0.49,-1.3388,-4.8913,-12.611440550699966,-2.91955972720814,-2.7237695000316204,3.31600000000617
-0.0533,1.0055,-0.2275,0.1603,0.1837,-0.0212,-0.4812,-1.3388,-5.3288,-12.634144804159693,-2.9413849519887907,-2.7451903000359845,3.3320000000094296
-0.0533,1.0055,-0.2275,0.1603,0.1837,-0.0212,-0.4812,-1.3388,-5.3288,-12.653097313610992,-2.951328387648774,-2.7451903000359845,3.3320000000094296
-0.052,1.0036,-0.2286,0.1589,0.1839,-0.0298,-0.385,-2.0213,-5.705,-12.669610995834127,-2.9246629139265066,-2.7755098000201013,3.3470000000015716
-0.0476,1.0064,-0.2311,0.1589,0.1839,-0.0298,-0.3762,-2.205,-6.09,-12.691982133799957,-2.8383421879821285,-2.7755098000201013,3.3470000000015716
-0.0461,1.0125,-0.2268,0.1589,0.1839,-0.0298,-0.9975,-2.0475,-6.02,-12.664422302250191,-2.7397302368505603,-2.808269800026775,3.3630000000048312
-0.0418,1.012,-0.2251,0.1596,0.185,-0.0366,-0.9975,-2.0475,-6.02,-12.612663095478425,-2.5953918727992793,-2.808269800026775,3.3630000000048312
-0.0418,1.005,-0.2264,0.1596,0.185,-0.0366,-1.015,-1.715,-5.88,-12.647583572770943,-2.4889163331887363,-2.833994800025777,3.378000000004249
-0.0434,1.005,-0.2264,0.1592,0.1822,-0.0289,-1.2775,-1.5925,-5.8362,-12.671375606480057,-2.4577214430081136,-2.833994800025777,3.378000000004249
-0.0514,0.9972,-0.2278,0.1592,0.1822,-0.0289,-1.2775,-1.2425,-5.4862,-12.769317262081788,-2.6710627177820676,-2.853874800029827,3.394000000007509
-0.0527,0.9995,-0.2284,0.1592,0.1822,-0.0289,-1.2775,-1.2425,-5.4862,-12.82045512830189,-2.809277971767156,-2.853874800029827,3.394000000007509
-0.0508,1.0016,-0.228,0.161,0.1841,-0.0224,-1.4262,-1.6625,-5.3025,-12.822369468190507,-2.821321744979804,-2.880474800035246,3.4100000000107684
-0.0484,1.0027,-0.2278,0.161,0.1841,-0.0224,-1.0325,-1.785,-5.4775,-12.812605278914848,-2.7567008057137925,-2.880474800035246,3.4100000000107684
-0.0484,1.0027,-0.2278,0.16,0.183,-0.0344,-1.0325,-1.785,-5.81,-12.807023365885783,-2.730976884594427,-2.9072498000212192,3.4250000000029104
-0.0492,1.0037,-0.2274,0.16,0.183,-0.0344,-0.7613,-1.7062,-5.81,-12.793600803968785,-2.733508770559341,-2.9072498000212192,3.4250000000029104
-0.0446,1.0025,-0.2271,0.16,0.183,-0.0344,-0.3325,-1.68,-5.5912,-12.792210993533676,-2.613336412461805,-2.9341298000266955,3.44100000000617
-0.0452,1.0037,-0.222,0.1601,0.1844,-0.0282,-0.4288,-1.82,-5.5475,-12.751522132431413,-2.566099040077445,-2.9341298000266955,3.44100000000617
-0.0484,1.0025,-0.2242,0.1601,0.1844,-0.0282,-0.4288,-1.82,-5.5475,-12.733062915498316,-2.6310196917540085,-2.9614298000256363,3.456000000005588
-0.0484,1.0029,-0.2273,0.1601,0.1846,-0.0227,-0.4638,-1.75,-5.6525,-12.738702686668674,-2.6606758295415274,-2.9614298000256363,3.456000000005588
-0.0481,1.0029,-0.2273,0.1601,0.1846,-0.0227,-0.5163,-1.3388,-5.5213,-12.744606436413054,-2.6693667434844994,-2.9828506000202593,3.4720000000015716
-0.0512,1.0037,-0.2241,0.1582,0.1842,-0.0351,-0.3413,-1.33,-5.1712,-12.735915584270364,-2.773298833298132,-2.9828506000202593,3.4720000000015716
-0.0493,1.0026,-0.2248,0.1582,0.1842,-0.0351,-0.3413,-1.33,-5.1712,-12.730525300675215,-2.7581756232972037,-3.0041306000245944,3.4880000000048312
-0.0486,1.005,-0.2257,0.1582,0.1842,-0.0351,-0.035,-1.1113,-5.4338,-12.71596645339323,-2.728557764285489,-3.0041306000245944,3.4880000000048312
-0.0483,1.0033,-0.227,0.1614,0.1838,-0.032,-0.14,-1.6712,-5.3637,-12.720070025393763,-2.7069429378702043,-3.0291986000236215,3.503000000004249
-0.0483,1.0033,-0.227,0.1614,0.1838,-0.032,0.2887,-1.3125,-5.0925,-12.730493187859631,-2.6959740165936754,-3.0291986000236215,3.503000000004249
-0.0501,1.007,-0.2311,0.1609,0.1841,-0.0285,0.2887,-1.3125,-5.0925,-12.801336973841051,-2.7431813873038315,-3.0501986000278998,3.519000000007509
-0.0459,1.0084,-0.2241,0.1609,0.1841,-0.0285,0.1925,-1.365,-5.1975,-12.71367398067694,-2.629730143683165,-3.0501986000278998,3.519000000007509
-0.0455,1.0061,-0.2253,0.1609,0.1841,-0.0285,0.2537,-1.3475,-5.1363,-12.681729376239298,-2.5699652242182034,-3.070411100017311,3.5339999999996508
-0.0476,1.0042,-0.2259,0.159,0.1831,-0.0199,-0.1925,-1.435,-4.935,-12.681414089140988,-2.617715284018218,-3.070411100017311,3.5339999999996508
-0.0476,1.0028,-0.2302,0.159,0.1831,-0.0199,-0.1925,-1.435,-4.935,-12.701984522007885,-2.6368108144528737,-3.0933711000219883,3.5500000000029104
-0.049,1.0028,-0.2302,0.1606,0.1864,-0.0258,-0.0263,-1.5137,-4.9788,-12.74832330482799,-2.691331264071772,-3.0933711000219883,3.5500000000029104
-0.0498,1.0047,-0.2261,0.1606,0.1864,-0.0258,-0.1138,-1.3212,-4.9175,-12.738813517115242,-2.738910638100746,-3.114510300026295,3.56600000000617
-0.048,1.0019,-0.2266,0.1606,0.1864,-0.0258,-0.1138,-1.855,-5.1363,-12.739592308716453,-2.7020091606567576,-3.114510300026295,3.56600000000617
-0.05,1.0022,-0.2262,0.1601,0.1857,-0.0245,-0.3675,-1.855,-5.1363,-12.73797195783556,-2.750913754201662,-3.1423353000252154,3.581000000005588
-0.0471,1.0025,-0.2292,0.1601,0.1857,-0.0245,-0.3413,-2.4588,-5.075,-12.745661008133208,-2.6748567302720323,-3.1423353000252154,3.581000000005588
-0.0471,1.0025,-0.2292,0.1605,0.184,-0.025,-0.1575,-2.345,-5.3725,-12.760454945337884,-2.646761918190155,-3.1798553000328593,3.5970000000088476
-0.0482,1.0041,-0.2284,0.1605,0.184,-0.025,-0.1575,-2.345,-5.3725,-12.766533164224132,-2.6645049132434053,-3.1798553000328593,3.5970000000088476
-0.0464,1.005,-0.2272,0.1605,0.184,-0.025,-0.3237,-2.31,-5.5037,-12.765451090992315,-2.6210475058843903,-3.2145053000147072,3.6120000000009895
-0.0418,1.005,-0.2275,0.1596,0.1853,-0.0346,-0.8838,-2.2575,-5.3463,-12.761519943217841,-2.4598629173823614,-3.2145053000147072,3.6120000000009895
-0.0463,1.0038,-0.2277,0.1596,0.1853,-0.0346,-1.295,-1.925,-5.6613,-12.771105672754477,-2.513429514509266,-3.245305300020982,3.628000000004249
-0.0463,1.0038,-0.228,0.162,0.1834,-0.029,-1.295,-1.925,-5.6613,-12.784060421940993,-2.5421142236772756,-3.245305300020982,3.628000000004249
-0.0454,1.0014,-0.228,0.162,0.1834,-0.029,-0.9887,-1.9425,-5.8187,-12.801624031866393,-2.5375703310735416,-3.276385300027314,3.644000000007509
-0.0443,1.0,-0.2241,0.1605,0.1846,-0.0238,-0.7875,-1.9162,-5.81,-12.744525679685953,-2.5116072748339247,-3.276385300027314,3.644000000007509
-0.0466,0.9987,-0.2269,0.1605,0.1846,-0.0238,-0.5337,-1.5575,-5.6438,-12.755646820605577,-2.5554263226627203,-3.2997478000264073,3.6590000000069267
-0.0486,1.0009,-0.229,0.1605,0.1846,-0.0238,-0.5337,-1.5575,-5.6438,-12.78198069981571,-2.6277640198079313,-3.2997478000264073,3.6590000000069267
-0.0472,1.0006,-0.2273,0.1598,0.1854,-0.0263,-0.5337,-1.8025,-5.8975,-12.785254525304389,-2.6300634384690875,-3.328587800032283,3.6750000000101863
-0.0472,1.0006,-0.2273,0.1598,0.1854,-0.0263,-0.3063,-1.785,-6.2475,-12.785549097643726,-2.6308581881898836,-3.328587800032283,3.6750000000101863
-0.0464,1.0017,-0.2241,0.1605,0.1854,-0.0283,-0.4025,-2.2838,-6.5275,-12.766902345152559,-2.630698409296338,-3.3628448000143365,3.6900000000023283
-0.0467,1.0035,-0.2271,0.1605,0.1854,-0.0283,-0.4025,-2.2838,-6.5275,-12.765281593489753,-2.630578979897405,-3.3628448000143365,3.6900000000023283
-0.0475,1.0068,-0.2279,0.1605,0.1854,-0.0283,-0.6913,-2.2838,-6.475,-12.76217739577188,-2.630766225150001,-3.399385600021781,3.706000000005588
-0.0476,1.0045,-0.2266,0.1614,0.1844,-0.0352,-0.1663,-1.75,-6.72,-12.75695260221887,-2.6333679231380334,-3.4273856000147522,3.7220000000015716
-0.0476,1.0045,-0.227,0.1614,0.1844,-0.0352,-0.2713,-1.4525,-6.65,-12.75668148315155,-2.6348286978326274,-3.4273856000147522,3.7220000000015716
-0.0475,1.0042,-0.227,0.1603,0.1842,-0.0276,-0.2713,-1.4525,-6.65,-12.756457004549212,-2.635587342553612,-3.449173100024475,3.7370000000082655
-0.05,1.0046,-0.2249,0.1603,0.1842,-0.0276,-0.2625,-1.4,-6.6588,-12.753658430022515,-2.6528431164306316,-3.449173100024475,3.7370000000082655
-0.0488,1.0072,-0.2287,0.1603,0.1842,-0.0276,-0.315,-0.9275,-6.3525,-12.754867897848104,-2.6604866816991652,-3.46401310002075,3.753000000004249
-0.0521,1.008,-0.2241,0.1588,0.1876,-0.0324,-0.315,-0.9275,-6.4313,-12.748077002521743,-2.6797708885285596,-3.46401310002075,3.753000000004249
-0.0546,1.0066,-0.2299,0.1588,0.1876,-0.0324,-0.735,-0.8662,-6.4313,-12.784543164088854,-2.7091521452356497,-3.4770061000202457,3.768000000003667
-0.0546,1.0066,-0.2299,0.1613,0.1844,-0.0313,-0.2275,-0.5163,-6.4925,-12.788805365517623,-2.7187803238832196,-3.4770061000202457,3.768000000003667
-0.0527,1.0093,-0.2262,0.1613,0.1844,-0.0313,0.3588,-0.595,-6.1425,-12.727552762645619,-2.773416026891236,-3.486526100022185,3.7840000000069267
-0.0491,1.0123,-0.2212,0.1613,0.1844,-0.0313,0.3588,-0.595,-6.1425,-12.570579225966018,-2.7567267252219207,-3.486526100022185,3.7840000000069267
-0.0526,1.0084,-0.2238,0.1609,0.1846,-0.0222,-0.3063,-0.5863,-5.4163,-12.569285369928874,-2.8399732108833793,-3.4959069000198304,3.8000000000029104
-0.0562,1.003,-0.2278,0.1609,0.1846,-0.0222,-0.56,-0.6125,-5.565,-12.618401079683219,-2.9807338598509494,-3.4959069000198304,3.8000000000029104
-0.0562,1.003,-0.2221,0.1609,0.1856,-0.0274,-1.0675,-0.7613,-5.3025,-12.56014214923614,-3.06353863653133,-3.5073264000193873,3.8150000000023283
-0.0564,1.0017,-0.2221,0.1609,0.1856,-0.0274,-1.0675,-0.7613,-5.3025,-12.534389057665908,-3.1090647227883266,-3.5073264000193873,3.8150000000023283
-0.0554,1.0,-0.2208,0.1602,0.1851,-0.0345,-1.26,-0.6125,-5.3288,-12.493249912213978,-3.102230865209281,-3.5171264000213838,3.831000000005588
-0.0582,1.0008,-0.2265,0.1602,0.1851,-0.0345,-0.4112,-0.5775,-4.9,-12.522635566697547,-3.1913796616900356,-3.5171264000213838,3.831000000005588
-0.0637,1.0006,-0.2245,0.1602,0.1851,-0.0345,-0.0962,-1.2163,-5.215,-12.542038078709757,-3.397221330753328,-3.5353709000206757,3.846000000005006
-0.0608,1.0039,-0.2233,0.1595,0.1839,-0.0302,-0.0962,-1.2163,-5.215,-12.541762470038085,-3.3893464088130085,-3.5353709000206757,3.846000000005006
-0.0608,1.0039,-0.2233,0.1595,0.1839,-0.0302,0.2362,-1.5137,-5.1887,-12.54125873592723,-3.3859061333349705,-3.5595901000256096,3.8620000000082655
-0.0582,1.0076,-0.2275,0.1614,0.1845,-0.0246,0.5337,-2.1088,-5.3025,-12.623034492436723,-3.297325170170734,-3.5595901000256096,3.8620000000082655
-0.0522,1.0095,-0.2289,0.1614,0.1845,-0.0246,0.4638,-2.4762,-5.5037,-12.688255632419324,-3.0900786834324667,-3.5992093000156644,3.878000000004249
-0.0506,1.0144,-0.2264,0.1614,0.1845,-0.0246,0.4638,-2.4762,-5.5037,-12.642574455188283,-2.93712818139216,-3.5992093000156644,3.878000000004249
-0.0481,1.0127,-0.2259,0.1618,0.1853,-0.0283,0.2362,-1.9075,-5.5213,-12.6194480056683,-2.7954846891361314,-3.627821800014554,3.893000000003667
-0.0481,1.0127,-0.2259,0.1618,0.1853,-0.0283,-0.2887,-2.1088,-5.39,-12.619206458745298,-2.7204070312186905,-3.627821800014554,3.893000000003667
-0.049,1.0086,-0.2251,0.1616,0.1844,-0.0274,-0.2887,-2.0475,-5.3463,-12.618999859928467,-2.7173124847723336,-3.660581800021228,3.9090000000069267
-0.0511,1.0045,-0.2237,0.1616,0.1844,-0.0274,-0.105,-2.0475,-5.3463,-12.609283866461812,-2.785098384769396,-3.660581800021228,3.9090000000069267
-0.0504,1.0041,-0.2245,0.1616,0.1844,-0.0274,-0.4025,-1.9863,-5.11,-12.60862507936961,-2.7963911893006266,-3.690376300020072,3.9240000000063446
-0.0512,1.0001,-0.2248,0.1607,0.1847,-0.0358,-0.0525,-1.8637,-5.2413,-12.61980381719539,-2.831832150946586,-3.690376300020072,3.9240000000063446
-0.054,1.0018,-0.2276,0.1607,0.1847,-0.0358,-0.0525,-1.8637,-5.2413,-12.653553298204457,-2.9313199378720256,-3.7220592000197463,3.94100000000617
-0.054,1.0018,-0.2276,0.1606,0.1843,-0.0291,0.0263,-1.8637,-5.145,-12.68812638578215,-2.976284309357663,-3.7220592000197463,3.94100000000617
-0.0547,1.0013,-0.2231,0.1606,0.1843,-0.0291,0.28,-1.26,-5.1188,-12.64229148863054,-3.020635716424301,-3.7422192000146857,3.9570000000021537
-0.054,1.0022,-0.2259,0.1606,0.1843,-0.0291,0.5512,-0.4025,-5.4775,-12.669642393121366,-3.0146114390959386,-3.7422192000146857,3.9570000000021537
-0.0536,1.0032,-0.2289,0.1615,0.1856,-0.0334,0.5512,-0.4025,-5.4775,-12.75310816301437,-2.997864790406279,-3.74825670001738,3.9720000000088476
-0.0513,0.9999,-0.2255,0.1615,0.1856,-0.0334,0.525,-0.7613,-6.2125,-12.73333811948286,-2.9663654338382366,-3.74825670001738,3.9720000000088476
-0.0513,0.9999,-0.2255,0.1599,0.1855,-0.0298,0.1312,-0.9275,-6.0637,-12.726170986895994,-2.934476601712876,-3.763096700013655,3.9880000000048312
-0.0489,1.003,-0.2279,0.1599,0.1855,-0.0298,0.1838,-1.1812,-5.8538,-12.750089899505658,-2.8491971189173793,-3.763096700013655,3.9880000000048312
-0.0498,1.002,-0.2288,0.1599,0.1864,-0.0318,0.1838,-1.1812,-5.8538,-12.785901934383148,-2.8190333934310083,-3.7808147000129675,4.003000000004249
-0.0516,1.0031,-0.2303,0.161,0.1864,-0.0318,0.3762,-0.2013,-5.2325,-12.843307044618415,-2.8478608264465035,-3.7808147000129675,4.003000000004249
-0.0529,1.0052,-0.2262,0.161,0.1864,-0.0318,-0.0088,-0.1138,-4.7425,-12.808572807566287,-2.906310577023073,-3.7826355000133383,4.019000000007509
-0.0511,1.0057,-0.2286,0.1604,0.1871,-0.0235,-0.105,-0.3588,-4.445,-12.808182040197527,-2.859166749374999,-3.7826355000133383,4.019000000007509
-0.0511,1.0057,-0.2286,0.1604,0.1871,-0.0235,-0.105,-0.3588,-4.445,-12.807850388148287,-2.8438540375924206,-3.788376300011897,4.0350000000034925
-0.0531,1.0072,-0.2304,0.161,0.1857,-0.0268,0.3762,-0.525,-4.655,-12.838463780785093,-2.90779349261759,-3.788376300011897,4.0350000000034925
-0.0536,1.0094,-0.2303,0.161,0.1857,-0.0268,0.2713,-0.3063,-5.0487,-12.843414868361387,-2.941043298464018,-3.7929708000117186,4.05000000000291
-0.0523,1.0078,-0.2252,0.161,0.1857,-0.0268,0.0,-0.4025,-5.2937,-12.78885048045781,-2.918037408332804,-3.799410800010102,4.065999999998894
-0.0484,1.0082,-0.2292,0.1598,0.185,-0.0275,0.0,-0.4025,-5.2937,-12.793012118593243,-2.786834819481423,-3.799410800010102,4.065999999998894
-0.0484,1.0082,-0.2292,0.1598,0.185,-0.0275,-0.2713,-1.0063,-5.2325,-12.793185551421951,-2.726722986495619,-3.814505300016838,4.081000000005588
-0.0494,1.0139,-0.2292,0.1613,0.1855,-0.03,-0.8575,-0.6037,-5.495,-12.773075925465733,-2.723747342893711,-3.814505300016838,4.081000000005588
-0.0475,1.0102,-0.2271,0.1613,0.1855,-0.03,-0.8575,-0.6037,-5.4425,-12.735423517645133,-2.673292220806258,-3.824164500018806,4.097000000008848
-0.0515,1.0018,-0.2264,0.1613,0.1855,-0.03,-1.4,-0.7175,-5.4425,-12.734955669152987,-2.7757836596528724,-3.824164500018806,4.097000000008848
-0.0569,0.9992,-0.2309,0.1619,0.1846,-0.0323,-1.5838,-1.4088,-5.81,-12.891453958481213,-2.942344719393994,-3.8467053000131477,4.113000000004831
-0.0517,1.0028,-0.2228,0.1619,0.1846,-0.0323,-1.4787,-1.6625,-6.3437,-12.69267049728006,-2.933012131065186,-3.8467053000131477,4.113000000004831
-0.0517,1.0028,-0.2228,0.1618,0.1866,-0.0278,-1.4787,-1.6625,-6.3437,-12.602127324588677,-2.925103412592723,-3.87164280001218,4.128000000004249
-0.0494,1.0035,-0.2223,0.1618,0.1866,-0.0278,-1.3125,-1.5575,-6.5012,-12.54561844039014,-2.9212805711138494,-3.87164280001218,4.128000000004249
-0.0525,1.0053,-0.2281,0.1618,0.1866,-0.0278,-1.0237,-1.855,-6.86,-12.646957631369029,-2.919821083847089,-3.90132280000473,4.144000000000233
-0.0531,1.0061,-0.225,0.1608,0.1867,-0.027,-1.4787,-1.8112,-7.3063,-12.62463734429621,-2.9323933452146766,-3.90132280000473,4.144000000000233
-0.0504,1.005,-0.2235,0.1608,0.1867,-0.027,-1.4787,-1.8112,-7.3063,-12.577387012853531,-2.8754049330944293,-3.928490800016854,4.159000000006927
-0.0504,1.005,-0.2235,0.1622,0.187,-0.027,-1.855,-1.6975,-7.0613,-12.553230909217042,-2.8499446208893273,-3.928490800016854,4.159000000006927
-0.0473,1.0061,-0.2256,0.1622,0.187,-0.027,-2.3975,-2.0563,-7.2975,-12.611122319620977,-2.7524940150249435,-3.961391600023557,4.175000000010186
-0.0489,1.0034,-0.2284,0.1622,0.187,-0.0371,-1.2163,-1.68,-6.6762,-12.713641073517563,-2.748271976233929,-3.961391600023557,4.175000000010186
-0.0467,1.0002,-0.2221,0.1618,0.185,-0.0371,-1.2163,-1.68,-6.6762,-12.620033276329865,-2.729947865739308,-3.9882716000168097,4.19100000000617
-0.0499,1.0039,-0.2264,0.1618,0.185,-0.0371,-0.3063,-1.645,-6.6675,-12.622032865842895,-2.7357370040984956,-3.9882716000168097,4.19100000000617
-0.0535,1.0037,-0.226,0.1615,0.183,-0.0235,-0.2013,-1.12,-6.2562,-12.627141527670661,-2.7866069998458736,-4.005071600016158,4.206000000005588
-0.0535,1.0037,-0.226,0.1615,0.183,-0.0235,-0.2187,-0.6913,-5.7225,-12.63092145348386,-2.871186801601174,-4.005071600016158,4.206000000005588
-0.0527,1.0079,-0.2219,0.1612,0.1862,-0.0306,-0.2187,-0.6913,-5.7225,-12.617902697973557,-2.894329807153035,-4.016132400013381,4.222000000001572
-0.0561,1.0047,-0.2275,0.1612,0.1862,-0.0306,-0.1575,-0.6913,-5.0225,-12.633624979408157,-3.028086782219503,-4.016132400013381,4.222000000001572
-0.0605,1.0072,-0.2288,0.1612,0.1862,-0.0306,0.4988,-0.9187,-4.83,-12.705920617087667,-3.2319293054348712,-4.029912900019531,4.2370000000082655
-0.06,1.0111,-0.2236,0.1622,0.1862,-0.0256,0.4988,-1.1025,-4.7425,-12.602385030762164,-3.285830023040125,-4.029912900019531,4.2370000000082655
-0.06,1.0111,-0.2236,0.1622,0.1862,-0.0256,0.4988,-1.1025,-4.7425,-12.544285719956042,-3.3052101399539793,-4.047552900015103,4.253000000004249
-0.0587,1.0075,-0.2241,0.1629,0.186,-0.0278,0.0525,-1.3475,-5.0312,-12.543270811976768,-3.275192920145497,-4.047552900015103,4.253000000004249
-0.063,1.0076,-0.2283,0.1629,0.186,-0.0278,0.0088,-1.4963,-5.565,-12.593707866946898,-3.380102133970837,-4.071493700009094,4.269000000000233
-0.0634,1.0077,-0.228,0.1629,0.186,-0.0278,0.0088,-1.4963,-5.565,-12.628799962107509,-3.444427263723473,-4.071493700009094,4.269000000000233
-0.0628,1.0048,-0.223,0.1639,0.185,-0.0332,-0.6037,-1.7237,-5.6175,-12.600723446540181,-3.4668518211061414,-4.0973492000206315,4.284000000006927
-0.0648,1.002,-0.2256,0.1639,0.185,-0.0332,-0.3237,-1.7587,-5.4075,-12.604138209981265,-3.542399661407278,-4.0973492000206315,4.284000000006927
-0.0648,1.002,-0.2256,0.1601,0.1841,-0.0299,-0.1575,-2.1,-4.97,-12.613566634230022,-3.583577798873234,-4.130949200012197,4.30000000000291
-0.0644,1.0037,-0.228,0.1601,0.1841,-0.0299,-0.1575,-2.1,-4.97,-12.634178630235866,-3.581552432955847,-4.130949200012197,4.30000000000291
-0.0598,1.002,-0.2238,0.1601,0.1841,-0.0299,-0.35,-2.59,-4.3837,-12.631448380537496,-3.4124653528946993,-4.16979920001069,4.315000000002328
-0.0544,0.9984,-0.2247,0.1615,0.1858,-0.0272,-0.6737,-2.695,-4.3837,-12.646110197305322,-3.160552806891371,-4.16979920001069,4.315000000002328
-0.0542,1.0067,-0.2279,0.1615,0.1858,-0.0272,-0.4462,-2.8175,-4.3313,-12.661479482300901,-3.05432330819743,-4.214879199999374,4.330999999998312
-0.0542,1.0067,-0.2279,0.163,0.1862,-0.0285,-0.4462,-2.8175,-4.3313,-12.674695200016187,-3.0210479560390042,-4.214879199999374,4.330999999998312
-0.0529,1.0094,-0.2214,0.163,0.1862,-0.0285,-0.8313,-2.8875,-4.0075,-12.567265939889603,-2.9562082985471334,-4.261079200008786,4.347000000001572
-0.0498,1.0077,-0.2225,0.163,0.1862,-0.0285,-1.0412,-2.5725,-3.6225,-12.51719009600164,-2.8123665241315194,-4.261079200008786,4.347000000001572
-0.0497,1.0055,-0.2246,0.1618,0.1893,-0.0227,-0.945,-2.6425,-4.5937,-12.54679823110234,-2.7790382601930803,-4.3007167000264745,4.3620000000082655
-0.051,1.0045,-0.2196,0.1618,0.1893,-0.0227,-0.945,-2.6425,-4.5937,-12.461169255116113,-2.818897032676642,-4.3007167000264745,4.3620000000082655
-0.051,1.0017,-0.2229,0.161,0.1874,-0.029,-0.6825,-2.3187,-4.865,-12.485134305079074,-2.83526876188478,-4.337815900017162,4.378000000004249
-0.0523,1.0017,-0.2229,0.161,0.1874,-0.029,-1.0938,-2.2662,-5.0838,-12.51200622781521,-2.8838203318175317,-4.337815900017162,4.378000000004249
-0.0516,1.0002,-0.224,0.1626,0.1855,-0.0284,-0.2362,-2.2575,-5.25,-12.517010976422052,-2.8827936186317022,-4.371678400015848,4.393000000003667
-0.055,1.0011,-0.224,0.1626,0.1855,-0.0284,-0.2362,-2.2575,-5.25,-12.521297270757595,-2.987054605697249,-4.371678400015848,4.393000000003667
-0.0534,1.0018,-0.2227,0.1626,0.1855,-0.0284,0.2975,-1.715,-5.4775,-12.525613834186741,-2.982749619171554,-4.39911840000896,4.408999999999651
-0.0525,1.0027,-0.225,0.1618,0.1858,-0.0247,0.0525,-2.0125,-5.6613,-12.556209813828636,-2.955820599320464,-4.39911840000896,4.408999999999651
-0.0525,1.0027,-0.225,0.1618,0.1858,-0.0247,0.0525,-2.0125,-5.9588,-12.579115368138698,-2.9445487204132514,-4.4313184000155195,4.42500000000291
-0.0534,1.0041,-0.2255,0.1615,0.1861,-0.0274,0.0787,-1.785,-5.9588,-12.59992914204465,-2.9538757580006956,-4.458093400027468,4.440000000009604
-0.052,1.0075,-0.222,0.1615,0.1861,-0.0274,0.245,-1.4875,-5.8275,-12.539948847793868,-2.9258028140409627,-4.458093400027468,4.440000000009604
-0.0535,1.0053,-0.2252,0.1615,0.1861,-0.0274,0.14,-1.4963,-5.53,-12.565696833573094,-2.9492032640748294,-4.482034200021459,4.456000000005588
-0.055,1.0022,-0.2273,0.1624,0.1863,-0.0278,0.14,-1.4963,-5.53,-12.628999636218749,-3.0061964268409085,-4.482034200021459,4.456000000005588
-0.055,1.0036,-0.2291,0.1624,0.1863,-0.0278,0.245,-1.7675,-5.425,-12.708512041446161,-3.0334778529396247,-4.50854670002043,4.471000000005006
-0.0584,1.0036,-0.2291,0.1623,0.1842,-0.0288,0.63,-1.5838,-5.3812,-12.780360294339854,-3.147327555401879,-4.50854670002043,4.471000000005006
-0.0574,1.0068,-0.2292,0.1623,0.1842,-0.0288,0.385,-1.5488,-5.1887,-12.798211856859103,-3.1670362438909714,-4.5333275000142095,4.4870000000009895
-0.0583,1.0086,-0.2308,0.1623,0.1842,-0.0288,0.385,-1.5488,-5.1887,-12.834655378917732,-3.200178670754792,-4.5333275000142095,4.4870000000009895
-0.0562,1.0085,-0.2323,0.1609,0.1864,-0.0279,0.2887,-2.4588,-5.1188,-12.88440156787957,-3.146536442228038,-4.572668300022224,4.503000000004249
-0.0525,1.0135,-0.2267,0.1609,0.1864,-0.0279,-0.3413,-2.45,-5.5125,-12.869257172189675,-3.019524741142222,-4.572668300022224,4.503000000004249
-0.0525,1.0135,-0.2267,0.1618,0.1849,-0.0358,-0.2625,-1.8463,-5.32,-12.863955553400103,-2.9509186996185677,-4.600362800021149,4.518000000003667
-0.0489,1.0107,-0.2242,0.1618,0.1849,-0.0358,-0.2625,-1.8463,-5.32,-12.856705015996424,-2.8162130232383586,-4.600362800021149,4.518000000003667
-0.0512,1.006,-0.2285,0.1618,0.1849,-0.0358,-0.35,-1.6975,-4.8825,-12.852961361066061,-2.8317929783119746,-4.627522800026683,4.534000000006927
-0.0499,1.0011,-0.2254,0.1618,0.1838,-0.0298,-0.63,-1.8813,-4.7863,-12.81066585355511,-2.8014446857740145,-4.627522800026683,4.534000000006927
-0.0479,1.0012,-0.2216,0.1618,0.1838,-0.0298,-0.7875,-1.4525,-4.7075,-12.699928915875159,-2.7195508463290543,-4.649310300025838,4.549000000006345
-0.0479,1.001,-0.2253,0.1609,0.1856,-0.0189,-0.7875,-1.4525,-4.7075,-12.694746611500277,-2.6894463612999098,-4.649310300025838,4.549000000006345
-0.0534,1.001,-0.2253,0.1609,0.1856,-0.0189,-0.7613,-1.5838,-4.1038,-12.69142261947048,-2.8945123600923743,-4.674651100019477,4.565000000002328
-0.0544,1.0025,-0.2292,0.1626,0.1861,-0.0314,-0.7613,-1.3737,-3.9288,-12.75180235066311,-2.990932691077832,-4.674651100019477,4.565000000002328
-0.0548,1.0022,-0.2286,0.1626,0.1861,-0.0314,-0.1838,-1.9162,-4.4887,-12.760614724120032,-3.031594339037799,-4.705310300025723,4.581000000005588
-0.0527,1.0019,-0.23,0.1626,0.1861,-0.0314,-0.1838,-1.9162,-4.4887,-12.775847651493175,-2.9666836669607712,-4.705310300025723,4.581000000005588
-0.0519,1.0047,-0.2272,0.163,0.1866,-0.0267,0.035,-1.7675,-4.9262,-12.767768778936707,-2.9160821641592563,-4.731822800011834,4.59599999999773
-0.0519,1.0047,-0.2272,0.163,0.1866,-0.0267,0.0962,-1.9162,-5.1188,-12.760785914462287,-2.8975781695901364,-4.731822800011834,4.59599999999773
-0.0478,1.0122,-0.2252,0.1629,0.1853,-0.0288,0.0962,-1.9162,-5.705,-12.700931992099617,-2.7813011075541385,-4.76248200001808,4.6120000000009895
-0.0454,1.0085,-0.2262,0.1629,0.1853,-0.0288,0.1225,-1.8463,-5.705,-12.683878668534746,-2.661491871924978,-4.76248200001808,4.6120000000009895
-0.0481,1.0087,-0.2274,0.1629,0.1853,-0.0288,-0.385,-1.3038,-5.7838,-12.685765170778401,-2.6622814996188886,-4.782039000026807,4.627000000007683
-0.0465,1.007,-0.2226,0.1615,0.1839,-0.0274,-0.525,-1.085,-5.6438,-12.642771730342798,-2.624526778698776,-4.782039000026807,4.627000000007683
-0.0465,1.002,-0.2241,0.1615,0.1839,-0.0274,-0.525,-1.085,-5.6438,-12.635785416929945,-2.6097974993394275,-4.79939900002245,4.643000000003667
-0.0487,1.002,-0.2241,0.1622,0.1842,-0.0289,-0.56,-0.6913,-5.5388,-12.629521290592686,-2.6622781428124114,-4.79939900002245,4.643000000003667
-0.0522,1.0007,-0.2285,0.1622,0.1842,-0.0289,-0.6913,-0.1488,-5.4338,-12.697012033960807,-2.7921182288752937,-4.801779800022935,4.659000000006927
-0.0535,1.0046,-0.2272,0.1622,0.1842,-0.0289,-0.7437,-0.42,-5.3812,-12.711703548315766,-2.8888177016095606,-4.801779800022935,4.659000000006927
-0.0548,0.9991,-0.2251,0.1622,0.1842,-0.0263,-0.7437,-0.42,-5.3812,-12.707034398539067,-2.9816322159686384,-4.808079800019635,4.673999999999069
-0.0552,0.9995,-0.2274,0.1622,0.1842,-0.0263,-0.595,-1.1113,-5.4425,-12.733263469357166,-3.0340262197418117,-4.808079800019635,4.673999999999069
-0.0552,0.9995,-0.2274,0.1598,0.1846,-0.0202,-0.2887,-1.1812,-6.055,-12.733719928168478,-3.049491084194876,-4.826979000023485,4.690000000002328
-0.0583,1.002,-0.2281,0.1598,0.1846,-0.0202,-0.1925,-1.5488,-5.7575,-12.741274969254956,-3.13519075745125,-4.826979000023485,4.690000000002328
-0.0567,1.0034,-0.2262,0.1598,0.1846,-0.0202,-0.1925,-1.5488,-5.7575,-12.7381758267171,-3.143874918391773,-4.850211000033853,4.705000000009022
-0.055,1.0029,-0.2233,0.1617,0.1869,-0.0274,-0.0875,-1.6187,-5.8975,-12.707763580049658,-3.1131650025361206,-4.850211000033853,4.705000000009022
-0.0547,1.0067,-0.2262,0.1617,0.1869,-0.0274,0.0787,-1.47,-5.635,-12.696059935790414,-3.0762182482665534,-4.873731000027949,4.721000000005006
-0.0547,1.0083,-0.2271,0.163,0.1857,-0.0337,-0.5775,-1.995,-5.5912,-12.695354667248006,-3.0536709415420553,-4.873731000027949,4.721000000005006
-0.0562,1.0083,-0.2271,0.163,0.1857,-0.0337,-0.5775,-1.995,-5.5912,-12.694809744846777,-3.0820137829982346,-4.905651000034451,4.7370000000082655
-0.0545,1.0082,-0.2256,0.1612,0.1852,-0.0223,-0.84,-1.6538,-5.5475,-12.665559296475367,-3.051221142477195,-4.905651000034451,4.7370000000082655
-0.0554,1.0053,-0.2262,0.1612,0.1852,-0.0223,-0.2625,-1.9775,-5.5912,-12.665868843073136,-3.063888791453375,-4.935313500018912,4.7520000000004075
-0.0538,1.0033,-0.2286,0.1612,0.1852,-0.0223,-0.2625,-1.7763,-5.6,-12.669318548578278,-3.0297894608590825,-4.935313500018912,4.7520000000004075
-0.0542,1.0031,-0.2277,0.1594,0.1854,-0.0299,-0.6212,-1.7763,-5.6,-12.699600897756167,-3.0232835076948366,-4.9637343000247025,4.768000000003667
-0.0542,1.0031,-0.2277,0.1594,0.1854,-0.0299,-0.7262,-1.8813,-5.635,-12.727107535480561,-3.019969418791433,-4.991953800023607,4.783000000003085
-0.0549,1.0026,-0.2269,0.1623,0.1854,-0.0326,-0.7875,-1.9863,-6.0025,-12.735415377093547,-3.032689579641901,-4.991953800023607,4.783000000003085
-0.0495,1.0003,-0.2231,0.1623,0.1854,-0.0326,-0.7875,-1.9863,-6.0025,-12.680995140737519,-2.941019331542246,-5.023734600030082,4.799000000006345
-0.0473,1.0053,-0.2256,0.1623,0.1854,-0.0326,-1.0762,-2.0563,-5.7488,-12.666507843528233,-2.8045896682001334,-5.023734600030082,4.799000000006345
-0.0432,1.007,-0.2283,0.1628,0.1876,-0.0293,-0.805,-1.75,-5.3025,-12.703283490563841,-2.579804727728892,-5.051734600035786,4.815000000009604
-0.0432,1.0033,-0.2252,0.1628,0.1876,-0.0293,-1.785,-0.8575,-5.3812,-12.671834003224015,-2.4869761782719007,-5.051734600035786,4.815000000009604
-0.0479,1.0033,-0.2252,0.1631,0.1862,-0.0266,-1.785,-0.8575,-5.3812,-12.659263033109111,-2.583031524697909,-5.064597100029048,4.830000000001746
-0.0553,0.9982,-0.2237,0.1631,0.1862,-0.0266,-1.5662,-0.3588,-5.3637,-12.643648262305236,-2.857623538823887,-5.064597100029048,4.830000000001746
-0.0617,0.9969,-0.2273,0.1631,0.1862,-0.0266,-1.4787,-0.5425,-5.9412,-12.752880999231747,-3.076866055611033,-5.0732771000308166,4.846000000005006
-0.0598,1.003,-0.225,0.1622,0.1852,-0.0274,-0.7962,-0.805,-5.95,-12.715856352305824,-3.1689501014927566,-5.0732771000308166,4.846000000005006
-0.0532,1.0053,-0.2239,0.1622,0.1852,-0.0274,-0.7962,-0.805,-5.95,-12.661645032681259,-3.091651385957437,-5.085352100030348,4.861000000004424
-0.0532,1.0053,-0.2239,0.161,0.1855,-0.0215,-0.2537,-1.1812,-6.1863,-12.658612193569153,-3.0576592079728213,-5.085352100030348,4.861000000004424
-0.0518,1.005,-0.2264,0.161,0.1855,-0.0215,-0.0875,-1.4262,-6.755,-12.6646188722071,-3.024015020603223,-5.10817130002462,4.8770000000004075
-0.0541,1.0069,-0.2297,0.161,0.1855,-0.0215,-0.3325,-1.3388,-6.7725,-12.67335599206841,-3.0189546886421748,-5.10817130002462,4.8770000000004075
-0.0518,1.0055,-0.2231,0.1638,0.1861,-0.0334,-0.3325,-1.3388,-6.7725,-12.665692421602836,-2.9911109455640057,-5.129592100028984,4.893000000003667
-0.0556,1.008,-0.2256,0.1638,0.1861,-0.0334,-0.21,-1.085,-6.79,-12.662263180501018,-3.0100314883710713,-5.129592100028984,4.893000000003667
-0.0556,1.0044,-0.2257,0.1635,0.1842,-0.0245,-0.5688,-1.0237,-6.6238,-12.66279039286298,-3.0174436330036434,-5.144947600028388,4.908000000003085
-0.0557,1.0044,-0.2257,0.1635,0.1842,-0.0245,-0.5775,-0.8925,-6.2475,-12.663210151668832,-3.034678230501647,-5.144947600028388,4.908000000003085
-0.0573,1.007,-0.2248,0.1626,0.1865,-0.0232,-0.5775,-0.8925,-6.2475,-12.645251511403304,-3.0658384316390297,-5.159227600031297,4.924000000006345
-0.0559,1.0058,-0.2214,0.1626,0.1865,-0.0232,-0.735,-0.7088,-5.6875,-12.573339535345267,-3.0845213927206787,-5.159227600031297,4.924000000006345
-0.058,1.0065,-0.2273,0.1626,0.1865,-0.0232,-0.3938,-0.9625,-5.5213,-12.588512238460984,-3.150943816614234,-5.173665100023734,4.938999999998487
-0.058,1.0061,-0.2259,0.1626,0.1847,-0.027,-0.3938,-0.9625,-5.6875,-12.595108092625757,-3.182108951153218,-5.173665100023734,4.938999999998487
-0.058,1.0061,-0.2259,0.1626,0.1847,-0.027,-0.4462,-1.3388,-5.6875,-12.603467922437492,-3.1990812251933933,-5.195085900028098,4.955000000001746
-0.0586,1.0064,-0.2217,0.1633,0.1854,-0.0332,-0.2975,-1.3038,-5.7663,-12.600935360882994,-3.222991790745638,-5.195085900028098,4.955000000001746
-0.0571,1.0063,-0.2222,0.1633,0.1854,-0.0332,-0.49,-1.0588,-5.6175,-12.575352640380276,-3.1984614400104605,-5.212026700031549,4.971000000005006
-0.0573,1.0056,-0.2276,0.1633,0.1854,-0.0332,-0.49,-1.0588,-5.6175,-12.605794793038516,-3.190138092241438,-5.212026700031549,4.971000000005006
-0.0586,1.0049,-0.2268,0.1625,0.1867,-0.0318,-0.1663,-1.5225,-6.3525,-12.617566898874452,-3.1997198450372784,-5.234864200030663,4.986000000004424
-0.0586,1.0049,-0.2208,0.1625,0.1867,-0.0318,-0.6212,-1.9075,-6.265,-12.560666280867443,-3.2120682786498826,-5.234864200030663,4.986000000004424
-0.0554,1.0033,-0.2208,0.1626,0.1862,-0.0267,-0.1838,-1.9162,-5.8625,-12.547169579103478,-3.1622133588557197,-5.265523400036909,5.002000000007683
-0.0578,1.0028,-0.2255,0.1626,0.1862,-0.0267,-0.1838,-1.9162,-5.8625,-12.558579323977268,-3.184657939252321,-5.265523400036909,5.002000000007683
-0.0611,1.0052,-0.2288,0.1626,0.1862,-0.0267,-0.1138,-2.0387,-5.95,-12.596890462475937,-3.260189708293608,-5.296103900020889,5.016999999999825
-0.0597,1.0075,-0.2258,0.1626,0.1874,-0.0288,-0.2625,-1.6013,-5.4338,-12.597610815040905,-3.2857633964985298,-5.296103900020889,5.016999999999825
-0.0573,1.0069,-0.2241,0.1626,0.1874,-0.0288,0.2713,-1.5925,-5.3025,-12.579729320843757,-3.227289635484413,-5.321583900026081,5.033000000003085
-0.0573,1.0069,-0.2241,0.1639,0.1868,-0.0319,0.2713,-1.5925,-5.3025,-12.568226601914972,-3.2009647837512274,-5.321583900026081,5.033000000003085
-0.0559,1.0097,-0.2286,0.1639,0.1868,-0.0319,-0.2713,-1.89,-5.3375,-12.570453951823147,-3.141170150529465,-5.351823900032241,5.049000000006345
-0.0556,1.0128,-0.2239,0.1639,0.1868,-0.0319,-0.3413,-1.68,-5.565,-12.564717014572526,-3.105499886421609,-5.351823900032241,5.049000000006345
-0.0545,1.0132,-0.2242,0.1634,0.1866,-0.0261,-1.155,-2.0475,-5.67,-12.52400523064717,-3.05985304188613,-5.382536400031049,5.064000000005763
-0.0536,1.0099,-0.225,0.1634,0.1866,-0.0261,-1.155,-2.0475,-5.67,-12.540788629858326,-3.0164096082962444,-5.382536400031049,5.064000000005763
-0.0536,1.0099,-0.2215,0.1647,0.1862,-0.027,-1.6013,-2.1263,-5.775,-12.444088901083676,-2.995548369675531,-5.41655720003798,5.080000000009022
-0.0538,1.0052,-0.2215,0.1647,0.1862,-0.027,-1.7325,-2.03,-5.9412,-12.433842324120885,-2.99424223963789,-5.447007200022028,5.095000000001164
-0.0554,1.0053,-0.2212,0.1641,0.1866,-0.0294,-1.365,-1.47,-5.88,-12.42107201674966,-3.028107047362976,-5.447007200022028,5.095000000001164
-0.0569,1.0012,-0.2194,0.1641,0.1866,-0.0294,-1.365,-1.47,-5.88,-12.389465869684779,-3.086608009155816,-5.47052720002682,5.111000000004424
-0.0591,1.0024,-0.2233,0.1641,0.1866,-0.0294,-1.1287,-1.3038,-5.67,-12.46688662951391,-3.1819467904665704,-5.47052720002682,5.111000000004424
-0.0578,1.0008,-0.2235,0.165,0.1872,-0.0279,-1.3212,-1.61,-6.0637,-12.528981209812171,-3.195853693242909,-5.496287200032068,5.127000000007683
-0.0578,1.0008,-0.2235,0.165,0.1872,-0.0279,-1.3212,-1.61,-6.1775,-12.559450273308796,-3.2036284998866145,-5.496287200032068,5.127000000007683
-0.0584,1.0023,-0.2205,0.1649,0.1866,-0.0259,-0.8313,-1.68,-6.1775,-12.505510939217446,-3.2173336850156056,-5.52148720003109,5.142000000007101
-0.0557,1.0003,-0.223,0.1649,0.1866,-0.0259,-0.9013,-2.1175,-6.93,-12.529233663533887,-3.186589701767081,-5.52148720003109,5.142000000007101
-0.0556,1.0027,-0.2246,0.1649,0.1866,-0.0259,-1.7325,-2.0038,-7.0437,-12.586240461137592,-3.1560184058389553,-5.553548000037622,5.158000000010361
-0.0521,1.0027,-0.2211,0.1645,0.1879,-0.0304,-1.7325,-2.0038,-7.0437,-12.496746257676703,-3.0700594036898488,-5.553548000037622,5.158000000010361
-0.0521,1.0027,-0.217,0.1645,0.1879,-0.0304,-1.4612,-1.925,-7.2975,-12.342408201813296,-2.9990223093842205,-5.582423000022495,5.173000000002503
-0.0515,1.0042,-0.217,0.1643,0.1863,-0.0277,-1.0325,-2.31,-7.525,-12.278708833732603,-2.9343187692412056,-5.582423000022495,5.173000000002503
-0.0534,1.0069,-0.2209,0.1643,0.1863,-0.0277,-1.0588,-1.6538,-7.665,-12.320275501966556,-2.9508795402045065,-5.608883800027886,5.189000000005763
-0.055,1.0047,-0.2209,0.1643,0.1863,-0.0277,-1.0588,-1.6538,-7.665,-12.35515534613697,-3.0092751460637968,-5.608883800027886,5.189000000005763
-0.0565,1.0017,-0.2218,0.1646,0.1862,-0.036,-1.2513,-1.8025,-7.3412,-12.419119720253764,-3.073519589446891,-5.637723800033761,5.205000000009022
-0.0593,1.0047,-0.2209,0.1646,0.1862,-0.036,-0.9975,-1.2862,-7.1663,-12.411207280902463,-3.161806293513833,-5.637723800033761,5.205000000009022
-0.0593,1.0047,-0.2209,0.1642,0.1866,-0.0234,-1.26,-1.2425,-7.5075,-12.40573346859158,-3.229942937901896,-5.656361300023998,5.220000000001164
-0.0619,1.0031,-0.2172,0.1642,0.1866,-0.0234,-1.26,-1.2425,-7.5075,-12.312760693262678,-3.3397595326966982,-5.656361300023998,5.220000000001164
-0.0636,1.0002,-0.2203,0.1642,0.1866,-0.0234,-1.0325,-1.1025,-7.4637,-12.359296335665826,-3.4432922654867464,-5.674001300027592,5.236000000004424
-0.0648,1.006,-0.2201,0.1663,0.1879,-0.018,-0.5863,-1.3212,-7.6125,-12.355070297110302,-3.5252854766398984,-5.674001300027592,5.236000000004424
-0.0605,1.009,-0.2182,0.1663,0.1879,-0.018,-0.665,-1.5662,-7.6737,-12.312923665700655,-3.433679700559274,-5.69749430002668,5.251000000003842
-0.0605,1.009,-0.2167,0.1654,0.1878,-0.0258,-0.665,-1.5662,-7.6737,-12.259932941847353,-3.3916196893060073,-5.69749430002668,5.251000000003842
-0.0598,1.0061,-0.2167,0.1654,0.1878,-0.0258,-0.7788,-1.2425,-7.1312,-12.225171636466046,-3.3666058836578543,-5.7173743000307296,5.267000000007101
-0.0642,1.0024,-0.2207,0.1654,0.1878,-0.0201,-0.8838,-0.6125,-6.2213,-12.297072152587749,-3.41594554875105,-5.7173743000307296,5.267000000007101
-0.0658,1.0062,-0.2169,0.1656,0.1878,-0.0201,-0.8838,-0.3675,-5.5388,-12.247417647978073,-3.5359167727991445,-5.723254300029254,5.283000000003085
-0.0692,1.0092,-0.2153,0.1656,0.1878,-0.0201,-0.0437,-0.3675,-5.5388,-12.207873325888178,-3.685076080639688,-5.723254300029254,5.283000000003085
-0.0702,1.0067,-0.2212,0.1649,0.1869,-0.0306,-0.21,-0.5425,-5.1188,-12.220476351245251,-3.808462339290211,-5.731391800028938,5.298000000002503
-0.0702,1.0067,-0.2212,0.1649,0.1869,-0.0306,-0.21,-0.8487,-5.11,-12.232219266755756,-3.85990085643045,-5.731391800028938,5.298000000002503
-0.0775,1.0106,-0.2241,0.1655,0.187,-0.0225,-0.21,-0.8487,-5.11,-12.250698525093462,-4.106926434655202,-5.744971000031704,5.314000000005763
-0.0794,1.0148,-0.2216,0.1655,0.187,-0.0225,0.2013,-1.0237,-5.1013,-12.272732619247302,-4.262123417440147,-5.744971000031704,5.314000000005763
-0.0743,1.0175,-0.2203,0.1655,0.187,-0.0225,0.1225,-1.8112,-5.1013,-12.256532709315827,-4.156469173472692,-5.772139000030649,5.3290000000051805
-0.0716,1.0164,-0.2244,0.1653,0.1873,-0.0242,0.3063,-2.135,-5.1537,-12.328286333831802,-4.028487461556682,-5.772139000030649,5.3290000000051805
-0.0716,1.0164,-0.2244,0.1653,0.1873,-0.0242,0.3063,-2.135,-5.1537,-12.373427317267927,-3.9744876050497355,-5.806299000037609,5.34500000000844
-0.0694,1.0199,-0.2195,0.1659,0.1875,-0.0268,-0.0175,-2.555,-5.0312,-12.325631015241155,-3.873514891765943,-5.806299000037609,5.34500000000844
-0.0643,1.0198,-0.214,0.1659,0.1875,-0.0268,-0.455,-2.1875,-5.1013,-12.256100521490882,-3.672454840008838,-5.841299000028823,5.361000000004424
-0.0642,1.0143,-0.2189,0.1659,0.1875,-0.0268,-1.225,-2.0038,-5.0312,-12.218436605809567,-3.593381826378126,-5.841299000028823,5.361000000004424
-0.0637,1.0079,-0.2192,0.1657,0.1886,-0.0203,-1.225,-2.0038,-5.0312,-12.24331388815049,-3.557783135053227,-5.8713560000276575,5.376000000003842
-0.0635,1.0049,-0.2175,0.1657,0.1886,-0.0203,-1.015,-2.135,-5.075,-12.23037250495693,-3.543781197701198,-5.8713560000276575,5.376000000003842
-0.0635,1.0049,-0.2175,0.166,0.188,-0.0266,-0.525,-1.8375,-5.145,-12.226929366034428,-3.538179322703286,-5.900756000033647,5.392000000007101
-0.0646,0.9991,-0.2185,0.166,0.188,-0.0266,-0.6212,-1.7062,-4.6725,-12.254525008435083,-3.58760440840923,-5.926349000032654,5.407000000006519
-0.0654,0.9997,-0.218,0.166,0.188,-0.0266,-0.6212,-1.7062,-4.6725,-12.266428233382149,-3.6328112586523105,-5.926349000032654,5.407000000006519
-0.0631,1.0028,-0.217,0.167,0.1868,-0.027,-0.2713,-1.5225,-4.7512,-12.265764574026553,-3.560227783528698,-5.950709000037617,5.423000000009779
-0.0627,1.003,-0.215,0.167,0.1868,-0.027,-0.5163,-1.9512,-4.935,-12.234180438510048,-3.52191043088013,-5.950709000037617,5.423000000009779
-0.0627,1.003,-0.215,0.1658,0.1865,-0.0322,-0.2362,-1.6625,-5.1712,-12.228091260150736,-3.508044276182881,-5.97730900003094,5.439000000005763
-0.0628,0.9991,-0.2185,0.1658,0.1865,-0.0322,-0.2362,-1.6625,-5.1712,-12.232947808803154,-3.511382493889392,-5.97730900003094,5.439000000005763
-0.0633,0.9999,-0.2165,0.1658,0.1874,-0.0252,0.0437,-1.5137,-5.0312,-12.22906433668947,-3.5288333232373064,-6.000014500030058,5.4540000000051805
-0.0639,1.0031,-0.2182,0.1662,0.1874,-0.0252,0.5688,-1.5488,-4.6463,-12.24887453874724,-3.550399719201834,-6.000014500030058,5.4540000000051805
-0.0604,1.0026,-0.2189,0.1662,0.1874,-0.0252,0.5688,-1.5488,-4.8562,-12.279869993146416,-3.436605445105079,-6.026344100029788,5.471000000005006
-0.062,1.0049,-0.2194,0.1643,0.1871,-0.0212,0.3413,-1.4262,-4.8562,-12.293809870490081,-3.444657728115637,-6.0306227000254715,5.474000000001979
-0.062,1.0049,-0.2194,0.1643,0.1871,-0.0212,-0.0525,-1.3563,-4.9175,-12.297994523339694,-3.447633770516417,-6.0306227000254715,5.474000000001979
-0.0658,1.0045,-0.2208,0.1651,0.1894,-0.032,0.385,-1.3563,-5.4687,-12.337685363200803,-3.557005654801531,-6.050967200024682,5.489000000001397
-0.065,1.0033,-0.2227,0.1651,0.1894,-0.032,0.385,-1.3563,-5.4687,-12.408671674162212,-3.58881148218708,-6.050967200024682,5.489000000001397
-0.0642,1.006,-0.2212,0.1651,0.1894,-0.032,-0.2625,-2.1962,-5.3637,-12.40851371510621,-3.576844094379063,-6.086106400031841,5.505000000004657
-0.0656,1.0074,-0.2262,0.1652,0.1877,-0.0337,0.3063,-2.4237,-5.635,-12.500010146413814,-3.6044287507858015,-6.086106400031841,5.505000000004657
-0.0656,1.0074,-0.2262,0.1652,0.1877,-0.0337,-0.2625,-2.94,-5.8012,-12.503164303893415,-3.6174479930996806,-6.133146400041424,5.521000000007916
-0.0631,1.0052,-0.2214,0.1658,0.1867,-0.0274,-0.2625,-2.94,-5.8012,-12.501501274941056,-3.571572772593001,-6.133146400041424,5.521000000007916
-0.0551,1.0089,-0.2176,0.1658,0.1867,-0.0274,0.21,-2.415,-5.6875,-12.392376823379408,-3.3367359983430167,-6.169371400022447,5.536000000000058
-0.0555,1.0117,-0.2242,0.1658,0.1867,-0.0274,-0.1925,-2.0563,-5.3812,-12.400933171942738,-3.1922361901326415,-6.169371400022447,5.536000000000058
-0.0523,1.0099,-0.2216,0.1661,0.1868,-0.0325,-0.4288,-1.5575,-4.8825,-12.397782468713755,-3.008017120138286,-6.194291400027524,5.552000000003318
-0.0614,1.0027,-0.2211,0.1661,0.1868,-0.0325,-0.4288,-1.5575,-4.8825,-12.40251064078363,-3.26532833078045,-6.194291400027524,5.552000000003318
-0.0614,1.0027,-0.2211,0.165,0.1874,-0.027,-0.245,-1.435,-5.1188,-12.40370721863987,-3.3569167195643934,-6.2158164000266884,5.567000000002736
-0.0668,0.9997,-0.2216,0.165,0.1874,-0.027,0.0613,-1.6538,-5.32,-12.427988502431383,-3.56206392343335,-6.2158164000266884,5.567000000002736
-0.0667,1.0036,-0.221,0.165,0.1874,-0.027,0.2625,-1.3737,-5.0925,-12.424724825330106,-3.651278986593893,-6.237795600031166,5.583000000005995
-0.0648,1.0075,-0.2258,0.1654,0.1892,-0.0298,0.2625,-1.3737,-5.0925,-12.498024236049593,-3.615919384723775,-6.237795600031166,5.583000000005995
-0.0627,1.009,-0.2206,0.1654,0.1892,-0.0298,0.4725,-1.7938,-5.25,-12.426841155686393,-3.5364047813448063,-6.266496400037013,5.599000000009255
-0.0627,1.009,-0.2206,0.1657,0.1862,-0.0262,0.5337,-1.6975,-5.5388,-12.384491241661445,-3.505428538611546,-6.291958900023674,5.614000000001397
-0.0606,1.0069,-0.2215,0.1657,0.1862,-0.0262,0.5337,-1.6712,-5.075,-12.394360663506967,-3.421717352572633,-6.291958900023674,5.614000000001397
-0.0597,1.0091,-0.2248,0.1657,0.1862,-0.0334,0.1575,-1.6712,-5.075,-12.444684558307003,-3.3526265254277785,-6.318698100029122,5.630000000004657
-0.063,1.0058,-0.2229,0.1671,0.1874,-0.0334,0.2013,-1.2163,-4.9963,-12.461312623182282,-3.44135873344179,-6.318698100029122,5.630000000004657
-0.0624,1.006,-0.2194,0.1671,0.1874,-0.0334,-0.0875,-0.9975,-4.4713,-12.43540865090309,-3.4593207396273296,-6.333660600028542,5.6450000000040745
-0.0646,1.0037,-0.2225,0.1643,0.1858,-0.0306,-0.0875,-0.9975,-6.7112,-12.445849329684325,-3.4808245416455432,-6.333660600028542,5.6450000000040745
-0.0646,1.0037,-0.2225,0.1643,0.1858,-0.0306,-0.1925,-1.4088,-4.5237,-12.450286821152517,-3.5572984873242586,-6.356201400033134,5.661000000007334
-0.0624,1.0024,-0.2259,0.1645,0.1865,-0.0352,-0.6913,-1.3125,-4.83,-12.522644416660569,-3.505657656858416,-6.356201400033134,5.661000000007334
-0.064,1.0019,-0.2222,0.1645,0.1865,-0.0352,-0.245,-1.7763,-4.5763,-12.521979176611472,-3.547202147706651,-6.384622200038924,5.677000000010594
-0.0628,1.005,-0.2227,0.1645,0.1865,-0.0352,-0.245,-1.7763,-4.5763,-12.52096309773116,-3.5101709392171996,-6.384622200038924,5.677000000010594
-0.0608,1.0104,-0.2253,0.1656,0.1893,-0.0108,0.3325,-1.5925,-4.4975,-12.5397381714052,-3.4104423231565892,-6.408509700026411,5.692000000002736
-0.0608,1.0104,-0.2253,0.1656,0.1893,-0.0108,0.5163,-1.47,-4.9,-12.55328572745326,-3.3799826789776186,-6.408509700026411,5.692000000002736
-0.0573,1.0061,-0.2272,0.1654,0.187,-0.0258,0.6388,-1.5313,-4.8825,-12.635770803263362,-3.25554406326316,-6.433010500031402,5.708000000005995
-0.0557,1.0066,-0.2257,0.1654,0.187,-0.0258,0.6388,-1.5313,-4.8825,-12.636766872196265,-3.153072273157161,-6.433010500031402,5.708000000005995
-0.0572,1.0092,-0.2266,0.1654,0.187,-0.0258,0.105,-1.2513,-4.5325,-12.641861359054777,-3.161230617626272,-6.451780000030674,5.723000000005413
-0.0553,1.0098,-0.2268,0.1642,0.1866,-0.032,-0.2187,-1.4787,-4.3575,-12.642870749842533,-3.090967448529425,-6.451780000030674,5.723000000005413
-0.056,1.0078,-0.2252,0.1642,0.1866,-0.032,-0.2713,-1.3038,-4.655,-12.642319969003276,-3.0994971168074463,-6.472640800034925,5.739000000008673
-0.056,1.0078,-0.2252,0.165,0.1873,-0.0275,-0.2713,-1.3038,-4.655,-12.641775689581713,-3.10247043409122,-6.472640800034925,5.739000000008673
-0.0562,1.0056,-0.2254,0.165,0.1873,-0.0275,-1.05,-1.3737,-5.5563,-12.638286575423244,-3.1118133025503703,-6.495993700034685,5.756000000008498
-0.0614,1.0014,-0.2271,0.165,0.1873,-0.0275,-1.015,-1.4963,-5.6175,-12.697134642740911,-3.259264430179632,-6.495993700034685,5.756000000008498
-0.0578,1.0017,-0.2234,0.165,0.1868,-0.0223,-0.8138,-1.5137,-5.775,-12.653898359784623,-3.243907302229581,-6.51869920002279,5.77100000000064
-0.0581,1.0027,-0.2212,0.165,0.1868,-0.0223,-0.8138,-1.5137,-5.775,-12.579905881472948,-3.241599625235646,-6.51869920002279,5.77100000000064
-0.0581,1.0027,-0.2212,0.1657,0.1855,-0.0207,-0.7175,-1.6975,-6.1863,-12.537680302100888,-3.240822008721094,-6.545859200028324,5.7870000000039
-0.057,1.0041,-0.2248,0.1657,0.1855,-0.0207,-0.5163,-1.575,-5.9062,-12.55312647074759,-3.2140555137633955,-6.545859200028324,5.7870000000039
-0.0601,1.0045,-0.2222,0.1657,0.1855,-0.0271,-0.5163,-1.575,-5.6438,-12.538026103109726,-3.2745684803635724,-6.569484200027407,5.802000000003318
-0.0601,1.0045,-0.2214,0.1648,0.1866,-0.0271,-0.7962,-1.3388,-5.6438,-12.501306829377635,-3.307019118085745,-6.569484200027407,5.802000000003318
-0.0644,1.0028,-0.2228,0.1648,0.1866,-0.0271,-1.1287,-1.575,-5.9062,-12.51279713753467,-3.414009921697162,-6.594684200032541,5.8180000000065775
-0.0653,1.0038,-0.2221,0.1665,0.1879,-0.0286,-1.0237,-1.4875,-5.845,-12.497234689884293,-3.5030975997153346,-6.594684200032541,5.8180000000065775
-0.0653,1.0038,-0.2221,0.1665,0.1879,-0.0286,-1.0237,-1.4875,-5.845,-12.488293092629334,-3.5561658438476362,-6.61848420003739,5.834000000009837
-0.0641,1.0067,-0.2237,0.1653,0.1865,-0.0209,-0.77,-1.4262,-5.7575,-12.501360048127154,-3.5564297321919254,-6.61848420003739,5.834000000009837
-0.0638,1.0064,-0.2231,0.1653,0.1865,-0.0209,-0.7962,-1.8988,-6.1337,-12.500650406490983,-3.5522738494377375,-6.646966200022469,5.849000000001979
-0.0626,1.0083,-0.2231,0.1653,0.1865,-0.0209,-0.63,-1.5575,-5.775,-12.494419944017666,-3.5165948915355045,-6.646966200022469,5.849000000001979
-0.0639,1.0102,-0.2223,0.1654,0.1869,-0.0199,-0.63,-1.5575,-5.775,-12.472799321644446,-3.5244981571074137,-6.671886200027545,5.865000000005239
-0.0639,1.0102,-0.2223,0.1654,0.1869,-0.0199,-0.7437,-1.3825,-6.1512,-12.45314108889398,-3.5273631457338332,-6.671886200027545,5.865000000005239
-0.0625,1.0092,-0.2187,0.1634,0.1882,-0.0304,-1.225,-1.435,-5.7925,-12.34360372374789,-3.500440439503826,-6.69341120002671,5.880000000004657
-0.0625,1.0049,-0.2184,0.1634,0.1882,-0.0304,-1.26,-1.0588,-5.8538,-12.30313166922073,-3.491419815838202,-6.69341120002671,5.880000000004657
-0.065,1.0049,-0.2231,0.1634,0.1882,-0.0304,-1.26,-1.0588,-5.8538,-12.408974817512862,-3.5402658998133525,-6.710352000030161,5.896000000007916
-0.0662,1.0088,-0.2216,0.1656,0.1866,-0.0323,-1.12,-0.8662,-5.5388,-12.399972915857653,-3.603310553583947,-6.710352000030161,5.896000000007916
-0.065,1.0081,-0.2215,0.1656,0.1866,-0.0323,-0.35,-1.3737,-5.25,-12.399482122694721,-3.6034012468535557,-6.732331200024644,5.9120000000039
-0.065,1.0081,-0.2215,0.1655,0.1877,-0.0251,-0.6475,-1.0762,-5.11,-12.397519102933323,-3.603442950473822,-6.732331200024644,5.9120000000039
-0.0658,1.0052,-0.2205,0.1655,0.1877,-0.0251,-0.6475,-1.0762,-5.11,-12.390812549235374,-3.6356753404459408,-6.748474200024018,5.927000000003318
-0.0667,1.0048,-0.2193,0.1655,0.1877,-0.0251,-0.7525,-1.1025,-4.8475,-12.365601373255892,-3.682668452781766,-6.748474200024018,5.927000000003318
-0.0673,1.0049,-0.2172,0.1676,0.189,-0.021,-0.84,-0.9013,-5.5388,-12.30506941131988,-3.7137228418197035,-6.762895000026956,5.9430000000065775
-0.065,1.0046,-0.2241,0.1676,0.189,-0.021,-0.8487,-1.05,-5.355,-12.40267828145518,-3.6596812366788236,-6.762895000026956,5.9430000000065775
-0.065,1.0046,-0.2241,0.1657,0.1876,-0.0377,-0.8487,-1.05,-5.355,-12.465030038698476,-3.634762779428164,-6.778645000026344,5.958000000005995
-0.0636,1.0056,-0.223,0.1657,0.1876,-0.0377,0.0,-1.1988,-5.25,-12.47351413495716,-3.5779175925426543,-6.778645000026344,5.958000000005995
-0.0641,1.0039,-0.2191,0.1657,0.1876,-0.0377,-0.2537,-1.68,-5.5912,-12.468869979738486,-3.5739188320749182,-6.80552500003182,5.974000000009255
-0.063,1.0067,-0.2206,0.165,0.1867,-0.0245,-0.2537,-1.68,-5.1887,-12.465744663058205,-3.5305989271525386,-6.832405000012849,5.989999999997963
-0.0578,1.0104,-0.2216,0.165,0.1867,-0.0245,-0.2713,-1.54,-5.1887,-12.464616860281952,-3.3405467727746934,-6.832405000012849,5.989999999997963
-0.0578,1.0075,-0.2227,0.1659,0.1868,-0.0314,-0.5512,-0.9887,-4.9437,-12.464563023357808,-3.2582827801582934,-6.847235500019467,6.005000000004657
-0.0617,1.0075,-0.2227,0.1659,0.1868,-0.0314,-0.7175,-1.47,-5.2675,-12.46450219069471,-3.3494695993768775,-6.847235500019467,6.005000000004657
-0.0635,1.005,-0.2205,0.1658,0.1866,-0.028,-0.7175,-1.47,-5.2675,-12.437338821972645,-3.4508730589906467,-6.870755500024258,6.021000000007916
-0.06,1.0033,-0.2193,0.1658,0.1866,-0.028,-1.1113,-1.0762,-5.3725,-12.38859060251477,-3.393469867144544,-6.870755500024258,6.021000000007916
-0.0587,1.003,-0.2204,0.1658,0.1866,-0.028,-0.6212,-0.7437,-5.2937,-12.389767795474603,-3.326196790460391,-6.881911000018414,6.036000000000058
-0.0631,1.0024,-0.22,0.1654,0.1889,-0.0232,-0.735,-1.3125,-4.9788,-12.386301601795017,-3.4428948735592413,-6.881911000018414,6.036000000000058
-0.0631,1.0024,-0.22,0.1654,0.1889,-0.0232,-0.735,-1.3125,-4.9788,-12.383914013200808,-3.4887498543481055,-6.9029110000226925,6.052000000003318
-0.0636,1.0012,-0.2181,0.1657,0.1878,-0.025,-0.6737,-1.4438,-5.425,-12.357329287118713,-3.5216990902007552,-6.9029110000226925,6.052000000003318
-0.0632,1.0025,-0.223,0.1657,0.1878,-0.025,-0.1488,-1.8375,-5.9938,-12.379085761320376,-3.521610375503132,-6.9323110000153125,6.0679999999993015
-0.0616,1.0076,-0.2208,0.1657,0.1878,-0.025,-0.0787,-1.6975,-6.2038,-12.37586414711933,-3.496387425674104,-6.9323110000153125,6.0679999999993015
-0.0583,1.0099,-0.2216,0.165,0.1884,-0.0273,-0.0787,-1.6975,-6.2038,-12.375910367341918,-3.431168049787456,-6.957773500026676,6.083000000005995
-0.0583,1.0089,-0.2214,0.165,0.1884,-0.0273,-0.4462,-2.205,-6.23,-12.37608952438134,-3.385606515719251,-6.957773500026676,6.083000000005995
-0.0551,1.0089,-0.2214,0.1655,0.1878,-0.0276,-0.3325,-2.7387,-6.2737,-12.376141134571881,-3.319182175318423,-7.001592700035602,6.099000000009255
-0.0565,1.0075,-0.2169,0.1655,0.1878,-0.0276,-0.28,-2.135,-6.23,-12.375408084849273,-3.2780463409694396,-7.001592700035602,6.099000000009255
-0.0556,1.01,-0.2179,0.1655,0.1878,-0.0276,-0.28,-2.135,-6.23,-12.374758377894826,-3.233125391300448,-7.033617700018826,6.114000000001397
-0.0581,1.0055,-0.217,0.1656,0.1864,-0.0304,-0.7962,-1.7587,-6.3175,-12.308183882097975,-3.233058848020428,-7.033617700018826,6.114000000001397
-0.0617,1.0036,-0.2186,0.1656,0.1864,-0.0304,-1.2775,-1.61,-6.3787,-12.298120702249236,-3.258972270010106,-7.059377700024074,6.130000000004657
-0.0617,1.0036,-0.2186,0.1647,0.1877,-0.031,-1.2775,-1.8375,-6.3,-12.293074617446267,-3.2916381430987776,-7.059377700024074,6.130000000004657
-0.067,1.0026,-0.2191,0.1647,0.1877,-0.031,-1.1638,-1.8375,-6.3,-12.309033263555778,-3.372750816854651,-7.088777700016694,6.14600000000064
-0.0655,1.0025,-0.2179,0.1647,0.1877,-0.031,-0.6125,-2.5287,-6.79,-12.297600035166031,-3.431709822007984,-7.088777700016694,6.14600000000064
-0.0673,1.0036,-0.2177,0.1668,0.1877,-0.0325,-0.4812,-2.8788,-6.3612,-12.287906200662565,-3.4761393396415783,-7.1319597000359645,6.161000000007334
-0.0671,1.0061,-0.2195,0.1668,0.1877,-0.0325,-0.4812,-2.8788,-6.3612,-12.291114869708908,-3.511373498128486,-7.1319597000359645,6.161000000007334
-0.0671,1.0061,-0.2173,0.1662,0.1877,-0.0283,-0.6037,-2.5812,-6.3963,-12.26601167729745,-3.536066804126786,-7.173258900025598,6.177000000003318
-0.0651,1.005,-0.2173,0.1662,0.1877,-0.0283,-0.3938,-2.52,-6.5363,-12.259501574708958,-3.537142032343907,-7.173258900025598,6.177000000003318
-0.0656,1.0088,-0.2176,0.1653,0.1874,-0.02,-0.6913,-1.7763,-6.1775,-12.234233276182806,-3.5628651502404707,-7.199903400024564,6.192000000002736
-0.0666,1.0107,-0.221,0.1653,0.1874,-0.02,-0.6913,-1.7763,-6.1775,-12.263199140354375,-3.5938329777592015,-7.199903400024564,6.192000000002736
-0.0631,1.0088,-0.2227,0.1653,0.1874,-0.02,-0.9538,-2.03,-5.9938,-12.337699023019569,-3.5596771389975386,-7.232383400031181,6.208000000005995
-0.0626,1.0052,-0.2211,0.167,0.1868,-0.027,-0.8487,-2.0038,-6.02,-12.36201818497195,-3.5331767745305975,-7.232383400031181,6.208000000005995
-0.0626,1.0052,-0.2211,0.167,0.1868,-0.027,-1.4525,-1.4612,-6.0813,-12.385200093339689,-3.517040532518241,-7.255762600025313,6.224000000001979
-0.0634,1.0038,-0.2182,0.1665,0.1856,-0.0243,-1.4525,-1.4612,-6.0813,-12.319777887230515,-3.5215491926733375,-7.255762600025313,6.224000000001979
-0.0639,1.0006,-0.2189,0.1665,0.1856,-0.0243,-1.2425,-1.2513,-5.7575,-12.329733456978094,-3.5424995744010745,-7.274532100033689,6.239000000008673
-0.0628,1.0048,-0.2158,0.1665,0.1856,-0.0243,-1.0675,-1.4612,-6.0287,-12.238089606431208,-3.5273680989258183,-7.274532100033689,6.239000000008673
-0.0622,1.009,-0.2164,0.1677,0.1856,-0.0358,-0.7262,-1.3388,-5.9763,-12.197184779457285,-3.4997512999157148,-7.295952900028311,6.255000000004657
-0.0622,1.009,-0.2193,0.1677,0.1856,-0.0358,-0.7262,-1.3388,-5.9763,-12.217137005287151,-3.48118297081119,-7.295952900028311,6.255000000004657
-0.0628,1.008,-0.2193,0.1676,0.1885,-0.0242,-0.84,-1.0938,-5.6788,-12.237465060746075,-3.482347207363718,-7.312359900027674,6.2700000000040745
-0.0591,1.0047,-0.2203,0.1676,0.1885,-0.0242,-0.455,-1.0762,-5.7575,-12.256523503410932,-3.3982566630794744,-7.312359900027674,6.2700000000040745
-0.0563,1.0073,-0.2151,0.1676,0.1885,-0.0242,-0.8925,-1.1988,-5.88,-12.179835352586654,-3.2926718980008056,-7.331540700031582,6.286000000007334
-0.0537,1.0054,-0.2169,0.1665,0.1884,-0.0375,-0.8925,-1.1988,-5.88,-12.177674404026568,-3.1736361450126718,-7.331540700031582,6.286000000007334
-0.0633,1.0061,-0.2188,0.1665,0.1884,-0.0375,-0.56,-0.9013,-6.0813,-12.197528153592005,-3.2792840884998706,-7.345961500027962,6.302000000003318
-0.0633,1.0061,-0.2188,0.1671,0.1883,-0.0216,-0.9275,-0.0175,-5.9237,-12.225636525436494,-3.3688323347674065,-7.345961500027962,6.302000000003318
-0.0712,1.0019,-0.2178,0.1671,0.1883,-0.0216,-0.9275,2.2225,-6.0375,-12.240878309436683,-3.5663015806720693,-7.312624000029256,6.317000000002736
-0.0736,1.0012,-0.2148,0.1671,0.1883,-0.0216,-0.7437,0.0,-6.0375,-12.199244555302503,-3.744549091853832,-7.312624000029256,6.317000000002736
-0.0673,1.0024,-0.217,0.1651,0.1887,-0.0217,-0.4288,-0.14,-6.2562,-12.201237698057916,-3.7466079422089344,-7.3148640000286935,6.332999999998719
-0.0686,1.0059,-0.218,0.1651,0.1887,-0.0217,-0.4462,-0.7525,-5.8888,-12.20500377948382,-3.7724481325961214,-7.32615150003373,6.348000000005413
-0.0686,1.0059,-0.2174,0.167,0.1875,-0.0295,-0.4462,-0.7525,-5.8888,-12.20366764839164,-3.7884352158846313,-7.32615150003373,6.348000000005413
-0.0692,1.0083,-0.2174,0.167,0.1875,-0.0295,-0.4812,-0.49,-5.7312,-12.197659089101052,-3.810414199888683,-7.333991500035327,6.364000000008673
-0.0708,1.0106,-0.2106,0.1664,0.1883,-0.0288,-0.0875,-0.2187,-5.88,-12.12788950617873,-3.8546751028964574,-7.333991500035327,6.364000000008673
-0.0697,1.0109,-0.2186,0.1664,0.1883,-0.0288,-0.525,-0.9363,-5.67,-12.142304731058912,-3.85500011702394,-7.363016800031022,6.3950000000040745
-0.0759,1.0057,-0.2222,0.1664,0.1883,-0.0288,-0.525,-0.9363,-5.67,-12.203925514585633,-4.020639935128784,-7.377997600027261,6.411000000000058
-0.0813,1.005,-0.2175,0.1672,0.1902,-0.0302,-0.5775,-1.0762,-5.1712,-12.205649514126328,-4.30813464297496,-7.377997600027261,6.411000000000058
-0.0813,1.005,-0.2175,0.1672,0.1902,-0.0302,0.1488,-1.0063,-5.3288,-12.207417120719596,-4.423853329107278,-7.377997600027261,6.411000000000058
-0.0837,1.0065,-0.2151,0.1663,0.1881,-0.0206,0.0437,-1.6013,-4.8562,-12.171899267104093,-4.564746762343866,-7.40201710003798,6.426000000006752
-0.0814,1.0056,-0.2145,0.1663,0.1881,-0.0206,0.0437,-1.6013,-4.8562,-12.139659223412586,-4.540789449604046,-7.40201710003798,6.426000000006752
-0.0805,1.0048,-0.218,0.1663,0.1881,-0.0206,0.6212,-1.9863,-4.8038,-12.187833865287772,-4.500313484326492,-7.40201710003798,6.426000000006752
-0.0742,1.0038,-0.2189,0.1678,0.188,-0.0324,0.8487,-2.0125,-4.4012,-12.248435319345216,-4.249159198900651,-7.40201710003798,6.426000000006752
-0.0742,1.0038,-0.2204,0.1678,0.188,-0.0324,1.1463,-1.68,-4.3225,-12.328012663717516,-4.16691171016118,-7.428897100031233,6.442000000002736
-0.0717,1.0094,-0.2204,0.1675,0.1866,-0.0268,1.1463,-1.68,-4.3225,-12.321579193138922,-4.031378000825858,-7.428897100031233,6.442000000002736
-0.0656,1.0124,-0.2148,0.1675,0.1866,-0.0268,0.1312,-2.3363,-4.025,-12.221129591014078,-3.742487292747137,-7.466277900038849,6.458000000005995
-0.0599,1.012,-0.218,0.1675,0.1866,-0.0268,0.3938,-1.6538,-3.78,-12.195080774441,-3.426681331732768,-7.466277900038849,6.458000000005995
-0.0601,1.0097,-0.2217,0.1672,0.1886,-0.031,-0.0437,-1.295,-3.5438,-12.23157553537836,-3.3522696024388745,-7.485702900038095,6.473000000005413
-0.06,1.0105,-0.2159,0.1672,0.1886,-0.031,-0.0437,-1.295,-3.5438,-12.198474170761065,-3.3305080797749227,-7.485702900038095,6.473000000005413
-0.06,1.0105,-0.2159,0.1674,0.1866,-0.0255,0.385,-0.84,-3.7887,-12.143121997900924,-3.32516058472039,-7.4991429000347205,6.489000000001397
-0.0622,1.0085,-0.2207,0.1674,0.1866,-0.0255,-0.3762,-1.2513,-3.6137,-12.16020658299084,-3.416507629926503,-7.4991429000347205,6.489000000001397
-0.0644,1.0056,-0.2189,0.1674,0.1866,-0.0255,-0.3762,-1.2513,-3.6137,-12.170447768308971,-3.5386842689882334,-7.517912400043096,6.504000000008091
-0.0675,1.0026,-0.2212,0.1652,0.1874,-0.0218,0.0175,-1.0063,-3.7887,-12.233151378865864,-3.7017964623673185,-7.517912400043096,6.504000000008091
-0.0676,1.0055,-0.2212,0.1652,0.1874,-0.0218,0.1312,-0.4462,-4.1388,-12.2840539518095,-3.7404506892458085,-7.525051600041304,6.5200000000040745
-0.0676,1.0055,-0.2212,0.1648,0.1876,-0.0226,0.5688,-0.7088,-4.3837,-12.340558554808203,-3.7514967258795897,-7.525051600041304,6.5200000000040745
-0.0675,1.0069,-0.2203,0.1648,0.1876,-0.0226,0.5688,-0.7088,-4.3837,-12.340896617456686,-3.7483328372232574,-7.536392400043614,6.536000000007334
-0.0641,1.0078,-0.2187,0.1648,0.1858,-0.0265,0.4375,-0.9625,-4.3488,-12.300212599371736,-3.6171042439774777,-7.536392400043614,6.536000000007334
-0.0608,1.0102,-0.2199,0.1657,0.1858,-0.0265,0.56,-1.12,-4.1213,-12.291217012659176,-3.4395372805848017,-7.553192400042962,6.551000000006752
-0.0608,1.0085,-0.2241,0.1657,0.1858,-0.0265,0.6037,-0.5688,-4.06,-12.40261206605625,-3.3887173808597133,-7.553192400042962,6.551000000006752
-0.0607,1.0065,-0.2231,0.167,0.1866,-0.0228,0.6037,-0.5688,-4.06,-12.447478628385307,-3.3751350380604546,-7.562293200040678,6.567000000002736
-0.0607,1.0065,-0.2231,0.167,0.1866,-0.0228,0.245,-0.1488,-4.4275,-12.464963744344962,-3.371402653207054,-7.562293200040678,6.567000000002736
-0.0619,1.0041,-0.2217,0.1675,0.1865,-0.0274,-0.0088,-0.4375,-4.5763,-12.461923228562446,-3.4199633391755766,-7.568855700043606,6.58200000000943
-0.0642,1.0027,-0.2234,0.1675,0.1865,-0.0274,0.105,-0.98,-4.8738,-12.489426168572091,-3.5171408899681453,-7.568855700043606,6.58200000000943
-0.0651,1.0019,-0.2239,0.1675,0.1865,-0.0274,0.105,-0.98,-4.8738,-12.51957027248159,-3.586416943254379,-7.58453570003254,6.597999999998137
-0.0643,1.0013,-0.2261,0.1662,0.1886,-0.0189,-0.1488,-1.05,-4.5763,-12.543839738910393,-3.5850127454745286,-7.58453570003254,6.597999999998137
-0.0643,1.0013,-0.2261,0.1662,0.1886,-0.0189,0.1838,-1.19,-4.9612,-12.60130837159629,-3.584573077416054,-7.603575700036419,6.614000000001397
-0.063,1.0047,-0.2206,0.1651,0.1884,-0.0236,0.1225,-1.4525,-5.11,-12.538530766454507,-3.5378364464021383,-7.603575700036419,6.614000000001397
-0.0611,1.0055,-0.2211,0.1651,0.1884,-0.0236,0.1225,-1.4525,-5.11,-12.498961701098796,-3.4549977478665457,-7.625363200046142,6.629000000008091
-0.0629,1.0063,-0.2273,0.1651,0.1884,-0.0236,0.4725,-1.3212,-4.725,-12.597635436012261,-3.4768610988017143,-7.625363200046142,6.629000000008091
-0.063,1.0066,-0.2249,0.1658,0.1865,-0.0237,0.3063,-1.365,-5.0225,-12.596466397350703,-3.4879507525287,-7.64720320004066,6.6450000000040745
-0.0665,1.008,-0.2234,0.1658,0.1865,-0.0237,0.3063,-1.365,-5.0838,-12.559317216673872,-3.60441276141528,-7.64720320004066,6.6450000000040745
-0.0665,1.008,-0.2234,0.1651,0.1869,-0.028,-0.0088,-1.6888,-5.0838,-12.545747633585052,-3.6521443057768908,-7.672535200039677,6.6600000000034925
-0.0603,1.0083,-0.2219,0.1651,0.1869,-0.028,-0.1663,-2.1263,-5.5213,-12.53168440356998,-3.497193236544644,-7.672535200039677,6.6600000000034925
-0.063,1.0071,-0.2244,0.1651,0.1869,-0.028,-0.7437,-2.765,-5.8187,-12.5410318647312,-3.4958962435374366,-7.716775200028572,6.675999999999476
-0.0619,1.0063,-0.2251,0.1661,0.1862,-0.0228,-0.7437,-2.765,-5.8187,-12.562449487864958,-3.470832594201103,-7.761015200037584,6.692000000002736
-0.0589,1.0087,-0.2252,0.1661,0.1862,-0.0228,-0.4462,-2.9488,-6.0725,-12.565655483683944,-3.4058063674452748,-7.761015200037584,6.692000000002736
-0.0589,1.0087,-0.2252,0.164,0.1875,-0.0266,-0.7962,-1.9863,-5.7575,-12.572325832073549,-3.343289479580744,-7.790809700036428,6.707000000002154
-0.0548,1.0086,-0.2204,0.164,0.1875,-0.0266,-1.4,-1.785,-5.3637,-12.442659672710707,-3.1795605571825845,-7.790809700036428,6.707000000002154
-0.0554,1.0017,-0.2218,0.164,0.1875,-0.026,-1.4,-1.785,-5.3637,-12.465100337083516,-3.1319250908146157,-7.819369700042246,6.723000000005413
-0.0573,1.0012,-0.2222,0.1674,0.1885,-0.026,-1.2163,-1.4525,-5.6525,-12.488246066985692,-3.1626419714683616,-7.819369700042246,6.723000000005413
-0.0605,1.0039,-0.2245,0.1674,0.1885,-0.026,-1.5488,-1.6363,-5.6,-12.553762528740164,-3.2602040769540612,-7.843914200041294,6.738000000004831
-0.0605,1.0062,-0.2235,0.1667,0.1892,-0.0287,-1.085,-1.3388,-5.5825,-12.540243314298072,-3.3082112277468942,-7.843914200041294,6.738000000004831
-0.0596,1.0062,-0.2235,0.1667,0.1892,-0.0287,-1.085,-1.3388,-5.5825,-12.532739955382965,-3.3087660902257,-7.865335000035916,6.754000000000815
-0.0638,1.0027,-0.2225,0.1663,0.1886,-0.0284,-1.4612,-1.0325,-4.935,-12.521122828737838,-3.4595693015084,-7.865335000035916,6.754000000000815
-0.0649,1.0063,-0.2259,0.1663,0.1886,-0.0284,-1.1113,-1.0675,-5.0575,-12.580558187519504,-3.5434973980330295,-7.882415000039396,6.7700000000040745
-0.0694,1.0102,-0.223,0.1663,0.1886,-0.0284,-0.8838,-1.68,-5.1975,-12.53093677519555,-3.7113378485396793,-7.882415000039396,6.7700000000040745
-0.0666,1.0119,-0.2203,0.169,0.1878,-0.0242,-0.8838,-1.68,-5.1975,-12.437594569272106,-3.69326890209081,-7.907615000038418,6.7850000000034925
-0.0666,1.0119,-0.2203,0.169,0.1878,-0.0242,-0.63,-1.8375,-5.2063,-12.3975761980484,-3.6855236880262257,-7.907615000038418,6.7850000000034925
-0.0618,1.0114,-0.2231,0.165,0.1861,-0.024,-0.5688,-1.82,-5.5738,-12.406867041503169,-3.553603927575953,-7.936735000044351,6.801000000006752
-0.0597,1.0124,-0.2226,0.165,0.1861,-0.024,-0.945,-1.6275,-6.0025,-12.404334995054079,-3.465406340416901,-7.936735000044351,6.801000000006752
-0.0622,1.0119,-0.2201,0.165,0.1861,-0.024,-0.945,-1.6275,-6.0025,-12.35137907133061,-3.4557722649723885,-7.9611475000434035,6.81600000000617
-0.0615,1.0056,-0.2208,0.167,0.1875,-0.0259,-1.4525,-1.7325,-5.9763,-12.368929158422505,-3.4425773963455946,-7.9611475000434035,6.81600000000617
-0.0615,1.0036,-0.2184,0.167,0.1875,-0.0259,-1.1725,-1.1638,-5.4687,-12.325705098496801,-3.4344075113639576,-7.979768300038729,6.832000000002154
-0.0619,1.0036,-0.2184,0.1649,0.189,-0.0246,-1.1725,-1.1638,-4.7775,-12.302826207121255,-3.4436211590370065,-7.979768300038729,6.832000000002154
-0.0639,0.9984,-0.2177,0.1649,0.189,-0.0246,-1.54,-0.9887,-4.7775,-12.30166711759572,-3.5292097036204595,-7.995587500041951,6.848000000005413
