AcclX,AcclY,AcclZ,MagX,MagY,MagZ,GyroX,GyroY,GyroZ,Roll,Pitch,Yaw
-0.2849,-0.1759,0.9165,-0.2824,0.7595,0.4113,-3.5263,1.1025,-9.8175,0,0,0
-0.2802,-0.1712,0.8756,-0.2822,0.7614,0.4113,-3.3863,1.2512,-10.1325,0,0,0
-0.2858,-0.1742,0.9101,-0.2822,0.7614,0.4113,-3.2025,0.77,-9.6775,0,0,0
-0.2843,-0.1751,0.9134,-0.2863,0.7608,0.4093,-3.08,1.155,-10.4387,0,0,0
-0.283,-0.1752,0.9154,-0.2863,0.7608,0.4093,-3.43,1.61,-10.15,0,0,0
-0.2811,-0.1773,0.9166,-0.2842,0.7593,0.4186,-3.64,1.0937,-9.7825,0,0,0
-0.2854,-0.1789,0.9103,-0.2814,0.7596,0.4116,-3.4563,1.12,-9.625,0,0,0
-0.2859,-0.1773,0.9159,-0.2814,0.7596,0.4116,-3.4038,1.3125,-9.695,0,0,0
-0.2854,-0.1756,0.9104,-0.2825,0.7602,0.4119,-3.5438,1.3212,-10.0275,0,0,0
-0.2872,-0.176,0.9127,-0.2825,0.7602,0.4119,-2.9488,1.295,-9.9663,0,0,0
-0.2836,-0.1773,0.9173,-0.2802,0.7607,0.4114,-3.5525,1.715,-10.2287,0,0,0
-0.279,-0.177,0.9158,-0.2802,0.7607,0.4114,-3.6575,1.2862,-10.22,0,0,0
-0.2833,-0.1773,0.912,-0.2834,0.7578,0.4119,-4.0075,1.2163,-10.29,0,0,0
-0.285,-0.1756,0.9112,-0.2836,0.7586,0.4112,-3.4038,1.2163,-9.7912,0,0,0
-0.2832,-0.1787,0.9151,-0.2836,0.7586,0.4112,-3.815,1.4612,-9.2837,0,0,0
-0.2843,-0.1744,0.914,-0.2823,0.7596,0.4122,-3.185,1.26,-9.625,0,0,0
-0.2866,-0.1764,0.9127,-0.2823,0.7596,0.4122,-2.9313,1.3125,-10.0362,0,0,0
-0.2815,-0.1766,0.9159,-0.2858,0.7597,0.4139,-3.2725,1.4612,-10.0887,0,0,0
-0.2802,-0.1755,0.9152,-0.2825,0.7599,0.4121,-3.71,1.085,-10.1675,0,0,0
-0.2869,-0.1781,0.9142,-0.2825,0.7599,0.4121,-2.3888,1.3737,-10.3687,0,0,0
-0.284,-0.1773,0.9162,-0.2853,0.7603,0.4086,-3.1325,1.0675,-9.6512,0,0,0
-0.2827,-0.1773,0.913,-0.2853,0.7603,0.4086,-3.2462,1.365,-10.6487,0,0,0
-0.2862,-0.1779,0.9134,-0.2849,0.762,0.4146,-3.3338,1.33,-10.0712,0,0,0
-0.2847,-0.177,0.9142,-0.2829,0.7606,0.4125,-3.045,1.0762,-9.6512,0,0,0
-0.2826,-0.1785,0.9137,-0.2829,0.7606,0.4125,-3.465,1.0325,-10.15,0,0,0
-0.2824,-0.1761,0.9145,-0.2822,0.7563,0.4116,-3.3863,1.4262,-9.9312,0,0,0
-0.2838,-0.1753,0.914,-0.2822,0.7563,0.4116,-3.5175,1.1287,-10.3075,0,0,0
-0.2836,-0.1767,0.9168,-0.2821,0.7602,0.4112,-3.2113,1.1725,-9.7475,0,0,0
-0.2829,-0.1765,0.9163,-0.2838,0.7597,0.4118,-3.5875,1.4437,-9.8087,0,0,0
-0.2847,-0.1772,0.9098,-0.2838,0.7597,0.4118,-4.0075,1.1462,-9.9663,0,0,0
-0.2845,-0.1742,0.9159,-0.2827,0.7596,0.4126,-3.2813,1.4088,-9.9488,0,0,0
-0.2828,-0.1763,0.9175,-0.2827,0.7596,0.4126,-3.2113,1.2512,-9.9575,0,0,0
-0.284,-0.1776,0.9163,-0.2833,0.7593,0.4126,-3.2813,1.5662,-9.9225,0,0,0
-0.2879,-0.1766,0.9104,-0.2824,0.7605,0.4125,-2.7213,1.3125,-10.0975,0,0,0
-0.2844,-0.1782,0.9129,-0.2824,0.7605,0.4125,-2.73,1.3912,-10.5787,0,0,0
-0.2817,-0.1752,0.9153,-0.2814,0.7602,0.4111,-3.115,1.505,-10.1325,0,0,0
-0.2861,-0.176,0.9113,-0.2814,0.7602,0.4111,-3.2113,1.1987,-10.22,0,0,0
-0.2838,-0.1768,0.9171,-0.2834,0.7602,0.4061,-3.1675,1.2687,-9.9225,0,0,0
-0.281,-0.1757,0.914,-0.284,0.7594,0.4111,-2.9925,1.1638,-9.8787,0,0,0
-0.2838,-0.1779,0.9124,-0.284,0.7594,0.4111,-3.1763,1.19,-10.29,0,0,0
-0.2822,-0.1769,0.9097,-0.2821,0.7598,0.4111,-3.4913,1.1462,-10.2812,0,0,0
-0.2833,-0.1773,0.9183,-0.2821,0.7598,0.4111,-2.9313,1.1462,-10.08,0,0,0
-0.2836,-0.1777,0.9158,-0.2819,0.7598,0.4148,-3.7362,1.8025,-9.31,0,0,0
-0.2851,-0.178,0.9098,-0.2843,0.7595,0.4129,-3.815,1.3037,-9.6862,0,0,0
-0.2855,-0.1761,0.9137,-0.2843,0.7595,0.4129,-3.85,1.5575,-9.205,0,0,0
-0.2834,-0.1778,0.9132,-0.2817,0.7592,0.4121,-4.235,1.5575,-9.1612,0,0,0
-0.2835,-0.1787,0.9143,-0.2817,0.7592,0.4121,-3.5525,1.4262,-9.73,0,0,0
-0.2845,-0.1767,0.9159,-0.2814,0.7597,0.4118,-3.395,1.8463,-9.835,0,0,0
-0.2833,-0.1766,0.9184,-0.2844,0.7574,0.4114,-3.7888,1.4525,-10.2637,0,0,0
-0.2836,-0.1765,0.9161,-0.2844,0.7574,0.4114,-3.8937,1.4612,-10.955,0,0,0
-0.2835,-0.1767,0.9153,-0.2825,0.7584,0.4104,-3.1238,1.5487,-9.905,0,0,0
-0.2846,-0.1782,0.9129,-0.2825,0.7584,0.4104,-2.8087,1.365,-10.255,0,0,0
-0.2829,-0.1778,0.9139,-0.2821,0.7602,0.4118,-3.2025,1.2075,-10.0712,0,0,0
-0.2876,-0.178,0.9084,-0.2814,0.7606,0.4094,-3.9025,0.9975,-9.7912,0,0,0
-0.2833,-0.1757,0.9159,-0.2814,0.7606,0.4094,-3.3688,0.9013,-10.395,0,0,0
-0.2816,-0.1764,0.9164,-0.2819,0.759,0.4106,-3.3775,0.9275,-9.8,0,0,0
-0.2838,-0.1767,0.9148,-0.2819,0.759,0.4106,-3.1763,1.225,-9.9225,0,0,0
-0.2833,-0.1766,0.9153,-0.2846,0.7598,0.4111,-3.08,1.19,-10.2025,0,0,0
-0.2829,-0.1779,0.9112,-0.2856,0.7618,0.413,-4.1825,1.4787,-10.2375,0,0,0
-0.2825,-0.1776,0.9104,-0.2856,0.7618,0.413,-4.1213,0.9538,-9.835,0,0,0
-0.2846,-0.1777,0.9131,-0.2817,0.7615,0.4132,-3.535,1.4437,-10.1763,0,0,0
-0.284,-0.1779,0.9167,-0.2817,0.7615,0.4132,-3.0363,1.3825,-10.2287,0,0,0
-0.2811,-0.1773,0.9172,-0.2805,0.7596,0.4146,-3.2813,1.1987,-10.01,0,0,0
-0.2854,-0.1767,0.9141,-0.2838,0.7601,0.4086,-3.2288,1.2337,-10.2812,0,0,0
-0.2868,-0.1759,0.918,-0.2838,0.7601,0.4086,-3.43,1.5837,-10.5,0,0,0
-0.285,-0.1769,0.9121,-0.2826,0.7602,0.4102,-4.1388,1.7062,-9.8262,0,0,0
-0.2839,-0.1776,0.9097,-0.2826,0.7602,0.4102,-3.9113,1.6625,-9.9137,0,0,0
-0.2826,-0.1765,0.9201,-0.2831,0.7614,0.4076,-2.9138,1.3825,-9.9488,0,0,0
-0.2834,-0.1778,0.9251,-0.2819,0.7598,0.414,-3.4038,1.1462,-10.3075,0,0,0
-0.2846,-0.177,0.9118,-0.2819,0.7598,0.414,-4.0075,1.3562,-9.7475,0,0,0
-0.2826,-0.1748,0.9109,-0.2806,0.759,0.4119,-3.2987,1.4,-9.9312,0,0,0
-0.282,-0.177,0.9155,-0.2806,0.759,0.4119,-2.8175,1.1987,-10.6225,0,0,0
-0.2825,-0.1761,0.9164,-0.2824,0.7597,0.4091,-3.2288,1.1287,-9.695,0,0,0
-0.2844,-0.1781,0.9113,-0.2838,0.7618,0.41,-2.9663,0.8575,-9.9663,0,0,0
-0.2856,-0.1774,0.9105,-0.2838,0.7618,0.41,-3.36,1.1987,-9.7825,0,0,0
-0.2854,-0.1779,0.9173,-0.2834,0.7596,0.4102,-3.4738,1.225,-9.9312,0,0,0
-0.2828,-0.1781,0.9179,-0.2834,0.7596,0.4102,-3.4913,1.3912,-10.185,0,0,0
-0.283,-0.177,0.9159,-0.2815,0.7616,0.4061,-3.29,0.7962,-9.6775,0,0,0
-0.2852,-0.1774,0.9152,-0.2815,0.7616,0.4144,-3.3425,1.575,-9.1875,0,0,0
-0.2844,-0.1761,0.9177,-0.2841,0.7588,0.4144,-3.185,1.82,-9.8437,0,0,0
-0.2842,-0.1782,0.9109,-0.2834,0.7592,0.4117,-2.38,1.2862,-10.1675,0,0,0
-0.2846,-0.1778,0.9162,-0.2834,0.7592,0.4117,-2.8963,1.26,-10.9987,0,0,0
-0.2816,-0.1758,0.9149,-0.2834,0.7618,0.41,-3.8325,0.9013,-9.8,0,0,0
-0.2838,-0.1768,0.9126,-0.2834,0.7618,0.41,-3.325,1.2163,-10.5875,0,0,0
-0.2837,-0.1788,0.914,-0.2847,0.7615,0.4066,-2.6075,1.435,-10.5787,0,0,0
-0.2847,-0.1788,0.913,-0.283,0.7614,0.4106,-3.22,1.295,-10.115,0,0,0
-0.2825,-0.1768,0.913,-0.283,0.7614,0.4106,-4.1038,1.5925,-10.1237,0,0,0
-0.285,-0.1781,0.9139,-0.2838,0.7595,0.411,-3.3688,1.0587,-10.0275,0,0,0
-0.2855,-0.1774,0.9134,-0.2838,0.7595,0.411,-3.465,1.2337,-10.0362,0,0,0
-0.2844,-0.1778,0.9186,-0.2822,0.7596,0.414,-3.5963,1.4525,-9.7212,0,0,0
-0.2848,-0.1786,0.9151,-0.2835,0.7612,0.4115,-2.8612,1.3212,-10.255,0,0,0
-0.2847,-0.1757,0.916,-0.2835,0.7612,0.4115,-2.8525,1.6712,-10.4912,0,0,0
-0.2868,-0.1754,0.9162,-0.2831,0.7592,0.4114,-3.0713,1.3912,-10.6312,0,0,0
-0.2844,-0.1775,0.9102,-0.2831,0.7592,0.4108,-3.675,1.5312,-9.94,0,0,0
-0.2825,-0.177,0.9127,-0.2831,0.7614,0.4108,-3.3075,1.4088,-10.08,0,0,0
-0.2855,-0.1759,0.9156,-0.2829,0.7607,0.4124,-3.5875,1.2687,-9.9575,0,0,0
-0.2845,-0.1775,0.911,-0.2829,0.7607,0.4124,-3.7188,1.26,-10.4038,0,0,0
-0.2841,-0.1765,0.9137,-0.2838,0.7592,0.4116,-2.8875,1.2862,-10.9287,0,0,0
-0.2854,-0.1762,0.9179,-0.2838,0.7592,0.4116,-3.3513,1.05,-9.9925,0,0,0
-0.2811,-0.1768,0.9146,-0.2854,0.7598,0.4103,-3.045,1.435,-9.8437,0,0,0
-0.286,-0.1772,0.9088,-0.2854,0.7593,0.4114,-3.0188,1.575,-10.3775,0,0,0
-0.2846,-0.1752,0.9155,-0.2854,0.7593,0.4114,-3.0713,1.085,-10.395,-10.807786184683392,-16.28376005026765,-103.33731755180419
-0.2813,-0.1783,0.9163,-0.283,0.7586,0.4128,-3.4213,1.0937,-10.0275,-11.010918321852627,-16.749931011802715,-103.37881235990776
-0.2843,-0.1783,0.9139,-0.283,0.7586,0.4128,-2.8175,1.0237,-10.255,-11.039545702728633,-16.96953505489169,-103.30511625445877
-0.2841,-0.1761,0.9162,-0.2821,0.7572,0.4156,-4.0513,1.0587,-9.52,-10.880343660356232,-16.93745243608651,-103.18710091654786
-0.2836,-0.1737,0.9188,-0.2811,0.7599,0.4121,-3.5963,1.2687,-10.01,-10.705894916855357,-16.874785221913395,-103.15774727603616
-0.2865,-0.1773,0.9148,-0.2811,0.7599,0.4121,-3.6225,1.3562,-9.5025,-10.968036992105489,-17.081725190233616,-103.12844566273246
-0.2852,-0.1765,0.9162,-0.2834,0.7592,0.4124,-3.4125,1.1812,-10.325,-10.904235037297376,-17.000086830728748,-103.2972000790675
-0.2849,-0.1767,0.9107,-0.2834,0.7592,0.4124,-3.2025,0.7175,-10.5437,-10.98028623209497,-17.069281349704482,-103.28426319186626
-0.2826,-0.1764,0.918,-0.2826,0.7598,0.4097,-3.5,0.7088,-10.2375,-10.877440489422353,-16.8307397235446,-103.3600823730169
-0.2852,-0.176,0.9119,-0.2831,0.7598,0.4117,-3.1238,1.19,-10.2725,-10.923862158128866,-17.061127934705723,-103.26258853787543
-0.2852,-0.1781,0.9159,-0.2831,0.7598,0.4117,-3.5788,1.2862,-10.1587,-11.00385073945347,-16.99909537288217,-103.3074151047474
-0.2833,-0.1786,0.9146,-0.2822,0.7582,0.4142,-3.2025,0.9363,-10.115,-11.049367583066742,-16.91346596948187,-103.25709757182948
AcclX,AcclY,AcclZ,MagX,MagY,MagZ,GyroX,GyroY,GyroZ,Roll,Pitch,Yaw
-0.2835,-0.1753,0.9137,-0.2814,0.7595,0.4128,-3.8238,1.4962,-9.7737,0,0,0
-0.2774,-0.168,0.8754,-0.284,0.7602,0.4078,-3.7975,1.085,-9.8787,0,0,0
-0.2854,-0.1749,0.9123,-0.284,0.7602,0.4078,-3.5613,1.3037,-9.52,0,0,0
-0.2866,-0.1748,0.9145,-0.2833,0.7612,0.4162,-2.73,1.085,-10.605,0,0,0
-0.2883,-0.1774,0.9113,-0.282,0.761,0.4136,-3.0975,1.4,-9.8,0,0,0
-0.2812,-0.1782,0.9191,-0.282,0.761,0.4136,-3.8675,1.2163,-9.66,0,0,0
-0.2811,-0.1768,0.9119,-0.283,0.7603,0.4126,-3.3775,1.6975,-10.0187,0,0,0
-0.2825,-0.177,0.911,-0.283,0.7603,0.4126,-3.2375,1.4875,-10.675,0,0,0
-0.2827,-0.1771,0.9146,-0.2821,0.7589,0.4114,-3.6575,1.2687,-10.4038,0,0,0
-0.2826,-0.1765,0.9173,-0.2821,0.7589,0.4114,-3.3863,1.0587,-10.1062,0,0,0
-0.286,-0.1779,0.9115,-0.2868,0.7602,0.4118,-3.3163,0.9363,-10.045,0,0,0
-0.2859,-0.1762,0.9139,-0.2842,0.7601,0.4106,-3.0275,1.1287,-10.0187,0,0,0
-0.2846,-0.1742,0.9113,-0.2842,0.7601,0.4106,-3.745,1.5137,-10.29,0,0,0
-0.2854,-0.1771,0.9141,-0.283,0.7602,0.412,-3.4475,1.365,-10.2812,0,0,0
-0.2852,-0.1765,0.9146,-0.283,0.7602,0.412,-3.3775,0.98,-10.1325,0,0,0
-0.2879,-0.1779,0.9144,-0.2846,0.7599,0.4179,-3.2375,0.9275,-10.0712,0,0,0
-0.285,-0.1763,0.9172,-0.2795,0.7609,0.4105,-3.0975,1.6975,-9.975,0,0,0
-0.2851,-0.1771,0.9149,-0.2795,0.7609,0.4105,-2.8438,1.3825,-9.59,0,0,0
-0.2859,-0.1759,0.92,-0.2832,0.7607,0.4121,-3.395,1.1375,-9.8612,0,0,0
-0.2826,-0.1737,0.9119,-0.2832,0.7607,0.4121,-3.4913,1.225,-9.2137,0,0,0
-0.2827,-0.1733,0.9132,-0.283,0.7594,0.4139,-2.9313,1.6275,-9.8875,0,0,0
-0.2824,-0.1771,0.9126,-0.2833,0.7598,0.4102,-3.9725,1.4787,-9.2662,0,0,0
-0.2851,-0.1777,0.9147,-0.2833,0.7598,0.4102,-3.045,1.1812,-9.9225,0,0,0
-0.2857,-0.1781,0.9159,-0.2829,0.7596,0.4119,-3.4738,1.6362,-9.8087,0,0,0
-0.2873,-0.1785,0.9133,-0.2829,0.7596,0.4119,-3.7888,1.0762,-9.275,0,0,0
-0.2833,-0.1765,0.9184,-0.283,0.7601,0.4106,-3.5788,1.33,-9.8,0,0,0
-0.2839,-0.1769,0.9129,-0.283,0.7601,0.4125,-3.57,0.8925,-9.7125,0,0,0
-0.2849,-0.1751,0.9142,-0.2842,0.7606,0.4125,-2.7213,1.1638,-10.0887,0,0,0
-0.2829,-0.1769,0.9139,-0.2835,0.7598,0.4119,-2.975,1.365,-10.7712,0,0,0
-0.2852,-0.1749,0.9138,-0.2835,0.7598,0.4119,-2.8263,1.2337,-10.6487,0,0,0
-0.2863,-0.1761,0.9122,-0.2846,0.7594,0.4178,-3.2025,1.4962,-10.2812,0,0,0
-0.2847,-0.1775,0.9148,-0.2846,0.7594,0.4131,-3.1763,1.26,-10.3075,0,0,0
-0.2829,-0.1767,0.916,-0.2834,0.761,0.4131,-3.0013,0.7525,-10.0275,0,0,0
-0.2847,-0.1763,0.9109,-0.283,0.7607,0.4113,-3.4913,1.3562,-9.6862,0,0,0
-0.2858,-0.1755,0.913,-0.283,0.7607,0.4113,-3.3688,1.4962,-9.5462,0,0,0
-0.2844,-0.1753,0.9162,-0.281,0.7598,0.4131,-4.0862,1.33,-9.5725,0,0,0
-0.2842,-0.1782,0.9129,-0.281,0.7598,0.4131,-4.2438,1.3737,-9.9488,0,0,0
-0.2841,-0.1773,0.9122,-0.2846,0.7602,0.4082,-3.6837,1.2687,-9.7825,0,0,0
-0.2868,-0.1761,0.9086,-0.2813,0.7593,0.4117,-2.9225,1.75,-10.2112,0,0,0
-0.2833,-0.1776,0.9163,-0.2813,0.7593,0.4117,-3.5613,0.875,-10.2025,0,0,0
-0.2853,-0.1778,0.9136,-0.282,0.7608,0.4162,-3.6663,1.1987,-9.3625,0,0,0
-0.2852,-0.1749,0.915,-0.282,0.7608,0.4162,-4.0163,1.2687,-10.0887,0,0,0
-0.2827,-0.1756,0.9154,-0.2812,0.7597,0.4098,-3.3863,1.3475,-10.64,0,0,0
-0.2859,-0.1764,0.9138,-0.2826,0.7614,0.4126,-2.8438,1.1375,-10.1062,0,0,0
-0.2863,-0.1757,0.9166,-0.2826,0.7614,0.4126,-2.4588,1.1375,-10.3687,0,0,0
-0.2854,-0.1762,0.9123,-0.2815,0.7595,0.4125,-2.9488,1.0237,-9.8175,0,0,0
-0.2846,-0.1761,0.9114,-0.2815,0.7595,0.4125,-2.52,1.2775,-10.2637,0,0,0
-0.286,-0.1765,0.9147,-0.2821,0.7596,0.4101,-2.835,1.3912,-9.9575,0,0,0
-0.2855,-0.1768,0.9156,-0.2831,0.7597,0.4123,-3.1325,1.33,-10.0187,0,0,0
-0.2826,-0.1765,0.916,-0.2831,0.7597,0.4123,-3.115,1.5137,-10.045,0,0,0
-0.2837,-0.1755,0.9155,-0.2816,0.7597,0.4107,-3.4388,1.155,-10.0625,0,0,0
-0.2817,-0.1737,0.9149,-0.2816,0.7597,0.4107,-2.73,1.2075,-9.4325,0,0,0
-0.2841,-0.176,0.9146,-0.2814,0.7597,0.4126,-3.0538,1.54,-9.2312,0,0,0
-0.2858,-0.1791,0.9135,-0.2826,0.759,0.4116,-4.0338,1.785,-9.345,0,0,0
-0.2851,-0.1778,0.9121,-0.2826,0.759,0.4116,-3.6837,1.155,-9.73,0,0,0
-0.2846,-0.1785,0.9107,-0.2826,0.7618,0.4111,-3.4213,1.2337,-9.345,0,0,0
-0.2849,-0.1767,0.9123,-0.2826,0.7618,0.4111,-4.0075,1.3562,-9.485,0,0,0
-0.2847,-0.1752,0.914,-0.2841,0.7605,0.4164,-3.5875,1.0675,-9.7037,0,0,0
-0.2838,-0.1762,0.9191,-0.2817,0.7573,0.4122,-3.465,1.0762,-9.345,0,0,0
-0.2846,-0.1756,0.9104,-0.2817,0.7573,0.4122,-3.1588,1.2075,-9.6687,0,0,0
-0.2862,-0.1755,0.9123,-0.2846,0.7612,0.4122,-3.2375,0.9887,-9.8,0,0,0
-0.2819,-0.177,0.9172,-0.2846,0.7612,0.4122,-3.5875,1.3562,-9.5637,0,0,0
-0.285,-0.1753,0.9159,-0.2818,0.7606,0.4161,-3.5525,1.3562,-9.7562,0,0,0
-0.2855,-0.1769,0.9116,-0.2822,0.7601,0.4109,-3.57,0.9187,-10.0625,0,0,0
-0.2834,-0.175,0.9143,-0.2822,0.7601,0.4109,-3.7975,0.9713,-9.8,0,0,0
-0.2838,-0.175,0.9112,-0.2825,0.7593,0.411,-2.9838,1.26,-9.7562,0,0,0
-0.2853,-0.1767,0.9193,-0.2825,0.7593,0.411,-3.2725,1.4088,-9.94,0,0,0
-0.2804,-0.1773,0.9148,-0.2822,0.761,0.4097,-3.6663,1.0062,-10.2987,0,0,0
-0.2837,-0.1776,0.9134,-0.2833,0.7604,0.4124,-3.9725,1.19,-10.22,0,0,0
-0.2838,-0.1779,0.9145,-0.2833,0.7604,0.4124,-3.3425,1.3475,-10.4825,0,0,0
-0.2828,-0.176,0.9143,-0.2831,0.76,0.4127,-4.0425,1.68,-10.3687,0,0,0
-0.2857,-0.1784,0.9226,-0.2831,0.76,0.4127,-3.5613,1.3737,-9.94,0,0,0
-0.2816,-0.1772,0.9173,-0.2822,0.759,0.4149,-3.3163,0.7175,-9.9925,0,0,0
-0.2855,-0.1779,0.9126,-0.287,0.7618,0.4113,-3.0538,1.3562,-9.9488,0,0,0
-0.2841,-0.1746,0.9137,-0.287,0.7618,0.4113,-3.7013,1.1725,-9.7475,0,0,0
-0.2821,-0.1773,0.9159,-0.2824,0.7594,0.4118,-3.185,0.7175,-10.1412,0,0,0
-0.2862,-0.1771,0.9147,-0.2824,0.7594,0.4118,-2.975,1.2163,-10.22,0,0,0
-0.2866,-0.1759,0.9138,-0.2838,0.7593,0.4145,-3.7275,1.3825,-10.2375,0,0,0
-0.2836,-0.1785,0.9144,-0.2814,0.7605,0.4138,-3.9288,1.3125,-9.8437,0,0,0
-0.2816,-0.1768,0.9159,-0.2814,0.7605,0.4138,-4.165,1.1112,-9.9925,0,0,0
-0.2862,-0.1751,0.9151,-0.2862,0.7584,0.4112,-3.9025,1.2075,-10.3425,0,0,0
-0.2829,-0.176,0.914,-0.2862,0.7584,0.4112,-3.5875,1.3737,-10.3775,0,0,0
-0.286,-0.1762,0.9118,-0.2835,0.7602,0.4109,-3.0363,1.4088,-10.0187,0,0,0
-0.286,-0.1777,0.9192,-0.2825,0.7598,0.4118,-3.78,1.3387,-9.905,0,0,0
-0.2853,-0.178,0.921,-0.2825,0.7598,0.4118,-2.8087,1.1812,-10.9025,0,0,0
-0.2874,-0.179,0.9135,-0.281,0.761,0.4116,-2.9838,1.5137,-10.3162,0,0,0
-0.2855,-0.1738,0.9171,-0.281,0.761,0.4116,-3.2375,1.3037,-10.29,0,0,0
-0.2826,-0.1756,0.9147,-0.2854,0.7604,0.4172,-3.4038,0.9275,-9.9488,0,0,0
-0.2854,-0.1765,0.9138,-0.2855,0.7606,0.4121,-3.5175,1.05,-10.08,0,0,0
-0.2846,-0.1769,0.9148,-0.2855,0.7606,0.4121,-2.7388,1.6625,-9.9137,0,0,0
-0.2841,-0.1759,0.9138,-0.2832,0.7602,0.4119,-3.885,1.3387,-9.905,0,0,0
-0.2854,-0.1778,0.916,-0.2832,0.7602,0.4119,-4.3575,1.4262,-9.7825,0,0,0
-0.2851,-0.1766,0.9177,-0.2852,0.7602,0.4116,-2.7388,1.3125,-9.45,0,0,0
-0.2848,-0.177,0.9134,-0.2825,0.7597,0.4105,-3.4825,1.3737,-9.7125,0,0,0
-0.2821,-0.1782,0.9128,-0.2825,0.7597,0.4105,-3.5,1.4525,-9.7388,0,0,0
-0.2839,-0.1757,0.9107,-0.2854,0.7602,0.4123,-3.5875,1.47,-10.185,0,0,0
-0.2851,-0.1768,0.9168,-0.2854,0.7602,0.4123,-3.6925,1.4437,-10.4825,0,0,0
-0.2835,-0.1754,0.9172,-0.283,0.7588,0.4106,-2.695,0.945,-10.1062,0,0,0
-0.2827,-0.1762,0.9172,-0.2854,0.7608,0.4137,-3.5788,1.5837,-9.7475,0,0,0
-0.2841,-0.1768,0.9165,-0.2854,0.7608,0.4137,-2.8525,1.12,-9.38,0,0,0
-0.2838,-0.1777,0.9124,-0.2823,0.7606,0.4132,-3.1238,1.12,-9.94,0,0,0
-0.2846,-0.1763,0.9121,-0.2823,0.7606,0.4132,-3.15,1.1462,-10.2375,-10.91372442408959,-16.202170065643397,-103.0883951032757
-0.2835,-0.178,0.9162,-0.2862,0.7599,0.4074,-3.1588,1.4175,-10.3425,-10.994309299565543,-16.861902208760096,-103.63045081939535
-0.2841,-0.1787,0.9167,-0.2862,0.7595,0.4138,-3.3863,1.1638,-10.36,-11.030719895302436,-16.916444797697455,-103.49512724757628
-0.2849,-0.1763,0.9137,-0.283,0.7595,0.4138,-3.3163,0.9275,-10.0712,-10.921369107839952,-17.01747284800908,-103.2318638151839
-0.2847,-0.1768,0.9176,-0.2828,0.7594,0.4118,-3.4825,0.7962,-9.8175,-10.905942694835796,-16.947523225800712,-103.29072959091053
-0.2848,-0.1743,0.9141,-0.2828,0.7594,0.4118,-3.255,1.26,-10.1412,-10.795793745692523,-17.01329637211716,-103.24030387280878
-0.2844,-0.1768,0.914,-0.2821,0.762,0.4057,-4.1912,1.4525,-9.8087,-10.947461938267201,-16.98900901681346,-103.3415112577544
-0.284,-0.176,0.9205,-0.2821,0.762,0.4063,-3.4038,1.2337,-9.45,-10.824629536655026,-16.865205178622954,-103.35129866143086
-0.283,-0.1766,0.9108,-0.283,0.7598,0.4063,-3.8238,1.3912,-10.0275,-10.972875266456148,-16.95867692652669,-103.42514764980488
-0.2842,-0.1771,0.9135,-0.2834,0.7605,0.4126,-3.5525,1.1287,-10.1937,-10.971811004383328,-16.98271342225886,-103.29677827498959
-0.2829,-0.1769,0.9152,-0.2834,0.7605,0.4126,-2.7913,1.19,-10.3337,-10.939928019671903,-16.887677272197163,-103.3285911717703
-0.284,-0.1755,0.9154,-0.2834,0.7601,0.4156,-3.4125,1.225,-10.1237,-10.853229936309699,-16.943006538453385,-103.22624329663186
-0.2866,-0.1764,0.9134,-0.2834,0.7599,0.4126,-3.22,0.7,-10.045,-10.930471148425172,-17.11443032265084,-103.24196740607333
-0.2831,-0.1745,0.9151,-0.2827,0.7599,0.4126,-2.94,1.0237,-10.1675,-10.7964137546233,-16.91369456504017,-103.2542628760069
-0.2838,-0.1774,0.9166,-0.2822,0.7603,0.4113,-3.6575,1.4787,-9.7562,-10.953298577342855,-16.908571263890696,-103.27676554320799
-0.2836,-0.1765,0.9096,-0.2822,0.7603,0.4113,-4.0775,1.1462,-9.555,-10.98121737472351,-17.012773295317448,-103.24086080308263
-0.2831,-0.1757,0.9147,-0.281,0.7609,0.4105,-4.0075,1.4525,-9.9925,-10.87347122256987,-16.91160027465442,-103.19589650048191
-0.2836,-0.1767,0.9135,-0.281,0.7609,0.4105,-4.8038,1.575,-9.5637,-10.947449344105927,-16.94946702010665,-103.19410627078145
-0.2842,-0.1787,0.9116,-0.283,0.7591,0.4156,-3.7538,0.98,-10.1325,-11.090650746671798,-17.00783187936787,-103.2364033649499
-0.2841,-0.1782,0.9155,-0.2797,0.7607,0.4107,-2.8963,1.12,-10.08,-11.014944487602062,-16.944276321534936,-103.1281038611749
-0.2833,-0.1761,0.9132,-0.2797,0.7607,0.4107,-3.64,1.2512,-10.0012,-10.915084328285653,-16.94168975147203,-103.10712273818355
-0.2838,-0.177,0.9076,-0.2831,0.7606,0.4117,-2.7562,0.8575,-9.9925,-11.035017373737409,-17.056046056475566,-103.2797007929538
-0.2824,-0.1751,0.9129,-0.2831,0.7606,0.4117,-3.7538,1.05,-9.9225,-10.858246099810632,-16.906707665876677,-103.30512440069766
-0.2835,-0.1765,0.9139,-0.2819,0.7598,0.4165,-3.8238,1.1287,-9.66,-10.930690136352053,-16.93811925380361,-103.13401536499558
-0.283,-0.1772,0.9143,-0.2821,0.7581,0.4115,-2.905,1.05,-10.08,-10.968390806176044,-16.904283511633178,-103.29678319341264
-0.284,-0.179,0.9136,-0.2821,0.7581,0.4115,-2.87,1.0325,-9.8875,-11.08515479328262,-16.961814922418526,-103.2973536463694
-0.2851,-0.176,0.9133,-0.2836,0.7602,0.4083,-3.4913,1.225,-9.3887,-10.90805383264861,-17.03770316123016,-103.3715376853344
-0.2847,-0.177,0.9159,-0.2836,0.7602,0.4083,-3.1588,1.1987,-9.5637,-10.93765220398993,-16.975145183681043,-103.40409631833718
-0.2854,-0.1758,0.917,-0.2827,0.7606,0.4136,-2.9663,1.2163,-10.1325,-10.852818393370661,-16.995551166687257,-103.20042304597091
-0.2844,-0.177,0.9136,-0.2824,0.7582,0.4107,-2.8263,1.0325,-10.2287,-10.964325981631767,-16.993928624290586,-103.29656564957483
-0.2834,-0.1765,0.9171,-0.2824,0.7582,0.4107,-2.94,1.26,-10.2287,-10.893805421522341,-16.885935424863337,-103.3252657062908
-0.2822,-0.177,0.9127,-0.2822,0.7602,0.4093,-3.3513,1.2687,-9.7562,-10.97494784454714,-16.88504834191659,-103.33463654685828
-0.2836,-0.1767,0.9116,-0.2822,0.7602,0.4093,-3.5088,1.4525,-9.9225,-10.969903458299735,-16.978670473859157,-103.2964457823942
-0.2833,-0.1755,0.9121,-0.2839,0.7603,0.4085,-3.6663,1.1112,-10.0712,-10.89153915572597,-16.96288640112303,-103.41153577773305
-0.2811,-0.1771,0.9126,-0.2818,0.7602,0.4111,-2.9138,1.3125,-10.1937,-10.982149419716594,-16.831076923223144,-103.29490893964457
-0.2854,-0.1766,0.9109,-0.2818,0.7602,0.4111,-3.1238,1.435,-9.9925,-10.972078724815137,-17.084158114720793,-103.18929294407945
-0.2829,-0.1767,0.9155,-0.2839,0.7607,0.4109,-3.745,1.015,-9.4587,-10.924400767490617,-16.888381390325986,-103.39293460976651
-0.2833,-0.1758,0.9148,-0.2839,0.7607,0.4109,-3.4125,1.3475,-9.9663,-10.878203685499997,-16.91424785964465,-103.36960154053979
-0.2838,-0.1769,0.9152,-0.2835,0.7612,0.4134,-2.3712,1.3475,-11.0162,-10.939705208538705,-16.932490055700388,-103.29015779608075
-0.2826,-0.177,0.9155,-0.2816,0.7612,0.4109,-3.2725,1.505,-10.4562,-10.942380112345656,-16.864128949417605,-103.25306244603983
-0.2868,-0.1778,0.9117,-0.2816,0.7612,0.4109,-3.1412,1.5662,-10.1325,-11.035107467319994,-17.14395645168488,-103.15971971137604
-0.2821,-0.1771,0.9126,-0.2814,0.7606,0.4122,-3.7362,1.19,-10.08,-10.982491723360148,-16.893579360590724,-103.21968205186145
-0.2856,-0.1757,0.9135,-0.2814,0.7606,0.4122,-3.9113,1.435,-9.59,-10.8873831529402,-17.05875140884472,-103.12910274766476
-0.285,-0.1746,0.9152,-0.2831,0.76,0.4157,-3.3075,1.2425,-10.0887,-10.801188429737776,-17.010840240566694,-103.17131460758121
-0.2857,-0.1748,0.913,-0.2818,0.7588,0.4111,-3.0013,1.2687,-10.0887,-10.838413330113529,-17.08079347700736,-103.182374071392
-0.2839,-0.1744,0.9179,-0.2818,0.7588,0.4111,-3.3338,1.4437,-10.2812,-10.758098844629973,-16.910631085677405,-103.23571682845044
-0.2851,-0.1768,0.9124,-0.2843,0.7612,0.4115,-3.8675,1.3387,-9.6512,-10.96606069131602,-17.04718085022918,-103.34120608295498
-0.2841,-0.1769,0.9119,-0.2843,0.7612,0.4115,-3.325,1.3125,-9.8875,-10.97845136129859,-17.008046031818466,-103.36205692815449
-0.2832,-0.177,0.917,-0.2826,0.7582,0.4082,-3.4125,1.435,-9.5987,-10.925046027528323,-16.876059487659766,-103.40293664151255
-0.2861,-0.1804,0.9152,-0.2812,0.7606,0.4119,-3.465,1.0325,-9.7737,-11.150386295212241,-17.04268028209517,-103.18436421478312
-0.2841,-0.1751,0.9165,-0.2812,0.7606,0.4119,-3.1675,1.2425,-9.8612,-10.816978410180806,-16.939575203717396,-103.15914773352125
-0.2858,-0.1767,0.9134,-0.2832,0.7598,0.4103,-3.7013,1.2775,-9.9225,-10.948481763741102,-17.070279910111264,-103.30223039553681
-0.2841,-0.1753,0.915,-0.2832,0.7598,0.4103,-3.6138,1.68,-9.4675,-10.845820188793482,-16.96444151393522,-103.32595820540072
-0.2837,-0.1742,0.917,-0.2816,0.7594,0.4097,-3.2025,1.8637,-9.6337,-10.756371705372292,-16.90920810304215,-103.24458991731046
-0.2835,-0.1751,0.9124,-0.2806,0.7598,0.4101,-3.7013,1.33,-9.415,-10.863375646034893,-16.966620514058214,-103.16610723327842
-0.2851,-0.175,0.9166,-0.2806,0.7598,0.4101,-3.64,0.7437,-9.7912,-10.809128312015135,-16.988004261564598,-103.1473267753853
-0.2847,-0.1792,0.9189,-0.2823,0.759,0.4112,-3.5613,0.9975,-9.415,-11.034540823258423,-16.91799064816687,-103.31459566409723
-0.2834,-0.179,0.9126,-0.2823,0.759,0.4112,-3.5175,1.505,-9.6687,-11.097129663035906,-16.946320903916163,-103.31492946629454
-0.2833,-0.1759,0.9153,-0.2796,0.7607,0.4144,-3.745,1.3387,-9.6512,-10.87885180579661,-16.908804448365007,-103.0263608100705
-0.2835,-0.177,0.9165,-0.2827,0.7591,0.4137,-3.29,1.0675,-9.8262,-10.930611207106853,-16.89511887294936,-103.2704050689748
-0.2828,-0.1746,0.9151,-0.2827,0.7591,0.4137,-3.5,1.0325,-10.255,-10.80244144791847,-16.886684727497602,-103.24757683859458
-0.2858,-0.1798,0.9113,-0.2829,0.7598,0.4111,-3.9463,1.33,-9.9225,-11.160281023947125,-17.091801519595542,-103.30052391510135
-0.2901,-0.1828,0.931,-0.2829,0.7598,0.4111,-3.5613,0.84,-9.9225,-11.108719610469675,-17.005983699327107,-103.32759945952466
-0.2705,-0.1762,0.9359,-0.283,0.7614,0.4045,-3.255,0.7875,-9.905,-10.663221632553363,-15.911581226076484,-103.79546070752214
-0.2804,-0.1768,0.8882,-0.2822,0.7602,0.4098,-3.1763,1.8725,-10.1237,-11.256403059788125,-17.138264635120287,-103.2635540075293
-0.3079,-0.1754,0.9048,-0.2822,0.7602,0.4098,-2.9225,1.2775,-10.3075,-10.97167472828992,-18.40775590042848,-102.71776549868677
-0.2708,-0.1787,0.9213,-0.28,0.7609,0.4116,-3.465,1.4262,-9.73,-10.977058954883345,-16.210045359513742,-103.43482351134341
-0.2892,-0.1869,0.8985,-0.28,0.7609,0.4116,-3.5613,1.6887,-10.4212,-11.748870937653699,-17.426747284938408,-103.07737961368187
-0.2898,-0.1661,0.9173,-0.2822,0.7609,0.4096,-3.745,1.9775,-10.0975,-10.2671622998842,-17.277015590360925,-103.02469422479982
-0.2863,-0.1832,0.9157,-0.2838,0.7603,0.4121,-3.955,1.54,-9.6162,-11.311043023561309,-17.056129726283785,-103.38252781785638
-0.2733,-0.1974,0.914,-0.2838,0.7603,0.4121,-2.8525,0.805,-10.5087,-12.185108611743193,-16.32903258393449,-103.83333508991949
-0.3015,-0.1624,0.9134,-0.2818,0.7604,0.4116,-2.8438,1.4525,-10.0712,-10.086689649044486,-17.920671966657896,-102.63050236371299
-0.2805,-0.1887,0.9179,-0.2818,0.7604,0.4116,-3.0363,1.5137,-10.4387,-11.613254339198686,-16.726376554212614,-103.4695232395742
-0.2656,-0.1733,0.9105,-0.284,0.7609,0.4078,-2.6513,1.435,-9.835,-10.778482585228849,-16.026765561242534,-103.76812208673695
-0.2915,-0.1637,0.9014,-0.2818,0.7592,0.4106,-3.3425,1.8025,-10.185,-10.29425719576392,-17.568323342372153,-102.85370668086544
-0.3024,-0.1848,0.9106,-0.2818,0.7592,0.4106,-2.8,1.26,-10.5875,-11.469177450742563,-18.005173472851727,-102.96930696412944
-0.277,-0.1787,0.9138,-0.2831,0.7601,0.4122,-3.6925,1.3737,-10.185,-11.065916149800001,-16.63836031925388,-103.46721857922351
-0.3034,-0.183,0.9044,-0.2831,0.7601,0.4122,-4.025,1.2862,-10.4038,-11.438123919750709,-18.124504885717016,-102.93179022125851
-0.289,-0.1726,0.9144,-0.2832,0.7595,0.413,-3.64,1.6013,-10.0187,-10.691037775801362,-17.29667759761402,-103.12428026384697
-0.2686,-0.1752,0.9187,-0.2829,0.7594,0.4154,-3.2987,1.2862,-9.835,-10.796654567780884,-16.08624795221734,-103.5502763047189
-0.2866,-0.1818,0.9148,-0.2829,0.7594,0.4154,-3.8588,1.9425,-9.8875,-11.238997862177483,-17.03083211480696,-103.23543464217138
-0.2824,-0.1723,0.9149,-0.2834,0.7586,0.4113,-3.64,1.68,-10.1937,-10.666769235532058,-16.88223511844694,-103.32646729949516
-0.2743,-0.1851,0.9202,-0.2834,0.7586,0.4113,-3.6225,1.1987,-10.535,-11.371693897258762,-16.31909513604943,-103.68735074305927
-0.2854,-0.1756,0.913,-0.2815,0.7598,0.4085,-3.5788,1.6712,-9.2312,-10.888080420813253,-17.02757325229596,-103.22692064585328
-0.2919,-0.1739,0.9137,-0.2812,0.7606,0.4112,-3.43,1.295,-9.9575,-10.77620872344013,-17.404308982381842,-102.97855256293172
-0.2783,-0.187,0.9147,-0.2812,0.7606,0.4112,-3.7013,1.3212,-10.2637,-11.55239776747992,-16.638273910494423,-103.44976875927975
-0.2901,-0.1699,0.9167,-0.2834,0.7603,0.4108,-3.9638,1.3387,-9.4675,-10.502495431232404,-17.252364103054077,-103.12497308483438
-0.2923,-0.1789,0.9131,-0.2834,0.7603,0.4108,-2.6425,1.225,-9.7212,-11.083922913520913,-17.430697460853644,-103.18925099366135
-0.2749,-0.1752,0.9099,-0.2826,0.7592,0.4147,-3.115,1.4262,-10.255,-10.89928012633629,-16.568950275950712,-103.37681181735451
-0.2797,-0.1731,0.912,-0.2826,0.7617,0.4132,-2.8875,1.61,-9.7912,-10.7474149904409,-16.758107781068983,-103.25611774282883
-0.2922,-0.177,0.9137,-0.2838,0.7617,0.4132,-3.6575,1.3212,-9.8262,-10.962905733262817,-17.39723946635442,-103.12268868332708
-0.2835,-0.1763,0.9132,-0.2843,0.7589,0.4114,-3.71,1.1812,-9.835,-10.927029229014552,-16.97392091410249,-103.40081897628455
-0.2893,-0.1822,0.9188,-0.2843,0.7589,0.4114,-3.15,0.945,-9.73,-11.215673229524409,-17.154314042145263,-103.38091476203039
-0.288,-0.1741,0.9163,-0.283,0.7602,0.4146,-4.0513,1.3912,-10.01,-10.759241173916651,-17.159539453569373,-103.1194975086764
-0.2825,-0.1769,0.9157,-0.283,0.7602,0.4146,-3.9113,1.6275,-10.0887,-10.933605004959084,-16.867269340947594,-103.27402396037195
-0.2813,-0.1835,0.9137,-0.2826,0.7607,0.4129,-4.1388,1.365,-9.9312,-11.354741076330875,-16.799537499189835,-103.38697072795003
-0.2879,-0.1722,0.9154,-0.2834,0.7596,0.4123,-3.4913,1.3562,-10.0187,-10.655335833256474,-17.15711756280777,-103.17423752746389
-0.2821,-0.1809,0.9161,-0.2834,0.7596,0.4123,-2.59,1.0412,-10.71,-11.169119351021775,-16.826536152674873,-103.4200319639619
-0.2812,-0.1776,0.9165,-0.2863,0.7591,0.4062,-2.6425,0.77,-9.7388,-10.967372823203739,-16.766180827787526,-103.71697632929967
-0.2883,-0.1756,0.9183,-0.2863,0.7591,0.4062,-3.0888,0.665,-9.87,-10.825916244949076,-17.120092703746497,-103.54751596909722
-0.2848,-0.1796,0.9136,-0.2834,0.7589,0.4103,-3.1588,0.8138,-10.2637,-11.120961577210888,-17.013180100217923,-103.38760645940064
-0.2818,-0.1773,0.9141,-0.2825,0.7598,0.4121,-3.255,1.0237,-10.4387,-10.977206924722287,-16.846465953485286,-103.3156323367802
-0.2871,-0.1771,0.9116,-0.2825,0.7598,0.4121,-3.3688,1.0937,-9.9488,-10.994079437954259,-17.16334558351997,-103.18930500663313
-0.281,-0.1754,0.9178,-0.2835,0.7597,0.411,-3.08,0.875,-9.8175,-10.81970793493616,-16.757825991251,-103.40975715131661
-0.281,-0.1767,0.9139,-0.2835,0.7597,0.411,-3.8325,1.0237,-9.7562,-10.942656639176702,-16.796195688078583,-103.4117842987969
-0.2861,-0.1767,0.9107,-0.2829,0.7602,0.4104,-3.7975,0.7788,-9.6075,-10.980378741372105,-17.123425962085864,-103.25956025220867
-0.2896,-0.1752,0.9178,-0.2871,0.7604,0.4108,-3.535,1.47,-9.3187,-10.807658429757975,-17.215531820435135,-103.44528456487228
-0.2857,-0.18,0.9143,-0.2871,0.7604,0.4108,-3.395,1.4175,-9.4062,-11.136710241215724,-17.05366166328105,-103.58035467822975
-0.2872,-0.175,0.9112,-0.2855,0.7597,0.4113,-3.5263,1.2775,-10.1325,-10.872165964870423,-17.191833920458823,-103.36387094553393
-0.2868,-0.174,0.9138,-0.2855,0.7597,0.4113,-3.4738,1.3037,-9.9137,-10.78105825590122,-17.13807602945015,-103.36922938479623
-0.2826,-0.18,0.9143,-0.2822,0.7578,0.414,-3.8413,1.365,-9.8787,-11.13664588650454,-16.884026823017138,-103.29895741808784
-0.284,-0.1768,0.9135,-0.2804,0.7591,0.4118,-3.535,1.0325,-10.01,-10.954109188519006,-16.969313584926518,-103.14158277033212
-0.2859,-0.176,0.9113,-0.2804,0.7591,0.4118,-3.5088,1.0237,-10.5175,-10.931048007979056,-17.113349635034236,-103.08071037435406
-0.2794,-0.1775,0.9154,-0.2814,0.7589,0.412,-3.22,1.3037,-10.0012,-10.973615804771269,-16.701632857382847,-103.31783455155201
-0.283,-0.1774,0.9142,-0.2814,0.7589,0.412,-3.7538,1.5137,-10.3075,-10.981712408395206,-16.893557664611826,-103.23499001214618
-0.2851,-0.1785,0.9124,-0.2839,0.7604,0.4124,-3.29,0.9713,-10.5175,-11.069204546869894,-17.041138109374746,-103.32911536277638
-0.2824,-0.1767,0.9165,-0.2839,0.7593,0.4118,-3.1588,1.1987,-9.7737,-10.913026637609713,-16.84369876130359,-103.40470375771008
-0.286,-0.1787,0.9182,-0.2839,0.7593,0.4118,-2.8788,1.7413,-9.73,-11.012988915343886,-16.992738353054374,-103.36178785571651
-0.2855,-0.1751,0.9146,-0.2832,0.7582,0.4114,-3.0625,1.4875,-10.0187,-10.838536457310745,-17.042430969083522,-103.28622097654541
-0.2845,-0.1771,0.919,-0.2832,0.7582,0.4114,-3.045,1.3212,-10.2637,-10.907559519124353,-16.91495308571981,-103.3526803858321
-0.2839,-0.1796,0.919,-0.2866,0.7625,0.4196,-3.2462,1.7325,-10.22,-11.057572999104961,-16.869058042285825,-103.38469659004132
-0.2855,-0.1743,0.9147,-0.2813,0.7601,0.4118,-3.64,1.2163,-9.8437,-10.789257277236835,-17.03726382140522,-103.12515815960768
-0.2874,-0.1776,0.9173,-0.2813,0.7601,0.4118,-3.465,1.33,-10.71,-10.957156920740067,-17.09484415050786,-103.140252914166
-0.284,-0.1751,0.9176,-0.2838,0.7586,0.4108,-3.4913,1.4787,-10.1325,-10.803887335609552,-16.919334905474482,-103.37679512267549
-0.283,-0.176,0.9155,-0.2838,0.7586,0.4108,-3.185,1.0937,-9.9225,-10.88185882306357,-16.88790685477995,-103.40211495704868
-0.2818,-0.1771,0.9142,-0.2829,0.7606,0.4122,-3.115,1.0412,-10.2462,-10.96341615937757,-16.839419449172016,-103.32701213366147
-0.2803,-0.1748,0.9129,-0.2836,0.758,0.4105,-3.0275,1.3912,-10.3162,-10.839956315157005,-16.784333140738266,-103.43443970194767
-0.2868,-0.1778,0.9165,-0.2836,0.758,0.4105,-3.605,1.19,-9.8787,-10.978609800508565,-17.062764039696848,-103.35046252739812
-0.2816,-0.1759,0.9188,-0.2843,0.7595,0.4122,-3.2813,1.3475,-9.7825,-10.838209294820935,-16.76810743752097,-103.43460488783246
-0.2832,-0.1782,0.9173,-0.2843,0.7595,0.4122,-2.8788,1.2163,-10.1937,-10.99330636341694,-16.85578047681045,-103.42520373201917
-0.2866,-0.1787,0.91,-0.2799,0.7585,0.4097,-2.8875,1.3912,-9.835,-11.109731307872195,-17.157705425780517,-103.12019447104382
-0.2867,-0.1755,0.916,-0.2818,0.7604,0.4099,-2.765,1.5137,-10.2375,-10.846710269572716,-17.090920919644137,-103.19061644069976
-0.2827,-0.1771,0.9148,-0.2818,0.7604,0.4099,-3.535,1.0937,-10.5175,-10.956332096595885,-16.887971474601496,-103.29297744480317
-0.2869,-0.1757,0.9187,-0.2838,0.7592,0.4123,-2.87,1.0412,-9.695,-10.827300945334219,-17.044372673927896,-103.28748803293468
-0.284,-0.1764,0.9158,-0.2838,0.7592,0.4123,-2.8788,1.1725,-10.5875,-10.902517976104255,-16.941497689736497,-103.34750315524751
-0.2832,-0.1766,0.9128,-0.283,0.7613,0.4063,-3.2113,0.9275,-10.08,-10.949656179619137,-16.941057119471726,-103.41109033432339
-0.2857,-0.1765,0.914,-0.2838,0.7603,0.4127,-3.3513,0.9363,-9.7212,-10.929743997474947,-17.05604589305061,-103.28363875005839
-0.2835,-0.1772,0.9132,-0.2838,0.7603,0.4127,-3.01,1.3562,-9.8087,-10.981248949369412,-16.954504233236364,-103.33708641438538
-0.284,-0.1763,0.9157,-0.2832,0.7603,0.4119,-3.1412,1.33,-9.8962,-10.898025284527126,-16.939022843098293,-103.30389621061963
-0.2835,-0.1766,0.9126,-0.2832,0.7603,0.4119,-3.0713,1.47,-9.94,-10.951981592220163,-16.960222901640243,-103.30621126221119
-0.2817,-0.1778,0.914,-0.2842,0.7608,0.4106,-3.4913,1.0587,-9.6162,-11.008104575331059,-16.838591212349534,-103.45168415078041
-0.2835,-0.1765,0.9112,-0.2836,0.7602,0.4106,-2.9488,1.505,-9.7125,-10.96257819650864,-16.978045210357234,-103.35402851148801
-0.2841,-0.177,0.915,-0.2836,0.7602,0.4106,-3.3075,1.6975,-10.3687,-10.948255737110166,-16.9545879062058,-103.3631172455273
-0.2857,-0.1757,0.9127,-0.2849,0.7593,0.4114,-3.22,1.1987,-10.1237,-10.896593410806847,-17.080112521328072,-103.37657876502367
-0.2842,-0.1755,0.919,-0.2849,0.7593,0.4114,-2.9663,1.3475,-9.59,-10.811714735122736,-16.9057112551493,-103.43179011645282
-0.2826,-0.1781,0.9172,-0.2838,0.7602,0.4061,-2.9838,1.2425,-9.4325,-10.988404385904683,-16.83236206381678,-103.52873899907395
-0.2836,-0.1773,0.9104,-0.2822,0.7614,0.4102,-3.4563,1.1375,-10.1325,-11.02030857889712,-16.993634336637008,-103.26665911699916
-0.2837,-0.1757,0.9151,-0.2822,0.7614,0.4102,-3.8238,1.2775,-9.695,-10.868935948246339,-16.936336636784635,-103.2609403431919
-0.2854,-0.1762,0.9131,-0.2839,0.7587,0.4131,-3.01,1.0675,-9.7212,-10.9219351857092,-17.055172168752414,-103.29825280711243
-0.2845,-0.1754,0.9201,-0.2839,0.7587,0.4131,-2.5113,1.085,-10.0012,-10.793189241536785,-16.903183351183998,-103.3355559334254
-0.2863,-0.1771,0.9201,-0.283,0.7607,0.4116,-3.0975,1.155,-10.2637,-10.894753582681556,-16.986430532561364,-103.27263677020633
-0.2845,-0.1781,0.9151,-0.2819,0.7596,0.4132,-3.8238,1.8288,-9.9663,-11.013144654837644,-16.97136754844583,-103.2132794097262
-0.2829,-0.1755,0.9172,-0.2819,0.7596,0.4132,-3.1412,1.3475,-9.5462,-10.832659298174146,-16.859600195826964,-103.22070828235452
-0.283,-0.1764,0.912,-0.2833,0.7604,0.4113,-3.0713,0.98,-9.625,-10.946757590164221,-16.939825095195914,-103.32988975848356
-0.2847,-0.1767,0.9091,-0.2833,0.7604,0.4113,-4.3663,1.085,-9.5375,-10.999197848161288,-17.08093963641267,-103.28609467199884
-0.2827,-0.1779,0.9179,-0.2822,0.7598,0.4142,-3.6575,1.3212,-9.8612,-10.968691349657115,-16.83585313580368,-103.25515125761876
-0.2839,-0.176,0.9149,-0.2848,0.7592,0.4125,-2.9225,1.1987,-9.87,-10.889200998903036,-16.941594072388686,-103.39912452252823
-0.2864,-0.1765,0.9096,-0.2848,0.7592,0.4125,-3.325,0.9275,-9.975,-10.981064630044159,-17.164968232214633,-103.33062690545884
-0.2844,-0.1778,0.9162,-0.2838,0.7604,0.4112,-3.7188,1.26,-9.8612,-10.982445721406409,-16.958091198025365,-103.36953010599247
-0.2849,-0.1764,0.9143,-0.2838,0.7604,0.4112,-3.2025,1.3212,-10.1937,-10.920303373441088,-17.009463070666214,-103.33221087595264
-0.2851,-0.1765,0.912,-0.2825,0.76,0.4104,-2.4763,1.015,-10.115,-10.953007908738776,-17.05948134984044,-103.26043699638099
-0.2851,-0.1757,0.9101,-0.2825,0.759,0.4097,-3.2025,1.2163,-9.9925,-10.926913364613108,-17.095162807742433,-103.26857249936776
-0.283,-0.1757,0.9151,-0.2828,0.759,0.4097,-3.8325,0.98,-9.3975,-10.868712950011192,-16.903712566005563,-103.35253743799312
-0.2844,-0.1778,0.9093,-0.286,0.7605,0.411,-4.0425,1.3387,-9.9225,-11.063271963244983,-17.05623551899835,-103.48343051000083
-0.2834,-0.179,0.9115,-0.286,0.7605,0.411,-3.36,1.0587,-10.3425,-11.110226310279886,-16.97072762323124,-103.5300136636861
-0.2825,-0.1771,0.91,-0.2835,0.7613,0.4126,-3.4213,0.84,-10.0625,-11.013209865400844,-16.948290164042714,-103.31632032273272
-0.2835,-0.1762,0.9081,-0.2835,0.7613,0.4126,-3.9025,1.1112,-9.8087,-10.980818305355257,-17.03455104046314,-103.27462427751976
-0.2842,-0.1751,0.9157,-0.281,0.7589,0.4097,-3.3338,1.0062,-10.465,-10.825778664654342,-16.957275061585317,-103.2087781981438
-0.2848,-0.1756,0.912,-0.2841,0.7597,0.4118,-3.815,1.1462,-10.99,-10.898401486328895,-17.04363761159924,-103.32781435507599
-0.2832,-0.178,0.9149,-0.2841,0.7597,0.4118,-2.7125,1.2425,-10.4737,-11.009477562010831,-16.908114728412617,-103.40664064698521
-0.284,-0.1759,0.91,-0.2838,0.7609,0.4138,-3.2725,1.1287,-9.6775,-10.940327556241556,-17.029676148269523,-103.26474225499568
-0.2847,-0.1762,0.9161,-0.2838,0.7609,0.4138,-3.4825,1.2687,-9.6162,-10.887277715407201,-16.97402968937878,-103.27846928769034
-0.2827,-0.1779,0.9147,-0.2838,0.7613,0.409,-2.9575,1.5662,-10.3512,-11.005772677122508,-16.88151586843316,-103.4382364132537
-0.2873,-0.1768,0.9127,-0.2816,0.7591,0.4121,-3.22,1.2862,-10.22,-10.96314306818876,-17.158698071099668,-103.13675278843336
-0.2841,-0.1723,0.9124,-0.2816,0.7591,0.4121,-3.0275,1.3825,-10.29,-10.694592170722386,-17.019686154734934,-103.14208916556417
-0.2832,-0.1745,0.9182,-0.2838,0.7603,0.4123,-3.2375,1.7325,-10.0275,-10.7603394162451,-16.865293121564704,-103.33579096587877
-0.2843,-0.1753,0.9101,-0.2838,0.7603,0.4123,-4.2175,1.6187,-9.4062,-10.902231726491756,-17.043747293111153,-103.29004990559883
-0.2859,-0.1769,0.9097,-0.2834,0.7592,0.4121,-3.4038,1.7587,-9.9663,-11.004140081104486,-17.139936945796315,-103.26805979802332
-0.2813,-0.1776,0.9155,-0.2833,0.7604,0.4113,-3.3338,1.4,-9.6075,-10.978640492802604,-16.80293667718157,-103.39636857870637
-0.2833,-0.1785,0.9151,-0.2833,0.7604,0.4113,-3.395,1.4088,-9.6075,-11.03741607795261,-16.896886151537068,-103.36455282356603
-0.2851,-0.1763,0.919,-0.2838,0.7599,0.4118,-3.22,1.5137,-9.7388,-10.86004985626906,-16.942188182210142,-103.33827918088394
-0.2848,-0.1768,0.9199,-0.2838,0.7599,0.4118,-3.1588,1.715,-9.5288,-10.87924369374087,-16.912638982590618,-103.35504563069802
-0.2818,-0.1774,0.9175,-0.2815,0.759,0.4126,-3.57,1.085,-9.415,-10.943036110003979,-16.787296621252697,-103.26596221008862
-0.2874,-0.177,0.9129,-0.2842,0.76,0.4131,-3.2375,1.365,-9.8175,-10.972724787082022,-17.155471967412822,-103.26922266781347
-0.2812,-0.1781,0.9125,-0.2842,0.76,0.4131,-3.8937,1.2075,-9.4237,-11.04386795758222,-16.844323774289567,-103.41572462675256
-0.2838,-0.1762,0.9145,-0.2828,0.759,0.4119,-2.835,1.505,-10.815,-10.906071560130421,-16.94236888877068,-103.29202103457715
-0.2852,-0.176,0.914,-0.2828,0.759,0.4119,-2.2313,1.5137,-10.5175,-10.899492371228247,-17.030761991300107,-103.25705060690902
-0.2828,-0.1766,0.9148,-0.28,0.7608,0.4126,-3.5088,1.2687,-9.4675,-10.926342267505913,-16.892005853472646,-103.10765391203658
-0.2857,-0.1773,0.9129,-0.2831,0.7599,0.4117,-3.4125,1.3562,-10.0625,-10.990787080692872,-17.068751307605034,-103.27246191203268
-0.2852,-0.1772,0.9127,-0.2831,0.7599,0.4117,-3.9463,1.1375,-9.8437,-10.987249960410587,-17.054223251183817,-103.28113493329676
-0.2856,-0.1762,0.9155,-0.2857,0.7594,0.4119,-3.6925,1.3125,-9.7912,-10.894337695575976,-17.032946516531485,-103.43510244059121
-0.2829,-0.176,0.9181,-0.2857,0.7594,0.4119,-3.0538,1.2075,-10.2287,-10.852061646479862,-16.8467522370477,-103.50108870205433
-0.2829,-0.1767,0.9104,-0.2822,0.7586,0.4178,-2.205,1.015,-10.325,-10.983685558656568,-16.958622675018745,-103.13993148270903
-0.2849,-0.1779,0.9169,-0.2838,0.7589,0.4118,-3.08,1.5225,-10.3775,-10.980298571154906,-16.963170013476322,-103.36728711202677
-0.2843,-0.1786,0.915,-0.2838,0.7589,0.4118,-3.4213,1.4525,-9.7475,-11.04461163057612,-16.959553380395544,-103.38226415360107
-0.2861,-0.1771,0.9187,-0.2815,0.7598,0.4106,-3.6925,1.4787,-9.8,-10.911519279088118,-17.00086959792268,-103.20917861590243
-0.2841,-0.1764,0.9143,-0.2815,0.7598,0.4106,-3.255,1.3212,-9.9925,-10.920134269612138,-16.968759280908284,-103.22449631698093
-0.2861,-0.1754,0.9124,-0.2826,0.7617,0.4114,-3.22,1.0762,-10.3075,-10.88189180755926,-17.10806580564534,-103.19010945496906
-0.2848,-0.1768,0.9106,-0.2828,0.7633,0.4115,-2.9838,1.1025,-10.3162,-10.987457038528005,-17.0698701956744,-103.22210662263758
-0.2826,-0.1764,0.9201,-0.2828,0.7633,0.4115,-3.8413,1.1025,-9.8262,-10.853278835760383,-16.799599098468715,-103.30110587939971
-0.2833,-0.1772,0.9116,-0.2834,0.7614,0.4117,-3.22,1.2425,-10.5,-10.999826007219038,-16.956870090480663,-103.31886123309154
-0.2816,-0.1776,0.9093,-0.2834,0.7614,0.4117,-3.0625,1.6538,-10.64,-11.051475886203495,-16.90894020121029,-103.35155355917153
-0.2838,-0.1769,0.9118,-0.2822,0.759,0.4114,-3.2987,1.12,-10.3687,-10.979827038463858,-16.986805134327852,-103.26379239407117
-0.2848,-0.178,0.9118,-0.283,0.759,0.4116,-3.6488,1.1725,-9.6425,-11.04609666978827,-17.040791054098413,-103.30342965499233
-0.2828,-0.1779,0.9193,-0.283,0.759,0.4116,-2.8263,1.085,-9.975,-10.952541904358862,-16.81692116249524,-103.37456882196753
-0.2849,-0.1782,0.9147,-0.2834,0.7604,0.412,-2.8963,1.155,-10.0187,-11.02399070755764,-16.99056574211478,-103.31586752279392
-0.2904,-0.1749,0.909,-0.2834,0.7604,0.412,-3.2987,1.4787,-10.1237,-10.89145457358716,-17.396393174891564,-103.12848046516066
-0.2848,-0.1774,0.9178,-0.283,0.7605,0.4071,-3.115,1.5137,-9.8262,-10.939583034446391,-16.96675951490643,-103.39955364184716
-0.283,-0.1781,0.9145,-0.2849,0.7595,0.4126,-3.43,1.3475,-9.6775,-11.020284064404507,-16.899734051189107,-103.44598642224855
-0.2843,-0.1773,0.9122,-0.2849,0.7595,0.4126,-3.395,1.3387,-9.9225,-10.999220096782977,-17.00543276065016,-103.39806523437541
-0.2837,-0.1758,0.9126,-0.283,0.7606,0.4122,-3.7888,1.3475,-10.045,-10.903917217398543,-16.976704715428657,-103.26847099195471
-0.2834,-0.1774,0.9148,-0.283,0.7606,0.4122,-3.4825,1.5662,-9.3187,-10.974535135019648,-16.91904594160051,-103.30543356998076
-0.2832,-0.1777,0.9158,-0.282,0.7609,0.4141,-3.4213,1.3212,-9.5288,-10.9810843027725,-16.888590802237996,-103.21026082945508
-0.2849,-0.1773,0.9143,-0.2818,0.7598,0.4098,-3.535,0.735,-9.625,-10.974536142163615,-17.003413738959246,-103.25615483449492
-0.2819,-0.1766,0.9155,-0.2818,0.7598,0.4098,-3.6837,1.54,-9.0475,-10.918387250869777,-16.831445406697707,-103.31519120467648
-0.2865,-0.1758,0.9137,-0.2823,0.7595,0.4116,-3.36,1.3825,-9.87,-10.890941938464373,-17.10030870988943,-103.19446547229751
-0.2858,-0.1764,0.9111,-0.2823,0.7595,0.4116,-3.5175,1.1025,-9.9137,-10.957423218632798,-17.116321398419647,-103.20716069017074
-0.2799,-0.1771,0.9226,-0.2821,0.7603,0.4049,-3.6312,1.1987,-9.8262,-10.866395223613859,-16.616696191790343,-103.50993906226886
-0.2846,-0.1759,0.9112,-0.2835,0.7589,0.412,-3.43,1.435,-10.2287,-10.925959229606237,-17.027987115393262,-103.30046096702128
-0.2878,-0.1753,0.9153,-0.2835,0.7589,0.412,-3.045,1.015,-10.675,-10.842303956090419,-17.155232561397522,-103.23980387211859
-0.2832,-0.1762,0.9193,-0.2802,0.7602,0.4118,-2.8525,0.8838,-10.3162,-10.850136025242774,-16.84885869673955,-103.14840842219435
-0.284,-0.1771,0.9107,-0.2802,0.7602,0.4118,-3.1937,1.155,-10.01,-11.004351060456395,-17.01170947155955,-103.10925963403531
-0.2846,-0.1767,0.909,-0.2801,0.7603,0.4094,-2.8788,1.3125,-10.5525,-11.000513218335822,-17.080639969317666,-103.12918952065439
-0.2859,-0.1757,0.9156,-0.2826,0.7601,0.4099,-3.4388,0.9713,-10.3863,-10.863108240742873,-17.050181446749903,-103.26266607050567
-0.2829,-0.1781,0.9141,-0.2826,0.7601,0.4099,-3.4825,1.12,-9.6075,-11.02479466472625,-16.90479053968031,-103.35347406614413
-0.2829,-0.1762,0.9177,-0.2831,0.7599,0.4121,-3.43,1.4612,-9.6687,-10.868994229350347,-16.846263222327096,-103.32820753506545
-0.283,-0.1776,0.9163,-0.2831,0.7599,0.4121,-3.2987,1.2862,-10.4737,-10.96898796676718,-16.86666765892244,-103.3393158305011
-0.2838,-0.1748,0.9149,-0.2846,0.7593,0.4119,-3.9988,1.19,-10.185,-10.816889329481782,-16.941434640525124,-103.3843973012819
-0.2821,-0.1776,0.9136,-0.282,0.7596,0.4114,-3.255,1.82,-9.9137,-11.000416408173574,-16.866280422580452,-103.29733760027237
-0.2851,-0.1767,0.9143,-0.282,0.7596,0.4114,-2.695,0.7788,-9.9137,-10.938426918613688,-17.014914052550363,-103.22365255167435
-0.284,-0.1773,0.913,-0.2842,0.7606,0.4123,-3.15,1.3037,-9.4062,-10.98964426934582,-16.982159622881703,-103.3572298561268
-0.2846,-0.1752,0.9122,-0.2842,0.7606,0.4123,-3.2462,1.26,-9.7737,-10.872295038095608,-17.03212180731797,-103.31245566967328
-0.2844,-0.1759,0.9152,-0.2827,0.76,0.4074,-2.9575,1.5487,-10.22,-10.879472592595889,-16.97349700796442,-103.35796942424581
-0.2856,-0.1787,0.9137,-0.2827,0.7625,0.4132,-3.0188,1.2075,-9.94,-11.065687554222148,-17.05015002793859,-103.20961193652057
-0.2824,-0.1774,0.9185,-0.2816,0.7625,0.4132,-3.4563,1.3912,-9.835,-10.931881660260371,-16.81039986437901,-103.20980404953106
-0.2841,-0.1774,0.9107,-0.2832,0.7606,0.4122,-3.5438,1.54,-10.0012,-11.022687736099728,-17.01406140186383,-103.28663617743597
-0.2866,-0.1753,0.9157,-0.2832,0.7606,0.4122,-3.8325,1.4787,-9.7212,-10.837922425291646,-17.083908502618222,-103.2243457351942
-0.281,-0.1757,0.9158,-0.2823,0.7589,0.4095,-3.7713,1.6975,-10.08,-10.860409977665055,-16.785394189685896,-103.37199698300012
-0.2819,-0.1773,0.9146,-0.2823,0.7589,0.4111,-2.7388,1.0762,-10.395,-10.970744669574156,-16.832814489276977,-103.33504664338152
-0.2857,-0.1773,0.917,-0.2807,0.7608,0.4111,-3.01,1.4088,-10.2025,-10.943054625293291,-16.99988615075707,-103.14086866570776
-0.2851,-0.1747,0.9128,-0.2827,0.7593,0.4116,-3.6488,1.3562,-9.9225,-10.835024214038436,-17.05164379363528,-103.23306947145868
-0.2851,-0.1768,0.9163,-0.2827,0.7593,0.4116,-3.9463,1.2425,-10.0625,-10.92080139211983,-16.991415017898348,-103.27617378210357
-0.2866,-0.1753,0.9147,-0.2847,0.7598,0.406,-2.8,1.3037,-10.815,-10.8492181987479,-17.09896139511801,-103.45996979793394
-0.2863,-0.1755,0.916,-0.2847,0.7598,0.4126,-3.0363,1.47,-10.6138,-10.846089812012309,-17.066661049730175,-103.32980913168983
-0.2833,-0.1763,0.9141,-0.2829,0.7613,0.4126,-3.7362,0.805,-10.2637,-10.916275637900759,-16.932503948082264,-103.26677143600749
-0.2831,-0.1776,0.91,-0.2858,0.7597,0.4114,-3.605,1.0937,-10.0887,-11.04300395776985,-16.977148938860854,-103.49929792068092
-0.2854,-0.1773,0.915,-0.2858,0.7597,0.4114,-3.7625,1.015,-9.415,-10.966511347733961,-17.02312580084774,-103.46626314788354
-0.2818,-0.1775,0.9201,-0.2794,0.7614,0.4149,-3.815,1.3912,-9.7737,-10.919126372156889,-16.75151604626369,-103.06824694065142
-0.2863,-0.1767,0.9124,-0.2794,0.7614,0.4149,-3.2025,1.3475,-10.6312,-10.960407287495956,-17.10391848857087,-102.92943604723258
-0.2836,-0.1766,0.9135,-0.281,0.7603,0.4139,-3.4388,1.1462,-9.5113,-10.941625706257634,-16.959197377554975,-103.1253983498619
-0.2838,-0.176,0.9176,-0.2831,0.7602,0.411,-3.3425,1.1287,-9.8525,-10.857933441087106,-16.899143011909697,-103.32597448988945
-0.2836,-0.1776,0.916,-0.2831,0.7602,0.411,-2.87,0.8312,-10.2025,-10.972458867001457,-16.906124791734953,-103.34571944522747
-0.2833,-0.1787,0.9133,-0.2846,0.7609,0.4114,-3.395,1.0675,-10.3687,-11.070624624918084,-16.93013648542228,-103.43376397886624
-0.2863,-0.1768,0.9137,-0.2846,0.7609,0.4114,-3.1063,0.9975,-10.185,-10.95161727406385,-17.091521957397934,-103.34547521693437
-0.2827,-0.1764,0.9137,-0.2841,0.7598,0.4128,-3.43,1.7762,-9.625,-10.927211597984519,-16.90805902739026,-103.36798396512442
-0.2844,-0.1776,0.9133,-0.2834,0.7581,0.4126,-3.8588,1.1462,-9.9312,-11.004196151616306,-16.992612413037342,-103.3263477402985
-0.2826,-0.1768,0.9138,-0.2834,0.7581,0.4126,-3.15,0.9975,-10.675,-10.950292266824443,-16.89470433296502,-103.35613426704181
-0.2812,-0.1773,0.9137,-0.2832,0.7582,0.4143,-3.2113,1.2687,-10.78,-10.98147745177239,-16.814948707432947,-103.34199635092114
-0.2858,-0.1783,0.9112,-0.2832,0.7582,0.4143,-2.7738,1.12,-10.1763,-11.071304663861117,-17.09480699084927,-103.24632560192553
-0.2837,-0.1757,0.9162,-0.2828,0.7594,0.4126,-3.185,0.9975,-9.45,-10.85634865335984,-16.92360138557567,-103.2742092518958
-0.2848,-0.1766,0.9176,-0.2855,0.7606,0.4105,-4.0513,1.0412,-9.9925,-10.893774527583558,-16.948964105710566,-103.46995322247118
-0.2857,-0.1766,0.913,-0.2855,0.7606,0.4105,-3.5438,0.9013,-9.59,-10.947300137136256,-17.07227356445438,-103.43247327181169
-0.2829,-0.1742,0.9127,-0.2846,0.7594,0.4141,-3.0538,0.98,-9.5375,-10.805980601578005,-16.940288166733808,-103.33770679837393
-0.284,-0.1738,0.9171,-0.2846,0.7594,0.4141,-2.6075,1.015,-10.045,-10.731069546735561,-16.9235711586805,-103.32661374877671
-0.2827,-0.1766,0.9194,-0.2822,0.7592,0.41,-2.5725,1.5312,-10.3162,-10.872707032143653,-16.808400339934163,-103.34158156373623
-0.2833,-0.1785,0.9162,-0.2821,0.7604,0.4109,-2.7562,1.505,-9.8787,-11.024267832782769,-16.87961199207907,-103.30206579016264
-0.2825,-0.1796,0.9133,-0.2821,0.7604,0.4109,-3.2725,1.3737,-9.8175,-11.124987991518772,-16.883128666826607,-103.32265716083046
-0.2843,-0.1766,0.9171,-0.2827,0.7602,0.4118,-3.08,1.3562,-10.1325,-10.90019829277024,-16.92825017240589,-103.27904771186897
-0.2833,-0.1787,0.9093,-0.2827,0.7602,0.4118,-1.96,1.155,-10.325,-11.117830487130675,-16.99550310184833,-103.2981350124202
-0.2839,-0.1765,0.9098,-0.2812,0.7603,0.4147,-2.8612,1.2163,-10.2025,-10.979259798888414,-17.02990567610406,-103.09808654190466
-0.284,-0.1757,0.9174,-0.2837,0.7602,0.411,-3.8413,1.1375,-10.0625,-10.842299626346188,-16.9173776260778,-103.35456971203644
-0.2813,-0.1764,0.9154,-0.2837,0.7602,0.411,-3.325,1.3212,-10.745,-10.907192342370072,-16.797188669842907,-103.4139440728426
-0.2838,-0.1759,0.9128,-0.2833,0.7604,0.411,-3.1588,0.9887,-9.5025,-10.907409103577375,-16.9684399357489,-103.31584859134438
-0.2859,-0.1765,0.9118,-0.2833,0.7604,0.411,-3.1412,1.2775,-10.1237,-10.955315852511363,-17.1035458697176,-103.27503709969947
-0.2836,-0.1759,0.9155,-0.2815,0.7594,0.4125,-3.3775,1.1462,-9.7737,-10.876198835149156,-16.92931312600571,-103.19652584137243
-0.2844,-0.1765,0.9124,-0.2828,0.7605,0.4116,-3.15,1.0762,-10.3075,-10.948227998428681,-17.011580795216698,-103.26372908276993
-0.2854,-0.1774,0.9151,-0.2828,0.7605,0.4116,-3.395,1.2862,-9.8875,-10.971138683997786,-17.022867434791973,-103.26559729249675
-0.2821,-0.1763,0.9145,-0.283,0.7602,0.4117,-3.045,1.3125,-10.3075,-10.911924867374477,-16.859847966150053,-103.33262918110805
-0.2872,-0.1767,0.9156,-0.283,0.7602,0.4117,-3.43,1.5137,-10.255,-10.92309553724731,-17.105526856283205,-103.23342666697307
-0.2829,-0.1769,0.9122,-0.2836,0.7596,0.4094,-3.5525,1.5575,-9.9312,-10.974834363314946,-16.941823772298736,-103.4092548348135
-0.2836,-0.1776,0.9115,-0.2813,0.7582,0.4119,-3.4213,1.645,-10.1763,-11.025458452109687,-16.980257299947013,-103.21815908694701
-0.2849,-0.1772,0.9137,-0.2813,0.7582,0.4119,-3.7625,1.4175,-10.3775,-10.975627913625472,-17.017702456171833,-103.19340790980156
-0.2858,-0.1767,0.9173,-0.2818,0.7604,0.412,-2.7738,1.015,-10.2025,-10.903536556489694,-17.011394920849277,-103.18573094004996
-0.284,-0.1751,0.9137,-0.2818,0.7604,0.412,-3.2987,0.805,-10.4912,-10.848673228010709,-16.97751871287299,-103.18785295024634
-0.2832,-0.1758,0.9152,-0.2817,0.7606,0.4177,-3.0188,1.5575,-10.36,-10.87339312128858,-16.90693312911088,-103.08847322022896
-0.2847,-0.1748,0.9104,-0.2829,0.761,0.4112,-3.3163,1.1462,-10.4387,-10.86873071664992,-17.064186813004692,-103.23488679593734
-0.2851,-0.1756,0.9156,-0.2829,0.761,0.4112,-2.6338,1.365,-10.4825,-10.856772612588701,-17.006974407823197,-103.25853870284365
-0.2817,-0.177,0.9174,-0.2846,0.7618,0.4114,-3.0363,1.4262,-9.6075,-10.920118124504041,-16.789529761180287,-103.45032658404173
-0.2845,-0.1773,0.9168,-0.2846,0.7618,0.4114,-3.0013,1.3475,-10.2375,-10.945257992042684,-16.93695000193644,-103.39261817146432
-0.2872,-0.1754,0.9143,-0.2802,0.7599,0.417,-3.4913,1.54,-9.7825,-10.85992933249534,-17.1343835350216,-102.92100608449469
-0.2837,-0.1785,0.9118,-0.2848,0.76,0.4123,-3.4475,1.1112,-9.8875,-11.076001026645367,-16.987398128885125,-103.41965712330676
-0.2887,-0.1771,0.913,-0.2848,0.76,0.4123,-2.87,0.9538,-10.3337,-10.9779054318551,-17.233128196777972,-103.29857096954102
-0.2836,-0.1751,0.9164,-0.2808,0.7606,0.4126,-2.8263,0.98,-10.3425,-10.817716604686042,-16.923575133667885,-103.12920376363061
-0.2831,-0.1757,0.909,-0.2808,0.7606,0.4126,-3.2638,1.4612,-10.0975,-10.939463962763387,-16.99874121818221,-103.11810863768413
-0.2852,-0.1768,0.9119,-0.2863,0.7607,0.4154,-3.0713,0.9013,-9.7737,-10.972347048399053,-17.065021207183296,-103.38291412195004
-0.2868,-0.1779,0.9153,-0.2818,0.7588,0.4112,-3.535,0.9363,-10.0187,-10.998953348546827,-17.095512241634896,-103.20897022146194
-0.2807,-0.1788,0.9138,-0.2818,0.7588,0.4112,-2.8263,1.9337,-10.15,-11.07081866217154,-16.79227476922107,-103.34505115093572
-0.2835,-0.1751,0.9118,-0.2806,0.7594,0.4116,-3.2987,1.295,-9.2225,-10.87108754532049,-16.970533128939476,-103.13567712986055
-0.2854,-0.1756,0.9157,-0.2806,0.7594,0.4116,-3.9375,1.435,-10.1587,-10.855623644652399,-17.01677161357535,-103.11731156494204
-0.2824,-0.1686,0.9151,-0.2815,0.7602,0.4097,-3.885,1.1812,-10.4212,-10.440222673980617,-16.889181881435896,-103.17311433796783
-0.2868,-0.1644,0.9195,-0.2814,0.7598,0.4126,-3.0713,0.9625,-9.9925,-10.13768690641532,-17.0598947867574,-102.9737653493917
-0.2891,-0.1889,0.9159,-0.2814,0.7598,0.4126,-3.0188,1.295,-9.1087,-11.649965494965109,-17.172613350302015,-103.248456837735
-0.2793,-0.184,0.9151,-0.2834,0.7604,0.4108,-3.5438,1.505,-9.1175,-11.369590207890969,-16.683952900284,-103.53961359430761
-0.2793,-0.1911,0.9146,-0.2834,0.7604,0.4108,-3.29,0.98,-9.4412,-11.800776383621704,-16.64466312059977,-103.63293332481126
-0.283,-0.1897,0.9103,-0.2826,0.761,0.4158,-3.5175,1.155,-10.08,-11.771626130839733,-16.913732218663778,-103.35770789043495
-0.28,-0.1687,0.9082,-0.2848,0.7602,0.4123,-3.0713,1.3387,-9.7388,-10.525851488314876,-16.865454911360153,-103.34988732932146
-0.2827,-0.162,0.9155,-0.2848,0.7602,0.4123,-2.9225,1.19,-9.7475,-10.035924444105698,-16.910580861038703,-103.23194208583789
-0.286,-0.1633,0.911,-0.2833,0.7602,0.4115,-3.4125,1.295,-10.0537,-10.162241051276938,-17.15911307202063,-103.07778382564489
-0.2816,-0.1788,0.9123,-0.2833,0.7602,0.4115,-3.7362,1.05,-9.3537,-11.08653058942647,-16.866871465194702,-103.39146998920243
-0.2839,-0.1882,0.9136,-0.2842,0.7616,0.4118,-3.8675,1.68,-9.0913,-11.638682493238727,-16.924984579035414,-103.51026080758706
-0.2877,-0.1804,0.9148,-0.282,0.7594,0.4122,-3.1412,1.0937,-9.905,-11.156830085509823,-17.136911841513978,-103.2063844966237
-0.2878,-0.1836,0.9121,-0.282,0.7594,0.4122,-2.9663,1.3037,-11.0687,-11.380653724996762,-17.185920687420055,-103.23825845776841
-0.2805,-0.1736,0.9129,-0.2834,0.7575,0.411,-3.8325,1.82,-10.43,-10.768457861326914,-16.816239421045072,-103.39642603685483
-0.2843,-0.1713,0.9138,-0.2834,0.7575,0.411,-3.5963,1.26,-10.1412,-10.617744368271234,-16.99403909245424,-103.28659663464764
-0.2869,-0.1752,0.9155,-0.2842,0.7607,0.4096,-3.2113,1.0237,-10.0625,-10.83323945598863,-17.102583503325217,-103.33440096649477
-0.2813,-0.1723,0.9142,-0.2818,0.7599,0.4122,-3.3775,0.9975,-10.0887,-10.67376045191333,-16.83760052299175,-103.21181253680273
-0.2811,-0.1719,0.9104,-0.2818,0.7599,0.4122,-3.6488,1.47,-9.8262,-10.692549661189654,-16.87601599682253,-103.19485591431233
-0.2853,-0.1874,0.9104,-0.2828,0.7576,0.4122,-4.1825,1.2337,-9.905,-11.629259205785383,-17.054337280840507,-103.40796819693777
-0.2816,-0.1831,0.9152,-0.2828,0.7576,0.4122,-3.3863,0.9013,-9.7912,-11.314297286081784,-16.802036798551473,-103.44479084833982
-0.2836,-0.1801,0.9118,-0.2822,0.7598,0.4132,-2.6425,1.1987,-10.3687,-11.173651265902837,-16.960761754812474,-103.26362103292581
-0.2877,-0.1743,0.9135,-0.2831,0.7609,0.4151,-3.2375,1.4,-9.975,-10.803339414204721,-17.178732448451534,-103.10423297973668
-0.2819,-0.1715,0.9154,-0.2831,0.7609,0.4151,-3.9113,1.0675,-9.625,-10.611799611894595,-16.856792750114558,-103.20040472296849
-0.2822,-0.177,0.9139,-0.2814,0.7594,0.4114,-2.3712,1.0062,-9.8525,-10.960249048104,-16.864457351735204,-103.25260008968964
-0.2855,-0.1731,0.9081,-0.2814,0.7594,0.4114,-2.5463,1.4,-10.4038,-10.792525963603156,-17.147653185359776,-103.10419878415168
-0.2859,-0.1757,0.9191,-0.2804,0.7599,0.4109,-2.59,1.3825,-9.6687,-10.8223210245308,-16.9974143879784,-103.11862547950072
-0.2801,-0.182,0.9091,-0.2827,0.7596,0.4111,-3.7625,0.8487,-10.2112,-11.319650037081878,-16.819205211655962,-103.43242937550531
-0.2864,-0.1804,0.9161,-0.2827,0.7596,0.4111,-4.0075,1.0937,-10.0012,-11.140672920255339,-17.041445974725306,-103.3047613219323
-0.2844,-0.1738,0.9129,-0.284,0.7622,0.4127,-3.2987,0.8663,-10.0012,-10.779968727581636,-17.017310917397317,-103.2604971812676
-0.2819,-0.1787,0.9146,-0.284,0.7622,0.4127,-3.85,1.3387,-9.9312,-11.054853360846097,-16.83986609035766,-103.38752518749122
-0.2857,-0.1751,0.9133,-0.2824,0.7616,0.4113,-3.0625,1.0675,-9.87,-10.853661284092688,-17.066743201672715,-103.18910652816872
-0.2869,-0.1713,0.92,-0.2842,0.7598,0.4101,-3.3338,1.12,-9.8612,-10.548173059238948,-17.04551319411007,-103.29918679484236
-0.2835,-0.1781,0.9145,-0.2842,0.7598,0.4101,-3.6488,1.4612,-9.555,-11.01934977861867,-16.930407026993045,-103.44210533112671
-0.2891,-0.1751,0.915,-0.2809,0.7605,0.4114,-3.0625,1.3562,-10.1937,-10.833936811735716,-17.225156649669493,-103.03915460291476
-0.2874,-0.1771,0.9146,-0.2809,0.7605,0.4114,-3.5,0.7875,-10.8413,-10.958633993080058,-17.149097058991362,-103.10148316830472
-0.281,-0.1796,0.9201,-0.2835,0.7597,0.4093,-3.4213,1.4962,-9.6687,-11.044830714960142,-16.70880306212725,-103.51104948053998
-0.2784,-0.1781,0.9146,-0.2838,0.7618,0.4142,-4.1213,1.1987,-9.4762,-11.019362579033961,-16.638856406448028,-103.4142288503154
-0.2844,-0.1742,0.9121,-0.2838,0.7618,0.4142,-2.835,1.6013,-9.7037,-10.81307623400167,-17.00893894512422,-103.2221968112339
-0.2922,-0.1758,0.9017,-0.2807,0.7596,0.4118,-3.4913,1.2687,-9.6162,-11.03175775813402,-17.612931693300926,-102.91600035341034
-0.2871,-0.1844,0.926,-0.2807,0.7596,0.4118,-3.01,1.3912,-9.8087,-11.261779342845523,-16.94763054341398,-103.24098697776404
-0.2854,-0.176,0.9282,-0.2826,0.761,0.4083,-3.5175,1.6538,-10.0887,-10.737889950997628,-16.8161766197287,-103.35200176106758
-0.2821,-0.1742,0.9138,-0.2826,0.761,0.4288,-3.36,1.4875,-10.3337,-10.792809940986206,-16.86725570300625,-102.89764518955397
-0.2752,-0.1813,0.914,-0.2831,0.7611,0.4111,-3.5438,1.1987,-10.0362,-11.218472171209429,-16.474178866538793,-103.55173442503617
-0.2898,-0.1743,0.9147,-0.2849,0.7606,0.4126,-3.6575,1.6362,-9.905,-10.789641332882807,-17.246823166858142,-103.23563741527062
-0.2832,-0.181,0.9111,-0.2849,0.7606,0.4126,-3.5263,1.3562,-10.1412,-11.235077592229612,-16.96953137867299,-103.45479175814968
-0.2807,-0.1782,0.9102,-0.2817,0.7604,0.4111,-3.4563,1.1987,-9.94,-11.077695925774425,-16.84474960214826,-103.30040743476049
-0.2932,-0.1771,0.912,-0.2817,0.7604,0.4111,-2.765,1.5312,-10.2375,-10.989625470241027,-17.482145263715303,-103.0254646377319
-0.2898,-0.1808,0.9166,-0.2827,0.7594,0.419,-2.765,1.0325,-9.8962,-11.157986567613689,-17.245511496571265,-103.06788603930856
-0.2732,-0.1725,0.9187,-0.282,0.7614,0.4123,-3.1063,1.96,-10.1237,-10.635588212899998,-16.340438801596626,-103.40062706560647
-0.2974,-0.1744,0.9134,-0.282,0.7614,0.4123,-3.08,1.4437,-9.905,-10.809246558230313,-17.66625010796061,-102.88277488244722
-0.2785,-0.1742,0.9119,-0.2838,0.7598,0.4104,-3.5,1.225,-9.4237,-10.814885700492171,-16.745674636638842,-103.45405896548459
-0.2746,-0.1799,0.912,-0.2838,0.7598,0.4104,-3.4388,0.98,-10.4562,-11.158012677401281,-16.47130367932075,-103.61343674201721
-0.2913,-0.1839,0.913,-0.2811,0.7599,0.4106,-3.2813,1.2075,-10.2725,-11.387806055996352,-17.32456031492866,-103.14638349134398
-0.2935,-0.1781,0.9118,-0.2834,0.7588,0.4135,-3.5963,1.2425,-9.9225,-11.053108852864282,-17.522212477638977,-103.10344638970724
-0.2793,-0.1815,0.9121,-0.2834,0.7588,0.4135,-3.8588,1.155,-9.8787,-11.253871891398976,-16.755794463338706,-103.4554012304604
-0.2904,-0.1712,0.9143,-0.2811,0.7599,0.4107,-3.1763,1.785,-10.1237,-10.607200591921266,-17.30875262211663,-102.98817685237246
-0.286,-0.1707,0.9166,-0.2811,0.7599,0.4107,-3.6138,1.4437,-10.3687,-10.549578203700165,-17.065964783435437,-103.08608472561706
-0.2759,-0.1799,0.9221,-0.2814,0.76,0.4198,-3.5525,1.26,-9.9925,-11.038456896990562,-16.400333837034335,-103.2716497701424
-0.2812,-0.1789,0.9105,-0.2837,0.7607,0.4105,-2.7475,1.2687,-9.17,-11.11599309819641,-16.83675439802175,-103.43546540352824
-0.2854,-0.1813,0.909,-0.2837,0.7607,0.4105,-3.1412,1.0587,-9.9312,-11.279235516048576,-17.100494869305034,-103.37415675383554
-0.2778,-0.1834,0.919,-0.2838,0.7603,0.4105,-3.8325,1.5312,-10.0887,-11.28593528299764,-16.54116695082281,-103.61007703363492
-0.2876,-0.1757,0.9124,-0.2838,0.7603,0.4105,-3.0538,1.6538,-10.0187,-10.900886816854777,-17.165769522080392,-103.2737926613351
-0.2911,-0.1753,0.9095,-0.2831,0.7597,0.4138,-2.2488,1.365,-9.7912,-10.909570877735094,-17.433104311799333,-103.07005550587984
-0.2815,-0.1712,0.9169,-0.2838,0.7595,0.4117,-3.57,1.3912,-10.0625,-10.577056192849133,-16.825220721073002,-103.34541107327654
-0.2862,-0.1754,0.9104,-0.2838,0.7595,0.4117,-4.34,1.4525,-9.7737,-10.904349067438874,-17.138630769129083,-103.27411744454861
-0.2859,-0.1754,0.9119,-0.2811,0.7607,0.4122,-2.73,0.9275,-10.2287,-10.887664230931161,-17.11369568525456,-103.09202768978864
-0.2755,-0.1797,0.9221,-0.2811,0.7607,0.4122,-2.9313,0.9013,-10.4212,-11.027320640495766,-16.381262753400545,-103.41096141912264
-0.2805,-0.1785,0.9146,-0.2803,0.7576,0.4082,-2.9225,1.2512,-9.7825,-11.043403986467382,-16.73424204680088,-103.33288134418076
-0.2872,-0.1764,0.9141,-0.2823,0.7607,0.4124,-2.975,0.8575,-9.695,-10.92277480182725,-17.12509750024781,-103.15808491661157
-0.279,-0.1796,0.9083,-0.2823,0.7607,0.4124,-3.9638,0.9625,-10.3425,-11.18430459691617,-16.78648331101249,-103.35407895897609
-0.2848,-0.1738,0.9177,-0.2819,0.7606,0.412,-3.64,1.0937,-9.9137,-10.725136094716992,-16.949238260281103,-103.17337367010703
-0.2909,-0.1732,0.9191,-0.2819,0.7606,0.412,-3.8413,1.4088,-9.4937,-10.67209098683198,-17.261099395022676,-103.03916182477514
-0.2841,-0.1798,0.915,-0.283,0.7593,0.409,-2.8612,0.7875,-9.8,-11.116071529208323,-16.959356847881764,-103.40865804482661
-0.2799,-0.1823,0.9172,-0.2836,0.7588,0.4119,-2.5988,0.9887,-9.9488,-11.241142967502293,-16.677465171768,-103.52017499443652
-0.2844,-0.1801,0.9134,-0.2836,0.7588,0.4119,-3.1937,1.225,-9.975,-11.154441725289857,-16.9718400800028,-103.38086791496067
-0.2798,-0.1764,0.9129,-0.2821,0.7595,0.4104,-3.1937,1.1462,-10.115,-10.937017811987618,-16.758988484578985,-103.3565608040053
-0.2833,-0.1773,0.9152,-0.2821,0.7595,0.4104,-3.9025,1.6362,-10.4125,-10.963925475212871,-16.896759961366655,-103.30316871630622
-0.2893,-0.1756,0.9146,-0.2833,0.7614,0.4095,-3.2987,0.9363,-10.0187,-10.868559965104426,-17.239473472233723,-103.22266450741243
-0.2845,-0.1756,0.9091,-0.2833,0.7602,0.4122,-3.6575,1.0237,-9.345,-10.9323523525153,-17.088187886077225,-103.25761493931347
-0.2821,-0.177,0.9175,-0.2833,0.7602,0.4122,-4.06,1.0412,-9.4937,-10.91913948512719,-16.813065604002006,-103.36207595512109
-0.2857,-0.1769,0.9142,-0.2814,0.7602,0.4125,-4.1125,1.1987,-9.1962,-10.951451903447175,-17.045243665825815,-103.14451844559922
-0.2811,-0.1788,0.9126,-0.2814,0.7602,0.4125,-3.1325,1.155,-9.1875,-11.084868637406872,-16.82975965759121,-103.26224871939631
-0.2801,-0.1782,0.9139,-0.2819,0.7602,0.4154,-3.2725,1.3037,-10.045,-11.033697146216872,-16.746798557834786,-103.24963537377917
-0.2855,-0.1729,0.9137,-0.2821,0.7582,0.4123,-3.1675,1.2687,-9.8,-10.716172509204531,-17.051662580298295,-103.1630204159251
-0.2855,-0.1726,0.9182,-0.2821,0.7582,0.4123,-3.15,1.0412,-9.555,-10.646193095492293,-16.995113783755105,-103.17773083892662
-0.2772,-0.1775,0.9136,-0.2816,0.7599,0.411,-3.0625,1.085,-9.3275,-10.993980990659626,-16.60583196144602,-103.38013229366602
-0.2877,-0.1773,0.9103,-0.2816,0.7599,0.411,-3.36,1.2425,-10.2375,-11.021500069305704,-17.20412199836452,-103.14062605032228
-0.2869,-0.18,0.9118,-0.2826,0.761,0.4119,-3.5088,1.6625,-9.9575,-11.166919818085878,-17.157628031641348,-103.23170187541524
-0.2835,-0.1814,0.9122,-0.2834,0.7593,0.4103,-3.15,1.4875,-10.1587,-11.24691702016982,-16.962378304468363,-103.4293647678182
-0.2833,-0.1779,0.9172,-0.2834,0.7593,0.4103,-2.765,1.12,-9.7475,-10.977429637521,-16.873121534855343,-103.40561409940075
-0.2847,-0.1738,0.9112,-0.2832,0.7585,0.4126,-2.9313,1.1375,-10.185,-10.799170060334847,-17.052684627397504,-103.24186553867916
-0.2839,-0.1753,0.916,-0.2832,0.7585,0.4126,-3.3775,1.925,-10.3512,-10.833931704849892,-16.936961874990974,-103.29936954444243
-0.2804,-0.1759,0.9152,-0.2827,0.7593,0.4123,-2.8525,1.3125,-10.2462,-10.879381208135712,-16.75462060344474,-103.34525248908696
-0.2883,-0.1785,0.9182,-0.2842,0.7614,0.4114,-2.7562,1.0587,-9.8787,-11.000912433844235,-17.11179377494201,-103.31337960822533
-0.2872,-0.1788,0.9137,-0.2842,0.7614,0.4114,-3.4475,1.1812,-9.7562,-11.072001988585374,-17.142153933141014,-103.32298852095853
-0.2848,-0.1774,0.9138,-0.2875,0.7609,0.411,-3.8763,1.47,-9.6775,-10.986626269745548,-17.018138760832432,-103.57665330162365
-0.2829,-0.1759,0.9119,-0.2875,0.7609,0.411,-3.8238,1.5575,-9.6162,-10.918080170565537,-16.94538747340058,-103.58951184764223
-0.2817,-0.1763,0.9137,-0.282,0.7597,0.4138,-4.0075,1.5225,-9.45,-10.921100469900413,-16.847400325683548,-103.2357140067204
-0.2833,-0.1764,0.9163,-0.2819,0.7606,0.4131,-3.99,1.3212,-9.3625,-10.896948584166296,-16.88644918010364,-103.21125413066261
-0.2858,-0.1744,0.9171,-0.2819,0.7606,0.4131,-3.5,1.0237,-10.2812,-10.767381708919304,-17.01530489141147,-103.13343394952393
-0.2841,-0.1795,0.9127,-0.2816,0.7617,0.4118,-3.745,1.3212,-10.395,-11.125459143061969,-16.985451067158248,-103.21903405365181
-0.2874,-0.18,0.9144,-0.2816,0.7617,0.4118,-3.535,1.575,-10.0275,-11.136283541641657,-17.13139324099614,-103.16287059301395
-0.2846,-0.1774,0.9146,-0.2834,0.7601,0.4075,-3.0975,1.75,-9.905,-10.977425174446804,-16.994170598540645,-103.41242589504006
-0.2807,-0.1778,0.9177,-0.2834,0.7602,0.4105,-3.465,1.68,-10.2462,-10.964963219681776,-16.728454992923012,-103.44645198192283
-0.2842,-0.1768,0.9091,-0.2813,0.7602,0.4105,-3.0975,1.8463,-9.9575,-11.005300062124007,-17.04283622774521,-103.1923902827433
-0.2869,-0.1752,0.9168,-0.284,0.7595,0.4117,-3.7362,1.12,-9.8612,-10.819200594902064,-17.083967888806402,-103.29498774717987
-0.2816,-0.1795,0.9198,-0.284,0.7595,0.4117,-3.6312,1.1812,-10.08,-11.042017064093848,-16.742290485284595,-103.4782084237748
-0.2843,-0.1788,0.9143,-0.2853,0.7595,0.4114,-3.5175,1.0237,-9.3712,-11.065030320115415,-16.959432322404904,-103.47830356683887
-0.2877,-0.1774,0.9138,-0.2853,0.7595,0.413,-2.975,1.3562,-9.4937,-10.986609218142137,-17.164142479295936,-103.34927801629924
-0.2862,-0.1787,0.9176,-0.2828,0.7608,0.413,-3.4125,1.3387,-9.9137,-11.020172459925448,-17.02892118278699,-103.24238722950084
-0.281,-0.1784,0.9169,-0.2842,0.7604,0.4116,-4.0163,1.33,-9.4587,-11.01042152396011,-16.756747385259818,-103.46901772177473
-0.2893,-0.1721,0.9177,-0.2842,0.7604,0.4116,-3.7975,0.91,-9.87,-10.622468547419084,-17.193138620478308,-103.20879840352144
-0.2857,-0.1734,0.9129,-0.2814,0.7598,0.4082,-3.5875,1.0762,-10.0362,-10.754561723943555,-17.095625317342442,-103.18946485392057
-0.2818,-0.1803,0.9165,-0.2814,0.7598,0.4082,-3.2813,0.9625,-10.1675,-11.128591236917849,-16.802982460699067,-103.38047382890706
-0.283,-0.1807,0.9145,-0.2825,0.7617,0.4098,-3.85,1.5837,-9.45,-11.177220676797178,-16.883484806263112,-103.36571917718966
-0.281,-0.1807,0.9087,-0.2841,0.7587,0.4122,-3.6225,1.2862,-9.7737,-11.246699935268236,-16.87281030043278,-103.46894588123399
-0.282,-0.174,0.921,-0.2841,0.7587,0.4122,-3.4825,1.2163,-9.905,-10.69982081288717,-16.751052398718357,-103.4068030165468
-0.2813,-0.1663,0.9105,-0.2818,0.7598,0.4123,-3.5438,1.015,-9.9312,-10.351635035351672,-16.89777660763357,-103.11392406390526
-0.285,-0.1694,0.9126,-0.2818,0.7598,0.4123,-3.4125,0.8575,-9.8175,-10.51536415686435,-17.060839284789477,-103.08350673112729
-0.2898,-0.1749,0.9099,-0.2818,0.7603,0.4082,-3.2987,1.61,-10.1587,-10.87975133362533,-17.352825210457613,-103.1299151353347
-0.2852,-0.1848,0.9206,-0.2804,0.7595,0.4111,-3.2987,1.54,-10.22,-11.349497499695813,-16.918299948655903,-103.2634787421111
-0.2824,-0.1902,0.9064,-0.2804,0.7595,0.4111,-3.3163,1.505,-10.1675,-11.849864576182698,-16.955625715968704,-103.34483682364156
-0.2841,-0.1818,0.9154,-0.2819,0.7596,0.4115,-3.3425,1.1812,-10.29,-11.234348252307566,-16.932027447710364,-103.31064955331232
-0.2821,-0.1726,0.9171,-0.2819,0.7596,0.4115,-3.7713,1.0675,-9.4937,-10.659877461817231,-16.825157494689616,-103.23542446341688
-0.2824,-0.1696,0.9129,-0.2821,0.761,0.403,-3.64,0.9975,-10.3863,-10.52483420796816,-16.912172127083277,-103.35142942013597
-0.2882,-0.1623,0.9074,-0.2832,0.7589,0.4124,-3.7713,1.225,-10.0887,-10.141759637129795,-17.339791196793726,-102.98692929808385
-0.2843,-0.1734,0.9182,-0.2832,0.7589,0.4124,-3.185,1.3125,-10.4125,-10.692917447667758,-16.942892965119952,-103.27353071058239
-0.2819,-0.1792,0.914,-0.2808,0.7618,0.413,-3.4563,1.4262,-9.7912,-11.091822179936578,-16.84421209220941,-103.18934761940722
-0.2894,-0.1835,0.906,-0.2808,0.7618,0.413,-3.8675,1.3562,-9.9925,-11.448867819347196,-17.35715033265728,-103.06026515322341
-0.2921,-0.1857,0.9191,-0.2828,0.7592,0.4041,-3.92,1.4175,-9.7388,-11.422640545951506,-17.30534508759784,-103.43673552425156
-0.2772,-0.1794,0.9177,-0.2827,0.7597,0.4116,-3.185,1.19,-9.3887,-11.06204420598941,-16.551110726497487,-103.48002942840372
-0.2929,-0.1749,0.9151,-0.2827,0.7597,0.4116,-3.43,1.1375,-9.9137,-10.820834272267994,-17.408368109239067,-103.07296334333738
-0.2852,-0.1623,0.9162,-0.2838,0.7606,0.4106,-4.1912,1.4787,-9.5462,-10.047287372381485,-17.059226992927485,-103.15192353997995
-0.2763,-0.1722,0.9162,-0.2838,0.7606,0.4106,-3.9375,1.7937,-9.8962,-10.643146841532031,-16.536601582578687,-103.47888521680534
-0.2854,-0.1778,0.916,-0.2826,0.7624,0.4087,-3.7362,1.6712,-10.15,-10.983973044979317,-16.983412293682562,-103.30358894032915
-0.2889,-0.1753,0.9049,-0.2825,0.7598,0.4117,-3.3163,1.3737,-10.1325,-10.963757485534025,-17.38211390422601,-103.10655696968735
-0.2823,-0.1956,0.9109,-0.2825,0.7598,0.4117,-3.5788,1.33,-9.7388,-12.116482532271645,-16.88296541764312,-103.5514900643274
-0.2869,-0.1789,0.9116,-0.2809,0.7592,0.4117,-3.395,1.0412,-9.7475,-11.105515334430454,-17.148731153056385,-103.13398391488109
-0.293,-0.171,0.9223,-0.2809,0.7592,0.4117,-3.2025,1.5225,-10.5175,-10.505146379410853,-17.336913343226012,-102.93599262851849
-0.2796,-0.1697,0.9047,-0.2845,0.7598,0.41,-3.8937,0.9538,-10.1587,-10.62357786417571,-16.91770984077499,-103.39266853830702
-0.2883,-0.1605,0.9149,-0.2837,0.7584,0.4111,-3.57,1.1725,-9.835,-9.951700860625232,-17.227231616278765,-103.06080336161646
-0.2885,-0.1645,0.9172,-0.2837,0.7584,0.4111,-4.0687,1.4088,-9.8612,-10.167390514920667,-17.203955859728755,-103.12172406240484
-0.2735,-0.179,0.9109,-0.2823,0.7594,0.4114,-3.5263,1.4088,-9.8875,-11.115207654968604,-16.4548469594262,-103.50960246555019
-0.2802,-0.1801,0.9136,-0.2823,0.7594,0.4114,-3.92,1.47,-9.8,-11.15176639385691,-16.732472133423826,-103.39281748728483
-0.2901,-0.1896,0.9167,-0.2826,0.7591,0.4149,-3.9288,1.5225,-10.0712,-11.684373846417204,-17.194183114077354,-103.2730320948412
-0.28,-0.1879,0.9097,-0.2816,0.7585,0.4093,-3.7625,1.5137,-10.3775,-11.670448801804005,-16.795272033008775,-103.49991676695855
-0.2788,-0.1834,0.9174,-0.2816,0.7585,0.4093,-3.325,1.4612,-9.5987,-11.305999443117585,-16.60430988307916,-103.49224047919351
-0.2937,-0.1759,0.9171,-0.2858,0.7598,0.41,-3.0625,1.4262,-9.0913,-10.858555421345603,-17.4169171068269,-103.30771910706113
-0.279,-0.1689,0.911,-0.2858,0.7598,0.41,-2.9663,0.98,-10.2812,-10.504259175422126,-16.79023048595381,-103.50392873966582
-0.2855,-0.1672,0.9121,-0.2842,0.7606,0.4121,-3.1238,0.9625,-10.115,-10.388021349911336,-17.0971549985157,-103.18689877689214
-0.2953,-0.166,0.9129,-0.2841,0.7606,0.4086,-3.395,1.5137,-9.9312,-10.30614684279244,-17.62632621629936,-103.02859961127639
AcclX,AcclY,AcclZ,MagX,MagY,MagZ,GyroX,GyroY,GyroZ,Roll,Pitch,Yaw
-0.2858,-0.1768,0.9124,-0.2818,0.7601,0.411,-3.7538,1.61,-9.8612,0,0,0
-0.2799,-0.1709,0.8827,-0.2806,0.7611,0.4105,-4.0425,1.3037,-9.7125,0,0,0
-0.2827,-0.1766,0.9123,-0.2832,0.7611,0.4084,-3.85,1.3475,-10.08,0,0,0
-0.2838,-0.1774,0.9152,-0.2832,0.7611,0.4084,-3.605,1.4262,-10.395,0,0,0
-0.2845,-0.1774,0.9193,-0.2827,0.7607,0.412,-3.1325,1.225,-10.0887,0,0,0
-0.2823,-0.1776,0.9126,-0.2827,0.7607,0.412,-3.2462,1.1638,-9.485,0,0,0
-0.2842,-0.1777,0.9138,-0.284,0.7602,0.4113,-3.0975,1.4088,-9.7562,0,0,0
-0.2857,-0.1757,0.9198,-0.284,0.7602,0.4113,-3.6488,1.6538,-9.625,0,0,0
-0.2847,-0.1778,0.9155,-0.283,0.762,0.4129,-3.675,1.2337,-9.7212,0,0,0
-0.284,-0.1771,0.9088,-0.2838,0.7622,0.4114,-3.5875,1.12,-9.5462,0,0,0
-0.2839,-0.1753,0.9155,-0.2838,0.7622,0.4114,-3.4825,1.4612,-9.7737,0,0,0
-0.2836,-0.1774,0.9134,-0.2822,0.759,0.4109,-3.0363,1.4262,-9.8875,0,0,0
-0.2859,-0.1781,0.9127,-0.2822,0.759,0.4109,-3.4388,1.085,-10.1763,0,0,0
-0.2824,-0.1766,0.9157,-0.2843,0.761,0.4095,-3.4213,1.1725,-10.1937,0,0,0
-0.2832,-0.1767,0.9149,-0.2843,0.761,0.4095,-4.4012,1.0937,-9.9137,0,0,0
-0.2847,-0.1756,0.9061,-0.2817,0.7593,0.4121,-3.9375,1.61,-10.0362,0,0,0
-0.2827,-0.1758,0.9099,-0.2825,0.7609,0.4102,-3.815,0.7788,-9.7388,0,0,0
-0.2858,-0.1748,0.9132,-0.2825,0.7609,0.4102,-2.59,1.0937,-10.1675,0,0,0
-0.2839,-0.1778,0.9164,-0.2823,0.7589,0.4102,-3.0538,0.84,-10.5612,0,0,0
-0.2844,-0.1795,0.9184,-0.2823,0.7589,0.4102,-3.3863,1.2337,-9.9925,0,0,0
-0.2817,-0.1773,0.9141,-0.2834,0.7607,0.4135,-3.5438,1.1375,-9.7037,0,0,0
-0.286,-0.1772,0.9129,-0.2841,0.7591,0.412,-3.1063,1.2687,-9.4675,0,0,0
-0.2841,-0.18,0.9126,-0.2841,0.7591,0.412,-3.605,1.54,-9.5987,0,0,0
-0.2842,-0.1749,0.9154,-0.2807,0.7607,0.4118,-3.6225,1.5225,-9.8,0,0,0
-0.2843,-0.1753,0.9138,-0.2807,0.7607,0.4118,-3.2638,1.2337,-9.7737,0,0,0
-0.2829,-0.1759,0.9151,-0.282,0.7617,0.4073,-3.3075,0.9887,-9.6162,0,0,0
-0.2863,-0.1751,0.9146,-0.2825,0.7602,0.4106,-3.5175,1.0237,-9.7212,0,0,0
-0.2871,-0.177,0.9124,-0.2825,0.7602,0.4106,-2.9663,1.1638,-9.9488,0,0,0
-0.2847,-0.1778,0.915,-0.2858,0.7602,0.411,-2.8438,1.295,-10.2375,0,0,0
-0.2854,-0.1767,0.9118,-0.2858,0.7602,0.411,-2.5375,1.0325,-10.1237,0,0,0
-0.2829,-0.1764,0.9157,-0.2822,0.7597,0.4076,-3.2813,1.3212,-9.9925,0,0,0
-0.2851,-0.1772,0.9145,-0.2835,0.7598,0.4116,-3.5613,1.26,-9.485,0,0,0
-0.2851,-0.1746,0.9163,-0.2835,0.7598,0.4116,-3.5,1.3475,-9.9137,0,0,0
-0.2821,-0.1765,0.9152,-0.2822,0.7605,0.4112,-3.7275,1.5837,-9.5375,0,0,0
-0.2843,-0.1772,0.9122,-0.2822,0.7605,0.4112,-2.6075,1.26,-10.045,0,0,0
-0.2846,-0.1763,0.9172,-0.2826,0.7604,0.4142,-2.9663,1.365,-10.4125,0,0,0
-0.2866,-0.1753,0.9146,-0.2833,0.7618,0.4115,-3.5613,1.61,-9.5288,0,0,0
-0.2882,-0.1759,0.9127,-0.2833,0.7618,0.4115,-3.3513,1.3387,-9.415,0,0,0
-0.2832,-0.1777,0.9171,-0.2822,0.7593,0.4118,-2.7913,1.0325,-9.5025,0,0,0
-0.284,-0.1757,0.9146,-0.2822,0.7593,0.4118,-3.2725,1.3737,-10.0275,0,0,0
-0.2857,-0.1759,0.9148,-0.2831,0.7601,0.4114,-3.3513,1.7587,-10.465,0,0,0
-0.2816,-0.1752,0.9105,-0.2832,0.7595,0.4158,-2.87,1.3825,-10.29,0,0,0
-0.2839,-0.1753,0.9107,-0.2832,0.7595,0.4158,-3.4738,1.1638,-9.7562,0,0,0
-0.2824,-0.1769,0.9108,-0.2843,0.7602,0.412,-3.6663,1.6187,-10.0012,0,0,0
-0.2821,-0.1772,0.9168,-0.2843,0.7602,0.412,-3.43,1.1287,-10.325,0,0,0
-0.283,-0.1774,0.9169,-0.2846,0.7624,0.4075,-3.01,1.2687,-10.1412,0,0,0
-0.2854,-0.1765,0.9112,-0.2829,0.7585,0.4112,-3.955,1.365,-9.4062,0,0,0
-0.2831,-0.176,0.9145,-0.2829,0.7585,0.4112,-3.8588,1.2512,-9.1612,0,0,0
-0.2833,-0.1772,0.9166,-0.2814,0.7599,0.4123,-2.9313,1.0762,-9.905,0,0,0
-0.2861,-0.1773,0.9084,-0.2814,0.7599,0.4123,-3.115,1.6625,-10.6662,0,0,0
-0.2835,-0.1769,0.9115,-0.2838,0.7604,0.4117,-3.0975,1.5837,-10.08,0,0,0
-0.2844,-0.1771,0.9092,-0.2831,0.7604,0.4132,-3.1588,1.2687,-10.01,0,0,0
-0.2863,-0.1759,0.9198,-0.2831,0.7604,0.4132,-3.1588,1.3562,-9.9663,0,0,0
-0.2822,-0.1764,0.9102,-0.2808,0.7595,0.411,-3.1937,1.4262,-10.0012,0,0,0
-0.2854,-0.1748,0.9162,-0.2808,0.7595,0.411,-3.7888,1.4437,-9.59,0,0,0
-0.2833,-0.1762,0.9127,-0.2847,0.7601,0.4118,-3.6488,1.5312,-9.6687,0,0,0
-0.2801,-0.179,0.9152,-0.2826,0.7605,0.4124,-3.8238,1.5137,-9.835,0,0,0
-0.2841,-0.1766,0.9128,-0.2826,0.7605,0.4124,-4.06,1.1462,-9.6687,0,0,0
-0.2854,-0.1779,0.9152,-0.2822,0.7609,0.4115,-3.4913,1.26,-10.01,0,0,0
-0.2801,-0.1784,0.913,-0.2822,0.7609,0.4115,-3.6663,1.6538,-9.765,0,0,0
-0.2841,-0.1774,0.9132,-0.2821,0.7602,0.4118,-2.8525,1.1112,-9.905,0,0,0
-0.2863,-0.1758,0.9159,-0.2833,0.758,0.4133,-3.465,1.0325,-9.9137,0,0,0
-0.2824,-0.1776,0.9094,-0.2833,0.758,0.4133,-3.5613,1.0237,-9.8437,0,0,0
-0.2806,-0.1762,0.9125,-0.285,0.7614,0.4103,-3.4038,1.19,-9.9488,0,0,0
-0.2855,-0.1792,0.9155,-0.285,0.7614,0.4103,-3.8238,1.2075,-9.765,0,0,0
-0.2838,-0.1769,0.9153,-0.2815,0.76,0.4108,-2.4325,1.2075,-9.5987,0,0,0
-0.2835,-0.1764,0.9195,-0.2815,0.76,0.4108,-3.2025,1.5312,-9.7388,0,0,0
-0.2847,-0.1767,0.9117,-0.2828,0.7594,0.4146,-3.2113,1.0325,-9.2487,0,0,0
-0.2875,-0.1753,0.9149,-0.2822,0.7606,0.4109,-3.3163,1.2075,-9.7825,0,0,0
-0.2839,-0.1771,0.9145,-0.2822,0.7606,0.4109,-3.5,1.19,-9.4587,0,0,0
-0.2875,-0.1754,0.9105,-0.2825,0.7598,0.4115,-3.4038,1.3475,-9.8875,0,0,0
-0.2851,-0.1763,0.914,-0.2825,0.7598,0.4115,-3.6225,1.47,-9.4587,0,0,0
-0.2815,-0.1763,0.9145,-0.2826,0.7599,0.4097,-3.5525,1.19,-9.8262,0,0,0
-0.2865,-0.1753,0.911,-0.2839,0.7589,0.4118,-3.5525,0.8663,-9.7388,0,0,0
-0.2837,-0.1773,0.9165,-0.2839,0.7589,0.4118,-3.5613,0.8138,-9.87,0,0,0
-0.2833,-0.1778,0.9166,-0.2824,0.7608,0.4107,-3.36,0.8663,-9.765,0,0,0
-0.2851,-0.1763,0.9099,-0.2824,0.7608,0.4107,-3.5875,0.8663,-9.7825,0,0,0
-0.2856,-0.1754,0.9131,-0.2814,0.7606,0.409,-3.5438,1.3037,-9.5288,0,0,0
-0.2817,-0.1776,0.9148,-0.2825,0.7583,0.4108,-3.2638,1.3387,-9.7825,0,0,0
-0.2836,-0.1763,0.9171,-0.2825,0.7583,0.4108,-3.955,1.5487,-9.6775,0,0,0
-0.2836,-0.1777,0.9174,-0.2839,0.7594,0.411,-3.36,1.2862,-10.2987,0,0,0
-0.2823,-0.1768,0.9116,-0.2839,0.7594,0.411,-3.08,0.9187,-10.0712,0,0,0
-0.2844,-0.1771,0.9103,-0.2815,0.7596,0.4083,-3.4388,1.54,-9.6162,0,0,0
-0.2851,-0.1779,0.9162,-0.2845,0.7594,0.411,-3.6225,1.47,-10.0275,0,0,0
-0.2824,-0.1771,0.9149,-0.2845,0.7594,0.411,-3.395,1.4,-10.0187,0,0,0
-0.2873,-0.1769,0.9113,-0.2825,0.7592,0.4117,-3.1937,1.5837,-9.5637,0,0,0
-0.2842,-0.176,0.9159,-0.2825,0.7592,0.4117,-3.3775,0.8487,-9.1962,0,0,0
-0.281,-0.1749,0.9157,-0.2813,0.7596,0.4114,-3.465,1.2512,-9.5987,0,0,0
-0.284,-0.1765,0.9099,-0.2827,0.7598,0.4126,-3.1325,1.1462,-9.8262,0,0,0
-0.286,-0.1769,0.9163,-0.2827,0.7598,0.4126,-3.4738,1.3037,-9.9137,0,0,0
-0.2831,-0.1768,0.9123,-0.2828,0.7595,0.4107,-4.2525,1.1725,-9.6162,0,0,0
-0.2856,-0.1754,0.9134,-0.2828,0.7595,0.4107,-3.745,1.47,-9.4937,0,0,0
-0.2839,-0.1779,0.9152,-0.2828,0.7596,0.4089,-3.115,1.5312,-9.9225,0,0,0
-0.2843,-0.1781,0.9123,-0.2826,0.759,0.4085,-3.4475,1.19,-10.0362,0,0,0
-0.2851,-0.1753,0.9101,-0.2826,0.759,0.4085,-3.8413,1.19,-10.255,0,0,0
-0.2829,-0.1778,0.9164,-0.2824,0.76,0.4121,-3.3075,1.4,-10.045,0,0,0
-0.2832,-0.1783,0.9159,-0.2824,0.76,0.4121,-3.71,1.2075,-9.7562,0,0,0
-0.2844,-0.1757,0.9138,-0.2822,0.7614,0.4123,-4.025,1.4437,-9.6862,0,0,0
-0.2849,-0.1751,0.9187,-0.2842,0.7608,0.4145,-3.395,1.5925,-10.0887,0,0,0
-0.2828,-0.1756,0.911,-0.2842,0.7608,0.4145,-3.4388,1.4612,-9.73,0,0,0
-0.2854,-0.1768,0.9135,-0.2838,0.7606,0.4106,-3.2462,1.0587,-9.3975,0,0,0
-0.2851,-0.1768,0.9146,-0.2838,0.7606,0.4106,-3.15,1.1725,-9.6862,-10.914849841782969,-16.225952014995425,-103.24461765480166
-0.2808,-0.1774,0.9142,-0.2821,0.7606,0.4114,-3.535,1.3737,-9.8175,-10.981572902120089,-16.75361276403672,-103.31922672663093
-0.2836,-0.1784,0.914,-0.2788,0.7593,0.4134,-3.955,1.47,-10.1412,-11.044325452742902,-16.928798517392583,-103.03613617884763
-0.2845,-0.1759,0.9105,-0.2788,0.7593,0.4134,-3.5963,1.2163,-9.8875,-10.93456074971207,-17.049736718987138,-102.96791808017485
-0.2854,-0.1759,0.916,-0.2834,0.759,0.4111,-3.815,1.1725,-9.835,-10.870367421684465,-17.0148415528043,-103.31448767623091
-0.2839,-0.1764,0.9104,-0.2834,0.759,0.4111,-3.4388,1.225,-9.7825,-10.965576599665196,-17.021487516010758,-103.33122470845615
-0.282,-0.1748,0.9137,-0.2838,0.7609,0.4063,-3.8588,1.7762,-9.7475,-10.830716539521088,-16.871566009798965,-103.47046963692655
-0.2836,-0.1764,0.9172,-0.2838,0.7609,0.4063,-2.8875,1.0325,-10.2025,-10.886321622323191,-16.889385647967877,-103.4722117447927
-0.2885,-0.1771,0.9168,-0.2847,0.7614,0.4071,-3.3775,0.84,-10.6925,-10.933157599988725,-17.15673515170594,-103.41022824892411
-0.285,-0.1782,0.9119,-0.2842,0.7598,0.4107,-2.5113,1.4612,-10.0887,-11.056884276020716,-17.057389461905395,-103.38832520052075
-0.2851,-0.1769,0.9127,-0.2842,0.7598,0.4107,-3.4913,1.4175,-9.31,-10.969300167517218,-17.049235270275354,-103.37146241179633
-0.2862,-0.1747,0.9142,-0.2845,0.7618,0.4153,-3.6837,1.3562,-9.905,-10.81892353505202,-17.09044776777659,-103.21863738475294
-0.2863,-0.1754,0.9162,-0.2845,0.7618,0.4153,-3.4125,1.1025,-9.66,-10.837693756299364,-17.06323857410747,-103.23423949557935
-0.2846,-0.1743,0.9128,-0.2858,0.7602,0.4144,-3.2288,1.2163,-10.3075,-10.810607740270653,-17.029111842578505,-103.36185041919356
-0.2858,-0.1765,0.914,-0.2828,0.7602,0.4118,-3.0625,1.33,-10.3162,-10.929413808541145,-17.06570535555459,-103.23943473254812
-0.2852,-0.1766,0.914,-0.2828,0.7602,0.4118,-3.1063,1.4787,-10.08,-10.93572458461223,-17.03494384698411,-103.25354380259373
-0.2855,-0.1766,0.9183,-0.2847,0.7605,0.4108,-3.1763,1.6887,-10.2025,-10.885877066632608,-16.980475851958552,-103.40221075549965
-0.2845,-0.1774,0.9203,-0.2847,0.7605,0.4108,-3.8238,1.1462,-10.1325,-10.910635457485439,-16.890076543009858,-103.44241785810954
-0.2799,-0.1778,0.9127,-0.2838,0.7575,0.4081,-3.325,0.91,-10.115,-11.023266446305865,-16.758847583872562,-103.55305818258361
-0.282,-0.1774,0.9065,-0.283,0.7601,0.411,-3.1063,1.2687,-9.625,-11.072599614072939,-16.966997981511895,-103.33464602757192
-0.2824,-0.1755,0.9165,-0.283,0.7601,0.411,-2.9488,1.2163,-9.7125,-10.840856514322752,-16.843439563879652,-103.33983158837675
-0.2829,-0.1782,0.9188,-0.2824,0.7594,0.4107,-2.8612,0.9975,-10.29,-10.975844182706817,-16.819592469740023,-103.35154085818296
-0.2848,-0.1772,0.9131,-0.2824,0.7594,0.4107,-2.6513,0.5425,-10.4737,-10.98252950366316,-17.014932481588335,-103.27499265071857
-0.2856,-0.1754,0.9145,-0.2835,0.7614,0.4114,-3.0975,1.0762,-9.8962,-10.857703641459802,-17.049681920730336,-103.26938029488468
-0.2824,-0.1749,0.9171,-0.2838,0.7614,0.4118,-3.7625,0.84,-10.115,-10.797359863019055,-16.8393808871425,-103.3518863637536
-0.2815,-0.1789,0.9141,-0.2838,0.7614,0.4118,-4.1038,1.2163,-10.0537,-11.072826635109443,-16.816942258483625,-103.41309891246803
-0.2821,-0.1769,0.9164,-0.2825,0.7607,0.4126,-3.2638,1.5925,-9.6512,-10.926220328473272,-16.817665914199278,-103.29169456126839
-0.2829,-0.1775,0.9162,-0.2825,0.7607,0.4126,-3.3513,0.7875,-10.15,-10.964277337229763,-16.86197624082754,-103.28178577482251
-0.2851,-0.1748,0.9161,-0.283,0.7604,0.4122,-3.6925,1.225,-9.5637,-10.803074179000959,-16.99180732375652,-103.24113039740601
-0.2843,-0.1749,0.9109,-0.2843,0.7598,0.4115,-3.8413,1.505,-10.045,-10.868805485068663,-17.038510608189544,-103.34247760548278
-0.2841,-0.1742,0.9145,-0.2843,0.7598,0.4115,-3.7013,1.3125,-9.5725,-10.785073130311028,-16.97400590793139,-103.35208383354805
-0.2824,-0.1742,0.9141,-0.2829,0.761,0.4122,-3.1063,1.1287,-9.4412,-10.78947178662598,-16.886074816826174,-103.2697684557092
-0.2846,-0.1759,0.9078,-0.2829,0.761,0.4122,-2.9575,1.12,-9.4062,-10.96561425849392,-17.09708973325252,-103.22005520838434
-0.2851,-0.1787,0.9092,-0.283,0.7585,0.4114,-2.6775,1.5575,-10.045,-11.119176540203968,-17.102130569198852,-103.30650405317151
-0.2858,-0.1796,0.9146,-0.2826,0.7578,0.4118,-3.08,1.505,-10.3863,-11.10983138660633,-17.049720543941913,-103.29960334409908
-0.2815,-0.1781,0.9074,-0.2826,0.7578,0.4118,-3.675,1.2075,-9.6425,-11.10458463431553,-16.936748307140423,-103.3424013222128
-0.2874,-0.1738,0.9173,-0.2829,0.7594,0.415,-3.395,1.3387,-10.3337,-10.729498279172493,-17.10202791201961,-103.12670288173304
-0.2846,-0.1698,0.9133,-0.2829,0.7594,0.415,-2.9138,1.1638,-10.395,-10.532601021673203,-17.03654065919915,-103.11594332075518
-0.2855,-0.1751,0.9099,-0.2833,0.7606,0.4148,-2.5638,1.3825,-10.1325,-10.891913378080421,-17.12082454131108,-103.17063056836113
-0.2894,-0.1854,0.9262,-0.2826,0.759,0.4126,-2.9138,1.26,-10.2287,-11.318435116752969,-17.0381473729846,-103.31651908167154
-0.2772,-0.178,0.8888,-0.2826,0.759,0.4126,-3.8063,1.1638,-10.29,-11.324792905670309,-17.005674345222314,-103.32902434937934
-0.2988,-0.1964,0.9159,-0.283,0.761,0.4091,-2.7913,1.4437,-10.6225,-12.101028843733353,-17.65960277443713,-103.32435317790234
-0.2813,-0.1648,0.928,-0.283,0.761,0.4091,-2.8087,1.4525,-10.2025,-10.074774316900273,-16.667072938692083,-103.30049612733784
-0.2769,-0.1906,0.924,-0.2872,0.7602,0.4102,-3.8325,1.8112,-9.8962,-11.65157018933388,-16.37162999449009,-103.95997806987457
-0.2793,-0.1926,0.9066,-0.2839,0.7606,0.4114,-3.5613,1.68,-9.5637,-11.992911842506466,-16.751154930539602,-103.6423879899199
-0.2903,-0.1658,0.9101,-0.2839,0.7606,0.4114,-3.3513,1.3475,-9.2662,-10.328750487378976,-17.390967840697044,-103.04884845553204
-0.2786,-0.1788,0.9152,-0.2814,0.761,0.4118,-3.1063,1.3562,-9.7037,-11.0527499698245,-16.6698328974502,-103.33113118288883
-0.2781,-0.1635,0.9095,-0.2814,0.761,0.4118,-2.6425,1.785,-9.2487,-10.193201439749226,-16.745282166832684,-103.11424204208619
-0.2968,-0.1686,0.9158,-0.2828,0.7603,0.4064,-3.4563,1.5137,-9.415,-10.430858397098765,-17.634643133525298,-103.01713942705778
-0.2869,-0.189,0.9065,-0.2822,0.7606,0.4119,-3.3863,0.8575,-10.2812,-11.77392569931942,-17.233771803678902,-103.3180322962679
-0.2865,-0.179,0.9159,-0.2822,0.7606,0.4119,-2.7738,1.7325,-10.1587,-11.059979964835671,-17.074423252227827,-103.22203021667646
-0.304,-0.1817,0.9045,-0.2843,0.7595,0.4115,-3.465,1.8025,-10.3863,-11.357941899880016,-18.182081554106624,-102.99694799868399
-0.2805,-0.1721,0.913,-0.2843,0.7595,0.4115,-2.9138,1.4088,-10.0887,-10.676584877518737,-16.864667979414044,-103.39870047228247
-0.2701,-0.1743,0.9204,-0.2834,0.7596,0.4126,-4.3225,1.2075,-9.275,-10.723244575800578,-16.12045061411934,-103.60107671024862
-0.2995,-0.1745,0.9119,-0.2841,0.7595,0.4119,-3.4738,1.5487,-9.415,-10.832822915498662,-17.795578713136234,-102.99466819621657
-0.268,-0.1779,0.9175,-0.2841,0.7595,0.4119,-3.3688,1.5837,-9.6512,-10.972950725320711,-16.085700038662168,-103.73909568308588
-0.281,-0.1854,0.914,-0.285,0.7598,0.4106,-3.7888,1.4175,-10.0362,-11.465390209085623,-16.735672823416916,-103.63111765803498
-0.2965,-0.1727,0.9111,-0.285,0.7598,0.4106,-2.8438,0.805,-10.01,-10.734877324024652,-17.685533360364705,-103.11260001220555
-0.2861,-0.1744,0.917,-0.281,0.7591,0.41,-3.6488,1.225,-9.9137,-10.768139324361693,-17.070455206045846,-103.15473652965461
-0.2751,-0.1836,0.9128,-0.2822,0.7597,0.4113,-3.29,1.3212,-10.4212,-11.371252655008233,-16.48900606446254,-103.53562932177763
-0.2813,-0.1712,0.9135,-0.2822,0.7597,0.4113,-3.7362,1.4612,-9.6775,-10.616530192307403,-16.82283042990261,-103.24130750366594
-0.2768,-0.1796,0.9159,-0.2831,0.7594,0.4104,-3.4825,1.365,-9.6425,-11.093296585068499,-16.532957548654352,-103.53839060338709
-0.2714,-0.1784,0.917,-0.2831,0.7594,0.4104,-3.4388,1.3562,-9.7737,-11.0094264816665,-16.215179734197125,-103.64147153996299
-0.2888,-0.1704,0.9107,-0.2815,0.7595,0.4122,-3.3425,1.155,-9.0913,-10.598978745398462,-17.261758660345098,-102.99312230583595
-0.2937,-0.1748,0.9155,-0.2833,0.7613,0.4126,-3.4913,1.12,-9.6425,-10.809102985727721,-17.47985872752917,-103.05282680040531
-0.275,-0.1794,0.9165,-0.2833,0.7613,0.4126,-3.3513,1.3825,-9.9488,-11.07467522674597,-16.458240155322063,-103.51909728574209
-0.2956,-0.1773,0.912,-0.2813,0.7604,0.4111,-2.835,1.4,-10.395,-11.001696474799914,-17.59334806045659,-102.95218196053777
-0.2886,-0.1751,0.9096,-0.2813,0.7604,0.4111,-3.2725,1.4962,-9.9225,-10.896523901351907,-17.318658081289506,-103.0602302304214
-0.2771,-0.1754,0.9163,-0.2828,0.7599,0.4132,-3.535,0.9713,-9.24,-10.836726065393242,-16.578173630161217,-103.39372611939287
-0.2828,-0.179,0.9177,-0.2841,0.7597,0.4139,-3.6225,1.1987,-10.1237,-11.03664994443811,-16.8169044824882,-103.39426370511885
-0.2914,-0.1724,0.9123,-0.2841,0.7597,0.4139,-3.5175,1.6887,-10.0275,-10.701956679535153,-17.395904824184154,-103.0949297027442
-0.2778,-0.1807,0.9149,-0.2825,0.7602,0.4114,-3.57,1.05,-10.4038,-11.171455170732031,-16.625356169815237,-103.45926072345246
-0.2899,-0.1744,0.91,-0.2825,0.7602,0.4114,-2.9838,1.12,-10.1587,-10.849857225752354,-17.33901822232818,-103.09550063408123
-0.2916,-0.1731,0.9125,-0.2835,0.76,0.4119,-2.9838,1.3037,-9.73,-10.741558119456899,-17.426062498538162,-103.10441536225595
-0.2802,-0.1807,0.9183,-0.2829,0.7595,0.415,-3.5175,1.1987,-10.1937,-11.131313877169012,-16.70238358254955,-103.37761643107837
-0.2782,-0.1765,0.9177,-0.2829,0.7595,0.415,-3.4388,1.1812,-10.1062,-10.887265883311535,-16.583703608028106,-103.36297250837124
-0.2882,-0.1753,0.9132,-0.2833,0.76,0.4106,-3.4563,1.4437,-9.9225,-10.866493199231167,-17.190065574700238,-103.22819443411825
-0.2776,-0.1773,0.9125,-0.2833,0.76,0.4106,-3.2987,1.12,-9.8525,-10.995335090714216,-16.653516544820842,-103.47913323875429
-0.2813,-0.1774,0.9155,-0.2822,0.7598,0.4123,-3.3688,1.0325,-9.205,-10.966584608554362,-16.779956381641874,-103.31010132559493
-0.2896,-0.1761,0.9101,-0.2842,0.761,0.4134,-3.1937,0.9275,-9.3625,-10.951163068007073,-17.32326252567027,-103.17967623163415
-0.2833,-0.1765,0.9206,-0.2842,0.761,0.4134,-3.7362,1.1287,-9.6075,-10.85343906839427,-16.839885765764812,-103.36335072635254
-0.286,-0.1774,0.9128,-0.281,0.7584,0.4113,-3.6225,0.9887,-9.4237,-10.997820656985061,-17.084355586760662,-103.16109447134596
-0.287,-0.1737,0.9093,-0.281,0.7584,0.4113,-3.4125,1.1812,-10.0887,-10.815132083040282,-17.218044691959232,-103.0733644060296
-0.2819,-0.1787,0.912,-0.2832,0.7591,0.414,-3.1763,1.12,-9.5987,-11.085605988552757,-16.89020790535672,-103.33479313530691
-0.2786,-0.1792,0.9133,-0.2843,0.759,0.413,-3.3775,0.9713,-9.52,-11.101030345219796,-16.67493326056393,-103.5094872276421
-0.2867,-0.1731,0.9085,-0.2843,0.759,0.413,-3.2987,1.2512,-10.5612,-10.78823007603902,-17.197761881966628,-103.23203068301369
-0.2831,-0.178,0.9166,-0.2827,0.7605,0.4108,-3.2113,1.54,-10.6837,-10.989342236934773,-16.882666322188125,-103.33972390811202
-0.2828,-0.1754,0.9137,-0.2827,0.7605,0.4108,-3.22,1.505,-9.5375,-10.866977955299054,-16.90605594894086,-103.29943846837963
-0.2863,-0.1744,0.9144,-0.2863,0.7596,0.4094,-3.4738,1.1112,-9.5812,-10.7982815117013,-17.086884728269812,-103.48112671339926
-0.2858,-0.1778,0.9081,-0.2863,0.7604,0.4075,-3.78,1.2862,-9.8875,-11.077331655031061,-17.16016419009871,-103.54593623298743
-0.2762,-0.1768,0.9198,-0.2838,0.7604,0.4075,-2.8875,1.155,-10.1763,-10.880911117298838,-16.463889332972553,-103.62359069480632
-0.2849,-0.1762,0.9136,-0.2842,0.7594,0.4111,-3.0625,1.365,-10.395,-10.91614414461701,-16.998312920267058,-103.36591100374204
-0.2818,-0.1748,0.9138,-0.2842,0.7594,0.4111,-3.3163,1.3825,-10.2637,-10.829444327158646,-16.857986945477673,-103.41404971963027
-0.2785,-0.1762,0.9123,-0.2823,0.7618,0.4114,-3.6488,1.2862,-9.8175,-10.931166470774237,-16.693292365161113,-103.34341683078254
-0.2883,-0.1765,0.9106,-0.2823,0.7618,0.4147,-2.8175,1.4088,-10.1937,-10.969426583758741,-17.2393386771133,-103.0584947210852
-0.2879,-0.1742,0.9098,-0.2828,0.7606,0.4147,-2.6513,1.5312,-10.78,-10.839579973369265,-17.26388958401258,-103.07610607112571
-0.281,-0.1796,0.9139,-0.2821,0.7602,0.4112,-3.5875,1.4,-10.0712,-11.117445023672587,-16.811031541342835,-103.35229959952669
-0.2862,-0.175,0.9084,-0.2821,0.7602,0.4112,-3.3338,1.4088,-10.0975,-10.904747157186685,-17.172710761391237,-103.1563686051632
-0.2862,-0.1751,0.9145,-0.2812,0.7622,0.4107,-3.15,1.54,-10.2725,-10.839432131164513,-17.09017891886975,-103.1138690978131
-0.2833,-0.1782,0.9109,-0.2812,0.7603,0.4154,-3.1412,1.33,-9.7388,-11.06847240745038,-16.978975044683743,-103.12351601155453
-0.2847,-0.1761,0.9071,-0.2822,0.7603,0.4154,-3.605,1.4787,-9.8175,-10.986659381222838,-17.117474804554558,-103.11154692980672
-0.2871,-0.1765,0.9161,-0.2831,0.7601,0.4114,-3.6837,1.2337,-9.8962,-10.905436823462688,-17.105510973929295,-103.24863584311599
-0.2794,-0.1771,0.9132,-0.2831,0.7601,0.4114,-3.1412,1.085,-10.395,-10.975159481262008,-16.736143539762786,-103.40988958179021
-0.2843,-0.1762,0.9098,-0.2847,0.7594,0.4156,-3.3775,0.8925,-9.8787,-10.960754450477074,-17.040626354755737,-103.29610838845466
-0.2882,-0.1763,0.9195,-0.2847,0.7594,0.4156,-4.2962,1.3125,-9.7212,-10.854115467520653,-17.10640013716701,-103.25295316400134
-0.2811,-0.1794,0.9177,-0.285,0.7599,0.414,-3.1937,1.1725,-10.0537,-11.0606909612179,-16.749186182126373,-103.48778601014996
-0.2826,-0.1778,0.9171,-0.2837,0.7603,0.4112,-3.2638,1.225,-9.1087,-10.97214374852693,-16.827399850374313,-103.40640437832349
-0.2898,-0.1749,0.9107,-0.2837,0.7603,0.4112,-3.1325,1.3212,-9.7825,-10.871531544107144,-17.329663752489783,-103.18634013807434
-0.2812,-0.1778,0.9115,-0.2846,0.759,0.4133,-4.3137,1.3825,-9.8,-11.037295487549002,-16.86878364172267,-103.44016664011544
-0.2837,-0.1771,0.9174,-0.2846,0.759,0.4133,-3.395,1.1987,-10.15,-10.926554252438608,-16.889257757125133,-103.4009730716242
-0.2882,-0.1763,0.9127,-0.2838,0.7601,0.4129,-3.465,1.1112,-10.2725,-10.932770431502478,-17.209708421838577,-103.21969409036394
-0.2878,-0.178,0.911,-0.2831,0.7606,0.4123,-3.3338,1.0675,-10.15,-11.0554247285142,-17.225469955386252,-103.20856414178894
-0.281,-0.1756,0.914,-0.2831,0.7606,0.4123,-3.0363,1.12,-9.9925,-10.875723894019863,-16.81975264443161,-103.33335809845579
-0.2862,-0.1754,0.9078,-0.2829,0.7617,0.4122,-3.7975,1.1987,-9.3975,-10.935472085874698,-17.181854773299726,-103.17065100191881
-0.2838,-0.1778,0.9164,-0.2829,0.7617,0.4122,-3.6488,1.0325,-9.3625,-10.980004349449034,-16.92289692118881,-103.28955680286758
-0.2808,-0.1761,0.9129,-0.2864,0.7597,0.4081,-3.7888,1.2862,-9.4325,-10.918492663494964,-16.811019557338344,-103.6490688631834
-0.2858,-0.1767,0.9135,-0.283,0.7604,0.4102,-2.4237,1.4,-9.8437,-10.947557794270228,-17.06291107194601,-103.28576831974047
-0.2829,-0.1762,0.9144,-0.283,0.7604,0.4102,-2.0825,1.12,-10.1937,-10.90700283320063,-16.90611626062687,-103.34399159289568
-0.2827,-0.1766,0.9199,-0.2828,0.7581,0.4118,-3.2813,1.26,-9.8787,-10.867370188207415,-16.799295072780904,-103.35541117891657
-0.2871,-0.176,0.9073,-0.2828,0.7581,0.4118,-3.4825,1.7762,-9.8087,-10.977752997270017,-17.235135637460683,-103.20136417196012
-0.283,-0.1769,0.915,-0.2829,0.7599,0.4088,-3.4475,1.5137,-9.7562,-10.942269884184547,-16.907996459679474,-103.38363966534504
-0.2838,-0.1759,0.9121,-0.2818,0.7582,0.4117,-2.9663,1.4787,-9.9488,-10.915642926080338,-16.985168786382687,-103.22879191715072
-0.2873,-0.1773,0.9179,-0.2818,0.7582,0.4117,-3.6225,1.435,-10.0537,-10.932477455956416,-17.07845277969523,-103.19622737433505
-0.2849,-0.1761,0.9107,-0.283,0.7602,0.4102,-3.7625,1.2687,-10.0362,-10.944058083146569,-17.074367474984967,-103.28734723134578
-0.2849,-0.1773,0.9135,-0.283,0.7602,0.4102,-3.7713,1.4175,-10.22,-10.983803099511643,-17.02513367598313,-103.3151687238814
-0.2866,-0.174,0.9149,-0.2836,0.7592,0.4084,-3.4738,1.26,-9.6862,-10.768693786315739,-17.101594865274077,-103.3279959938657
-0.2846,-0.1761,0.916,-0.2838,0.7606,0.4126,-2.66,0.98,-9.7125,-10.88200979208563,-16.97372343974585,-103.30851614776687
-0.2837,-0.1773,0.9152,-0.2838,0.7606,0.4126,-3.3163,1.645,-10.0275,-10.963795241903423,-16.92875264781206,-103.34087689432957
-0.2843,-0.1761,0.9158,-0.2816,0.7588,0.4126,-3.5,1.4612,-9.7037,-10.884786980505327,-16.952860781294145,-103.19653371965003
-0.2833,-0.1774,0.9146,-0.2816,0.7588,0.4126,-3.64,1.2163,-9.4325,-10.97682639786066,-16.915578502949852,-103.23074913853212
-0.2836,-0.1762,0.9116,-0.2849,0.759,0.4106,-3.4913,1.3912,-9.5462,-10.939688753024308,-16.981915810257867,-103.44499844738284
-0.2867,-0.1754,0.9168,-0.2814,0.7611,0.4115,-3.4475,1.2075,-10.2462,-10.831072079731099,-17.069911520825002,-103.12456461121181
-0.2805,-0.1776,0.9113,-0.2814,0.7611,0.4115,-2.8525,1.0325,-10.3337,-11.027473020813703,-16.82250086375285,-103.26486077477044
-0.2874,-0.1751,0.9158,-0.2826,0.7588,0.4116,-3.4475,1.2163,-9.2925,-10.824736536511123,-17.11702145168574,-103.20093887299782
-0.2867,-0.1772,0.9132,-0.2826,0.7588,0.4116,-3.22,1.54,-10.1763,-10.981000165436836,-17.128829024794054,-103.23438990494421
-0.2829,-0.1779,0.9141,-0.2839,0.7606,0.4086,-3.57,1.2862,-10.1062,-11.01302704848737,-16.908788115403755,-103.45483040051411
-0.2842,-0.1771,0.9096,-0.2822,0.7603,0.4112,-4.13,1.2337,-9.6775,-11.017691279852016,-17.043463464883946,-103.23868376911784
-0.2847,-0.1767,0.9173,-0.2822,0.7603,0.4112,-3.3075,1.3387,-10.605,-10.903635886342297,-16.95376921356809,-103.25301529047822
-0.2831,-0.1772,0.914,-0.2818,0.7593,0.4106,-3.5,1.225,-10.2725,-10.971831268021079,-16.915121695841577,-103.28029857029944
-0.2835,-0.1757,0.915,-0.2818,0.7593,0.4106,-3.0363,1.1812,-10.22,-10.86997542875616,-16.923402015176762,-103.25533666358386
-0.2832,-0.1771,0.9166,-0.2813,0.7605,0.4079,-3.4038,0.9275,-10.4737,-10.93544134972003,-16.87776051774492,-103.30026461458179
-0.2834,-0.177,0.9109,-0.2834,0.759,0.4106,-3.2113,1.0937,-10.1587,-10.99615684174355,-16.978238853291902,-103.36310950548356
-0.2812,-0.1789,0.9146,-0.2834,0.759,0.4106,-3.5175,1.1725,-9.94,-11.067409586169212,-16.799310760199397,-103.45042082315389
-0.2835,-0.1766,0.9161,-0.2811,0.7592,0.4108,-3.6488,1.435,-9.6162,-10.91164470048284,-16.897568524444438,-103.22483213090109
-0.2867,-0.177,0.9149,-0.2811,0.7592,0.4108,-3.0888,1.0062,-10.185,-10.949299666798606,-17.09179358252251,-103.15699820885116
-0.2817,-0.1767,0.9157,-0.2819,0.7576,0.4112,-2.9575,1.1638,-9.8437,-10.92202292905293,-16.820732511964778,-103.32322627687829
-0.2857,-0.177,0.9091,-0.283,0.7606,0.4117,-3.7625,1.435,-10.0012,-11.017314483667018,-17.128464228753593,-103.23891492189169
-0.2844,-0.1774,0.9132,-0.283,0.7606,0.4117,-3.7538,1.715,-9.695,-10.993521192800085,-17.005454151759505,-103.28856744812668
-0.2814,-0.1759,0.9127,-0.2828,0.7605,0.4111,-3.1238,1.75,-10.29,-10.908777617543333,-16.851157410962813,-103.33193930281126
-0.2865,-0.1777,0.9146,-0.2828,0.7605,0.4111,-2.8612,1.2075,-10.1937,-10.9949519283481,-17.08148953509356,-103.25530783759856
-0.2851,-0.1771,0.9177,-0.2832,0.7611,0.407,-3.5,1.1462,-9.9137,-10.92297609522569,-16.96925259820314,-103.3966034732825
-0.2804,-0.1773,0.9116,-0.2845,0.7573,0.4139,-3.0975,1.4525,-9.9925,-11.00603490200553,-16.80874952174406,-103.45202544706491
-0.2841,-0.176,0.9115,-0.2845,0.7573,0.4139,-3.5438,1.4175,-10.605,-10.928835980864596,-17.006019331092816,-103.35386548342163
-0.283,-0.1748,0.9113,-0.2833,0.7597,0.4125,-3.8063,1.5662,-10.0187,-10.85840871955996,-16.963077854481533,-103.28734477762592
-0.2818,-0.1767,0.9132,-0.2833,0.7597,0.4125,-3.6488,1.4088,-9.8612,-10.950916004539135,-16.86008903537288,-103.34667135600435
-0.2869,-0.1765,0.9182,-0.2824,0.7609,0.4141,-3.2113,1.2775,-9.8875,-10.88106436212066,-17.048941556865824,-103.1493653309892
-0.2844,-0.1762,0.9128,-0.2825,0.7622,0.409,-2.9313,1.155,-10.2812,-10.925459489111955,-17.011800759027807,-103.27934751330008
-0.282,-0.1789,0.9201,-0.2825,0.7622,0.409,-3.3338,1.4437,-10.185,-11.002856618313691,-16.756739363164893,-103.39505456617907
-0.2831,-0.1776,0.9141,-0.2893,0.7619,0.4107,-3.2987,1.2337,-10.2025,-10.995003125417139,-16.903090059390635,-103.72408997319548
-0.287,-0.1767,0.9113,-0.2893,0.7619,0.4107,-3.5263,0.9713,-9.5113,-10.97346631494982,-17.167600380601638,-103.6177713931837
-0.2834,-0.1765,0.9123,-0.2831,0.761,0.4123,-3.6925,1.365,-10.15,-10.94962798552775,-16.970768143630547,-103.28297599251476
-0.2827,-0.1757,0.9147,-0.2822,0.76,0.4077,-3.6925,1.2163,-10.0537,-10.873394821657985,-16.887854059106882,-103.35127062565816
-0.2844,-0.1781,0.9118,-0.2822,0.76,0.4077,-3.1937,1.4262,-9.9137,-11.051883540488053,-17.014430536559757,-103.33687193570655
-0.2829,-0.1776,0.9172,-0.2822,0.7618,0.4121,-3.4388,1.33,-9.7825,-10.958945439101544,-16.854893317211484,-103.26635788993792
-0.284,-0.1785,0.917,-0.2822,0.7618,0.4121,-4.1825,1.505,-9.205,-11.015113053905077,-16.906687410368203,-103.25434780881237
-0.2852,-0.1754,0.9155,-0.2805,0.7603,0.4181,-3.7188,1.2075,-9.4587,-10.846230927664982,-17.007062269657535,-102.95987779454346
-0.2838,-0.1763,0.9146,-0.2812,0.7606,0.4137,-3.9288,1.4262,-9.6337,-10.910465875386482,-16.948377501172434,-103.13495968875758
-0.284,-0.1789,0.918,-0.2812,0.7606,0.4137,-3.3863,1.4875,-9.835,-11.027316696798941,-16.893911917047273,-103.17984377811503
-0.2864,-0.1752,0.917,-0.2834,0.7619,0.4109,-3.6663,1.5925,-9.5375,-10.816952422926352,-17.047025062566128,-103.25839894005416
-0.2847,-0.1759,0.9183,-0.2834,0.7619,0.4109,-2.9663,1.4787,-10.115,-10.843571576949415,-16.94043216439109,-103.30953481910022
-0.2833,-0.1773,0.9108,-0.2821,0.7582,0.4108,-3.3163,1.5487,-10.4475,-11.015254813531987,-16.976390002863734,-103.29204722194876
-0.2857,-0.1773,0.9116,-0.2826,0.7599,0.4162,-3.5963,2.0825,-10.0625,-11.006253912885116,-17.09400974644609,-103.1373213048934
-0.2865,-0.1771,0.9153,-0.2826,0.7599,0.4162,-3.115,1.2337,-10.3337,-10.950885487277791,-17.083364596301173,-103.13225145221844
-0.2832,-0.1767,0.9145,-0.2857,0.7614,0.4137,-3.5,0.91,-9.8875,-10.93597993692407,-16.919951315619535,-103.42650395773416
-0.2847,-0.1766,0.9108,-0.2857,0.7614,0.4137,-4.4713,1.1112,-9.8262,-10.97314139516756,-17.053060403936055,-103.3781565712782
-0.2866,-0.1748,0.9168,-0.2831,0.7601,0.4098,-2.8525,1.1025,-10.3075,-10.79505928211797,-17.069728572397167,-103.27410610927397
-0.2832,-0.1782,0.9162,-0.2831,0.7606,0.4113,-2.6513,1.0587,-10.1325,-11.006052359352623,-16.88752200573852,-103.35191123242174
-0.2832,-0.1765,0.9149,-0.2831,0.7606,0.4113,-3.1675,1.0237,-10.1062,-10.919409398389215,-16.905158695071385,-103.32378727375905
-0.2822,-0.1756,0.9151,-0.2849,0.7587,0.411,-3.465,1.26,-10.3425,-10.862670069454472,-16.851864044825664,-103.47599591632891
-0.2829,-0.1781,0.9107,-0.2849,0.7587,0.411,-3.6138,0.8663,-10.2812,-11.06484707835692,-16.949921507167435,-103.47736728083188
-0.2856,-0.1779,0.9166,-0.2827,0.7601,0.409,-3.4388,1.365,-10.08,-10.983989394923798,-17.005026885299614,-103.32950609297524
-0.2841,-0.1769,0.9165,-0.2814,0.7601,0.4088,-3.9113,1.4875,-8.9775,-10.924848961458132,-16.932069119391656,-103.26959480777394
-0.2836,-0.1774,0.9135,-0.2814,0.7601,0.4088,-2.8438,1.12,-10.535,-10.989787711695925,-16.948372023344117,-103.27518872641907
-0.2849,-0.1762,0.9129,-0.2841,0.7578,0.4118,-3.5,1.4962,-9.9575,-10.924552376867311,-17.03231294848213,-103.35983000904089
-0.2858,-0.1762,0.9175,-0.2841,0.7578,0.4118,-2.9663,1.1112,-9.94,-10.871061620832688,-17.010389960698706,-103.35932049726087
-0.2822,-0.1764,0.9151,-0.2817,0.7594,0.4086,-3.36,1.4175,-9.9225,-10.910743002666067,-16.854375654033067,-103.32901825628164
-0.2858,-0.1764,0.9146,-0.2817,0.7594,0.4134,-3.7975,1.5225,-9.4412,-10.916644928829527,-17.04805597653282,-103.14539938784888
-0.2871,-0.1754,0.9086,-0.2842,0.7611,0.4134,-4.0775,1.1287,-9.5812,-10.92619497768621,-17.22788863110287,-103.21634014454348
-0.2839,-0.1745,0.9146,-0.2824,0.7594,0.4125,-2.9838,1.2775,-10.3863,-10.80215182178741,-16.969584824707052,-103.2239892412408
-0.2841,-0.1793,0.9105,-0.2824,0.7594,0.4125,-3.4038,1.3562,-10.3075,-11.139608358990841,-17.01934962819514,-103.26908322361142
-0.2865,-0.1759,0.9114,-0.2798,0.7602,0.4134,-3.3863,1.4,-10.2812,-10.924274267235893,-17.146847060933673,-102.98154710733094
-0.2844,-0.1767,0.9171,-0.2798,0.7602,0.4134,-3.5175,1.225,-9.5637,-10.905729382812332,-16.945710496476536,-103.06055913980367
-0.2802,-0.1785,0.9143,-0.2833,0.7612,0.4134,-3.2375,1.1725,-10.1062,-11.046641543910344,-16.75005366411049,-103.37231784055723
-0.2858,-0.1779,0.9159,-0.2832,0.7597,0.4114,-3.1675,1.3825,-9.7737,-10.992116877847545,-17.01759236568668,-103.30600540075793
-0.283,-0.1762,0.9139,-0.2832,0.7597,0.4114,-3.2462,1.68,-9.9225,-10.912919054046032,-16.91753431803313,-103.33456717762836
-0.2832,-0.1735,0.9132,-0.284,0.7605,0.4134,-3.5788,1.7237,-10.1062,-10.757851928029575,-16.943036829525035,-103.2882394910307
-0.286,-0.1749,0.9102,-0.284,0.7605,0.4134,-3.5875,1.3475,-9.45,-10.876838335978022,-17.13909370362171,-103.23426073342226
-0.2835,-0.1771,0.9167,-0.2832,0.7598,0.4156,-2.4325,1.3387,-9.94,-10.934296552563728,-16.902379935745685,-103.2548736996248
-0.2818,-0.1786,0.9151,-0.2816,0.7604,0.4109,-2.9925,1.1375,-10.1412,-11.04332884438964,-16.820977975574298,-103.29938791823825
-0.2879,-0.1771,0.9101,-0.2816,0.7604,0.4109,-3.5438,0.7263,-9.0738,-11.01187228951431,-17.230768189122205,-103.12918822087828
-0.2842,-0.1762,0.9118,-0.2845,0.759,0.4113,-3.4825,0.805,-9.6075,-10.937435870135666,-17.0254857491163,-103.39235468226155
-0.2837,-0.1764,0.9088,-0.2845,0.759,0.4113,-2.8525,1.3475,-9.4237,-10.984528088179408,-17.03713219458868,-103.39397527766752
-0.2834,-0.177,0.913,-0.2857,0.7595,0.4111,-2.5375,1.3825,-10.08,-10.971653656554553,-16.951833519576418,-103.4994480168626
-0.2849,-0.1779,0.9155,-0.2838,0.76,0.4103,-3.0975,1.0675,-9.87,-10.99661334977499,-16.985341686577765,-103.38195171870197
-0.2869,-0.1765,0.9131,-0.2838,0.76,0.4103,-3.29,0.98,-9.7212,-10.940343375589869,-17.13733598417149,-103.31038909223328
-0.282,-0.1742,0.9162,-0.2826,0.7587,0.4117,-3.3163,1.1812,-10.1763,-10.765746050506177,-16.83862755067705,-103.30578363349309
-0.2848,-0.1773,0.9151,-0.2826,0.7587,0.4117,-3.8937,1.1287,-9.555,-10.964684848582703,-16.9830270013824,-103.28315706776128
-0.2822,-0.1768,0.916,-0.2832,0.7602,0.4115,-3.3513,1.505,-10.2375,-10.924592883070753,-16.837541018169098,-103.36015047997225
-0.2867,-0.1761,0.9145,-0.2823,0.7596,0.4118,-3.01,0.9538,-10.2987,-10.899760470669598,-17.098345693177308,-103.19208311798174
-0.2854,-0.1781,0.915,-0.2823,0.7596,0.4118,-2.905,1.2775,-10.29,-11.014329828364835,-17.026369600429867,-103.24931602004166
-0.2839,-0.177,0.9149,-0.2812,0.7598,0.4122,-3.5088,1.0062,-9.765,-10.949543496345141,-16.947591815205715,-103.18567302145584
-0.2871,-0.1776,0.917,-0.2812,0.7598,0.4122,-3.0275,1.2512,-10.1325,-10.961029108412784,-17.07962683003992,-103.13386899781943
-0.2832,-0.1766,0.9145,-0.2841,0.759,0.4109,-3.2288,1.0325,-10.2725,-10.929978439784263,-16.920132915308148,-103.41369226999998
-0.2845,-0.1759,0.9128,-0.2847,0.7606,0.4105,-3.535,1.3562,-9.7825,-10.90746323500694,-17.012083754776015,-103.39742380432145
-0.286,-0.1756,0.9166,-0.2847,0.7606,0.4105,-3.36,0.8487,-9.9225,-10.845328427970655,-17.036496625656294,-103.37657931645323
-0.2827,-0.1768,0.9091,-0.2829,0.7602,0.4116,-3.5438,1.085,-9.8175,-11.005016179794785,-16.977563929866708,-103.30100842463894
-0.2812,-0.177,0.9154,-0.2829,0.7602,0.4116,-2.52,1.0762,-9.6775,-10.943698671122219,-16.79239106132039,-103.3607897704146
-0.2822,-0.177,0.916,-0.2816,0.7574,0.4083,-2.9575,1.0762,-10.0012,-10.936574593891882,-16.827960049007807,-103.36434887562484
-0.2871,-0.1763,0.9145,-0.2815,0.7589,0.4113,-3.5263,1.225,-9.5637,-10.911842298549738,-17.118543963113332,-103.15490847059314
-0.2857,-0.1768,0.9149,-0.2815,0.7589,0.4113,-3.4738,1.1462,-9.59,-10.93725508012681,-17.049039276630616,-103.19322036037092
-0.2844,-0.1774,0.9127,-0.282,0.7594,0.4106,-2.5813,0.8575,-10.0712,-10.999193005139961,-17.009641835262826,-103.26154199838142
-0.2852,-0.1779,0.9162,-0.282,0.7594,0.4106,-2.765,1.505,-9.8525,-10.988500983147869,-16.992856914056883,-103.26531346311627
-0.283,-0.1766,0.9145,-0.2851,0.7598,0.4125,-3.08,0.8663,-10.64,-10.930043604160632,-16.905350673860408,-103.43678742263495
-0.2855,-0.1759,0.9143,-0.2843,0.7597,0.411,-3.6663,1.05,-9.835,-10.890038419876491,-17.0409338410224,-103.35655696798771
-0.287,-0.1771,0.9152,-0.2843,0.7597,0.411,-4.2263,1.0937,-9.6775,-10.951774137322143,-17.10929413152734,-103.34451843059873
-0.2813,-0.1782,0.9134,-0.2802,0.7602,0.4119,-3.8063,1.155,-9.3013,-11.039257881993612,-16.832068720348992,-103.190630498795
-0.2835,-0.176,0.9127,-0.2802,0.7602,0.4119,-3.4825,1.5925,-9.45,-10.914924721195563,-16.9554556227557,-103.11063211187304
-0.2849,-0.1758,0.9156,-0.2844,0.761,0.4113,-3.4388,1.05,-9.485,-10.868924542786694,-16.99042500575513,-103.35751813005992
-0.2827,-0.1768,0.9161,-0.283,0.7589,0.4142,-2.8087,1.0412,-9.7125,-10.923204615525314,-16.862962124257436,-103.2940017672536
-0.2827,-0.1782,0.9138,-0.283,0.7589,0.4142,-2.9663,1.3212,-9.555,-11.034488004839657,-16.889487830627047,-103.30361184086226
-0.2851,-0.1758,0.9204,-0.2829,0.7597,0.4118,-3.9375,1.6013,-9.8262,-10.813998153020611,-16.92113899814487,-103.28280826745305
-0.2812,-0.178,0.9097,-0.2829,0.7597,0.4118,-3.1238,1.3212,-10.3775,-11.070515453928342,-16.8778340855779,-103.35329720582929
-0.2843,-0.1763,0.9152,-0.2842,0.7603,0.4168,-2.8087,1.3387,-10.185,-10.90403328681804,-16.9594935644347,-103.25169870730082
-0.2846,-0.1755,0.9151,-0.2837,0.7585,0.4099,-3.4038,1.5225,-9.45,-10.856608966579865,-16.983468945368827,-103.37380198003923
-0.2832,-0.1764,0.9151,-0.2837,0.7585,0.4099,-3.2987,1.68,-9.3187,-10.910708702610428,-16.906809023395894,-103.41609602344283
-0.2847,-0.1762,0.9149,-0.2814,0.7597,0.4129,-3.99,1.3212,-9.5113,-10.901111610782536,-16.98742814911126,-103.15621646324611
-0.2823,-0.1774,0.917,-0.2814,0.7597,0.4129,-3.1675,1.0675,-10.01,-10.948897684091014,-16.82519245121624,-103.23217549399078
-0.2822,-0.1779,0.9148,-0.2819,0.7588,0.4142,-3.3075,1.54,-10.1412,-11.00474904083019,-16.84581434457655,-103.24612695351263
-0.2827,-0.1778,0.9166,-0.2809,0.7609,0.4088,-3.6575,1.3212,-9.6862,-10.97783689741633,-16.84522096063704,-103.2709623901505
-0.2855,-0.1748,0.913,-0.2809,0.7609,0.4088,-3.2288,1.0675,-10.22,-10.838833006660733,-17.062595050333037,-103.15628833223816
-0.2811,-0.175,0.9137,-0.2853,0.762,0.4108,-3.0363,1.155,-9.7825,-10.842484667558086,-16.824225259302207,-103.47599926269325
-0.284,-0.1768,0.9161,-0.2853,0.762,0.4108,-3.5525,0.9975,-9.9225,-10.923141575561106,-16.925007480729693,-103.44830082710133
-0.2851,-0.1758,0.9163,-0.2813,0.7606,0.4129,-3.4213,1.4088,-9.7388,-10.860857701543578,-16.98842620972223,-103.1312279755125
-0.2802,-0.1774,0.9083,-0.2813,0.7599,0.4102,-3.255,1.0412,-10.3512,-11.05086247488625,-16.85126389858773,-103.29254977555374
-0.2844,-0.179,0.9124,-0.2822,0.7599,0.4102,-2.7388,0.9975,-10.4825,-11.099535820030532,-17.000333761509005,-103.29804281830161
-0.2844,-0.1771,0.9143,-0.283,0.7602,0.4121,-2.6688,1.3737,-10.1062,-10.96276596444968,-16.9825749009486,-103.28481449462254
-0.2827,-0.1782,0.916,-0.283,0.7602,0.4121,-3.6488,1.155,-9.87,-11.008788575544209,-16.859898061881406,-103.3427986253344
-0.2833,-0.176,0.9113,-0.2836,0.7593,0.4145,-3.9288,1.2163,-9.5288,-10.931177835252242,-16.968665381393983,-103.27719561584134
-0.2856,-0.1739,0.9109,-0.2836,0.7593,0.4067,-3.0625,1.5575,-10.0625,-10.808577720148477,-17.11042721582913,-103.36787338098597
-0.2844,-0.1746,0.9105,-0.2839,0.7614,0.4067,-2.5375,1.2163,-10.0012,-10.855304608425504,-17.056871246029285,-103.39581937104325
-0.2841,-0.1792,0.9181,-0.2834,0.76,0.4121,-3.1063,1.4875,-10.01,-11.04401035390839,-16.90184927920933,-103.36240140605028
-0.2858,-0.1787,0.912,-0.2834,0.76,0.4121,-3.1238,1.1112,-10.1587,-11.086149250876309,-17.085276276907006,-103.29527684245372
-0.2826,-0.1762,0.9112,-0.2856,0.7587,0.407,-3.36,1.4875,-10.185,-10.944623536979615,-16.942544716040832,-103.5910483903807
-0.2841,-0.177,0.9189,-0.2826,0.7623,0.411,-3.57,1.3562,-10.2725,-10.902970105315797,-16.89049304672064,-103.2828393569146
-0.2849,-0.1794,0.9163,-0.2826,0.7623,0.411,-3.6575,1.3387,-9.9925,-11.077249825411828,-16.96492047943903,-103.28811150132594
-0.2861,-0.176,0.9182,-0.2843,0.7605,0.4118,-3.7013,1.0937,-9.8612,-10.851344973331914,-17.01267767951719,-103.33391814139264
-0.2851,-0.1768,0.9146,-0.2843,0.7605,0.4118,-3.7975,1.1025,-9.6075,-10.940603918578947,-17.016794921188296,-103.35173264123074
-0.2844,-0.1764,0.9123,-0.2827,0.7602,0.4106,-3.7713,1.2163,-9.3975,-10.943510375415435,-17.017757907455962,-103.28112693079453
-0.2838,-0.1757,0.9111,-0.2827,0.7602,0.4106,-3.2025,1.0762,-9.8175,-10.915213520532085,-17.007099774607923,-103.27945126564316
-0.2855,-0.1768,0.9129,-0.2837,0.7602,0.4114,-3.3163,0.9887,-9.9312,-10.960589561330435,-17.065475886016884,-103.31081960298965
-0.2839,-0.1794,0.9162,-0.2865,0.7595,0.4114,-3.1238,1.1725,-10.0537,-11.07856347379144,-16.921137130274996,-103.57761218272223
-0.2839,-0.1772,0.9133,-0.2865,0.7595,0.4114,-3.9988,1.2163,-9.8087,-10.980432752940427,-16.967814117911644,-103.53655994094846
-0.2807,-0.177,0.9163,-0.284,0.7602,0.4138,-4.0513,1.2075,-9.9925,-10.933175952016457,-16.75085539242222,-103.3970553026576
-0.2852,-0.1753,0.9117,-0.284,0.7602,0.4138,-3.8063,1.05,-9.7388,-10.884012550940378,-17.061639901714493,-103.25812856607813
-0.2868,-0.1757,0.9145,-0.2808,0.7586,0.4105,-3.71,1.1462,-9.5113,-10.875554631531681,-17.115243349760743,-103.12980203156637
-0.2855,-0.175,0.9148,-0.2842,0.7602,0.4118,-3.3075,0.9275,-9.5812,-10.829873022833825,-17.045329573039474,-103.31633293435584
-0.2868,-0.1768,0.9138,-0.2842,0.7602,0.4118,-3.0538,1.3037,-9.8262,-10.949878029226314,-17.122369139603364,-103.30929972588208
-0.2855,-0.1785,0.9102,-0.2841,0.7589,0.412,-2.765,1.1987,-9.3625,-11.09516056767281,-17.1092258882756,-103.35058641904938
-0.2838,-0.1772,0.9188,-0.2841,0.7589,0.412,-3.0975,1.4088,-9.5113,-10.916479247129807,-16.88328261618519,-103.40367549867909
-0.2832,-0.1788,0.9088,-0.2832,0.7575,0.4115,-2.975,1.225,-9.4412,-11.129875850898495,-16.995940104882095,-103.36909018200453
-0.2841,-0.1779,0.9129,-0.2822,0.7582,0.4106,-3.4213,1.1812,-9.2575,-11.027469115953195,-16.986289788124946,-103.30226968791541
-0.2842,-0.1756,0.9141,-0.2822,0.7582,0.4106,-3.8588,1.5662,-8.7237,-10.87449966807208,-16.97906073474343,-103.27337654487526
-0.2851,-0.1784,0.91,-0.2834,0.7606,0.413,-3.92,0.9363,-9.5725,-11.091304109361268,-17.084660981920518,-103.27139583598444
-0.2851,-0.1765,0.9112,-0.2834,0.7606,0.413,-2.7037,0.91,-10.5962,-10.962774910540714,-17.076042143750087,-103.24988418887096
-0.2839,-0.1763,0.9165,-0.2833,0.7621,0.4131,-2.8963,1.5487,-10.0625,-10.888717419333846,-16.92658318882176,-103.26849264723974
-0.2838,-0.177,0.9151,-0.2842,0.7605,0.4105,-3.2375,1.2687,-9.7475,-10.946915525341748,-16.934408236225917,-103.40619639745027
-0.2838,-0.1762,0.9145,-0.2842,0.7605,0.4105,-3.4563,1.5662,-9.5462,-10.905840323236914,-16.946870087951147,-103.39306046616792
-0.2844,-0.1758,0.9182,-0.281,0.76,0.4119,-3.29,1.4088,-10.2375,-10.83892784516301,-16.92157569542399,-103.16362703200981
-0.2849,-0.1778,0.9142,-0.281,0.76,0.4119,-3.5438,1.1375,-10.2725,-11.005492693833636,-17.00515982031553,-103.16407079363499
-0.2863,-0.1768,0.9148,-0.2837,0.7598,0.4153,-3.4913,0.9538,-10.3162,-10.938641512546418,-17.07757352714733,-103.22043405657672
-0.2833,-0.1767,0.9149,-0.2813,0.7592,0.4123,-3.7362,1.1725,-10.045,-10.93129588975744,-16.91873617931021,-103.20544179945881
-0.2822,-0.1769,0.9132,-0.2813,0.7592,0.4123,-3.64,1.4,-9.7212,-10.963155458071464,-16.87888898863699,-103.22493791776199
-0.2851,-0.1756,0.9152,-0.283,0.7603,0.4114,-3.605,1.0325,-9.2487,-10.861618135390719,-17.004671715617846,-103.26695729270492
-0.2824,-0.1773,0.9159,-0.283,0.7603,0.4114,-3.57,1.1375,-9.3975,-10.955589435584207,-16.849206661399165,-103.35062432562577
-0.2838,-0.1767,0.9119,-0.2825,0.7609,0.4125,-4.1038,1.3037,-9.6425,-10.966344345767064,-16.983181999794045,-103.23437959623406
-0.2846,-0.1771,0.9132,-0.287,0.7597,0.4145,-3.2025,1.715,-10.3162,-10.975304032052803,-17.010191244793322,-103.48074163225505
-0.284,-0.1774,0.9189,-0.287,0.7597,0.4145,-3.0975,1.7062,-10.2812,-10.927032537431804,-16.887194246941586,-103.52121277844236
-0.2855,-0.1767,0.9116,-0.2821,0.7598,0.4122,-2.8963,1.4262,-9.905,-10.969789734718987,-17.081145271648605,-103.19091183007701
-0.2847,-0.1766,0.9194,-0.2821,0.7598,0.4122,-2.8438,1.4175,-10.2375,-10.873274464821627,-16.9223190524215,-103.23778437755311
-0.2863,-0.1773,0.9202,-0.283,0.7607,0.4148,-3.4738,1.3212,-10.29,-10.90577085778335,-16.985284140686396,-103.20595237902302
-0.2852,-0.176,0.9128,-0.2835,0.7602,0.409,-3.5,1.505,-10.0625,-10.913443409651949,-17.052395529184782,-103.34571022798829
-0.284,-0.1777,0.9141,-0.2835,0.7602,0.409,-3.8238,1.33,-10.22,-11.000816114173212,-16.96489512146663,-103.39980672833232
-0.2865,-0.1767,0.9127,-0.2828,0.7607,0.4122,-3.36,1.085,-9.695,-10.957094555280433,-17.120757406645325,-103.20747377751772
-0.2838,-0.1771,0.9162,-0.2828,0.7607,0.4122,-3.36,0.8925,-10.0275,-10.940296321497437,-16.925383535160158,-103.28459934019912
-0.2827,-0.1753,0.9135,-0.2864,0.7595,0.4102,-3.08,0.9975,-10.3687,-10.863143563069377,-16.906193428145745,-103.55694044568575
-0.2858,-0.1767,0.9114,-0.2848,0.7602,0.412,-2.5113,1.3825,-10.535,-10.97198170146878,-17.101420588815696,-103.35317320361355
-0.2839,-0.1751,0.9176,-0.2848,0.7602,0.412,-3.5438,1.855,-9.9488,-10.803920983759935,-16.91401715057896,-103.39715761254891
-0.2866,-0.1755,0.9149,-0.283,0.7597,0.4131,-4.025,1.2337,-9.7475,-10.858682371016469,-17.09178041941371,-103.20200922491294
