AcclX,AcclY,AcclZ,MagX,MagY,MagZ,GyroX,GyroY,GyroZ,Roll,Pitch,Yaw,Time(s)
-0.1372,0.9766,0.0656,-0.1782,0.2297,0.0127,-2.415,1.61,-15.8375,0,0,0,1.6192024479516525
-0.1318,0.9514,0.0646,-0.1778,0.2294,0.0151,-2.2488,1.2862,-15.5662,0,0,0,1.6316517232421628
-0.1409,0.9504,0.067,-0.1778,0.2294,0.0151,-2.6775,0.98,-15.8725,0,0,0,1.6434540439263774
-0.1397,0.9747,0.0715,-0.1784,0.2302,0.0159,-2.8788,0.945,-16.17,0,0,0,1.655581611483232
-0.1391,0.9728,0.0694,-0.1784,0.2302,0.0159,-2.8788,0.945,-16.17,0,0,0,1.667617515340398
-0.1372,0.975,0.0703,-0.1782,0.2291,0.0149,-2.4675,1.1725,-16.0825,0,0,0,1.679744728983354
-0.1406,0.9758,0.0735,-0.1782,0.2291,0.0149,-4.3137,0.8575,-15.6712,0,0,0,1.691862386951053
-0.1391,0.9727,0.0687,-0.1794,0.2291,0.0156,-2.4325,0.9275,-15.8025,0,0,0,1.7012389817755578
-0.1388,0.975,0.0674,-0.1786,0.2295,0.0147,-2.5113,1.2337,-15.75,0,0,0,1.7136489726233444
-0.1376,0.9749,0.0719,-0.1786,0.2295,0.0147,-1.96,1.2425,-15.4612,0,0,0,1.7254268732485687
-0.14,0.9761,0.0747,-0.1791,0.2264,0.0151,-2.4675,1.26,-15.7937,0,0,0,1.7375176337599882
-0.1394,0.9751,0.0702,-0.1791,0.2264,0.0151,-2.1788,1.4088,-16.0125,0,0,0,1.749646970886335
-0.1406,0.9742,0.0709,-0.1802,0.2283,0.0175,-2.1,1.2337,-16.2575,0,0,0,1.7617111878553737
-0.1358,0.9749,0.0692,-0.1802,0.2283,0.0175,-1.9425,1.7587,-15.7412,0,0,0,1.7738185823200188
-0.1366,0.9749,0.0724,-0.179,0.2295,0.0133,-2.205,1.4612,-15.4,0,0,0,1.785864041852442
-0.1371,0.9762,0.0697,-0.1787,0.2301,0.0166,-1.855,1.2687,-15.7675,0,0,0,1.795347518674267
-0.1382,0.9756,0.0714,-0.1787,0.2301,0.0166,-2.345,0.9625,-15.7675,0,0,0,1.807422353060258
-0.1382,0.9746,0.066,-0.1784,0.2302,0.0168,-2.9313,0.805,-15.295,0,0,0,1.8194755986984463
-0.1394,0.9756,0.072,-0.1784,0.2302,0.0168,-2.7825,0.9975,-15.4437,0,0,0,1.831613783672253
-0.1379,0.9748,0.0662,-0.1795,0.2279,0.0186,-2.4588,1.2512,-15.6012,0,0,0,1.8437371042623267
-0.1401,0.9767,0.0683,-0.1788,0.2294,0.0157,-1.9162,1.295,-15.9775,0,0,0,1.8558459143825654
-0.1424,0.9742,0.0708,-0.1788,0.2294,0.0157,-2.1438,0.7175,-15.3825,0,0,0,1.8679674654031468
-0.1382,0.9751,0.0712,-0.1791,0.2295,0.0142,-2.1963,1.085,-15.1637,0,0,0,1.8773207019103564
-0.1358,0.9758,0.0692,-0.1791,0.2295,0.0142,-2.695,0.8925,-15.61,0,0,0,1.8893707623234588
-0.1399,0.9764,0.0684,-0.1785,0.2301,0.0163,-2.03,1.0412,-16.31,0,0,0,1.9015393838925292
-0.1377,0.9751,0.0692,-0.179,0.2294,0.0159,-1.2775,1.0762,-16.4762,0,0,0,1.9136368687680188
-0.1383,0.9757,0.0721,-0.179,0.2294,0.0159,-2.2925,1.435,-16.4062,0,0,0,1.925709225756721
-0.1388,0.9745,0.0701,-0.1769,0.2298,0.015,-2.7037,1.6625,-15.6975,0,0,0,1.9378219289298422
-0.1413,0.9757,0.0657,-0.1769,0.2298,0.015,-2.4938,1.1638,-15.8287,0,0,0,1.949947019089408
-0.1387,0.9754,0.0717,-0.1799,0.2301,0.0104,-2.765,1.5137,-15.7675,0,0,0,1.9619903551384406
-0.1395,0.9751,0.0663,-0.1781,0.2286,0.0146,-2.3187,1.3475,-15.5575,0,0,0,1.9714840954633193
-0.14,0.9734,0.0723,-0.1781,0.2286,0.0146,-1.82,1.26,-15.8112,0,0,0,1.9835097358174314
-0.1398,0.9755,0.07,-0.18,0.2298,0.015,-2.3363,0.8925,-16.065,0,0,0,1.9956355338047937
-0.1374,0.9756,0.0703,-0.18,0.2298,0.015,-1.9075,1.0062,-16.4762,0,0,0,2.00773160302469
-0.1366,0.9753,0.0709,-0.177,0.2311,0.0133,-2.5025,1.61,-15.8025,0,0,0,2.0198397053171315
-0.1412,0.9749,0.0698,-0.1791,0.2289,0.0123,-1.9687,1.505,-16.0387,0,0,0,2.0319166631865135
-0.1371,0.9746,0.0692,-0.1791,0.2289,0.0123,-2.0475,1.1812,-16.2663,0,0,0,2.0440311359291266
-0.1383,0.9758,0.074,-0.1784,0.2288,0.0143,-2.0038,1.1725,-16.1788,0,0,0,2.0534119777204123
-0.1383,0.9739,0.0688,-0.1784,0.2288,0.0143,-1.6712,1.1287,-16.0212,0,0,0,2.0655331748270953
-0.1383,0.9749,0.0681,-0.1779,0.2285,0.0193,-1.5487,1.5487,-15.7762,0,0,0,2.0776674667480197
-0.1391,0.973,0.0727,-0.1789,0.2302,0.0168,-2.0475,1.5925,-15.96,0,0,0,2.089706555830271
-0.1387,0.9753,0.0647,-0.1789,0.2302,0.0168,-2.24,1.2512,-15.8112,0,0,0,2.101801563308472
-0.1399,0.9761,0.0702,-0.1764,0.2279,0.0161,-2.0563,0.9275,-15.8463,0,0,0,2.113952489182622
-0.1385,0.9745,0.067,-0.1764,0.2279,0.0161,-2.3975,1.2163,-15.7587,0,0,0,2.126069439322524
-0.1422,0.9761,0.0675,-0.1794,0.229,0.0163,-2.5288,1.365,-15.9687,0,0,0,2.1353975479429463
-0.1371,0.9745,0.067,-0.1794,0.229,0.0163,-2.6338,0.875,-15.8812,0,0,0,2.1474946789045375
-0.141,0.9758,0.0697,-0.1776,0.2294,0.0173,-2.415,0.945,-15.7675,0,0,0,2.159641003898008
-0.1376,0.9744,0.0724,-0.1786,0.2282,0.0142,-2.38,1.2775,-16.4412,0,0,0,2.171750167932145
-0.1391,0.9758,0.0695,-0.1786,0.2282,0.0142,-2.625,1.3125,-15.1025,0,0,0,2.1838384510462756
-0.1377,0.9747,0.0681,-0.1795,0.228,0.0153,-2.415,1.5137,-15.5137,0,0,0,2.195896297565143
-0.1401,0.9751,0.0656,-0.1795,0.228,0.0153,-2.38,1.19,-15.5575,0,0,0,2.2080178485857247
-0.1372,0.9759,0.0698,-0.1774,0.2283,0.0162,-2.975,1.365,-16.1175,0,0,0,2.2201326752422363
-0.1413,0.9737,0.0649,-0.18,0.229,0.0159,-2.485,1.505,-16.1875,0,0,0,2.2295499701650585
-0.1391,0.974,0.0667,-0.18,0.229,0.0159,-2.6338,1.0325,-15.8987,0,0,0,2.2415841044527323
-0.1385,0.9741,0.072,-0.1794,0.2317,0.0157,-3.0013,1.435,-15.4088,0,0,0,2.2537272442211167
-0.1381,0.9756,0.0688,-0.1794,0.2317,0.0157,-2.73,1.2687,-15.8112,0,0,0,2.2658254369244033
-0.1375,0.9738,0.0693,-0.1766,0.2299,0.0144,-2.3538,1.4,-15.925,0,0,0,2.277942740978204
-0.1411,0.975,0.068,-0.177,0.229,0.0154,-2.1963,1.645,-15.645,0,0,0,2.2899814761465573
-0.136,0.9753,0.0689,-0.177,0.229,0.0154,-2.9838,1.715,-16.065,0,0,0,2.302118953292567
-0.1393,0.9751,0.0711,-0.1782,0.2305,0.0156,-3.0275,1.4525,-15.9162,0,0,0,2.3114941324614784
-0.1401,0.975,0.0702,-0.1782,0.2305,0.0156,-2.5988,0.875,-16.0737,0,0,0,2.323616745223755
-0.1415,0.9747,0.0696,-0.1789,0.23,0.0145,-2.695,1.015,-16.4587,0,0,0,2.3357372345026413
-0.139,0.9755,0.0722,-0.179,0.2301,0.0166,-2.87,1.33,-15.8638,0,0,0,2.3478106532330387
-0.1376,0.9745,0.0737,-0.179,0.2301,0.0166,-2.7738,1.05,-15.715,0,0,0,2.3598720388908903
-0.1352,0.975,0.0697,-0.1802,0.2302,0.0146,-3.0625,1.6975,-15.47,0,0,0,2.3720257960762274
-0.1377,0.974,0.0697,-0.1802,0.2302,0.0146,-3.3513,1.2862,-15.4525,0,0,0,2.384143100130028
-0.139,0.9763,0.0698,-0.1777,0.2297,0.0194,-2.7213,0.5775,-16.1087,0,0,0,2.3962069631851683
-0.1384,0.9736,0.073,-0.1774,0.2307,0.0134,-2.9488,0.8663,-15.9687,0,0,0,2.405563738831362
-0.1361,0.9747,0.0708,-0.1774,0.2307,0.0134,-2.765,1.1638,-16.0912,0,0,0,2.4177153725333085
-0.1384,0.9742,0.07,-0.18,0.2293,0.0162,-2.905,1.3562,-15.82,0,0,0,2.4298613436128806
-0.1402,0.9755,0.0686,-0.18,0.2293,0.0162,-2.485,0.8575,-15.3212,0,0,0,2.4419375936544654
-0.1384,0.9742,0.0731,-0.1798,0.2312,0.0163,-2.3975,1.155,-15.4175,0,0,0,2.4539996871401137
-0.1387,0.975,0.0653,-0.1798,0.2288,0.0156,-2.7913,1.5312,-15.295,0,0,0,2.4661247772996795
-0.1399,0.9748,0.0709,-0.1798,0.2288,0.0156,-2.7562,1.2862,-15.6887,0,0,0,2.4782466822341593
-0.1384,0.9754,0.0693,-0.179,0.2288,0.0153,-3.0888,1.0587,-15.575,0,0,0,2.4876140752973055
-0.1383,0.9767,0.07,-0.179,0.2288,0.0153,-2.9663,1.1025,-15.715,0,0,0,2.4996648435382047
-0.1387,0.9752,0.0744,-0.1769,0.231,0.0147,-3.0625,1.4437,-15.855,0,0,0,2.5118132920150655
-0.1377,0.9753,0.0709,-0.1769,0.231,0.0147,-2.6163,1.6538,-15.7062,0,0,0,2.5239114847183517
-0.1382,0.9753,0.0725,-0.1798,0.2291,0.0142,-1.995,1.0675,-15.7762,0,0,0,2.5360132165606224
-0.1381,0.9742,0.0685,-0.1799,0.2299,0.0154,-2.415,1.3037,-15.995,0,0,0,2.5481000840191594
-0.1385,0.9752,0.0733,-0.1799,0.2299,0.0154,-2.5638,1.0675,-15.5925,0,0,0,2.560161115763113
-0.1372,0.9737,0.0744,-0.1778,0.2298,0.0185,-2.4325,1.1375,-15.82,0,0,0,2.5722490449633453
-0.1368,0.9753,0.0681,-0.1778,0.2298,0.0185,-2.4938,1.5225,-15.5225,0,0,0,2.581699607792618
-0.1373,0.9746,0.0726,-0.1798,0.2294,0.0166,-2.5025,1.155,-15.4612,0,0,0,2.5938823859176243
-0.1399,0.9741,0.0681,-0.1771,0.2297,0.0154,-2.2662,1.0675,-15.3475,0,0,0,2.6058882070934253
-0.139,0.9755,0.0692,-0.1771,0.2297,0.0154,-2.5288,1.2775,-15.4962,0,0,0,2.617938975334325
-0.139,0.9761,0.0708,-0.1792,0.2287,0.0151,-2.5988,1.1987,-15.3737,0,0,0,2.630736147986973
-0.1363,0.9748,0.0695,-0.1792,0.2287,0.0151,-2.8438,1.3387,-15.0762,0,0,0,2.6422213618182115
-0.1385,0.9755,0.0669,-0.1783,0.2294,0.0138,-2.9663,1.1638,-15.4175,0,0,0,2.6543011509987804
-0.1387,0.9731,0.07,-0.1797,0.2302,0.0158,-2.6688,0.8925,-15.2425,0,0,0,2.6636876554124407
-0.1371,0.9758,0.0652,-0.1797,0.2302,0.0158,-2.7825,0.98,-15.3737,0,0,0,2.6757890333408128
-0.139,0.9749,0.0714,-0.1756,0.23,0.0146,-2.24,1.1638,-15.5662,0,0,0,2.687933588764791
-0.1384,0.9744,0.0705,-0.1756,0.23,0.0146,-2.3363,1.05,-15.1812,0,0,0,2.699961706516192
-0.1375,0.977,0.072,-0.1795,0.2294,0.0149,-2.555,1.1375,-15.4525,0,0,0,2.712072640119821
-0.1372,0.975,0.072,-0.1818,0.2292,0.0154,-2.695,0.805,-15.33,0,0,0,2.7242016233322692
-0.1369,0.9746,0.0676,-0.1818,0.2292,0.0154,-2.485,1.0062,-15.2512,0,0,0,2.7363298987169205
-0.1383,0.974,0.072,-0.1797,0.2296,0.0158,-2.7213,1.5137,-15.575,0,0,0,2.748355892984931
-0.1402,0.9744,0.0655,-0.1797,0.2296,0.0158,-2.5638,1.3387,-15.89,0,0,0,2.757788760119283
-0.1385,0.9753,0.0688,-0.1793,0.2303,0.0102,-2.1875,1.6362,-16.5637,0,0,0,2.769880582372398
-0.1349,0.9734,0.0692,-0.178,0.2307,0.0149,-2.2313,0.9013,-15.8112,0,0,0,2.782051681338757
-0.1401,0.9736,0.0679,-0.178,0.2307,0.0149,-2.4413,0.6212,-15.8812,0.37376427196226597,-4.225976698926726,0.11218290483079611,13.598028133323613
-0.1384,0.9744,0.0698,-0.1769,0.2287,0.0145,-2.2488,0.735,-15.6712,0.678472241501546,-6.002311153263303,0.23107506098846528,13.603723669690742
-0.1396,0.9757,0.0695,-0.1769,0.2287,0.0145,-2.2488,0.91,-15.1025,0.9563656283225603,-6.482743323581828,0.2814389255121458,13.608337645184328
-0.1384,0.9757,0.0698,-0.1797,0.2334,0.0154,-2.3275,1.47,-16.0825,0.9887191470491119,-7.3622198799946865,0.2985841104923111,13.612921184082651
-0.1361,0.9753,0.0676,-0.1786,0.2286,0.0224,-2.3275,1.2775,-15.9075,1.019429087180984,-7.656954695578034,0.05826953137973654,13.617751047054268
-0.1401,0.9744,0.065,-0.1786,0.2286,0.0224,-2.8,1.2163,-15.5575,1.9033892323013715,-7.87396288083195,0.070395410321097,13.62234378771395
-0.1395,0.9748,0.0673,-0.1786,0.2301,0.0156,-2.2575,1.225,-15.6363,2.055694209477601,-7.987589261549677,0.05976733842870338,13.627040225145866
-0.1398,0.9749,0.071,-0.1786,0.2301,0.0156,-2.0038,1.2862,-15.4962,2.5840562875566357,-8.04934827365858,0.014131065422855204,13.631556874317388
-0.1376,0.9765,0.0705,-0.1792,0.2315,0.0134,-1.96,1.3737,-16.1875,3.0078993859044765,-8.020906926706738,0.15477319993510652,13.636388506858497
-0.1397,0.9745,0.0652,-0.1792,0.2315,0.0139,-2.2138,1.3912,-16.2313,3.098425392225676,-8.09090351608503,0.2090271984174526,13.640980539690382
-0.139,0.9761,0.0688,-0.1789,0.2293,0.0139,-2.5725,1.2163,-16.1262,3.275770511127905,-8.087453564856755,0.23516569064265946,13.645492234067326
-0.1375,0.9745,0.0676,-0.1793,0.229,0.0155,-2.6863,1.0587,-15.89,3.4546678358519487,-8.048421203372722,0.22451785833493396,13.65025379165655
-0.1371,0.975,0.0663,-0.1793,0.229,0.0155,-1.7325,1.0237,-15.6975,3.618883893312729,-8.019054069233922,0.20188408877317646,13.654829544449107
-0.1382,0.9735,0.0661,-0.1787,0.2281,0.0147,-2.1088,1.3825,-15.4525,3.668376594911506,-8.03567298341496,0.20447039849795579,13.657459832542099
-0.1398,0.9761,0.0647,-0.1787,0.2281,0.0147,-2.7738,1.085,-16.205,3.7059817607143213,-8.092394177372771,0.19915184580627385,13.660064284920507
-0.1396,0.976,0.0695,-0.1785,0.2307,0.0138,-2.2925,1.1375,-16.2575,3.721933872459585,-8.1085337327424,0.20448677746945054,13.66274341313148
-0.1382,0.9762,0.0686,-0.1786,0.2292,0.0146,-2.2662,1.1112,-15.855,3.7418626621957487,-8.07259247068055,0.21183471041014165,13.665456517076699
-0.138,0.9758,0.0724,-0.1786,0.2292,0.0146,-2.2138,0.9625,-15.7937,3.7972331187013433,-8.05034900495079,0.2816000737320163,13.66813812268496
-0.1405,0.9741,0.0728,-0.1785,0.2302,0.017,-2.625,1.0675,-15.8112,3.903593538928323,-8.117722335207809,0.26478628970467705,13.670807695220676
-0.1385,0.974,0.0705,-0.1785,0.2302,0.017,-2.3187,1.3212,-15.925,3.9080521839624383,-8.093718100097806,0.21204894216676853,13.67344399984994
-0.1385,0.9741,0.0691,-0.1793,0.2286,0.0225,-1.8725,1.3825,-15.9425,3.9555522736686486,-8.082289514008895,0.1534692863834455,13.676026155652748
-0.1399,0.9758,0.0709,-0.1806,0.2297,0.0158,-2.4938,1.0325,-15.6712,3.9825447110833236,-8.107941116669432,0.11270738664174694,13.67874102916746
-0.1365,0.9747,0.0669,-0.1806,0.2297,0.0158,-3.01,1.33,-15.9687,3.9599875111928937,-8.025057166384363,0.09677413819482367,13.681408478219785
-0.1393,0.9758,0.0683,-0.1796,0.229,0.0167,-2.5813,1.365,-16.1087,3.9685676021577856,-8.07010864110664,0.11208022824986622,13.68418033187214
-0.1359,0.9762,0.0731,-0.1796,0.229,0.0167,-2.065,1.3125,-16.0125,4.035864767411793,-7.9791528970692545,0.07896743052762463,13.686016791090996
-0.1389,0.9752,0.0687,-0.1781,0.2293,0.018,-2.3275,1.4787,-16.0037,4.035800779925956,-8.037563119849388,0.18504167664965457,13.687667091599288
-0.1394,0.9748,0.073,-0.1776,0.2302,0.0154,-2.2575,1.1638,-15.7325,4.054181534195819,-8.07516890871572,0.1742555671764521,13.689360569603185
-0.1395,0.9753,0.0723,-0.1776,0.2302,0.0154,-2.2313,0.9625,-15.5487,4.072050956851391,-8.093371523341746,0.07560404850961652,13.691003437919608
-0.1374,0.9753,0.0705,-0.1789,0.2266,0.0147,-3.0538,1.1725,-15.3737,4.098088481340105,-8.059128663379411,0.06274899129740114,13.692619408779754
-0.138,0.9744,0.0714,-0.1789,0.2266,0.0147,-2.38,1.2775,-15.6363,4.1018360736807455,-8.050320686636846,0.00421190212972635,13.694233963984306
-0.1388,0.9751,0.0698,-0.1777,0.2291,0.0186,-2.2575,1.6275,-15.9075,4.101281479740106,-8.066327859229942,0.19288981623144127,13.695827284354953
-0.1399,0.9744,0.073,-0.1796,0.2294,0.0159,-2.2575,1.0325,-15.7675,4.114918289978624,-8.106245062364401,0.13679349863414123,13.697462012651714
-0.1373,0.9751,0.0659,-0.1796,0.2294,0.0159,-2.5288,1.0587,-16.0037,4.075074512487433,-8.046730754336183,0.13443660098362417,13.699210347309865
-0.1358,0.9742,0.0697,-0.1798,0.2302,0.0149,-2.695,1.295,-15.925,4.079607972610784,-7.977644181462085,0.06237511670002063,13.700917981869699
-0.1381,0.9768,0.0676,-0.1798,0.2302,0.0149,-2.555,1.3037,-16.0037,4.058074343874023,-8.005156576569084,0.01618156587823443,13.702560142358326
-0.14,0.9752,0.0709,-0.1786,0.2318,0.0144,-1.96,1.5312,-16.0387,4.085552671584743,-8.084123809793002,0.17347355006070128,13.704180360185251
-0.1396,0.9753,0.0691,-0.1776,0.2322,0.0126,-2.7825,1.155,-16.065,4.075421715433011,-8.107229772326779,0.17968423540340553,13.705790314509125
-0.1402,0.9752,0.0705,-0.1776,0.2322,0.0126,-2.8,1.4088,-15.645,4.094213748098734,-8.131290090275892,0.37954799461397454,13.707377972257397
-0.1391,0.9748,0.0669,-0.1785,0.2286,0.0157,-2.6863,1.5487,-16.0212,4.050758825060727,-8.115377715835823,0.27006667211013996,13.709113919929104
-0.1383,0.976,0.0676,-0.1785,0.2286,0.0157,-2.765,0.98,-15.8987,4.024229143943007,-8.079280498948982,0.23648891806032957,13.710731660358741
-0.1359,0.9745,0.0681,-0.1789,0.2283,0.0131,-1.75,1.3037,-16.4325,4.014312162042049,-7.980708852001206,0.3099665332174539,13.71231967202091
-0.1406,0.9756,0.0659,-0.1789,0.2283,0.0154,-2.3888,1.4525,-15.7675,4.0070525725145165,-8.07939746687054,0.23894821601246133,13.713914408047152
-0.1368,0.9747,0.0737,-0.1795,0.2294,0.0154,-2.4938,1.61,-15.785,4.0498046696537005,-8.023833769312096,0.33101107331722146,13.715295733992651
-0.1386,0.9741,0.0676,-0.1792,0.2289,0.0143,-2.905,1.2862,-15.54,4.020858237433653,-8.047042686300369,0.34329707673357474,13.716562037921166
-0.1385,0.9753,0.0697,-0.1792,0.2289,0.0143,-2.8612,1.3037,-15.5137,4.043821123566279,-8.053266591226004,0.37267580026393415,13.717805691360184
-0.1382,0.9751,0.0704,-0.1807,0.2301,0.0134,-2.3888,1.2512,-16.2138,4.047966990306319,-8.049070579641269,0.4191745892742992,13.719019262117834
-0.1401,0.9739,0.0647,-0.1807,0.2301,0.0134,-2.6775,1.435,-15.6012,3.985311267203552,-8.10177441050946,0.43935134151150124,13.720221861544635
-0.1378,0.9759,0.0689,-0.1789,0.2306,0.0158,-2.5375,1.4262,-14.7788,3.9941547651022775,-8.099268808648016,0.37226584906014004,13.721437555785677
-0.1407,0.974,0.0701,-0.1784,0.2298,0.0163,-1.6362,1.295,-15.3387,4.044626276080015,-8.133760862079292,0.33289119973788345,13.722656081337908
-0.1368,0.9743,0.0706,-0.1784,0.2298,0.0163,-2.7562,1.6625,-15.96,4.0740922871311644,-8.047181852590837,0.2525317286848011,13.72388734779048
-0.1396,0.9759,0.0645,-0.1789,0.2293,0.0149,-2.5638,1.1812,-16.0212,4.020151272156318,-8.088885677650834,0.24663633591410192,13.725106581170506
-0.1405,0.9761,0.0683,-0.1789,0.2293,0.0149,-3.325,1.1025,-15.7587,4.011430636284048,-8.128969726102332,0.2494717083757296,13.726323337153243
-0.1364,0.9742,0.0697,-0.179,0.2305,0.0136,-3.4038,1.365,-15.5487,4.053156768474971,-8.053002803585027,0.3458442701746418,13.727530183546826
-0.139,0.9747,0.0669,-0.1802,0.2287,0.0165,-2.9575,1.4962,-15.19,4.0046746601553505,-8.06521746656034,0.2002411812884551,13.728768882191265
-0.1377,0.9741,0.0668,-0.1802,0.2287,0.0165,-2.7562,1.26,-15.7325,3.9805816182800733,-8.047105804151952,0.15769932601015046,13.730099952363188
-0.138,0.9747,0.0668,-0.1774,0.2301,0.0144,-2.4413,1.0412,-15.0325,3.974959486962231,-8.045788036260575,0.17880217406767202,13.731351745821868
-0.1376,0.9756,0.0725,-0.1774,0.2301,0.0144,-2.9663,0.8138,-15.33,4.0811039343432585,-8.03228109761802,0.3199194412059927,13.732592567949698
-0.1386,0.9745,0.0687,-0.1805,0.2302,0.0189,-2.4938,1.0062,-15.435,4.0745560509671,-8.048693068150833,0.19047119086457528,13.733829143110746
-0.1391,0.975,0.0702,-0.1804,0.2286,0.0158,-2.6775,1.1812,-15.6012,4.085616921132679,-8.070799958927632,0.19008988308338945,13.73505120780196
-0.1373,0.9739,0.068,-0.1804,0.2286,0.0158,-1.8112,1.5487,-16.3013,4.054024149994472,-8.03165300411104,0.14823645626550205,13.736262301162323
-0.1362,0.9754,0.0698,-0.1779,0.2294,0.0164,-1.8288,1.365,-16.3013,4.067217344405133,-7.970244758333142,0.12257710700471333,13.737494275442693
-0.1382,0.9764,0.0674,-0.1779,0.2294,0.0164,-2.0563,0.595,-15.6625,4.041198643484114,-8.001102576172915,0.023761341704990453,13.738714570564415
-0.1419,0.9753,0.0658,-0.1786,0.2298,0.0206,-2.5813,0.9013,-15.295,4.005671154788769,-8.085583998907635,0.25546800871674663,13.739937696997323
-0.1395,0.9748,0.0689,-0.1787,0.231,0.0157,-2.66,1.12,-15.5662,4.014767051717871,-8.102173061632493,0.24389055721146022,13.741160115602435
-0.1402,0.977,0.0691,-0.1787,0.231,0.0157,-2.9575,1.0062,-15.5662,4.026564404614081,-8.121116579142207,0.19204341535898803,13.742387489002125
-0.139,0.973,0.0647,-0.1783,0.229,0.0154,-2.8525,0.7088,-15.085,3.951051756292298,-8.119239233816902,0.14785553530393905,13.7435961049652
-0.138,0.9651,0.0658,-0.1783,0.229,0.0154,-2.8875,1.2425,-14.9888,3.933073151211052,-8.119200765119446,0.13003870322062439,13.744804720928274
-0.1466,0.9658,0.065,-0.1781,0.2314,0.0139,-3.1937,1.0937,-15.2512,3.8949021624379836,-8.270171714239202,0.10001805610600786,13.746018999513723
-0.1373,1.0117,0.0724,-0.1793,0.2291,0.0132,-2.5638,1.12,-15.2775,3.931451348116029,-8.091268099418963,0.0735284212203739,13.747230092874085
-0.1171,0.9975,0.0759,-0.1793,0.2291,0.0132,-2.0388,0.8925,-15.995,4.02811397505124,-7.323762183182717,0.1816336750566955,13.748628760600605
-0.1444,0.947,0.0728,-0.1794,0.2301,0.0155,-2.5288,1.0937,-16.4587,4.087067644568088,-8.146060455264616,0.2026155054634918,13.749922669813197
-0.1352,0.9989,0.0678,-0.1794,0.2301,0.0155,-2.3538,1.1725,-15.4437,4.083878519029176,-7.969294474931137,0.1985270901826408,13.75116490759662
-0.1452,1.0072,0.0559,-0.1786,0.2277,0.0147,-1.96,1.4088,-14.6125,3.8350595692117606,-8.005761224409667,0.04079498561649635,13.752375647043085
-0.1498,0.9556,0.0607,-0.1786,0.2277,0.0145,-2.4938,0.9887,-15.8987,3.8080217308871505,-8.467580387218835,0.0338411468482978,13.753589571714635
-0.1383,0.9364,0.0874,-0.1778,0.2297,0.0145,-1.8112,1.3562,-14.8487,4.333910375271835,-8.463729152060738,0.35382704354162114,13.75480668161127
-0.132,0.9859,0.0606,-0.1785,0.2297,0.0162,-1.7675,0.9713,-15.3037,4.0373132830675,-8.181889456515957,0.21460348021357525,13.75601175843536
-0.13,0.9737,0.075,-0.1785,0.2297,0.0162,-2.4763,0.7525,-16.0212,4.081953014532968,-7.8534835103188545,0.27034792713578004,13.757213650034364
-0.1501,0.9345,0.0717,-0.177,0.2294,0.0196,-2.905,1.0937,-16.555,4.192503582368007,-8.64513200189003,0.22864293604844207,13.758424743394727
-0.1494,0.9662,0.0657,-0.177,0.2294,0.0196,-2.4325,1.295,-15.2512,4.166369085925675,-8.6833583251026,0.05969107681812366,13.759699541256804
-0.138,1.0084,0.0609,-0.1782,0.2298,0.0126,-2.17,1.3562,-15.5137,4.064238327368953,-8.30946077787156,0.11007406114487571,13.760938593815142
-0.138,0.985,0.0673,-0.1786,0.2292,0.015,-2.2138,0.8925,-16.2925,4.047058503884102,-8.098947911736895,0.1244645945603024,13.762187202048736
-0.1347,0.9615,0.0721,-0.1786,0.2292,0.015,-2.2488,1.365,-16.5287,4.066809135971109,-8.00656386550752,0.20907847199743404,13.763440765076908
-0.1304,0.9995,0.0689,-0.1789,0.2295,0.0152,-1.89,1.1287,-15.8812,4.028636489392312,-7.700910552580104,0.20836590318091733,13.76468123329084
-0.1402,0.993,0.069,-0.1789,0.2295,0.0152,-1.715,0.9538,-15.6975,4.008006473122995,-7.849724227026719,0.20767274917625267,13.765936565888504
-0.1445,0.9552,0.072,-0.1797,0.2307,0.0181,-2.0213,0.7613,-15.7675,4.08078124352141,-8.206232844333266,0.09643259068909163,13.767191190658371
-0.1479,0.9536,0.0646,-0.1786,0.229,0.0147,-1.8288,1.2163,-16.1262,4.011520965819395,-8.541596974253387,0.10432422869976289,13.768463865037058
-0.1347,0.9966,0.0649,-0.1786,0.229,0.0147,-2.1263,1.26,-15.505,3.9616372898580563,-8.188703767740094,0.09971409595105386,13.769692654092342
-0.1358,0.9684,0.0763,-0.179,0.2279,0.0158,-1.9337,1.4088,-16.2313,4.118055774091275,-8.053412997536144,0.20106346443857037,13.770929583167288
-0.1401,0.954,0.0732,-0.179,0.2279,0.0158,-1.8725,0.9538,-16.6513,4.203690517840736,-8.232889740515498,0.24288925194635663,13.772155894825282
-0.1365,0.9812,0.0723,-0.1793,0.2306,0.0126,-2.0825,1.3387,-16.0737,4.205836820852943,-8.04632168843477,0.3960298731964276,13.773360263821576
-0.1374,0.9952,0.0639,-0.1795,0.2308,0.0158,-2.24,1.4962,-15.7412,4.158384897653076,-7.949103035529294,0.2245456558032697,13.774581266771094
-0.1419,0.9752,0.0697,-0.1795,0.2308,0.0158,-1.7062,1.3825,-15.8812,4.131182463943857,-8.108979709465633,0.2177140263530804,13.775866328136225
-0.1417,0.9703,0.0666,-0.1792,0.2287,0.015,-2.0563,1.7237,-16.0825,4.086214424499056,-8.210002153188075,0.20742647170874048,13.777123784217281
-0.1326,0.9915,0.0706,-0.1792,0.2287,0.015,-2.6338,1.33,-15.4263,4.083171242711661,-7.976643673035493,0.22986473470961705,13.7783890264041
-0.1371,0.9847,0.0676,-0.1775,0.2294,0.0133,-1.9337,1.4612,-15.68,4.038276661292483,-7.944684015401918,0.3359805633020803,13.779670902544146
-0.137,0.9619,0.0708,-0.1787,0.2274,0.0125,-2.1088,1.3475,-16.0387,4.070218553854662,-8.02169222528621,0.472873787952063,13.780925173400114
-0.1384,0.9634,0.0677,-0.1787,0.2274,0.0125,-1.8112,1.3387,-15.5925,4.052782036960026,-8.080332512206668,0.5494261653144333,13.782198909520496
-0.1385,0.9851,0.0725,-0.1797,0.2307,0.0154,-1.7413,1.1462,-15.5575,4.111226678160617,-8.038136012116556,0.5492222890739092,13.78345671951545
-0.141,0.9653,0.0657,-0.1797,0.2307,0.0154,-1.925,1.7325,-15.9862,4.0476388842103175,-8.17506566891352,0.37674562233370934,13.784695418159888
-0.1401,0.9625,0.0713,-0.1796,0.2302,0.0175,-2.1,1.26,-15.68,4.083959399420313,-8.214317065672462,0.3265558172749305,13.785931993320936
-0.1363,0.9814,0.0705,-0.1795,0.2298,0.0118,-2.7562,1.1725,-15.8112,4.091300145762416,-8.050403775998602,0.3495619083038473,13.787173877190462
-0.1358,0.9884,0.0647,-0.1795,0.2298,0.0118,-2.3975,1.26,-15.6012,4.0718408461377535,-7.942670579267307,0.4036924833229801,13.788418592371173
-0.1401,0.9605,0.0735,-0.1789,0.2286,0.016,-2.2488,1.12,-16.415,4.096722509593222,-8.147374099771275,0.40375885794684596,13.789670739743752
-0.1435,0.9749,0.0706,-0.1789,0.2286,0.016,-2.24,1.6013,-15.925,4.100760631229465,-8.255242920770836,0.32482627097472494,13.790906607077003
-0.1369,0.9873,0.0682,-0.181,0.2293,0.0157,-2.52,1.435,-16.17,4.077779287154474,-8.036554752930124,0.2608042371848949,13.792126902198724
-0.1388,0.9775,0.0674,-0.181,0.2306,0.0147,-2.835,1.4262,-16.4412,4.033487199473764,-8.052821122097278,0.274601371591211,13.793335872075698
-0.1398,0.9653,0.0724,-0.1778,0.2306,0.0147,-3.0188,1.0062,-15.645,4.137110010516224,-8.127932456308955,0.3285827639917766,13.794563245475388
-0.1364,0.9695,0.0701,-0.181,0.2288,0.0148,-2.4063,1.0412,-15.4175,4.137012873160719,-8.074966065330198,0.34240527483123895,13.795783894511008
-0.1374,0.9809,0.0686,-0.181,0.2288,0.0148,-1.9512,1.54,-15.645,4.098945624308334,-8.020206512302364,0.33762340394006507,13.796986493937808
-0.1406,0.9667,0.0677,-0.1817,0.2313,0.0164,-2.6775,1.2512,-15.3212,4.075384801523925,-8.099796570060466,0.3009510827427056,13.798461960980285
-0.1405,0.9687,0.0705,-0.1817,0.2313,0.0164,-2.6425,1.1462,-15.715,4.095730402036671,-8.162216793149256,0.30063733691388006,13.799779582424069
-0.1376,0.98,0.0729,-0.1771,0.23,0.0175,-2.4237,1.33,-15.855,4.108254630622134,-8.064380394631815,0.23773729930332066,13.80100447842647
-0.1404,0.984,0.0669,-0.1788,0.23,0.0145,-2.9138,1.2337,-15.5925,4.028288812127218,-8.080842707502285,0.24347099925709867,13.802213802217342
-0.1365,0.9665,0.0635,-0.1788,0.23,0.0145,-2.3975,1.2337,-16.1,4.0131474311455495,-8.047530904710397,0.23743107529694876,13.803428434716688
-0.1387,0.977,0.0696,-0.177,0.2304,0.0166,-2.45,1.1812,-15.4962,4.019358794491028,-8.05254955949724,0.22812431800998959,13.804643775043832
-0.1365,0.9826,0.0665,-0.177,0.2304,0.0166,-2.2138,1.6275,-15.47,4.003058317689496,-7.988258317667348,0.06404807093011981,13.805842127503851
-0.1407,0.9733,0.072,-0.1797,0.2294,0.0154,-2.4763,1.365,-16.0212,4.0307360165508905,-8.106221820100526,0.12857461142856097,13.807046496500146
-0.1377,0.9684,0.0711,-0.1807,0.2298,0.015,-2.5025,1.1812,-15.645,4.0545323783086396,-8.090364764815224,0.14074845090477492,13.808266437707967
-0.1381,0.9826,0.0655,-0.1807,0.2298,0.015,-2.17,1.4437,-15.3037,4.019903417586079,-8.054777080974556,0.12832097981168844,13.809476115412737
-0.1356,0.9767,0.0737,-0.1792,0.2302,0.0156,-2.5025,1.365,-15.855,4.061641890097873,-7.966464638799241,0.19169956215253783,13.810690393998186
-0.1379,0.9689,0.0679,-0.1792,0.2302,0.0156,-3.1763,1.3737,-15.8287,4.03750008412932,-8.024147390399339,0.18309266788338666,13.811902903014143
-0.141,0.9714,0.0695,-0.1782,0.2311,0.0173,-2.4588,1.5837,-15.9337,4.0434121773701035,-8.137387037746533,0.06414437673681309,13.813104794613148
-0.1371,0.9783,0.0699,-0.1788,0.2305,0.014,-2.5288,1.2163,-15.4088,4.05037688722368,-8.06997899866435,0.10325408103420915,13.814301731417574
-0.1399,0.98,0.0723,-0.1788,0.2305,0.014,-2.6163,1.5487,-15.9337,4.087178669522961,-8.087267681710808,0.308153405511624,13.815517779572515
-0.1357,0.97,0.0669,-0.1781,0.2298,0.016,-2.2225,1.855,-15.785,4.0725060507028115,-8.017105257695668,0.16335461426552653,13.816734535555252
-0.1394,0.9781,0.0687,-0.1781,0.2298,0.016,-2.4763,1.575,-15.5137,4.065850835834329,-8.047876251567093,0.12599880367376964,13.817938904551545
-0.138,0.9769,0.0706,-0.1783,0.2308,0.0211,-3.395,1.1287,-15.4263,4.100637853607862,-8.037217573540259,0.10084520718863918,13.819148936170212
-0.1406,0.9722,0.0663,-0.1788,0.2277,0.016,-2.765,1.1987,-15.785,4.040981018932428,-8.122677397258249,0.08974872535522503,13.82036356866956
-0.1405,0.9706,0.0713,-0.1788,0.2277,0.016,-2.485,1.1375,-14.91,4.06154750276813,-8.131099288391708,0.09086474788227507,13.82156652201026
-0.1381,0.9784,0.0694,-0.1792,0.2302,0.0158,-2.2488,1.1112,-15.155,4.061201261044748,-8.101099516724462,0.09274993719201151,13.822763104900787
-0.1395,0.9764,0.0669,-0.1792,0.2302,0.0158,-2.7388,1.1112,-15.1025,4.02068323483016,-8.103605933877615,0.08920239220555701,13.824002865286921
-0.139,0.9708,0.0704,-0.1778,0.2314,0.0194,-2.8263,1.05,-15.0762,4.062356423074567,-8.108579471534433,0.017335760914661946,13.825258905712381
-0.1396,0.9737,0.068,-0.1788,0.2298,0.0136,-2.8263,1.1287,-15.3562,4.0402098761768,-8.119465503124358,0.029588524113326166,13.82647778517851
-0.139,0.9804,0.0686,-0.1788,0.2298,0.0136,-2.3538,1.2075,-15.3212,4.039621319726825,-8.095992324690144,0.06601079182396406,13.827701265525317
-0.1405,0.9731,0.0739,-0.18,0.2304,0.0137,-1.89,1.1112,-15.4,4.1334332371187115,-8.131840821558184,0.10006098444829284,13.828919083249751
-0.1382,0.973,0.0722,-0.18,0.2304,0.0137,-2.2488,1.3737,-15.68,4.142462339057263,-8.099364037800203,0.25137221923888764,13.830167691483345
-0.1393,0.9784,0.0681,-0.1792,0.2306,0.0121,-2.3975,1.3125,-15.4612,4.133415776110372,-8.093201876748228,0.36787986400739814,13.831382323982691
-0.123,0.9783,0.0947,-0.1792,0.229,0.0073,-2.73,1.7587,-15.4175,4.526488989651916,-7.730158755971467,1.7848711536894837,13.83261217477967
-0.1509,0.9602,0.0389,-0.179,0.229,0.0073,-2.4588,1.6887,-15.61,4.288534716463717,-8.260983349892845,1.3454854720740672,13.833817959431558
-0.1258,0.9886,0.0779,-0.1788,0.2298,0.0162,-2.3013,1.0937,-15.96,4.296200530082438,-7.709284257307732,1.3034562564213092,13.835018081461069
-0.1492,0.9372,0.0292,-0.1788,0.2298,0.0162,-3.9638,0.9713,-15.3737,2.7410609927964784,-8.189705807591611,0.7427896525594163,13.836245100946861
-0.1726,1.0146,0.077,-0.1778,0.2298,0.0102,-2.5725,2.1613,-15.2862,3.0448602148525055,-8.653837199638147,1.3425650482975549,13.837455486479428
-0.1346,0.9501,0.0883,-0.1778,0.2298,0.0102,-2.45,0.875,-15.1375,3.273107006420051,-8.499551048629193,1.7097103857960518,13.838660917217416
-0.1444,0.9743,0.0544,-0.1788,0.2297,0.0157,-2.5463,0.91,-15.68,3.2597742003064383,-8.46134432657555,1.2310563220241868,13.839868117524896
-0.1358,0.9858,0.0757,-0.1791,0.231,0.0157,-2.555,1.2163,-15.6887,3.4615632201304947,-8.161622252534686,1.1879274095738785,13.841084519593736
-0.1177,0.9787,0.074,-0.1791,0.231,0.0157,-2.2313,1.3387,-16.0037,3.5446547911348762,-7.441337776853759,1.0762978508972656,13.842293489470707
-0.161,0.9679,0.0632,-0.1794,0.2314,0.0154,-2.2575,1.54,-16.1788,3.558889578891899,-8.587422597391333,0.7513843058991998,13.843488656705642
-0.15,0.9701,0.0674,-0.1794,0.2314,0.0154,-2.4675,0.7613,-15.6712,3.606549956500276,-8.671396826408843,0.5926273681493585,13.844717091847027
-0.1155,0.979,0.085,-0.1791,0.2295,0.0153,-2.1875,0.8575,-15.12,3.7838057184368594,-8.205079647725709,0.7494824562434865,13.845922168671116
-0.1396,1.0168,0.0605,-0.178,0.23,0.0157,-3.6575,0.5688,-15.5312,3.568369095983394,-8.03687726359478,0.2711070596775157,13.84711768981995
-0.0867,0.9791,0.0791,-0.178,0.23,0.0157,-3.78,-0.0438,-17.2637,4.188665682827706,-5.910456151993497,0.576514174915587,13.848561658525467
-0.1378,0.9662,0.0826,-0.1797,0.2313,0.015,-2.5113,2.1963,-18.9263,4.291747311933047,-7.662204256989422,0.9438966735244136,13.849800357169906
-0.1527,0.9665,0.0816,-0.1797,0.2313,0.015,-2.765,2.2838,-17.99,4.451613690940184,-8.639516203403089,1.0856459697302125,13.851009327046878
-0.2172,0.9945,0.0735,-0.1779,0.2315,0.0161,-4.1213,1.7062,-18.655,4.307599020492361,-11.534667374581149,0.7892591279899511,13.852221128235039
-0.2109,0.9329,0.0753,-0.1783,0.2318,0.0149,-4.1388,1.2775,-13.335,4.505045330565157,-12.228294493652378,0.809651136539851,13.853435406820486
-0.0473,1.0506,0.1746,-0.1783,0.2318,0.0149,-0.2713,-0.0788,-18.9612,7.827916492266065,-4.422991948981283,4.2485737489132305,13.854654286286614
-0.0733,1.1101,0.0197,-0.1778,0.2304,0.016,-2.9925,-5.985,-28.6562,5.133287494905682,-3.820667694077994,2.5807855962676864,13.85588519882529
-0.2478,0.7236,0.0611,-0.1778,0.2304,0.016,-0.9013,-6.4575,-25.2875,4.9524327994962665,-17.53302274680628,0.4178475859108678,13.857117880933455
-0.1449,0.9803,0.1452,-0.1744,0.232,0.0174,6.335,-7.735,-28.0788,8.066247434181056,-8.96439593820351,4.225201676533275,13.858321188188052
-0.1205,1.0456,0.0672,-0.1718,0.2327,0.0155,4.6813,-5.565,-26.2237,4.224605932244878,-6.754253785750414,0.4104789621173216,13.859523433700955
-0.0493,1.0807,0.1253,-0.1718,0.2327,0.0155,5.32,0.1925,-28.4113,6.337612208071045,-2.879456823760313,1.9600734276876228,13.86071860093589
-0.1829,1.0631,0.0808,-0.1726,0.233,0.0139,4.9612,3.6312,-31.815,4.586295285006197,-9.353588408235833,1.302872623097065,13.861921908190487
-0.1391,1.1814,0.0401,-0.1726,0.233,0.0139,3.5,6.0988,-36.47,2.3304446895314443,-6.827954046299305,1.2172034732742365,13.863113536286438
-0.1198,1.1046,0.0416,-0.1674,0.2364,0.0138,0.1663,7.0437,-43.1725,2.206338213509163,-6.207380026677808,1.4252078717078738,13.86431118091866
-0.2158,1.0884,-0.0204,-0.1624,0.2366,0.0168,-2.59,6.9825,-47.4337,1.545968827214755,-11.063956577414531,5.250355313956365,13.86557642310548
-0.2622,1.0945,-0.0165,-0.1624,0.2366,0.0168,-5.775,4.1213,-49.6475,-0.32061619191776525,-13.403346755136223,5.408586659211954,13.866802026935678
-0.2521,1.2021,0.0913,-0.1581,0.2395,0.0142,-11.2875,3.9988,-51.5288,3.8745445798338958,-11.853365578100908,0.576739801244672,13.86803824818283
-0.5005,0.8891,-0.033,-0.1581,0.2395,0.0142,-18.3137,9.6425,-54.2325,-1.7721701638419967,-28.926483422285987,4.688658986248404,13.869331449567623
-0.3095,1.0101,0.2021,-0.1522,0.2439,0.0142,-21.2537,12.2412,-54.6437,10.657205207193748,-17.02178010941866,7.823754739450902,13.870629959660894
-0.0773,1.0676,0.1931,-0.1455,0.2466,0.0178,-22.2337,4.2875,-65.9488,10.27178688950629,-4.323701461382973,8.877792227563052,13.871861933941263
-0.0048,1.076,0.2406,-0.1455,0.2466,0.0178,-24.7712,6.2475,-64.3738,12.504796222069102,-0.33000910979049247,13.129154723893313,13.873090369082648
-0.0605,1.1491,0.108,-0.1365,0.2494,0.0182,-28.9013,6.9825,-68.6175,5.6281400790369895,-2.951907876899403,3.6283880227584406,13.874326944243697
-0.2363,1.0343,0.0856,-0.1365,0.2494,0.0182,-38.1413,6.51,-61.705,4.755464515214065,-12.62056570783151,1.1930481064348903,13.875555379385082
-0.3992,0.9084,-0.035,-0.1324,0.253,0.021,-47.0312,3.29,-52.9987,-2.0541114195039776,-23.42471980619497,4.979154359077734,13.876801156307488
-0.3371,0.8455,-0.0012,-0.1294,0.2563,0.0274,-48.2912,-0.8575,-47.0662,-0.12333470144062897,-21.787845537317803,6.564179158493252,13.878067106322105
-0.284,1.1569,0.0925,-0.1294,0.2563,0.0274,-46.4362,-3.5263,-48.615,4.467263052714846,-13.981159056790533,2.8945383769204134,13.879315360641801
-0.4229,1.1726,-0.0158,-0.1252,0.2582,0.0311,-49.175,-0.0525,-49.3413,-0.6624529992317469,-19.665641864960506,6.53280726175103,13.880573170636755
-0.4282,1.129,0.0307,-0.1252,0.2582,0.0311,-55.37,0.8225,-52.5612,1.5165268160300587,-20.73507077366899,6.542865599336165,13.881804791003225
-0.424,1.2744,0.1737,-0.1191,0.2618,0.0338,-59.1937,-3.891873,0.1143,7.65361336743125,-18.401557342425278,0.6275926482605032,13.883748840047197
0.0492,0.9873,0.1143,-0.1494,0.152,0.0341,-0.42,-0.4638,-16.9925,6.963548114845904,-3.8374667113799656,4.3168088579665636,13.885863475590204
0.0462,0.9812,0.116,-0.1494,0.152,0.0341,-1.5312,-0.07,-17.0275,6.864784671809919,0.6527726811121445,5.480612427576088,13.887066428930904
0.0419,0.9722,0.1152,-0.1488,0.1515,0.0376,-2.1875,0.2625,-17.5788,6.850783084645335,1.973707261746894,6.579923219586992,13.888253102232277
0.0342,0.9669,0.1212,-0.1488,0.1515,0.0376,-1.9862,0.0613,-18.13,6.927263618686814,2.0016267669445185,6.977761325316568,13.889485076512646
0.0307,0.9633,0.1204,-0.1493,0.1513,0.0309,-2.555,0.2538,-17.5088,6.962403690692672,1.8627436104787185,5.907845903012366,13.890725898640476
0.03,0.9651,0.1203,-0.1502,0.1494,0.0342,-2.7562,0.2187,-17.5613,7.0045425420584175,1.7923677461365406,5.984621884597431,13.8919454859344
0.0277,0.9687,0.1236,-0.1502,0.1494,0.0342,-2.7738,0.3237,-16.87,7.08551645371828,1.6795256570094126,5.937124366571108,13.893144546222217
0.0314,0.96,0.1275,-0.1526,0.1525,0.0339,-3.1325,0.0263,-15.82,7.2979569950009315,1.7687719614728863,5.569012653185071,13.894338297801557
0.0329,0.9615,0.124,-0.1526,0.1525,0.0339,-2.905,-0.2187,-16.1087,7.316282273915857,1.8675981686859564,5.5155258411933605,13.895545852022936
0.0337,0.9677,0.1245,-0.149,0.1533,0.0322,-2.2662,-0.2275,-14.7525,7.31727726971692,1.873557973354162,5.175423760229448,13.896757299297198
0.0357,0.9615,0.1253,-0.1501,0.1508,0.0341,-2.4763,-0.0963,-14.945,7.330345187409152,1.9016127077227762,5.448936520721428,13.898040591092837
0.0373,0.955,0.1279,-0.1501,0.1508,0.0341,-1.4875,-0.1225,-14.6212,7.467162962753932,1.9515650911746152,5.458149947224769,13.899253454022691
0.0392,0.966,0.1223,-0.1496,0.1527,0.0342,-0.9013,0.1312,-13.9038,7.3187941376079,2.119717192535607,5.670964804720445,13.900460300416274
0.0392,0.9716,0.1154,-0.1496,0.1527,0.0342,-0.6737,-0.245,-14.2275,6.978152857524857,2.1839342691152908,6.068508411196861,13.901709262563767
0.0379,0.9731,0.1163,-0.1506,0.1527,0.0313,-0.6212,0.1225,-14.2887,6.875292024674325,2.1944576780184497,5.590713867013424,13.902914693301755
0.0399,0.9736,0.1182,-0.1509,0.1527,0.0334,-1.12,-0.1138,-14.2362,6.9010084197515695,2.243732718756463,5.725083721566365,13.904115523159064
0.0458,0.9723,0.1143,-0.1509,0.1527,0.0334,-1.2687,0.665,-14.175,6.799574695890788,2.412495209633092,5.848642902391355,13.905311398221794
0.0529,0.9724,0.1192,-0.1519,0.152,0.0338,-1.4,0.0788,-14.3413,6.891079133641496,2.6287897503262068,5.924978354550845,13.906514351562494
0.0561,0.9706,0.115,-0.1519,0.152,0.0338,-2.3888,0.4112,-14.5425,6.884592933235277,2.7670628794624097,6.070364421852729,13.907700670949968
0.0545,0.9681,0.1114,-0.1505,0.1527,0.036,-2.2838,0.6737,-14.7875,6.8681416540734626,2.7763814559591236,6.488058593645062,13.908886636423544
0.0547,0.9661,0.1168,-0.1505,0.1527,0.036,-2.8175,0.7613,-15.505,6.876365938298118,2.9572217238120064,6.634849414854586,13.91007932626119
0.0538,0.9639,0.1177,-0.1509,0.1532,0.0339,-2.8087,1.0237,-15.085,6.90371675672789,3.0034339224010522,6.571461077757209,13.911274847410022
0.0492,0.9623,0.1166,-0.1508,0.152,0.0338,-2.5638,1.3387,-15.8987,6.904641897121846,2.952441051450276,6.496879866858895,13.91246258245309
0.0534,0.9628,0.1221,-0.1508,0.152,0.0338,-2.9488,1.7675,-16.1262,7.027088261074205,3.0643757774752474,6.227069920531896,13.913659165343619
0.0529,0.9613,0.1223,-0.1517,0.1518,0.0326,-3.08,1.7062,-16.0475,7.122222059519948,3.0977207578254404,5.882348325026732,13.914960506748075
0.0473,0.962,0.1203,-0.1517,0.1518,0.0326,-2.5725,2.3975,-16.275,7.123310099784056,2.9166830898278597,5.5928369328213074,13.921345821303209
0.043,0.9579,0.1229,-0.1525,0.1527,0.0298,-2.3625,2.1963,-16.1875,7.127816359772874,2.703849397727316,4.768566630661216,13.922563639027642
0.0411,0.9578,0.1203,-0.1518,0.1546,0.0379,-1.9512,1.6362,-16.6513,7.136479650245528,2.531529069774752,5.569919319551367,13.92375774452088
0.0365,0.9618,0.1216,-0.1518,0.1546,0.0379,-1.75,1.2075,-16.4675,7.162090788423298,2.2973828930228075,5.6571943645977285,13.924955389153105
0.0422,0.969,0.1149,-0.1502,0.1523,0.0339,-2.3275,1.12,-16.2488,7.157965790973267,2.402972923320323,5.673618445258581,13.933795450507619
0.042,0.9693,0.1102,-0.1502,0.1523,0.0339,-2.485,1.12,-14.6737,7.071824497802133,2.410413477819825,5.69756939706732,13.946006541744497
0.045,0.9707,0.1213,-0.1491,0.1524,0.0346,-2.6425,1.3737,-14.3062,7.083734182768228,2.485190224397091,5.792460794175217,13.954513216206708
0.0431,0.9642,0.1208,-0.1491,0.1524,0.0346,-3.3075,1.3387,-15.2775,7.1119768222924575,2.5025393234706623,5.854778255540044,13.967244206960354
0.041,0.9586,0.1209,-0.1508,0.1525,0.0313,-2.3975,0.8487,-15.925,7.116266486105743,2.464216028589354,5.6002794892153895,13.979374605828395
0.0334,0.959,0.1238,-0.1514,0.1505,0.0341,-2.695,0.1925,-15.6538,7.179290457232255,2.2417543777677444,5.644713894423286,13.991509959491015
0.0402,0.9711,0.1227,-0.1514,0.1505,0.0341,-2.2838,-0.175,-15.2862,7.18041805816626,2.2772833169012925,5.786518400288367,14.003689552390936
0.0448,0.9717,0.1283,-0.1514,0.1514,0.0354,-2.45,-0.4987,-14.9625,7.214805499666442,2.322384711282977,5.949522808979851,14.015827383450844
0.0536,0.969,0.1264,-0.1514,0.1514,0.0354,-2.8525,-0.91,-15.19,7.288567593117685,2.5476346917712847,6.122675674990031,14.024870591383046
0.0515,0.9644,0.1261,-0.151,0.1527,0.0395,-2.7037,-0.3938,-15.5137,7.3316516235690345,2.7473780445569607,7.103486406167799,14.036969845828027
0.0396,0.9561,0.1191,-0.1524,0.1526,0.0334,-2.415,-0.3588,-16.2838,7.3151232869354725,2.512723659744612,6.194288210531026,14.049138467397098
0.0456,0.97,0.1123,-0.1524,0.1526,0.0334,-1.3562,-0.49,-16.6513,6.962798351035167,2.6170411743704283,6.168329432093138,14.061296117635317
0.0498,0.9787,0.111,-0.1516,0.151,0.0354,-1.4612,-0.6737,-17.0625,6.732861848778751,2.8091334783268636,6.837726728127709,14.073480665329816
0.0495,0.9837,0.1136,-0.1516,0.151,0.0354,-1.9512,-0.315,-16.5462,6.692315825359538,2.8425046728340044,6.980079479296537,14.085622035528708
0.0497,0.9791,0.1103,-0.1502,0.1512,0.0399,-2.5113,0.07,-16.7388,6.653191462976674,2.872243050361619,8.068316599723241,14.098233757298589
0.0448,0.9762,0.1113,-0.1515,0.1512,0.0353,-3.57,0.035,-16.5812,6.571064423686321,2.7050586807587944,7.551936609483131,14.106656908080774
0.0401,0.9725,0.1176,-0.1515,0.1512,0.0353,-3.7888,0.5513,-15.225,6.762851833823818,2.59910458584004,7.212093839829855,14.118842517516969
0.0408,0.9635,0.1091,-0.1514,0.154,0.0364,-3.7275,0.7525,-14.0963,6.5868880120024125,2.520133755944809,7.271246424035859,14.130995566874509
0.0393,0.9628,0.1194,-0.1514,0.154,0.0364,-3.8588,0.9013,-13.7987,6.877960374169232,2.419369976874806,7.169624651039176,14.143048458598798
0.0509,0.9606,0.1227,-0.1526,0.1521,0.0339,-3.6925,0.8312,-13.02,7.108748648256908,2.7974515652566985,6.812134788317737,14.155203985353626
0.0524,0.9586,0.1193,-0.1526,0.1506,0.0356,-3.9113,1.12,-13.3787,7.099803173878564,2.978441872281201,6.8070378796635325,14.167350664260995
0.0548,0.9581,0.1219,-0.1521,0.1506,0.0356,-4.5237,1.645,-14.0787,7.203430686645581,3.0920129521284503,6.704958667897829,14.176275664951127
0.0569,0.9545,0.1226,-0.1526,0.1522,0.036,-3.5,2.2138,-14.3413,7.265673903228667,3.1850438110859587,6.600538211423478,14.188330680158808
0.0489,0.9698,0.1163,-0.1526,0.1522,0.036,-3.4213,2.3625,-14.175,7.043459925999996,3.061226040353272,6.790141191048898,14.200525845270258
0.0474,0.9724,0.1229,-0.1527,0.1507,0.0361,-3.2987,2.9838,-14.3413,7.121792840309046,2.9679500913740684,6.700404236595778,14.212666507641355
0.0487,0.9708,0.1183,-0.1527,0.1507,0.0361,-3.36,3.3075,-14.5687,7.033800898637607,2.945213729299652,6.85720653606299,14.224813186548722
0.0465,0.9684,0.1211,-0.1534,0.1517,0.0384,-3.5525,3.2987,-14.2712,7.08542511733922,2.869162009525009,7.317053142815316,14.233758714244964
0.0511,0.9653,0.1219,-0.155,0.1508,0.0354,-2.9488,2.8087,-13.8775,7.127860506811912,2.935364035099913,6.689740095503666,14.245827532094681
0.0511,0.968,0.1206,-0.155,0.1508,0.0354,-3.1063,3.2375,-14.3238,7.116495044157691,2.9560538706911603,6.500663011220665,14.257975272743746
0.0492,0.9813,0.1128,-0.1528,0.1512,0.0363,-4.3137,3.2288,-14.5513,6.745244992161267,2.934606148891574,7.100868193489552,14.270115935114841
0.0544,0.9801,0.1154,-0.1528,0.1512,0.0363,-3.8238,3.4738,-14.1225,6.727324345679744,3.0244204655847944,7.216752698719995,14.282250580949663
0.0579,0.9778,0.1123,-0.1535,0.1508,0.0396,-4.7425,4.0513,-14.525,6.603281277833216,3.100220951590977,8.341326496583433,14.294314090090905
0.0572,0.9747,0.1148,-0.1529,0.151,0.033,-5.2937,4.6025,-14.6212,6.688506559298836,3.1374993864383893,6.528124117622166,14.303041960739623
0.0565,0.9693,0.1124,-0.1529,0.151,0.033,-5.6,4.725,-14.7,6.631844730954388,3.154892136123725,6.2009413388934105,14.315181207455126
0.0497,0.9708,0.11,-0.1545,0.1502,0.0366,-5.4425,5.7925,-14.56,6.50529571728543,3.106418278500954,7.3230775179163485,14.327406101334043
0.0486,0.9791,0.1067,-0.1545,0.1502,0.0366,-5.4163,6.125,-14.7525,6.28951177497818,3.091255723605662,7.72313563058879,14.339555965466497
0.0483,0.9827,0.1087,-0.1531,0.1515,0.0398,-6.79,6.5188,-15.2075,6.307902587569776,3.007420742722729,8.760714074087778,14.351729541830146
0.0484,0.9852,0.0997,-0.1531,0.1515,0.0398,-6.9913,6.4575,-14.8575,5.872168561065836,2.9978294733296593,9.388875860136231,14.363900286882606
0.0492,0.9841,0.1006,-0.1538,0.151,0.0367,-7.9275,6.7025,-14.2712,5.842173955445639,2.945158319986253,8.420535655359712,14.37264443757065
0.0443,0.988,0.0906,-0.1547,0.1493,0.0378,-8.4787,7.665,-13.8162,5.323806960185826,2.751537407070824,9.121357766270973,14.384825092212266
0.0479,0.9923,0.0963,-0.1547,0.1493,0.0378,-9.9312,7.6125,-12.4512,5.517528150349553,2.7509605855547585,8.978528627763808,14.39697283286133
0.0559,0.9948,0.0977,-0.1539,0.1498,0.0388,-10.9112,8.225,-12.25,5.599508409384457,3.0744398361792147,9.330168823345451,14.40921259112398
0.0601,0.9977,0.1017,-0.1539,0.1498,0.0388,-11.6988,9.275,-11.3575,5.798999248222718,3.349761796613445,9.217435708180659,14.421390768368308
0.0617,0.9978,0.1103,-0.1551,0.1497,0.0384,-13.5187,10.5962,-11.3837,6.2662562558698705,3.479266027760626,8.56380138682244,14.433622032697397
0.0537,0.9928,0.1098,-0.1558,0.1486,0.0403,-14.8925,11.6112,-10.7275,6.307748020761417,3.1564395161048444,9.091187534824027,14.44577472814104
0.0467,0.9896,0.1122,-0.1558,0.1486,0.0403,-16.5287,13.1425,-10.2375,6.457939747298241,2.769325165304262,8.931404561737066,14.454607711217584
0.0411,0.988,0.1196,-0.1582,0.1482,0.0415,-17.605,13.65,-8.8812,6.874909481496506,2.423222539527642,8.772564562268558,14.46682623464633
0.045,0.9872,0.119,-0.1582,0.1482,0.0415,-18.9437,13.7287,-7.5338,6.873522110594851,2.570903550558513,8.820123920737409,14.47903060151914
0.053,0.9872,0.1299,-0.1574,0.1479,0.044,-20.6588,14.0,-6.65,7.463931839799232,2.994919044669378,9.236347554896739,14.491228951855676
0.0542,0.9928,0.1257,-0.1618,0.1456,0.046,-22.085,14.595,-5.8538,7.227870007066492,3.089579758989855,10.045410452167259,14.50341916217255
0.0608,0.9989,0.1334,-0.1618,0.1456,0.046,-23.3362,15.015,-5.285,7.589446508927967,3.4180579789057646,9.812918290153926,14.51562777601214
0.0637,0.993,0.1448,-0.1634,0.1459,0.0486,-24.8062,15.61,-4.6112,8.26631329565599,3.613014832568588,9.979729146662809,14.527801352375787
0.0598,0.9828,0.147,-0.1634,0.1459,0.0486,-26.4862,15.9775,-4.375,8.497254083106016,3.458547055780031,9.771203576800557,14.540009258387583
0.0609,0.9666,0.152,-0.1662,0.1462,0.0517,-27.405,16.1437,-4.3575,8.919846786694544,3.5524799442634265,10.245981852488113,14.548750577764439
0.0554,0.9538,0.157,-0.1672,0.1447,0.055,-28.385,16.5637,-4.2875,9.331531706056873,3.303794690688604,10.956646812421752,14.560974055987762
0.0515,0.9482,0.1666,-0.1672,0.1447,0.055,-28.7262,16.8612,-3.2113,9.942092421197382,3.0812501609873366,10.425830750106282,14.573162142821245
0.0509,0.9499,0.1754,-0.1668,0.1429,0.0557,-27.685,16.7038,-2.835,10.442154714509277,3.0213450311814407,10.306250064816302,14.585368633177445
0.051,0.9619,0.1762,-0.1668,0.1429,0.0557,-28.2275,16.0125,-2.9575,10.382609363351763,2.9881991863453563,10.364000133414825,14.597543979110586
0.0531,0.9704,0.1807,-0.1717,0.1422,0.0597,-28.7612,15.75,-2.0738,10.542297440468758,3.072628145761058,11.245569339605161,14.609778782578658
0.0552,0.9702,0.1773,-0.1717,0.1408,0.0626,-31.6225,14.525,-0.0613,10.362429402430694,3.195116864427499,12.449686648733493,14.621995536437913
0.0644,0.9639,0.1828,-0.1744,0.1408,0.0626,-32.9087,14.525,-0.1138,10.726493568014895,3.7199058543588364,12.145318556186497,14.630732608847989
0.0728,0.9562,0.2031,-0.1763,0.1399,0.067,-33.7663,13.755,-0.3413,11.95258383937097,4.224281840189606,12.466764820967589,14.642928835701134
0.0921,0.9524,0.2081,-0.1763,0.1399,0.067,-34.93,13.9737,-0.9625,12.314351332400738,5.317967202839625,12.443773045305177,14.655128247779366
0.0997,0.9486,0.2153,-0.1781,0.1412,0.0669,-36.0325,13.9825,-1.295,12.773917778947846,5.815319549864976,11.916892488165482,14.667316688526748
0.099,0.9382,0.2209,-0.1781,0.1412,0.0669,-36.7062,14.3937,-2.5725,13.235596087678141,5.86072112550718,11.494168098527956,14.679897973701365
0.096,0.9282,0.2273,-0.1814,0.1375,0.0731,-37.3975,15.4525,-3.9638,13.745411766543047,5.747040497079525,12.935565374069155,14.692034035191782
0.0899,0.9246,0.2329,-0.1808,0.1389,0.0785,-37.87,15.715,-4.445,14.127509562017906,5.418013094485529,14.210473354461072,14.704155232298465
0.0843,0.9356,0.2339,-0.1808,0.1389,0.0785,-37.2137,15.3737,-4.6988,14.038787415663787,5.033675052878241,14.285481714665186,14.716145835176635
0.0805,0.9448,0.241,-0.1846,0.1376,0.0817,-37.835,15.0675,-3.5525,14.302451488696715,4.7452376368323135,14.731826182431202,14.725590027555736
0.0849,0.9502,0.2496,-0.1846,0.1376,0.0817,-38.85,14.6737,-2.2488,14.706955811724985,4.924811141428332,14.493161903512037,14.737740953429885
0.0934,0.9468,0.2474,-0.1871,0.1372,0.094,-40.39,14.2887,-1.4787,14.64563935988501,5.415208642699884,17.91331445752762,14.749939303766421
0.0958,0.9371,0.2579,-0.189,0.1366,0.0941,-41.8075,13.6062,-1.05,15.369146353172791,5.6147151642418,17.536880674259276,14.76187434216254
0.1011,0.9166,0.277,-0.189,0.1366,0.0941,-42.63,13.0987,-1.295,16.78000060562267,5.99871381626741,16.523116075348575,14.773994477527529
0.1042,0.9145,0.2857,-0.1916,0.1374,0.098,-43.855,14.2537,-1.9075,17.335994946403186,6.192005400542746,16.863686455732594,14.786083822383356
0.1071,0.9124,0.2904,-0.1916,0.1374,0.098,-44.3537,14.1662,-2.8,17.647884881868556,6.367601179624185,16.695597953609095,14.798229439549027
0.1095,0.9105,0.2966,-0.1926,0.1378,0.0925,-45.7363,14.7788,-3.0713,18.034377025617307,6.511170629380429,14.786818963701887,14.807557194255553
0.1025,0.9169,0.2938,-0.1942,0.1366,0.1098,-46.6987,14.8925,-2.6513,17.772785944886785,6.109726102393399,19.350086250930136,14.819675560051047
0.0974,0.9248,0.3045,-0.1942,0.1366,0.1098,-47.9675,14.35,-1.82,18.21497527466365,5.741070496965784,19.20182975513169,14.831779769290607
0.0837,0.9163,0.3203,-0.1991,0.1389,0.1161,-49.7875,13.9212,-0.8925,19.245758592831045,4.98286021126503,19.136753689866485,14.843906629019665
0.0877,0.8976,0.336,-0.1991,0.1389,0.1161,-51.4938,13.3962,0.1225,20.497005677678075,5.2128389330451865,18.261607429675482,14.8559719077304
0.0953,0.8813,0.3467,-0.1986,0.1379,0.1234,-52.0187,12.9762,0.0088,21.455196688588163,5.712550567291056,19.540689246817543,14.867985161098067
0.1059,0.8707,0.354,-0.2001,0.1366,0.1314,-52.8413,12.4862,-0.1488,22.112147715753682,6.382701422413614,21.268366139174724,14.880101403410173
0.1119,0.8608,0.3669,-0.2001,0.1366,0.1314,-53.0337,12.0662,-0.21,23.066402844428588,6.791377202645315,20.796866179733975,14.889473751267897
0.1086,0.8647,0.3747,-0.203,0.1369,0.1371,-53.0513,11.9437,-0.315,23.421504721809498,6.587729506409436,21.45284594842492,14.901604857963735
0.1078,0.8655,0.3856,-0.203,0.1369,0.1371,-52.8937,12.0662,-0.1663,24.002569542328036,6.496931540411836,21.023590838107314,14.913650317496158
0.1047,0.8614,0.3828,-0.2072,0.1397,0.1455,-53.4538,11.3837,-0.2362,23.9608367743708,6.3482145239484575,22.24081149536497,14.925743555404866
0.1115,0.8522,0.3924,-0.207,0.1412,0.1528,-54.2588,10.8587,0.4638,24.70953695563431,6.7511123554942065,23.435067017857154,14.937837501141372
0.1194,0.8508,0.4058,-0.207,0.1412,0.1528,-54.6525,10.4387,1.4,25.48459310724596,7.191907541975115,23.106635866854344,14.9498818989321
0.1213,0.8478,0.4382,-0.2099,0.1394,0.158,-56.0525,11.0862,1.4262,27.299176787274998,7.2405819525675845,22.642559496741626,14.959175323990477
0.1213,0.8103,0.4506,-0.2099,0.1394,0.158,-56.2537,10.815,2.8612,29.045620834641372,7.442236304146682,21.237145490498012,14.971235293992736
0.1218,0.7952,0.459,-0.2121,0.1426,0.1658,-56.6388,10.9987,3.0625,29.976961474910127,7.550461024804377,21.519146167771783,14.983311190120423
0.1249,0.79,0.4696,-0.2121,0.1426,0.1658,-55.2125,11.1562,3.3775,30.71458549911779,7.729441514181838,20.971589157352447,14.995348155719283
0.1346,0.7918,0.4837,-0.213,0.1453,0.1726,-54.5475,11.1387,3.8675,31.406937332950644,8.227424288262045,21.604804741237384,15.00744422493918
0.1469,0.7981,0.4876,-0.2186,0.1454,0.1794,-53.9612,11.3925,3.8238,31.422583151290123,8.890806513787124,22.864109916676863,15.019397312944117
0.1473,0.7964,0.5012,-0.2186,0.1454,0.1794,-53.1738,12.5913,5.2675,32.168840540953774,8.896481025305514,22.266123214224823,15.02873851637878
0.1483,0.7755,0.4978,-0.2194,0.1414,0.1874,-53.1562,13.1075,5.6788,32.686560491114086,9.130745704727104,23.977416064524345,15.040810519453585
0.1448,0.7603,0.5066,-0.2194,0.1414,0.1874,-52.1413,13.3962,6.5625,33.65667389331342,9.011511278629184,23.14453381781354,15.052852085933125
0.1506,0.7582,0.5189,-0.2237,0.147,0.1953,-51.1875,13.86,7.245,34.372463852606764,9.296019868939412,23.095208785277894,15.064851536658756
0.1568,0.7541,0.5227,-0.2257,0.15,0.201,-50.1813,13.5187,7.9012,34.72026865039542,9.68074140746771,23.57381129305902,15.076934864978309
0.1656,0.7534,0.53,-0.2257,0.15,0.201,-49.4813,13.8775,7.42,35.11710893291405,10.169546641868417,23.465316802609674,15.088957320107335
0.1733,0.7325,0.5387,-0.2279,0.1508,0.2062,-48.5625,14.3413,8.015,36.30603273633662,10.76476253903614,23.31264463593433,15.098633680003793
0.1723,0.723,0.5451,-0.2279,0.1508,0.2062,-48.4663,15.0237,7.6125,36.99914564741146,10.7735775935056,22.5712010830786,15.110360263113748
0.1748,0.7188,0.5516,-0.2312,0.1515,0.2114,-47.9412,16.4062,6.7463,37.4914796897799,10.913115079818061,22.75254727595755,15.122439344466521
0.1741,0.719,0.5535,-0.2312,0.1515,0.2114,-47.88,17.1325,6.2125,37.58765526121148,10.863844152316284,22.637974200113863,15.134474186581992
0.1684,0.7207,0.5585,-0.2335,0.152,0.2217,-46.7775,18.0862,5.565,37.76948180120672,10.483012614329219,24.071476869167007,15.146481423413386
0.1728,0.7218,0.5732,-0.2358,0.1552,0.2249,-47.1188,19.4162,6.3875,38.43904361022886,10.612292351704006,23.473629609052992,15.158474149774946
0.1752,0.7098,0.5902,-0.2358,0.1552,0.2249,-47.2588,19.6175,6.1075,39.715176595590286,10.740288208031911,22.056563398726258,15.167891090783868
0.1737,0.6924,0.6007,-0.238,0.1562,0.2311,-47.3025,20.4225,5.4425,40.9169416842255,10.730421013564975,21.48890457157578,15.1799570773224
0.1677,0.6788,0.6027,-0.238,0.1562,0.2311,-46.9525,20.8425,4.5675,41.586556204610254,10.479842184048362,20.536187141614633,15.191929630591751
0.1641,0.6723,0.6175,-0.2403,0.1584,0.2393,-46.445,20.7462,3.1325,42.54538684054944,10.206280180808578,20.268716832809385,15.203989246680111
0.1656,0.6711,0.6278,-0.2412,0.1599,0.2391,-44.835,20.7287,1.75,43.07816389961519,10.214651363004563,19.253931549028557,15.216052047993555
0.1715,0.678,0.6392,-0.2412,0.1599,0.2391,-43.9337,20.5275,0.4288,43.30725170368111,10.41547666953935,19.033377002803306,15.225317513853959
0.158,0.6646,0.6497,-0.2435,0.1628,0.2459,-43.6012,20.4137,-0.1225,44.32579120117984,9.696982256977044,17.982599906253654,15.237474456264382
0.1455,0.6552,0.6532,-0.2435,0.1628,0.2459,-43.0763,20.8162,-0.5513,44.898363755872886,8.987292518917267,16.890153665000312,15.249618303860563
0.1376,0.6523,0.6546,-0.2446,0.1637,0.2528,-42.175,20.8162,-0.1837,45.095876150186015,8.50220154957296,17.44165606054553,15.261666240790275
0.1341,0.6435,0.6653,-0.2446,0.1661,0.258,-41.4137,20.0025,0.2538,45.932838753849786,8.259780721751188,16.81246267650274,15.273672415879975
0.1331,0.6306,0.6709,-0.2454,0.1661,0.258,-39.9087,19.1887,0.805,46.75175869761547,8.227617105219993,15.641598337805952,15.28572424586257
0.1471,0.6267,0.67,-0.2449,0.1682,0.2608,-38.255,17.5088,0.5862,46.908181147614165,9.055579564934943,15.938646266721785,15.297987008528617
0.1813,0.6154,0.679,-0.2449,0.1682,0.2608,-38.0537,17.2375,0.4375,47.78830813044169,11.059611391757407,15.627386031288419,15.306595964107467
0.1837,0.6145,0.6822,-0.2462,0.1714,0.2648,-36.4525,17.2375,-0.8575,47.98296196444772,11.297063254922264,15.470751214138796,15.31873273342568
0.1787,0.6207,0.69,-0.2462,0.1714,0.2648,-35.6562,18.41,-1.7587,48.025283362810484,10.92694477911234,15.210211251498423,15.33089498454458
0.1677,0.6306,0.6982,-0.2454,0.1743,0.2645,-35.945,19.2938,-1.8812,47.91556056891705,10.16565522131313,14.445580574585296,15.343050865213307
0.1593,0.6267,0.7022,-0.2474,0.1719,0.2722,-35.4113,18.9437,-2.3975,48.241836210115416,9.648184027460557,15.455572655386083,15.355286376509177
0.1584,0.5992,0.721,-0.2474,0.1719,0.2722,-34.9125,18.2612,-3.3163,50.210674423266674,9.59489026256403,12.523262293592593,15.367476232912152
0.167,0.5896,0.728,-0.2472,0.177,0.2757,-34.4837,18.0075,-4.935,50.97262647564782,10.060483722652796,11.021881048104483,15.37959849176053
0.1588,0.5774,0.7343,-0.2472,0.177,0.2757,-33.0575,17.4475,-6.2125,51.79432168312328,9.690965587776905,9.488816673433277,15.388444569651316
0.1497,0.5722,0.7423,-0.247,0.1805,0.2829,-31.675,17.6138,-6.9563,52.3541784214773,9.144449161867682,8.883669011695526,15.40068362008617
0.1421,0.5613,0.7429,-0.2477,0.182,0.2828,-30.0475,17.045,-6.8863,52.90708225628331,8.72956140073077,7.497984203241697,15.412879493025418
0.1393,0.5522,0.7422,-0.2477,0.182,0.2828,-27.7025,15.6012,-6.93,53.33377127773427,8.582014277536265,6.720283130642099,15.42507678162026
0.1527,0.5612,0.7495,-0.2457,0.1832,0.2856,-25.3663,15.4263,-8.26,53.18197645211695,9.172407184480008,7.3869849410304065,15.437231246633393
0.1593,0.5686,0.7509,-0.2457,0.1832,0.2856,-24.2462,14.9713,-8.995,52.87988531159935,9.53680951256842,8.0262415865921,15.449436321334
0.1601,0.5596,0.7604,-0.2454,0.1852,0.2906,-23.5287,14.42,-8.925,53.61490474531748,9.611710430798492,7.195507239676444,15.461614852492225
0.1558,0.5481,0.7637,-0.247,0.186,0.2898,-22.365,14.1312,-9.31,54.2991987947081,9.441583392364704,5.568775247580525,15.470458806899622
0.1498,0.529,0.7707,-0.247,0.186,0.2898,-20.1338,14.2012,-10.1062,55.468990698283775,9.163441172961447,3.384767341788597,15.482680161639555
0.146,0.5264,0.7768,-0.2464,0.1876,0.292,-18.585,12.8275,-10.2287,55.852773358018894,8.90107284242627,2.6263688104785237,15.494877096320499
0.1541,0.5393,0.7817,-0.2464,0.1876,0.292,-14.525,11.935,-10.885,55.43243958357734,9.152639004985799,3.4049214624368966,15.50711225370247
0.1566,0.5467,0.7837,-0.2442,0.1871,0.2979,-13.0462,11.7163,-10.2987,55.12914434711952,9.2791612458832,5.10883101982342,15.519398728599711
0.1554,0.5378,0.7819,-0.2446,0.1882,0.297,-10.9987,11.1825,-11.375,55.443099790601075,9.295104104246851,4.195926022290045,15.531539037056909
0.1532,0.5361,0.7795,-0.2446,0.1882,0.297,-9.065,10.5175,-11.9875,55.476798295735456,9.223673853391546,4.095906005301095,15.543731724771071
0.14,0.5472,0.7718,-0.245,0.1892,0.2934,-7.5775,10.3075,-12.2062,54.79398414304183,8.641106662689374,4.539445007591765,15.555903177651327
0.1321,0.553,0.773,-0.245,0.1892,0.2934,-6.6588,9.7825,-12.845,54.490509874457956,8.158441267767037,4.90037344812447,15.568059766147853
0.123,0.552,0.7706,-0.2441,0.1902,0.2934,-5.2675,8.82,-13.44,54.41187284027981,7.716255996969516,4.730190916918149,15.576906197952537
0.1138,0.552,0.764,-0.2445,0.1905,0.2997,-4.8913,7.4725,-14.1575,54.22470010065872,7.387945978526769,5.840863218253065,15.589013238503284
0.111,0.5488,0.762,-0.2445,0.1905,0.2997,-3.64,5.53,-16.4412,54.23233029105078,6.987010010656693,5.837745342321071,15.60117796701947
0.1102,0.5516,0.747,-0.2435,0.1885,0.2946,-2.0563,4.3925,-17.2725,54.083951205246514,6.831190259724929,6.450740770449905,15.613335263343792
0.1119,0.5694,0.7452,-0.2435,0.1885,0.2946,-2.2575,3.2638,-17.3862,53.974745904435046,6.8117420787039515,7.6750183127298595,15.625495390979301
0.1182,0.57,0.7454,-0.2432,0.1907,0.2972,-2.4763,1.7587,-16.59,53.80705817722298,7.047182972898492,7.940255995597374,15.634279887851763
0.1223,0.5694,0.7412,-0.2432,0.1907,0.2972,-2.625,0.7613,-16.1,53.50839753385113,7.276824391795555,8.145141135964248,15.646450278990326
0.1313,0.5682,0.749,-0.2438,0.1886,0.2957,-3.01,0.0088,-15.3737,53.229945669473196,7.51985145745996,8.272173704362139,15.658612176195327
0.1324,0.566,0.7501,-0.2425,0.1893,0.2961,-2.2225,-0.385,-15.2775,53.20232532703864,7.67934133177645,8.172224628300809,15.670805217823387
0.128,0.565,0.7434,-0.2425,0.1893,0.2961,-2.0388,-1.3825,-15.6887,53.10148866408857,7.7384339469572865,8.336308180168484,15.68297313156466
0.1296,0.5691,0.743,-0.2436,0.189,0.2946,-2.415,-1.5662,-15.7937,53.06200568130158,7.8105920458138955,8.49461567987419,15.695162987967635
0.1371,0.5794,0.7491,-0.2436,0.189,0.2946,-2.59,-2.3538,-16.1175,52.90445333574915,8.052500301430968,8.99403201815187,15.707356383509595
0.1376,0.5789,0.7462,-0.2438,0.1912,0.2989,-2.9138,-2.8525,-15.3825,52.645483248626796,8.138837255457961,9.469049526034775,15.716238914531917
0.1419,0.5743,0.7533,-0.2443,0.189,0.2942,-2.66,-2.835,-15.155,52.65361633307936,8.236642333857706,8.61784454161234,15.728377099505723
0.1449,0.5599,0.7543,-0.2443,0.189,0.2942,-2.5725,-2.8263,-15.8725,52.79815464531044,8.5108002045494,7.438831359055725,15.740531210604958
0.1528,0.5603,0.7611,-0.2462,0.1894,0.2948,-1.7587,-3.115,-15.8638,53.107132525039276,8.856258781386913,6.901682967868864,15.752774508006594
0.146,0.5628,0.7602,-0.2462,0.1894,0.2948,-0.2975,-2.5638,-15.9775,53.36158342998391,8.812351663320928,6.946382835697829,15.764945960886852
0.127,0.571,0.762,-0.2459,0.1884,0.2875,0.1663,-2.8525,-16.0387,53.213360337003614,8.142186789469672,6.368436347147603,15.777143249481693
0.1121,0.5694,0.7666,-0.2451,0.188,0.2976,-0.2013,-4.0338,-16.0037,53.338114659295876,7.354725869133448,7.286184124541529,15.78927435617753
0.105,0.5628,0.761,-0.2451,0.188,0.2976,0.49,-5.7312,-15.7762,53.46886711190936,6.851129782479302,7.190987005165355,15.798491335833852
0.1316,0.555,0.7745,-0.2467,0.1877,0.2935,1.0412,-7.56,-17.2112,54.16803572982712,7.566033051586159,5.528803708239539,15.810247647711273
0.1394,0.5463,0.7782,-0.2467,0.1877,0.2935,1.6013,-9.2662,-18.0425,54.77650358994181,8.157787061233943,4.5290940839493965,15.822398927499322
0.1377,0.5311,0.7805,-0.2465,0.1898,0.2977,2.5813,-10.3687,-18.5062,55.599025107845094,8.26863032237737,3.2437745688951445,15.834609310908405
0.1364,0.5203,0.7817,-0.2465,0.1898,0.2919,4.4713,-11.7163,-19.3638,56.25578777270835,8.265502487421742,1.258419255000124,15.84676094461035
0.1405,0.5192,0.7762,-0.2489,0.187,0.2919,9.38,-12.74,-19.4775,56.22414520929149,8.5049261757966,1.9679016444378608,15.858967081052652
0.153,0.5219,0.7752,-0.2486,0.1855,0.2933,11.4975,-13.5975,-20.0112,56.06151623458217,9.170176859540444,2.9354390877331453,15.871195160156656
0.1617,0.5453,0.7601,-0.2486,0.1855,0.2933,13.1512,-13.4925,-20.3962,54.44828355811769,9.710245705895007,6.003487291534956,15.88337829219556
0.1521,0.5552,0.7488,-0.2499,0.1862,0.2915,14.4287,-13.055,-19.6175,53.50128429950524,9.343408978373363,7.095708858986554,15.892260115390087
0.1325,0.5683,0.7536,-0.2499,0.1862,0.2915,15.61,-13.8075,-18.5325,53.007092330856125,8.277335204467025,7.627295951817061,15.904545882459532
0.1199,0.5736,0.7588,-0.2497,0.1841,0.2899,15.8287,-15.3912,-18.9,52.91815224808298,7.39899115854039,7.759900056261651,15.916750249332342
0.1207,0.5516,0.7554,-0.2542,0.182,0.287,16.2313,-18.1387,-19.7925,53.81446978053224,7.360613751282939,6.171781548308302,15.928946122271588
0.1423,0.5451,0.7537,-0.2542,0.182,0.287,17.535,-20.5538,-21.175,54.1094946109569,8.516361514526174,5.925880187153414,15.941167123097625
0.1651,0.5444,0.7579,-0.255,0.1797,0.285,19.6262,-21.9713,-23.0212,54.301547426750204,9.868615680214907,6.020628428936206,15.953369720400941
0.1878,0.545,0.7557,-0.255,0.1792,0.2836,21.21,-22.8025,-24.8587,54.20547774382589,11.257733990806114,6.3627507329169894,15.965589305571383
0.1992,0.5433,0.7485,-0.2537,0.1792,0.2836,23.59,-22.3563,-26.2675,54.032583109394906,12.082502401574471,6.90420047717261,15.977817738589284
0.194,0.5419,0.7233,-0.2558,0.1747,0.2753,26.95,-22.1112,-26.2237,53.18809827071547,12.112317259009412,7.863922457965973,15.99006103599092
0.1793,0.5672,0.708,-0.2558,0.1747,0.2753,31.5613,-21.1138,-26.3812,51.35481759415867,11.25427793866606,10.645781520705876,16.002208422726085
0.1831,0.5983,0.7052,-0.2579,0.1726,0.2733,32.865,-21.6737,-24.9288,49.7343652028727,11.203963114333797,13.212167785412854,16.011087414609424
0.1878,0.6245,0.7064,-0.2574,0.1713,0.2712,32.9437,-22.1812,-23.87,48.55481968444674,11.258677797130018,14.98579711485723,16.02333743637513
0.1837,0.6205,0.7067,-0.2574,0.1713,0.2712,33.285,-22.9512,-22.8463,48.71166771754513,11.075351605497016,14.676731002019197,16.035545696300822
0.1882,0.585,0.6961,-0.2591,0.1693,0.2633,34.965,-23.3187,-23.6338,49.92392630209736,11.63089848785115,11.894309611519418,16.0480682317683
0.2036,0.5878,0.6914,-0.2591,0.1693,0.2633,36.8375,-24.36,-25.13,49.63748355518207,12.555577675633288,12.638449608809108,16.059965047463393
0.214,0.6009,0.6833,-0.2589,0.1654,0.2581,38.255,-24.2287,-26.9325,48.69454896051357,13.182698833359403,14.14712633674743,16.072150656899588
0.2096,0.6104,0.6794,-0.2599,0.1626,0.2541,39.8037,-23.205,-29.0325,48.07687135598804,12.941924840843205,14.645059743474523,16.084423329154788
0.1951,0.6105,0.6739,-0.2599,0.1626,0.2541,41.6063,-22.7237,-30.3275,47.83149963033264,12.160026279206004,14.64428768247582,16.09664574563642
0.1726,0.5985,0.6668,-0.2604,0.1594,0.2478,43.365,-23.0037,-30.8612,48.08425662024063,10.977184293039087,13.213031952092349,16.108826400278033
0.1762,0.5985,0.6539,-0.2604,0.1594,0.2478,45.2287,-24.3162,-32.0075,47.54418556157308,11.227652974187281,14.012081674320548,16.121063327229496
0.1886,0.6056,0.6457,-0.2578,0.1546,0.2411,51.1613,-26.9762,-34.2475,46.848514234771955,11.987699070981995,15.05503941544951,16.13328503588333
0.2011,0.6119,0.6299,-0.2577,0.1532,0.231,53.9175,-27.5625,-34.4225,45.84823030546763,12.854002488284857,15.017146500917633,16.142166859077857
0.2066,0.6288,0.6262,-0.2577,0.1532,0.231,55.7375,-27.0025,-34.3875,44.89766747897679,13.09332980706133,16.30633740663305,16.154357069394727
0.2033,0.6389,0.6132,-0.2562,0.1513,0.225,58.6775,-27.3612,-34.335,43.8414502649568,12.93753646519186,16.802527214399174,16.16657240759839
0.1935,0.6457,0.5976,-0.2562,0.1513,0.225,61.2588,-27.4662,-34.9912,42.80084476076682,12.429085306453523,17.82396413977508,16.178814643258328
0.1901,0.6564,0.5813,-0.2549,0.1472,0.2192,63.8838,-27.9738,-35.8662,41.54665677158074,12.241973166739236,18.80244060539881,16.19104095279284
0.1933,0.6656,0.5621,-0.2552,0.143,0.2082,66.255,-28.7525,-36.6975,40.20075377638023,12.498368119285857,18.787346883609747,16.203293805869734
0.195,0.6784,0.5449,-0.2552,0.143,0.2082,68.2588,-28.8925,-36.7238,38.79185570170048,12.625597265679103,20.306210010411704,16.2154624274388
0.2111,0.7116,0.5441,-0.2539,0.1404,0.1986,70.2013,-28.8312,-36.4,37.4209675859707,13.23232919323334,20.493499645639975,16.227688383059416
0.2123,0.7165,0.5331,-0.2539,0.1404,0.1986,72.4325,-28.56,-35.8312,36.66065149000285,13.365813436075182,21.28988963144959,16.23991186128274
0.2084,0.7161,0.5151,-0.2524,0.1392,0.1934,72.9663,-27.965,-34.3175,35.74017667894094,13.296000010275188,21.34954000890992,16.25211410467216
0.2095,0.7285,0.4945,-0.25,0.1338,0.1763,74.0863,-28.4638,-36.1113,34.188649983992285,13.380067789318412,20.011688103708636,16.2642671540297
0.2125,0.7471,0.4632,-0.25,0.1338,0.1763,76.0288,-27.9475,-37.3537,31.82891349063206,13.581086698821682,22.122303268550095,16.273205957361867
0.2012,0.7729,0.4369,-0.247,0.1323,0.1666,76.195,-27.4487,-39.0862,29.50788648002076,12.800732389177348,22.053956084359328,16.285393336367555
0.1923,0.7709,0.4265,-0.247,0.1323,0.1666,76.265,-27.2912,-39.515,28.960501772508103,12.331857704273455,22.2767337821305,16.297641942477664
0.1852,0.7833,0.429,-0.2451,0.1305,0.1559,78.05,-27.6238,-40.3638,28.71185908151441,11.738658904095397,20.244105940458088,16.309834984105727
0.1728,0.7825,0.419,-0.2456,0.1282,0.1478,78.9338,-28.0613,-40.5913,28.174031071766578,11.043409504766611,18.751896863549877,16.322081466732445
0.1608,0.7713,0.3992,-0.2456,0.1282,0.1478,81.34,-28.6475,-40.4775,27.374184853265902,10.510309703071645,19.128820473464884,16.334268491824236
0.178,0.7868,0.3481,-0.2388,0.1258,0.1321,83.0288,-29.7763,-40.4162,23.90641901382037,11.644652826043435,19.286877925612846,16.346510727484173
0.1878,0.8156,0.3187,-0.2388,0.1258,0.1321,84.4988,-30.3625,-40.2325,21.372515004472408,12.087321259452352,21.172814673971175,16.35869385952308
0.198,0.8361,0.2935,-0.2375,0.1242,0.1241,84.9713,-30.7475,-39.7687,19.36582026494162,12.57605350921723,21.062778450300456,16.37090247336267
0.203,0.8516,0.2697,-0.2364,0.1245,0.1076,85.3913,-29.8025,-38.3425,17.593096153837383,12.793814576558857,18.343573670935122,16.383133737691757
0.2011,0.8693,0.2344,-0.2364,0.1245,0.1076,84.945,-28.4463,-37.5988,15.118815907559613,12.599348263071567,19.763891732099633,16.39534482892864
0.1843,0.8938,0.2263,-0.2302,0.1234,0.0959,83.265,-26.6875,-37.2837,14.218578895967383,11.359102534798753,17.66826030195269,16.40425673480453
0.1778,0.9057,0.21,-0.2302,0.1234,0.0959,80.9463,-26.32,-37.345,13.068018032979426,10.84909395174289,18.174266486731323,16.416547102754652
0.1809,0.9129,0.1991,-0.2308,0.1235,0.0878,79.975,-26.6525,-36.8725,12.312510308344736,10.952693122007455,16.607616734229065,16.42868281033117
0.1914,0.9254,0.1705,-0.225,0.1229,0.0739,78.0413,-25.8913,-37.0825,10.46238383912114,11.474038714925712,14.657289116413047,16.44089850244873
0.1978,0.9621,0.139,-0.225,0.1229,0.0739,75.3638,-24.6138,-36.47,8.249439304302197,11.50027270106892,15.924522488535443,16.45312481198324
0.1954,0.9737,0.1254,-0.2232,0.1237,0.0639,72.6425,-22.6712,-34.7462,7.350550794178971,11.268337943388191,13.907428076313098,16.465294849207904
0.1844,0.9751,0.1173,-0.2232,0.1237,0.0639,69.5625,-21.2712,-32.7775,6.866191686159155,10.667233359918418,13.98968550577629,16.477554072734968
0.1748,0.9631,0.1163,-0.2208,0.1244,0.049,65.4675,-19.4337,-30.87,6.885184128422541,10.2409623997771,10.038212538181929,16.48978887620304
0.1624,0.9513,0.1048,-0.2172,0.1243,0.0445,62.58,-18.2525,-28.8663,6.295721338250902,9.671159877414208,9.080644460623004,16.5020495153857
0.1506,0.9203,0.0839,-0.2172,0.1243,0.0445,60.8737,-17.9288,-28.4638,5.225947106217429,9.284258650164368,9.642468546270306,16.514171774234075
0.1454,0.929,0.0712,-0.215,0.1274,0.037,60.1738,-19.0662,-28.9888,4.395947101882315,8.897045177086541,8.109480427713633,16.523073770520813
0.1621,0.9569,0.0592,-0.215,0.1274,0.037,59.4388,-20.1075,-29.7675,3.553806109127787,9.552847988144622,8.652559754284932,16.535308220074988
0.171,0.9764,0.0462,-0.214,0.1279,0.0292,57.9775,-19.7138,-29.3038,2.7228028059219724,9.898892085317758,7.067540413175951,16.54753169829831
0.1718,0.9788,0.0283,-0.2121,0.1315,0.0227,56.035,-19.1187,-29.0325,1.674094553502255,9.947702479168258,5.856304106860094,16.559733233859934
0.1688,0.9866,-0.0006,-0.2121,0.1315,0.0227,54.6437,-18.27,-29.2775,-0.005370576701135328,9.724317720420034,6.896012313974075,16.57198254779784
0.1644,1.0039,-0.0173,-0.2081,0.1289,0.0134,52.7363,-17.4037,-28.6737,-0.9697578531503583,9.32754378526015,4.9421807333994705,16.584221952146592
0.1652,1.0196,-0.0256,-0.2081,0.1289,0.0134,49.9012,-16.2488,-28.1837,-1.4294734707434436,9.209320787632496,5.129700862996506,16.596476928706878
0.1655,1.0235,-0.0394,-0.2078,0.1326,0.0035,47.3462,-14.4025,-27.8687,-2.189241115085119,9.180732595856684,2.8233689229592502,16.60872942786987
0.1572,1.026,-0.052,-0.209,0.1338,-0.0004,44.0037,-12.67,-27.2912,-2.886354184582457,8.735578540039056,2.016793154204625,16.62099148270812
0.1443,1.0114,-0.0645,-0.209,0.1338,-0.0004,41.8512,-11.6112,-25.83,-3.6321052655939194,8.156128317696716,2.437893310677886,16.633298130697572
0.1377,1.0078,-0.0675,-0.2048,0.1358,-0.0067,40.0575,-10.4737,-25.13,-3.827207414212645,7.797915677797327,0.876351251420605,16.645563724674805
0.1368,1.0148,-0.0685,-0.2021,0.1354,-0.0143,34.6675,-9.4762,-24.7275,-3.8607570011218604,7.672853972886625,1.4043279785571938,16.657832503877128
0.1428,1.0205,-0.0754,-0.2021,0.1354,-0.0143,32.1825,-8.505,-23.5987,-4.215368082064801,7.916641526387213,1.358091046635171,16.670038994233327
0.1415,1.0533,-0.0944,-0.1986,0.137,-0.013,29.2775,-7.3763,-22.2162,-5.093564499143207,7.656258616285919,0.3489686632305103,16.682289015999032
0.1429,1.0645,-0.1039,-0.1986,0.137,-0.013,25.6375,-6.2125,-20.2912,-5.558064699912473,7.617155500733786,0.06276065386471713,16.694565935221014
0.1431,1.0694,-0.1111,-0.199,0.1386,-0.0165,21.7612,-4.5588,-17.6837,-5.9163169562182985,7.590584001795008,0.56022714359031,16.706824097006383
0.1479,1.0657,-0.1078,-0.2017,0.1388,-0.019,17.0625,-2.6775,-15.19,-5.782935206243809,7.665274948275213,1.3565058884471284,16.719067394408018
0.1447,1.0518,-0.1053,-0.2017,0.1388,-0.019,13.0462,-1.2337,-13.9125,-5.721085579384547,7.726489373402518,1.5340625827251324,16.731283794353374
0.142,1.0264,-0.0989,-0.2024,0.1395,-0.0218,9.3362,0.1925,-13.5187,-5.520955028481911,7.79094096429545,2.0684265499533976,16.740153230561457
0.1416,1.0185,-0.0998,-0.2024,0.1395,-0.0218,6.9038,1.0762,-12.9325,-5.5890240628440555,7.847562639258547,2.101143860607599,16.75234591827562
0.1418,1.0195,-0.093,-0.2026,0.1396,-0.021,4.5325,2.3888,-14.2537,-5.260046723193425,7.861298373743027,2.376754112485695,16.764519494639266
0.1485,1.0236,-0.0861,-0.2023,0.1386,-0.0224,2.6863,3.1238,-14.0262,-4.883129714369508,8.02149005995344,3.0558759998542637,16.77668705446664
0.1544,1.0198,-0.0892,-0.2023,0.1386,-0.0224,-2.59,4.3488,-12.8187,-4.90642359785279,8.391300747537189,3.2195077336150804,16.78890734746488
0.1552,1.0076,-0.0747,-0.203,0.1382,-0.0222,-5.3025,5.7663,-12.6962,-4.4080613888144535,8.623122638647391,3.696959348562584,16.801216472851618
0.1574,0.9962,-0.069,-0.203,0.1382,-0.0222,-7.0788,6.8338,-12.4162,-4.039832265642522,8.858903018980316,3.979999460910476,16.813362090017293
0.1572,0.9872,-0.0608,-0.2022,0.1385,-0.0202,-8.4087,7.8225,-12.4425,-3.597210196215687,8.979807264978033,3.7783872483944867,16.825553362075862
0.153,0.984,-0.0526,-0.204,0.1386,-0.0224,-9.0825,8.2775,-12.8537,-3.129235326994539,8.87778709961835,4.630222073179328,16.837776840299185
0.1483,0.9765,-0.0428,-0.204,0.1386,-0.0224,-10.395,8.6187,-13.8075,-2.578075051545139,8.752423754647582,5.093314001527029,16.850025092495397
0.1358,0.9687,-0.0414,-0.205,0.1369,-0.0206,-10.78,8.8638,-14.28,-2.4610608596819077,8.482606816242015,4.6394788809220815,16.8622535255133
0.1369,0.9707,-0.0321,-0.205,0.1369,-0.0206,-11.0337,8.785,-15.0237,-1.9525026798235665,8.401558383619111,4.9537703788992715,16.871212501937677
0.1357,0.969,-0.029,-0.2051,0.1394,-0.018,-10.2112,8.6187,-15.2163,-1.7410763713211515,8.276293426439496,4.379154645930499,16.883437395816596
0.135,0.962,-0.0285,-0.205,0.1387,-0.0197,-10.9812,8.2337,-15.0062,-1.7015131375573675,8.228376862708197,4.791549823290171,16.895775188229106
0.1365,0.9515,-0.0203,-0.205,0.1387,-0.0197,-13.4137,8.5225,-13.37,-1.261896561475599,8.189202941202979,5.169440508974899,16.90796999942666
0.1408,0.9498,-0.0131,-0.2037,0.1377,-0.0182,-11.0775,8.4875,-12.495,-0.838626353723901,8.35834462596879,5.141728094158879,16.920201971583545
0.1413,0.9461,-0.0094,-0.2037,0.1377,-0.0182,-9.6775,8.5662,-12.9675,-0.6015464906309074,8.446217576616675,5.289714124697591,16.932402091489575
0.1404,0.9415,-0.0112,-0.2063,0.1358,-0.0101,-8.5312,8.3212,-12.0837,-0.6704308812734472,8.47171308044468,2.9641471226527547,16.944624154057305
0.1437,0.9453,-0.0073,-0.2074,0.1361,-0.0168,-9.4062,7.4288,-11.165,-0.4707091420044996,8.606435355839949,4.614210415081357,16.956853294903002
0.1563,0.9405,-0.0041,-0.2074,0.1361,-0.0168,-8.3825,6.7463,-10.8937,-0.281135325524547,9.266891848902032,5.010329374910457,16.96907111050395
0.1593,0.9411,0.002,-0.208,0.1357,-0.0178,-8.4263,6.9125,-10.745,0.06492389196502875,9.54013943106017,5.56579024911002,16.981214604186235
0.1654,0.9414,-0.0013,-0.208,0.1357,-0.0178,-8.6363,6.9563,-10.605,-0.05938438713407268,9.883294599575496,5.549206880742599,16.993467457263126
0.1662,0.9427,0.001,-0.2095,0.1372,-0.0166,-7.4025,6.5975,-10.9812,0.04096447734160432,9.974728488731635,5.290115946027707,17.005616613567785
0.1717,0.9367,-0.001,-0.2102,0.1365,-0.0156,-6.2913,6.615,-11.4275,-0.04054896807352416,10.293051127815064,4.917881496382193,17.014488173259256
0.1825,0.9395,0.0056,-0.2102,0.1365,-0.0156,-6.1687,7.0525,-12.2237,0.26242474729167686,10.797609153863501,5.15961393674828,17.026747750700217
0.19,0.9369,0.0062,-0.2117,0.1346,-0.018,-5.9938,6.8425,-12.9237,0.3540819897501249,11.232857629567503,5.845862243984556,17.03889372177979
0.1928,0.9304,0.0036,-0.2117,0.1346,-0.018,-5.425,7.1312,-14.7613,0.25408561454767764,11.25464553830845,5.870555226543099,17.05106234334886
0.1957,0.9299,0.0086,-0.2125,0.1365,-0.0105,-4.76,7.3238,-15.89,0.44928285998769313,11.581572747702442,4.0382667490367234,17.063263878910483
0.1967,0.9437,0.0103,-0.2102,0.1346,-0.015,-5.0487,7.245,-17.2025,0.5778872002694011,11.716712103738296,5.1011806631773755,17.075456212710748
0.1901,0.962,0.007,-0.2102,0.1346,-0.015,-5.1712,7.63,-18.9175,0.4589015968805359,11.283355936766737,5.073311095265719,17.087611031637778
0.187,0.9553,0.0092,-0.209,0.133,-0.0142,-5.0925,7.1575,-20.6588,0.5270344906628569,11.105506397200354,4.947573984214525,17.096474451309586
0.1801,0.9512,0.0093,-0.209,0.133,-0.0142,-5.18,7.14,-22.5225,0.5515456717940099,10.765087776576525,4.910453830124254,17.108643072878657
0.1735,0.9449,0.0038,-0.2076,0.1373,-0.0134,-4.6725,6.7463,-25.1562,0.32672106547865104,10.436293992877653,4.517208285160591,17.120852394546045
0.1744,0.9413,0.0062,-0.207,0.1356,-0.0154,-4.0163,5.4425,-27.2388,0.3584665374876636,10.491801655631132,5.075141594441884,17.133013583923248
0.1801,0.9655,0.0054,-0.207,0.1356,-0.0154,-3.85,4.725,-29.0587,0.33558321959451465,10.56122588405159,5.147987897211559,17.14522255167674
0.1845,0.9645,0.0099,-0.2032,0.1362,-0.0156,-3.7888,4.7075,-31.325,0.4850599950202195,10.813500161625614,5.484026924154263,17.157407807199032
0.1761,0.9659,-0.0005,-0.2032,0.1362,-0.0156,-4.4275,4.4187,-32.9,0.13693951309688754,10.357704100170725,5.157371665245127,17.169633408905746
0.1646,0.9691,0.0062,-0.2014,0.1394,-0.0105,-5.0225,4.8825,-35.0,0.3042373474966938,9.673301770175541,4.023285574219015,17.181817602686348
0.1599,0.9689,0.0071,-0.1974,0.139,-0.0145,-6.2038,5.11,-37.1087,0.39609017799826113,9.383928159692822,4.923640701249022,17.190633951809666
0.1504,0.9656,0.0019,-0.1974,0.139,-0.0145,-6.9125,5.005,-39.8563,0.16356911008820763,8.873505580684691,4.875097071941773,17.20284044216587
0.1435,0.9573,0.0131,-0.1934,0.141,-0.0138,-8.05,4.2,-40.9062,0.6915690986991878,8.53730136907678,5.175338743060295,17.21502817508545
0.1429,0.9544,0.0059,-0.1934,0.141,-0.0138,-9.0562,4.0075,-42.4113,0.39790342227956854,8.516107334412824,4.986847218226457,17.227211307124357
0.139,0.9566,0.017,-0.1892,0.1432,-0.017,-9.1,3.885,-43.015,0.9382093813799424,8.274841085490248,6.231620320680745,17.239391253938177
0.1401,0.9606,0.0163,-0.1858,0.1446,-0.0148,-8.9775,4.2788,-43.4875,0.9676930549691735,8.295960844754315,6.08666343598121,17.251579694685557
0.1367,0.9548,0.0145,-0.1858,0.1446,-0.0148,-9.45,4.3663,-43.9863,0.882087861664082,8.151759518328225,5.971034224450749,17.263778398935994
0.1363,0.9503,0.0218,-0.181,0.1463,-0.0117,-9.2575,4.69,-45.3075,1.259586606588021,8.159793946430828,5.546594234215296,17.275933217863024
0.1291,0.9568,0.0214,-0.181,0.1463,-0.0117,-9.2575,5.705,-46.2962,1.2785376672178501,7.697240607413829,5.384858187903967,17.28487379076469
0.1299,0.9648,0.0255,-0.175,0.1464,-0.013,-8.8287,6.2475,-46.2875,1.4825619628504991,7.666482342052993,6.108807134615231,17.296985078282216
0.1272,0.9725,0.0242,-0.1686,0.151,-0.0109,-9.2487,7.6737,-47.5563,1.432688961249188,7.455957245522621,5.726500523213179,17.309175642512987
0.1199,0.9687,0.0307,-0.1686,0.151,-0.0109,-9.6337,8.3212,-48.895,1.7690978017065173,7.063847986876758,5.977972627354387,17.321376116332914
0.113,0.9579,0.0346,-0.1622,0.1527,-0.0102,-10.535,8.2512,-49.945,2.0360913874534075,6.732955489598408,6.221875414401279,17.333602071953525
0.1073,0.9558,0.0309,-0.1622,0.1527,-0.0102,-9.5637,9.2137,-50.365,1.87408717679792,6.411055781674359,6.014649264264563,17.34576113784734
0.0991,0.9579,0.0337,-0.1564,0.1549,-0.0117,-9.765,10.0187,-51.2137,1.9981895341524825,5.916508026161206,6.895410588379869,17.358004081335075
0.0913,0.9592,0.0339,-0.1564,0.1564,-0.0131,-10.3162,11.2262,-53.8825,2.0212160576109826,5.445903294220856,7.467526906122324,17.370219773452636
0.0827,0.9589,0.0403,-0.1499,0.1564,-0.0131,-10.4387,11.4625,-56.5075,2.36422878695159,4.9371325924480605,8.158179344371126,17.382482182204782
0.0664,0.955,0.0412,-0.1453,0.159,-0.0094,-10.395,12.11,-57.7938,2.458576244772725,3.9955272325423477,7.017587843152175,17.391405059411525
0.0568,0.9531,0.0468,-0.1453,0.159,-0.0094,-10.22,12.3375,-59.6837,2.771439615063352,3.4192560467323108,7.204892896533045,17.403571203583308
0.0507,0.9493,0.0477,-0.1351,0.1636,-0.0071,-10.57,12.46,-61.7225,2.8651675918276776,3.0609288896397406,6.935616993663418,17.4158905924731
0.0357,0.9442,0.0465,-0.1306,0.1688,-0.0113,-10.1325,12.88,-63.665,2.8246279729935404,2.180707953266007,8.806093124822926,17.428140614238806
0.024,0.9426,0.0511,-0.1306,0.1688,-0.0113,-9.6775,12.6175,-66.045,3.069679532482124,1.4702496716581481,9.154801161456575,17.440332948039067
0.0062,0.941,0.0536,-0.1209,0.1735,-0.0084,-9.2925,12.5825,-68.18,3.2361473612042637,0.3969997671559977,8.705220325984977,17.45254828624273
-0.0008,0.9414,0.0528,-0.1209,0.1735,-0.0084,-8.7675,12.3987,-70.245,3.213663664374183,-0.04071746959622676,8.521880551397148,17.46481494196166
-0.0074,0.9412,0.0596,-0.1141,0.1754,-0.0101,-8.47,12.1012,-71.2775,3.565887158769808,-0.4424527310435422,10.230890006343952,17.47705930110499
-0.0255,0.9417,0.0569,-0.1055,0.1824,-0.0094,-8.47,11.7337,-73.3075,3.472919289021341,-1.529706925941676,10.444148383924489,17.489315693320865
-0.0409,0.9432,0.0553,-0.1055,0.1824,-0.0094,-8.0937,11.4362,-75.53,3.372813697858204,-2.4633353748678903,10.079694364309693,17.501545188080463
-0.0794,0.9466,0.0562,-0.0958,0.1865,-0.0101,-7.2975,11.2437,-77.4725,3.3935106199858205,-4.749820025077251,10.72170265024319,17.513801580296338
-0.0931,0.9517,0.0519,-0.0958,0.1865,-0.0101,-6.9125,10.0537,-79.9575,3.1702748836294345,-5.566407617079034,10.181015287530789,17.526064696876286
-0.111,0.9543,0.0586,-0.0878,0.1966,-0.0078,-7.0437,8.9162,-82.5825,3.453682220285715,-6.606866517561773,10.234098729093631,17.538290298583
-0.1199,0.9557,0.0556,-0.0744,0.1989,-0.0104,-6.755,8.0937,-83.3263,3.352471521016015,-7.1312409303144575,12.270169696639545,17.550482278469364
-0.1299,0.9423,0.0614,-0.0744,0.1989,-0.0104,-7.2013,7.0088,-83.335,3.6640417775149294,-7.822501438655427,12.926448230706477,17.562705048864892
-0.1339,0.9489,0.0581,-0.0664,0.2058,-0.0089,-6.6937,7.1575,-82.8013,3.5337008830735757,-8.014378941786436,12.833236870678933,17.57159501207908
-0.1406,0.9664,0.0554,-0.0664,0.2058,-0.0089,-6.8863,7.315,-80.5175,3.326509006293027,-8.260664161562602,12.331475964586652,17.58382415292478
-0.1594,0.9677,0.0599,-0.0567,0.2144,-0.0098,-7.455,7.5775,-78.7238,3.5068159089199824,-9.319670481480603,14.005315358174478,17.596033828506066
-0.1699,0.9511,0.0801,-0.0486,0.22,-0.0102,-8.7762,7.91,-77.0088,4.6382552197149005,-10.080983723516592,17.823075421357178,17.608225100564635
-0.2059,0.9293,0.0758,-0.0486,0.22,-0.0102,-8.6975,9.9663,-77.2188,4.659731549986709,-12.415432242924359,16.655453169473088,17.6204167265371
-0.2217,0.9363,0.0794,-0.0391,0.227,-0.0113,-7.8575,9.8875,-77.2888,4.818439112830452,-13.261829570557241,18.517475656341897,17.632686921395013
-0.2369,0.9326,0.078,-0.0391,0.227,-0.0113,-6.5625,9.94,-77.2275,4.788107944332183,-14.190415678870828,18.004267602233504,17.6448962430624
-0.2556,0.9204,0.078,-0.0332,0.2336,-0.0122,-6.0375,9.135,-76.265,4.83210729056951,-15.447035551671068,18.68732466862324,17.65713847872234
-0.2722,0.9077,0.0826,-0.0257,0.2398,-0.0111,-4.1563,8.6012,-75.145,5.069176674971558,-16.608730205026387,19.388396140402843,17.669309931602598
-0.3051,0.9079,0.0767,-0.0257,0.2398,-0.0111,-2.1963,7.6563,-73.7975,5.0393712536246875,-18.481751375837653,17.631284155118784,17.68153234808423
-0.3161,0.926,0.077,-0.0179,0.2478,-0.0079,-1.1812,6.93,-73.4388,4.885995209030755,-18.782487312408445,16.61620885604592,17.693750163685177
-0.3176,0.9317,0.0758,-0.0179,0.2478,-0.0079,0.8138,6.8513,-73.99,4.707715267635231,-18.765969616428016,16.27144061754764,17.7025658049807
-0.3398,0.9409,0.0706,-0.0106,0.2513,-0.0172,0.7875,6.4925,-74.6113,4.392103371003743,-19.788433637111897,20.12127015195073,17.714786451892838
-0.3467,0.9357,0.0764,-0.0028,0.2597,-0.0137,1.1638,6.7375,-73.3688,4.6065976132883995,-20.26090739036074,20.639535554255236,17.72696321348157
-0.3619,0.9249,0.0636,-0.0028,0.2597,-0.0137,1.6362,6.8162,-71.7675,4.068983973672296,-21.305529211353875,18.457480830917266,17.739155193367935
-0.3672,0.9159,0.072,0.003,0.2673,-0.0144,2.1613,7.35,-67.9263,4.417405925670709,-21.77692807250199,20.00108795818487,17.751328415817685
-0.3779,0.9245,0.0737,0.003,0.2673,-0.0144,3.255,6.405,-60.76,4.536598579840792,-22.16100383396424,20.07379669181137,17.763452798149455
-0.3791,0.9244,0.0737,0.0081,0.2708,-0.013,2.5375,6.335,-60.2,4.554690129295448,-22.23347272959237,20.089705993901195,17.77228790470939
-0.388,0.9186,0.0737,0.0136,0.2786,-0.0169,3.115,6.16,-61.1975,4.582043684042547,-22.81986222787373,22.055824078449348,17.78441193312726
-0.4017,0.918,0.0638,0.0136,0.2786,-0.0169,3.5175,5.3288,-63.0262,4.064063250637084,-23.567153309596886,20.56771437399701,17.79659187994108
-0.4341,0.903,0.0678,0.019,0.283,-0.0175,3.6225,4.3488,-65.3888,4.260867054336752,-25.572550993121915,20.386203106327063,17.8087268796898
-0.4442,0.9033,0.065,0.019,0.283,-0.0175,4.4538,3.4213,-65.1525,4.134432952595605,-26.116419473645365,19.765921898762908,17.820887715153106
-0.4546,0.9033,0.0583,0.0242,0.2949,-0.0146,5.915,2.59,-63.2537,3.7405399973222906,-26.65562765888432,18.11128976217415,17.833026961868608
-0.4581,0.9116,0.0628,0.0309,0.297,-0.0221,7.0088,1.5487,-60.1038,3.9215102280219987,-26.626837931633613,19.256815883136603,17.84186525365363
-0.4463,0.9105,0.0574,0.0309,0.297,-0.0221,7.0613,0.5163,-56.9188,3.637499442048306,-26.080804822681813,20.239648000172963,17.854025735203038
-0.4389,0.9307,0.0514,0.0333,0.3047,-0.0193,6.7375,0.4112,-54.0662,3.208362622778355,-25.23554254328693,20.144687829145344,17.866159673210063
-0.4343,0.9346,0.044,0.0333,0.3047,-0.0193,6.6413,0.2975,-52.08,2.7468351856493274,-24.908405384278666,19.622342918919404,17.87832440172625
-0.4462,0.9335,0.0465,0.0372,0.3083,-0.0224,5.775,1.0412,-52.78,2.840184612230371,-25.50385524421682,19.748285512160063,17.890485591103452
-0.4645,0.9307,0.0446,0.0372,0.3083,-0.0224,5.1712,2.135,-54.3288,2.7549221280723155,-26.472418229782917,19.731664051887364,17.902637578719297
-0.4926,0.921,0.0362,0.0417,0.3144,-0.0198,4.2613,3.115,-54.8625,2.3171888877919695,-28.08168500494756,17.359778523721808,17.91143375475041
-0.5119,0.9148,0.0329,0.0438,0.3186,-0.0219,3.3863,3.745,-53.6025,2.0979978394679786,-29.186077230517213,16.32818228331482,17.923603791975072
-0.5286,0.9184,0.0293,0.0438,0.3186,-0.0219,4.2,4.095,-51.2575,1.8632159870274898,-29.891328274240994,15.259265675742505,17.93576391961058
-0.538,0.9174,0.0284,0.0477,0.3235,-0.0228,4.0338,4.0338,-45.92,1.7853609997723332,-30.361961607198616,15.101888587322593,17.948303796859083
-0.5312,0.9199,0.0269,0.0477,0.3235,-0.0228,3.2987,3.71,-40.95,1.6916151206917251,-30.007420364293786,15.057646650892753,17.960037812160905
-0.5183,0.9138,0.0317,0.0502,0.3255,-0.0228,2.1875,3.5788,-33.9238,1.9333862384036697,-29.569676051544768,15.952673362178748,17.968872564806944
-0.5054,0.9044,0.029,0.051,0.3289,-0.0252,1.3037,3.4038,-33.4687,1.8574409024459257,-29.204520476708943,16.820649942687204,17.981031276786858
-0.5109,0.9033,0.0325,0.051,0.3289,-0.0252,1.0325,4.0163,-33.39,2.0140894015608515,-29.462430007261343,17.375311595692413,17.993194235733554
-0.537,0.9063,0.0273,0.0526,0.3301,-0.0255,0.7,4.515,-33.6787,1.7968711707158405,-30.577082824863975,16.416312726036,18.005358256421943
-0.5486,0.9061,0.02,0.0526,0.3301,-0.0255,0.0,4.6988,-31.9113,1.4239653973443989,-31.153030842087247,15.01939732217825,18.017490778773375
-0.562,0.9085,0.0171,0.055,0.333,-0.0263,-1.1462,4.165,-28.7525,1.2360177339804566,-31.697437002766364,14.45102505710113,18.02968134300415
-0.5708,0.9146,0.0124,0.055,0.333,-0.0263,-1.225,3.8238,-25.6375,0.994115958735909,-31.943146195932176,13.679036423768627,18.041853503712204
-0.5659,0.9075,0.0278,0.0538,0.3342,-0.0238,-1.1375,3.1675,-22.5137,1.4090075107515445,-31.935784061616392,14.292206139080223,18.050807171428104
-0.5679,0.898,0.0173,0.0552,0.3354,-0.0258,-1.9162,2.0475,-21.7525,1.318434949270554,-32.25823504701668,14.013044833047724,18.062918812859532
-0.5556,0.8965,0.0274,0.0552,0.3354,-0.0258,-2.0825,0.7788,-20.0812,1.406362886815441,-31.85315738468704,14.436546416247706,18.075079648322838
-0.5463,0.899,0.0229,0.0569,0.3358,-0.0252,-2.905,0.595,-18.7162,1.425470421760194,-31.395031071035593,14.661836921060873,18.08724083770004
-0.5427,0.8985,0.0291,0.0569,0.3358,-0.0252,-2.3538,0.175,-17.9025,1.4321823542094452,-31.186413530157974,15.407292520824102,18.099461838526075
-0.5372,0.8943,0.0285,0.0568,0.3375,-0.0198,-2.485,0.1837,-16.2313,1.4825882299064388,-31.06529997407875,14.60376390628539,18.111627628783957
-0.5336,0.894,0.0228,0.0555,0.3358,-0.0258,-3.2987,0.0525,-14.84,1.4719698572078077,-31.058128491537374,15.063830334547669,18.12383872002084
-0.5305,0.8757,0.0286,0.0555,0.3358,-0.0258,-3.5963,0.315,-13.615,1.6940832916287574,-31.132080109029943,15.611521751536028,18.132673118752976
-0.5257,0.8686,0.0284,0.0561,0.3352,-0.0254,-3.2462,-0.5075,-11.27,1.7790952190784806,-31.16156291462865,15.987259343952601,18.14489907437359
-0.5319,0.8779,0.0293,0.0561,0.3352,-0.0254,-2.8788,-0.84,-11.2962,1.8255866632046054,-31.188839368152234,16.190962079005388,18.15712786130539
-0.5283,0.8973,0.032,0.0549,0.3321,-0.023,-2.7913,-1.155,-11.3137,1.8932355441055304,-30.63162397269461,16.133403345255786,18.169291174165984
-0.5287,0.9031,0.025,0.0551,0.3341,-0.0241,-2.9838,-1.0937,-10.6138,1.7725450776114997,-30.393166897619295,15.646119545003247,18.181521376753377
-0.5361,0.9021,0.0307,0.0551,0.3341,-0.0241,-3.5788,-0.9363,-8.96,1.8703230795322001,-30.661701042710845,15.961112389936607,18.19371831143432
-0.5418,0.894,0.0296,0.0543,0.3311,-0.025,-4.4012,-0.665,-6.8162,1.8878526964425406,-31.143379129174022,16.047260287501086,18.20591560002916
-0.5514,0.8946,0.0283,0.0543,0.3311,-0.025,-3.4738,-0.8925,-5.075,1.8474630099343892,-31.589585592561658,15.75157632955231,18.218092715531792
-0.5566,0.8995,0.0239,0.0524,0.33,-0.0209,-3.9288,-1.1462,-3.5088,1.6476244760799421,-31.727485149374473,13.820240242608818,18.230228069194414
-0.5588,0.9085,0.0206,0.0504,0.3283,-0.0232,-4.0425,-1.4262,-1.26,1.4278666627927918,-31.597831227183605,13.509073516423458,18.23910953847504
-0.5638,0.9469,0.0245,0.0504,0.3283,-0.0232,-3.8763,-2.1613,1.54,1.460755725815551,-30.810029999131473,14.121245698538171,18.251270727852244
-0.5643,0.94,0.0257,0.0497,0.3258,-0.0217,-4.9175,-1.7062,4.4187,1.5366713366366864,-30.95995738233878,13.875948013541214,18.263445365957587
-0.5585,0.9221,0.0273,0.0497,0.3258,-0.0217,-6.4837,-1.3737,8.4263,1.66489404821793,-31.181890942094004,13.953766228976363,18.275572225686645
-0.5388,0.9085,0.0336,0.0474,0.321,-0.0237,-8.0062,-1.3212,12.4162,2.050104911177162,-30.672258051422475,15.555195836384547,18.28777057602318
-0.5206,0.8997,0.0315,0.0406,0.3165,-0.0206,-8.2512,-2.1263,19.8975,2.011697076735175,-30.057769908373196,14.711333322698026,18.299923979294622
-0.5106,0.9048,0.0295,0.0406,0.3165,-0.0206,-8.2775,-1.12,22.6975,1.888196622487092,-29.440494982803372,14.546992771163179,18.308809695542028
-0.4973,0.9243,0.0271,0.0394,0.311,-0.0212,-8.925,-1.3475,25.8038,1.7069214664820178,-28.29935813852617,14.948227065416171,18.321003798911786
-0.5027,0.9508,0.0311,0.0394,0.311,-0.0212,-10.0975,-1.1638,28.3062,1.8544272364041878,-27.863429783111247,15.613572495870002,18.333195070970355
-0.5066,0.951,0.0378,0.0339,0.3045,-0.0171,-11.4187,-1.12,32.1388,2.2343367990305096,-28.02219265256188,14.850495974278859,18.34541819527978
-0.4939,0.9275,0.0389,0.0296,0.2968,-0.0169,-12.0225,-1.2337,34.79,2.3859613448561636,-28.014867145488395,14.652263133560883,18.35764945960887
-0.4755,0.9134,0.0401,0.0296,0.2968,-0.0169,-12.8187,-2.2575,36.8112,2.502646443912032,-27.488307046705998,15.059718341346361,18.369878954368463
-0.4323,0.9014,0.0463,0.023,0.2879,-0.0169,-12.7137,-3.1675,38.0713,2.9019074029069616,-25.627553657696218,16.689031115297187,18.382067749029744
-0.414,0.9175,0.0425,0.023,0.2879,-0.0169,-12.5387,-3.5963,37.9225,2.674431960805804,-24.288522961428956,17.205125314889457,18.39430219858392
-0.4033,0.9374,0.0478,0.0169,0.2823,-0.0162,-12.46,-4.725,38.2638,2.8971053349355373,-23.271123577943133,17.671847452943076,18.406503380231644
-0.3959,0.9513,0.0476,0.0116,0.274,-0.0098,-13.0812,-4.1563,39.0075,2.867283809967535,-22.58287262772392,14.587502688772892,18.418742430666498
-0.3942,0.9432,0.0537,0.0116,0.274,-0.0098,-14.8225,-4.1038,40.4075,3.2295351696409322,-22.647805950998602,14.96176278149738,18.42760549642441
-0.3739,0.9068,0.0634,0.0046,0.2669,-0.0103,-15.6275,-3.8238,43.12,3.9455187167449846,-22.363496623291464,16.346628935971975,18.439826497250444
-0.3499,0.8873,0.073,0.0046,0.2669,-0.0103,-14.7788,-5.4513,44.4938,4.6468742538208145,-21.470604387405842,18.760150536064224,18.45204466676529
-0.3336,0.8796,0.0642,-0.0054,0.258,-0.0092,-12.46,-5.9325,42.9712,4.216959150903985,-20.732259193761433,16.569663177722735,18.464299997239472
-0.3277,0.9033,0.0665,-0.0123,0.2522,-0.0034,-11.1737,-6.2213,42.9625,4.211120496491326,-19.904542452849203,13.179969470560822,18.476564175561112
-0.3292,0.9421,0.066,-0.0123,0.2522,-0.0034,-11.095,-6.7112,44.24,4.0282617746986915,-19.22886217194191,12.628437822631755,18.48876889634782
-0.3203,0.9654,0.0669,-0.0181,0.2442,-0.0064,-11.8125,-6.755,45.7975,3.970251163143824,-18.328663366694762,13.810751836009377,18.501045461655906
-0.3009,0.9501,0.0747,-0.0181,0.2442,-0.0064,-12.0662,-6.37,48.4225,4.4465728017038595,-17.534977367368388,15.53466579899516,18.513269647707027
-0.2786,0.9299,0.0781,-0.0266,0.2377,-0.0012,-12.4512,-6.72,50.1025,4.768983654905753,-16.63688200430698,13.061877812340478,18.525536657339856
-0.2543,0.9126,0.0772,-0.0343,0.2283,-0.0022,-12.5913,-6.7288,50.575,4.829440428526179,-15.534843363610143,12.886736428411634,18.537762612960467
-0.2117,0.9184,0.0822,-0.0343,0.2283,-0.0022,-11.7337,-6.79,49.91,5.087118721743016,-12.970176959822163,14.743030959251453,18.55002183648753
-0.2122,0.9346,0.0837,-0.0446,0.2221,-0.0016,-9.7037,-7.175,47.635,5.11394513121558,-12.74633680226415,13.241724110240025,18.56224885384984
-0.2178,0.9672,0.0885,-0.0446,0.2221,-0.0016,-9.8787,-6.3525,50.3037,5.214713554565105,-12.641054440201524,13.35086173759421,18.574470208589773
-0.2064,0.9676,0.0858,-0.0518,0.217,0.0004,-11.375,-5.9675,54.0662,5.082018758666465,-12.004906204355985,11.383571742625103,18.586662896303935
-0.1866,0.9532,0.0875,-0.0639,0.2071,0.0035,-11.2962,-5.7838,54.6175,5.228478528090626,-11.044837509440166,8.943036405582808,18.59881913088656
-0.1283,0.9286,0.0951,-0.0639,0.2071,0.0035,-11.2,-5.95,54.04,5.784644575057813,-7.872125972971993,10.666434654262261,18.607772444688568
-0.1014,0.9256,0.098,-0.071,0.2001,0.0052,-10.5787,-5.5213,52.6575,6.0157588742543275,-6.241545930846416,9.898712548250636,18.6199937994285
-0.1075,0.9118,0.093,-0.071,0.2001,0.0052,-9.7388,-5.1363,49.5075,5.846653065798997,-6.682804767766039,9.267075870968727,18.63218648714266
-0.107,0.9177,0.1087,-0.083,0.1902,0.0017,-8.015,-4.3313,46.4538,6.619056660606386,-6.605918143516381,10.925280928451834,18.644308038163242
-0.1257,0.9435,0.0997,-0.0924,0.1862,0.0078,-7.21,-4.5763,46.13,6.132041684332057,-7.531949508550176,6.57236993795911,18.656523730280803
-0.1298,0.9655,0.1068,-0.0924,0.1862,0.0078,-7.4637,-5.25,50.3125,6.282776031679192,-7.609760158458665,6.29018061391525,18.668743669365142
-0.0956,0.9489,0.1152,-0.1014,0.1806,0.009,-7.0175,-6.9038,52.955,6.80949029158958,-5.738987810624071,6.176243338119918,18.680934233595913
-0.0616,0.937,0.1104,-0.1014,0.1806,0.009,-7.3063,-7.49,54.7137,6.7348030885971655,-3.7639538209156007,6.164002809696545,18.693035965438185
-0.0257,0.9247,0.1139,-0.115,0.1741,0.0109,-6.2825,-7.9713,53.69,6.9639502199816326,-1.6114880883857559,5.110003289897611,18.70194928696967
0.0043,0.9098,0.1127,-0.1246,0.1683,0.0109,-5.4163,-7.7088,48.9125,7.0375434719391174,0.23969092157712332,4.614970573719885,18.71410870677738
0.0197,0.9065,0.0989,-0.1246,0.1683,0.0109,-3.185,-7.175,45.255,6.665549079707639,1.2212686200957514,3.6285144676773173,18.726271665724077
-0.0027,0.9607,0.1014,-0.133,0.1637,0.0118,-2.0388,-6.1512,43.7325,6.518095863367715,-0.13693647482686983,2.493149624139852,18.73843674815416
-0.0091,0.9676,0.1008,-0.133,0.1637,0.0118,-3.0188,-5.53,47.1362,6.286903522049438,-0.5295955970517656,2.2593194087888593,18.750609262776113
0.0093,0.9615,0.1021,-0.1425,0.1594,0.0074,-3.5875,-5.6875,49.4725,6.161655966777834,0.5345177952786552,3.642378218203125,18.76277186780891
0.0353,0.9514,0.1122,-0.1538,0.1532,0.0171,-2.8875,-5.215,51.135,6.361774826984348,2.0867341182710546,0.8159679285484374,18.771551763800694
0.065,0.9359,0.1119,-0.1538,0.1532,0.0171,-2.1088,-5.1188,49.98,6.446849246525392,3.9166670864140505,0.5303853620165196,18.783760377640284
0.0948,0.9124,0.1117,-0.1634,0.1492,0.014,-0.525,-4.5938,47.285,6.790250347397455,5.8569533620812,1.4821779960705845,18.795902809580873
0.092,0.8987,0.1057,-0.1634,0.1492,0.014,0.0613,-4.4275,43.365,6.732187809026586,5.806147776566641,1.3865360630175518,18.808031792793322
0.0683,0.9225,0.0977,-0.1754,0.1453,0.014,0.9363,-4.1213,39.4275,6.2061864265493565,4.239752089062565,0.6260640574938274,18.8201094584905
0.0496,0.9626,0.1028,-0.1754,0.1453,0.014,2.8087,-4.6025,39.795,6.113714714865599,2.9565290674418283,0.5317989087365173,18.82894775027552
0.0579,0.9703,0.1002,-0.1853,0.143,0.0151,2.8875,-5.1363,43.05,5.930859635718586,3.38941617002259,0.019730696455879788,18.841074963918476
0.0863,0.9635,0.0946,-0.193,0.137,0.0132,2.6425,-5.9675,46.2612,5.66160218535957,5.0664585845888,0.06732410385740908,18.853152983529554
0.1171,0.9495,0.1021,-0.193,0.137,0.0132,1.7325,-6.02,46.9962,6.043600999776218,6.9601388287119965,0.44624608788952363,18.86529187633116
0.175,0.9262,0.096,-0.2045,0.1342,0.0136,1.9075,-5.9412,45.85,5.941570843483212,10.58411202118516,0.14303002932630232,18.877414843007333
0.1889,0.9207,0.0967,-0.2045,0.1342,0.0136,2.4325,-6.16,43.3475,5.986339458145971,11.516714732527765,0.16025923829063327,18.886219866885906
0.2005,0.9253,0.0863,-0.2107,0.131,0.0172,1.8288,-5.4338,40.3288,5.455736671847772,12.163229087632754,1.363715062691115,18.898605791588597
0.2073,0.9331,0.0906,-0.2107,0.131,0.0114,1.645,-5.6438,37.3888,5.527717442442159,12.463022624235418,0.1948371148939119,18.910434655815195
0.2172,0.9304,0.0887,-0.2234,0.1296,0.0114,1.8812,-5.3987,33.8975,5.461538947742985,13.070513221372392,0.2770769848544495,18.922566824252726
0.2241,0.9419,0.0827,-0.2318,0.1256,0.0129,1.54,-4.7337,31.6312,5.1087477189396235,13.328174571297291,0.4246482426336241,18.93137326378689
0.2452,0.9324,0.0835,-0.2318,0.1256,0.0129,1.1112,-4.0338,28.0175,5.1154598098042925,14.646902813879578,0.4797533903114002,18.943438542497628
0.2485,0.9146,0.0807,-0.2378,0.123,0.0103,0.3413,-3.5525,26.1187,5.062294574471587,15.132519863070312,0.047734031893959784,18.955606810152798
0.2564,0.9017,0.0925,-0.2378,0.123,0.0103,0.105,-3.6488,24.7275,5.62627821753935,15.778143874160104,0.5681517035068424,18.96773933250423
0.2711,0.9001,0.0876,-0.2446,0.1202,0.0136,1.085,-3.1325,22.0675,5.573951053281192,16.663278858839373,0.3329200031282815,18.979842480002095
0.2861,0.8979,0.0858,-0.2534,0.1194,0.0114,1.68,-2.5813,19.2237,5.481427078999696,17.571686487419377,0.0683323236151313,18.988656705642025
0.2974,0.902,0.0875,-0.2534,0.1194,0.0114,1.6712,-1.6187,16.1875,5.528895155518456,18.149702561434584,0.019467359913570893,19.000771532298536
0.3073,0.9033,0.0885,-0.2608,0.1172,0.0124,2.7738,-1.1725,13.2212,5.584722303909216,18.68574102827235,0.1688668124368143,19.012860169326565
0.322,0.9088,0.0833,-0.2608,0.1172,0.0124,3.1063,-0.2187,10.4125,5.2910088068708205,19.406032444699942,0.33551580603701164,19.025032683948517
0.3219,0.9061,0.0811,-0.2645,0.1186,0.0101,3.0975,0.245,7.5513,5.142011841777693,19.482610339751204,0.10977076202866061,19.033753830233167
0.3183,0.9058,0.0759,-0.2645,0.1186,0.0101,3.9113,1.54,4.095,4.838398976513198,19.308198148609954,0.0912494172658426,19.04580778369915
0.3157,0.9086,0.0756,-0.2654,0.1175,0.0046,2.7475,1.8375,1.4,4.769820680326955,19.111136725957817,0.5139789442196184,19.05784297972852
0.3123,0.9137,0.0731,-0.2666,0.1158,0.0105,2.8875,1.3912,-1.9687,4.605598092465345,18.835848653938502,0.34913317222992474,19.069907196697557
0.3158,0.9169,0.0705,-0.2666,0.1158,0.0105,2.5988,2.2313,-5.1275,4.431965535628805,18.941916259049382,0.05359904621926716,19.07866550394154
0.3208,0.9198,0.0712,-0.2684,0.1161,0.0073,2.135,2.6863,-7.6125,4.427361728964305,19.145826275771736,0.2501559998821963,19.090783515823137
0.3223,0.9118,0.0681,-0.2684,0.1161,0.0073,2.0213,3.745,-9.9663,4.300456175876699,19.37083336457313,0.3332957666866283,19.102869321539977
0.3206,0.9097,0.0695,-0.2706,0.1171,0.0078,1.3825,4.4363,-11.97,4.354355363547362,19.36390679918374,0.30978267000292914,19.114940262873088
0.3088,0.9115,0.0598,-0.2706,0.1171,0.0078,1.1375,4.5325,-13.4925,3.8878155728244863,18.97409986220878,0.04694387453545168,19.123777492916414
0.2997,0.9163,0.0652,-0.2726,0.1171,0.0056,1.6625,3.6837,-14.6037,4.033616984850445,18.81965467099346,0.5158984663110061,19.13590683004276
0.2941,0.9206,0.0598,-0.2681,0.1156,0.009,0.4812,4.06,-15.9775,3.799590693638791,18.206710037914934,0.15625859836874104,19.148352212280386
0.2866,0.9259,0.06,-0.2681,0.1156,0.009,-0.0263,3.5613,-16.45,3.735438419355317,17.55971059107953,0.3206146116367816,19.160142145978156
0.2821,0.9251,0.0643,-0.2694,0.1171,0.0057,-0.1488,2.8525,-18.2962,3.9005721850118817,17.062639121239688,0.2743697605853408,19.17232775541435
0.2796,0.9207,0.0644,-0.2694,0.1171,0.0057,-1.3475,2.4325,-20.335,3.950613476879279,16.885764827659887,0.47768725527252587,19.181145520193265
0.2814,0.9201,0.0672,-0.2692,0.1166,0.0062,-2.2488,1.4088,-21.4375,3.969156568543839,16.95283790042189,0.5014023392469906,19.193309540881657
0.2825,0.9152,0.0664,-0.2692,0.1166,0.0062,-2.6688,1.0937,-22.3125,4.014036767295694,17.093144820715793,0.5054022938107782,19.205449141511057
0.2811,0.9131,0.0645,-0.267,0.117,0.0042,-2.6075,0.8838,-23.1788,4.019671825279366,17.073408706795256,0.6195153334779362,19.217586972570963
0.2741,0.9166,0.0658,-0.2671,0.1179,0.0072,-3.01,0.6038,-23.3625,4.054390973335599,16.65706565211559,0.5157414706616537,19.2297410836702
0.2668,0.9166,0.0726,-0.2671,0.1179,0.0072,-2.7213,0.77,-23.1788,4.185836424617487,16.231794881106648,0.524092706194662,19.24183821463179
0.2553,0.922,0.0692,-0.264,0.1168,0.0061,-3.5175,0.735,-22.9337,4.243423149084095,15.52319037789695,0.5702466169926341,19.25073737960734
0.2583,0.9235,0.068,-0.264,0.1168,0.0061,-2.5813,0.07,-23.5462,4.237126767489399,15.579549390610335,0.606956349402965,19.26287910372013
0.2561,0.9207,0.0692,-0.2642,0.1181,0.0074,-2.7213,-0.3237,-23.2663,4.254074393088033,15.510839573748955,0.47083189615807847,19.275044893978013
0.2505,0.9163,0.065,-0.2624,0.1187,0.0019,-3.01,-0.1312,-23.2663,4.175111593166704,15.280707146230512,1.1485226260492118,19.287217762513865
0.2399,0.919,0.0702,-0.2624,0.1187,0.0019,-2.7213,-0.8575,-23.7388,4.228619724007085,14.659186022207143,1.6009676269241215,19.299439471167695
0.2285,0.9227,0.0686,-0.2591,0.1186,0.0065,-3.0013,-1.0325,-23.7825,4.23792335993338,13.951163026835204,0.9103470950369192,19.3116006605449
0.2266,0.9231,0.0617,-0.2591,0.1186,0.0065,-2.59,-1.855,-22.8638,4.154582481719876,13.78338464631998,0.5013973777949526,19.32047080458078
0.2223,0.9338,0.0651,-0.2585,0.1183,0.0095,-3.0888,-3.08,-22.4175,4.083112909826226,13.408569244121436,0.16249500603569303,19.33263270178578
0.212,0.9509,0.0615,-0.2585,0.1198,0.0099,-3.4475,-4.3313,-21.1487,3.8818609932138632,12.660922007836206,0.48498276737949214,19.344835299089095
0.1831,0.9692,0.0562,-0.2583,0.1198,0.0099,-4.55,-6.37,-19.6963,3.4939815597678097,11.017024121097837,0.700792640581911,19.35702763288936
0.1347,0.9774,0.0418,-0.2576,0.1198,0.0078,-5.7488,-9.7825,-18.48,2.6857935995971682,8.519980589135544,0.6464934380544387,19.36919165357775
0.088,1.001,0.0361,-0.2576,0.1198,0.0078,-7.7438,-15.1812,-18.7687,2.1622612894030238,5.726408114504165,0.8000737792963907,19.38142221007904
0.0965,1.0063,0.0375,-0.2574,0.1182,0.0103,-10.4825,-22.7413,-19.845,2.1372266028181994,5.515738007540084,1.354666371013128,19.393678956208817
0.112,1.0124,0.037,-0.2574,0.1182,0.0174,-13.37,-37.9575,-22.085,2.0967187889709114,6.212864189656712,3.038656730638507,19.405927916232827
0.1169,1.0119,0.0346,-0.256,0.1183,0.0174,-19.9587,-44.4325,-23.9487,1.9657879415030963,6.549272136438283,3.1712132939233597,19.418157057078524
0.0866,1.0172,0.0279,-0.2525,0.1183,0.0192,-23.17,-51.7737,-26.4425,1.5892052203943756,4.997732886810457,3.7669241058927834,19.43040247796355
0.07,1.0216,0.0224,-0.2525,0.1183,0.0192,-27.1075,-60.0687,-27.7637,1.269015087998628,3.9961557255786517,3.8936380455850874,19.442672672821466
0.0553,1.0288,0.0212,-0.2494,0.1199,0.0293,-30.695,-68.565,-28.1837,1.1835153461086414,3.1401507240647373,6.275863996541775,19.45490924585903
0.0565,1.0311,0.0177,-0.247,0.119,0.0361,-35.4463,-76.8688,-28.0088,0.989315960894928,3.136267376056624,8.049832789990313,19.463813719543055
0.0701,1.0205,0.0123,-0.247,0.119,0.0361,-40.5563,-85.4963,-27.0287,0.6981658035963509,3.8693035887649465,8.275810982503716,19.476069050017234
0.1287,0.9694,0.0275,-0.2446,0.1201,0.0445,-45.5525,-93.0213,-26.8975,1.6039737676185928,7.277550268938925,10.257356219484327,19.488319779610737
0.1568,0.9415,0.0289,-0.2446,0.1201,0.0445,-48.3525,-100.205,-26.5387,1.7549018949888002,9.28029518952555,10.440759231409878,19.500587143157464
0.1612,0.9249,0.0342,-0.2433,0.1208,0.0525,-50.26,-105.245,-25.7512,2.110244533874046,9.829873562555433,12.363953614243167,19.512903700736068
0.1415,0.9154,0.0315,-0.2438,0.1192,0.0674,-50.0937,-114.0913,-24.36,1.9736973638471302,8.881283255656863,15.84795557843851,19.525163278177033
0.1389,0.9206,0.0372,-0.2438,0.1192,0.0674,-51.1175,-118.93,-23.2138,2.3071378933984685,8.605932705204301,15.671364465042737,19.5375106262648
0.1849,0.9146,0.0367,-0.2428,0.1222,0.0794,-50.89,-123.7075,-22.1725,2.2980524296372096,11.083689725799642,19.2188787280545,19.549713931395914
0.228,0.9134,0.0341,-0.2428,0.1222,0.0794,-50.5662,-126.7438,-22.0937,2.141283341861815,13.653426003287539,20.0084361173472,19.562033674199604
0.272,0.9117,0.0447,-0.2441,0.1226,0.0969,-50.3825,-128.38,-21.6825,2.7933512913885523,16.219899037678505,24.63782659426623,19.574263876787
0.2969,0.9099,0.0436,-0.2477,0.1219,0.1045,-50.3125,-127.2688,-21.6387,2.7443844373855737,17.818094839479983,26.650418842102212,19.58653265598932
0.2713,0.9266,0.0351,-0.2477,0.1219,0.1045,-50.2075,-125.0988,-21.4112,2.1811178374058957,16.507061993704873,26.250874635141987,19.598842489203857
0.2448,0.9365,0.0424,-0.2506,0.123,0.1196,-50.1987,-123.6463,-20.3787,2.583878585626108,14.919901382030856,28.45340310293418,19.611131441498387
0.2436,0.9355,0.039,-0.2542,0.125,0.1287,-51.905,-125.0813,-18.655,2.3911068873175285,14.652777019703798,30.044260216450457,19.623446583421398
0.2769,0.8963,0.0513,-0.2542,0.125,0.1287,-52.5,-124.8538,-19.4862,3.258475949379932,16.703040334527703,30.745204803716614,19.63567289295591
0.324,0.8823,0.0573,-0.2581,0.1258,0.143,-51.52,-123.9963,-20.8425,3.7066798438736948,19.638757341271827,34.444227900581765,19.64833770181055
0.322,0.8861,0.057,-0.2581,0.1258,0.143,-49.7612,-122.1675,-21.665,3.681123416160011,19.89528280408562,34.38842907124543,19.660271678464976
0.3079,0.9044,0.0589,-0.2628,0.1284,0.1496,-48.615,-120.75,-22.8375,3.725232533602632,18.88931771739806,34.57399399969981,19.67248383144355
0.2885,0.922,0.0526,-0.2699,0.1298,0.1635,-48.5625,-119.77,-22.225,3.274920526000069,17.531802889648155,35.774569732863796,19.68481525340589
0.2844,0.9071,0.049,-0.2699,0.1298,0.1635,-49.49,-120.1288,-20.825,3.0958139586872377,17.404881604810825,35.855523556180174,19.697091110886177
0.3076,0.8841,0.0547,-0.2733,0.1315,0.1786,-50.4087,-120.3825,-19.915,3.5313638075990443,18.864251119485054,38.79000618879386,19.709414038914957
0.3203,0.8741,0.0591,-0.2804,0.1326,0.1857,-49.4287,-120.3825,-20.1425,3.8610178770896777,19.890034591200862,39.53137834282397,19.72167290852812
0.3144,0.8861,0.0649,-0.2804,0.1326,0.1857,-48.4837,-118.8513,-23.0387,4.182038043481567,19.530764785188243,39.13947435359756,19.733910189393484
0.2617,0.891,0.072,-0.2862,0.1346,0.1964,-49.4813,-119.2363,-23.2838,4.610828036081972,16.657059043998366,38.498813497316206,19.74618817035716
0.2549,0.8859,0.0643,-0.2862,0.1346,0.1964,-49.1225,-120.8638,-23.345,4.160953033799804,16.079790925879234,38.484310963378576,19.75846261218186
0.2835,0.8777,0.0611,-0.2919,0.1402,0.2041,-47.6087,-122.7275,-24.3075,3.9860147848751155,17.69056943410808,40.043107499277006,19.770778815846565
0.322,0.886,0.0504,-0.3002,0.1408,0.2166,-46.4362,-123.48,-25.8125,3.271947217805032,19.75537074322871,42.135778265134526,19.783014681056333
0.3455,0.9187,0.0648,-0.3002,0.1408,0.2166,-45.8063,-122.3075,-25.2787,4.017492817661669,20.49278476798056,42.320578120924075,19.79534928824376
0.3353,0.9002,0.0678,-0.3046,0.1446,0.2251,-47.075,-119.0963,-24.6312,4.300857078289952,20.38683219916617,42.946552874003416,19.807607450029128
0.319,0.8963,0.0703,-0.3046,0.1446,0.2362,-48.3525,-117.25,-22.8025,4.480819596348477,19.63025102392,43.924064161438224,19.819920822382645
0.3359,0.8685,0.0679,-0.315,0.1469,0.2362,-46.655,-114.695,-21.5425,4.470566488730416,20.897532958260673,43.68245415095045,19.83215527193682
0.4108,0.8686,0.0653,-0.3236,0.1499,0.2421,-44.2487,-110.9325,-22.1987,4.303311074805566,24.730504140518057,46.12059412051054,19.84444174683406
0.4273,0.8772,0.0784,-0.3236,0.1499,0.2421,-42.8488,-105.9363,-22.4,5.087889539289407,25.747892733856233,46.44534618192524,19.8567289295591
0.4047,0.8603,0.0837,-0.3306,0.1531,0.253,-42.7088,-100.6075,-21.9888,5.545574246279681,25.169821038452728,46.56076775849613,19.869016820111934
0.372,0.8412,0.09,-0.3376,0.1551,0.2568,-40.9238,-96.6175,-21.9975,6.092666987257443,23.91098320844499,45.358999967687325,19.881256578374586
0.3675,0.8121,0.0892,-0.3376,0.1551,0.2568,-38.7887,-93.6863,-22.9075,6.263480296141662,24.185512767563353,45.62840310601493,19.893476871372826
0.399,0.8413,0.092,-0.3458,0.1586,0.2619,-35.6212,-90.3788,-23.7125,6.241420438274923,25.1351281159064,46.16018433340465,19.905734325330396
0.3963,0.8554,0.0905,-0.3458,0.1586,0.2619,-32.7775,-86.73,-23.1612,6.045766151143045,24.779128393976425,45.86425989742666,19.918007351499497
0.3912,0.8599,0.0837,-0.351,0.1594,0.2642,-31.5,-82.5388,-22.1812,5.57560240741746,24.4108213483975,45.44398568163551,19.930192253107894
0.3935,0.8674,0.0698,-0.3568,0.1614,0.2705,-27.8162,-74.5938,-20.755,4.63751814559635,24.34347183702794,45.76512592003532,19.94243094962885
0.4395,0.9147,0.0816,-0.3568,0.1614,0.2705,-26.2588,-69.7025,-21.0263,5.079366142927201,25.40441287533155,46.49033704202147,19.954735828048808
0.4351,0.9041,0.0992,-0.3637,0.1632,0.2754,-25.8213,-64.3738,-22.225,6.213295037664935,25.546420132294767,46.24268737693258,19.967003191595534
0.4055,0.8636,0.1007,-0.3637,0.1632,0.2754,-24.5963,-59.5438,-23.3275,6.632117712292317,25.060713922151336,45.8089559512216,19.979252859447342
0.3917,0.8448,0.1062,-0.3686,0.1675,0.2783,-22.6012,-55.9912,-24.7275,7.140014906292067,24.736932964208954,45.496184694270916,19.9914689054788
0.4001,0.8641,0.0967,-0.3721,0.1651,0.281,-19.4162,-52.3162,-25.1562,6.427055394389856,24.712056227862796,45.50015563232225,20.003687428907543
0.4416,0.9016,0.0873,-0.3721,0.1651,0.281,-16.3975,-47.3112,-25.2437,5.590114724250786,25.878206328617683,46.449352652045775,20.012635787914974
0.4492,0.9099,0.095,-0.3763,0.1678,0.2819,-14.9625,-41.4487,-24.4825,5.93330508281166,26.125963420433404,46.299272298951784,20.024897488839326
0.4131,0.8872,0.1056,-0.3771,0.1672,0.2825,-13.7725,-34.755,-24.36,6.719045465300478,24.93822684590263,45.26740798757569,20.037128753168414
0.3733,0.8416,0.1128,-0.3771,0.1672,0.2825,-13.58,-28.8663,-24.4037,7.559153262858446,23.84555598512481,44.40965311573833,20.04937877493412
0.3816,0.8347,0.0928,-0.3789,0.1705,0.2848,-7.1663,-21.9363,-23.6688,6.552455006710532,24.3758062221809,45.22318940561883,20.061576417442858
0.4097,0.8977,0.0689,-0.3789,0.1705,0.2848,-3.815,-17.6837,-22.785,5.262357805065637,24.45765574649318,45.5674289514523,20.073840595764498
0.3975,0.9442,0.0837,-0.3786,0.1699,0.2788,-3.4475,-11.7862,-21.595,5.158988398473818,22.969849521859313,43.90492092709851,20.086011694730857
0.3358,0.9226,0.0956,-0.3775,0.1697,0.2868,-4.585,-6.475,-20.2912,5.682785524913936,20.37524302914214,43.08112607704449,20.09849671532511
0.2881,0.8686,0.0925,-0.3775,0.1697,0.2868,-4.4363,-5.0225,-19.4512,5.950919510094701,18.629576852510635,42.20355344928471,20.110397070159184
0.3578,0.8896,0.0841,-0.3772,0.1705,0.2832,-2.4237,-5.5125,-20.4662,5.907438509558629,21.342464472263785,43.60134120107719,20.12258586482046
0.3958,0.9404,0.0636,-0.3772,0.1705,0.2832,0.56,-3.3863,-20.65,4.3920047386824805,22.56880582270675,44.448724947668,20.13140256785768
0.3907,0.9665,0.0709,-0.379,0.17,0.2878,1.0675,2.17,-18.5237,4.240150480750647,22.08698409767806,44.43252649047012,20.143495097938594
0.3458,0.9514,0.0693,-0.379,0.17,0.2834,-0.8225,8.4263,-15.82,4.195519563504714,21.00070962004573,43.03055749314849,20.15566230385207
0.2884,0.8972,0.077,-0.3773,0.167,0.2834,-2.835,11.9612,-12.32,4.43117185856038,18.687688936002946,41.78735274008411,20.16783021759334
0.2807,0.872,0.0793,-0.3774,0.17,0.2855,-1.7587,12.0925,-11.585,4.711769937545761,17.990936114664112,41.88368618143433,20.1800912106899
0.3542,0.9242,0.0831,-0.3774,0.17,0.2855,0.6825,12.0575,-12.39,5.031959638961127,20.043865504636784,43.411850715948745,20.192160028539615
0.3838,0.9319,0.0903,-0.3769,0.1682,0.2813,1.6538,13.7725,-13.6237,5.433916296170255,21.26239118658438,43.7818310464211,20.201013184708373
0.379,0.9044,0.1034,-0.3769,0.1682,0.2813,1.8812,17.1763,-14.4287,6.313765011436473,21.632455771828536,43.80704955209204,20.21316446449642
0.3478,0.8426,0.1125,-0.373,0.1665,0.2814,2.17,25.8388,-14.385,7.370475751568162,21.816884394998542,43.72394154020083,20.225334147807185
0.3074,0.8086,0.1176,-0.374,0.1682,0.2819,6.7375,25.935,-14.1925,8.185119791975222,21.35890461532146,42.632977207597236,20.237462777105733
0.2854,0.861,0.1223,-0.374,0.1682,0.2819,10.08,25.2875,-13.895,8.091949738863244,19.835154908342187,41.32501248989994,20.24965935787278
0.3205,0.8976,0.1172,-0.3687,0.1665,0.2794,12.7925,25.1912,-14.35,7.479525083873046,19.728673707404013,42.29999164885939,20.26185062993135
0.3475,0.9049,0.1205,-0.3687,0.1665,0.2794,14.3238,26.32,-15.96,7.579126253023144,20.323148436561343,43.042343442064606,20.273995185355325
0.374,0.8784,0.1333,-0.3689,0.1651,0.2722,15.085,29.3563,-15.68,8.57199383698064,21.489317103055132,43.12851674035338,20.2829109842841
0.4,0.8503,0.1177,-0.3638,0.1646,0.2757,17.3687,33.6087,-15.8375,7.914276967457002,23.26110422030191,45.5727012769222,20.29508172933656
0.4277,0.8716,0.0885,-0.3638,0.1646,0.2757,19.81,39.375,-15.7675,5.889227252327695,24.611722970227834,46.66520972449481,20.30731087018226
0.4158,1.0189,0.0383,-0.3625,0.1628,0.2709,20.2562,46.1125,-13.4925,2.3110759065318804,23.232718119284257,44.42908769598316,20.319444808189285
0.3967,1.0494,0.0204,-0.3625,0.1628,0.2709,17.4387,52.9987,-9.9488,1.1713036285194491,21.135717072151575,43.757417158393814,20.331608474963776
0.4001,1.0287,0.0268,-0.356,0.1618,0.2665,13.16,58.8087,-6.5188,1.4728894571449596,21.234449800108482,44.082737475112786,20.343734980778937
0.4276,0.9731,0.0329,-0.3536,0.1631,0.2614,8.9687,63.9888,-5.81,1.8987389135235726,23.46208484633278,45.10519919356295,20.35252337070428
0.4671,0.9169,0.0567,-0.3536,0.1631,0.2614,6.2737,71.2075,-6.6675,3.367984648582951,26.56993021479314,46.9500687389496,20.364649168691642
0.4916,0.8409,0.0847,-0.3436,0.161,0.2622,6.9388,80.7625,-7.2625,5.519784913189014,29.762223076718627,50.2497556551131,20.376786291923754
0.4706,0.7074,0.123,-0.3436,0.161,0.2622,10.5262,91.49,-8.3475,9.550431493708384,32.775319576243916,52.6695902695495,20.388938987367396
0.4681,0.705,0.1086,-0.3374,0.1564,0.2594,17.465,101.3075,-8.3387,8.795287557403377,33.20737235212888,52.940839655801064,20.401099115002904
0.4816,0.7778,0.0906,-0.3374,0.1564,0.2594,25.0425,109.5763,-4.2,6.719809636602094,31.73161211127251,51.5519955494352,20.413256765241126
0.4887,0.8531,0.0662,-0.3298,0.1562,0.2463,36.4087,127.1463,-2.0213,4.494651103526747,29.877206950450816,49.47544446186438,20.422148851938704
0.4848,0.8868,0.0506,-0.3185,0.1516,0.2441,39.2262,135.5375,-1.3212,3.294576791152433,28.711966458441207,49.55164399654189,20.434368437109146
0.4703,0.8547,0.0349,-0.3185,0.1516,0.2441,41.265,143.955,-1.715,2.3597025554233344,28.795337697297224,49.7365889030403,20.446471938520908
0.4564,0.8181,0.0436,-0.3106,0.1489,0.2345,43.5925,152.0312,-3.78,3.0359249856486383,29.094505519068544,49.54941695200521,20.458706034161185
0.4236,0.7788,0.0531,-0.3106,0.1489,0.2345,46.8213,159.11,-6.755,3.883257257179083,28.5537753099371,49.00892371449826,20.47090226101433
0.3764,0.7426,0.0539,-0.2975,0.147,0.2185,51.87,164.4037,-9.625,4.146551933778897,27.098940556761736,47.17110506601269,20.483071944325097
0.3307,0.7366,0.047,-0.288,0.143,0.2102,58.1525,167.9913,-14.0963,3.6589647338987743,25.864891336933226,45.250346903660414,20.495261092900275
0.2992,0.7583,0.023,-0.288,0.143,0.2102,64.75,169.0587,-16.94,1.765529062557538,22.91031603699398,43.999451436652755,20.507469352825968
0.2437,0.8669,0.0122,-0.2754,0.1394,0.1941,69.7463,168.07,-18.3137,0.8194032481468712,17.30083901253926,40.30606348446888,20.516386213496435
0.2276,0.914,-0.0023,-0.2754,0.1394,0.1941,72.6163,166.32,-17.1937,-0.13149308664326234,14.963437553745162,39.76864184931126,20.528618893481116
0.2157,0.9482,-0.0124,-0.2631,0.136,0.1785,73.6838,164.22,-14.7175,-0.741217286848411,14.782509092706398,38.47339327950591,20.540908907517345
0.2159,0.9556,-0.0146,-0.2584,0.1309,0.1605,72.59,161.8488,-11.8212,-0.8735512432579874,13.244435512584579,36.00170732487644,20.55310513437049
0.2137,0.9329,-0.0109,-0.2584,0.1309,0.1605,69.5013,157.92,-11.2437,-0.6722157898538036,12.97647781224783,35.99126518743864,20.5653979797179
0.1761,0.9583,-0.0185,-0.2513,0.1274,0.1437,67.9963,154.5775,-13.4312,-1.0998783195599997,11.489595277258855,33.06299875679678,20.577621811855124
0.116,0.9931,-0.0251,-0.2513,0.1274,0.1437,66.675,149.5287,-13.335,-1.4428383310255761,8.61190386609591,31.9845020295506,20.589878911898797
0.0662,1.0208,-0.0287,-0.2443,0.1293,0.1246,62.1512,142.3537,-11.4275,-1.607898760384071,4.8279161929867636,28.568320427448374,20.602105575347206
