AcclX,AcclY,AcclZ,MagX,MagY,MagZ,GyroX,GyroY,GyroZ,Roll,Pitch,Yaw,Time(s)
-0.0849,0.9825,-0.0121,-0.4884,0.2218,-0.0402,-2.7825,1.085,-15.61,0,0,0,1.6206906558944714
-0.0873,0.9553,-0.0119,-0.489,0.2224,-0.0418,-2.485,1.1812,-15.7937,0,0,0,1.6329197967401698
-0.0882,0.9823,-0.0106,-0.489,0.2224,-0.0418,-2.2225,1.2337,-15.8112,0,0,0,1.6450877104814432
-0.0858,0.9803,-0.0087,-0.4887,0.223,-0.0402,-2.7213,1.5225,-15.5487,0,0,0,1.657341979213929
-0.0886,0.9813,-0.0074,-0.4887,0.223,-0.0402,-2.17,1.6712,-15.7762,0,0,0,1.6695757209403068
-0.0863,0.9822,-0.0117,-0.4897,0.2227,-0.0297,-2.415,1.26,-15.645,0,0,0,1.681762392118196
-0.0864,0.982,-0.0092,-0.4897,0.2203,-0.0403,-2.765,1.0237,-15.68,0,0,0,1.6940159530228849
-0.0872,0.9824,-0.0091,-0.4893,0.2203,-0.0403,-2.5813,1.3387,-15.1988,0,0,0,1.7062192581539992
-0.0848,0.9806,-0.0108,-0.4912,0.2238,-0.0409,-2.1788,1.19,-15.8025,0,0,0,1.7184179624044345
-0.0867,0.9806,-0.0139,-0.4912,0.2238,-0.0409,-2.5813,1.155,-15.6363,0,0,0,1.7306081727213076
-0.0874,0.982,-0.015,-0.4885,0.2226,-0.0426,-2.3625,1.12,-15.5575,0,0,0,1.7401291644163641
-0.0861,0.9825,-0.0113,-0.4894,0.2234,-0.0339,-2.4763,1.2512,-15.4525,0,0,0,1.7523593670037578
-0.0891,0.9814,-0.0145,-0.4894,0.2234,-0.0339,-2.1525,0.8925,-15.7412,0,0,0,1.7645456842677487
-0.0864,0.9829,-0.0131,-0.4911,0.2228,-0.0386,-2.3013,1.3212,-15.4525,0,0,0,1.7768381757012628
-0.0875,0.982,-0.0106,-0.4911,0.2228,-0.0386,-2.6338,1.3125,-15.3825,0,0,0,1.7890294477598312
-0.0897,0.9825,-0.0159,-0.4896,0.2228,-0.0366,-2.5463,1.0062,-15.8025,0,0,0,1.8013074287235105
-0.087,0.9828,-0.0128,-0.4871,0.2231,-0.0417,-2.7913,1.3562,-15.6363,0,0,0,1.8134541076308792
-0.087,0.983,-0.016,-0.4871,0.2231,-0.0417,-2.6425,1.05,-15.7675,0,0,0,1.8256393631531747
-0.0875,0.9841,-0.0151,-0.4904,0.223,-0.0414,-2.4675,1.33,-15.7937,0,0,0,1.837872750965654
-0.0866,0.9825,-0.0131,-0.4904,0.223,-0.0414,-2.555,1.4787,-15.435,0,0,0,1.8500017341781023
-0.0888,0.9825,-0.0154,-0.4902,0.2246,-0.0364,-2.38,1.5137,-15.6363,0,0,0,1.862297410836702
-0.0882,0.9834,-0.0144,-0.4898,0.221,-0.0381,-2.0825,1.0937,-15.9775,0,0,0,1.874520889060026
-0.0866,0.9828,-0.0098,-0.4898,0.221,-0.0381,-2.0913,0.7875,-15.925,0,0,0,1.8867673716867466
-0.0878,0.9811,-0.0179,-0.4907,0.2218,-0.0436,-2.3363,1.0587,-15.3387,0,0,0,1.8989260836666613
-0.0892,0.9828,-0.0107,-0.4907,0.2238,-0.0402,-2.8438,1.47,-15.715,0,0,0,1.9111608871347343
-0.0856,0.982,-0.013,-0.491,0.2238,-0.0402,-2.87,1.19,-16.065,0,0,0,1.9234148019533215
-0.0861,0.9824,-0.0106,-0.4902,0.2232,-0.0412,-2.6775,0.9013,-16.0037,0,0,0,1.9356046583562965
-0.0871,0.981,-0.011,-0.4902,0.2232,-0.0412,-2.765,1.2687,-15.9775,0,0,0,1.9478670671084457
-0.089,0.9812,-0.0126,-0.4922,0.2235,-0.0326,-2.555,1.3825,-15.3825,0,0,0,1.9599500415141002
-0.0891,0.9824,-0.0131,-0.4894,0.2213,-0.0372,-2.485,1.4525,-15.1637,0,0,0,1.9695389846776516
-0.0873,0.9821,-0.0135,-0.4894,0.2213,-0.0372,-2.3363,1.1638,-15.6012,0,0,0,1.9817323802196107
-0.0876,0.9818,-0.0135,-0.4886,0.2224,-0.0411,-2.2225,1.2687,-15.8812,0,0,0,1.9940892839826356
-0.0874,0.9822,-0.0121,-0.4886,0.2224,-0.0411,-2.2838,1.015,-15.4263,0,0,0,2.006184291460836
-0.0869,0.9832,-0.0166,-0.4891,0.2228,-0.0361,-2.6163,1.0762,-15.575,0,0,0,2.0184169714455185
-0.0875,0.9823,-0.0105,-0.4898,0.2237,-0.04,-2.9663,1.5312,-15.6275,0,0,0,2.0310035653286125
-0.0876,0.9827,-0.0143,-0.4898,0.2237,-0.04,-2.73,1.4175,-15.0762,0,0,0,2.042872421825728
-0.0904,0.9819,-0.0154,-0.49,0.2207,-0.0396,-2.6425,1.4,-16.0737,0,0,0,2.0550091911439416
-0.0876,0.9806,-0.0113,-0.49,0.2207,-0.0396,-2.5988,1.2775,-15.5225,0,0,0,2.0672146197584467
-0.0875,0.9814,-0.0185,-0.4874,0.2211,-0.0356,-2.66,1.5225,-15.2337,0,0,0,2.0795032181390782
-0.0903,0.9824,-0.0156,-0.4879,0.2218,-0.0418,-2.3538,1.2163,-15.54,0,0,0,2.0917136015481606
-0.0875,0.9812,-0.0157,-0.4879,0.2218,-0.0418,-2.7388,1.26,-15.7412,0,0,0,2.1039395571687733
-0.0885,0.9814,-0.0122,-0.4905,0.2225,-0.0418,-2.3363,1.9512,-16.1,0,0,0,2.1161138413602183
-0.0837,0.9822,-0.0136,-0.4905,0.2225,-0.0356,-2.2313,1.8375,-15.4525,0,0,0,2.128367402264907
-0.087,0.982,-0.0115,-0.4895,0.2227,-0.0356,-2.6338,1.295,-15.7062,0,0,0,2.1406797128767323
-0.0851,0.9823,-0.0101,-0.4898,0.222,-0.0398,-3.115,1.75,-15.5137,0,0,0,2.152801617811212
-0.0881,0.9842,-0.0118,-0.4898,0.222,-0.0398,-2.1438,1.2163,-15.5312,0,0,0,2.1649893507307967
-0.0886,0.9816,-0.022,-0.4871,0.2223,-0.0385,-2.415,1.12,-15.6187,0,0,0,2.1772308785629395
-0.0891,0.9834,-0.0117,-0.4888,0.2231,-0.039,-2.8087,1.5575,-15.5225,0,0,0,2.1894440932832095
-0.0857,0.9817,-0.0133,-0.4888,0.2231,-0.039,-2.765,1.5225,-15.5837,0,0,0,2.2015769695485403
-0.0874,0.9828,-0.0086,-0.4926,0.2202,-0.0402,-2.6075,1.47,-15.4088,0,0,0,2.211086282084949
-0.0866,0.9813,-0.0116,-0.4926,0.2202,-0.0402,-2.835,1.4787,-15.7412,0,0,0,2.2233557691150665
-0.087,0.9803,-0.0167,-0.4881,0.2227,-0.0409,-2.415,1.2337,-15.7762,0,0,0,2.2355357159288856
-0.0869,0.9842,-0.0087,-0.4891,0.2226,-0.0399,-2.1175,0.7437,-15.8812,0,0,0,2.2478151125481585
-0.0895,0.9831,-0.0104,-0.4891,0.2226,-0.0399,-2.5725,0.8663,-15.4875,0,0,0,2.2600998178759077
-0.0868,0.9819,-0.0133,-0.4889,0.2235,-0.0404,-2.1088,1.7413,-15.2337,0,0,0,2.2722111053934353
-0.0856,0.9822,-0.0083,-0.4889,0.2235,-0.0404,-2.1438,1.4875,-15.2425,0,0,0,2.284433521875064
-0.0876,0.9808,-0.0122,-0.4904,0.2222,-0.0382,-1.89,1.1287,-15.82,0,0,0,2.2967161037194224
-0.0879,0.9829,-0.0102,-0.4894,0.2232,-0.0379,-1.925,1.4875,-15.8638,0,0,0,2.3088932192220546
-0.0861,0.9812,-0.0145,-0.4894,0.2232,-0.0379,-2.5375,1.2163,-15.89,0,0,0,2.3210246798317917
-0.0885,0.9839,-0.0116,-0.4902,0.2219,-0.0396,-2.625,0.9013,-15.5487,0,0,0,2.3332920433785187
-0.0877,0.9837,-0.0131,-0.4902,0.2219,-0.0409,-3.0188,1.6275,-15.8638,0,0,0,2.3455413573164265
-0.085,0.9805,-0.0148,-0.4897,0.2224,-0.0409,-2.3275,1.1375,-16.135,0,0,0,2.357773329473312
-0.0873,0.9823,-0.0109,-0.489,0.2234,-0.0416,-2.0125,1.5575,-15.54,0,0,0,2.369951152803741
-0.0883,0.9812,-0.0116,-0.489,0.2234,-0.0416,-2.7738,1.3825,-14.8225,0,0,0,2.3821725075436744
-0.086,0.9822,-0.0121,-0.4886,0.2238,-0.039,-2.695,1.155,-14.7437,0,0,0,2.3944572128714237
-0.09,0.9826,-0.0141,-0.4895,0.2211,-0.0315,-1.855,1.1725,-15.6625,0,0,0,2.406623710957103
-0.0875,0.9819,-0.0087,-0.4895,0.2211,-0.0315,-2.135,1.505,-15.82,0,0,0,2.418799056890243
-0.0892,0.9825,-0.0142,-0.4878,0.2226,-0.0398,-2.3712,1.5225,-15.8287,0,0,0,2.430985020240336
-0.0855,0.9825,-0.0132,-0.4878,0.2226,-0.0398,-2.3975,1.2425,-16.0387,0,0,0,2.4405530824838806
-0.0872,0.9823,-0.0127,-0.4882,0.2231,-0.0467,-1.8812,0.9275,-15.7325,0,0,0,2.4527514328204174
-0.088,0.9815,-0.0128,-0.4886,0.2223,-0.0407,-2.0038,1.2337,-16.0912,0,0,0,2.4650297676979953
-0.0858,0.9828,-0.0135,-0.4886,0.2223,-0.0407,-2.4938,1.4,-15.2512,0,0,0,2.4774033054142452
-0.0847,0.981,-0.0145,-0.4903,0.2219,-0.0408,-2.5463,0.8487,-15.435,0,0,0,2.489423283145983
-0.0888,0.9831,-0.0128,-0.4903,0.2219,-0.0408,-2.4063,1.26,-15.5487,0,0,0,2.5016191560852308
-0.0859,0.9826,-0.0132,-0.4895,0.2241,-0.0356,-2.9575,1.6362,-15.4612,0,0,0,2.5138723630760214
-0.0863,0.9814,-0.0143,-0.4912,0.221,-0.04,-2.9225,1.6538,-15.715,0,0,0,2.5260169184999994
-0.0878,0.983,-0.0099,-0.4912,0.221,-0.04,-2.9488,1.5137,-15.7062,0,0,0,2.538221285372809
-0.0873,0.9807,-0.0138,-0.4904,0.2215,-0.0422,-2.2488,1.4612,-15.8375,0,0,0,2.5504907724029264
-0.0877,0.9819,-0.0161,-0.4904,0.2215,-0.0422,-2.4763,1.2337,-15.4175,0,0,0,2.5627273454404915
-0.0858,0.9828,-0.0148,-0.4892,0.2227,-0.0411,-2.7562,1.1812,-15.9425,0,0,0,2.574895967009562
-0.0864,0.9816,-0.014,-0.4878,0.2242,-0.0406,-2.135,1.12,-16.3013,0,0,0,2.587129000908143
-0.0892,0.9805,-0.0118,-0.4878,0.2242,-0.0406,-2.1,1.2163,-16.1788,0,0,0,2.5993676974290985
-0.0891,0.9819,-0.0131,-0.489,0.2228,-0.0393,-1.8112,1.1112,-15.435,0,0,0,2.611605332208359
-0.0865,0.9823,-0.0112,-0.4903,0.2222,-0.0378,-2.345,1.33,-15.47,0,0,0,2.6237590893936957
-0.0866,0.9822,-0.0132,-0.4903,0.2222,-0.0378,-2.5288,1.435,-15.4437,0,0,0,2.6359963702590576
-0.0897,0.9811,-0.0059,-0.4893,0.22,-0.0426,-2.4325,1.1725,-15.5837,0,0,0,2.64825807118341
-0.0862,0.9831,-0.0124,-0.4893,0.22,-0.0426,-2.1525,1.015,-16.1437,0,0,0,2.660445450189096
-0.0874,0.982,-0.012,-0.4915,0.225,-0.043,-2.2925,0.7788,-15.785,0,0,0,2.6699505157587238
-0.0859,0.9836,-0.0179,-0.4907,0.2246,-0.0396,-1.8812,1.2862,-15.645,0,0,0,2.682111351222029
-0.0889,0.9825,-0.0091,-0.4907,0.2246,-0.0396,-2.1613,0.945,-15.5837,0,0,0,2.694379422596553
-0.0878,0.9817,-0.0142,-0.4903,0.2218,-0.039,-2.3975,0.7437,-15.8375,0,0,0,2.7065020353588296
-0.0924,0.9817,-0.0135,-0.4903,0.2218,-0.039,-2.5113,0.6913,-16.17,0,0,0,2.7188175311957403
-0.089,0.9818,-0.0113,-0.4882,0.2209,-0.0401,-2.5288,0.9713,-15.8638,0,0,0,2.731354931046955
-0.0886,0.9816,-0.0187,-0.4922,0.2218,-0.0402,-2.6775,0.98,-15.6187,0,0,0,2.743230157994242
-0.0866,0.9822,-0.0126,-0.4922,0.2218,-0.0402,-2.3888,0.7962,-15.5662,0,0,0,2.755413290033147
-0.0827,0.9822,-0.0124,-0.4892,0.2221,-0.0392,-2.6163,1.2337,-15.33,0,0,0,2.767684900546655
-0.0885,0.9812,-0.0108,-0.4892,0.2221,-0.0392,-2.5025,1.3737,-15.785,0,0,0,2.7798535221157255
-0.0892,0.9833,-0.0113,-0.4914,0.2243,-0.0402,-2.6338,1.4437,-15.3387,0,0,0,2.7920476254854814
-0.0852,0.981,-0.0166,-0.489,0.2235,-0.0393,-2.2925,1.6275,-15.12,0,0,0,2.804382940500703
-0.0882,0.9829,-0.0156,-0.489,0.2235,-0.0393,-2.45,1.4612,-15.1025,0,0,0,2.8165381133416334
-0.0859,0.9811,-0.0129,-0.4898,0.2227,-0.0407,-2.3013,1.2687,-15.1025,-0.002995258586236329,-1.4312449480658618,0.33669368236065084,15.286558067007226
-0.0866,0.982,-0.0152,-0.4891,0.2226,-0.0435,-2.24,0.91,-15.96,-0.05716315649249249,-3.441428313943603,1.2329614052190323,15.291577273914493
-0.0878,0.9817,-0.0181,-0.4891,0.2226,-0.0435,-2.59,1.2163,-15.7412,-0.27857729213496507,-4.291762522638176,1.3369339131372417,15.296212130328085
-0.0884,0.9814,-0.0145,-0.4891,0.223,-0.0406,-2.2575,1.3387,-15.5225,-0.3044802001571128,-4.677034252064689,1.7239001444729218,15.301134718741086
-0.0903,0.9814,-0.0129,-0.4891,0.223,-0.0406,-3.045,1.0937,-15.8375,-0.4952208717195323,-4.985232694274899,1.9301367678960928,15.305814168305877
-0.0888,0.9817,-0.0099,-0.4884,0.2232,-0.0401,-2.3625,1.155,-15.7762,-0.49968846972538394,-5.080090236423677,1.9935372130766016,15.31046247344761
-0.0877,0.9836,-0.0123,-0.4903,0.2218,-0.0391,-2.4237,1.2775,-15.5837,-0.5226375509997027,-5.086960740298772,2.1747888178427504,15.315439918514864
-0.087,0.9828,-0.0137,-0.4903,0.2218,-0.0391,-2.2838,1.1812,-15.8638,-0.5284445468505874,-5.0715542501147075,2.177819069864263,15.319359514939768
-0.0895,0.9832,-0.0108,-0.4904,0.2219,-0.0398,-2.4938,1.0587,-15.4088,-0.5444478625911577,-5.125144779858745,2.4012867348889007,15.321461409582431
-0.0865,0.9829,-0.0083,-0.4904,0.2219,-0.0398,-2.87,1.225,-15.6363,-0.522565972143084,-5.078784206482018,2.4769098400029903,15.323529328490848
-0.0858,0.9812,-0.0157,-0.4893,0.2236,-0.0474,-2.5988,0.98,-15.785,-0.6119985630571229,-5.036166308086054,2.8921635156425074,15.32559123086299
-0.0886,0.9826,-0.0102,-0.4882,0.2237,-0.0406,-2.2838,0.7437,-15.6712,-0.61163554112827,-5.093226848709418,3.3287021478731584,15.327612787050715
-0.0882,0.982,-0.0183,-0.4882,0.2237,-0.0406,-2.2488,0.9538,-15.1287,-0.6360170005064951,-5.104665064971384,3.4751905525871436,15.329632927582846
-0.0873,0.9838,-0.0102,-0.4885,0.2221,-0.0405,-2.6513,1.1725,-15.2163,-0.6252209264220573,-5.093138313924129,3.4837606713630613,15.33166120813464
-0.0868,0.9835,-0.0108,-0.4885,0.2221,-0.0405,-2.8525,1.1287,-15.4263,-0.6266107275125405,-5.072216834000744,3.525661385992801,15.333694089567114
-0.0869,0.9836,-0.0152,-0.4883,0.2225,-0.0404,-2.9225,1.4787,-15.575,-0.7253572152954666,-5.06107342726859,3.674388472919421,15.335756345853156
-0.0877,0.9815,-0.0099,-0.4909,0.2228,-0.0404,-2.7475,0.98,-15.7062,-0.6801441109016946,-5.083452126351002,3.777852204200729,15.338033427875533
-0.0874,0.9818,-0.0142,-0.4909,0.2228,-0.0404,-3.1238,1.1638,-15.4962,-0.7469748473356681,-5.084819711449884,3.785336526050992,15.34003870402393
-0.0865,0.9823,-0.0118,-0.4915,0.2218,-0.0394,-3.0188,1.0675,-15.7587,-0.722517344956792,-5.057703360917159,3.820650607741799,15.342056721072671
-0.0858,0.9825,-0.0088,-0.4875,0.2217,-0.0413,-2.4413,1.3125,-16.3362,-0.6974533188931574,-5.016121334228415,3.8930809181747907,15.344093141644128
-0.0867,0.9824,-0.0113,-0.4875,0.2217,-0.0413,-2.94,1.3737,-15.9862,-0.6825278553837026,-5.0313126536783965,3.9721433720151937,15.346097709964729
-0.0881,0.9819,-0.0132,-0.4894,0.2229,-0.042,-2.625,1.3825,-15.3212,-0.7037668534580621,-5.06776448690807,4.042555725409786,15.348184386309761
-0.0864,0.9826,-0.0144,-0.4894,0.2229,-0.042,-2.45,1.085,-15.5925,-0.7209393541087238,-5.047409407089378,4.071506825234259,15.34964817419359
-0.0877,0.9826,-0.0111,-0.4902,0.2221,-0.0398,-2.625,1.3912,-15.715,-0.7030797927602,-5.073867793961413,4.0932867306499965,15.350911292897019
-0.0874,0.9829,-0.012,-0.489,0.2236,-0.0403,-2.38,1.5925,-15.7937,-0.7028292929022628,-5.0776064436219706,4.135446296864062,15.352143267177388
-0.0875,0.9981,-0.0152,-0.489,0.2236,-0.0403,-1.8637,1.3912,-15.7412,-0.7547990301784083,-5.042914899357253,4.140375414212098,15.353402846741833
-0.0897,0.9823,-0.0124,-0.4873,0.2231,-0.0407,-1.7762,1.225,-15.4612,-0.7438759938874181,-5.118119654609384,4.14621384266684,15.35464437669746
-0.0863,0.9809,-0.011,-0.4873,0.2231,-0.0407,-2.59,0.8487,-15.4263,-0.721409508298543,-5.080110544875539,4.191039590157158,15.35587812054732
-0.0908,0.9828,-0.0142,-0.4894,0.223,-0.0344,-2.8612,1.1375,-15.8987,-0.7594149233869303,-5.187907383311639,4.161625114920721,15.35711929658905
-0.0881,0.982,-0.0124,-0.4894,0.2222,-0.0403,-2.1438,1.1725,-16.1612,-0.7544147020398763,-5.151262220312634,4.162285857887822,15.358355517836198
-0.0873,0.9814,-0.0146,-0.4894,0.2222,-0.0403,-2.4675,1.4875,-16.0912,-0.7680777826085834,-5.111441867750369,4.164348677878651,15.35958466080538
-0.0877,0.9825,-0.0156,-0.4894,0.2242,-0.0398,-2.5463,1.2687,-15.715,-0.7955731600290147,-5.105775452627366,4.1580275419741115,15.360811326377274
-0.0882,0.9826,-0.0098,-0.4894,0.2242,-0.0398,-2.3187,1.3825,-15.6712,-0.7926075150874374,-5.117195112618537,4.170476221458899,15.362112667781732
-0.0883,0.9799,-0.0132,-0.4904,0.222,-0.0353,-2.625,1.6712,-15.645,-0.7875597672004383,-5.132449053732809,3.995135654942853,15.363357029048545
-0.0863,0.9833,-0.0118,-0.4878,0.2222,-0.0399,-2.45,1.19,-16.1788,-0.7749157480777281,-5.062650097913772,3.996690976669357,15.36477480812558
-0.0858,0.9819,-0.0123,-0.4878,0.2222,-0.0399,-2.03,1.3562,-16.135,-0.7625629747336738,-5.0219331638003695,4.0268065325585765,15.366094553052756
-0.0878,0.9818,-0.0135,-0.492,0.2232,-0.0398,-2.3187,1.4612,-15.6625,-0.7628966365044314,-5.06496033663797,4.0469396996638345,15.367354840444998
-0.0875,0.9823,-0.0126,-0.4925,0.223,-0.04,-2.52,1.3825,-15.9425,-0.7579471317860714,-5.07875027775807,4.066024719084832,15.368593185175538
-0.0875,0.9825,-0.0143,-0.4925,0.223,-0.04,-2.7738,1.155,-15.8375,-0.7821675377080303,-5.0840490365643145,4.067443880254931,15.369839316011843
-0.0849,0.9809,-0.012,-0.4887,0.2234,-0.0404,-2.17,1.4787,-15.7937,-0.772483211759316,-5.01221973655864,4.110366144181109,15.371109159079342
-0.0874,0.9831,-0.0137,-0.4887,0.2234,-0.0404,-2.1263,0.6825,-15.6538,-0.7764169670278102,-5.045221532796661,4.143262336500244,15.372337240306829
-0.087,0.983,-0.0168,-0.4922,0.2231,-0.0429,-2.5988,0.9887,-15.1988,-0.8224121147284804,-5.04914034465345,4.182059092494484,15.373576292865167
-0.0856,0.9817,-0.0101,-0.4886,0.223,-0.0396,-2.2488,1.4088,-15.7675,-0.8099555397224524,-5.0150590143238505,4.188143697130262,15.3748164071652
-0.0894,0.9827,-0.0116,-0.4886,0.223,-0.0396,-2.555,1.225,-15.7062,-0.7832494487433425,-5.106603201594884,4.187465324790901,15.376043426650991
-0.0852,0.9821,-0.0153,-0.4885,0.2218,-0.0409,-2.3187,1.3212,-15.5137,-0.7846953072880242,-5.039819773225043,4.192955028563852,15.37731787059917
-0.0889,0.9825,-0.0166,-0.4885,0.2218,-0.0409,-1.9512,1.3125,-15.4,-0.8326182786426904,-5.0931385139272285,4.193092248863288,15.378599746739214
-0.0892,0.9835,-0.0107,-0.4925,0.2231,-0.053,-2.8438,1.3737,-15.155,-0.7593617067338352,-5.120863368352935,4.427443375002557,15.379905335110454
-0.0861,0.981,-0.0148,-0.4897,0.2212,-0.0402,-2.8,1.3037,-15.1462,-0.7941052272964897,-5.088383193670038,4.398202622330188,15.381272150586117
-0.0883,0.9835,-0.0123,-0.4897,0.2212,-0.0402,-2.4325,1.1812,-15.085,-0.7853500078462008,-5.099895681371327,4.397911600793844,15.382532791892258
-0.0869,0.9814,-0.01,-0.4872,0.2236,-0.0379,-2.485,1.2862,-15.68,-0.7546468484248158,-5.080123047018844,4.363831556325351,15.383775737503477
-0.0888,0.98,-0.0135,-0.4872,0.2236,-0.0379,-2.6513,1.2075,-16.2838,-0.7635365346284934,-5.139523215266598,4.353634742645906,15.385023991823173
-0.0894,0.982,-0.0099,-0.4889,0.2224,-0.0414,-2.59,1.33,-15.8463,-0.7223318897489546,-5.172615829991899,4.361568472069756,15.386384436848665
-0.0873,0.9816,-0.0128,-0.489,0.2205,-0.0394,-2.8875,1.6187,-15.6363,-0.7314425033343884,-5.128784936071566,4.289140120102988,15.387643308585314
-0.0897,0.9833,-0.013,-0.489,0.2205,-0.0394,-1.9425,1.5225,-15.4787,-0.7383663320147605,-5.165097000977805,4.245046715508121,15.389000568385722
-0.0852,0.982,-0.0134,-0.4898,0.2218,-0.043,-2.2925,1.4437,-15.645,-0.7389147661810261,-5.064675222675661,4.299035644386273,15.390333408127137
-0.0862,0.983,-0.0135,-0.4913,0.2235,-0.0438,-2.4237,0.9887,-15.7325,-0.7439866217724318,-5.0374423566938145,4.3438505432908014,15.391601127711246
-0.0888,0.9803,-0.0185,-0.4913,0.2235,-0.0438,-2.5113,1.1462,-15.8463,-0.8015793192320774,-5.110890897774435,4.347291083589661,15.392840534183481
-0.0874,0.9814,-0.0091,-0.4885,0.2225,-0.0403,-2.5813,1.1025,-15.6625,-0.7431072465372076,-5.100123521280198,4.345139784144765,15.394085603278093
-0.087,0.9832,-0.0165,-0.4885,0.2225,-0.0403,-2.3538,0.7525,-15.5662,-0.7532083364757474,-5.079679915982934,4.280580068340185,15.395329964544906
-0.0863,0.9812,-0.0124,-0.489,0.2222,-0.0378,-2.135,1.1287,-16.0387,-0.7489642485626449,-5.048989122601238,4.263647230890768,15.396559815341885
-0.0861,0.9806,-0.0143,-0.4928,0.2227,-0.0396,-2.7037,1.1725,-15.5225,-0.7736126497529667,-5.034734016397047,4.2617027334682955,15.397905042069745
-0.0864,0.9816,-0.011,-0.4928,0.2227,-0.0396,-2.0738,0.9013,-15.365,-0.7488801759989107,-5.032795125004754,4.238726191865745,15.39917842427623
-0.0884,0.9817,-0.0149,-0.4884,0.2219,-0.0393,-2.4938,1.1025,-14.9713,-0.7680201897488634,-5.0565911374051,4.225315959238599,15.400414291609481
-0.0881,0.9813,-0.0131,-0.4884,0.2219,-0.0393,-2.625,1.3037,-15.68,-0.7672479500104048,-5.092762721452359,4.2122906688027975,15.401645204148155
-0.088,0.9821,-0.0139,-0.4894,0.223,-0.0436,-2.7825,1.2425,-16.2313,-0.7813408339046807,-5.109075912535892,4.231696498617427,15.402894166295647
-0.0856,0.9817,-0.0131,-0.4887,0.2234,-0.0411,-2.5988,0.8925,-15.6712,-0.7775242469102118,-5.046968536983877,4.248238996670551,15.404124371006525
-0.0853,0.9819,-0.0124,-0.4887,0.2234,-0.0411,-3.3688,1.0237,-15.12,-0.7496940329075034,-5.02266963221058,4.258605986019672,15.40534820526723
-0.0841,0.982,-0.0122,-0.4878,0.2216,-0.039,-2.625,1.1638,-15.6187,-0.7405102398251256,-4.9614018092053245,4.255746491793465,15.40656637690556
-0.0885,0.9817,-0.0168,-0.4878,0.2216,-0.039,-2.7738,1.2163,-15.8725,-0.8170492372853045,-5.063398509963069,4.246857295910159,15.407794812046946
-0.087,0.9825,-0.0119,-0.4904,0.2208,-0.0422,-2.17,1.3125,-16.2225,-0.8023772247234084,-5.0613191108713345,4.270020857491699,15.409023601102229
-0.0897,0.9797,-0.0145,-0.4891,0.2211,-0.0398,-2.7913,1.3825,-15.6538,-0.8172792530797159,-5.143959267225641,4.244749869532155,15.410254867554801
-0.0891,0.981,-0.0171,-0.4891,0.2211,-0.0398,-3.01,1.155,-15.3387,-0.892248796055759,-5.161446922686017,4.239577597568934,15.411471977451438
-0.0845,0.9834,-0.0104,-0.4902,0.2227,-0.0448,-2.345,1.1375,-15.4875,-0.8813131678126704,-5.051201585044414,4.263027110467468,15.412695457798245
-0.0878,0.9818,-0.0109,-0.4888,0.2222,-0.0422,-2.625,1.5837,-15.3737,-0.8219025746137401,-5.074797117267473,4.326126681693868,15.41391716857556
-0.0887,0.9831,-0.0132,-0.4888,0.2222,-0.0422,-1.785,1.0762,-15.9425,-0.8038863907566319,-5.119249500021832,4.335561024593038,15.415137109783384
-0.0865,0.9805,-0.0112,-0.4904,0.2229,-0.0394,-2.31,0.6737,-15.54,-0.8031861247447645,-5.083692777541738,4.27230372661178,15.416435973790552
-0.0886,0.983,-0.0149,-0.4904,0.2229,-0.0394,-2.1175,1.1025,-15.435,-0.8134972834854886,-5.111612250901062,4.255901598123065,15.417711833394325
-0.0892,0.9819,-0.0058,-0.4926,0.2247,-0.039,-2.1963,0.98,-15.0675,-0.7668082814030924,-5.132777101536921,4.249330045099206,15.418960795541818
-0.0885,0.9822,-0.0129,-0.4898,0.222,-0.038,-2.5988,1.2163,-15.7937,-0.7635541164188268,-5.1408403677229515,4.239699261697954,15.42020975768931
-0.0874,0.9819,-0.0113,-0.4898,0.222,-0.038,-2.6075,1.4088,-15.5487,-0.7393706184543198,-5.115794522389213,4.194452354339517,15.421440670227984
-0.0863,0.9816,-0.0112,-0.489,0.2213,-0.0412,-2.2925,1.5487,-15.75,-0.7382887284004868,-5.068852597475879,4.240362851922782,15.422676891475135
-0.0908,0.983,-0.0152,-0.489,0.2213,-0.0412,-2.8263,1.3125,-15.6625,-0.7888470618382959,-5.170753287356824,4.2423969257991265,15.423919837086354
-0.0864,0.9812,-0.0128,-0.4898,0.2218,-0.043,-2.905,1.1112,-15.3475,-0.7733074226902559,-5.116235370348549,4.2608784043879195,15.425148626141638
-0.0862,0.982,-0.0095,-0.49,0.2209,-0.0394,-2.3712,0.9538,-15.3475,-0.7597637277130359,-5.077039374036515,4.249427466072506,15.426368213435563
-0.0863,0.9856,-0.013,-0.49,0.2209,-0.0394,-2.1,1.4612,-15.4787,-0.759068810171876,-5.044962563348112,4.21955877805087,15.427607973821697
-0.0867,0.9819,-0.0085,-0.4898,0.2234,-0.0405,-3.29,1.5925,-15.1812,-0.628537538422215,-5.045246632312743,4.255967248159922,15.42883676287698
-0.0883,0.9846,-0.0172,-0.4898,0.2234,-0.0405,-2.59,0.91,-15.645,-0.7110356285121209,-5.083404339783233,4.227069005390252,15.430060951051585
-0.0876,0.9814,-0.0088,-0.489,0.2214,-0.0319,-2.3712,0.9625,-15.75,-0.6988366109025183,-5.092160022891156,4.073799823280025,15.431295756643141
-0.0857,0.9819,-0.0098,-0.4878,0.223,-0.041,-2.5463,1.12,-15.6887,-0.6741715160354169,-5.040361687046809,4.092318433602429,15.432533039631986
-0.0894,0.983,-0.0115,-0.4878,0.223,-0.041,-2.2838,1.3475,-15.785,-0.6740893431900676,-5.121380181917037,4.127091435296849,15.43375935128998
-0.0861,0.9828,-0.0143,-0.4902,0.223,-0.0396,-2.8175,1.5137,-15.5312,-0.7281214063309309,-5.069157941266071,4.118937294849536,15.434997696020522
-0.0871,0.982,-0.0181,-0.4891,0.2214,-0.0374,-2.8,1.5662,-15.0325,-0.8366215611522624,-5.068824682698813,4.019684371047564,15.436328766192446
-0.0856,0.9811,-0.009,-0.4891,0.2214,-0.0374,-2.9138,1.5312,-15.3737,-0.7189531072482723,-5.035605878185913,4.013089544815134,15.437573835287056
-0.0898,0.9822,-0.0156,-0.4906,0.224,-0.0392,-2.4413,1.3125,-15.05,-0.741818425016665,-5.084060093242648,4.012157809781014,15.438806517395221
-0.0861,0.9817,-0.0138,-0.4906,0.224,-0.0392,-2.31,1.295,-15.4875,-0.7421162140252874,-5.052270164403603,4.016599999746177,15.440051232575934
-0.0852,0.983,-0.012,-0.4904,0.2238,-0.0379,-2.38,1.2075,-16.0387,-0.7391471632203047,-4.995637731658143,4.015246435919551,15.44127294335325
-0.0877,0.9846,-0.0184,-0.4886,0.2219,-0.0382,-2.6075,1.2163,-15.5925,-0.8160702135886893,-5.039674363652946,4.00977243959501,15.442497131527853
-0.0859,0.9817,-0.03,-0.4886,0.2219,-0.0382,-2.4763,1.2775,-15.7325,-0.9525106185792929,-5.018723133041772,3.970026558728844,15.443730521463817
-0.0831,0.9836,-0.0092,-0.4906,0.2218,-0.0404,-2.625,1.225,-15.4875,-0.8515825983512175,-4.935241921704848,3.984110129303735,15.444967450538764
-0.0865,0.982,-0.0127,-0.4906,0.2218,-0.0404,-2.87,1.3387,-15.4525,-0.811656027155881,-4.977381971717187,4.016364353182177,15.446198363077437
-0.0914,0.9819,-0.0151,-0.4898,0.2246,-0.0427,-2.7825,1.365,-15.7675,-0.834071942463834,-5.152805714775619,4.077374843158501,15.447440954774759
-0.0878,0.9823,-0.0133,-0.4906,0.2232,-0.0403,-2.9663,1.4437,-15.715,-0.8108494480904367,-5.1298416790760335,4.101068776321212,15.448675760366315
-0.0881,0.9812,-0.0126,-0.4906,0.2232,-0.0403,-2.73,1.1725,-15.5925,-0.7884528241790385,-5.130055390409436,4.102168822561072,15.44991976771923
-0.0849,0.9825,-0.0091,-0.4899,0.2214,-0.0398,-2.3975,1.4262,-15.8025,-0.7666893348686198,-5.02972735959039,4.1323893961985005,15.451181824680965
-0.0888,0.983,-0.0149,-0.4899,0.2214,-0.0398,-2.415,1.5837,-15.8287,-0.7767451158661404,-5.09941386417087,4.124226362152384,15.452417338100318
-0.088,0.9823,-0.0103,-0.4872,0.2232,-0.0401,-2.5375,1.0325,-15.6712,-0.7435806331747673,-5.109022627667842,4.1438169701706995,15.453642588016617
-0.0883,0.9823,-0.0269,-0.4906,0.2228,-0.0406,-2.0213,1.26,-15.3912,-0.9260655620777479,-5.119483890769537,4.124808577483622,15.454865714449527
-0.0874,0.9827,-0.0123,-0.4906,0.2228,-0.0406,-2.1263,1.4525,-15.3912,-0.8943419649902049,-5.104204327565041,4.1519690547176245,15.456102289610575
-0.0845,0.9817,-0.0115,-0.4904,0.2226,-0.0448,-2.3712,1.1812,-15.6275,-0.8805416092144136,-5.0153121760050405,4.152933449291396,15.457335679546537
-0.0887,0.9828,-0.0143,-0.4903,0.223,-0.0417,-2.5288,0.8225,-15.5575,-0.8719682227810562,-5.080444802854307,4.198525373819759,15.458564114687922
-0.0865,0.9817,-0.0101,-0.4903,0.223,-0.0417,-2.52,1.2687,-15.54,-0.822031882987826,-5.0598150129473085,4.217243642614537,15.459797150709987
-0.0893,0.9812,-0.0163,-0.4882,0.2214,-0.0394,-2.59,1.6013,-15.1812,-0.8507741830112261,-5.105080607449074,4.163528142740457,15.461037972837817
-0.0858,0.983,-0.0124,-0.4882,0.2214,-0.0394,-2.3275,1.4262,-15.4175,-0.8479920559163259,-5.056224083481172,4.159021657938,15.462261453184624
-0.0853,0.9825,-0.0106,-0.489,0.2237,-0.0373,-2.3187,1.295,-15.3912,-0.8449508282659695,-5.017632631380005,4.136885753922731,15.463496966603977
-0.0867,0.9828,-0.0127,-0.4882,0.2207,-0.0415,-3.1675,1.1638,-15.47,-0.7965202877731022,-5.027789474629998,4.14122702744834,15.464790167988772
-0.0872,0.9812,-0.0131,-0.4882,0.2207,-0.0415,-2.8788,1.225,-15.26,-0.7849992133430255,-5.045821809163676,4.149995591107148,15.466026389235921
-0.0858,0.981,-0.0131,-0.4898,0.2214,-0.0406,-2.4325,1.2163,-15.4,-0.7827497455697702,-5.026172085234377,4.153029461998408,15.467253054807815
-0.0903,0.9811,-0.0129,-0.4898,0.2214,-0.0406,-2.6075,1.5225,-15.7937,-0.775917684381025,-5.147286512279379,4.175600496345576,15.468493876935645
-0.0847,0.9819,-0.0112,-0.4889,0.2235,-0.0347,-2.275,1.4875,-15.6275,-0.772318833124336,-5.042782042997743,4.048889649189065,15.469735760805168
-0.0872,0.9822,-0.0193,-0.4899,0.2198,-0.0391,-2.73,1.1812,-15.7062,-0.877663517824775,-5.057653513486052,4.048681797243442,15.4710431187459
-0.0875,0.9825,-0.0134,-0.4899,0.2198,-0.0391,-2.9838,0.9887,-15.2337,-0.8387466738523521,-5.0684608354648315,4.051912377208623,15.47232605662764
-0.0866,0.9811,-0.0103,-0.4883,0.2228,-0.042,-2.065,0.8575,-15.2425,-0.7927815757572734,-5.059894014231964,4.157285367537343,15.473612179734467
-0.0866,0.9802,-0.0124,-0.4883,0.2228,-0.042,-2.4413,1.4962,-16.0125,-0.7846401710313116,-5.053448995898715,4.221627380460552,15.474855125345686
-0.0863,0.9808,-0.0087,-0.4885,0.2232,-0.0402,-2.4675,1.5487,-15.9337,-0.7460602537849889,-5.039553701353729,4.247332497221935,15.476100194440296
-0.0886,0.9823,-0.0154,-0.4891,0.2231,-0.0414,-1.9162,1.4437,-15.6625,-0.788669943396883,-5.095286839772723,4.252646832105497,15.477339600912531
-0.115,0.9601,-0.0033,-0.4891,0.2231,-0.0414,-2.3187,0.6563,-15.5837,-0.7808409055639487,-5.908321993187719,4.350371129474621,15.47856520474273
-0.0632,0.9912,-0.0185,-0.4898,0.2211,-0.0354,-1.4262,0.0525,-15.8987,-0.9157706789512697,-4.676700529086037,3.929789290686893,15.479793993798014
-0.0573,1.0005,-0.02,-0.4885,0.223,-0.0441,-1.9862,1.6362,-15.505,-0.971267942385482,-4.053319497518667,4.116338737501426,15.48107091514348
-0.0981,0.9751,-0.008,-0.4885,0.223,-0.0441,-2.2225,2.3625,-14.945,-0.9329448202385581,-4.384171690135375,4.460737898904215,15.482302181596053
-0.1219,0.9766,-0.0009,-0.4898,0.2233,-0.0402,-1.0762,0.7788,-15.26,-0.4476455104248167,-5.362384376051026,4.458186409306028,15.483523538459469
-0.0939,0.9406,-0.0023,-0.4898,0.2233,-0.0402,-0.5775,0.2713,-15.0937,-0.25284654722685085,-5.45769905030106,4.454140277850528,15.484751973600854
-0.0854,0.9868,-0.0082,-0.49,0.2223,-0.0431,0.7613,0.63,-14.7962,-0.4211999130740689,-5.413573524975582,4.523209414034687,15.486096846414817
-0.1032,0.9223,-0.0018,-0.49,0.2236,-0.0367,1.7762,2.3975,-13.9038,-0.17270427368747704,-5.844501742621766,4.265123122637711,15.48731466413925
-0.0936,0.8682,-0.01,-0.49,0.2236,-0.0367,5.9938,3.7275,-12.3638,-0.6075157307247786,-6.060471803014473,3.944779823470193,15.488538852313853
-0.0189,0.8215,-0.0427,-0.4924,0.2235,-0.042,11.5937,6.6937,-4.41,-2.8165150935175807,-1.7363308587665112,3.56023016869449,15.489763040488459
-0.0143,1.0154,0.0634,-0.4924,0.2235,-0.042,22.96,22.61,-6.615,3.3295598258899033,-0.9077434146048827,6.3031275506406095,15.490975903418313
-0.0307,1.1703,0.0608,-0.4962,0.2243,-0.0467,13.6237,28.4988,-5.915,2.9949886406889608,-1.4400671501902107,6.612377181374929,15.492195844626137
-0.0278,1.0369,0.0603,-0.4977,0.2262,-0.0452,1.3475,32.6463,-1.4,3.2566134588829367,-1.5266714166110689,6.6003638758175835,15.49340021362243
0.034,1.0856,-0.144,-0.4977,0.2262,-0.0452,-6.9825,34.0638,-4.0425,-5.651369322023375,1.4948374369556476,1.90257244515777,15.494615907863471
-0.047,1.0104,-0.2322,-0.4991,0.2255,-0.0441,-14.1662,37.7825,-8.2862,-12.375507563441575,-2.044088638494708,0.7739911336305445,15.495848943885536
-0.1258,0.8849,-0.2037,-0.4991,0.2255,-0.0441,-13.6588,37.135,-16.31,-12.915813400940463,-5.647100011897672,0.8275653930024218,15.497117371297442
-0.1247,0.9381,-0.1368,-0.501,0.2243,-0.0402,-8.2687,29.7938,-15.6887,-8.96010187780451,-6.564199670699327,0.7515476617244382,15.498365979531036
-0.1587,1.0072,-0.011,-0.5004,0.2238,-0.0376,-5.4425,23.415,-14.2887,-2.6402167967675596,-7.262765649384192,3.669254782721233,15.499608925142256
0.0582,1.0493,0.0118,-0.5004,0.2238,-0.0376,-5.635,17.43,-15.47,-0.11430174933030597,-2.728351464420154,4.646169148583165,15.500833821144656
0.1244,0.9317,-0.0717,-0.5026,0.2242,-0.0351,-5.635,16.6688,-16.2663,-3.410615565726413,3.562130942222841,2.325614037734492,15.502065795425025
0.1238,0.9241,-0.0859,-0.5026,0.2242,-0.0351,-1.435,31.8412,-16.695,-4.29476415008875,6.249648837125149,1.7554150971857483,15.503298477533193
0.0432,0.9964,-0.0269,-0.5034,0.2239,-0.0414,1.2512,42.0525,-12.32,-2.149614018952284,3.5958498828198375,4.042906112553661,15.504513110032539
-0.0367,1.0398,0.0346,-0.5086,0.2234,-0.0358,1.925,44.1963,-7.805,1.1304699072960875,-1.3091199633818047,4.7688601545433835,15.505719956426121
-0.065,1.0045,-0.0414,-0.5086,0.2234,-0.0358,2.9663,41.8075,-5.6525,-1.8035174670410379,-3.461408465343396,2.9582395460565243,15.506942021117334
-0.0553,0.9556,-0.0345,-0.513,0.2242,-0.0298,4.9437,40.3112,-3.395,-2.0356299273727374,-3.32214393601109,2.3800968261061075,15.508150283166511
-0.1075,1.0095,-0.0455,-0.513,0.2242,-0.0298,7.665,38.99,-1.435,-2.530994314165987,-5.879541735057158,2.1172022197549913,15.509416233181128
-0.1168,0.9945,-0.0456,-0.518,0.2231,-0.0322,10.6575,38.3338,1.8987,-2.6185440719956636,-6.645371795613283,2.3193279505839746,15.51065634748116
-0.144,1.0875,-0.0586,-0.5246,0.2246,-0.0308,15.505,34.8425,3.9813,-3.059637196529185,-7.487021581105396,1.956109268999757,15.511905663542551
-0.0384,1.1217,-0.0784,-0.5246,0.2246,-0.0308,15.6712,33.9675,9.38,-3.948668848956368,-2.176438342484135,1.631901645141919,15.513156041345637
0.0129,1.1336,-0.0737,-0.5294,0.2254,-0.0319,13.72,34.895,13.2562,-3.7332421784074623,0.5529802102343578,1.8642214209520327,15.514388723453804
0.0095,1.1613,-0.0887,-0.5294,0.2254,-0.0294,6.685,37.6775,18.76,-4.304252392364895,0.4698209930256307,1.3337738115258235,15.5155923846223
0.0899,1.2205,-0.0664,-0.5354,0.229,-0.0294,-9.73,43.96,25.7425,-3.2553215572729184,4.116344305235962,1.8614938793714098,15.516813741485716
0.1069,1.2041,-0.0303,-0.5459,0.2283,-0.0245,-21.9713,52.1063,31.5263,-1.5292570292447942,5.05158966218642,2.047392868982016,15.51805350187185
0.1587,1.268,-0.115,-0.5459,0.2283,-0.0245,-35.0,57.1987,34.3437,-5.073793099373364,7.064021153418014,0.4503203695031951,15.519489684471603
0.1144,1.169,-0.0526,-0.5578,0.2292,-0.0134,-47.3638,63.35,41.0375,-2.6305510299297437,5.6097264586738085,0.33349471760785077,15.520723782235363
0.0694,1.1214,-0.0667,-0.5682,0.2306,-0.0002,-55.0112,64.8813,41.1862,-3.389498448678302,3.571579813855972,1.3710535580010146,15.522010259256087
0.0401,1.0191,-0.0808,-0.5682,0.2306,-0.0002,-56.9625,64.6713,41.0288,-4.512699747143419,2.2696563211706198,1.8404645602185563,15.52324825007273
0.0308,0.8628,-0.0335,-0.5819,0.2334,0.0058,-53.8825,61.9238,38.5875,-2.267050183618438,2.0470994065740538,1.4898550694823802,15.524462882572077
0.0585,0.8502,-0.062,-0.5819,0.2334,0.0058,-47.8275,57.645,34.5625,-4.129932985064027,3.88839830910688,2.2940934103870854,15.525688132488376
0.0802,0.8423,-0.0352,-0.5918,0.2382,0.0197,-37.415,54.6875,31.01,-2.441118512251143,5.401238004223266,2.9801408593359136,15.526908427610097
0.0991,0.9567,0.0,-0.5994,0.2386,0.0222,-25.0862,51.9225,26.6525,-0.10265034927392777,5.901801181795791,2.238667802757608,15.528107841811813
0.1217,0.9643,0.0185,-0.5994,0.2386,0.0222,-14.5075,50.505,13.5275,1.0080541481366037,7.147575777373166,1.7958771305861478,15.5293355691254
0.2027,0.9786,0.0154,-0.6062,0.2398,0.025,1.9512,45.5088,7.91,0.9218324244253283,11.508089112985907,2.220949314109855,15.530576037339332
0.2187,0.9639,0.0216,-0.6062,0.2398,0.025,8.575,44.5812,-1.05,1.2532626656427368,12.69351786620224,2.09159739788062,15.531799517686139
0.2429,1.0189,0.0049,-0.6091,0.2396,0.0317,15.8287,44.8787,-7.4375,0.3266382164348819,13.322043270280789,3.2303194481996282,15.53299114578209
0.2361,1.065,0.0522,-0.6091,0.2396,0.0317,21.3587,46.1475,-15.6712,2.7055267677546593,12.910145925332316,2.128220566542891,15.534206486109234
0.225,1.0641,0.022,-0.6131,0.2379,0.0225,24.4387,47.7837,-22.8725,1.2392340943310436,12.042798443779027,1.8349783601604606,15.535404838569253
0.1738,1.1432,0.0609,-0.6122,0.237,0.0313,28.4638,46.9263,-25.9787,2.9923735335976342,8.910184234115464,1.8746297700344208,15.536665479875394
0.2676,1.2079,0.079,-0.6122,0.237,0.0313,29.8113,47.355,-26.95,3.719337861858515,12.197450165797,1.6578244507579531,15.537874803666265
-0.4474,0.8938,0.1192,0.088,0.2956,0.0878,-2.975,1.2512,-14.1487,5.274368991385362,-1.544629663477612,4.130757993084315,15.541647879737226
-0.4473,0.8957,0.1198,0.0872,0.2967,0.0906,-2.9488,1.2687,-14.2187,6.19204851187524,-9.619850276012578,7.063150490974044,15.542848001766739
-0.4424,0.8947,0.1241,0.0872,0.2967,0.0906,-2.4588,1.3825,-14.3937,6.418924344762544,-13.500432337929455,12.70440550232919,15.544044938571165
-0.4428,0.8949,0.1196,0.0862,0.2945,0.089,-2.3888,1.1462,-14.3937,6.510896695276233,-16.474190291859145,13.70861124127262,15.54524435277288
-0.4423,0.8963,0.1183,0.0858,0.2944,0.0918,-2.4675,0.7525,-15.33,6.651574362420382,-20.17612287406218,22.492734322781732,15.546449783510868
-0.4426,0.8979,0.1191,0.0858,0.2944,0.0918,-3.3163,0.9975,-16.0037,7.106145987324325,-23.49389725168164,25.67787679964046,15.547644596831905
-0.4438,0.9,0.1221,0.0864,0.2946,0.089,-3.43,1.155,-15.5925,7.434241647974418,-24.69415929212269,26.09398471810113,15.548829854477683
-0.4485,0.8961,0.1238,0.0864,0.2946,0.089,-3.115,0.56,-15.2425,7.627359234341981,-25.282933207959193,31.315635078429512,15.55001758952075
-0.451,0.8952,0.1194,0.0865,0.295,0.0933,-3.15,1.1287,-14.4112,7.613530175712037,-25.565197673242043,31.879806421472832,15.55120497064992
-0.4457,0.8985,0.1253,0.0865,0.295,0.0933,-2.3975,1.19,-14.6125,7.641004289212337,-25.61435237318728,31.953764167574054,15.552388104812309
-0.4466,0.8982,0.1215,0.0843,0.2942,0.0845,-2.8087,0.6825,-14.3062,7.661987775925364,-25.78910238689957,33.72156127713605,15.553602029483859
-0.4427,0.9032,0.12,0.0853,0.2954,0.0892,-3.4125,0.875,-14.5862,7.612628362021973,-25.802050070879883,35.503147242966065,15.5547961349771
-0.4345,0.8964,0.1227,0.0853,0.2954,0.0892,-3.2462,0.6737,-14.175,7.700678057065939,-25.75031512381691,37.45052070223279,15.555981746536776
-0.4374,0.8886,0.1257,0.0844,0.2949,0.0894,-2.905,0.8925,-14.1575,7.832215740436481,-25.832612848424386,37.88196054776992,15.557162757215774
-0.4396,0.8818,0.1299,0.0844,0.2949,0.0894,-2.9313,1.05,-13.8687,8.043150310087677,-26.02351403650288,37.84454501025268,15.55835049225884
-0.4387,0.8796,0.126,0.0854,0.2944,0.0936,-1.085,0.7962,-14.35,8.102968283963678,-26.08922674076048,38.758319568100724,15.559585651764296
-0.4406,0.8882,0.1215,0.0838,0.294,0.0905,-1.5225,0.6475,-13.6675,7.9652620185987715,-26.13197345478389,39.30563989504687,15.560771263323973
-0.4386,0.8967,0.127,0.0838,0.294,0.0905,-1.2687,1.1025,-14.6387,8.014098166276334,-26.114673341216204,39.38159819103256,15.56196359924772
-0.4401,0.8973,0.1188,0.0845,0.2934,0.0888,-1.2687,1.0062,-14.1487,7.773775776983767,-26.049023948761484,39.67556599256874,15.563159474310453
-0.4383,0.8947,0.1221,0.0845,0.2934,0.0888,-1.6275,1.0762,-13.79,7.77272195261842,-25.973788134021795,39.774356486334135,15.564350748492505
-0.4357,0.8939,0.1161,0.0857,0.2933,0.093,-1.7325,1.1112,-13.93,7.6370421540036535,-25.896790056076643,40.11722165678693,15.565529281774213
-0.4382,0.8969,0.1138,0.0833,0.2928,0.0949,-1.4262,1.19,-13.5187,7.447146959435318,-25.876208412777412,40.15330156693027,15.566717724645077
-0.4378,0.9012,0.1185,0.0833,0.2928,0.0949,-1.4962,1.0062,-13.4925,7.466725538724572,-25.78951300730447,40.852045822197006,15.567907229257637
-0.439,0.8982,0.1164,0.0847,0.294,0.0899,-1.015,1.3125,-13.7375,7.420093020686352,-25.823904005253027,41.04534332146582,15.569085408625448
-0.4363,0.8998,0.1144,0.0847,0.294,0.0899,-1.6275,0.9713,-14.6037,7.349631941122905,-25.811776215345315,41.464266527084,15.570328708150566
-0.4369,0.9011,0.1154,0.085,0.2919,0.0892,-1.7587,0.7613,-14.9362,7.331348915567343,-25.787519313815828,42.12545334842984,15.578166131430882
-0.436,0.9012,0.118,0.085,0.2919,0.0892,-2.31,0.8925,-14.9625,7.331950235243109,-25.75438073602833,42.40020940898794,15.586691563329707
-0.4344,0.9018,0.119,0.0838,0.2925,0.0881,-2.03,0.8575,-15.1988,7.371944150697475,-25.679035817649318,42.32642520946465,15.598898053685907
-0.4322,0.9049,0.1134,0.0873,0.2915,0.0884,-2.24,0.7088,-14.455,7.357908388928396,-25.615279993891207,43.51060576812707,15.61109038748617
-0.4352,0.9065,0.1213,0.0873,0.2915,0.0884,-2.4938,0.4987,-15.4437,7.3997246742442,-25.5437370228989,43.788632993425395,15.623670257005195
-0.4365,0.8979,0.1199,0.0842,0.2917,0.0893,-3.0188,1.19,-14.6737,7.485588299217938,-25.548762015751233,43.77822655671182,15.636279855291685
-0.4357,0.8924,0.1219,0.0842,0.2917,0.0893,-3.1675,0.9187,-15.0062,7.621135563770241,-25.610886912163352,43.30878145748582,15.645199547273341
-0.4383,0.8901,0.1221,0.083,0.2933,0.0882,-2.5638,1.19,-15.5225,7.6601011469702796,-25.78868904202177,43.280166467831116,15.657217755435587
-0.4385,0.894,0.1216,0.0844,0.2917,0.091,-2.2925,1.435,-15.505,7.6611825165590846,-25.847416443377384,43.09220660374832,15.669270647159877
-0.438,0.8957,0.1261,0.0844,0.2917,0.091,-3.045,1.645,-15.1375,7.811047493739698,-25.84442479493272,42.65911433942779,15.681329201506541
-0.4363,0.8999,0.1193,0.0855,0.2907,0.0892,-2.4763,1.4525,-15.1812,7.773171281269488,-25.787961369897726,42.84581908307406,15.69339554195897
-0.4407,0.9006,0.1222,0.0855,0.2907,0.0892,-2.1875,1.54,-14.5425,7.768318423232954,-25.79904490408308,42.73004202904578,15.70540844141274
-0.4416,0.8998,0.1174,0.0836,0.2923,0.0875,-2.2662,1.295,-14.49,7.755725341586748,-25.825417105760167,42.54004412968746,15.714812995435219
-0.4402,0.9007,0.1254,0.0836,0.2923,0.0875,-2.4938,1.435,-14.665,7.782741590463601,-25.825575021862097,41.93666744898047,15.726818462697121
-0.4391,0.898,0.119,0.0857,0.2917,0.0931,-2.135,1.3737,-14.3675,7.748680734993957,-25.83450731629664,42.395540837273835,15.738853304812592
-0.4445,0.8976,0.1185,0.0828,0.2928,0.0902,-1.5137,0.9887,-13.9825,7.647916934349385,-25.96596220832806,42.16717675277077,15.750720037826317
-0.4429,0.8981,0.1179,0.0828,0.2928,0.0902,-1.9862,0.9713,-14.1662,7.607021355385119,-25.99759134118942,42.02634972715994,15.7628189383574
-0.4404,0.8989,0.1193,0.0834,0.2911,0.0906,-1.5925,0.8575,-13.895,7.587447733041368,-25.95607403005814,42.1378726687505,15.774830422155576
-0.4394,0.8992,0.1205,0.0834,0.2911,0.0906,-1.8025,0.3063,-13.5975,7.602561357079298,-25.896296322223197,42.27176205034466,15.783932379794914
-0.4363,0.8996,0.1154,0.0833,0.2919,0.0922,-1.9862,0.035,-13.755,7.531774680615087,-25.79594141652254,43.389774165378974,15.796070210854822
-0.4386,0.9016,0.1139,0.0838,0.2906,0.0886,-1.3037,-0.0525,-14.0087,7.36580023325805,-25.782646300680188,43.327499196075166,15.808155662657766
-0.4327,0.9015,0.1169,0.0838,0.2906,0.0886,-2.3625,-0.0175,-14.0525,7.367027159297209,-25.653301161318666,43.45661829242735,15.820341626007858
-0.4334,0.8994,0.1157,0.0829,0.2882,0.0903,-2.0038,-0.21,-14.2887,7.358529880813529,-25.621618417159638,44.153153649667985,15.832521926735577
-0.4302,0.8991,0.1208,0.0829,0.2882,0.0903,-1.995,-0.0788,-15.3825,7.428083580016104,-25.520167249134783,44.15832739024674,15.844656572570399
-0.4283,0.9027,0.1178,0.0832,0.2916,0.0881,-2.03,-0.0963,-14.9537,7.429562665148032,-25.454920711492623,43.676124675704514,15.85680749844455
-0.4302,0.9029,0.1182,0.0844,0.2897,0.087,-2.1175,-0.1663,-14.6387,7.434100351157605,-25.44498739720477,43.59518926199875,15.866216653347708
-0.4244,0.8992,0.12,0.0844,0.2897,0.087,-2.52,0.175,-14.7613,7.463657786901105,-25.42402067153396,43.656182857117585,15.878362624427279
-0.4224,0.8948,0.118,0.0824,0.2908,0.0915,-3.2638,0.525,-14.7,7.487522734829969,-25.423393998431788,44.19977362795166,15.890362429066807
-0.4219,0.8963,0.1227,0.0824,0.2908,0.0915,-2.2575,0.4112,-15.2425,7.501552732711326,-25.275729055179266,44.276522068390115,15.902382052884647
-0.4241,0.898,0.1227,0.0819,0.2907,0.0892,-1.7762,0.665,-15.645,7.59808726770491,-25.178793742435193,43.76056895036556,15.914411232377743
-0.4307,0.9045,0.1209,0.0819,0.2907,0.0892,-1.9512,0.7875,-15.715,7.602069073963448,-25.22280168378778,43.476936210234165,15.923559552737771
-0.4272,0.9127,0.1261,0.0803,0.289,0.0904,-1.6187,0.7,-15.4787,7.709622609471415,-25.070802236561743,43.46845561385841,15.935645712368512
-0.4279,0.9063,0.1185,0.0846,0.29,0.0909,-2.4413,1.3737,-14.9362,7.678449027951872,-25.07385169014856,43.913757140871546,15.947760185111125
-0.4311,0.8874,0.1268,0.0846,0.29,0.0909,-3.535,1.68,-14.5162,7.928537748151009,-25.169326524289758,43.38799654721192,15.959822986424571
-0.4311,0.8801,0.1271,0.0825,0.2907,0.0901,-2.4763,1.4962,-15.0062,7.97074792854709,-25.331467546989998,42.56323936535208,15.971880125115641
-0.4327,0.8873,0.1207,0.0825,0.2907,0.0901,-1.75,0.6212,-14.8487,7.890660616257751,-25.390221609892784,42.234696398880764,15.983938325548408
-0.4274,0.8974,0.1225,0.0839,0.2906,0.0944,-0.595,0.9538,-15.8112,7.816503034720263,-25.32283244430994,42.92804473085898,15.99318821919728
-0.4288,0.9063,0.1179,0.081,0.2894,0.0873,-1.4262,1.1375,-15.3212,7.627240709798378,-25.250987198291806,42.91834981318842,16.005224123054447
-0.4286,0.9055,0.1163,0.081,0.2894,0.0873,-1.575,0.9538,-16.24,7.497079619914043,-25.18905961028785,42.92670216250162,16.017249763408557
-0.431,0.9001,0.1207,0.0835,0.289,0.0906,-1.505,0.56,-14.8225,7.55953924153662,-25.21052923355405,43.478848072912506,16.029339108264384
-0.4266,0.9012,0.1139,0.0835,0.289,0.0906,-0.8312,0.3938,-15.6363,7.347259162808436,-25.184328507411006,44.75670887621114,16.04142420615343
-0.428,0.9029,0.1136,0.0826,0.2898,0.091,-1.5575,0.7437,-16.065,7.271885959653218,-25.18676312008,45.10143712428904,16.053525230167903
-0.4277,0.9049,0.1183,0.0826,0.2898,0.091,-1.0937,0.735,-16.66,7.36847180452113,-25.136380225254126,45.15610063441301,16.062743979393716
-0.4287,0.9055,0.1186,0.0834,0.2905,0.0912,-1.6362,0.2013,-15.8812,7.405953889603371,-25.14201876139929,45.28603503761876,16.074714409179677
-0.4311,0.9077,0.1117,0.0834,0.2896,0.091,-1.7325,-0.0175,-16.205,7.263736857422458,-25.19983370467548,46.03440612952694,16.0875168905408
-0.433,0.9103,0.1125,0.0834,0.2896,0.091,-2.1788,-0.035,-15.7237,7.239199033081823,-25.235734993534635,46.27616012676479,16.09909022893274
-0.4286,0.9099,0.1119,0.0782,0.293,0.0907,-2.5638,0.6475,-15.0412,7.1923378226004795,-25.190437469348492,45.33691601404758,16.11111728494245
-0.4234,0.9104,0.1188,0.0782,0.293,0.0907,-3.1763,0.8487,-14.1487,7.30513485329654,-25.03617620062179,44.77967668043171,16.123148941832834
-0.4156,0.9067,0.1216,0.082,0.2901,0.0884,-2.9488,0.5338,-14.7788,7.435668018085021,-24.99300877065545,44.849445197551475,16.132452276480368
-0.4149,0.9018,0.1155,0.0833,0.2885,0.0906,-2.9575,1.015,-15.0762,7.38153959334829,-24.86680113484997,45.31192368090837,16.14442235235243
-0.4141,0.9001,0.1201,0.0833,0.2885,0.0906,-2.7913,1.2075,-14.7613,7.453009236904288,-24.84698863889548,45.357337927565176,16.15649258585774
-0.4138,0.8924,0.1199,0.0822,0.2891,0.091,-2.4063,1.54,-15.785,7.471287964875889,-24.761100998801197,45.51179518352457,16.16853627582067
-0.4186,0.8937,0.1183,0.0822,0.2891,0.091,-2.9575,1.6187,-16.0562,7.498595303865509,-24.845203017646025,45.54118603592752,16.18064968682159
-0.4261,0.8966,0.123,0.083,0.286,0.0931,-2.6513,1.9162,-16.7388,7.578994828801996,-25.091533808072093,45.86251751512841,16.192665771500444
-0.4325,0.8993,0.12,0.0833,0.2888,0.0924,-2.0213,1.7413,-15.7237,7.583748186117763,-25.291578817356335,45.580825526875756,16.201916372977117
-0.434,0.8989,0.1154,0.0833,0.2888,0.0924,-1.6625,1.2075,-14.6037,7.4788144586543615,-25.318149156652172,45.582104021256534,16.214020936130574
-0.4316,0.8954,0.1213,0.0801,0.2898,0.09,-2.1263,0.9275,-12.7487,7.514656955704506,-25.459425666352434,44.76478287030361,16.226029234703663
-0.4311,0.9022,0.1176,0.0801,0.2898,0.09,-1.2687,0.8225,-12.705,7.469797179787183,-25.388313244414842,44.28247835579807,16.238135213512713
-0.4333,0.9014,0.1182,0.0799,0.2878,0.0906,-0.98,1.2337,-11.97,7.470217569849945,-25.45780136428381,44.23249421657196,16.25022031140176
-0.4509,0.9044,0.1131,0.0799,0.2878,0.0906,-0.6563,0.9275,-11.4537,7.257272012388728,-26.118591112828,43.7960455845306,16.259547358280486
-0.4751,0.908,0.1121,0.0794,0.2868,0.0963,-0.8312,-0.0525,-7.2713,7.126637691486677,-27.285586886926087,43.03207128398217,16.27151920372204
-0.4753,0.9159,0.1188,0.0786,0.2871,0.0917,-0.9363,-0.7437,-4.5763,7.27911048020288,-27.23663515147563,40.62935679867317,16.283521839672755
-0.4584,0.913,0.1141,0.0786,0.2871,0.0917,-0.7613,-1.9337,-2.2575,7.184650593074089,-26.538817983413843,41.583061845225934,16.29558287141671
-0.4237,0.9162,0.1187,0.0775,0.2841,0.091,-1.155,-1.8112,-1.5312,7.2901915102404775,-24.771364614457745,44.90206301453958,16.307708315490174
-0.425,0.9101,0.1095,0.0775,0.2841,0.091,-1.0062,-1.785,-2.0913,7.04747897959723,-24.866668235555952,46.348817775888605,16.31981075516024
-0.4379,0.908,0.11,0.0748,0.2818,0.095,-1.0237,-1.9862,-2.1,6.968827946610985,-25.530910510527093,46.110960284617256,16.32894137982535
-0.4603,0.9129,0.1166,0.0721,0.2782,0.0882,-1.085,-2.2925,-0.9275,7.1391275602742255,-26.501643207362434,40.77780965528683,16.341029309025583
-0.4645,0.9105,0.1139,0.0721,0.2782,0.0882,-1.2075,-2.485,2.4063,7.134580114699285,-26.829968837724184,39.42764881255564,16.35304751718783
-0.4494,0.9165,0.1191,0.0719,0.2734,0.0913,-1.4175,-2.7562,5.4513,7.261351563315796,-25.974046767324857,42.378567836904416,16.365105717620594
-0.4063,0.9181,0.1165,0.0719,0.2734,0.0913,-0.7962,-2.975,6.4488,7.243550832746628,-23.805170656531555,48.18968554161551,16.37707296218147
-0.3935,0.9178,0.1211,0.0694,0.2708,0.089,-0.35,-2.5375,5.7663,7.424158364331146,-23.06451819816286,48.926174319930226,16.38623827040862
-0.3848,0.9129,0.1159,0.0694,0.2708,0.089,-0.2275,-1.9775,4.2263,7.296763843749981,-22.71126347538218,50.47341082898145,16.398316643933597
-0.3878,0.9157,0.1117,0.0679,0.2687,0.0893,-0.665,-1.3737,3.3075,7.084293798258671,-22.79642796991409,51.06297943836207,16.41030830855346
-0.4037,0.9206,0.1161,0.0633,0.2651,0.0936,-0.3675,-1.0762,3.5613,7.1525803087943745,-23.475343739668045,49.75970002748359,16.422327578457402
-0.4238,0.922,0.1133,0.0633,0.2651,0.0936,-0.4725,-1.19,4.0775,7.057531274565367,-24.47048563435125,47.860620544693624,16.43145395615573
-0.405,0.9304,0.1176,0.0607,0.2614,0.0942,-0.7437,-1.575,5.9325,7.14671608375191,-23.4090513909242,49.08232294748379,16.443493045237982
-0.3856,0.9335,0.1152,0.0607,0.2614,0.0942,-0.4112,-2.03,7.105,7.073669847161148,-22.340623966952858,51.93622432799648,16.455502051638867
-0.3715,0.9299,0.1159,0.0575,0.2587,0.0941,-1.26,-2.415,6.4225,7.0894468791178245,-21.657589041288162,53.1484520579294,16.467535478098746
-0.3626,0.9248,0.1184,0.0575,0.2587,0.0941,-1.1462,-2.0913,4.7775,7.20020276817732,-21.271401493418935,53.89286466812286,16.479533513168782
-0.3559,0.9156,0.1049,0.0534,0.2557,0.0914,-1.5137,-2.0825,3.955,6.906672109872566,-21.123518894527265,53.68662239000935,16.488683603098302
-0.3637,0.9182,0.1157,0.053,0.254,0.0949,-1.4525,-2.2313,3.29,7.033325374270519,-21.437071943176687,53.0811760377985,16.500681638168338
-0.3756,0.9276,0.1138,0.053,0.254,0.0949,-0.6125,-2.7562,3.8675,7.008743281761431,-21.871910862615792,52.344917886232025,16.51273452989263
-0.374,0.9305,0.1172,0.0498,0.2486,0.0949,-1.1812,-2.9575,4.7775,7.098748266301721,-21.74768350127965,51.97268475368388,16.52478459030573
-0.3615,0.9274,0.1137,0.0498,0.2486,0.0949,-0.875,-3.15,5.2238,7.034528369954144,-21.180066736992146,53.47608498743745,16.536714319993372
-0.3478,0.9285,0.116,0.047,0.2475,0.0946,0.3237,-3.3513,4.0862,7.09733058405341,-20.42969507997503,54.05791765188614,16.54586122469781
-0.3378,0.9333,0.1111,0.047,0.2475,0.095,-0.21,-3.6312,2.9663,6.888302862317392,-19.80405041971493,56.27464858719035,16.55788049460175
-0.3269,0.9311,0.115,0.0437,0.2444,0.095,-0.1925,-3.3513,2.03,6.991900427444899,-19.24398040056457,56.560984969201826,16.56996240726571
-0.3208,0.9307,0.1112,0.0413,0.2418,0.0946,-0.2625,-2.7388,0.98,6.872062400396505,-18.914642750629735,56.94370377987634,16.581925404859803
-0.3367,0.9433,0.1112,0.0413,0.2418,0.0946,-0.245,-2.5813,0.28,6.771862186996797,-19.480804191941925,55.85331614474583,16.59104328862457
-0.3439,0.9465,0.109,0.0384,0.2398,0.0967,-0.0788,-3.1412,0.84,6.6320859263805305,-19.82505049084391,54.950845014153266,16.60310078122954
-0.3507,0.9455,0.1101,0.0384,0.2398,0.0967,-0.91,-3.1238,2.555,6.637843304517066,-20.203167256873904,53.93707800420138,16.6151373929145
-0.3455,0.9446,0.1099,0.0357,0.2374,0.0987,-1.3825,-3.3513,3.8238,6.637089400111294,-19.97883051988239,54.17743770261049,16.627182852446925
-0.3321,0.9455,0.1152,0.0331,0.2357,0.0964,-2.0388,-3.8063,4.1563,6.702235833032261,-19.259959259488053,53.659834511734275,16.63912036824033
-0.3174,0.9457,0.1109,0.0331,0.2357,0.0964,-1.5225,-3.5438,4.62,6.696157745816637,-18.47588442133335,55.53683415590071,16.64825736335561
-0.3068,0.9443,0.1104,0.0302,0.2311,0.0973,-2.0563,-3.5788,4.27,6.690602661009098,-17.914424728068518,56.79936299372948,16.66033467513889
-0.2788,0.9405,0.109,0.0302,0.2311,0.0973,-1.82,-3.64,3.6925,6.664543918716277,-16.485639086083633,60.16889062211115,16.672355714612326
-0.2724,0.9398,0.1095,0.0286,0.2293,0.0984,-1.2337,-3.08,2.8612,6.654850033853849,-16.084043502468063,61.23683795388161,16.684422055064754
-0.2676,0.9389,0.1128,0.0286,0.2293,0.0984,-0.875,-2.9663,1.6625,6.770121316676815,-15.816757262025419,61.717574403550906,16.69350844049256
-0.2714,0.939,0.1039,0.0253,0.2272,0.0966,-1.1462,-2.5463,-0.0088,6.525294627357055,-16.01470168269042,60.3817430996874,16.705609464507035
-0.2799,0.9479,0.1056,0.0238,0.2252,0.098,-1.2512,-2.485,-0.2013,6.438816817153445,-16.333344708744445,59.4318525241383,16.71765633969505
-0.2722,0.9529,0.1116,0.0238,0.2252,0.098,-0.9975,-2.2138,-0.245,6.575396954344221,-15.871398756380323,59.78116351188515,16.729755594140034
-0.2541,0.947,0.1045,0.022,0.2227,0.099,-1.1638,-1.9775,-1.3037,6.4270146378959945,-14.998467894335713,61.81228112946419,16.741812378917206
-0.2456,0.9534,0.1086,0.022,0.2227,0.099,-1.9337,-1.9775,-1.96,6.446366599282132,-14.403315443676087,63.16380710172257,16.75389110635608
-0.2397,0.959,0.1057,0.0188,0.2193,0.1016,-2.485,-1.2862,-3.43,6.422500362442593,-13.98902407557765,63.99114058917724,16.763057830238825
-0.2368,0.9578,0.1033,0.0188,0.2193,0.097,-2.6425,-1.015,-4.9963,6.355203349600827,-13.826680475875099,63.691399008695605,16.77516557861737
-0.2355,0.9483,0.106,0.0178,0.2182,0.097,-3.0363,-0.3763,-5.2325,6.364825341563987,-13.860132264241924,63.08146938368682,16.78748992230174
-0.2378,0.9467,0.1064,0.0154,0.2176,0.0988,-3.2462,0.35,-6.265,6.387978629741624,-13.999103060487315,62.36615268078113,16.799265699443573
-0.2314,0.948,0.1067,0.0154,0.2176,0.0988,-2.1525,0.7962,-7.5075,6.392457481562594,-13.678915253514567,62.37437830578177,16.81123506748784
-0.2313,0.9512,0.1063,0.0155,0.2154,0.1002,-2.0475,1.4787,-8.4525,6.389197292735187,-13.59859948914857,62.61603354102665,16.82041028530415
-0.2418,0.9563,0.1036,0.0155,0.2154,0.1002,-2.8,1.89,-8.5925,6.3209447749695284,-14.038552860332805,62.56164238241213,16.832456452664367
-0.2457,0.9586,0.1097,0.0154,0.2187,0.1025,-3.3863,2.065,-9.3537,6.428709545695263,-14.247594801141945,62.123337710498994,16.84443749986728
-0.2475,0.9542,0.1085,0.0146,0.2166,0.0972,-3.15,2.4413,-9.17,6.455454147400858,-14.42047257488055,60.71476242815995,16.85647906634682
-0.2494,0.9505,0.1093,0.0146,0.2166,0.0972,-3.0275,2.345,-9.7125,6.4991907032734515,-14.57851477856509,59.8569932026634,16.868479932728043
-0.2478,0.957,0.1085,0.0144,0.2138,0.0994,-3.2375,2.835,-9.975,6.484285579553135,-14.454661583846178,60.43000860550177,16.87768063234504
-0.2449,0.9573,0.1042,0.0144,0.2138,0.0994,-2.9225,3.255,-9.9225,6.380391912314924,-14.301162891003653,61.155364335454784,16.889641152541845
-0.2538,0.954,0.1077,0.0107,0.2129,0.0974,-3.6575,3.1675,-10.4912,6.4152485972832025,-14.710630089824832,58.697406881368266,16.901718110411224
-0.2693,0.9562,0.1075,0.0107,0.2129,0.0974,-3.43,2.6163,-9.8962,6.414850618429277,-15.476171654673575,56.979472064751,16.913781619552466
-0.2891,0.961,0.111,0.0114,0.214,0.1042,-3.8937,2.7475,-7.91,6.5215559741020215,-16.489364288613555,56.347214749948165,16.922919676409443
-0.2848,0.9631,0.116,0.0089,0.2124,0.0994,-4.8213,2.0738,-6.02,6.769375625017793,-16.37489143220009,55.00987444096501,16.934948148074742
-0.2729,0.962,0.1174,0.0089,0.2124,0.0994,-4.7688,1.4787,-4.6375,6.90341437394266,-15.785307511451187,54.9151652028525,16.946932026588843
-0.2499,0.9664,0.1211,0.0059,0.2115,0.0993,-5.11,1.0587,-4.1388,7.079681519123268,-14.511238347237574,54.98768411564701,16.958992350505
-0.2423,0.9639,0.1191,0.0059,0.2115,0.0993,-4.7425,0.4025,-3.7188,7.054236036350822,-14.050050908376136,55.65791659876968,16.971016575203517
-0.2363,0.9552,0.1223,0.0053,0.2099,0.0938,-4.9263,0.49,-4.235,7.229396880602364,-13.809774982111714,55.19407769125899,16.980154278146593
-0.2316,0.9442,0.1233,0.0053,0.2099,0.0938,-4.62,0.9713,-5.1275,7.376442178730912,-13.683359532613236,55.077702116496056,16.992204338559695
-0.2344,0.9368,0.1266,0.0054,0.2086,0.1016,-4.6375,0.98,-5.8275,7.600363715303364,-13.901566624802259,55.35138951486526,17.004186447504303
-0.2374,0.9373,0.1239,0.0043,0.207,0.0991,-3.815,0.5862,-5.88,7.558137959356645,-14.075622272521557,55.38828517202162,17.016198993044174
-0.2339,0.9467,0.124,0.0043,0.207,0.0991,-2.87,0.2013,-6.3,7.52351196149278,-13.798055242814812,55.806963268250946,17.028216139464725
-0.2277,0.9468,0.1221,0.0016,0.2054,0.1001,-1.6187,0.2975,-7.28,7.452204358747699,-13.460904364767611,56.041513450108845,17.037790572158443
-0.2201,0.9492,0.1254,0.0016,0.2054,0.1001,-1.2862,-0.1138,-8.6538,7.489367955783874,-13.019353118468297,56.57523479667276,17.04950052131517
-0.216,0.9476,0.118,0.0012,0.2048,0.1006,-0.98,-0.105,-9.695,7.266437140212576,-12.79122316207611,57.426066661147075,17.061510235543853
-0.2209,0.9544,0.119,-0.001,0.2039,0.0983,-1.19,-0.2187,-10.36,7.182522665387159,-12.908186448953362,56.526917987393794,17.073714956330562
-0.2195,0.959,0.1221,-0.001,0.2039,0.0983,-1.7762,-0.1663,-11.1125,7.207901062223994,-12.81747679206306,56.19077457379436,17.085909767528115
-0.215,0.9564,0.1154,-0.0004,0.2031,0.1006,-1.4612,0.0875,-10.9987,7.057855019074965,-12.631462158910532,57.21350083945056,17.098076619527692
-0.2189,0.955,0.1203,-0.0004,0.2031,0.1006,-1.5837,-0.0613,-11.34,7.10890526184786,-12.770724416437265,57.23672300371584,17.11009624334553
-0.2219,0.9554,0.1144,0.0002,0.2002,0.1036,-1.9425,0.035,-11.515,7.0341544844007995,-12.93460585847828,58.2544003119552,17.11938754492052
-0.2261,0.9569,0.1156,-0.0016,0.2036,0.1005,-1.8288,0.1575,-12.0662,6.987096572578847,-13.12819866875629,57.207334476298314,17.13150484897432
-0.2241,0.9589,0.115,-0.0016,0.2036,0.1005,-2.1438,0.1312,-12.075,6.966473196925465,-13.081601447976531,56.85620435882422,17.143632770445073
-0.2201,0.9637,0.1181,-0.0031,0.2014,0.0989,-2.135,0.035,-11.725,6.969412929687255,-12.850426185162904,56.344596963030305,17.15569592567242
-0.2145,0.9638,0.1202,-0.0031,0.2014,0.0989,-2.3275,-0.2013,-11.13,6.972443774858411,-12.540419738470113,56.338876060228486,17.167947363093717
-0.2085,0.9607,0.1168,-0.0025,0.2002,0.0936,-2.3625,-0.3237,-12.0662,6.970249146839509,-12.26328075948523,56.030736527563484,17.18011527683499
-0.2061,0.9606,0.1149,-0.0025,0.2002,0.099,-2.2225,-0.2275,-13.0462,6.95882960755421,-12.115485365543334,57.26510808125084,17.192260186172867
-0.2035,0.9562,0.1205,-0.0043,0.2001,0.099,-2.0825,0.2013,-13.51,6.99958816210692,-12.01079597313189,57.06832042139147,17.204295382202236
-0.2098,0.9663,0.1138,-0.0038,0.1997,0.1003,-2.695,0.455,-13.0725,6.920264260423762,-12.108332042230357,57.38297374128928,17.213614289061297
-0.2481,0.9627,0.1252,-0.0038,0.1997,0.1003,-3.22,-0.0525,-11.935,7.15411917953526,-13.744391851867123,54.8583515236465,17.225794943702915
-0.2535,0.9627,0.1165,-0.005,0.1994,0.1001,-2.24,-0.8312,-9.7825,7.13854594927515,-14.497104657526949,53.25896741212883,17.237843588460425
-0.2502,0.9634,0.1229,-0.005,0.1994,0.1001,-1.7062,-1.2512,-8.0587,7.187757128033545,-14.452926401792478,52.54330783592643,17.250082992809176
-0.2462,0.9593,0.1153,-0.0062,0.1982,0.0987,-1.8637,-1.225,-6.58,7.085399399501192,-14.312681307070452,52.35514878502645,17.262152872400588
-0.2503,0.9618,0.1137,-0.009,0.197,0.1017,-1.05,-1.8987,-4.7425,6.894252055969251,-14.47431980692921,52.150701233682184,17.274277254732358
-0.2717,0.9725,0.1148,-0.009,0.197,0.1017,-0.875,-2.1613,-2.3013,6.798995873061935,-15.429958797370768,50.897885884507765,17.28642570320922
-0.2746,0.9761,0.1177,-0.011,0.1956,0.1,-0.9275,-2.975,1.4088,6.84340592987603,-15.594838109083977,49.33130649427519,17.29569824734759
-0.266,0.974,0.116,-0.011,0.1956,0.1,-1.3562,-3.8325,5.775,6.818246043665563,-15.192444413580565,49.655763200428524,17.30766903104745
-0.2486,0.9717,0.1197,-0.015,0.1912,0.1022,-0.3938,-4.0513,8.7237,6.9524556202338434,-14.286172861973842,50.37480693359634,17.31967520613715
-0.2309,0.9714,0.1197,-0.0199,0.1884,0.1015,-0.105,-4.585,12.4425,7.0022045716716335,-13.310117672003347,50.07121629037628,17.33189939218827
-0.234,0.9636,0.1136,-0.0199,0.1884,0.1015,0.1312,-4.725,12.9325,6.804697926242961,-13.550364887650106,50.03823947493201,17.34397599614375
-0.2149,0.9706,0.1195,-0.0241,0.185,0.1032,0.7175,-4.6463,15.5137,6.965665817042629,-12.430816214018696,50.48527461146327,17.356094715853146
-0.2006,0.9645,0.1164,-0.0241,0.185,0.1032,1.2425,-4.4363,17.1238,6.899945159371587,-11.690039441297895,51.57858358382537,17.365267810186065
-0.1882,0.9614,0.1163,-0.0294,0.1806,0.0982,2.1263,-4.6725,18.375,6.897968363368227,-11.018057767847608,49.58971786680551,17.377323533221542
-0.1795,0.9612,0.112,-0.0347,0.1776,0.1026,1.8288,-5.1975,18.9787,6.6952319083314125,-10.523099526528208,49.876113465836745,17.389389519760073
-0.1737,0.9607,0.1136,-0.0347,0.1776,0.1026,1.7413,-5.25,20.1775,6.7341324163307235,-10.188842984345225,50.17908715848184,17.401468955026743
-0.1789,0.9678,0.1106,-0.0397,0.1712,0.1029,1.435,-4.8825,21.4725,6.564752916184244,-10.400928108737494,49.19789068132132,17.41351866152595
-0.1789,0.9722,0.1107,-0.0397,0.1712,0.1029,1.7325,-5.1275,23.4412,6.509673287445205,-10.36220224898147,49.12886639129053,17.425605528984484
-0.167,0.9761,0.1093,-0.0467,0.1662,0.1042,2.31,-6.0725,25.4713,6.410613711508509,-9.666824696720708,48.43852197093752,17.434793841615036
-0.1476,0.9772,0.1025,-0.0467,0.1662,0.1042,2.8963,-6.65,27.0637,6.056100373784699,-8.569352158466845,49.84310545469673,17.446835408094575
-0.1224,0.9763,0.1028,-0.0539,0.1624,0.1031,2.065,-7.0437,27.1425,6.019267025079182,-7.141207062574156,48.9365495554001,17.458979963518555
-0.1086,0.9733,0.1014,-0.0603,0.1574,0.1041,1.5137,-6.8863,27.125,5.9625608017176,-6.351566123129578,48.15240928304513,17.4709978177669
-0.096,0.9881,0.1089,-0.0603,0.1574,0.1041,1.435,-6.8075,27.5625,6.220350117862786,-5.535342153633953,48.505929888404395,17.483082915655945
-0.1125,0.9823,0.097,-0.0689,0.1542,0.1059,1.2425,-6.8075,28.6212,5.767261154065802,-6.480291679501958,46.31551086370213,17.495107494268364
-0.1115,0.9762,0.1061,-0.0689,0.1542,0.1059,-0.2888,-6.7112,31.6837,6.058510043289964,-6.478216035613397,45.60293433352278,17.504400565412844
-0.1026,0.972,0.1016,-0.0768,0.1476,0.1041,-0.5075,-7.21,33.25,5.999882752124851,-6.003072123733302,43.750514633883746,17.516498050288334
-0.0978,0.9616,0.1013,-0.088,0.1414,0.1056,-0.0875,-7.6563,35.0612,6.009377279255014,-5.780066616351911,41.514415263649894,17.52862455610349
-0.0775,0.9731,0.1055,-0.088,0.1414,0.1056,0.525,-9.0825,35.2713,6.141095583827232,-4.551723625754612,41.94416727885012,17.540719209667795
-0.0329,0.9653,0.0977,-0.0951,0.1377,0.1066,0.6388,-9.0037,34.2388,5.871063195695142,-1.9943770797036455,42.59486365849066,17.55284854679414
0.0063,0.9704,0.0988,-0.0951,0.1377,0.1066,0.3938,-9.3712,32.725,5.829033842414357,0.321230751516408,44.218776502219576,17.564866754956384
0.0014,0.9643,0.0941,-0.1042,0.1335,0.1137,-0.35,-8.7675,32.4275,5.659959766703828,0.08774459647788194,43.961051668444235,17.573986054376746
0.001,0.9667,0.0971,-0.1132,0.1289,0.107,-0.6038,-8.3912,32.6813,5.707742632547764,0.05956735381147627,40.02685110703148,17.586074691404775
0.0106,0.9733,0.1025,-0.1132,0.1289,0.107,-1.2075,-7.8925,33.0662,5.866839462784901,0.6090370931662049,39.78435908267689,17.598165805830092
0.0265,0.9629,0.1045,-0.1242,0.1246,0.1083,-0.7613,-7.5338,31.22,6.065313409293412,1.5468218089117434,38.215849924480004,17.610213742759804
0.0524,0.9499,0.0999,-0.1242,0.1246,0.1083,-0.3588,-7.1138,30.1262,6.024589761494211,3.1053960665389413,38.98151105538125,17.62227902147054
0.0705,0.9473,0.0975,-0.1312,0.1215,0.106,0.3763,-6.58,27.8512,5.916669359045187,4.2080258827206025,37.68662558483934,17.631461671478714
0.0799,0.9473,0.0969,-0.1312,0.1215,0.106,1.1638,-6.5363,25.8475,5.8575533694494215,4.782132228206334,37.84301936618426,17.64348448052164
0.0867,0.9453,0.0899,-0.1388,0.1158,0.1033,0.665,-5.95,24.2375,5.539640093950683,5.206036691839216,36.15082431809654,17.655502688683885
0.0714,0.9476,0.0937,-0.1441,0.1128,0.1102,0.42,-5.7137,23.2225,5.618275007067219,4.311741176228431,36.22572921717164,17.6675060324624
0.0581,0.9475,0.0969,-0.1441,0.1128,0.1102,0.2975,-5.4075,23.6338,5.777943292215895,3.5116499093243543,35.81689535321258,17.679592192093136
0.0714,0.9642,0.0939,-0.1546,0.11,0.1094,0.8225,-5.5213,24.3775,5.614535321733441,4.197658014690948,34.27813751122447,17.688712199341293
0.0941,0.9658,0.0937,-0.1546,0.11,0.1094,0.7437,-5.5125,25.5237,5.559447701412528,5.506505944014767,34.5835794811636,17.700671303882505
0.105,0.9553,0.0902,-0.1618,0.1082,0.1075,0.7263,-5.6613,25.34,5.434970513078113,6.2268360254345,33.37385422922233,17.71273835216273
0.1529,0.9481,0.0958,-0.1618,0.1082,0.1075,0.49,-5.2588,23.87,5.6815942656235565,9.042575762090724,34.15183037500197,17.72473320200768
0.1516,0.9459,0.0903,-0.169,0.1062,0.1094,0.7875,-4.725,21.7787,5.509000216951858,9.064277189988834,33.699597111542694,17.73387692148703
0.1457,0.9384,0.082,-0.1762,0.1029,0.1094,0.8138,-4.165,20.6937,5.1190119350847105,8.800006954459043,32.68992996986115,17.745882034835034
0.1514,0.9373,0.0849,-0.1762,0.1029,0.1094,0.8312,-4.06,19.7488,5.161987237195732,9.129271470903252,32.57696347416488,17.757934218731528
0.1796,0.9468,0.0876,-0.1832,0.0986,0.1093,0.8838,-4.0338,16.2838,5.256458027860619,10.64729630951155,32.053625010643366,17.76999772787277
0.176,0.9423,0.085,-0.1832,0.0986,0.1093,0.0613,-3.0363,14.2975,5.184718635857653,10.54146184403957,31.968479393870474,17.781994347287213
0.1547,0.929,0.0758,-0.1881,0.0985,0.1074,0.385,-2.695,13.9038,4.805548064916484,9.461328543872744,30.809224914690365,17.79106763790078
0.144,0.9455,0.0882,-0.1881,0.0965,0.1111,-0.14,-2.905,14.49,5.163870695993777,8.650528432002332,30.86244175164581,17.803213255066453
0.153,0.9528,0.0844,-0.1934,0.0965,0.1111,0.5338,-2.8175,15.0062,5.0886137323310905,9.073417911500314,30.477777800524088,17.81524208064565
0.1688,0.9562,0.083,-0.1998,0.0934,0.1087,0.7437,-3.29,13.93,4.992479232568403,9.9442343040769,29.464753011280063,17.827240823543484
0.1902,0.9458,0.0769,-0.1998,0.0934,0.1087,0.9625,-3.2288,12.2762,4.728955834349389,11.284393694802343,29.74760666517326,17.83926964912268
0.2331,0.9399,0.0816,-0.2058,0.0915,0.109,0.1837,-2.6513,10.7187,4.895098207097693,13.780258628492568,29.80335842663235,17.848435665177632
0.2361,0.9486,0.0765,-0.2058,0.0915,0.109,-0.0175,-2.24,7.91,4.697166010847063,13.926602267802199,29.930263051267275,17.860436177644957
0.2375,0.9393,0.076,-0.2094,0.0898,0.1126,-0.5425,-1.4875,5.005,4.651631153809368,14.134786160072274,30.271555517865462,17.872464649310256
0.2554,0.9389,0.0821,-0.2146,0.0899,0.1101,-1.75,-0.7437,2.1,4.775078591540584,15.104522832373693,29.658464314239392,17.88447259396945
0.2601,0.9378,0.082,-0.2146,0.0899,0.1101,-1.2163,0.1488,-0.595,4.890848769691375,15.422759306835038,29.548545701628584,17.893607819515235
0.2557,0.9248,0.0734,-0.2152,0.0878,0.1091,-1.3212,0.7525,-3.9725,4.71582302332228,15.410686958767457,29.454032270645587,17.905666019948
0.2448,0.9248,0.0776,-0.2152,0.0878,0.1091,-0.5775,1.015,-6.3438,4.766895437087073,14.844567456421666,29.37826472673968,17.917633972336674
0.2442,0.9268,0.0719,-0.218,0.0894,0.105,-0.8575,1.7325,-7.7175,4.57121116881079,14.734650757471716,28.786994175014094,17.929675184902315
0.242,0.9265,0.0696,-0.218,0.0894,0.105,-1.0675,2.17,-9.8875,4.419022890420337,14.622433060286399,28.25762729392309,17.941699055686936
0.2424,0.9298,0.0763,-0.2161,0.087,0.1079,-1.4962,3.395,-11.165,4.540758516795248,14.57764170272469,28.40896781728838,17.950915681429358
0.2463,0.9339,0.0708,-0.2191,0.0869,0.1073,-0.9975,3.64,-12.25,4.424364457310554,14.688651894715715,28.214839333791915,17.96312606483844
0.2381,0.9348,0.0747,-0.2191,0.0869,0.1073,-1.3825,3.64,-13.72,4.493684996665852,14.469467678162289,27.990657128673767,17.975058979751168
0.2449,0.9354,0.0735,-0.2178,0.0877,0.107,-1.8637,4.2263,-15.855,4.493426884489453,14.554550994967503,28.108335811933653,17.987657606706808
0.2409,0.9339,0.0795,-0.2178,0.0877,0.107,-2.1263,4.0862,-17.8762,4.549941663282334,14.447838241379793,27.98899909650922,17.999321900970642
0.2291,0.9315,0.076,-0.217,0.088,0.1056,-2.5288,4.76,-18.7162,4.570844181272181,13.907966272201467,27.66573644279088,18.011285606392534
0.2176,0.9348,0.0774,-0.2159,0.0878,0.1079,-2.8087,4.7337,-21.4725,4.625210049784558,13.169681038698814,27.934732932246856,18.020424724991205
0.2119,0.9323,0.077,-0.2159,0.0878,0.1079,-3.2725,3.57,-22.4525,4.6725155737607595,12.809506784940298,27.925624489472817,18.03248504890736
0.2089,0.9335,0.0778,-0.215,0.0878,0.1072,-2.5638,3.045,-24.4475,4.691337972556995,12.593848992895264,27.83794196387489,18.04458890423302
0.2095,0.9364,0.0793,-0.215,0.0878,0.1072,-2.6863,2.4938,-25.4888,4.73251872541292,12.569746327330531,27.795203829004944,18.056686035194613
0.2131,0.941,0.0822,-0.2117,0.0882,0.1047,-2.7213,1.19,-27.2825,4.808850254688797,12.702650400295699,27.79350580569193,18.06876865568637
0.2184,0.9423,0.0799,-0.2117,0.0882,0.1047,-3.3163,0.6125,-29.5137,4.827858994437645,12.985087366960146,27.760147884429305,18.080822609152353
0.2271,0.9431,0.0822,-0.2116,0.0894,0.1074,-3.4825,0.2888,-32.5763,4.910810732088691,13.463144280013166,28.106350539582806,18.090036049669692
0.2293,0.9494,0.0772,-0.2065,0.0919,0.108,-3.8325,0.0613,-36.3125,4.752446095279229,13.531899486714172,28.82975874258746,18.102081863116013
0.2369,0.9583,0.0767,-0.2065,0.0919,0.108,-4.9263,0.245,-39.9875,4.6247718542855205,13.831221649554418,29.20787317550649,18.11419987499761
0.2351,0.9543,0.0798,-0.2002,0.0923,0.1079,-4.76,0.735,-44.24,4.735094877389727,13.794655222837655,29.56791483719112,18.126277540694787
0.2255,0.9472,0.0735,-0.2002,0.0923,0.1079,-6.615,1.0762,-49.0525,4.493219804478778,13.36494870515847,29.642184876175442,18.138320522829922
0.1896,0.9384,0.0659,-0.194,0.0953,0.1138,-7.0262,1.2512,-51.7912,4.100286293903071,11.446992616911832,29.804424935761133,18.14752051461912
0.161,0.944,0.0652,-0.1879,0.0972,0.106,-8.3387,1.0762,-51.0563,3.972241289943845,9.704089555693987,29.877291391285453,18.15961304470003
0.1459,0.952,0.0636,-0.1879,0.0972,0.106,-9.2225,0.7788,-49.0175,3.841032353880604,8.722662021025817,29.994410294074864,18.171649302471096
0.1587,0.9591,0.076,-0.1822,0.0993,0.1098,-10.2287,0.0438,-46.9263,4.453417105794821,9.347245369815282,31.093297307196032,18.183809784020504
0.1662,0.9571,0.081,-0.1822,0.0993,0.1098,-10.6925,0.5338,-45.5788,4.796541693389933,9.802018390482925,31.4882606093555,18.195884972320393
0.1734,0.9543,0.0899,-0.1742,0.102,0.111,-10.9025,0.5862,-45.8763,5.3207071584471235,10.240025465910824,32.30639606636791,18.208028819916574
0.1713,0.9537,0.0846,-0.1742,0.1225,0.1147,-11.8562,1.05,-48.7112,5.093106212985545,10.146426209213066,32.611696272368924,18.220112148236126
0.1648,0.9527,0.098,-0.1688,0.1038,0.1147,-11.3575,2.66,-50.3037,5.79550965826203,9.773964543941533,34.136807877393025,18.229436363803668
0.1555,0.9472,0.0961,-0.1624,0.1082,0.1144,-11.5675,3.8238,-51.8787,5.793452466067572,9.289229008044295,35.56645662343863,18.241508720792368
0.1354,0.9379,0.1046,-0.1624,0.1082,0.1144,-11.69,4.5413,-53.5237,6.308749771589706,8.19305895194011,35.355107225796964,18.253638057918717
0.1264,0.9385,0.1099,-0.1532,0.1093,0.1176,-10.5262,5.39,-55.02,6.638862678095207,7.633054776818768,37.090016078687235,18.265749345436245
0.1269,0.9359,0.1093,-0.1532,0.1093,0.1176,-9.4062,6.5012,-56.0175,6.658415779479739,7.669342655533836,37.466565704288605,18.277857801642583
0.1282,0.9352,0.1097,-0.1466,0.1121,0.1153,-8.05,7.0175,-57.9425,6.685560212363671,7.751226804122459,38.184795409701316,18.289952101292986
0.1222,0.9306,0.1166,-0.1402,0.117,0.1161,-7.0963,8.3912,-60.1825,7.062922037151668,7.430548279260617,39.32800023063738,18.299102899050308
0.0981,0.9314,0.1068,-0.1402,0.117,0.1161,-6.3,9.2137,-62.7462,6.645746133958244,6.0033758565903215,39.0390137986654,18.311199676098
0.0827,0.9406,0.109,-0.1306,0.12,0.1155,-4.9175,10.3687,-64.5313,6.620004592409117,5.011348753016678,40.266919840791715,18.32334140021079
0.0744,0.9395,0.108,-0.1306,0.12,0.1155,-4.3313,10.85,-65.52,6.578248414059742,4.5082621982967765,40.15316547411797,18.335435699861193
0.0712,0.9395,0.1057,-0.119,0.1242,0.1194,-4.1213,11.2,-66.7013,6.475656319956983,4.310608593410207,43.67368072845782,18.347505933366506
0.0624,0.9344,0.1061,-0.1121,0.1298,0.1125,-3.395,12.1975,-68.215,6.476941382561355,3.805698860428303,43.48541208890603,18.35966464534642
0.0518,0.9332,0.1065,-0.1121,0.1298,0.1125,-3.5263,13.0462,-69.93,6.495458632408528,3.1682045730321295,43.02626198342909,18.37182017210125
0.0123,0.9428,0.102,-0.1009,0.1351,0.1128,-2.485,13.5362,-71.12,6.446599813778715,0.7853520877364,44.48068707525768,18.383898545626224
-0.0203,0.9542,0.0929,-0.1009,0.1351,0.1128,-2.4413,14.035,-72.73,6.340540305328397,-1.1791594301146595,43.71248846995407,18.393362911097537
-0.0509,0.9665,0.0944,-0.0929,0.1408,0.113,-3.29,14.035,-70.77,5.9624557273678676,-2.9684895026962432,44.399389171753064,18.405370855756725
-0.0722,0.9786,0.0988,-0.08,0.1468,0.1082,-4.0775,13.6237,-69.16,5.8362772739501265,-4.176131469846564,45.42550694869975,18.41756602086818
-0.0734,0.9837,0.0925,-0.08,0.1468,0.1082,-4.6463,12.5475,-68.2413,5.510881198395347,-4.247286088955916,45.779649718560336,18.429728271987077
-0.0625,0.9884,0.0979,-0.0718,0.1502,0.109,-5.3025,12.4775,-68.5388,5.620172943042818,-3.6124158230691332,48.642671710763125,18.441924144926325
-0.0646,0.9814,0.0985,-0.0718,0.1502,0.109,-6.5975,12.3462,-69.5625,5.710384236023813,-3.7448371197006205,48.68809659921696,18.454072239489285
-0.0819,0.9694,0.0925,-0.0614,0.1564,0.1081,-7.4637,12.425,-71.3125,5.492827119917658,-4.789002310121637,50.817590213005104,18.46623307495259
-0.104,0.9719,0.0966,-0.0522,0.1623,0.1079,-8.015,12.7575,-71.4525,5.6488309990094745,-6.055757396861339,52.34222687263129,18.478458676659304
-0.125,0.9793,0.0995,-0.0522,0.1623,0.1079,-8.5662,12.6612,-71.0325,5.78049535792964,-7.216556791920017,51.15787264052264,18.490649594803976
-0.1304,0.9855,0.0993,-0.0433,0.1698,0.1081,-9.7212,12.04,-70.1313,5.756938744377258,-7.494948983301463,53.52586485987693,18.50277928584422
-0.1265,0.9811,0.1013,-0.0433,0.1698,0.1081,-10.4038,11.4888,-70.0175,5.879810941745402,-7.311883888016253,53.8089993553694,18.514952154380072
-0.1318,0.971,0.1077,-0.0346,0.177,0.1046,-11.165,11.5762,-72.5813,6.283605197182113,-7.677020386267191,54.80467041417388,18.5243453831578
-0.1446,0.9528,0.1062,-0.0253,0.1819,0.1092,-13.545,11.9612,-73.0538,6.353750401736292,-8.562056929530279,58.34826609818211,18.53662407194928
-0.1662,0.9434,0.1147,-0.0253,0.1819,0.1092,-13.4837,12.3638,-73.57,6.8845959001375325,-9.897088643721679,56.19732499644076,18.54885250496718
-0.1946,0.9426,0.1154,-0.016,0.1886,0.1087,-13.3262,12.0225,-74.305,6.971912416030956,-11.552958826841023,56.61961752988833,18.5609436193925
-0.2161,0.9432,0.1143,-0.016,0.1886,0.1087,-12.7925,11.13,-73.15,6.9150193818972845,-12.792693971054693,55.00310365061354,18.57328601268569
-0.227,0.9433,0.1179,-0.0064,0.1986,0.113,-13.2125,10.2462,-71.9688,7.106695443107429,-13.419044162605354,57.45863488858582,18.585492503041888
-0.2354,0.9398,0.1179,0.0018,0.205,0.1086,-12.95,9.3537,-70.945,7.146762763467072,-13.947588121337336,58.30601707764275,18.597620070598744
-0.2425,0.9453,0.1262,0.0018,0.205,0.1086,-13.4663,8.085,-72.1,7.56655882062894,-14.2611514796488,57.34799877372143,18.609718971129826
-0.2669,0.9416,0.1295,0.0116,0.2113,0.1114,-13.2388,8.3912,-72.66,7.808719612203357,-15.661137586426607,58.56591358418291,18.62187379005686
-0.2996,0.9446,0.1329,0.0116,0.2113,0.1114,-13.7025,8.575,-71.6625,7.992506574975884,-17.405725752159498,55.57079015733035,18.6339826001771
-0.3298,0.9428,0.1366,0.017,0.2203,0.112,-13.545,8.2775,-69.5275,8.223524246030138,-19.06528824548945,52.99883205692868,18.646071945032922
-0.3406,0.9384,0.1411,0.0234,0.2251,0.1114,-13.7375,7.3675,-66.9288,8.52472075251772,-19.731498385629898,52.60078182337109,18.65530555864247
-0.3411,0.9301,0.1455,0.0234,0.2251,0.1114,-13.2388,5.88,-60.3575,8.86030146050343,-19.912903519950138,51.788734008588435,18.667463562794588
-0.3326,0.9247,0.1446,0.0317,0.232,0.1113,-12.1187,5.775,-57.7325,8.885123201856263,-19.571397366034446,54.11160328972072,18.679579097278896
-0.3323,0.9182,0.1467,0.0317,0.232,0.1113,-11.2262,5.0925,-55.86,9.057999104168335,-19.66320118493078,54.06498176410548,18.69173179272254
-0.3384,0.9208,0.1499,0.0361,0.2376,0.1116,-11.095,5.2325,-54.04,9.227023866858458,-19.930506042941253,54.07405193308444,18.70384838894854
-0.3488,0.9313,0.151,0.042,0.2418,0.1114,-10.71,5.4075,-53.6637,9.211569215355627,-20.280481385308274,54.97346059828648,18.715966754744038
-0.3597,0.9324,0.1584,0.042,0.2418,0.1114,-10.8675,5.0662,-52.2988,9.596623633097582,-20.809217749367104,53.45630657577103,18.728083350970042
-0.3691,0.9173,0.1534,0.0468,0.2473,0.1128,-11.2087,5.2063,-50.9687,9.50410966628243,-21.62395354733062,52.99217074169763,18.737930297365534
-0.3677,0.9069,0.1618,0.0468,0.2473,0.1128,-10.9637,5.215,-49.42,10.052383560740871,-21.75535560391862,51.651936367247025,18.749516022743922
-0.3625,0.8963,0.1592,0.0486,0.2534,0.1142,-10.3337,4.6813,-47.915,10.069635850968439,-21.714076438212604,51.39410868565672,18.761543786581424
-0.3651,0.8875,0.1535,0.0556,0.2578,0.1136,-9.8087,4.8387,-47.39,9.842889855167403,-22.05531860570159,52.68311412475776,18.773614727914534
-0.3725,0.9093,0.1637,0.0556,0.2578,0.1136,-9.0738,5.1275,-48.4487,10.158875848165353,-21.960829295478483,52.49662018707659,18.785719998895786
-0.4236,0.9235,0.1593,0.0609,0.2621,0.1134,-8.47,4.5938,-48.9038,9.83888467696052,-24.256524746294676,49.6361972368458,18.797855706472305
-0.4402,0.9171,0.1684,0.0609,0.2621,0.1134,-8.0325,4.8562,-47.8275,10.320740060380304,-25.24216427703774,46.15852615425772,18.806983499826227
-0.4549,0.9094,0.1649,0.0638,0.268,0.1122,-8.19,4.6638,-45.3162,10.283931741265382,-26.175630018611695,43.39756797664079,18.819054441159334
-0.4554,0.9016,0.1629,0.0638,0.2708,0.114,-7.7613,4.7512,-42.4637,10.248191342719716,-26.42102159809046,42.49933313265011,18.831180946974495
-0.4447,0.9073,0.169,0.0659,0.2708,0.114,-6.2213,3.185,-36.6275,10.489714738291292,-25.757267167200496,43.33794829790465,18.84322569867912
-0.4297,0.8993,0.1648,0.0694,0.2734,0.1135,-5.5037,2.3625,-34.8775,10.409515099480048,-25.200629325973573,44.76334104563084,18.85532106007122
-0.4027,0.8962,0.1628,0.0694,0.2734,0.1135,-5.1712,2.9838,-35.2537,10.325247910985858,-23.91317111698131,47.85770319492775,18.86733360561109
-0.3938,0.888,0.168,0.0704,0.2774,0.1178,-4.1737,3.4213,-35.9275,10.577899891421588,-23.56121291149139,49.61740484245237,18.876548107870125
-0.3782,0.882,0.1672,0.0704,0.2774,0.1178,-4.2438,3.4475,-37.1437,10.680970149067136,-22.875985583649886,51.50349056700606,18.888653378851377
-0.3673,0.8765,0.1661,0.0737,0.2782,0.1128,-3.8675,4.0775,-38.99,10.711181211024295,-22.397893059147236,52.88009191317619,18.900686097483458
-0.3622,0.8698,0.167,0.0759,0.2838,0.113,-3.4388,4.34,-42.4987,10.79472231309371,-22.247431413137505,52.96672196641716,18.912927271401703
-0.3594,0.8725,0.1627,0.0759,0.2838,0.113,-3.1325,5.0225,-45.9637,10.689793624997261,-22.05124130011723,54.17728386505796,18.924833996685948
-0.366,0.8691,0.1632,0.08,0.2906,0.1135,-2.765,5.88,-49.2887,10.67259346336304,-22.472070904342818,53.37773873434521,18.937267699764927
-0.38,0.8641,0.1652,0.08,0.2906,0.1135,-2.1963,6.6937,-52.5088,10.68740429341983,-23.338574143534515,50.301137302640896,18.946084756716047
-0.401,0.8691,0.1643,0.0865,0.297,0.1178,-1.9425,7.5687,-53.3312,10.692144366706449,-24.361474930620513,50.07839487060496,18.958199937286455
-0.4185,0.8715,0.1685,0.0895,0.3018,0.1096,-2.59,8.5837,-52.7625,10.747697160428789,-25.220145253492518,43.69172936575936,18.970242211593792
-0.4363,0.87,0.1602,0.0895,0.3018,0.1096,-2.3712,8.9512,-51.0125,10.728266549883209,-26.224957692488548,41.85844048987477,18.98234040429708
-0.4483,0.8639,0.1573,0.0954,0.3078,0.1102,-1.6625,9.2225,-48.79,10.568299514098142,-27.022365630621294,40.92633721610858,18.99438904905459
-0.4656,0.8674,0.1576,0.0954,0.3078,0.1102,-0.735,9.9225,-48.335,10.403084115754833,-27.81627360684201,39.074142949279064,19.006455389507018
-0.4745,0.8805,0.1601,0.0975,0.3122,0.111,-0.3763,10.1412,-46.8913,10.338763341317792,-27.929245197613078,38.5701997319909,19.015675554388423
-0.4975,0.8924,0.1555,0.0975,0.3122,0.111,-0.2625,10.535,-46.9263,10.033792730899075,-28.750544201116544,37.91390400407659,19.02784134464631
-0.525,0.8966,0.1516,0.1019,0.3176,0.1007,-0.3588,11.3837,-42.245,9.745231338205379,-29.956238499161465,31.737561756127416,19.039954755647226
-0.5486,0.8898,0.151,0.1047,0.321,0.1055,-1.0412,11.4187,-38.815,9.681675359350448,-31.240186561466256,30.96691950790556,19.05207984580679
-0.5722,0.8793,0.1498,0.1047,0.321,0.1055,-0.2975,10.8413,-35.1312,9.672711196472047,-32.613059463727275,28.72064540086737,19.064182285476857
-0.5607,0.876,0.1473,0.109,0.3236,0.1041,-0.5775,9.3275,-31.85,9.591838904816782,-32.27984375689241,29.22121510258545,19.076246502445898
-0.5531,0.8766,0.1466,0.109,0.3236,0.1041,-1.0587,7.7788,-29.5137,9.5376146696398,-31.919101577526675,29.953336237102842,19.085469498638492
-0.5411,0.8708,0.1478,0.1075,0.3269,0.1061,-0.175,7.35,-28.8663,9.602496154946069,-31.520646022090926,30.10846758006614,19.097576893103138
-0.5416,0.8665,0.1363,0.1087,0.3275,0.1015,-0.315,6.6325,-28.0788,9.161114688781057,-31.68129329472963,29.957672479041122,19.109623414377253
-0.5385,0.8711,0.1431,0.1087,0.3275,0.1015,-0.0788,5.9588,-27.7637,9.276928612248023,-31.404691942508048,29.36824946188001,19.121794513343612
-0.5531,0.8832,0.1388,0.1099,0.3292,0.1012,-0.1488,5.0575,-27.3612,9.040807016146461,-31.718329163213237,29.57885943829019,19.133812013678064
-0.5495,0.8806,0.1365,0.1099,0.3292,0.1012,-0.7437,4.2962,-25.8913,8.90082093602377,-31.664540804065922,30.01469236827078,19.145850394932516
-0.5464,0.8744,0.1357,0.1118,0.3306,0.0997,-0.77,3.4213,-25.3925,8.852776254794295,-31.692462562167258,29.65368875329888,19.15506029631087
-0.537,0.8677,0.1331,0.1135,0.3334,0.103,-1.3387,2.2575,-24.1588,8.787936014261183,-31.47776626387593,30.66589474134904,19.167156365530765
-0.527,0.8602,0.136,0.1135,0.3334,0.103,-1.9512,2.17,-23.1262,8.839273130321748,-31.21111869470113,30.97820168275328,19.17915298494521
-0.5166,0.8565,0.1355,0.1123,0.3318,0.1005,-2.1,1.9337,-22.5312,8.864911973265167,-30.832454498078306,30.936501820830756,19.191242683714933
-0.4915,0.8461,0.1368,0.1123,0.3318,0.1005,-2.905,1.925,-21.945,8.98463663632288,-29.95360221263613,31.46655972218122,19.203291328472442
-0.4805,0.8482,0.141,0.1134,0.3357,0.0942,-2.5025,2.0388,-22.2775,9.059352637677318,-29.285717227015247,30.04595505610034,19.215436591724217
-0.4687,0.8455,0.1416,0.1134,0.3357,0.0942,-2.4675,2.3625,-23.2925,9.121882064743062,-28.73137754415972,29.633264693329323,19.224561199853053
-0.4631,0.8384,0.1421,0.1128,0.3361,0.1,-1.54,3.8937,-27.3175,9.337660072078185,-28.584152355729834,31.497328790211053,19.236646651655995
-0.4545,0.8328,0.1408,0.1157,0.337,0.0989,-1.0937,4.3838,-30.0737,9.47926983440946,-28.303517331008884,32.72712967891127,19.24868998770503
-0.4501,0.8261,0.1438,0.1157,0.337,0.0989,-0.7437,5.6613,-32.2088,9.72026261814029,-28.230101221339915,32.2454110629489,19.260824279625954
-0.4494,0.8284,0.1465,0.1165,0.3398,0.0992,-0.3675,7.2975,-35.56,9.923835958511283,-28.11667408858942,31.534219256478323,19.27288071048923
-0.4671,0.8223,0.1463,0.1165,0.3398,0.0992,-0.3763,8.68,-38.4038,10.032118429190495,-29.17194884192023,28.904444552041735,19.282095566662157
-0.4929,0.826,0.1455,0.119,0.3452,0.1053,0.6737,9.8437,-41.1512,10.000713935150738,-30.395772730057597,29.028873076284018,19.294099264354568
-0.5298,0.8365,0.141,0.121,0.3486,0.0976,1.995,10.7362,-42.0788,9.649484274651268,-31.9304934330416,24.029795665656742,19.306201704024637
-0.5698,0.8398,0.1386,0.121,0.3486,0.0976,2.415,11.0862,-40.3462,9.420159586787843,-33.72973582282337,21.86218195363648,19.31826698273537
-0.5962,0.8486,0.134,0.1242,0.3523,0.0941,1.7062,11.4537,-37.5025,9.062483018560767,-34.71623148067054,20.112213348981584,19.330283775242023
-0.6115,0.8488,0.13,0.1242,0.3523,0.0941,1.5662,10.3512,-34.3087,8.780455253861925,-35.41973888502437,19.999030021813606,19.342387984481583
-0.6109,0.8469,0.1282,0.1272,0.3548,0.0931,1.4,9.905,-30.9662,8.644519071531658,-35.49243119205972,19.8135179793134,19.351559663158906
-0.6054,0.8411,0.1261,0.1272,0.3548,0.0931,1.3562,8.9862,-28.4813,8.55176696863426,-35.44717285911156,20.066470684003566,19.363567961731995
-0.6114,0.8394,0.124,0.127,0.3574,0.0882,1.3212,8.12,-26.9762,8.435327334877693,-35.750233435524066,17.808855836196408,19.37553980717355
-0.6151,0.8541,0.1246,0.1281,0.3573,0.0896,1.5487,7.56,-25.6812,8.327894460891505,-35.497803594824994,18.743617458116915,19.38760331631479
-0.6274,0.8638,0.1108,0.1281,0.3573,0.0896,0.8225,7.3938,-24.4475,7.556171570248683,-35.74453089904455,21.168073224045997,19.39674738970804
-0.6279,0.8543,0.1169,0.1302,0.3587,0.0886,0.56,6.0813,-23.275,7.730840592419627,-36.02899238124867,19.720335437485176,19.408790371843175
-0.6252,0.8475,0.1105,0.1302,0.3587,0.0886,0.4025,5.2762,-21.5425,7.510054912183591,-36.16575909726618,20.247529770267043,19.42080185564135
-0.6177,0.8539,0.1206,0.1287,0.3614,0.0902,0.4987,4.8825,-20.5888,7.899921526850132,-35.69343341107566,19.45387323744964,19.432855809107334
-0.609,0.8503,0.1138,0.1287,0.3614,0.0902,-0.5075,4.2962,-18.7862,7.7219075358339415,-35.43401278040443,20.448732264559915,19.444895959931284
-0.6047,0.8508,0.1111,0.1273,0.361,0.0847,-1.5312,3.9813,-18.0163,7.598796358644901,-35.23474930252437,19.344123680581024,19.454078609939458
-0.6068,0.8497,0.1083,0.1287,0.3607,0.0862,-4.4187,2.695,-15.4175,7.371241836358353,-35.26776207561228,19.894666984482523,19.46612406947188
-0.6073,0.8531,0.1041,0.1287,0.3607,0.0862,-2.4588,1.8725,-14.7875,7.3161353386221695,-35.266066956093674,20.457968565027397,19.4781928873216
-0.6011,0.8528,0.1024,0.1269,0.3615,0.088,-3.1325,1.2425,-14.4812,7.103755353578061,-35.21533524897711,20.562901898136147,19.49029214176658
-0.5961,0.8494,0.11,0.1269,0.3615,0.088,-4.3137,0.8925,-13.7637,7.287453239667231,-35.03223245977956,20.633320937410744,19.502353173510535
-0.5864,0.843,0.1066,0.1273,0.3613,0.0886,-5.0575,0.4462,-14.1138,7.228426695782809,-34.87593948382231,21.232188506043155,19.51446304537247
-0.5796,0.8412,0.1136,0.1292,0.3607,0.0882,-6.0813,-0.0088,-13.405,7.594138298071497,-34.565403358462895,21.149159496442593,19.523705506829476
-0.5715,0.8422,0.1146,0.1292,0.3607,0.0882,-6.3525,0.21,-13.23,7.718134271176137,-34.17886590437503,21.279043089174166,19.535753443759187
-0.566,0.8287,0.1134,0.1291,0.3605,0.0881,-6.6413,0.525,-14.28,7.778162511822484,-34.15127476089169,21.177375261544825,19.54782084595331
-0.5718,0.8294,0.1171,0.1291,0.3605,0.0881,-6.3,0.4987,-14.315,7.984592604601151,-34.198102254604166,20.67221167402234,19.559908775153545
-0.5795,0.8245,0.1113,0.1273,0.3615,0.0834,-6.3787,0.9013,-14.1312,7.746408774770971,-34.43802015762558,20.045480914227674,19.572012630479204
-0.5788,0.8258,0.1204,0.127,0.3594,0.0882,-6.5012,0.9625,-14.0875,8.189550599751177,-34.554367220540975,19.775284947809407,19.584058443925528
-0.5767,0.8249,0.1212,0.127,0.3594,0.0882,-6.1863,0.14,-13.8162,8.323876305141237,-34.609232235395396,19.085380959273113,19.59323224608624
-0.5788,0.8297,0.1216,0.1274,0.3596,0.09,-5.705,-0.0963,-13.5012,8.334675799322309,-34.612120433190846,19.273051307042987,19.605391311980053
-0.5719,0.8322,0.1179,0.1274,0.3596,0.09,-5.9675,0.28,-12.7662,8.12173036845492,-34.36159038156183,19.97375472614459,19.617445973273835
-0.5698,0.8336,0.1185,0.1286,0.3587,0.0875,-5.3987,0.5425,-13.335,8.098239589547651,-34.20341780387434,19.974993917446596,19.62956717038052
-0.5689,0.8323,0.1211,0.1286,0.3587,0.0875,-6.1163,0.77,-13.6325,8.241005376027093,-34.13686395407194,19.796792083937248,19.64159528813192
-0.5657,0.8338,0.1197,0.1258,0.3594,0.097,-6.4138,0.7525,-13.5275,8.18353085954548,-34.00046917745037,21.02076055220584,19.65368852604063
-0.5725,0.8294,0.117,0.1281,0.3585,0.0902,-6.3963,1.6275,-13.5012,8.059751692436798,-34.19239632291583,21.04679162533522,19.662887456088132
-0.5717,0.8302,0.1174,0.1281,0.3585,0.0902,-6.44,1.6362,-13.23,8.051033540984843,-34.24928941529044,21.07047003691313,19.674883367674777
-0.5774,0.8341,0.1214,0.1279,0.357,0.0919,-5.6788,1.1725,-13.79,8.228441161324904,-34.326957965078954,21.072340201345867,19.687359540421568
-0.58,0.8359,0.1183,0.1279,0.357,0.0919,-6.09,1.015,-13.055,8.09143777045691,-34.42822755113626,21.187844414043656,19.69910452705424
-0.5786,0.8391,0.1188,0.1276,0.3585,0.0927,-5.4513,0.7263,-12.6612,8.066363285254427,-34.35753892890895,21.48490334908784,19.711179007526333
-0.5725,0.84,0.1255,0.1286,0.3596,0.0933,-6.8338,0.6825,-12.0662,8.419440802663763,-34.08570655248538,21.45751374563447,19.72320960267502
-0.5685,0.8317,0.119,0.1286,0.3596,0.0933,-7.3587,0.4638,-12.5125,8.188366386295408,-34.08466817327553,21.861709057344147,19.7325249703951
-0.5643,0.8333,0.1274,0.1286,0.357,0.0924,-7.2625,0.9625,-12.6525,8.607807770343113,-33.89248205680848,21.712553387534573,19.744472749691564
-0.5676,0.8283,0.1227,0.1286,0.357,0.0924,-7.1925,1.19,-12.355,8.457061923421923,-34.060327668467544,21.710946124860058,19.756561386719593
-0.5727,0.8295,0.1305,0.1256,0.3574,0.0951,-7.1925,1.0237,-12.7837,8.858550190270837,-34.21461404763959,21.525016111504787,19.7686553324561
-0.5724,0.8342,0.1291,0.1256,0.3574,0.0951,-7.315,0.8575,-13.0812,8.80745103052519,-34.169068912825296,21.39622652226157,19.780739722517346
-0.578,0.8386,0.1274,0.1268,0.3572,0.0886,-6.7987,1.155,-13.3612,8.669103820989255,-34.22774207772139,21.31728912804258,19.789880610685508
-0.5788,0.8394,0.133,0.1242,0.3554,0.0939,-7.1663,0.8575,-13.3787,8.946420103585393,-34.244174849055625,20.941008346546514,19.80198446601117
-0.5802,0.8367,0.1315,0.1242,0.3554,0.0939,-7.665,1.1287,-13.3262,8.934125148275811,-34.34153019584352,20.884203269240437,19.814037357735458
-0.5764,0.8356,0.1359,0.1259,0.3563,0.0936,-7.4637,1.2337,-13.2562,9.188295548073707,-34.287010857498984,20.792031175592637,19.826150768736376
-0.5737,0.8336,0.1329,0.1259,0.3563,0.0936,-7.6475,0.9713,-12.9237,9.078859095633083,-34.23225578631366,20.587299811020042,19.83821640136101
-0.5671,0.8325,0.1382,0.1258,0.3558,0.0928,-7.4025,0.5425,-12.0662,9.368637782119505,-33.99231798578712,19.747320955680575,19.850268231343605
-0.5649,0.8317,0.136,0.1246,0.3525,0.096,-7.77,0.945,-11.7775,9.299495607283363,-33.87455931953732,19.980355982110623,19.85946185268263
-0.5672,0.8344,0.1365,0.1246,0.3525,0.096,-7.2013,0.7263,-10.0887,9.292237563126664,-33.8591292002988,20.275028506144483,19.871553321021846
-0.5558,0.8317,0.1341,0.1246,0.353,0.0954,-7.2188,0.525,-10.5437,9.181792572348849,-33.50093763517241,20.77520202935144,19.883647266758352
-0.5555,0.8342,0.1416,0.1246,0.353,0.0954,-6.79,0.42,-10.8937,9.551354407263027,-33.33035625883158,20.481869789792583,19.895641054861606
-0.5473,0.8322,0.1348,0.1258,0.3542,0.0943,-7.4725,0.595,-11.6637,9.257702769329937,-33.07529963606527,20.81659309025272,19.90774915715405
-0.5527,0.8289,0.1418,0.1258,0.3542,0.0975,-7.21,0.8312,-11.4187,9.631427320689319,-33.25865449788676,20.818031006641117,19.919776213163754
-0.5499,0.8272,0.1443,0.1258,0.3537,0.0975,-7.2713,1.5837,-11.9087,9.85109361089154,-33.23027373423721,20.698185719892912,19.929096889592312
-0.5511,0.8301,0.1394,0.123,0.3534,0.0971,-7.4725,0.84,-12.2762,9.584429784970656,-33.218676919832426,20.784406747800215,19.941132085621682
-0.5516,0.8339,0.1418,0.123,0.3534,0.0971,-7.2188,1.1287,-12.5475,9.639340612373381,-33.14360089326528,20.783918549732924,19.95315170943952
-0.5501,0.8392,0.1496,0.1236,0.3518,0.095,-7.14,1.505,-12.915,10.027393137186394,-32.946012973068,20.318150987715427,19.965274322201797
-0.5514,0.839,0.1448,0.1236,0.3518,0.095,-7.42,1.54,-13.3787,9.830505915599332,-32.93607600316793,20.199829734967565,19.977339246998632
-0.5561,0.8339,0.1482,0.123,0.3518,0.1013,-7.5775,1.3912,-14.0437,10.03798789148469,-33.07577316101944,20.4209131150005,19.986531098768165
-0.5562,0.833,0.1497,0.1228,0.3511,0.0974,-7.2625,1.0675,-14.0787,10.162804405285007,-33.166493800781524,20.300960472577763,19.998586113975847
-0.5596,0.8427,0.1473,0.1228,0.3511,0.0974,-7.2188,0.9713,-13.545,9.956792818864777,-33.179224247139054,20.307658464353583,20.010646437892003
-0.5527,0.8395,0.1532,0.1233,0.3536,0.0982,-6.9038,0.945,-12.915,10.273259726547863,-33.019426156939424,20.092283923543228,20.02274675407868
-0.5499,0.8414,0.1497,0.1233,0.3536,0.0982,-7.9363,0.4812,-12.0487,10.116254514048185,-32.83043984554303,20.17180846776117,20.034827251087044
-0.5406,0.8405,0.1541,0.1236,0.3525,0.0978,-8.1375,0.385,-12.0662,10.349427235018862,-32.45983460020976,20.031943687601675,20.04692190465135
-0.5387,0.8408,0.1519,0.1222,0.3503,0.0964,-8.3912,0.7962,-11.5937,10.256017264446466,-32.286805246474714,20.017830701356978,20.056090398103585
-0.5457,0.8371,0.1544,0.1222,0.3503,0.0964,-8.4525,1.2337,-11.5412,10.423323766486948,-32.57266530567138,19.952880453974483,20.068153907244827
-0.5487,0.8266,0.1563,0.1226,0.3486,0.1009,-7.875,0.9187,-11.9263,10.664258137668261,-32.970786500293215,19.953073989996884,20.08022166335285
-0.541,0.83,0.1582,0.1226,0.3486,0.1009,-7.3238,0.5862,-12.7575,10.770171738529234,-32.74616868287911,20.076137087749288,20.092311362122576
-0.5475,0.8374,0.1505,0.123,0.3498,0.0974,-7.5687,0.4375,-12.6612,10.281450153412274,-32.75629396260424,20.14479889916998,20.104331693768213
-0.5487,0.8462,0.1505,0.123,0.3498,0.0974,-7.455,0.5075,-13.265,10.116800390592047,-32.637344997222584,20.440554533071722,20.11642068471014
-0.5447,0.8492,0.1474,0.121,0.3494,0.1018,-7.5425,0.8312,-13.02,9.890267702510604,-32.42075467113797,21.375209158489135,20.125623507810523
-0.5463,0.85,0.1432,0.1191,0.3496,0.1014,-8.1462,0.6475,-13.4488,9.610717156173902,-32.390020778522846,22.38357868664286,20.138106051007487
-0.5446,0.8504,0.1465,0.1191,0.3496,0.1014,-8.1112,0.4812,-13.72,9.750443820100104,-32.32380090928328,22.934881110833597,20.149807860144552
-0.5444,0.8539,0.1414,0.1213,0.3482,0.1019,-9.275,0.3938,-13.9387,9.446129268603547,-32.2568309432082,24.331899063158524,20.16183633180985
-0.5525,0.8619,0.1415,0.1213,0.3482,0.1019,-9.8175,0.0525,-14.3238,9.337646222331289,-32.272985294794466,25.28522356005054,20.17393381668534
-0.5558,0.8725,0.1376,0.1193,0.3481,0.0982,-11.6988,-0.14,-13.3875,8.99829838027263,-32.22010157493344,25.319611245755386,20.18610951653238
-0.5598,0.8794,0.1398,0.1191,0.3474,0.1043,-12.9412,-0.0875,-12.6175,9.029870865161618,-32.1771806890503,26.915756312305177,20.195425592080255
-0.5564,0.8779,0.1399,0.1191,0.3474,0.1043,-14.28,-0.5513,-11.8475,9.052493680469132,-32.077034476587066,27.792440227906553,20.20755351355101
-0.5466,0.8674,0.1426,0.1202,0.3482,0.1066,-15.5925,-0.7,-12.46,9.316044576854914,-31.936528386846376,28.46857971631414,20.219738061245508
-0.5479,0.8699,0.1491,0.1202,0.3482,0.1066,-16.73,-0.9275,-12.9325,9.699359718081656,-31.869483522123954,27.89226310293925,20.231893588000336
-0.5486,0.8675,0.1451,0.1207,0.3466,0.1062,-18.6287,-1.1287,-15.2687,9.507287670802846,-31.899667055341833,28.284133149869866,20.24410184792603
-0.5617,0.8735,0.1364,0.1203,0.3481,0.111,-21.0525,-2.59,-13.5537,8.907262632411545,-32.18293840279411,30.66004930056459,20.256248880747293
-0.5659,0.8901,0.1391,0.1203,0.3481,0.111,-23.17,-3.2113,-13.1337,8.883187548461215,-32.153589314559795,31.5904776040673,20.2684320127862
-0.556,0.8908,0.1415,0.1204,0.3479,0.1118,-25.5587,-4.13,-12.7575,9.01991545230981,-31.821638244302164,32.515827355400965,20.280566658621023
-0.5417,0.8841,0.1511,0.1204,0.3479,0.1118,-27.5275,-4.55,-12.4512,9.672733283198836,-31.342869185302884,31.710038178688627,20.292783766394177
-0.5356,0.8727,0.1512,0.1186,0.3478,0.1082,-29.5137,-5.2325,-12.2587,9.823681826972349,-31.214624538924227,29.32042337814088,20.30501113767038
-0.5293,0.8667,0.159,0.119,0.3469,0.119,-31.2725,-4.655,-12.3725,10.37648938012925,-31.059226417910253,32.2252573429862,20.31703288497161
-0.5215,0.8633,0.1745,0.119,0.3469,0.119,-33.3725,-4.4975,-12.3375,11.39453592591865,-30.757503397559358,30.366536395242047,20.326413372848997
-0.5098,0.8567,0.1896,0.1174,0.3508,0.1227,-34.2212,-3.8675,-12.5825,12.44627513331317,-30.349671341802313,28.123131311586153,20.33862375625808
-0.5068,0.8445,0.1981,0.1174,0.3508,0.1227,-36.2863,-3.115,-12.9325,13.179972141927369,-30.31537290852365,25.445039282045972,20.35081255091936
-0.5083,0.8291,0.2125,0.1193,0.3498,0.1238,-36.6712,-2.4063,-12.8887,14.341768556275568,-30.56660347634052,21.97290547219059,20.36288561573586
-0.515,0.8196,0.2221,0.1186,0.3476,0.1262,-36.785,-1.4088,-12.8362,15.139084733880987,-31.00243554571436,19.831542605319584,20.375133160104276
-0.5298,0.8242,0.2297,0.1186,0.3476,0.1262,-36.68,-0.5688,-12.2237,15.560598519370464,-31.546544273121178,17.932738214808072,20.38799403725864
-0.5488,0.8247,0.2339,0.1176,0.3482,0.1309,-36.61,-1.4088,-11.9175,15.82655338707786,-32.34186427793259,17.29597602871317,20.39949411547361
-0.5393,0.8125,0.2432,0.1176,0.3482,0.1309,-37.5112,-2.0563,-11.7775,16.640534604421337,-32.4235127883744,15.044583056704623,20.411652119625728
-0.5291,0.8025,0.2544,0.1198,0.3512,0.1346,-37.0387,-3.0363,-11.7337,17.56255599977116,-32.218157187196525,13.154951742446753,20.423819679453104
-0.521,0.7933,0.266,0.1178,0.3506,0.1379,-35.8575,-3.0363,-11.8475,18.508530990580198,-31.98966878258309,11.442321503957459,20.43601590630625
-0.5122,0.7841,0.2841,0.1178,0.3506,0.1379,-34.475,-3.185,-12.4775,19.87432455364486,-31.690960679694776,7.039313282292867,20.448113745095636
-0.5081,0.7802,0.2893,0.1177,0.3506,0.1417,-33.6087,-3.36,-12.635,20.330331862310064,-31.5008934242085,6.582042512013801,20.457496002542516
-0.5068,0.7835,0.3013,0.1177,0.3506,0.1417,-32.1825,-3.01,-13.1162,21.011763043635117,-31.267915911224257,4.398611648677757,20.469626401410558
-0.5053,0.7803,0.3103,0.1168,0.3516,0.15,-30.975,-2.0213,-13.0725,21.663382584544937,-31.124767745361677,5.29347350604056,20.481835723077946
-0.5066,0.7745,0.3099,0.1172,0.3515,0.1463,-29.995,-1.4787,-12.2762,21.80275329236141,-31.227498177378006,3.687639053714648,20.49393887057581
-0.5145,0.7706,0.3234,0.1172,0.3515,0.1463,-28.245,-0.8312,-12.53,22.730703339386917,-31.495072454966962,0.7936924493243542,20.506180044494055
-0.5104,0.7744,0.3234,0.1194,0.3518,0.1485,-26.7313,-0.98,-11.9612,22.668622132151338,-31.357586523395653,0.844736013323186,20.51833415559329
-0.5076,0.778,0.3268,0.1194,0.3518,0.1485,-24.0275,-1.05,-11.9962,22.779791967161955,-31.117034774081233,0.5415081349659043,20.530479772758962
-0.5032,0.7748,0.332,0.1166,0.3516,0.1507,-22.5925,-0.2013,-13.2388,23.175514450652773,-30.949860760558288,0.23994549434480392,20.54270254315449
-0.4945,0.774,0.3318,0.1159,0.3533,0.1517,-21.5338,0.0088,-12.74,23.202545015270893,-30.600086767357144,0.18438133288741007,20.55484426726728
-0.4794,0.7718,0.3496,0.1159,0.3533,0.1517,-20.545,0.9625,-12.6875,24.308336318733634,-29.865912550999305,0.7346640660422223,20.564074341737843
-0.4835,0.7622,0.3472,0.1134,0.3526,0.1546,-19.3725,2.1963,-13.3175,24.480303409631166,-29.941915426244297,2.0385975338869984,20.576147760468242
-0.5052,0.7602,0.3484,0.1134,0.3526,0.1546,-17.92,3.0013,-13.2388,24.61347879561982,-30.652232403653983,3.0256427551744354,20.58833018467935
-0.5245,0.7615,0.3459,0.1159,0.3518,0.1536,-16.7475,3.5875,-13.1862,24.441146662630462,-31.519772268977462,3.0471012045615637,20.6004354556606
-0.5308,0.7706,0.3403,0.1162,0.352,0.1553,-14.8925,2.5988,-12.7837,23.87168371546984,-31.9770062595711,1.3028153812850798,20.61256939366763
-0.5234,0.7847,0.3374,0.1162,0.352,0.1553,-13.4488,1.8375,-12.6,23.316254069926373,-31.65275170644965,0.019251721580490776,20.62465803069566
-0.5011,0.7902,0.3361,0.115,0.3531,0.157,-12.8625,1.47,-12.8625,23.065515454262044,-30.754246183688537,0.8538435442070772,20.636789491305397
-0.4939,0.7853,0.3424,0.115,0.3531,0.157,-12.6262,1.6187,-13.615,23.51428418606972,-30.34273111186704,1.114307535194707,20.648920951915134
-0.4991,0.7813,0.337,0.1175,0.3525,0.1601,-12.0137,2.1613,-13.7025,23.349114573174987,-30.368626751101765,2.776743150139017,20.658188895172824
-0.51,0.7895,0.331,0.117,0.3512,0.1582,-11.9437,2.9488,-14.805,22.802691152127505,-30.407467616599607,4.818839121867103,20.670280009598144
-0.5103,0.8051,0.324,0.117,0.3512,0.1582,-11.4362,2.5288,-15.3475,22.00852960999469,-30.426415369432032,7.463216315709859,20.682415363260763
-0.4982,0.8144,0.3249,0.1147,0.3533,0.1578,-11.9437,2.8612,-16.1963,21.773605698319944,-29.93422358566014,8.88478758139731,20.69453832993694
-0.4918,0.8062,0.3267,0.1147,0.3533,0.1578,-13.615,3.7538,-16.695,22.03626186253539,-29.633292040127973,8.625078268549236,20.706611394753438
-0.4906,0.7986,0.3278,0.1164,0.3536,0.157,-14.3587,4.5588,-17.1763,22.29512066342345,-29.616766407388123,7.339352085505042,20.718803728553702
-0.4914,0.7913,0.3347,0.1157,0.3546,0.1606,-14.1138,5.9675,-16.8612,22.87779616422646,-29.719565420724827,6.243711392592591,20.730902275170887
-0.491,0.7856,0.3415,0.1157,0.3546,0.1606,-14.3062,6.825,-17.185,23.447124817005612,-29.791692592140684,4.028210595939763,20.74017234191197
-0.5061,0.7817,0.3507,0.118,0.3565,0.1598,-13.8775,7.4025,-17.1763,24.105872001360936,-30.346565117715777,0.49334192632139307,20.752248238039655
-0.5112,0.7742,0.3596,0.118,0.3565,0.1598,-13.5975,7.84,-16.5287,24.848165492818435,-30.7140654190763,2.561621407693629,20.764408365675163
-0.5192,0.7662,0.3613,0.1174,0.3554,0.1614,-13.195,8.3475,-15.7412,25.212652035791585,-31.116840033834755,3.0207207651878436,20.77648886268353
-0.523,0.7634,0.369,0.1174,0.357,0.1588,-12.4687,9.0387,-14.7875,25.74506118373972,-31.16024937706951,6.3051190818856915,20.78858847104241
-0.5251,0.7618,0.3638,0.1166,0.357,0.1588,-11.41,9.4062,-14.805,25.548540319523546,-31.227722933587906,5.688921593403865,20.800822920596584
-0.5327,0.7598,0.3708,0.1192,0.3552,0.1582,-10.1237,9.17,-13.5537,25.960727710621047,-31.75491951276573,7.1176191117591205,20.81290731065783
-0.5369,0.7669,0.3653,0.1192,0.3552,0.1582,-8.8287,8.5575,-13.4137,25.535239629075022,-32.05892012613562,5.520129228330109,20.822128891194833
-0.5409,0.7663,0.3651,0.1194,0.3563,0.1507,-7.7875,8.0237,-13.6237,25.484498933592864,-32.29111727979392,8.673666001293237,20.83418249074692
-0.5413,0.7667,0.3673,0.1194,0.3563,0.1507,-5.0487,6.9388,-14.0437,25.56731518027578,-32.36833515676883,9.444831562802706,20.846220518087478
-0.5372,0.7699,0.3644,0.1197,0.3564,0.1583,-3.8238,6.2825,-13.8337,25.42337150008017,-32.30809601588265,5.751576999693661,20.858309509029404
-0.5466,0.7789,0.3589,0.1183,0.3562,0.1554,-2.8612,5.32,-14.3937,25.178928991759186,-32.35601092392935,4.467722614607412,20.8704055782493
-0.5402,0.7859,0.3525,0.1183,0.3562,0.1554,-3.01,4.5675,-13.755,24.75675642458307,-32.2288697862844,2.6765999793920776,20.882448206470535
-0.5342,0.7862,0.3479,0.12,0.3546,0.1563,-2.52,4.2438,-13.9212,24.599978331815088,-32.064929058381125,0.8952358650728642,20.891646782604138
-0.5259,0.7819,0.354,0.12,0.3546,0.1563,-2.1875,3.2813,-13.6675,24.57451283830193,-31.776005754094452,1.7860860145932285,20.903729049181997
-0.52,0.7787,0.3507,0.1184,0.355,0.1586,-1.82,2.5638,-13.755,24.466909863538667,-31.56218952590294,1.1338157761475594,20.915797867031717
-0.5239,0.7783,0.3427,0.1176,0.3537,0.155,-2.0038,2.2662,-13.7725,24.304262674876064,-31.597472690021604,0.7414061057375401,20.927835540458375
-0.5305,0.781,0.3467,0.1176,0.3537,0.155,-1.785,1.54,-13.5275,24.178676076814845,-31.724912925817037,0.8137097951868292,20.939947535803697
-0.5479,0.8078,0.3322,0.1184,0.3518,0.1554,-1.6887,0.7788,-13.1862,23.482887504702198,-31.950671090880263,0.9882194885634474,20.95202661715647
-0.5355,0.817,0.3338,0.1184,0.3518,0.1554,-1.61,-0.1488,-12.7225,22.96631211560341,-31.483591874296476,4.007948375176419,20.961218115012105
-0.522,0.8165,0.3329,0.1172,0.3551,0.1564,-2.8263,-1.435,-12.0487,22.697482073060584,-30.860420051286273,5.700432059622523,20.973411156640168
-0.5142,0.8087,0.3326,0.1172,0.3551,0.1577,-3.5963,-1.8463,-12.1012,22.505197469997587,-30.56932591842972,6.238906477847189,20.98551218065464
-0.5042,0.8013,0.3405,0.117,0.3522,0.1577,-4.9088,-2.205,-12.9587,22.878809139443558,-30.255594356926167,4.967454057068379,20.99759798637148
-0.4934,0.7962,0.3425,0.1181,0.3522,0.1562,-4.9,-2.3363,-13.44,23.16539303921993,-29.91834140910116,3.2850492563684277,21.009774394046318
-0.4939,0.7792,0.3442,0.1181,0.3522,0.1562,-5.32,-1.4787,-13.7462,23.666507672904316,-30.009750732955954,1.1568651258522908,21.0219182416425
-0.499,0.779,0.3488,0.1176,0.349,0.1616,-5.39,-0.8575,-14.5775,24.00944424003463,-30.043179763034466,2.400730029366477,21.034005463014935
-0.4951,0.7842,0.3504,0.1176,0.349,0.1616,-4.06,-0.1925,-14.7175,24.05201491595679,-30.041895588316144,2.909355035440041,21.043222796585155
-0.4967,0.7845,0.3524,0.1162,0.3528,0.1589,-3.9725,-0.2275,-14.98,24.13812491680493,-30.03462656441525,1.3456628258705823,21.055374784201
-0.4898,0.7842,0.3547,0.1158,0.3515,0.1587,-3.8937,0.1138,-15.0237,24.260550007291208,-29.939352941583827,0.5646884591379919,21.06745846643445
-0.482,0.7789,0.3536,0.1158,0.3515,0.1587,-4.0862,0.7788,-14.7525,24.360608348908517,-29.913349035645425,0.25422631799875184,21.079550996515362
-0.4795,0.7706,0.3598,0.1155,0.3508,0.1586,-3.0363,1.855,-15.7325,24.64257136649526,-29.660349145379442,1.0716875108262682,21.09157982209456
-0.4808,0.7604,0.359,0.1155,0.3508,0.1586,-2.3712,2.3975,-15.89,24.681548167043772,-29.714441743335286,2.6771888871685183,21.10365040951377
-0.4938,0.761,0.3612,0.1166,0.3526,0.152,-0.8225,2.59,-16.4937,25.105146400534878,-30.14095587290772,6.048190312603221,21.11285217087246
-0.5062,0.7663,0.3581,0.1182,0.3531,0.1566,1.2425,3.255,-16.9662,25.05992277062284,-30.66654518527989,5.0003686592656615,21.124908247821836
-0.5125,0.7747,0.3515,0.1182,0.3531,0.1566,1.7587,3.2462,-16.8437,24.53427887785497,-30.93904577724394,2.925445209017039,21.136847179270838
-0.5155,0.7909,0.3454,0.118,0.3535,0.1567,1.995,3.0625,-16.695,23.769570701900687,-30.880025348285507,0.19600100372077284,21.14894006326565
-0.5119,0.7929,0.3403,0.118,0.3535,0.1567,1.8112,3.4913,-16.345,23.334037828463213,-30.755365433738923,1.8504189111789369,21.160950839236026
-0.5136,0.7953,0.3389,0.1183,0.3534,0.1531,2.24,3.675,-16.1788,23.126005003148773,-30.731091803223517,1.5219672198017706,21.1701111926686
-0.5078,0.7978,0.3378,0.1183,0.3534,0.1531,2.2313,3.8063,-16.9137,22.980559000202817,-30.486303586933353,1.8477315886653394,21.18215098957865
-0.5086,0.7923,0.3277,0.1172,0.3528,0.1534,2.205,3.5088,-16.8175,22.562883638744072,-30.615169385200765,3.452362423791186,21.194127081986984
-0.5181,0.7968,0.3276,0.117,0.3533,0.1552,2.24,3.745,-17.0187,22.388183936292908,-30.899272534058138,4.803496933312101,21.20616758672483
-0.5303,0.8043,0.3202,0.117,0.3533,0.1552,1.8637,4.3663,-16.6075,21.839592419487335,-31.28700461446431,6.910184467807734,21.21812704517994
-0.5412,0.8259,0.3161,0.117,0.3545,0.1539,0.91,3.3163,-15.4088,21.15611718865279,-31.361270627077275,8.670149794810854,21.22731925086337
-0.5296,0.8215,0.3173,0.117,0.3545,0.1539,-0.4288,2.2488,-14.9888,21.13176546521785,-31.28554138283477,8.898081074893295,21.239335689456126
-0.519,0.8136,0.3231,0.1189,0.3518,0.1496,-2.1788,1.7062,-14.525,21.190991317701727,-31.191893767389608,7.788429898781306,21.251463964840777
-0.5131,0.8094,0.3243,0.1189,0.3497,0.1553,-3.7625,1.4262,-15.0325,21.57252783845789,-31.013669794090916,7.979268403950362,21.26354021488236
-0.507,0.8,0.3295,0.1189,0.3497,0.1553,-3.0975,1.6275,-16.4675,21.931901994541903,-30.602710217574238,7.537995769799007,21.275623897115814
-0.5037,0.7945,0.3293,0.1196,0.3535,0.1548,-3.185,2.1263,-17.0187,22.203745250887568,-30.43055195681662,6.1920863200611285,21.284832382838573
-0.5173,0.7921,0.3331,0.1196,0.3535,0.1548,-3.9288,1.9862,-16.8787,22.577740362057508,-30.85386623327706,4.929008458867401,21.296868994523535
-0.5216,0.7946,0.3313,0.1183,0.3534,0.1553,-3.64,1.75,-17.815,22.60943163971505,-31.123969997223345,4.682822775166543,21.308937104545457
-0.5207,0.7957,0.3373,0.1183,0.3534,0.1553,-3.5088,1.4612,-17.9375,22.807598886787915,-31.08179197889945,4.307222851458602,21.321019017209416
-0.5169,0.7959,0.3426,0.1175,0.3536,0.1538,-3.7188,1.4612,-17.8587,23.089981157436867,-30.881092542096972,3.5579054808444224,21.33314446128288
-0.5173,0.7884,0.3425,0.1193,0.355,0.1547,-3.71,1.1812,-17.7887,23.318564132213815,-31.000898366311766,3.5525855581240124,21.34506357355357
-0.5214,0.7679,0.3433,0.1193,0.355,0.1547,-3.2725,1.3912,-17.9988,23.69670771181808,-31.609042789947377,2.587816387004049,21.35436124557873
-0.525,0.7769,0.3428,0.1175,0.3536,0.1545,-2.2662,1.0412,-17.8237,23.70093342792142,-31.698031371369005,2.17065422232978,21.366559595915266
-0.5246,0.7828,0.3409,0.1175,0.3536,0.1545,-2.0825,1.0412,-17.4125,23.670253522840767,-31.60271246398936,1.9340959884202937,21.3785360422375
-0.5286,0.7886,0.3401,0.1198,0.3548,0.1554,-1.6887,1.47,-16.3537,23.540138862369403,-31.60872030594571,1.779726946958718,21.390600967034334
-0.5241,0.7925,0.3351,0.1197,0.3534,0.1511,-1.2425,1.4088,-15.3037,23.22091045364938,-31.510021305021144,1.6177803564360618,21.40270836149898
-0.5187,0.7959,0.3364,0.1197,0.3534,0.1511,-1.0937,0.7875,-14.4725,23.051752247068883,-31.410449204885488,1.4311283661686527,21.41182978440273
-0.5119,0.7948,0.3276,0.1177,0.3542,0.1538,-0.9887,1.19,-13.9387,22.68158890664288,-31.134204969186417,1.4514620256960813,21.42390780401381
-0.5075,0.7951,0.3238,0.1177,0.3542,0.1538,-1.435,1.6712,-14.0525,22.438105709973406,-30.919642961727916,2.7188577577906243,21.435966004446573
-0.5122,0.796,0.3257,0.1175,0.3536,0.1531,-1.1112,2.0475,-14.5075,22.33733688806301,-30.896205860423656,3.605700063302997,21.447617557810066
-0.5184,0.7979,0.3228,0.1175,0.3536,0.1531,-1.2775,2.0738,-14.4987,22.17972938578885,-30.923841690134505,4.462447009363789,21.45984705256966
-0.5183,0.8021,0.3243,0.1208,0.3532,0.1584,-2.2662,2.31,-14.77,22.17350034004509,-30.923878680533363,6.675886399676269,21.472064160342814
-0.5157,0.8034,0.3248,0.1178,0.3519,0.1538,-2.9575,1.8987,-15.3212,22.10998007276187,-30.86006304021911,6.567300672652351,21.480670992438274
-0.5112,0.8001,0.3357,0.1178,0.3519,0.1538,-2.87,2.1963,-15.3475,22.345145982620174,-30.720759184142647,5.010748235118536,21.49287889845007
-0.5169,0.7934,0.3291,0.1171,0.3533,0.1549,-4.06,1.6887,-15.7062,22.461959409841235,-30.880137334672302,4.831398901333457,21.50557732912506
-0.5249,0.793,0.3321,0.1171,0.3533,0.1549,-3.7713,1.6275,-16.8262,22.61739364358966,-31.23748089130168,4.460275412998853,21.517638006955114
-0.5268,0.7946,0.3354,0.1198,0.3535,0.1529,-4.1737,1.4262,-16.73,22.7914240310603,-31.357227858629905,3.973853654285748,21.529685943884825
-0.5312,0.7895,0.3346,0.1184,0.3544,0.1566,-3.535,1.5225,-16.555,22.888719274388666,-31.63043803983796,3.7936226047729553,21.541711938152837
-0.532,0.7873,0.3349,0.1184,0.3544,0.1566,-3.6138,1.7762,-15.9687,22.976637822145346,-31.766376726180436,3.4832745617542784,21.550513422892422
-0.535,0.7946,0.3357,0.1184,0.3531,0.1538,-4.13,1.365,-16.1087,22.92902129949636,-31.79061747020664,3.3136256962858153,21.562655147005213
-0.528,0.7944,0.3335,0.1184,0.3531,0.1538,-4.41,0.8312,-15.785,22.823477728251348,-31.640324385109302,3.213477338997016,21.57482483031598
-0.527,0.7965,0.3362,0.1184,0.3542,0.1566,-4.0338,0.5425,-15.5487,22.862101278118,-31.51413049933303,3.412160310466853,21.587085823412536
-0.5248,0.7967,0.345,0.1184,0.3542,0.1566,-2.9313,0.7525,-15.1725,23.074719853501268,-31.398208596283737,2.8996659516628918,21.599146147328693
-0.5254,0.787,0.3413,0.1166,0.3526,0.1538,-3.5088,0.91,-14.8225,23.276978266783697,-31.407743971258324,2.3766429513215157,21.60793559899573
-0.5306,0.7833,0.3386,0.1171,0.3526,0.1539,-3.745,0.875,-14.5425,23.33633265824652,-31.471638560112858,1.9939488542250234,21.620076615280727
-0.5281,0.7879,0.3345,0.1171,0.3526,0.1539,-3.535,0.7525,-13.8512,23.15275448598234,-31.56423944323467,2.0457085360486045,21.63227815084235
-0.5266,0.792,0.3367,0.1166,0.3534,0.1543,-3.3513,0.6388,-13.6325,23.09082490652019,-31.511631324439836,2.0655982006127163,21.64439970186293
-0.5209,0.7913,0.3376,0.1166,0.3534,0.1543,-3.0975,0.6038,-13.335,23.097099573997536,-31.32826405041546,1.9893723814360005,21.65656195298183
-0.5173,0.7888,0.3358,0.1177,0.3517,0.1538,-3.15,0.2538,-13.2388,23.08008231140151,-31.19681620512872,2.0922847418506842,21.66872668149802
-0.5163,0.7868,0.3361,0.1175,0.3502,0.1541,-3.29,0.9187,-12.67,23.10528680295258,-31.137889767482942,2.165632820837837,21.67749100527827
-0.5157,0.788,0.3339,0.1175,0.3502,0.1541,-2.87,1.295,-13.3525,23.05425175827241,-31.100180210149777,2.2607087565379627,21.689657149450053
-0.5178,0.7942,0.338,0.1178,0.3498,0.156,-2.7388,1.2862,-13.0812,23.054145415248303,-31.01341521618657,2.4152480428949046,21.701856915442182
-0.5208,0.7961,0.332,0.1178,0.3498,0.156,-2.87,1.3825,-13.0725,22.9038665778234,-31.081378291595726,2.9282681848510834,21.713956169887165
-0.5226,0.7934,0.3371,0.117,0.3513,0.155,-3.2113,1.6625,-13.1512,22.958918120422595,-31.169085273289873,2.9692677385035875,21.726148857601327
-0.5197,0.7922,0.3438,0.117,0.3502,0.1582,-2.7213,1.575,-13.1162,23.10611379933124,-31.08947009717514,3.0726761035494574,21.73832774267345
-0.5214,0.7897,0.3383,0.1166,0.3502,0.1582,-3.08,1.6362,-12.9937,23.142659685002126,-31.193126954652264,3.459769372607713,21.74712391870456
-0.5181,0.7898,0.3398,0.1161,0.3506,0.1539,-3.3513,0.9625,-12.4687,23.212409572790612,-31.109841856884263,3.1311845516169003,21.7592550254004
-0.5104,0.7916,0.3403,0.1161,0.3506,0.1539,-2.555,1.5662,-12.74,23.222384148321915,-30.799005074679744,2.7504734787282716,21.771413737380314
-0.51,0.7916,0.3411,0.1157,0.3506,0.1529,-2.5113,1.7937,-12.5037,23.23755263175067,-30.67023495415027,2.09029299711596,21.78362093556431
-0.5109,0.7923,0.3384,0.1157,0.3506,0.1529,-2.2662,2.1875,-12.3812,23.233425785780078,-30.66883315357416,1.914152622913506,21.795771507524563
-0.5133,0.7935,0.3419,0.1162,0.3497,0.1521,-2.3538,2.3013,-12.7312,23.236970429836493,-30.69861230480246,1.3201369639802594,21.804249161047103
-0.5089,0.7936,0.3408,0.1166,0.3514,0.1559,-2.5288,2.2488,-12.425,23.23759731500792,-30.565838394444086,2.071273703185192,21.816383806881927
-0.5105,0.7887,0.3429,0.1166,0.3514,0.1559,-2.3888,1.9512,-12.67,23.257649217835677,-30.651116173228107,1.9141700037354914,21.828608700760842
-0.5084,0.7834,0.3417,0.1161,0.3499,0.156,-2.205,2.17,-13.0725,23.285724266449563,-30.70993836023642,1.8814501792526934,21.841489043179617
-0.5112,0.7874,0.3426,0.1161,0.3499,0.156,-1.785,1.89,-13.3962,23.363846151471193,-30.741677778880003,1.9517770817861237,21.853442131184554
-0.512,0.785,0.3442,0.1165,0.3505,0.1529,-1.6887,1.785,-13.0987,23.482934279057822,-30.809125363028485,1.0572313069216555,21.86546281674409
-0.5126,0.7885,0.3428,0.1151,0.347,0.1545,0.5425,1.295,-13.3962,23.493323326440027,-30.80564159998867,1.1523317184382915,21.874710232995675
-0.5113,0.7938,0.3418,0.1151,0.347,0.1545,-0.035,1.3212,-13.5012,23.356397504168203,-30.698214917511145,1.3569161483442689,21.88677940475929
-0.5128,0.7964,0.3359,0.1148,0.346,0.1549,-0.455,1.05,-13.5012,23.03980620117195,-30.68830654771324,1.7826936979089036,21.898838666933752
-0.5059,0.8025,0.3328,0.1148,0.346,0.1549,-0.4025,0.525,-12.8537,22.70168207515228,-30.37987126836855,3.6835550942901683,21.910810512375306
-0.501,0.8053,0.3268,0.1158,0.3457,0.1536,-0.4462,0.5513,-12.8275,22.30256418778518,-30.10746383343318,5.328724077262987,21.922901626800623
-0.4966,0.807,0.3275,0.1158,0.3457,0.1536,-0.4375,0.5513,-13.6937,22.16314217437042,-29.898791136624244,6.3996762496396915,21.934896476645573
-0.4939,0.8032,0.3246,0.1166,0.3446,0.1563,-0.8925,0.49,-13.755,22.070708334544314,-29.79639949514327,8.042025306296951,21.944347039474845
-0.5003,0.8035,0.3298,0.1144,0.3462,0.1552,-1.61,0.8487,-13.93,22.171272089243427,-29.860118996559624,7.945713922593151,21.956404532079816
-0.4987,0.7984,0.3337,0.1144,0.3462,0.1552,-1.785,1.435,-14.2012,22.34640893263666,-29.891880227807196,7.579478226845406,21.968344525270513
-0.5065,0.8006,0.3375,0.1146,0.3443,0.1535,-1.8025,0.9887,-14.105,22.51766838246785,-30.02228985179015,7.135332899010525,21.98041829791481
-0.5051,0.7973,0.3344,0.1146,0.3443,0.1535,-1.9425,1.0237,-14.3062,22.58056504878262,-30.099279422984484,6.877485315104445,21.992441106957735
-0.5065,0.7957,0.337,0.1153,0.3436,0.1582,-1.995,1.365,-14.1138,22.668985151824728,-30.20190709369828,6.935299223548438,22.001821240921224
-0.5026,0.7985,0.3346,0.1125,0.3445,0.1553,-1.7237,1.6625,-14.3675,22.693416269206537,-30.185431687512082,6.708576612032192,22.013490843893532
-0.5073,0.8025,0.3314,0.1125,0.3445,0.1553,-1.3037,1.2163,-14.1138,22.565928298640294,-30.226841385741245,6.729357682596257,22.025589744424614
-0.5025,0.8031,0.329,0.1137,0.345,0.1538,-1.1112,1.2687,-14.6475,22.408725774101697,-30.21880124923681,6.769887893624116,22.037687937127902
-0.5076,0.8015,0.3254,0.1137,0.345,0.1538,-1.1375,1.6887,-14.63,22.240583333025004,-30.231228827322752,7.113153870588997,22.04984381779663
-0.5101,0.8039,0.3286,0.1155,0.3443,0.1538,-1.8025,1.8463,-14.0087,22.237928407658902,-30.311849874734705,7.285889214809632,22.061974216664673
-0.5117,0.8025,0.3295,0.1155,0.3443,0.1538,-1.3212,1.6887,-11.6988,22.279952578920316,-30.478611755117473,7.231916784505799,22.070918682619215
-0.5148,0.8047,0.3265,0.1134,0.345,0.1507,-1.925,1.33,-13.1687,22.226081659560776,-30.588176761604352,7.074987249347391,22.083097921605237
-0.5139,0.8051,0.3237,0.1114,0.3432,0.1523,-2.5463,1.0237,-12.6525,22.1633726798769,-30.619841137276104,7.192037939192295,22.09517487947462
-0.5064,0.8181,0.3248,0.1114,0.3432,0.1523,-2.24,1.1987,-12.8537,22.132149599763036,-30.16075776248867,7.225830307906659,22.107300323548085
-0.5027,0.8144,0.3255,0.1106,0.343,0.1534,-2.4325,1.0237,-13.4312,22.09304507427947,-29.9703012903022,7.534609999647683,22.11938259012594
-0.5009,0.8059,0.3284,0.1106,0.343,0.1534,-3.0013,0.9013,-12.6612,22.1248870574475,-29.939340531964607,7.605157492542432,22.131445745353286
-0.4999,0.796,0.3295,0.1132,0.3432,0.1527,-2.8263,1.0675,-13.0375,22.24887470800786,-30.0553858044773,7.459120175675436,22.140504879410916
-0.506,0.7963,0.3211,0.113,0.3411,0.1564,-3.1588,0.7613,-12.8013,22.116434444426766,-30.35464037693363,8.406255141540477,22.152635986106755
-0.5112,0.8037,0.3239,0.113,0.3411,0.1564,-2.7388,0.6125,-12.3375,22.066097038524877,-30.48385716896259,9.231206637785922,22.164757537127336
-0.5129,0.8179,0.3159,0.1124,0.3403,0.1527,-2.8263,-0.2187,-12.6787,21.741405907452414,-30.378669794665598,11.016918285318699,22.17690350820691
-0.5073,0.8146,0.3184,0.1124,0.3403,0.1527,-3.6138,-0.5338,-12.9762,21.518910209807284,-30.211655105550367,11.357046026960496,22.189088409815305
-0.498,0.809,0.3243,0.1112,0.3421,0.1575,-3.8063,-0.875,-13.02,21.714097351399907,-29.917513482093604,11.691473288082898,22.20120500604131
-0.4914,0.8081,0.3243,0.1083,0.3395,0.1547,-4.1213,-1.2862,-13.265,21.812166941565874,-29.634763612893806,11.135437406646064,22.210279004482672
-0.4906,0.8067,0.3246,0.1083,0.3395,0.1547,-4.8125,-0.9187,-14.1312,21.888447039561434,-29.56090755378019,10.841127066986827,22.22238569111952
-0.4949,0.8108,0.3204,0.1116,0.3397,0.1547,-5.2588,-0.84,-14.4112,21.644728847387025,-29.565714934149035,11.845077358669434,22.234557497913677
