AcclX,AcclY,AcclZ,MagX,MagY,MagZ,GyroX,GyroY,GyroZ,Roll,Pitch,Yaw
-0.2377,-0.1695,0.9267,-0.2744,0.7022,0.3595,-3.1588,1.1987,-9.8087,0,0,0
-0.239,-0.1635,0.8881,-0.2754,0.7039,0.364,-3.5,1.0062,-9.8087,0,0,0
-0.2425,-0.1681,0.9244,-0.2754,0.7039,0.364,-3.7538,1.4875,-9.7912,0,0,0
-0.2407,-0.1682,0.9248,-0.273,0.7041,0.3689,-3.3513,1.19,-10.4038,0,0,0
-0.2416,-0.1693,0.9219,-0.273,0.7038,0.3652,-3.0538,1.015,-9.9837,0,0,0
-0.2417,-0.1703,0.9243,-0.2762,0.7038,0.3652,-3.7188,1.2512,-9.835,0,0,0
-0.2397,-0.169,0.928,-0.2767,0.703,0.3639,-3.185,1.4875,-10.0012,0,0,0
-0.2414,-0.1707,0.9202,-0.2767,0.703,0.3639,-3.1238,1.3212,-10.22,0,0,0
-0.2392,-0.1692,0.9223,-0.2763,0.7054,0.3673,-3.64,1.19,-9.8787,0,0,0
-0.2364,-0.1703,0.9285,-0.2763,0.7054,0.3673,-3.8063,1.435,-9.975,0,0,0
-0.2409,-0.1693,0.9229,-0.2755,0.704,0.371,-3.6925,1.1112,-9.5288,0,0,0
-0.2402,-0.1698,0.921,-0.2754,0.7042,0.3637,-3.3338,1.0937,-9.3275,0,0,0
-0.241,-0.171,0.9238,-0.2754,0.7042,0.3637,-2.8263,0.735,-9.3625,0,0,0
-0.2434,-0.1703,0.9229,-0.2737,0.7064,0.3652,-3.2462,0.9538,-9.3275,0,0,0
-0.2405,-0.1684,0.9249,-0.2737,0.7064,0.3652,-3.8588,1.435,-9.24,0,0,0
-0.2395,-0.1688,0.924,-0.2753,0.7055,0.3603,-3.9025,1.4525,-9.3362,0,0,0
-0.243,-0.169,0.922,-0.2774,0.7021,0.3657,-3.6312,1.5837,-9.8,0,0,0
-0.2431,-0.1696,0.9259,-0.2774,0.7021,0.3657,-3.8763,1.4787,-9.555,0,0,0
-0.2394,-0.1696,0.9246,-0.2737,0.701,0.3653,-3.8588,1.19,-9.3013,0,0,0
-0.2416,-0.169,0.9189,-0.2737,0.701,0.3653,-3.57,0.9538,-9.555,0,0,0
-0.2391,-0.1688,0.927,-0.2744,0.7034,0.3667,-3.3775,1.4875,-10.0012,0,0,0
-0.241,-0.1692,0.9256,-0.276,0.7034,0.3639,-3.2288,1.2512,-9.8875,0,0,0
-0.2418,-0.1693,0.9231,-0.276,0.7034,0.3639,-3.9463,1.3562,-9.6775,0,0,0
-0.2384,-0.1687,0.93,-0.2743,0.7037,0.3654,-4.1912,1.4787,-9.6162,0,0,0
-0.2395,-0.1697,0.9258,-0.2743,0.7037,0.3654,-4.48,1.3912,-9.2312,0,0,0
-0.2422,-0.1681,0.9221,-0.2754,0.7031,0.3678,-3.4125,1.05,-9.5375,0,0,0
-0.2399,-0.169,0.9299,-0.2751,0.7046,0.363,-3.0188,1.085,-9.695,0,0,0
-0.2409,-0.1695,0.9221,-0.2751,0.7046,0.363,-3.7362,1.2163,-9.4937,0,0,0
-0.2363,-0.169,0.926,-0.2741,0.7039,0.3629,-3.8937,1.2862,-9.4675,0,0,0
-0.2414,-0.1707,0.9237,-0.2741,0.7039,0.3629,-3.5263,1.26,-9.7212,0,0,0
-0.2414,-0.1698,0.9199,-0.2746,0.7035,0.3638,-3.43,1.295,-9.8437,0,0,0
-0.2392,-0.1699,0.9263,-0.2737,0.7034,0.363,-3.3863,1.2862,-9.7125,0,0,0
-0.2391,-0.1696,0.9243,-0.2737,0.7034,0.363,-3.0625,1.5662,-9.5288,0,0,0
-0.2428,-0.1696,0.9254,-0.2733,0.7038,0.3645,-3.6663,1.3387,-9.6687,0,0,0
-0.2372,-0.1715,0.9253,-0.2733,0.7038,0.3645,-3.36,1.1725,-10.1325,0,0,0
-0.2409,-0.1705,0.9277,-0.2742,0.7037,0.3618,-3.255,1.2075,-10.1587,0,0,0
-0.2408,-0.1722,0.9273,-0.2742,0.7046,0.3654,-3.4563,1.2687,-9.2837,0,0,0
-0.2367,-0.1704,0.9274,-0.2736,0.7046,0.3654,-3.3163,1.0587,-9.1525,0,0,0
-0.2406,-0.1714,0.9259,-0.2754,0.7042,0.3628,-3.1675,1.1987,-9.5375,0,0,0
-0.2399,-0.1702,0.923,-0.2754,0.7042,0.3628,-3.6312,1.12,-9.6687,0,0,0
-0.2422,-0.1706,0.9229,-0.2743,0.7051,0.3674,-2.9838,0.91,-9.7562,0,0,0
-0.2437,-0.1692,0.9237,-0.2743,0.7051,0.3674,-3.115,1.2512,-9.7212,0,0,0
-0.2402,-0.169,0.9267,-0.2763,0.7033,0.3574,-3.6575,1.6712,-9.9663,0,0,0
-0.2412,-0.1697,0.9241,-0.2762,0.7034,0.3645,-3.57,1.3825,-9.6425,0,0,0
-0.2414,-0.169,0.9248,-0.2762,0.7034,0.3645,-3.6663,0.8663,-9.2312,0,0,0
-0.24,-0.1688,0.9258,-0.275,0.7042,0.3646,-3.7188,1.3387,-9.4937,0,0,0
-0.24,-0.1706,0.921,-0.275,0.7042,0.3646,-3.5438,1.54,-9.415,0,0,0
-0.2419,-0.169,0.9226,-0.2785,0.7046,0.365,-3.8238,1.4525,-9.17,0,0,0
-0.2411,-0.1706,0.9275,-0.2726,0.7027,0.3641,-3.4738,1.3737,-9.1875,0,0,0
-0.2409,-0.1701,0.9267,-0.2726,0.7027,0.3641,-3.8063,0.9013,-9.8087,0,0,0
-0.2391,-0.1706,0.9232,-0.2754,0.7034,0.3641,-3.7362,1.1112,-9.1525,0,0,0
-0.2402,-0.1708,0.9249,-0.2754,0.7034,0.3641,-3.9288,1.3825,-9.0913,0,0,0
-0.2403,-0.169,0.9261,-0.2785,0.7068,0.3638,-4.1125,1.3562,-9.1087,0,0,0
-0.2426,-0.1706,0.9268,-0.2736,0.7034,0.3638,-3.3338,0.9363,-9.3975,0,0,0
-0.245,-0.1705,0.9245,-0.2736,0.7034,0.3638,-3.5088,1.8463,-10.1763,0,0,0
-0.2403,-0.1717,0.9225,-0.275,0.7036,0.3632,-3.4038,1.7062,-10.0625,0,0,0
-0.238,-0.171,0.9252,-0.275,0.7036,0.3632,-3.5525,1.0587,-9.6687,0,0,0
-0.2383,-0.1707,0.9237,-0.2754,0.704,0.3605,-3.5088,1.2163,-9.8,0,0,0
-0.2387,-0.1697,0.9322,-0.2756,0.7056,0.3674,-2.4675,1.26,-10.3775,0,0,0
-0.2399,-0.1696,0.9249,-0.2756,0.7056,0.3674,-2.485,1.4262,-9.8612,0,0,0
-0.2425,-0.1682,0.9267,-0.275,0.7026,0.3642,-2.6425,0.805,-9.7037,0,0,0
-0.2442,-0.1699,0.9244,-0.275,0.7026,0.3642,-3.9025,1.4962,-9.6862,0,0,0
-0.2424,-0.1684,0.9207,-0.2763,0.7033,0.3629,-4.0338,1.5837,-9.7912,0,0,0
-0.2404,-0.1687,0.9212,-0.2752,0.7035,0.3685,-3.1325,1.6625,-10.0712,0,0,0
-0.2378,-0.1678,0.9262,-0.2752,0.7035,0.3685,-2.8087,1.12,-9.8525,0,0,0
-0.2393,-0.1694,0.9216,-0.2733,0.7038,0.3636,-4.2875,1.295,-9.6775,0,0,0
-0.2419,-0.1687,0.9287,-0.2733,0.7038,0.3636,-3.8937,1.2075,-9.2925,0,0,0
-0.2413,-0.1712,0.9222,-0.2754,0.7037,0.3664,-3.3425,1.5575,-9.6425,0,0,0
-0.2429,-0.1682,0.9235,-0.2769,0.7038,0.3625,-3.1588,1.5837,-9.7212,0,0,0
-0.2418,-0.169,0.9259,-0.2769,0.7038,0.3625,-3.85,1.1462,-9.5987,0,0,0
-0.2438,-0.1695,0.9248,-0.2755,0.704,0.3642,-3.3338,1.3562,-9.4937,0,0,0
-0.2422,-0.1715,0.9211,-0.2755,0.704,0.3642,-3.6138,1.26,-10.0187,0,0,0
-0.2394,-0.1697,0.9279,-0.274,0.7046,0.3645,-3.4475,1.6187,-9.6512,0,0,0
-0.2374,-0.1698,0.9235,-0.274,0.7044,0.3602,-2.8175,1.3562,-10.045,0,0,0
-0.2367,-0.1709,0.9234,-0.275,0.7044,0.3602,-3.0363,1.5225,-9.03,0,0,0
-0.2367,-0.1687,0.9248,-0.2746,0.703,0.3644,-3.22,1.6362,-9.2662,0,0,0
-0.2427,-0.1694,0.9271,-0.2746,0.703,0.3644,-2.8263,1.0762,-9.9663,0,0,0
-0.2402,-0.1688,0.9265,-0.2751,0.7042,0.3598,-3.5,1.0237,-9.94,0,0,0
-0.2481,-0.172,0.9274,-0.2751,0.7042,0.3598,-3.36,1.0237,-9.7037,0,0,0
-0.2616,-0.1595,0.9321,-0.2746,0.7042,0.3627,-3.01,0.7,-9.5375,0,0,0
-0.2583,-0.1511,0.8672,-0.277,0.7042,0.3644,-3.7275,0.175,-9.9488,0,0,0
-0.1686,-0.1967,0.9488,-0.277,0.7042,0.3644,-3.325,0.7437,-10.08,0,0,0
-0.2377,-0.1785,0.8942,-0.2738,0.7028,0.3686,-3.29,1.89,-9.31,0,0,0
-0.2813,-0.1464,0.8939,-0.2738,0.7028,0.3686,-3.815,1.995,-9.9312,0,0,0
-0.2036,-0.1777,0.9394,-0.2736,0.7049,0.3684,-4.0775,0.875,-9.6687,0,0,0
-0.19,-0.1848,0.9695,-0.2754,0.703,0.3634,-3.5438,1.75,-10.1412,0,0,0
-0.3151,-0.1258,0.8818,-0.2754,0.703,0.3634,-2.6163,2.0913,-10.2637,0,0,0
-0.2662,-0.1601,0.9506,-0.2739,0.7036,0.3654,-2.8087,1.3125,-9.7388,0,0,0
-0.1887,-0.1789,0.9373,-0.2739,0.7036,0.3654,-4.2875,0.6737,-9.6862,0,0,0
-0.2468,-0.1885,0.9224,-0.2758,0.7043,0.3664,-3.01,1.715,-9.4675,0,0,0
-0.2686,-0.1583,0.9057,-0.2754,0.7051,0.3637,-2.9575,0.4288,-9.0125,0,0,0
-0.197,-0.1889,0.941,-0.2754,0.7051,0.3637,-3.1412,0.8838,-9.1525,0,0,0
-0.2378,-0.1764,0.9095,-0.2753,0.7044,0.3634,-3.5,1.3475,-9.345,0,0,0
-0.2711,-0.162,0.9331,-0.2753,0.7044,0.3634,-3.955,1.61,-9.4675,0,0,0
-0.2302,-0.1648,0.9315,-0.2746,0.7052,0.3668,-3.955,1.3125,-9.7825,0,0,0
-0.2356,-0.1612,0.9187,-0.2782,0.7042,0.365,-3.4213,1.1812,-9.695,0,0,0
-0.2766,-0.1622,0.9231,-0.2782,0.7042,0.365,-4.1388,1.5312,-9.065,0,0,0
-0.2219,-0.1688,0.9356,-0.275,0.7021,0.3654,-3.6663,0.7875,-9.4237,0,0,0
-0.2304,-0.1674,0.9232,-0.275,0.7021,0.3654,-3.3075,1.2163,-10.2112,0,0,0
-0.2564,-0.1693,0.9116,-0.2762,0.7044,0.3651,-3.3688,1.7937,-9.9312,0,0,0
-0.2272,-0.1825,0.9307,-0.2738,0.7038,0.366,-3.9375,1.3037,-9.8787,0,0,0
-0.2116,-0.1789,0.932,-0.2738,0.7038,0.366,-3.9638,1.1462,-9.065,-10.84049183701391,-11.977523392034149,-105.8887015153762
-0.2566,-0.1665,0.9139,-0.2754,0.7043,0.3632,-3.43,1.5837,-9.905,-10.326462286426372,-15.275050634302568,-105.05918581187646
-0.2359,-0.1764,0.9315,-0.2754,0.7043,0.3632,-4.095,1.5925,-9.5288,-10.72230528325434,-14.03551592994088,-105.6447059379333
-0.2389,-0.1692,0.9306,-0.2755,0.704,0.3658,-4.0775,1.89,-9.415,-10.305823522963573,-14.16822083738314,-105.47089710383831
-0.2586,-0.1579,0.9145,-0.2748,0.7028,0.3622,-3.5,0.875,-9.5375,-9.797444714836175,-15.505502041067222,-104.92426787863437
-0.2474,-0.1643,0.9221,-0.2748,0.7028,0.3622,-4.1038,0.8312,-9.695,-10.102234330302549,-14.829115496411493,-105.26031669179783
-0.233,-0.1694,0.9267,-0.2773,0.7024,0.3643,-3.6575,1.5575,-8.96,-10.358644544669097,-13.9372444482834,-105.75857063186331
-0.2446,-0.1653,0.9173,-0.2773,0.7024,0.3643,-3.7275,1.6712,-9.1,-10.215561919969565,-14.667256903982363,-105.44471785338531
-0.2297,-0.1723,0.9262,-0.2767,0.704,0.3619,-3.43,1.1987,-9.7125,-10.537456365040756,-13.748031259386622,-105.83194078560736
-0.2355,-0.1783,0.9304,-0.2767,0.7052,0.3622,-3.5875,1.4437,-9.6425,-10.847793421908817,-13.950218390620648,-105.7619145753232
-0.2537,-0.1711,0.9191,-0.275,0.7052,0.3622,-3.6837,1.3475,-9.9925,-10.546196077105847,-15.124042600215285,-105.17059123625916
-0.2494,-0.1669,0.9252,-0.2756,0.7041,0.3651,-3.045,1.435,-9.8087,-10.226554637156081,-14.870034213229985,-105.23068464800753
-0.2467,-0.1694,0.9276,-0.2756,0.7041,0.3651,-3.5,1.68,-9.4325,-10.349124619611606,-14.671634662847826,-105.32140980450316
-0.2474,-0.1663,0.9201,-0.2722,0.7025,0.3624,-3.3863,1.54,-9.7037,-10.245347644823376,-14.813483871259919,-105.09771824257562
-0.2333,-0.1645,0.9269,-0.2722,0.7025,0.3624,-3.9725,0.9887,-9.5462,-10.064111239251542,-13.960801236387711,-105.39518064693351
-0.2281,-0.1682,0.9288,-0.2738,0.7039,0.3614,-3.3425,0.9538,-9.1787,-10.264201554570962,-13.602890042489971,-105.64908394991778
-0.2438,-0.1677,0.9235,-0.2774,0.7042,0.3638,-3.2813,1.225,-9.9488,-10.292223054329408,-14.5153991233928,-105.49712727300458
-0.2359,-0.1679,0.924,-0.2774,0.7042,0.3638,-3.6312,1.3387,-9.5725,-10.29882845957484,-14.120108689271202,-105.66320547048643
-0.2418,-0.1688,0.9234,-0.2762,0.7045,0.3626,-3.5613,1.68,-9.4587,-10.359298169552396,-14.429104031802366,-105.48769243230045
-0.2479,-0.1728,0.9234,-0.2762,0.7045,0.3626,-4.0687,1.4875,-9.4762,-10.598861718858426,-14.765530152229513,-105.40510386493443
-0.2403,-0.1723,0.9294,-0.2753,0.7059,0.3614,-3.8763,1.0587,-9.9225,-10.502960031500967,-14.287235788206196,-105.51470352814337
-0.2391,-0.1704,0.9237,-0.2755,0.7042,0.3649,-3.255,1.3037,-10.0712,-10.452275779018224,-14.281881707633284,-105.46974490714277
-0.2401,-0.1717,0.9251,-0.2755,0.7042,0.3649,-3.2113,1.505,-9.45,-10.514395188841672,-14.313713161460864,-105.46711161523528
-0.2331,-0.1703,0.9282,-0.2746,0.704,0.3645,-3.3775,1.435,-9.905,-10.396896492486082,-13.89575217930497,-105.55657633111068
-0.2395,-0.1664,0.9297,-0.2746,0.704,0.3645,-4.3575,1.6275,-10.2025,-10.148077156383989,-14.213083532521518,-105.3931640743016
-0.2411,-0.1665,0.9223,-0.2752,0.7056,0.3654,-4.0775,1.5662,-9.975,-10.233015898267833,-14.416446921047047,-105.33138461877026
-0.2384,-0.1702,0.9232,-0.2739,0.705,0.3642,-3.605,1.3387,-9.555,-10.445191912682436,-14.257140006706113,-105.37310987416384
-0.2406,-0.1673,0.9235,-0.2739,0.705,0.3642,-3.9288,1.5575,-10.0275,-10.268676224923988,-14.372747971703303,-105.29992651098571
-0.2414,-0.1684,0.9246,-0.2759,0.705,0.3635,-3.4913,1.2512,-9.7737,-10.322170418054379,-14.404032549429003,-105.44872266767466
-0.2392,-0.1723,0.9216,-0.2759,0.705,0.3635,-3.22,1.015,-10.0625,-10.5889983791015,-14.31673273657717,-105.5227010628473
-0.2423,-0.1702,0.9238,-0.276,0.705,0.3718,-3.8238,1.4088,-9.8525,-10.439404663687656,-14.456851731524228,-105.28111161305557
-0.2394,-0.1698,0.9234,-0.2766,0.7065,0.3653,-3.7013,1.3037,-9.4325,-10.41951723886081,-14.31191582046325,-105.48609811002162
-0.2366,-0.171,0.9234,-0.2766,0.7065,0.3653,-3.5175,1.3912,-10.1325,-10.491308812342515,-14.149137470907752,-105.55531374000456
-0.2419,-0.171,0.917,-0.2752,0.7069,0.364,-3.3075,1.4175,-10.255,-10.562889929413467,-14.519415491755922,-105.35134317320514
-0.2367,-0.1683,0.9256,-0.2752,0.7069,0.364,-3.7538,1.1987,-9.8437,-10.305993413159712,-14.141268100890219,-105.45927606967976
-0.2408,-0.1689,0.9216,-0.2771,0.7042,0.3632,-3.9375,0.91,-10.0625,-10.385063443684546,-14.400655776708923,-105.55614906601372
-0.2456,-0.1674,0.9236,-0.2765,0.7066,0.3643,-3.4738,0.9975,-9.625,-10.273441976612823,-14.650627469250528,-105.34769699483526
-0.2444,-0.1687,0.9266,-0.2765,0.7066,0.3643,-3.9288,1.2775,-9.4675,-10.318344152623975,-14.551980654836074,-105.39621013892598
-0.2416,-0.1681,0.923,-0.2742,0.7042,0.3647,-3.675,1.4875,-9.5812,-10.32177174874851,-14.446307388681245,-105.30841416862837
-0.2443,-0.1688,0.9217,-0.2742,0.7042,0.3647,-3.0363,1.3912,-10.1412,-10.378000583535155,-14.604787382547473,-105.25527220246977
-0.2364,-0.1706,0.9267,-0.2776,0.7035,0.3693,-3.4738,1.2862,-10.1763,-10.430899342042146,-14.10854102270834,-105.60148704238786
-0.2365,-0.1712,0.9221,-0.2754,0.7036,0.3651,-2.94,0.8138,-9.6862,-10.517749466644666,-14.151148214992888,-105.52412635048384
-0.2413,-0.171,0.923,-0.2754,0.7036,0.3651,-3.745,1.8025,-9.1525,-10.495973726565051,-14.403219828487217,-105.42697411571237
-0.2409,-0.1706,0.9248,-0.2758,0.7043,0.3652,-3.5,1.5225,-10.0887,-10.452084791566824,-14.369966068565772,-105.4512585983767
-0.2436,-0.1675,0.9295,-0.2758,0.7043,0.3652,-3.605,1.4262,-9.3712,-10.215871183816256,-14.458215658563569,-105.38120472532748
-0.2399,-0.1662,0.9282,-0.2757,0.7054,0.3568,-2.8525,1.54,-10.0975,-10.151738553723085,-14.282710048843661,-105.5873144008524
-0.2391,-0.1699,0.9235,-0.2762,0.7048,0.3632,-2.4763,1.0675,-10.3863,-10.423732570228239,-14.285660257010404,-105.53694136432074
-0.2377,-0.1666,0.9243,-0.2762,0.7048,0.3632,-3.255,1.3037,-9.8962,-10.218024494982316,-14.206647276687669,-105.53559765419271
-0.2382,-0.1679,0.9226,-0.277,0.7036,0.3651,-3.7888,0.8663,-9.5637,-10.313911933984665,-14.250229278629218,-105.56700957956076
-0.2391,-0.1727,0.9218,-0.277,0.7036,0.3651,-3.6925,1.2775,-9.1087,-10.61070316997264,-14.300266266893402,-105.59354215748466
-0.2434,-0.1701,0.924,-0.2746,0.7043,0.3608,-3.5963,1.5225,-9.5113,-10.43126705772662,-14.51338212294528,-105.40235302526757
-0.2412,-0.1701,0.9213,-0.2753,0.7055,0.3671,-3.0975,1.225,-9.6512,-10.460672976567224,-14.441012849928729,-105.33569755474383
-0.2425,-0.1705,0.9251,-0.2753,0.7055,0.3671,-2.9838,1.4525,-9.7825,-10.442719291098134,-14.45495599865275,-105.32629590630263
-0.2418,-0.1689,0.9268,-0.2762,0.704,0.3642,-3.1763,0.9625,-9.7388,-10.32850520641642,-14.398157835100639,-105.4752040094155
-0.2416,-0.1684,0.9212,-0.2762,0.704,0.3642,-2.765,1.085,-9.415,-10.35949773041175,-14.463157853830728,-105.45463884155158
-0.2406,-0.1684,0.9221,-0.2755,0.7038,0.359,-4.1213,1.6187,-8.715,-10.349700540857018,-14.399175558101753,-105.54144954800738
-0.2416,-0.1685,0.9231,-0.2755,0.704,0.3643,-3.465,1.7237,-9.205,-10.344726116933579,-14.43658279996771,-105.41280768900961
-0.2382,-0.1697,0.9247,-0.2753,0.704,0.3643,-3.7625,1.0675,-9.485,-10.39902103043599,-14.227877443136013,-105.48643732598808
-0.2423,-0.1684,0.9251,-0.2742,0.7036,0.3655,-3.955,0.9013,-9.3712,-10.317028863886415,-14.439468317127364,-105.29748234143453
-0.2392,-0.1697,0.9248,-0.2742,0.7036,0.3655,-3.57,1.155,-9.9575,-10.397858964640562,-14.281246324674392,-105.37317488971291
-0.2392,-0.1712,0.9244,-0.275,0.7025,0.3623,-3.8413,1.645,-9.3625,-10.49214374283844,-14.275482966427033,-105.52455600536642
-0.2432,-0.1692,0.9203,-0.275,0.7025,0.3623,-4.1563,1.6625,-9.59,-10.417841055605972,-14.554968979514216,-105.40865363802499
-0.2409,-0.171,0.9245,-0.2764,0.7053,0.3574,-3.5088,1.5575,-9.3975,-10.479127018838872,-14.380358053333522,-105.63986202646778
-0.2392,-0.1688,0.9284,-0.2766,0.7041,0.3633,-3.3513,1.4175,-9.7388,-10.305253676873702,-14.231820390679166,-105.57735081199553
-0.2403,-0.1704,0.9233,-0.2766,0.7041,0.3633,-3.675,1.3037,-10.255,-10.456231564510857,-14.350205214502656,-105.55311757953827
-0.2393,-0.1697,0.9242,-0.275,0.7044,0.3645,-3.3688,1.4962,-10.2987,-10.404772019227268,-14.29073763851026,-105.43148750046464
-0.2368,-0.1708,0.9255,-0.275,0.7044,0.3645,-3.045,1.2425,-10.2987,-10.456104763285296,-14.131109875017952,-105.49772538509302
-0.2414,-0.1674,0.9206,-0.2754,0.7038,0.3674,-3.605,1.8112,-9.415,-10.306292908898081,-14.449981946782648,-105.32899503935873
-0.2416,-0.1688,0.9244,-0.2753,0.7043,0.365,-4.0862,1.1375,-9.6775,-10.348376727287233,-14.420327465666988,-105.387403738921
-0.2414,-0.1702,0.9213,-0.2753,0.7043,0.365,-3.4038,1.0675,-9.2487,-10.46647906630573,-14.447296187380987,-105.3949266277564
-0.241,-0.169,0.9237,-0.2755,0.7044,0.3625,-3.6138,1.5925,-10.0625,-10.368382357382174,-14.396681674756138,-105.46295126514855
-0.2402,-0.1698,0.9224,-0.2755,0.7044,0.3625,-4.06,1.0675,-10.0275,-10.430373448199123,-14.366441314023993,-105.48291881966094
-0.2379,-0.1684,0.9281,-0.274,0.7058,0.3658,-4.025,1.0412,-9.3362,-10.284543175441371,-14.165352783696802,-105.34406958762106
-0.2416,-0.1706,0.9221,-0.2754,0.7039,0.3638,-3.1325,1.05,-9.73,-10.481448150462569,-14.434172312013663,-105.43563989396685
-0.2374,-0.1704,0.9272,-0.2754,0.7039,0.3638,-3.0275,1.3037,-10.01,-10.413725467585287,-14.148694718955024,-105.53683250226315
-0.2408,-0.1692,0.924,-0.2755,0.7051,0.3642,-3.0713,1.2775,-10.535,-10.376945033439982,-14.366956312327225,-105.42405266182547
-0.2389,-0.1702,0.9232,-0.2755,0.7051,0.3642,-3.7538,1.0762,-10.0975,-10.445528347963519,-14.282037507665066,-105.47003617903356
-0.2387,-0.1693,0.9237,-0.2763,0.7034,0.3594,-3.71,1.3125,-9.7212,-10.386296111823613,-14.262565491428404,-105.64698346243559
-0.2388,-0.1686,0.9284,-0.2766,0.7048,0.3653,-4.025,1.4262,-9.3625,-10.293116650265022,-14.204959097663709,-105.5314815337708
-0.2409,-0.1696,0.922,-0.2766,0.7048,0.3653,-3.5875,1.3212,-10.1325,-10.42261985731478,-14.401598108586212,-105.47576169854216
-0.2392,-0.17,0.9219,-0.2746,0.7055,0.3639,-3.7713,1.3125,-9.9837,-10.448013788502694,-14.318419853101183,-105.39624121999366
-0.2391,-0.1693,0.922,-0.2746,0.7055,0.3639,-3.5788,1.3212,-9.52,-10.404990381125074,-14.309400546397855,-105.39148857981394
-0.2412,-0.1704,0.9224,-0.2765,0.7043,0.3686,-3.4388,1.1287,-9.7825,-10.466418816741475,-14.415427842697678,-105.41193154247708
-0.2404,-0.1713,0.9274,-0.2769,0.7033,0.3646,-2.9575,1.0937,-9.8525,-10.465151131196453,-14.305964193072432,-105.58046980919256
-0.2378,-0.1697,0.9233,-0.2769,0.7033,0.3646,-3.3163,1.0587,-9.975,-10.414689931510535,-14.218952080212642,-105.60378351154789
-0.2416,-0.1696,0.9209,-0.275,0.7034,0.3656,-3.5788,1.0587,-9.73,-10.435052282456956,-14.455863651255374,-105.36489409151146
-0.238,-0.1687,0.9289,-0.275,0.7034,0.3656,-2.8963,0.8138,-10.0625,-10.293777858243523,-14.163298636767076,-105.45796128301366
-0.2422,-0.1703,0.9187,-0.2742,0.7034,0.3701,-2.905,1.12,-10.1937,-10.501264293586736,-14.51485232880294,-105.20376888396092
-0.2402,-0.1692,0.9257,-0.2729,0.7036,0.3638,-3.0538,0.9013,-9.2575,-10.35854927149929,-14.32814729000967,-105.29711284141138
-0.2401,-0.17,0.9249,-0.2729,0.7036,0.3638,-2.7125,1.2862,-9.52,-10.414795243850394,-14.322951230223255,-105.30453788519021
-0.2414,-0.1698,0.9208,-0.277,0.7048,0.365,-2.59,1.365,-9.695,-10.448166325957388,-14.450589348988352,-105.49641046859138
-0.2408,-0.1704,0.9259,-0.277,0.7048,0.365,-3.2025,1.0412,-9.1787,-10.427914926949152,-14.352123438927615,-105.53274449682678
-0.2381,-0.1703,0.9264,-0.2747,0.7034,0.3658,-3.3425,0.9625,-8.9687,-10.416407176282831,-14.193849683958744,-105.43854171012435
-0.2417,-0.1688,0.921,-0.2739,0.7042,0.3634,-3.955,1.1725,-9.3275,-10.385919916445228,-14.460735516704535,-105.31303669865311
-0.2395,-0.1697,0.9268,-0.2739,0.7042,0.3634,-3.2987,0.8838,-9.2925,-10.376120609435912,-14.271219703582394,-105.38708650774865
-0.2411,-0.1678,0.9221,-0.2762,0.7032,0.3649,-3.3688,0.9538,-9.4587,-10.313741098803048,-14.418960884455261,-105.46025513858126
-0.2397,-0.1665,0.9238,-0.2762,0.7032,0.3649,-3.465,1.19,-9.765,-10.21717569376655,-14.329219926465463,-105.48240269755432
-0.239,-0.1696,0.9248,-0.2742,0.7044,0.3605,-3.5788,1.575,-9.9575,-10.391645765956588,-14.265457714990017,-105.4662225021161
-0.2406,-0.1682,0.9247,-0.2754,0.7053,0.3654,-3.99,1.54,-9.4762,-10.309401399802768,-14.354423085479725,-105.38582367516182
-0.2399,-0.1684,0.9232,-0.2754,0.7053,0.3654,-3.57,1.6362,-9.2925,-10.337545927018871,-14.340616009718135,-105.39688172035517
-0.2411,-0.1705,0.9216,-0.2741,0.7044,0.3643,-3.85,1.3562,-9.7388,-10.48112194859997,-14.422186758611382,-105.33660126217222
-0.2428,-0.1699,0.9273,-0.2741,0.7044,0.3643,-4.1825,1.3912,-9.8962,-10.382811634168698,-14.44158569709941,-105.31547306775248
-0.2389,-0.1697,0.9291,-0.2748,0.703,0.3642,-3.3163,1.4962,-9.6425,-10.351041802731363,-14.206801218848664,-105.47128486904757
-0.2419,-0.1703,0.9249,-0.2748,0.703,0.3641,-3.4738,1.3737,-9.6512,-10.432711503008823,-14.41442650585867,-105.40357890527926
-0.2419,-0.1703,0.927,-0.2783,0.7036,0.3641,-3.6488,1.365,-9.1175,-10.409839271899664,-14.395458252856775,-105.63902456344967
-0.2407,-0.1706,0.9277,-0.2733,0.7049,0.3634,-3.1763,1.1725,-9.2837,-10.420001931256685,-14.319016151938436,-105.32324595658037
-0.2422,-0.1677,0.9227,-0.2733,0.7049,0.3634,-3.7275,1.3562,-9.8437,-10.30129956593442,-14.473081475445134,-105.24551382504526
-0.2389,-0.1689,0.9218,-0.275,0.7042,0.3607,-4.3575,1.4262,-9.6075,-10.382853189826346,-14.309600319490315,-105.50427048548217
-0.24,-0.1706,0.9245,-0.275,0.7042,0.3607,-3.7538,1.6975,-10.4125,-10.455129424171405,-14.320572647124594,-105.50855407745095
-0.2383,-0.1689,0.9226,-0.2749,0.7033,0.3674,-3.6138,1.54,-10.4825,-10.374426043619223,-14.258598957535595,-105.38972473643831
-0.2402,-0.1695,0.9245,-0.2748,0.7032,0.3634,-4.0075,1.47,-9.6512,-10.389322536792406,-14.331805187649893,-105.44008132220694
-0.2412,-0.1712,0.9225,-0.2748,0.7032,0.3634,-3.1063,1.1987,-9.9488,-10.513203787579442,-14.413044442299498,-105.4300090417836
-0.2395,-0.1705,0.9252,-0.2754,0.7044,0.3643,-2.9225,1.4437,-9.1,-10.441740609669331,-14.288975839974674,-105.46999127109042
-0.2424,-0.1705,0.9262,-0.2754,0.7044,0.3643,-2.835,1.155,-9.0825,-10.430573534614727,-14.427204384644076,-105.41435365930192
-0.2417,-0.1709,0.923,-0.2781,0.7045,0.3618,-3.2638,1.0762,-9.7037,-10.489782360517744,-14.438697840168413,-105.65483673037818
-0.2416,-0.1706,0.9268,-0.2747,0.7058,0.364,-3.5438,1.1287,-9.0125,-10.430062404310714,-14.382268855245414,-105.37044713723847
-0.2413,-0.1693,0.9209,-0.2747,0.7058,0.364,-3.6488,1.2163,-9.59,-10.417076547121951,-14.447860334339017,-105.34266657700933
-0.2417,-0.1685,0.9208,-0.2762,0.7058,0.3642,-3.325,1.2163,-9.8,-10.37010385428791,-14.47625019930318,-105.42346352221672
-0.241,-0.1695,0.9251,-0.2762,0.7058,0.3642,-3.71,1.575,-9.3275,-10.382736150779015,-14.37758230653346,-105.46305502359331
-0.2408,-0.1701,0.9273,-0.2742,0.7048,0.3638,-3.4825,1.2337,-9.4587,-10.39450909176284,-14.330327226005847,-105.36917216092114
-0.2402,-0.1692,0.9254,-0.2757,0.7046,0.3648,-3.9375,1.33,-9.3013,-10.361577744224347,-14.323668772855322,-105.4502523382888
-0.2397,-0.17,0.924,-0.2757,0.7046,0.3648,-3.4038,1.3912,-9.3187,-10.424701026235146,-14.313251263377817,-105.46370477231486
-0.2384,-0.1701,0.9215,-0.2754,0.7034,0.3638,-3.1763,1.6887,-9.7825,-10.45844254319466,-14.275743538346546,-105.50198350013262
-0.2407,-0.1684,0.9201,-0.2754,0.7034,0.3638,-3.1937,1.1462,-9.6075,-10.371889306286034,-14.423401364414685,-105.43278616767819
-0.2418,-0.1685,0.9281,-0.2737,0.7054,0.366,-4.3225,1.4175,-9.5725,-10.290369025856208,-14.379893077786287,-105.2467328445552
-0.2405,-0.1703,0.9245,-0.275,0.7057,0.3632,-4.3488,1.47,-9.4762,-10.43697346306572,-14.351935303696036,-105.41984953137919
-0.2414,-0.1692,0.9212,-0.275,0.7057,0.3632,-3.8238,1.6887,-9.3975,-10.407779759339292,-14.447882253217195,-105.37914928023554
-0.2383,-0.1703,0.9215,-0.2742,0.7042,0.3638,-3.8675,1.505,-9.485,-10.470399808959595,-14.276203846827606,-105.41163820708398
-0.2388,-0.1707,0.9251,-0.2742,0.7042,0.3638,-3.6488,1.3037,-9.8,-10.454693627029982,-14.245156182923369,-105.41778246507559
-0.2384,-0.1703,0.9262,-0.2747,0.7045,0.3632,-3.2288,1.295,-10.15,-10.418664603495428,-14.207947789642445,-105.46716135239102
-0.2402,-0.1708,0.9223,-0.2778,0.7026,0.364,-3.3688,1.5225,-10.1587,-10.491528813905939,-14.356261093384958,-105.64673817912484
-0.2388,-0.1696,0.9252,-0.2778,0.7026,0.364,-2.8612,1.1812,-9.94,-10.387901940621225,-14.25031671690055,-105.67375935341795
-0.2408,-0.1689,0.9261,-0.273,0.7038,0.364,-3.4125,1.3825,-9.6162,-10.33599787961521,-14.343687530359416,-105.28320900502897
-0.2402,-0.1683,0.9249,-0.273,0.7038,0.364,-3.0363,1.085,-10.0712,-10.31307704373114,-14.333389158177827,-105.28488824647413
-0.2414,-0.1681,0.9277,-0.2751,0.7055,0.3628,-2.695,1.3825,-9.2925,-10.27070148443551,-14.360350893591795,-105.40865885098869
-0.2396,-0.1695,0.9226,-0.2736,0.7045,0.361,-3.08,1.5925,-9.7737,-10.409960034571691,-14.329997193977542,-105.3928919314803
-0.2415,-0.1692,0.9208,-0.2736,0.7045,0.361,-3.4825,1.47,-10.4737,-10.41212852997876,-14.457888302180946,-105.34512483614601
-0.2408,-0.1704,0.9237,-0.2754,0.7039,0.3638,-3.535,1.6275,-10.1675,-10.45206353692164,-14.382764551768217,-105.45547170681557
-0.241,-0.1693,0.9226,-0.2754,0.7039,0.3638,-3.4475,1.1375,-9.765,-10.398396260040068,-14.407994573302561,-105.43653655732552
-0.2397,-0.169,0.9212,-0.2749,0.7046,0.3702,-3.22,1.3212,-9.7737,-10.395683778896291,-14.358208148695878,-105.27850658500576
-0.2406,-0.169,0.9266,-0.2754,0.7039,0.3701,-3.6225,1.155,-9.8525,-10.336542192849384,-14.330843615275386,-105.32603815929349
-0.2397,-0.1682,0.9221,-0.2754,0.7039,0.3701,-2.9663,1.2075,-9.6862,-10.33764836917303,-14.344179170494435,-105.3206609288681
-0.2417,-0.1685,0.9221,-0.2733,0.7038,0.3638,-3.0888,1.1987,-10.0275,-10.3556483776478,-14.453326961656964,-105.27088022749146
-0.2406,-0.1687,0.9254,-0.2733,0.7038,0.3638,-3.3075,1.1638,-10.1412,-10.331598104277315,-14.352505816263262,-105.30699458835609
-0.2412,-0.171,0.922,-0.273,0.7062,0.3638,-3.78,1.68,-9.9837,-10.50664280514331,-14.421355562719915,-105.24843791722122
-0.2399,-0.1698,0.9243,-0.273,0.7042,0.3622,-2.8875,1.1287,-10.15,-10.409773594073693,-14.325148265634978,-105.3347300538275
-0.2386,-0.1701,0.9226,-0.2738,0.7042,0.3622,-4.1475,1.3825,-9.6162,-10.446241117402227,-14.272173818975725,-105.41285579667725
-0.2401,-0.1693,0.9209,-0.2779,0.7038,0.3644,-3.955,1.015,-9.7037,-10.417114424034704,-14.377083381579187,-105.60796847805834
-0.242,-0.1685,0.9288,-0.2779,0.7038,0.3644,-3.43,1.6275,-9.8175,-10.282902261255312,-14.378953985618937,-105.5890095889922
-0.2383,-0.1701,0.9285,-0.2762,0.704,0.3614,-3.4213,1.0325,-9.9137,-10.381164812025855,-14.178110191350447,-105.62189451366233
-0.2389,-0.1701,0.922,-0.2762,0.704,0.3614,-3.57,1.155,-9.5987,-10.452807060078735,-14.289830653451915,-105.58772025463787
-0.2388,-0.1716,0.9256,-0.2746,0.7034,0.3614,-3.4038,0.7175,-9.9312,-10.502885721209957,-14.236669866690356,-105.51775454810107
-0.24,-0.1689,0.9261,-0.2752,0.7046,0.3643,-3.4913,1.1812,-9.6862,-10.336266650577945,-14.299534343465183,-105.43024496158863
-0.2376,-0.1696,0.929,-0.2752,0.7046,0.3643,-3.9375,1.1375,-9.87,-10.346066108830021,-14.13085065662265,-105.49611255001648
-0.2406,-0.1696,0.9251,-0.2743,0.703,0.3642,-3.5788,0.9538,-9.4937,-10.388658144701736,-14.33926324535768,-105.38775259019869
-0.2409,-0.168,0.9274,-0.2743,0.703,0.3642,-3.4213,0.9887,-9.0387,-10.268154597425065,-14.337814527509417,-105.37352276960227
-0.241,-0.169,0.921,-0.276,0.7062,0.361,-3.9638,1.2775,-9.065,-10.397582117536766,-14.428723070343262,-105.48982621897893
-0.2384,-0.1701,0.924,-0.2759,0.7041,0.3635,-3.5525,1.6538,-9.1,-10.430768821172974,-14.247209525455755,-105.53951619025744
-0.2416,-0.1692,0.9236,-0.2759,0.7041,0.3635,-4.1213,1.2337,-9.3625,-10.381371247427,-14.420767886912808,-105.46380225977221
-0.2388,-0.1705,0.9273,-0.2751,0.7032,0.3649,-4.4713,1.0062,-9.2837,-10.41835853053544,-14.222506746421725,-105.47802335934266
-0.2407,-0.1699,0.9235,-0.2751,0.7032,0.3649,-3.6488,1.0325,-9.7125,-10.424354220829583,-14.370193460218847,-105.4199341737785
-0.242,-0.1703,0.9263,-0.2756,0.7044,0.362,-2.9925,1.5225,-9.8,-10.417496170220534,-14.408378890707016,-105.48189675838275
-0.2424,-0.1707,0.9226,-0.276,0.7049,0.3628,-3.5875,1.26,-9.8175,-10.4822074039999,-14.482019023196463,-105.46782704130828
-0.2383,-0.1712,0.9238,-0.276,0.7049,0.3628,-3.08,1.3475,-10.5612,-10.498988751988605,-14.244109245106605,-105.5600636474176
-0.242,-0.1705,0.9254,-0.2744,0.7049,0.3644,-2.7738,1.9425,-10.465,-10.439505489074087,-14.414018689459207,-105.34196088180327
-0.2386,-0.1702,0.9299,-0.2744,0.7049,0.3644,-3.5438,1.12,-9.695,-10.372224016602031,-14.176966181588641,-105.42343375013812
-0.2405,-0.1696,0.9197,-0.2758,0.7045,0.3642,-3.4913,1.4612,-9.835,-10.448237691367762,-14.410112358599115,-105.44904916954785
-0.2399,-0.1693,0.9226,-0.276,0.7031,0.3646,-3.5438,1.155,-9.9663,-10.398387345193905,-14.349204871210276,-105.49614563741707
-0.2378,-0.1697,0.9237,-0.276,0.7031,0.3646,-3.255,0.9975,-10.0712,-10.410132944886795,-14.215516111057637,-105.54713886751746
-0.2401,-0.168,0.9259,-0.2744,0.705,0.3634,-3.185,0.6913,-9.8875,-10.284446287178554,-14.30905754668337,-105.37626252168286
-0.2436,-0.1693,0.9219,-0.2744,0.705,0.3634,-3.6138,0.6563,-10.325,-10.405709377705522,-14.556422977749152,-105.30377346965716
-0.2398,-0.1677,0.9244,-0.2742,0.7039,0.359,-3.3075,1.3212,-10.22,-10.28276981863336,-14.330033324577972,-105.4682495709565
-0.2385,-0.1686,0.9263,-0.275,0.7034,0.3647,-3.5438,1.5225,-9.4325,-10.315655424028439,-14.220342954752793,-105.45606392974763
-0.238,-0.1696,0.9218,-0.275,0.7034,0.3647,-3.8937,1.1725,-9.38,-10.424879044698741,-14.24658536407086,-105.46055631955066
-0.2394,-0.1692,0.9288,-0.2756,0.7044,0.364,-3.2288,1.12,-10.3687,-10.324622733689258,-14.229884273148349,-105.49133119609166
-0.2386,-0.1699,0.9227,-0.2756,0.7044,0.364,-3.395,1.1112,-9.9925,-10.43295429063299,-14.266797270854296,-105.49355949308209
